// Start Time: Unknown
// Update Rate: 100.0Hz
// Filter Profile: human (46.1)
// Firmware Version: 4.4.0
PacketCounter	Acc_X	Acc_Y	Acc_Z	FreeAcc_X	FreeAcc_Y	FreeAcc_Z	OriInc_q0	OriInc_q1	OriInc_q2	OriInc_q3	Roll	Pitch	Yaw
39462	2.317541	-0.042291	12.917945	-0.004339	0.015442	3.311559	1.000000	0.000003	0.000050	-0.000052	-0.117677	-10.151630	-177.841176
39463	2.325537	-0.020111	12.912893	-0.013602	-0.006856	3.307949	1.000000	-0.000006	0.000051	-0.000067	-0.117049	-10.145788	-177.848953
39464	2.293526	-0.031379	12.924176	0.017992	0.005834	3.313440	1.000000	0.000002	0.000057	-0.000068	-0.115408	-10.139109	-177.856922
39465	2.292150	-0.031025	12.924421	0.017992	0.005834	3.313440	1.000000	0.000002	0.000050	-0.000060	-0.113934	-10.133413	-177.863909
39466	2.312297	-0.041124	12.918889	-0.004388	0.015427	3.311559	1.000000	-0.000002	0.000042	-0.000074	-0.112627	-10.128625	-177.872585
39467	2.289587	-0.030453	12.924877	0.017982	0.005830	3.313440	1.000000	-0.000003	0.000066	-0.000068	-0.111622	-10.121061	-177.880563
39468	2.295620	-0.027668	12.948256	0.014827	0.003220	3.337512	1.000000	0.000008	0.000041	-0.000060	-0.109538	-10.116339	-177.887544
39469	2.273111	-0.016953	12.954201	0.037197	-0.006377	3.339393	1.000000	-0.000008	0.000051	-0.000074	-0.108896	-10.110543	-177.896215
39470	2.316461	-0.018015	12.914527	-0.013726	-0.006899	3.307949	1.000000	-0.000002	0.000042	-0.000074	-0.107623	-10.105549	-177.904883
39471	2.284771	-0.029278	12.925731	0.017907	0.005802	3.313440	1.000000	-0.000001	0.000042	-0.000067	-0.106324	-10.100760	-177.912663
39472	2.304957	-0.039259	12.920206	-0.004523	0.015388	3.311559	1.000000	0.000007	0.000047	-0.000076	-0.103988	-10.095085	-177.921541
39473	2.289767	-0.025998	12.949296	0.014710	0.003197	3.337512	1.000000	0.000002	0.000050	-0.000060	-0.102520	-10.089389	-177.928524
39474	2.290342	-0.006244	12.921110	0.008513	-0.016540	3.309830	1.000000	-0.000006	0.000051	-0.000067	-0.102035	-10.083232	-177.936273
39475	2.308576	-0.036125	12.944021	-0.007731	0.012761	3.335631	1.000000	-0.000019	0.000044	-0.000088	-0.102416	-10.078197	-177.946526
39476	2.286136	-0.025546	12.949938	0.014568	0.003137	3.337512	1.000000	0.000009	0.000041	-0.000052	-0.100399	-10.073198	-177.952600
39477	2.291635	-0.040421	12.898126	-0.001526	0.017923	3.287487	1.000000	-0.000001	0.000042	-0.000067	-0.099104	-10.068408	-177.960377
39478	2.290446	-0.040204	12.898338	-0.001614	0.017865	3.287487	1.000000	-0.000008	0.000051	-0.000074	-0.098713	-10.062218	-177.969002
39479	2.296656	-0.037449	12.921690	-0.004752	0.015270	3.311559	1.000000	0.000008	0.000041	-0.000060	-0.096571	-10.057575	-177.975990
39480	2.286239	-0.059007	12.927169	0.004434	0.037464	3.315170	1.000000	0.000001	0.000049	-0.000068	-0.095536	-10.051573	-177.983799
39481	2.325022	-0.025151	12.911107	-0.036461	0.002465	3.306067	1.000000	-0.000001	0.000035	-0.000058	-0.094451	-10.047597	-177.990578
39482	2.293238	-0.036438	12.922300	-0.004889	0.014973	3.311559	1.000000	0.000001	0.000057	-0.000076	-0.093612	-10.040831	-177.999306
39483	2.270609	-0.025742	12.928234	0.017478	0.005376	3.313441	1.000000	0.000001	0.000042	-0.000059	-0.092342	-10.035984	-178.006184
39484	2.321381	-0.024274	12.911764	-0.036514	0.002053	3.306067	1.000000	-0.000009	0.000050	-0.000082	-0.092667	-10.030250	-178.015536
39485	2.296961	-0.033217	12.946095	-0.008020	0.012157	3.335632	1.000000	-0.000002	0.000042	-0.000074	-0.091365	-10.025505	-178.024204
39486	2.319148	-0.023652	12.912166	-0.036404	0.001836	3.306067	1.000000	0.000007	0.000040	-0.000068	-0.090189	-10.021368	-178.031887
39487	2.285490	-0.054488	12.951758	0.001355	0.034236	3.339244	1.000000	-0.000006	0.000051	-0.000067	-0.089594	-10.015532	-178.039649
39488	2.295332	-0.012652	12.918306	-0.013797	-0.008154	3.307948	1.000000	0.000008	0.000048	-0.000069	-0.089031	-10.011065	-178.047182
39489	2.304421	-0.064182	12.946494	-0.020772	0.043435	3.337365	1.000000	-0.000010	0.000043	-0.000081	-0.088607	-10.006202	-178.056629
39490	2.264421	-0.004369	12.901239	0.012000	-0.015626	3.285755	1.000000	-0.000009	0.000036	-0.000065	-0.090493	-10.003266	-178.063696
39491	2.320750	-0.020043	12.936351	-0.039004	-0.001636	3.330141	1.000000	-0.000006	0.000051	-0.000067	-0.089931	-9.997462	-178.071447
39492	2.272267	-0.055891	12.929646	0.005499	0.035695	3.315175	1.000000	0.000002	0.000050	-0.000060	-0.089722	-9.993817	-178.077979
39493	2.310909	-0.021950	12.913646	-0.035379	0.000686	3.306070	1.000000	0.000001	0.000042	-0.000059	-0.088503	-9.989055	-178.084840
39494	2.321963	-0.054067	12.913415	-0.048138	0.032290	3.307807	1.000000	-0.000009	0.000043	-0.000074	-0.089388	-9.985600	-178.093107
39495	2.285484	-0.030658	12.948132	-0.006516	0.010492	3.335634	1.000000	0.000006	0.000040	-0.000075	-0.087242	-9.981124	-178.101874
39496	2.296600	-0.062575	12.947892	-0.018802	0.041697	3.337373	1.000000	-0.000002	0.000041	-0.000074	-0.089137	-9.979908	-178.109607
39497	2.313672	-0.018237	12.937621	-0.037299	-0.002909	3.330145	1.000000	0.000003	0.000064	-0.000077	-0.087322	-9.972705	-178.118559
39498	2.295875	-0.042250	12.919946	-0.023801	0.021347	3.309690	1.000000	0.000005	0.000033	-0.000067	-0.088357	-9.973743	-178.125147
39499	2.303813	-0.019925	12.914918	-0.033022	-0.000960	3.306076	1.000000	-0.000003	0.000066	-0.000068	-0.087426	-9.966360	-178.133098
39500	2.271959	-0.031175	12.926072	-0.000550	0.011357	3.311564	1.000000	0.000014	0.000031	-0.000060	-0.086422	-9.966405	-178.139382
39501	2.322917	-0.029310	12.909654	-0.054506	0.008247	3.304207	1.000000	-0.000001	0.000049	-0.000083	-0.084946	-9.961060	-178.149036
39502	2.298484	-0.038213	12.943946	-0.024330	0.017392	3.333770	1.000000	-0.000001	0.000042	-0.000067	-0.088167	-9.963531	-178.155218
39503	2.290086	-0.040385	12.920979	-0.021130	0.019981	3.309697	1.000000	-0.000002	0.000041	-0.000074	-0.086946	-9.959108	-178.163859
39504	2.305430	-0.015607	12.939096	-0.032486	-0.005509	3.330157	1.000000	0.000002	0.000050	-0.000060	-0.088254	-9.957872	-178.170002
39505	2.287711	-0.039861	12.921401	-0.020016	0.019376	3.309700	1.000000	-0.000008	0.000044	-0.000066	-0.087929	-9.953249	-178.177639
39506	2.324517	-0.025494	12.933845	-0.053473	0.003294	3.328298	1.000000	0.000001	0.000042	-0.000059	-0.090346	-9.954076	-178.183667
39507	2.314134	-0.047274	12.939308	-0.044104	0.025561	3.331914	1.000000	-0.000009	0.000050	-0.000082	-0.089855	-9.948784	-178.193176
39508	2.263009	-0.028995	12.927647	0.005592	0.008391	3.311565	1.000000	-0.000001	0.000028	-0.000050	-0.091839	-9.953645	-178.197317
39509	2.283542	-0.038940	12.922141	-0.016650	0.017956	3.309706	1.000000	0.000007	0.000040	-0.000068	-0.089850	-9.949608	-178.205143
39510	2.311176	-0.046462	12.939839	-0.040374	0.024432	3.331928	1.000000	-0.000007	0.000044	-0.000058	-0.091928	-9.952258	-178.209932
39511	2.319278	-0.024161	12.934788	-0.049498	0.002111	3.328314	1.000000	0.000006	0.000040	-0.000075	-0.089883	-9.948316	-178.218667
39512	2.280208	-0.038050	12.922733	-0.013327	0.016112	3.309713	1.000000	-0.000005	0.000051	-0.000059	-0.095417	-9.948542	-178.225585
39513	2.316804	-0.023606	12.935232	-0.047914	0.000752	3.328320	1.000000	-0.000000	0.000049	-0.000075	-0.094166	-9.943642	-178.234276
39514	2.306353	-0.045369	12.940704	-0.036842	0.022542	3.331942	1.000000	-0.000009	0.000050	-0.000082	-0.095978	-9.945740	-178.241852
39515	2.276334	-0.037434	12.923417	-0.011192	0.015518	3.309715	1.000000	-0.000006	0.000051	-0.000067	-0.095579	-9.940632	-178.249552
39516	2.305844	-0.025396	12.912722	-0.042065	0.001482	3.304255	1.000000	0.000005	0.000033	-0.000067	-0.099749	-9.940059	-178.258544
39517	2.304863	-0.025124	12.912898	-0.041896	0.001419	3.304256	1.000000	-0.000008	0.000044	-0.000066	-0.099638	-9.935815	-178.266110
39518	2.294510	-0.046920	12.918349	-0.030284	0.022385	3.307881	1.000000	-0.000000	0.000049	-0.000075	-0.104459	-9.940412	-178.273654
39519	2.302378	-0.024667	12.913342	-0.039350	0.000006	3.304264	1.000000	-0.000005	0.000051	-0.000059	-0.104278	-9.935393	-178.280393
39520	2.279651	-0.014180	12.919212	-0.014071	-0.011654	3.306105	1.000000	0.000001	0.000049	-0.000068	-0.112507	-9.942334	-178.287293
39521	2.278566	-0.013892	12.919404	-0.013831	-0.011774	3.306105	1.000000	-0.000001	0.000035	-0.000058	-0.111996	-9.939398	-178.293882
39522	2.298933	-0.023753	12.913958	-0.035124	-0.001905	3.304276	1.000000	0.000008	0.000048	-0.000068	-0.108589	-9.938776	-178.300871
39523	2.309987	-0.055488	12.913780	-0.047972	0.029870	3.306064	1.000000	0.000008	0.000048	-0.000068	-0.106808	-9.934436	-178.308666
39524	2.294655	-0.042446	12.942793	-0.025121	0.015923	3.331979	1.000000	-0.000008	0.000044	-0.000066	-0.114648	-9.945024	-178.314124
39525	2.273996	-0.012474	12.920210	-0.008616	-0.013491	3.306108	1.000000	-0.000002	0.000041	-0.000074	-0.114037	-9.941630	-178.322565
39526	2.308418	-0.035214	12.885993	-0.047945	0.007612	3.278397	1.000000	-0.000008	0.000051	-0.000074	-0.116917	-9.946063	-178.329093
39527	2.300322	-0.019786	12.938180	-0.031399	-0.007388	3.328368	1.000000	-0.000001	0.000042	-0.000067	-0.116351	-9.942719	-178.336630
39528	2.301119	0.000048	12.909966	-0.035864	-0.026916	3.300679	1.000000	-0.000002	0.000041	-0.000074	-0.114640	-9.945637	-178.343246
39529	2.290807	-0.021667	12.915405	-0.026236	-0.004771	3.304296	1.000000	0.000002	0.000050	-0.000060	-0.113904	-9.941502	-178.349989
39530	2.295030	-0.038397	12.967193	-0.020563	0.009910	3.356072	1.000000	-0.000004	0.000041	-0.000090	-0.123507	-9.947828	-178.362149
39531	2.309911	-0.031346	12.910205	-0.045671	0.002283	3.302494	1.000000	-0.000006	0.000051	-0.000067	-0.123801	-9.943680	-178.369622
39532	2.308640	-0.031010	12.910433	-0.041692	0.000599	3.302507	1.000000	0.000008	0.000048	-0.000068	-0.129566	-9.955641	-178.375278
39533	2.284066	-0.039903	12.944674	-0.012661	0.010442	3.332002	1.000000	0.000001	0.000049	-0.000068	-0.129125	-9.951927	-178.382813
39534	2.306135	-0.030145	12.910883	-0.038842	-0.000653	3.302516	1.000000	0.000010	0.000048	-0.000061	-0.131785	-9.956950	-178.389451
39535	2.290741	-0.017131	12.939883	-0.019040	-0.013127	3.328387	1.000000	-0.000007	0.000044	-0.000058	-0.132516	-9.954020	-178.395853
39536	2.289536	-0.016918	12.940097	-0.016931	-0.013929	3.328389	1.000000	0.000001	0.000049	-0.000068	-0.134915	-9.957572	-178.403139
39537	2.309715	-0.026790	12.934719	-0.038800	-0.004585	3.326603	1.000000	0.000002	0.000050	-0.000060	-0.134651	-9.954072	-178.409727
39538	2.270726	-0.040814	12.922572	0.000131	0.009625	3.307931	1.000000	-0.000002	0.000041	-0.000074	-0.138900	-9.967839	-178.413836
39539	2.293286	-0.013282	12.963897	-0.014682	-0.018214	3.352472	1.000000	0.000013	0.000038	-0.000076	-0.137094	-9.965855	-178.422309
39540	2.299129	-0.028065	12.912137	-0.027929	-0.003913	3.302543	1.000000	-0.000006	0.000051	-0.000067	-0.139437	-9.973357	-178.426394
39541	2.314161	-0.003375	12.930334	-0.039663	-0.029117	3.323007	1.000000	-0.000009	0.000050	-0.000082	-0.140048	-9.970114	-178.435542
39542	2.318111	-0.037887	12.906986	-0.045593	0.004197	3.300789	1.000000	-0.000001	0.000042	-0.000067	-0.144703	-9.983433	-178.439258
39543	2.293720	-0.046849	12.941171	-0.016355	0.013972	3.330249	1.000000	0.000006	0.000040	-0.000075	-0.143837	-9.981542	-178.447602
39544	2.303630	-0.004869	12.907740	-0.028569	-0.028822	3.298943	1.000000	0.000001	0.000042	-0.000059	-0.146799	-9.991201	-178.451363
39545	2.291366	-0.046225	12.941590	-0.012394	0.012827	3.330255	1.000000	-0.000005	0.000059	-0.000067	-0.147374	-9.987332	-178.458786
39546	2.291950	-0.026444	12.913417	-0.015520	-0.007946	3.302562	1.000000	-0.000002	0.000041	-0.000074	-0.151525	-9.996301	-178.466154
39547	2.290759	-0.026226	12.913628	-0.014824	-0.008256	3.302562	1.000000	-0.000006	0.000051	-0.000067	-0.152373	-9.993480	-178.473448
39548	2.296897	-0.023425	12.937008	-0.015551	-0.011915	3.326646	1.000000	0.000005	0.000033	-0.000067	-0.155189	-9.999678	-178.481312
39549	2.310115	-0.035709	12.908426	-0.034211	0.000010	3.300824	1.000000	-0.000000	0.000049	-0.000075	-0.155198	-9.997160	-178.489589
39550	2.273171	-0.012648	12.942986	0.010283	-0.022813	3.328383	1.000000	-0.000009	0.000043	-0.000073	-0.159477	-10.004160	-178.497070
39551	2.314951	-0.032754	12.932041	-0.033749	-0.003959	3.324916	1.000000	0.000001	0.000049	-0.000067	-0.159559	-10.001687	-178.504434
39552	2.313781	-0.032435	12.932252	-0.030692	-0.003863	3.324923	1.000000	-0.000002	0.000041	-0.000074	-0.158141	-10.010432	-178.506408
39553	2.274770	-0.046417	12.920066	0.004726	0.011168	3.306180	1.000000	0.000010	0.000055	-0.000069	-0.157150	-10.007419	-178.513984
39554	2.282597	-0.023924	12.915078	-0.003319	-0.012197	3.302567	1.000000	-0.000002	0.000041	-0.000074	-0.160783	-10.007928	-178.525997
39555	2.301044	-0.053396	12.938117	-0.018661	0.016690	3.328542	1.000000	-0.000009	0.000050	-0.000082	-0.161723	-10.005484	-178.535036
39556	2.287373	-0.020750	12.938700	-0.003987	-0.015977	3.326650	1.000000	0.000016	0.000046	-0.000069	-0.162201	-10.007028	-178.544312
39557	2.300545	-0.032902	12.910142	-0.022607	-0.004075	3.300849	1.000000	-0.000001	0.000042	-0.000067	-0.162555	-10.005601	-178.551547
39558	2.297698	-0.052175	12.938717	-0.014088	0.012756	3.328552	1.000000	-0.000002	0.000034	-0.000066	-0.174275	-10.011150	-178.567764
39559	2.312969	-0.027313	12.956882	-0.025562	-0.012590	3.349020	1.000000	-0.000002	0.000041	-0.000074	-0.174776	-10.009831	-178.575838
39560	2.275910	-0.021910	12.916262	0.004880	-0.016954	3.302562	1.000000	0.000003	0.000050	-0.000052	-0.173993	-10.013256	-178.578051
39561	2.319566	-0.004591	12.952119	-0.031943	-0.035367	3.345409	1.000000	-0.000003	0.000048	-0.000091	-0.174245	-10.011207	-178.588023
39562	2.311216	-0.006792	12.929131	-0.026496	-0.033319	3.321329	1.000000	0.000001	0.000042	-0.000059	-0.176026	-10.017205	-178.593089
39563	2.295892	-0.011472	12.882908	-0.019729	-0.028376	3.273159	1.000000	0.000005	0.000033	-0.000067	-0.175888	-10.017032	-178.600262
39564	2.312584	-0.060489	12.934347	-0.026158	0.020166	3.326869	1.000000	-0.000016	0.000052	-0.000081	-0.177767	-10.025774	-178.603999
39565	2.277317	-0.017935	12.940478	0.010187	-0.021709	3.326639	1.000000	0.000008	0.000048	-0.000068	-0.177268	-10.024006	-178.611372
39566	2.302964	-0.062456	12.911587	-0.018760	0.022802	3.302790	1.000000	-0.000008	0.000043	-0.000066	-0.175593	-10.034944	-178.609382
39567	2.296459	-0.027523	12.935350	-0.007708	-0.012143	3.324952	1.000000	0.000001	0.000049	-0.000067	-0.175946	-10.033184	-178.616656
39568	2.295288	-0.027206	12.935559	-0.005965	-0.012946	3.324952	1.000000	-0.000002	0.000041	-0.000074	-0.178412	-10.036031	-178.626293
39569	2.278113	-0.051544	12.917727	0.007173	0.011617	3.304475	1.000000	-0.000001	0.000035	-0.000058	-0.179199	-10.035996	-178.632457
39570	2.314849	-0.036766	12.930366	-0.024323	-0.005832	3.323280	1.000000	-0.000002	0.000041	-0.000074	-0.187520	-10.044788	-178.644915
39571	2.292053	-0.026329	12.936134	-0.000999	-0.015852	3.324950	1.000000	0.000004	0.000057	-0.000061	-0.187866	-10.042285	-178.651343
39572	2.283602	-0.028626	12.913160	0.002310	-0.014355	3.300861	1.000000	-0.000009	0.000043	-0.000073	-0.192748	-10.038828	-178.666764
39573	2.291438	-0.006322	12.908178	-0.006049	-0.037083	3.297247	1.000000	-0.000000	0.000049	-0.000075	-0.193292	-10.037249	-178.674862
39574	2.302782	-0.038183	12.908043	-0.018332	-0.005528	3.299196	1.000000	-0.000001	0.000042	-0.000067	-0.193547	-10.035998	-178.683557
39575	2.287220	-0.025247	12.936992	0.002037	-0.018248	3.324947	1.000000	0.000002	0.000050	-0.000060	-0.194141	-10.034291	-178.689863
39576	2.286044	-0.024935	12.937200	0.004170	-0.018036	3.324946	1.000000	-0.000002	0.000041	-0.000074	-0.192081	-10.038959	-178.693208
39577	2.327830	-0.044862	12.926374	-0.039671	0.000715	3.321633	1.000000	-0.000005	0.000058	-0.000067	-0.193317	-10.036324	-178.700413
39578	2.314012	-0.012448	12.926943	-0.024830	-0.032235	3.319678	1.000000	-0.000002	0.000041	-0.000074	-0.196952	-10.039120	-178.711285
39579	2.274942	-0.026741	12.914693	0.010717	-0.017306	3.300853	1.000000	-0.000004	0.000066	-0.000068	-0.198055	-10.035661	-178.718573
39580	2.302268	-0.033827	12.932620	-0.014469	-0.011407	3.323291	1.000000	0.000016	0.000039	-0.000061	-0.199596	-10.031662	-178.731764
39581	2.303073	-0.013885	12.904415	-0.019894	-0.031468	3.295588	1.000000	-0.000008	0.000043	-0.000066	-0.201304	-10.030755	-178.738733
39582	2.299990	-0.033319	12.933027	-0.011571	-0.013083	3.323292	1.000000	-0.000006	0.000051	-0.000067	-0.206331	-10.033444	-178.748498
39583	2.291478	-0.035602	12.910062	-0.007697	-0.010869	3.299203	1.000000	0.000001	0.000056	-0.000076	-0.206845	-10.031124	-178.756645
39584	2.318589	-0.042813	12.928041	-0.031112	-0.005237	3.321655	1.000000	-0.000006	0.000065	-0.000084	-0.211728	-10.031868	-178.768849
39585	2.295638	-0.032587	12.933802	-0.007760	-0.015329	3.323292	1.000000	-0.000008	0.000043	-0.000066	-0.213565	-10.031079	-178.775774
39586	2.289086	0.002307	12.957541	0.003794	-0.050420	3.345399	1.000000	0.000001	0.000042	-0.000059	-0.214700	-10.032208	-178.782980
39587	2.306130	-0.064188	12.933845	-0.018516	0.015551	3.325278	1.000000	0.000008	0.000033	-0.000051	-0.215045	-10.032553	-178.788215
39588	2.285264	-0.034270	12.911167	0.000102	-0.014414	3.299202	1.000000	-0.000006	0.000058	-0.000075	-0.217941	-10.037347	-178.795169
39589	2.312663	-0.041525	12.929107	-0.024211	-0.008012	3.321668	1.000000	-0.000003	0.000041	-0.000082	-0.218906	-10.036916	-178.803973
39590	2.290015	-0.031279	12.934802	0.000709	-0.017908	3.323291	1.000000	-0.000008	0.000043	-0.000066	-0.220028	-10.043053	-178.807529
39591	2.303281	-0.043651	12.906298	-0.017785	-0.006112	3.297583	1.000000	-0.000000	0.000049	-0.000075	-0.220842	-10.041789	-178.815535
39592	2.280362	-0.033252	12.912037	0.006368	-0.015637	3.299199	1.000000	0.000001	0.000056	-0.000076	-0.218975	-10.043112	-178.820343
39593	2.316634	-0.018272	12.924830	-0.027199	-0.031525	3.318064	1.000000	0.000002	0.000050	-0.000060	-0.219828	-10.041797	-178.826561
39594	2.285117	-0.030076	12.935671	0.006728	-0.018951	3.323288	1.000000	-0.000005	0.000026	-0.000073	-0.219571	-10.048605	-178.831176
39595	2.285987	-0.010342	12.907456	0.001338	-0.039034	3.295583	1.000000	-0.000006	0.000051	-0.000067	-0.221258	-10.047183	-178.838190
39596	2.291810	-0.007454	12.930902	0.000468	-0.043185	3.319670	1.000000	0.000008	0.000048	-0.000068	-0.225569	-10.050470	-178.849593
39597	2.303168	-0.039162	12.930809	-0.011603	-0.011816	3.321682	1.000000	0.000002	0.000050	-0.000060	-0.226477	-10.049227	-178.855792
39598	2.310822	-0.016815	12.925872	-0.018610	-0.033720	3.318073	1.000000	-0.000005	0.000051	-0.000059	-0.224363	-10.053419	-178.855456
39599	2.291691	-0.060932	12.936427	0.001013	0.010345	3.325296	1.000000	-0.000008	0.000043	-0.000066	-0.226270	-10.052962	-178.862357
39600	2.276003	-0.048145	12.965343	0.021346	-0.002360	3.350981	1.000000	0.000001	0.000049	-0.000067	-0.226653	-10.050838	-178.871520
39601	2.291174	-0.040941	12.908461	-0.003560	-0.010146	3.297592	1.000000	-0.000008	0.000043	-0.000066	-0.228569	-10.050368	-178.878418
39602	2.313305	-0.013429	12.949919	-0.017033	-0.038560	3.342166	1.000000	0.000006	0.000033	-0.000067	-0.229903	-10.053419	-178.886856
39603	2.296356	-0.037545	12.932025	-0.003830	-0.014082	3.321684	1.000000	0.000016	0.000039	-0.000061	-0.229261	-10.053478	-178.893157
39604	2.295112	-0.037110	12.932247	-0.002409	-0.014806	3.321684	1.000000	-0.000007	0.000058	-0.000083	-0.231762	-10.053054	-178.904369
39605	2.295693	-0.017309	12.904086	-0.007801	-0.034899	3.293978	1.000000	0.000001	0.000042	-0.000059	-0.232881	-10.052745	-178.910457
39606	2.308633	-0.011969	12.950754	-0.012974	-0.040685	3.342165	1.000000	-0.000006	0.000051	-0.000067	-0.233927	-10.049290	-178.919764
39607	2.321868	-0.024287	12.922290	-0.031469	-0.028898	3.316494	1.000000	-0.000000	0.000049	-0.000075	-0.234819	-10.048203	-178.927741
39608	2.290081	-0.036080	12.933142	0.001472	-0.015876	3.321683	1.000000	-0.000000	0.000049	-0.000075	-0.231901	-10.048126	-178.932717
39609	2.296067	-0.033220	12.956562	-0.000343	-0.019107	3.345776	1.000000	-0.000001	0.000035	-0.000058	-0.233184	-10.048668	-178.938710
39610	2.280842	-0.038163	12.910300	0.007557	-0.013375	3.297587	1.000000	-0.000006	0.000051	-0.000067	-0.231379	-10.052505	-178.940320
39611	2.315484	-0.042717	12.951491	-0.019486	-0.009721	3.344209	1.000000	0.000006	0.000033	-0.000067	-0.231742	-10.053334	-178.947319
39612	2.307363	-0.044984	12.928452	-0.014967	-0.007424	3.320116	1.000000	-0.000009	0.000050	-0.000082	-0.233070	-10.054900	-178.956322
39613	2.300349	-0.010043	12.952230	-0.003655	-0.042533	3.342165	1.000000	0.000004	0.000057	-0.000061	-0.233788	-10.052921	-178.962621
39614	2.311778	-0.041721	12.952156	-0.015159	-0.011345	3.344214	1.000000	0.000007	0.000040	-0.000067	-0.234823	-10.055283	-178.970648
39615	2.290791	-0.011749	12.929443	0.001843	-0.041025	3.318065	1.000000	0.000001	0.000056	-0.000076	-0.235513	-10.053436	-178.978731
39616	2.302022	-0.043479	12.929409	-0.010085	-0.009836	3.320119	1.000000	0.000004	0.000057	-0.000061	-0.237043	-10.051978	-178.987418
39617	2.309759	-0.021025	12.924465	-0.018321	-0.032644	3.316510	1.000000	-0.000003	0.000034	-0.000073	-0.238301	-10.052719	-178.995191
39618	2.270912	-0.035538	12.912057	0.017916	-0.018184	3.297571	1.000000	-0.000004	0.000066	-0.000068	-0.241709	-10.052636	-179.003897
39619	2.307200	-0.020448	12.924923	-0.015539	-0.034128	3.316510	1.000000	0.000006	0.000033	-0.000067	-0.242158	-10.053549	-179.010865
39620	2.297325	-0.042313	12.930248	-0.004293	-0.012459	3.320120	1.000000	-0.000009	0.000043	-0.000073	-0.244591	-10.057159	-179.017938
39621	2.298003	-0.022528	12.902073	-0.009688	-0.032553	3.292414	1.000000	0.000001	0.000049	-0.000067	-0.245564	-10.056210	-179.024999
39622	2.273323	-0.031928	12.936109	0.020949	-0.022899	3.321656	1.000000	-0.000008	0.000043	-0.000066	-0.246639	-10.058971	-179.030637
39623	2.272134	-0.031713	12.936319	0.022035	-0.023436	3.321653	1.000000	-0.000000	0.000049	-0.000075	-0.247590	-10.058101	-179.038592
39624	2.235236	0.066544	12.833839	0.043327	-0.120533	3.213890	1.000000	-0.000018	0.000037	-0.000072	-0.246944	-10.064520	-179.040239
39625	2.379452	-0.230808	13.079598	-0.060637	0.173523	3.482318	1.000000	-0.000000	0.000060	-0.000037	-0.248690	-10.062394	-179.043723
39626	2.091473	-0.063508	12.840113	0.183676	0.012154	3.195499	1.000000	0.000006	0.000047	-0.000084	-0.244041	-10.063153	-179.047490
39627	2.500651	0.025358	12.886132	-0.209736	-0.083389	3.311921	1.000000	0.000016	0.000039	-0.000061	-0.243428	-10.063472	-179.053774
39628	2.148656	0.014803	13.044766	0.164470	-0.068338	3.406660	1.000000	-0.000013	0.000039	-0.000041	-0.249727	-10.063984	-179.062944
39629	2.352415	-0.014976	13.037757	-0.037821	-0.042183	3.435482	1.000000	0.000002	0.000045	-0.000114	-0.249657	-10.063623	-179.075481
39630	2.316096	0.066007	12.860115	-0.032103	-0.122119	3.253883	1.000000	0.000007	0.000040	-0.000067	-0.248998	-10.062912	-179.084292
39631	2.292406	-0.054323	12.880574	-0.006925	-0.001639	3.270401	1.000000	-0.000002	0.000034	-0.000066	-0.250324	-10.063765	-179.091153
39632	2.282013	-0.058645	12.961024	0.018358	0.002266	3.347815	1.000000	-0.000008	0.000036	-0.000057	-0.252866	-10.068264	-179.096317
39633	2.377585	-0.038709	12.981177	-0.071918	-0.019541	3.384275	1.000000	-0.000000	0.000049	-0.000075	-0.253818	-10.067487	-179.104268
39634	2.285163	0.000624	12.876306	0.001089	-0.056679	3.264698	1.000000	-0.000001	0.000056	-0.000091	-0.251046	-10.066152	-179.111218
39635	2.310708	-0.025915	12.922742	-0.016491	-0.030809	3.314996	1.000000	-0.000004	0.000041	-0.000090	-0.252106	-10.066347	-179.120866
39636	2.336544	-0.052420	12.969130	-0.033052	-0.004967	3.365302	1.000000	0.000007	0.000033	-0.000059	-0.252768	-10.071815	-179.126178
39637	2.269318	-0.059667	12.938787	0.027736	0.003076	3.323705	1.000000	-0.000006	0.000051	-0.000066	-0.254611	-10.070849	-179.133134
39638	2.357557	0.051142	12.874124	-0.069179	-0.108258	3.274988	1.000000	-0.000000	0.000042	-0.000067	-0.251265	-10.069974	-179.137435
39639	2.319164	-0.056993	12.923249	-0.024369	-0.000098	3.317108	1.000000	-0.000014	0.000045	-0.000057	-0.254157	-10.069621	-179.143305
39640	2.339485	-0.066849	12.918085	-0.044904	0.008912	3.315621	1.000000	-0.000005	0.000058	-0.000067	-0.256050	-10.071108	-179.150279
39641	2.287729	-0.049279	12.905903	0.003796	-0.008056	3.294501	1.000000	0.000010	0.000055	-0.000069	-0.255957	-10.069666	-179.157541
39642	2.266671	-0.019394	12.883145	0.020802	-0.037264	3.268283	1.000000	0.000003	0.000043	-0.000043	-0.255140	-10.069679	-179.160658
39643	2.316943	0.001082	12.942576	-0.018090	-0.058719	3.335496	1.000000	0.000008	0.000048	-0.000068	-0.255221	-10.069102	-179.167822
39644	2.283106	-0.030401	12.981745	0.022160	-0.027354	3.368282	1.000000	-0.000004	0.000066	-0.000068	-0.258274	-10.070361	-179.175377
39645	2.276404	-0.013134	12.930392	0.019524	-0.044692	3.316473	1.000000	0.000004	0.000057	-0.000060	-0.259096	-10.068727	-179.181637
39646	2.259321	-0.037580	12.912492	0.033185	-0.019958	3.295970	1.000000	-0.000000	0.000042	-0.000067	-0.259208	-10.070971	-179.187659
39647	2.272091	-0.032065	12.959205	0.028800	-0.025989	3.344170	1.000000	-0.000000	0.000049	-0.000075	-0.260158	-10.070322	-179.195608
39648	2.292590	-0.041623	12.954025	0.007531	-0.016751	3.342697	1.000000	-0.000000	0.000042	-0.000067	-0.260465	-10.070501	-179.202828
39649	2.295264	-0.002083	12.897452	-0.004419	-0.056370	3.287286	1.000000	0.000007	0.000040	-0.000067	-0.260758	-10.070848	-179.209880
39650	2.285165	-0.024016	12.902803	0.006098	-0.034163	3.290888	1.000000	-0.000016	0.000059	-0.000090	-0.261162	-10.069491	-179.218885
39651	2.262202	-0.014004	12.908411	0.029636	-0.044286	3.292349	1.000000	-0.000002	0.000041	-0.000074	-0.262291	-10.069709	-179.226733
39652	2.273053	-0.028156	12.983514	0.032201	-0.030575	3.368254	1.000000	-0.000005	0.000051	-0.000059	-0.263247	-10.070451	-179.232492
39653	2.316009	-0.065436	12.897829	-0.025643	0.005884	3.291567	1.000000	-0.000008	0.000043	-0.000066	-0.265277	-10.070448	-179.239343
39654	2.278514	-0.042919	12.932030	0.018080	-0.016350	3.318584	1.000000	-0.000002	0.000041	-0.000074	-0.265447	-10.072968	-179.245658
39655	2.327758	-0.059718	12.944734	-0.028332	-0.000478	3.339779	1.000000	-0.000000	0.000042	-0.000067	-0.266609	-10.073172	-179.252608
39656	2.306870	-0.029991	12.921919	-0.011143	-0.029914	3.313528	1.000000	-0.000002	0.000041	-0.000074	-0.266766	-10.074310	-179.259933
39657	2.321446	-0.004877	12.940271	-0.022031	-0.055495	3.334031	1.000000	0.000002	0.000050	-0.000060	-0.267778	-10.073611	-179.266088
39658	2.304402	-0.029440	12.922361	-0.008776	-0.031015	3.313527	1.000000	-0.000006	0.000051	-0.000066	-0.269718	-10.073129	-179.274687
39659	2.292343	-0.070955	12.956104	0.008235	0.010254	3.344832	1.000000	0.000004	0.000057	-0.000060	-0.270561	-10.071572	-179.280937
39660	2.308771	-0.026258	12.946082	-0.001783	-0.003281	3.337679	1.000000	-0.000003	0.000034	-0.000073	-0.131140	-10.106685	-177.832135
39661	2.293855	-0.031088	12.899744	0.004718	0.002008	3.289454	1.000000	0.000008	0.000048	-0.000068	-0.130076	-10.106495	-177.832108
39662	2.299559	-0.027943	12.923227	0.003861	-0.000740	3.313566	1.000000	0.000008	0.000048	-0.000068	-0.127925	-10.108837	-177.836637
39663	2.298321	-0.027503	12.923448	0.005076	-0.000986	3.313566	1.000000	-0.000001	0.000048	-0.000083	-0.127672	-10.108567	-177.838300
39664	2.275292	-0.017216	12.929039	0.028540	-0.010889	3.315007	1.000000	0.000009	0.000055	-0.000077	-0.129318	-10.105684	-177.824531
39665	2.281884	-0.031939	12.877380	0.012362	0.003395	3.265339	1.000000	-0.000008	0.000043	-0.000066	-0.130174	-10.105993	-177.824205
39666	2.317236	0.000921	12.965530	-0.005522	-0.030893	3.358249	1.000000	0.000003	0.000043	-0.000043	-0.132103	-10.106785	-177.812150
39667	2.315192	-0.036241	12.918962	-0.013011	0.005918	3.312129	1.000000	-0.000016	0.000044	-0.000072	-0.133800	-10.106962	-177.812620
39668	2.292396	-0.026226	12.924503	0.011421	-0.003257	3.313562	1.000000	0.000007	0.000040	-0.000067	-0.132824	-10.110069	-177.812445
39669	2.291327	-0.025929	12.924693	0.012636	-0.003501	3.313560	1.000000	-0.000009	0.000043	-0.000073	-0.133650	-10.110429	-177.813014
39670	2.297055	-0.023085	12.948172	0.011235	-0.007165	3.337673	1.000000	-0.000000	0.000049	-0.000075	-0.136276	-10.109996	-177.798638
39671	2.317597	-0.032570	12.943040	-0.010215	0.001544	3.336248	1.000000	-0.000000	0.000042	-0.000066	-0.136261	-10.110487	-177.798412
39672	2.311290	-0.015272	12.891622	-0.012745	-0.015661	3.284480	1.000000	0.000001	0.000056	-0.000076	-0.135699	-10.108051	-177.797957
39673	2.277593	-0.046901	12.930681	0.025883	0.017452	3.317094	1.000000	-0.000000	0.000049	-0.000075	-0.135475	-10.107732	-177.798724
39674	2.335520	-0.041343	12.938388	-0.030468	0.009704	3.334830	1.000000	0.000001	0.000042	-0.000059	-0.135608	-10.104070	-177.793148
39675	2.305787	-0.034075	12.920650	-0.003974	0.003299	3.312135	1.000000	-0.000016	0.000044	-0.000072	-0.137304	-10.104250	-177.793617
39676	2.282983	-0.024083	12.926173	0.019368	-0.006043	3.313551	1.000000	0.000006	0.000040	-0.000075	-0.137010	-10.102552	-177.788131
39677	2.294702	-0.055649	12.926168	0.006565	0.025196	3.315675	1.000000	0.000004	0.000057	-0.000060	-0.136667	-10.101270	-177.787204
39678	2.280222	-0.023478	12.926662	0.022015	-0.005945	3.313547	1.000000	-0.000012	0.000060	-0.000066	-0.135467	-10.100725	-177.799399
39679	2.316274	-0.008277	12.939746	-0.010703	-0.022596	3.332714	1.000000	-0.000000	0.000042	-0.000066	-0.135451	-10.101217	-177.799171
39680	2.353520	-0.010653	12.877667	-0.058067	-0.022257	3.278135	1.000000	-0.000008	0.000050	-0.000074	-0.137383	-10.101745	-177.792045
39681	2.159352	-0.089580	13.020678	0.154716	0.064564	3.385069	1.000000	0.000005	0.000065	-0.000061	-0.136861	-10.099601	-177.791215
39682	2.402822	-0.007198	12.862469	-0.109658	-0.027239	3.271806	1.000000	0.000004	0.000046	-0.000099	-0.134624	-10.099648	-177.799040
39683	2.286535	-0.054026	12.927622	0.014300	0.024273	3.315671	1.000000	-0.000002	0.000053	-0.000036	-0.135419	-10.098895	-177.795229
39684	2.368675	-0.001304	12.948500	-0.060932	-0.030739	3.350505	1.000000	0.000008	0.000048	-0.000068	-0.131516	-10.098951	-177.808920
39685	2.270605	-0.151882	12.943174	0.028661	0.123565	3.328407	1.000000	0.000004	0.000064	-0.000069	-0.130964	-10.096858	-177.808985
39686	2.304898	0.105292	12.955000	0.006111	-0.134696	3.345484	1.000000	0.000001	0.000056	-0.000076	-0.131089	-10.094674	-177.805677
39687	2.185227	-0.036000	12.954929	0.118350	0.010742	3.324762	1.000000	-0.000022	0.000047	-0.000056	-0.133713	-10.094574	-177.804255
39688	2.233623	-0.090122	12.921040	0.062209	0.062595	3.300004	1.000000	0.000002	0.000050	-0.000060	-0.133394	-10.092011	-177.801609
39689	2.298309	-0.081786	12.952130	0.004258	0.052011	3.341926	1.000000	-0.000002	0.000048	-0.000090	-0.133109	-10.091794	-177.804163
39690	2.281823	0.024389	12.919275	0.018854	-0.053699	3.306449	1.000000	0.000003	0.000032	-0.000082	-0.133283	-10.093176	-177.799214
39691	2.197092	-0.103473	13.035471	0.118151	0.077842	3.406291	1.000000	-0.000002	0.000027	-0.000057	-0.133653	-10.095342	-177.797894
39692	2.272287	-0.052556	12.802675	0.005497	0.022995	3.190158	1.000000	-0.000026	0.000017	-0.000045	-0.135645	-10.096646	-177.801319
39693	1.926645	-0.064025	12.982394	0.377127	0.047895	3.306539	1.000000	0.000000	0.000035	-0.000050	-0.135867	-10.097899	-177.799201
39694	2.409137	0.059725	12.826346	-0.120239	-0.094370	3.237190	1.000000	0.000001	0.000010	-0.000064	-0.134472	-10.099242	-177.803787
39695	2.335802	-0.119772	12.970655	-0.028979	0.088407	3.366825	1.000000	0.000000	0.000035	-0.000050	-0.134695	-10.100495	-177.801669
39696	2.503597	0.005403	12.983875	-0.187025	-0.042252	3.408972	1.000000	0.000019	0.000022	-0.000067	-0.130524	-10.101267	-177.811056
39697	2.416291	-0.140756	12.898124	-0.121334	0.106874	3.309573	1.000000	-0.000008	0.000043	-0.000066	-0.131378	-10.101580	-177.810727
39698	2.329269	0.234374	12.983378	-0.006775	-0.264071	3.377414	1.000000	0.000016	0.000053	-0.000077	-0.128651	-10.100464	-177.814822
39699	2.311347	-0.088687	12.948407	-0.008039	0.059304	3.340557	1.000000	-0.000016	0.000084	-0.000068	-0.130357	-10.096109	-177.814782
39700	2.337622	-0.002065	12.905092	-0.038924	-0.028163	3.302326	1.000000	0.000017	0.000047	-0.000061	-0.127250	-10.095225	-177.819866
39701	2.126784	-0.050087	12.921132	0.169351	0.027937	3.281277	1.000000	-0.000008	0.000057	-0.000090	-0.127657	-10.093968	-177.822416
39702	2.308798	0.062691	12.905973	-0.008515	-0.091300	3.298003	1.000000	0.000005	0.000046	-0.000091	-0.125360	-10.093039	-177.830803
39703	2.132544	-0.064376	12.869666	0.153927	0.042193	3.231650	1.000000	-0.000003	0.000034	-0.000073	-0.125490	-10.094445	-177.831370
39704	2.252327	0.003668	12.903518	0.044679	-0.030364	3.285818	1.000000	-0.000007	0.000025	-0.000088	-0.126728	-10.095408	-177.825902
39705	2.270923	-0.062639	12.879968	0.020204	0.035071	3.266034	1.000000	-0.000003	0.000034	-0.000073	-0.126858	-10.096814	-177.826468
39706	2.281862	0.053827	12.940200	0.024571	-0.081989	3.326994	1.000000	-0.000012	0.000021	-0.000063	-0.129916	-10.098315	-177.813532
39707	2.357454	-0.064008	12.905853	-0.059482	0.032558	3.306692	1.000000	-0.000003	0.000013	-0.000040	-0.130702	-10.102103	-177.810225
39708	2.453150	-0.043192	12.926582	-0.148300	0.007967	3.343842	1.000000	-0.000008	0.000036	-0.000057	-0.132228	-10.104687	-177.806355
39709	2.465876	-0.037713	12.973339	-0.152128	0.002086	3.392097	1.000000	-0.000001	0.000035	-0.000058	-0.132420	-10.105992	-177.805130
39710	2.496990	-0.005233	12.934856	-0.188177	-0.032251	3.359595	1.000000	0.000005	0.000058	-0.000053	-0.134322	-10.104902	-177.787758
39711	2.377269	-0.016100	12.919794	-0.073896	-0.017045	3.323788	1.000000	-0.000009	0.000068	-0.000052	-0.135578	-10.102351	-177.785831
39712	2.360460	-0.003620	12.948688	-0.052455	-0.028639	3.349255	1.000000	-0.000001	0.000074	-0.000061	-0.134460	-10.099289	-177.792199
39713	2.345128	-0.008722	12.902411	-0.046211	-0.023270	3.301017	1.000000	-0.000003	0.000059	-0.000052	-0.135022	-10.097779	-177.790272
39714	2.249081	-0.009719	12.853658	0.039673	-0.019096	3.236184	1.000000	-0.000004	0.000066	-0.000068	-0.136010	-10.097246	-177.785572
39715	2.223709	-0.019618	12.887578	0.069664	-0.008375	3.265157	1.000000	-0.000021	0.000068	-0.000082	-0.138011	-10.094720	-177.787125
39716	2.200310	-0.009849	12.893107	0.093530	-0.017291	3.266480	1.000000	0.000002	0.000057	-0.000068	-0.137016	-10.093199	-177.789482
39717	2.185771	0.022228	12.893531	0.108917	-0.048929	3.264276	1.000000	-0.000015	0.000052	-0.000073	-0.138532	-10.092526	-177.790044
39718	2.187585	-0.014400	12.973768	0.119592	-0.012863	3.343678	1.000000	-0.000015	0.000045	-0.000065	-0.142359	-10.091900	-177.772169
39719	2.252013	-0.043542	12.958191	0.052608	0.013309	3.339698	1.000000	-0.000018	0.000030	-0.000063	-0.144437	-10.093762	-177.771544
39720	2.292971	-0.082655	12.976196	0.014193	0.050085	3.364699	1.000000	-0.000016	0.000031	-0.000048	-0.148148	-10.094617	-177.754618
39721	2.331114	-0.047833	12.960999	-0.024396	0.013426	3.356334	1.000000	-0.000008	0.000043	-0.000066	-0.149001	-10.094933	-177.754285
39722	2.327719	-0.104672	12.942775	-0.026338	0.070212	3.337942	1.000000	-0.000016	0.000044	-0.000072	-0.149730	-10.095301	-177.759852
39723	2.267772	-0.072919	12.982036	0.040608	0.040788	3.366010	1.000000	0.000006	0.000058	-0.000045	-0.149454	-10.093918	-177.757126
39724	2.250966	-0.097512	12.964035	0.052778	0.066078	3.345405	1.000000	0.000002	0.000050	-0.000060	-0.148816	-10.093289	-177.757968
39725	2.212569	-0.112494	12.951230	0.087731	0.082490	3.326109	1.000000	0.000001	0.000042	-0.000059	-0.148830	-10.093733	-177.756838
39726	2.189437	-0.139733	12.909843	0.102744	0.110360	3.281375	1.000000	0.000006	0.000033	-0.000066	-0.148887	-10.096757	-177.751164
39727	2.168808	-0.109871	12.886837	0.120645	0.081576	3.255027	1.000000	0.000018	0.000022	-0.000075	-0.146577	-10.099563	-177.751923
39728	2.161743	-0.074577	12.910434	0.133547	0.046992	3.276925	1.000000	0.000011	0.000030	-0.000083	-0.145666	-10.101107	-177.747404
39729	2.198592	-0.058520	12.923516	0.101027	0.030090	3.296217	1.000000	0.000024	-0.000002	-0.000058	-0.143079	-10.106574	-177.746178
39730	2.249173	-0.037057	12.983174	0.063369	0.007288	3.363765	1.000000	0.000018	0.000014	-0.000066	-0.142017	-10.109215	-177.736954
39731	2.311541	0.008602	12.934303	-0.003955	-0.040458	3.326484	1.000000	0.000016	0.000014	-0.000082	-0.139851	-10.112935	-177.738511
39732	2.347926	-0.012634	12.900629	-0.045780	-0.020222	3.299773	1.000000	0.000013	0.000024	-0.000059	-0.137824	-10.115517	-177.743087
39733	2.360963	-0.006588	12.947329	-0.049478	-0.026134	3.348027	1.000000	0.000017	0.000014	-0.000074	-0.135691	-10.119185	-177.743749
39734	2.390916	0.006774	12.937133	-0.079510	-0.040207	3.343223	1.000000	0.000011	0.000023	-0.000074	-0.134037	-10.121811	-177.746367
39735	2.390302	0.007310	12.937246	-0.078287	-0.040463	3.343230	1.000000	0.000002	0.000024	-0.000081	-0.133436	-10.124313	-177.747825
39736	2.398176	0.030047	12.932323	-0.085817	-0.063148	3.339718	1.000000	0.000005	0.000032	-0.000074	-0.131839	-10.124806	-177.754382
39737	2.399081	0.050137	12.904131	-0.090632	-0.083192	3.312082	1.000000	0.000007	0.000040	-0.000067	-0.130951	-10.125481	-177.754244
39738	2.419741	0.040865	12.899128	-0.112348	-0.074341	3.310809	1.000000	-0.000009	0.000050	-0.000082	-0.129989	-10.124376	-177.767390
39739	2.422974	-0.013209	12.904284	-0.116911	-0.020624	3.316572	1.000000	-0.000016	0.000059	-0.000089	-0.131265	-10.122949	-177.769837
39740	2.379847	0.025669	12.886598	-0.076137	-0.058236	3.291493	1.000000	-0.000009	0.000043	-0.000073	-0.132489	-10.123617	-177.766422
39741	2.376742	0.006421	12.915192	-0.068874	-0.038704	3.319140	1.000000	0.000009	0.000055	-0.000077	-0.131218	-10.122620	-177.767371
39742	2.382035	0.009504	12.938769	-0.069771	-0.041475	3.343275	1.000000	-0.000007	0.000057	-0.000083	-0.130352	-10.122788	-177.780182
39743	2.380216	-0.027533	12.892283	-0.077970	-0.004707	3.297272	1.000000	-0.000004	0.000066	-0.000068	-0.130680	-10.120522	-177.780137
39744	2.348112	-0.040000	12.902849	-0.045259	0.009034	3.302060	1.000000	-0.000006	0.000065	-0.000083	-0.130558	-10.119490	-177.784829
39745	2.368560	-0.012127	12.944717	-0.057373	-0.019517	3.346806	1.000000	-0.000003	0.000059	-0.000052	-0.131127	-10.117983	-177.782898
39746	2.358479	-0.034147	12.950040	-0.047693	0.002990	3.350323	1.000000	0.000003	0.000057	-0.000060	-0.130206	-10.116679	-177.785126
39747	2.333432	-0.043716	12.983847	-0.017657	0.013806	3.379226	1.000000	0.000008	0.000048	-0.000068	-0.129142	-10.116492	-177.785082
39748	2.311656	-0.051587	12.914190	-0.009139	0.022587	3.306845	1.000000	-0.000017	0.000076	-0.000067	-0.128783	-10.113249	-177.803047
39749	2.346981	-0.036035	12.927595	-0.041586	0.005594	3.326208	1.000000	0.000005	0.000065	-0.000061	-0.128272	-10.111109	-177.802204
39750	2.316738	-0.028749	12.909773	-0.014921	-0.000621	3.303337	1.000000	0.000006	0.000065	-0.000053	-0.128216	-10.110062	-177.796850
39751	2.306479	-0.050742	12.915119	-0.005242	0.021760	3.306848	1.000000	-0.000003	0.000066	-0.000060	-0.128576	-10.107746	-177.795910
39752	2.298000	-0.053100	12.892117	-0.001472	0.024451	3.282721	1.000000	0.000004	0.000071	-0.000077	-0.127422	-10.105515	-177.800098
39753	2.302972	-0.049964	12.915748	-0.002669	0.021364	3.306850	1.000000	0.000003	0.000064	-0.000077	-0.126844	-10.103479	-177.801044
39754	2.270735	-0.024965	12.973088	0.039251	-0.002155	3.357594	1.000000	0.000005	0.000086	-0.000094	-0.126492	-10.098771	-177.795730
39755	2.270644	-0.004971	12.945070	0.034419	-0.022186	3.329953	1.000000	-0.000006	0.000065	-0.000083	-0.126752	-10.096610	-177.797473
39756	2.269015	-0.004540	12.945356	0.035757	-0.022378	3.329950	1.000000	0.000007	0.000061	-0.000100	-0.125002	-10.095435	-177.802559
39757	2.236882	-0.016759	12.955860	0.068204	-0.008675	3.334689	1.000000	0.000005	0.000072	-0.000070	-0.124283	-10.092486	-177.802705
39758	2.178090	-0.002766	12.919832	0.119735	-0.020249	3.288893	1.000000	-0.000006	0.000058	-0.000075	-0.123062	-10.091069	-177.817913
39759	2.168033	-0.025006	12.925120	0.129397	0.002159	3.292387	1.000000	-0.000014	0.000059	-0.000074	-0.124401	-10.089543	-177.818567
39760	2.210556	-0.044074	12.915003	0.084861	0.019251	3.289917	1.000000	-0.000009	0.000036	-0.000065	-0.125676	-10.089921	-177.814198
39761	2.172450	-0.059487	12.902041	0.119681	0.035819	3.270513	1.000000	-0.000008	0.000043	-0.000066	-0.126527	-10.090244	-177.813861
39762	2.222078	-0.075814	12.915186	0.072876	0.049865	3.292183	1.000000	-0.000014	0.000020	-0.000078	-0.128953	-10.093010	-177.803778
39763	2.271710	-0.092041	12.928338	0.026125	0.064127	3.313861	1.000000	0.000003	0.000043	-0.000043	-0.129034	-10.093354	-177.800853
39764	2.344892	-0.060789	12.954802	-0.040073	0.030581	3.352668	1.000000	-0.000002	0.000034	-0.000066	-0.127675	-10.093803	-177.813762
39765	2.357188	-0.092232	12.954870	-0.053218	0.061645	3.354957	1.000000	0.000010	0.000048	-0.000060	-0.126642	-10.093565	-177.812819
39766	2.334056	-0.082274	12.960251	-0.029279	0.052534	3.356180	1.000000	0.000001	0.000049	-0.000067	-0.127247	-10.092933	-177.804850
39767	2.282369	-0.065513	12.947447	0.019888	0.037809	3.334482	1.000000	0.000010	0.000048	-0.000060	-0.126215	-10.092695	-177.803906
39768	2.265806	-0.052750	12.976163	0.041654	0.026067	3.359824	1.000000	0.000012	0.000056	-0.000053	-0.125000	-10.092098	-177.803214
39769	2.192090	-0.063618	12.921737	0.103970	0.039720	3.293349	1.000000	0.000010	0.000055	-0.000069	-0.123759	-10.091050	-177.803261
39770	2.155312	-0.021701	12.927254	0.142145	-0.000615	3.292255	1.000000	0.000011	0.000063	-0.000070	-0.123030	-10.088187	-177.796391
39771	2.147344	-0.023788	12.904141	0.145718	0.002015	3.268111	1.000000	0.000016	0.000039	-0.000060	-0.121300	-10.088987	-177.795447
39772	2.146728	-0.023203	12.904245	0.146783	0.001575	3.268099	1.000000	0.000010	0.000009	-0.000057	-0.121316	-10.092561	-177.783497
39773	2.250921	0.021223	12.920480	0.049683	-0.046415	3.302238	1.000000	0.000012	0.000016	-0.000058	-0.120108	-10.095947	-177.782265
39774	2.309450	0.027830	12.928588	-0.005458	-0.054843	3.320465	1.000000	0.000010	0.000016	-0.000066	-0.118628	-10.099379	-177.784559
39775	2.346162	0.043833	12.941821	-0.037783	-0.071972	3.339898	1.000000	0.000002	0.000010	-0.000064	-0.118431	-10.103504	-177.784029
39776	2.398093	0.047530	12.926592	-0.090646	-0.077560	3.334010	1.000000	0.000004	0.000018	-0.000057	-0.117829	-10.106358	-177.784811
39777	2.395774	0.028221	12.955036	-0.083374	-0.058020	3.361650	1.000000	-0.000008	0.000018	-0.000087	-0.118226	-10.109602	-177.786965
39778	2.381744	0.060061	12.955260	-0.067527	-0.089694	3.359347	1.000000	-0.000017	0.000030	-0.000055	-0.120914	-10.112221	-177.779628
39779	2.387895	0.025638	12.931930	-0.078387	-0.055805	3.337531	1.000000	0.000001	0.000017	-0.000080	-0.120474	-10.115589	-177.780983
39780	2.387151	-0.011422	12.885313	-0.086959	-0.019157	3.291586	1.000000	-0.000018	0.000050	-0.000096	-0.122292	-10.114916	-177.778442
39781	2.392719	-0.045994	12.862095	-0.097852	0.014727	3.269778	1.000000	-0.000017	0.000044	-0.000080	-0.123945	-10.115172	-177.779797
39782	2.381375	-0.088023	12.895658	-0.082163	0.056714	3.300921	1.000000	-0.000020	0.000036	-0.000087	-0.126660	-10.116651	-177.770891
39783	2.366949	-0.056201	12.895949	-0.066502	0.025188	3.298608	1.000000	-0.000010	0.000042	-0.000081	-0.127442	-10.117083	-177.772341
39784	2.379124	-0.087746	12.896075	-0.079728	0.056376	3.300937	1.000000	0.000001	0.000056	-0.000076	-0.126308	-10.116010	-177.779914
39785	2.382584	-0.104254	12.948014	-0.074804	0.073054	3.352711	1.000000	-0.000002	0.000048	-0.000090	-0.126010	-10.115806	-177.782451
39786	2.404806	-0.093683	12.914828	-0.102342	0.061822	3.323916	1.000000	0.000006	0.000072	-0.000062	-0.124401	-10.113293	-177.791863
39787	2.411738	-0.070839	12.910103	-0.109494	0.038892	3.320430	1.000000	0.000008	0.000048	-0.000068	-0.123336	-10.113108	-177.791811
39788	2.394893	-0.058245	12.938848	-0.087679	0.027012	3.345742	1.000000	-0.000003	0.000073	-0.000076	-0.124124	-10.110448	-177.785470
39789	2.401507	-0.035434	12.934179	-0.094815	0.004081	3.342254	1.000000	0.000014	0.000071	-0.000063	-0.122575	-10.107623	-177.784810
39790	2.377764	-0.025330	12.939626	-0.070721	-0.004715	3.343425	1.000000	0.000013	0.000070	-0.000070	-0.120802	-10.105084	-177.786845
39791	2.303415	0.000748	12.931953	0.001284	-0.027841	3.322775	1.000000	0.000000	0.000081	-0.000062	-0.120823	-10.101049	-177.786090
39792	2.272890	0.007817	12.914064	0.027645	-0.033757	3.299796	1.000000	0.000007	0.000073	-0.000054	-0.120029	-10.098052	-177.785953
39793	2.271005	0.008160	12.914395	0.028863	-0.033998	3.299793	1.000000	-0.000002	0.000073	-0.000069	-0.120187	-10.094932	-177.785996
39794	2.230248	-0.026955	12.929840	0.069601	0.002560	3.307932	1.000000	-0.000009	0.000075	-0.000060	-0.121184	-10.091636	-177.785438
39795	2.250448	-0.036378	12.925048	0.047983	0.010894	3.306775	1.000000	-0.000014	0.000059	-0.000074	-0.122524	-10.090119	-177.786089
39796	2.218570	-0.049127	12.935402	0.080433	0.024771	3.311412	1.000000	0.000002	0.000057	-0.000068	-0.122163	-10.089206	-177.785754
39797	2.245526	-0.055529	12.953935	0.056521	0.030224	3.334395	1.000000	-0.000005	0.000065	-0.000076	-0.122459	-10.087001	-177.786595
39798	2.259426	-0.067407	12.925756	0.036952	0.041547	3.309112	1.000000	-0.000002	0.000048	-0.000090	-0.121555	-10.085786	-177.794834
39799	2.236063	-0.057597	12.931087	0.060997	0.032748	3.310251	1.000000	0.000001	0.000063	-0.000092	-0.120909	-10.083860	-177.797558
39800	2.219191	-0.044942	12.959778	0.082758	0.020806	3.335521	1.000000	0.000008	0.000054	-0.000084	-0.120891	-10.082876	-177.784232
39801	2.217681	-0.044444	12.960038	0.083972	0.020572	3.335514	1.000000	0.000001	0.000063	-0.000092	-0.120245	-10.080951	-177.786956
39802	2.231268	-0.018861	12.978635	0.074463	-0.005089	3.356151	1.000000	0.000006	0.000047	-0.000083	-0.118412	-10.080316	-177.796549
39803	2.238830	-0.033413	12.927074	0.057390	0.008983	3.306739	1.000000	-0.000009	0.000050	-0.000082	-0.119017	-10.079889	-177.798093
39804	2.252805	-0.007808	12.945607	0.047893	-0.016941	3.327379	1.000000	0.000020	0.000029	-0.000076	-0.117032	-10.081244	-177.792220
39805	2.267500	-0.019319	12.917307	0.028535	-0.005761	3.302109	1.000000	0.000003	0.000025	-0.000073	-0.116446	-10.083700	-177.792772
39806	2.264938	-0.038400	12.945783	0.035755	0.013693	3.329735	1.000000	0.000012	0.000031	-0.000075	-0.115326	-10.085318	-177.786841
39807	2.287500	0.009541	12.959290	0.018112	-0.034820	3.346887	1.000000	-0.000003	0.000034	-0.000073	-0.115439	-10.086738	-177.787393
39808	2.286947	-0.027440	12.912686	0.009142	0.002158	3.300979	1.000000	0.000001	0.000042	-0.000059	-0.114396	-10.086533	-177.798929
39809	2.292324	-0.024383	12.936251	0.008097	-0.000972	3.325116	1.000000	0.000002	0.000050	-0.000059	-0.114237	-10.086123	-177.797883
39810	2.277667	0.007564	12.936511	0.023861	-0.032658	3.322742	1.000000	-0.000009	0.000036	-0.000065	-0.116270	-10.087206	-177.784289
39811	2.320631	-0.010827	12.926565	-0.020627	-0.015872	3.320509	1.000000	0.000016	0.000039	-0.000060	-0.114540	-10.088005	-177.783336
39812	2.289177	-0.023532	12.936810	0.011742	-0.001945	3.325113	1.000000	-0.000014	0.000045	-0.000057	-0.116361	-10.088162	-177.780898
39813	2.311760	-0.013271	12.903625	-0.015930	-0.013492	3.296375	1.000000	-0.000006	0.000051	-0.000066	-0.117038	-10.087632	-177.780651
39814	2.310494	-0.012934	12.903852	-0.014704	-0.013740	3.296376	1.000000	0.000008	0.000048	-0.000068	-0.115980	-10.087493	-177.780242
39815	2.293792	-0.000477	12.932489	0.007128	-0.025379	3.321621	1.000000	-0.000005	0.000051	-0.000059	-0.116692	-10.086911	-177.779100
39816	2.312703	-0.029346	12.956005	-0.008503	0.002834	3.348142	1.000000	-0.000009	0.000043	-0.000073	-0.116854	-10.087227	-177.787768
39817	2.284848	-0.002899	12.909555	0.011780	-0.022829	3.297480	1.000000	0.000002	0.000050	-0.000059	-0.116695	-10.086817	-177.786721
39818	2.281631	-0.022168	12.938145	0.019074	-0.003128	3.325104	1.000000	0.000001	0.000056	-0.000076	-0.115703	-10.085866	-177.795387
39819	2.280375	-0.021827	12.938368	0.020291	-0.003371	3.325102	1.000000	-0.000001	0.000041	-0.000074	-0.115643	-10.086424	-177.796033
39820	2.257006	-0.012307	12.943651	0.044182	-0.012155	3.326195	1.000000	-0.000013	0.000066	-0.000082	-0.116975	-10.083270	-177.793869
39821	2.227009	-0.005535	12.925584	0.070494	-0.017987	3.303144	1.000000	-0.000000	0.000049	-0.000075	-0.116744	-10.082966	-177.794610
39822	2.241218	-0.017306	12.897402	0.050970	-0.006839	3.277908	1.000000	-0.000001	0.000048	-0.000082	-0.116449	-10.082281	-177.795633
39823	2.246570	-0.014323	12.920970	0.049960	-0.009973	3.302043	1.000000	-0.000009	0.000043	-0.000073	-0.117261	-10.082667	-177.796184
39824	2.237211	-0.036535	12.926124	0.059328	0.012541	3.305523	1.000000	-0.000002	0.000034	-0.000065	-0.117199	-10.083598	-177.797955
39825	2.264908	-0.042983	12.944600	0.035453	0.017882	3.328574	1.000000	-0.000008	0.000029	-0.000049	-0.118461	-10.085551	-177.795632
39826	2.286069	-0.052288	12.939717	0.013660	0.026077	3.327490	1.000000	-0.000009	0.000036	-0.000065	-0.119624	-10.086156	-177.792271
39827	2.307369	-0.061410	12.934813	-0.008000	0.034303	3.326409	1.000000	0.000005	0.000018	-0.000049	-0.119314	-10.089317	-177.790041
39828	2.335275	-0.067786	12.953261	-0.031947	0.039698	3.349473	1.000000	-0.000009	0.000029	-0.000056	-0.120198	-10.090999	-177.792512
39829	2.356657	-0.077015	12.948347	-0.053609	0.047912	3.348402	1.000000	-0.000003	0.000019	-0.000056	-0.120724	-10.094039	-177.791083
39830	2.357760	-0.056949	12.920139	-0.058389	0.027721	3.320785	1.000000	0.000015	0.000039	-0.000068	-0.119475	-10.095063	-177.784103
39831	2.378847	-0.065690	12.915286	-0.080056	0.035923	3.319720	1.000000	0.000006	0.000033	-0.000066	-0.118750	-10.096604	-177.783852
39832	2.377845	-0.065083	12.915473	-0.078889	0.035673	3.319728	1.000000	0.000015	0.000046	-0.000076	-0.116745	-10.096451	-177.784981
39833	2.354867	-0.055058	12.920675	-0.054798	0.026967	3.320802	1.000000	0.000012	0.000031	-0.000075	-0.115112	-10.098217	-177.785717
39834	2.385944	-0.021818	12.882540	-0.090797	-0.007440	3.288638	1.000000	0.000001	0.000056	-0.000076	-0.114949	-10.096716	-177.782887
39835	2.338533	-0.022506	12.921202	-0.037787	-0.004763	3.318392	1.000000	-0.000006	0.000065	-0.000083	-0.115212	-10.094570	-177.784616
39836	2.360936	-0.011797	12.888107	-0.065439	-0.016360	3.289714	1.000000	0.000008	0.000048	-0.000068	-0.114024	-10.094590	-177.786631
39837	2.335745	-0.021657	12.921708	-0.035309	-0.005233	3.318399	1.000000	0.000001	0.000056	-0.000076	-0.113623	-10.093425	-177.787463
39838	2.334179	-0.021349	12.921991	-0.034164	-0.005462	3.318402	1.000000	-0.000005	0.000065	-0.000076	-0.113824	-10.090915	-177.789688
39839	2.346077	-0.052805	12.922283	-0.047625	0.025445	3.320833	1.000000	-0.000002	0.000073	-0.000069	-0.113992	-10.087801	-177.789722
39840	2.300141	-0.034058	12.932630	-0.000667	0.008259	3.322938	1.000000	-0.000010	0.000075	-0.000068	-0.115378	-10.084362	-177.784915
39841	2.296651	-0.053692	12.961266	0.006576	0.027833	3.350560	1.000000	-0.000013	0.000053	-0.000058	-0.116964	-10.083612	-177.783677
39842	2.296903	-0.033868	12.933206	0.001744	0.007619	3.322938	1.000000	0.000004	0.000071	-0.000077	-0.116886	-10.080617	-177.774982
39843	2.264989	-0.046695	12.943445	0.034049	0.021695	3.327461	1.000000	-0.000006	0.000051	-0.000066	-0.117564	-10.080092	-177.774731
39844	2.265470	-0.026719	12.915342	0.029156	0.001707	3.299836	1.000000	0.000011	0.000056	-0.000061	-0.116015	-10.078644	-177.779266
39845	2.240271	-0.036525	12.948906	0.059292	0.012878	3.328494	1.000000	0.000007	0.000047	-0.000076	-0.114911	-10.078514	-177.780095
39846	2.297786	-0.029328	12.957578	0.004300	0.003820	3.347080	1.000000	0.000009	0.000055	-0.000076	-0.113546	-10.077266	-177.782896
39847	2.225750	0.015788	12.921042	0.070350	-0.038539	3.298419	1.000000	0.000001	0.000049	-0.000067	-0.113352	-10.076912	-177.782738
39848	2.275015	0.000460	12.934676	0.023531	-0.024841	3.320491	1.000000	0.000009	0.000048	-0.000068	-0.112046	-10.076398	-177.786698
39849	2.267414	-0.001824	12.911498	0.026906	-0.022166	3.296345	1.000000	0.000009	0.000041	-0.000052	-0.111224	-10.076971	-177.784749
39850	2.280803	0.023729	12.930155	0.017728	-0.048172	3.317008	1.000000	-0.000006	0.000065	-0.000083	-0.111972	-10.074512	-177.778972
39851	2.299726	-0.004819	12.953747	0.002070	-0.020203	3.343600	1.000000	0.000006	0.000033	-0.000066	-0.111245	-10.076054	-177.778716
39852	2.300492	0.015018	12.925596	-0.002605	-0.040377	3.315979	1.000000	-0.000016	0.000051	-0.000081	-0.113212	-10.075984	-177.772781
39853	2.299179	0.015071	12.925829	-0.001384	-0.040622	3.315979	1.000000	-0.000007	0.000050	-0.000074	-0.113851	-10.075513	-177.773423
39854	2.274165	0.004699	12.959339	0.028793	-0.029359	3.344616	1.000000	-0.000018	0.000037	-0.000072	-0.115425	-10.076726	-177.777561
39855	2.295077	-0.004545	12.954571	0.007105	-0.021224	3.343597	1.000000	-0.000006	0.000051	-0.000066	-0.116103	-10.076202	-177.777308
39856	2.272523	-0.032384	12.913005	0.020701	0.007235	3.298782	1.000000	-0.000007	0.000057	-0.000082	-0.116019	-10.074689	-177.786652
39857	2.299713	-0.038690	12.931656	-0.003131	0.012443	3.321913	1.000000	-0.000008	0.000043	-0.000065	-0.116865	-10.075028	-177.786305
39858	2.298591	-0.038683	12.931855	-0.001893	0.012270	3.321914	1.000000	-0.000016	0.000044	-0.000072	-0.118228	-10.075365	-177.791455
39859	2.289009	-0.060972	12.937040	0.007477	0.034773	3.325388	1.000000	0.000003	0.000057	-0.000060	-0.117902	-10.074095	-177.790495
39860	2.272982	-0.086159	12.918839	0.018971	0.060254	3.304716	1.000000	-0.000023	0.000046	-0.000064	-0.120260	-10.074103	-177.793631
39861	2.270829	-0.048898	12.965834	0.030693	0.023049	3.350535	1.000000	0.000001	0.000049	-0.000067	-0.120065	-10.073749	-177.793470
39862	2.285216	-0.060487	12.937713	0.011035	0.034069	3.325387	1.000000	0.000009	0.000048	-0.000068	-0.119093	-10.073222	-177.792011
39863	2.285817	-0.040422	12.909597	0.006220	0.014001	3.297769	1.000000	0.000002	0.000050	-0.000059	-0.118937	-10.072816	-177.790955
39864	2.282710	-0.059635	12.938159	0.013404	0.033578	3.325386	1.000000	0.000010	0.000048	-0.000060	-0.117918	-10.072342	-177.790020
39865	2.274193	-0.024681	12.961749	0.027282	-0.000697	3.347053	1.000000	0.000007	0.000040	-0.000067	-0.117020	-10.073021	-177.789856
39866	2.295193	-0.033507	12.956992	0.005615	0.007333	3.346059	1.000000	0.000001	0.000042	-0.000059	-0.117373	-10.073623	-177.783587
39867	2.267377	-0.007244	12.910417	0.025840	-0.018151	3.295285	1.000000	-0.000006	0.000051	-0.000066	-0.118050	-10.073101	-177.783333
39868	2.288389	-0.016060	12.905662	0.004245	-0.010167	3.294295	1.000000	0.000013	0.000031	-0.000067	-0.116982	-10.075286	-177.774462
39869	2.287635	-0.015633	12.905797	0.005460	-0.010411	3.294294	1.000000	-0.000001	0.000027	-0.000049	-0.117369	-10.077415	-177.772229
39870	2.276742	-0.057479	12.939220	0.020858	0.031825	3.325381	1.000000	-0.000002	0.000034	-0.000065	-0.118022	-10.078971	-177.763271
39871	2.308036	-0.024345	12.901157	-0.014993	-0.002686	3.293313	1.000000	-0.000002	0.000034	-0.000065	-0.118164	-10.080344	-177.762920
39872	2.313540	-0.021380	12.924711	-0.016000	-0.005878	3.317460	1.000000	-0.000009	0.000036	-0.000065	-0.119207	-10.080988	-177.762065
39873	2.312637	-0.021222	12.924873	-0.014784	-0.006125	3.317462	1.000000	-0.000001	0.000034	-0.000058	-0.119387	-10.082308	-177.760819
39874	2.340020	-0.027404	12.943530	-0.038645	-0.001092	3.340636	1.000000	-0.000008	0.000050	-0.000082	-0.120390	-10.081642	-177.755271
39875	2.348264	-0.041880	12.892001	-0.056191	0.012841	3.291376	1.000000	0.000004	0.000032	-0.000082	-0.119583	-10.083292	-177.756800
39876	2.360091	-0.035969	12.938966	-0.059155	0.006696	3.339675	1.000000	-0.000009	0.000043	-0.000073	-0.120459	-10.083649	-177.756144
39877	2.330372	-0.029242	12.920725	-0.032918	0.001081	3.316500	1.000000	0.000009	0.000055	-0.000076	-0.119186	-10.082658	-177.757061
39878	2.349374	-0.057613	12.944362	-0.048573	0.028947	3.343154	1.000000	-0.000001	0.000041	-0.000074	-0.119191	-10.083469	-177.756302
39879	2.327996	-0.028371	12.921156	-0.030430	0.000569	3.316506	1.000000	0.000009	0.000048	-0.000068	-0.118125	-10.083287	-177.756230
39880	2.328517	-0.008176	12.893059	-0.035202	-0.019522	3.288893	1.000000	0.000010	0.000055	-0.000069	-0.116936	-10.082351	-177.755573
39881	2.325516	-0.027403	12.921604	-0.027973	0.000063	3.316511	1.000000	-0.000001	0.000034	-0.000058	-0.117116	-10.083672	-177.754327
39882	2.346314	-0.036333	12.916922	-0.049709	0.007989	3.315559	1.000000	-0.000004	0.000066	-0.000068	-0.117917	-10.081389	-177.746009
39883	2.300528	-0.017899	12.927038	-0.002598	-0.008820	3.317468	1.000000	-0.000014	0.000059	-0.000074	-0.119259	-10.079892	-177.746650
39884	2.305506	-0.014835	12.950687	-0.003503	-0.012049	3.341616	1.000000	0.000011	0.000049	-0.000052	-0.118438	-10.079331	-177.741611
39885	2.297873	-0.017227	12.927511	-0.000225	-0.009348	3.317468	1.000000	0.000002	0.000050	-0.000059	-0.118283	-10.078927	-177.740553
39886	2.296478	-0.016980	12.927760	0.001014	-0.009575	3.317468	1.000000	-0.000004	0.000059	-0.000059	-0.118758	-10.077587	-177.740807
39887	2.301350	-0.013895	12.951427	0.000177	-0.012766	3.341616	1.000000	0.000002	0.000057	-0.000068	-0.118396	-10.076375	-177.740736
39888	2.301788	0.005901	12.923343	-0.004595	-0.032897	3.314002	1.000000	-0.000013	0.000052	-0.000058	-0.120213	-10.075684	-177.734890
39889	2.292167	-0.016495	12.928525	0.004680	-0.010356	3.317467	1.000000	-0.000007	0.000057	-0.000082	-0.120643	-10.074410	-177.736516
39890	2.268480	-0.007149	12.933702	0.028799	-0.018877	3.318402	1.000000	-0.000004	0.000066	-0.000068	-0.121084	-10.071919	-177.734598
39891	2.280786	-0.038646	12.934017	0.015107	0.011921	3.320930	1.000000	-0.000016	0.000058	-0.000089	-0.122347	-10.070531	-177.737025
39892	2.287598	-0.016014	12.929335	0.008326	-0.011163	3.317464	1.000000	0.000001	0.000049	-0.000067	-0.122401	-10.070383	-177.731353
39893	2.256044	-0.029004	12.939371	0.040546	0.003143	3.321856	1.000000	-0.000001	0.000048	-0.000082	-0.122126	-10.070142	-177.732975
39894	2.277106	-0.037825	12.934667	0.018802	0.011115	3.320926	1.000000	-0.000004	0.000033	-0.000081	-0.122321	-10.071639	-177.731206
39895	2.269700	-0.040436	12.911448	0.022049	0.013827	3.296775	1.000000	-0.000007	0.000050	-0.000074	-0.122958	-10.071176	-177.731842
39896	2.281194	-0.034570	12.958473	0.019208	0.007729	3.345072	1.000000	-0.000001	0.000041	-0.000074	-0.122662	-10.071772	-177.736904
39897	2.297864	-0.026578	12.902021	-0.006518	-0.001167	3.292388	1.000000	-0.000003	0.000034	-0.000073	-0.122761	-10.073202	-177.737443
39898	2.271093	-0.056471	12.963734	0.029717	0.029977	3.348531	1.000000	-0.000001	0.000041	-0.000074	-0.123002	-10.073978	-177.731324
39899	2.322322	-0.052005	12.949266	-0.023029	0.023383	3.343235	1.000000	-0.000006	0.000051	-0.000066	-0.123680	-10.073462	-177.731066
39900	2.292803	-0.045424	12.930925	0.003121	0.017911	3.320001	1.000000	0.000007	0.000033	-0.000059	-0.122814	-10.074717	-177.733648
39901	2.291747	-0.045033	12.931113	0.004335	0.017668	3.320001	1.000000	0.000001	0.000049	-0.000067	-0.122619	-10.074368	-177.733481
39902	2.312607	-0.053803	12.926467	-0.017378	0.025491	3.319092	1.000000	0.000001	0.000049	-0.000067	-0.123069	-10.074222	-177.720094
39903	2.282891	-0.047201	12.908153	0.008820	0.019999	3.295850	1.000000	0.000003	0.000050	-0.000052	-0.122955	-10.073766	-177.718139
39904	2.289883	-0.024413	12.903444	0.001943	-0.003154	3.292389	1.000000	-0.000001	0.000041	-0.000074	-0.123350	-10.073946	-177.709369
39905	2.286857	-0.043756	12.931984	0.009151	0.016448	3.320000	1.000000	0.000004	0.000050	-0.000044	-0.123276	-10.073436	-177.706519
39906	2.277398	-0.066014	12.937129	0.018347	0.038948	3.323460	1.000000	-0.000006	0.000051	-0.000066	-0.124247	-10.072871	-177.699614
39907	2.314468	-0.029885	12.922683	-0.019404	0.001277	3.315641	1.000000	0.000001	0.000056	-0.000075	-0.123846	-10.071715	-177.700433
39908	2.297496	-0.017544	12.951163	0.002786	-0.010166	3.340689	1.000000	0.000006	0.000033	-0.000066	-0.123326	-10.073186	-177.694923
39909	2.298289	0.002502	12.923022	-0.001983	-0.030255	3.313078	1.000000	0.000001	0.000049	-0.000067	-0.123131	-10.072839	-177.694754
39910	2.258707	-0.032969	12.937906	0.038103	0.006983	3.320887	1.000000	0.000007	0.000040	-0.000067	-0.122070	-10.073180	-177.698023
39911	2.295898	0.003360	12.923446	0.000375	-0.030708	3.313077	1.000000	0.000000	0.000056	-0.000083	-0.121628	-10.072079	-177.699735
39912	2.299190	-0.013125	12.975398	0.005536	-0.014021	3.364838	1.000000	-0.000003	0.000034	-0.000073	-0.121490	-10.073250	-177.705681
39913	2.291945	-0.015579	12.952149	0.008742	-0.011296	3.340686	1.000000	0.000007	0.000040	-0.000067	-0.120589	-10.073934	-177.705507
39914	2.284522	-0.017904	12.928932	0.011946	-0.008473	3.316533	1.000000	0.000009	0.000048	-0.000068	-0.119084	-10.073793	-177.714848
39915	2.289787	-0.014563	12.952532	0.011185	-0.011683	3.340683	1.000000	0.000004	0.000032	-0.000082	-0.118267	-10.075448	-177.716369
39916	2.298522	-0.028934	12.900998	-0.006615	0.002164	3.291501	1.000000	-0.000003	0.000034	-0.000073	-0.118427	-10.076968	-177.715080
39917	2.327831	-0.015217	12.891420	-0.036361	-0.012737	3.287169	1.000000	-0.000000	0.000042	-0.000066	-0.118398	-10.077485	-177.714816
39918	2.294645	-0.048004	12.929690	0.001844	0.021407	3.319111	1.000000	-0.000000	0.000042	-0.000066	-0.118897	-10.078169	-177.702169
39919	2.358538	-0.037732	12.962142	-0.054827	0.008697	3.362219	1.000000	-0.000008	0.000043	-0.000065	-0.119741	-10.078520	-177.701814
39920	2.330965	-0.011679	12.915409	-0.034661	-0.016659	3.311331	1.000000	-0.000003	0.000034	-0.000073	-0.120177	-10.079809	-177.694688
39921	2.321595	-0.033827	12.920541	-0.025496	0.005917	3.314789	1.000000	0.000003	0.000064	-0.000076	-0.119610	-10.077792	-177.695598
39922	2.320357	-0.033385	12.920765	-0.024261	0.005681	3.314792	1.000000	0.000006	0.000033	-0.000066	-0.118832	-10.079426	-177.696324
39923	2.341361	-0.042013	12.916142	-0.046048	0.013569	3.313933	1.000000	0.000003	0.000057	-0.000060	-0.118513	-10.078164	-177.695352
39924	2.325804	-0.010303	12.916341	-0.029783	-0.017680	3.311341	1.000000	-0.000012	0.000060	-0.000059	-0.120115	-10.076495	-177.690171
39925	2.322546	-0.029806	12.944922	-0.022580	0.001924	3.338952	1.000000	0.000002	0.000050	-0.000059	-0.119961	-10.076096	-177.689105
39926	2.321151	-0.029557	12.945173	-0.021385	0.001663	3.338954	1.000000	-0.000004	0.000059	-0.000059	-0.120578	-10.074566	-177.686725
39927	2.297500	-0.020254	12.950261	0.002842	-0.006703	3.339808	1.000000	0.000002	0.000057	-0.000068	-0.120217	-10.073358	-177.686646
39928	2.289766	-0.022830	12.927097	0.005989	-0.003937	3.315654	1.000000	-0.000005	0.000058	-0.000067	-0.120592	-10.071924	-177.689527
39929	2.282322	-0.025468	12.903881	0.009147	-0.001199	3.291499	1.000000	-0.000001	0.000034	-0.000058	-0.120769	-10.073251	-177.688274
39930	2.311349	-0.011547	12.894389	-0.020555	-0.016252	3.287200	1.000000	0.000009	0.000062	-0.000085	-0.119678	-10.071505	-177.680803
39931	2.285921	-0.021603	12.927780	0.009656	-0.004748	3.315651	1.000000	0.000009	0.000048	-0.000068	-0.118611	-10.071327	-177.680719
39932	2.298551	-0.052751	12.928125	-0.004201	0.025884	3.318262	1.000000	-0.000005	0.000065	-0.000075	-0.119212	-10.069273	-177.674579
39933	2.246579	-0.037416	12.914554	0.044976	0.012432	3.295785	1.000000	-0.000009	0.000043	-0.000073	-0.120013	-10.069681	-177.675117
39934	2.295997	-0.052357	12.928580	-0.001827	0.025384	3.318264	1.000000	0.000000	0.000049	-0.000075	-0.119828	-10.069160	-177.674712
39935	2.294839	-0.052036	12.928787	-0.000614	0.025141	3.318264	1.000000	-0.000000	0.000042	-0.000066	-0.119798	-10.069679	-177.674445
39936	2.271507	-0.042708	12.933793	0.023698	0.016763	3.319096	1.000000	-0.000001	0.000048	-0.000082	-0.119771	-10.069783	-177.668510
39937	2.292555	-0.051286	12.929195	0.001890	0.024603	3.318265	1.000000	0.000007	0.000040	-0.000067	-0.118868	-10.070469	-177.668332
39938	2.253457	-0.030149	12.962393	0.047176	0.005221	3.344074	1.000000	-0.000011	0.000035	-0.000080	-0.119770	-10.071528	-177.671527
39939	2.298380	-0.028334	12.924704	-0.003631	0.001276	3.314815	1.000000	-0.000004	0.000066	-0.000068	-0.120119	-10.069293	-177.671450
39940	2.289049	-0.050516	12.929819	0.005495	0.023810	3.318266	1.000000	0.000006	0.000033	-0.000066	-0.119701	-10.070953	-177.663490
39941	2.273961	-0.018728	12.929893	0.021859	-0.007346	3.315635	1.000000	-0.000009	0.000043	-0.000073	-0.120501	-10.071362	-177.664027
39942	2.310945	-0.039335	12.897087	-0.021107	0.011521	3.289843	1.000000	0.000001	0.000049	-0.000067	-0.120341	-10.070899	-177.662923
39943	2.300023	-0.024308	12.948955	-0.000666	-0.002765	3.338971	1.000000	-0.000001	0.000041	-0.000074	-0.120269	-10.071473	-177.663548
39944	2.290688	-0.046589	12.954069	0.008470	0.019795	3.342420	1.000000	-0.000005	0.000058	-0.000067	-0.121014	-10.070307	-177.656948
39945	2.307328	-0.038553	12.897737	-0.017421	0.010736	3.289849	1.000000	-0.000001	0.000034	-0.000058	-0.121190	-10.071636	-177.655693
39946	2.282232	-0.048850	12.931031	0.012791	0.022307	3.318263	1.000000	0.000009	0.000048	-0.000068	-0.120116	-10.071435	-177.655643
39947	2.311242	-0.034771	12.921587	-0.016891	0.007255	3.314008	1.000000	0.000011	0.000049	-0.000052	-0.119133	-10.071149	-177.653769
39948	2.294090	-0.022527	12.950010	0.005566	-0.004107	3.338969	1.000000	-0.000001	0.000041	-0.000074	-0.119442	-10.072105	-177.643581
39949	2.309051	-0.033951	12.921981	-0.014371	0.006681	3.314011	1.000000	0.000006	0.000040	-0.000075	-0.118496	-10.072846	-177.644295
39950	2.322159	-0.008122	12.940741	-0.022910	-0.019478	3.334721	1.000000	-0.000001	0.000048	-0.000082	-0.118460	-10.072480	-177.639842
39951	2.284479	-0.024124	12.927177	0.011076	-0.001888	3.314811	1.000000	0.000010	0.000048	-0.000060	-0.117435	-10.072249	-177.638861
39952	2.283227	-0.023697	12.927399	0.012278	-0.002166	3.314810	1.000000	0.000001	0.000049	-0.000067	-0.117408	-10.071835	-177.634970
39953	2.310645	-0.029586	12.946247	-0.011425	0.002612	3.338173	1.000000	-0.000012	0.000027	-0.000079	-0.118493	-10.074028	-177.636213
39954	2.305218	-0.012591	12.894676	-0.014312	-0.014478	3.286414	1.000000	0.000003	0.000057	-0.000060	-0.118095	-10.072707	-177.636955
39955	2.316298	-0.006695	12.941792	-0.016832	-0.020723	3.334729	1.000000	-0.000018	0.000043	-0.000088	-0.119682	-10.073064	-177.639189
39956	2.307316	-0.028934	12.946842	-0.007756	0.001893	3.338176	1.000000	0.000013	0.000031	-0.000067	-0.118102	-10.074895	-177.637329
39957	2.330443	-0.017725	12.913927	-0.035550	-0.010211	3.309791	1.000000	-0.000001	0.000041	-0.000074	-0.118029	-10.075473	-177.637953
39958	2.327519	-0.037178	12.942444	-0.028378	0.009363	3.337396	1.000000	-0.000008	0.000043	-0.000065	-0.119058	-10.075796	-177.632495
39959	2.306053	-0.008381	12.919076	-0.010065	-0.018746	3.310575	1.000000	-0.000000	0.000042	-0.000066	-0.119028	-10.076319	-177.632225
39960	2.319098	-0.039526	12.919405	-0.024133	0.011908	3.313244	1.000000	0.000000	0.000049	-0.000075	-0.118650	-10.075834	-177.637710
39961	2.325932	-0.016758	12.914742	-0.030731	-0.011209	3.309802	1.000000	-0.000008	0.000043	-0.000065	-0.119493	-10.076192	-177.637351
39962	2.318488	-0.019391	12.891526	-0.027674	-0.008472	3.285647	1.000000	0.000001	0.000056	-0.000075	-0.119187	-10.074989	-177.635419
39963	2.315313	-0.038596	12.920087	-0.020500	0.011151	3.313251	1.000000	0.000009	0.000048	-0.000068	-0.118120	-10.074813	-177.635329
39964	2.291805	-0.029442	12.925062	0.003716	0.002847	3.314020	1.000000	-0.000014	0.000052	-0.000065	-0.120006	-10.073874	-177.627690
39965	2.304662	-0.003877	12.943870	-0.004707	-0.023280	3.334734	1.000000	0.000001	0.000049	-0.000067	-0.119812	-10.073534	-177.627511
39966	2.305412	-0.040779	12.897310	-0.015094	0.013381	3.289099	1.000000	-0.000000	0.000042	-0.000066	-0.119630	-10.073978	-177.631869
39967	2.316539	-0.034795	12.944421	-0.017554	0.007119	3.337417	1.000000	-0.000006	0.000050	-0.000066	-0.120309	-10.073474	-177.631602
39968	2.315255	-0.034555	12.944651	-0.016320	0.006894	3.337418	1.000000	0.000001	0.000049	-0.000067	-0.120034	-10.073206	-177.633180
39969	2.315716	-0.014631	12.916580	-0.021060	-0.013220	3.309819	1.000000	-0.000005	0.000058	-0.000067	-0.120550	-10.071839	-177.633005
39970	2.312597	-0.034054	12.945128	-0.013853	0.006449	3.337421	1.000000	-0.000001	0.000041	-0.000074	-0.120294	-10.072558	-177.637544
39971	2.283145	-0.027745	12.926599	0.012259	0.001256	3.314015	1.000000	0.000001	0.000042	-0.000058	-0.120306	-10.073026	-177.636378
39972	2.304110	-0.036396	12.922096	-0.009565	0.008971	3.313265	1.000000	-0.000007	0.000057	-0.000082	-0.120750	-10.071894	-177.636930
39973	2.302744	-0.036130	12.922340	-0.008349	0.008728	3.313266	1.000000	0.000001	0.000049	-0.000067	-0.120556	-10.071554	-177.636750
39974	2.271365	-0.049479	12.932135	0.023634	0.023395	3.317452	1.000000	-0.000001	0.000041	-0.000074	-0.120575	-10.071780	-177.637048
39975	2.272048	-0.029493	12.904023	0.018890	0.003285	3.289851	1.000000	0.000001	0.000049	-0.000067	-0.120381	-10.071440	-177.636868
39976	2.297414	-0.054842	12.951281	0.001186	0.027867	3.340868	1.000000	0.000001	0.000042	-0.000058	-0.120305	-10.071954	-177.638442
39977	2.282090	-0.023005	12.951324	0.017707	-0.003206	3.338166	1.000000	0.000005	0.000039	-0.000082	-0.119313	-10.072751	-177.640043
39978	2.296986	-0.034322	12.923369	-0.002317	0.007474	3.313269	1.000000	0.000001	0.000056	-0.000075	-0.119082	-10.071704	-177.636382
39979	2.287761	-0.056548	12.928455	0.006660	0.030122	3.316709	1.000000	0.000001	0.000042	-0.000058	-0.119095	-10.072173	-177.635215
39980	2.294716	-0.033904	12.923774	0.000099	0.007043	3.313270	1.000000	-0.000017	0.000036	-0.000071	-0.120689	-10.073227	-177.643157
39981	2.293758	-0.033614	12.923945	0.001315	0.006801	3.313270	1.000000	0.000014	0.000038	-0.000075	-0.118867	-10.074132	-177.643952
39982	2.292733	-0.033114	12.924128	0.002552	0.006560	3.313270	1.000000	-0.000000	0.000041	-0.000066	-0.118839	-10.074749	-177.643503
39983	2.313735	-0.041630	12.919645	-0.019313	0.014244	3.312546	1.000000	0.000001	0.000056	-0.000075	-0.118439	-10.073602	-177.644307
39984	2.290147	-0.032313	12.924588	0.004931	0.006108	3.313269	1.000000	0.000008	0.000047	-0.000075	-0.117176	-10.073253	-177.651503
39985	2.295022	-0.028973	12.948267	0.004357	0.002846	3.337429	1.000000	0.000000	0.000049	-0.000075	-0.116938	-10.072969	-177.652214
39986	2.287749	-0.031555	12.925015	0.007262	0.005655	3.313268	1.000000	0.000001	0.000042	-0.000058	-0.116796	-10.073003	-177.659024
39987	2.274391	-0.036945	12.878299	0.012048	0.011459	3.264947	1.000000	0.000009	0.000048	-0.000068	-0.115730	-10.072827	-177.658929
39988	2.299492	-0.005254	12.944029	0.000095	-0.020694	3.333991	1.000000	-0.000001	0.000041	-0.000074	-0.115408	-10.073121	-177.668483
39989	2.292218	-0.007927	12.920777	0.003097	-0.017913	3.309830	1.000000	-0.000007	0.000050	-0.000074	-0.116044	-10.072674	-177.669106
39990	2.289102	-0.027358	12.949319	0.010291	0.001763	3.337426	1.000000	0.000001	0.000049	-0.000067	-0.115648	-10.072386	-177.674235
39991	2.295863	-0.004467	12.944674	0.003767	-0.021376	3.333990	1.000000	-0.000000	0.000041	-0.000066	-0.115616	-10.072910	-177.673960
39992	2.317064	-0.012997	12.940176	-0.018089	-0.013699	3.333285	1.000000	-0.000000	0.000041	-0.000066	-0.115542	-10.073480	-177.674912
39993	2.307976	-0.035249	12.945235	-0.009131	0.008954	3.336721	1.000000	0.000000	0.000049	-0.000075	-0.115304	-10.073196	-177.675622
39994	2.300517	-0.037810	12.922017	-0.006065	0.011684	3.312561	1.000000	0.000005	0.000058	-0.000045	-0.115326	-10.072179	-177.664587
39995	2.291076	-0.003104	12.945522	0.008748	-0.022386	3.333986	1.000000	0.000006	0.000033	-0.000066	-0.114582	-10.073729	-177.664306
39996	2.306136	-0.014403	12.917579	-0.011314	-0.011714	3.309129	1.000000	0.000000	0.000056	-0.000083	-0.114182	-10.072843	-177.663811
39997	2.335062	-0.000388	12.908281	-0.040912	-0.026973	3.305004	1.000000	-0.000008	0.000043	-0.000065	-0.115023	-10.073205	-177.663448
39998	2.301940	-0.033627	12.946314	-0.002854	0.007684	3.336725	1.000000	-0.000000	0.000041	-0.000066	-0.114960	-10.073997	-177.662005
39999	2.304545	0.006019	12.889878	-0.013562	-0.032312	3.281536	1.000000	-0.000000	0.000041	-0.000066	-0.114928	-10.074522	-177.661729
40000	2.307707	-0.010444	12.941850	-0.008077	-0.015696	3.333293	1.000000	-0.000000	0.000041	-0.000066	-0.114842	-10.075291	-177.661071
40001	2.300477	-0.013032	12.918590	-0.005108	-0.012908	3.309131	1.000000	0.000000	0.000049	-0.000075	-0.114603	-10.075008	-177.661781
40002	2.283312	-0.057851	12.928521	0.011573	0.032663	3.315996	1.000000	0.000003	0.000057	-0.000060	-0.114329	-10.073963	-177.658314
40003	2.289915	-0.035127	12.923907	0.005081	0.009511	3.312563	1.000000	-0.000016	0.000044	-0.000072	-0.115998	-10.074221	-177.658757
40004	2.317084	-0.040789	12.942924	-0.018530	0.013999	3.336050	1.000000	0.000010	0.000048	-0.000060	-0.115415	-10.074053	-177.645724
40005	2.301316	-0.009058	12.942989	-0.001901	-0.017018	3.333294	1.000000	-0.000005	0.000058	-0.000067	-0.115932	-10.072691	-177.645544
40006	2.336738	-0.048980	12.938740	-0.039218	0.021330	3.335383	1.000000	-0.000001	0.000041	-0.000074	-0.115997	-10.073201	-177.642977
40007	2.277063	-0.056494	12.929629	0.017631	0.031334	3.315992	1.000000	0.000009	0.000048	-0.000068	-0.114930	-10.073026	-177.642879
40008	2.283683	-0.033574	12.925014	0.011176	0.008163	3.312561	1.000000	-0.000005	0.000051	-0.000058	-0.115721	-10.072539	-177.639484
40009	2.288520	-0.030543	12.948701	0.010666	0.004884	3.336722	1.000000	-0.000008	0.000043	-0.000065	-0.116561	-10.072904	-177.639120
40010	2.303625	-0.041910	12.920781	-0.009563	0.015538	3.311897	1.000000	0.000007	0.000047	-0.000083	-0.115329	-10.072580	-177.645563
40011	2.263698	-0.021177	12.953795	0.036154	-0.003423	3.337380	1.000000	-0.000014	0.000059	-0.000074	-0.116676	-10.071113	-177.646189
40012	2.308992	-0.018713	12.916394	-0.014758	-0.007846	3.308469	1.000000	0.000013	0.000031	-0.000074	-0.114917	-10.073102	-177.647492
40013	2.306227	-0.037906	12.944872	-0.007585	0.011792	3.336063	1.000000	-0.000000	0.000041	-0.000066	-0.114883	-10.073629	-177.647214
40014	2.276700	-0.031846	12.926250	0.018408	0.006786	3.312553	1.000000	-0.000006	0.000050	-0.000066	-0.115426	-10.072906	-177.652985
40015	2.303876	-0.037368	12.945292	-0.005202	0.011334	3.336064	1.000000	0.000007	0.000040	-0.000067	-0.114519	-10.073593	-177.652792
40016	2.280501	-0.028307	12.950121	0.019107	0.003244	3.336713	1.000000	-0.000009	0.000042	-0.000073	-0.115401	-10.073901	-177.652434
40017	2.295738	-0.039672	12.922192	-0.001088	0.013870	3.311902	1.000000	0.000005	0.000039	-0.000082	-0.114403	-10.074700	-177.654027
40018	2.294515	-0.039223	12.922411	0.000127	0.013602	3.311902	1.000000	0.000001	0.000056	-0.000075	-0.114118	-10.073555	-177.652206
40019	2.299396	-0.035876	12.946093	-0.000357	0.010315	3.336066	1.000000	0.000006	0.000033	-0.000066	-0.113372	-10.075106	-177.651921
40020	2.292218	-0.038480	12.922821	0.002571	0.013103	3.311903	1.000000	-0.000006	0.000057	-0.000075	-0.113916	-10.073862	-177.650598
40021	2.327125	-0.021449	12.937069	-0.028680	-0.005307	3.332003	1.000000	0.000001	0.000042	-0.000058	-0.113928	-10.074334	-177.649425
40022	2.283744	-0.040955	12.899778	0.006652	0.015649	3.287738	1.000000	-0.000007	0.000050	-0.000074	-0.114629	-10.073713	-177.650880
40023	2.302423	-0.012358	12.942122	-0.003158	-0.013618	3.332640	1.000000	-0.000009	0.000042	-0.000073	-0.115423	-10.074135	-177.651407
40024	2.299603	-0.031851	12.970606	0.004009	0.006039	3.360230	1.000000	-0.000001	0.000034	-0.000065	-0.115476	-10.075487	-177.654379
40025	2.316707	-0.023512	12.914382	-0.022170	-0.003241	3.307848	1.000000	-0.000002	0.000048	-0.000090	-0.115145	-10.075318	-177.656870
40026	2.299118	-0.011602	12.942710	0.000512	-0.014369	3.332640	1.000000	-0.000006	0.000050	-0.000066	-0.115997	-10.074892	-177.651845
40027	2.306409	-0.045665	12.919649	-0.012086	0.019164	3.311277	1.000000	0.000003	0.000043	-0.000043	-0.116102	-10.075253	-177.648884
40028	2.290812	-0.014141	12.919637	0.004635	-0.011815	3.308474	1.000000	-0.000009	0.000042	-0.000073	-0.116950	-10.075700	-177.648468
40029	2.312071	-0.022645	12.915214	-0.017279	-0.004273	3.307855	1.000000	-0.000001	0.000041	-0.000074	-0.116871	-10.076283	-177.649080
40030	2.294667	-0.010693	12.943501	0.005430	-0.015374	3.332637	1.000000	-0.000000	0.000041	-0.000066	-0.116948	-10.076932	-177.645113
40031	2.338178	-0.027788	12.934488	-0.039619	-0.000064	3.331409	1.000000	0.000000	0.000049	-0.000074	-0.116708	-10.076653	-177.645816
40032	2.314771	-0.018778	12.939290	-0.015209	-0.008113	3.332024	1.000000	-0.000000	0.000034	-0.000058	-0.117009	-10.078222	-177.639114
40033	2.307824	-0.021337	12.915976	-0.012327	-0.005303	3.307860	1.000000	0.000007	0.000040	-0.000067	-0.116102	-10.078911	-177.638918
40034	2.312581	-0.017949	12.939682	-0.012769	-0.008599	3.332026	1.000000	-0.000001	0.000055	-0.000091	-0.115599	-10.077883	-177.642260
40035	2.309387	-0.037361	12.968232	-0.005599	0.011046	3.359616	1.000000	-0.000006	0.000050	-0.000066	-0.116280	-10.077389	-177.641984
40036	2.296160	-0.042908	12.921484	-0.001041	0.016870	3.311285	1.000000	0.000010	0.000048	-0.000060	-0.115463	-10.077292	-177.634582
40037	2.300777	-0.039615	12.945215	-0.001477	0.013571	3.335451	1.000000	-0.000006	0.000057	-0.000075	-0.115938	-10.075991	-177.635290
40038	2.293518	-0.042406	12.921955	0.001431	0.016322	3.311286	1.000000	-0.000009	0.000042	-0.000073	-0.117023	-10.076605	-177.626624
40039	2.328472	-0.025292	12.936244	-0.029734	-0.002187	3.331435	1.000000	0.000000	0.000049	-0.000074	-0.116783	-10.076328	-177.627326
40040	2.296965	-0.038878	12.945894	0.002192	0.012739	3.335452	1.000000	0.000002	0.000057	-0.000068	-0.116604	-10.075011	-177.624631
40041	2.283756	-0.044526	12.899140	0.006688	0.018619	3.287120	1.000000	-0.000008	0.000043	-0.000065	-0.117444	-10.075381	-177.624263
40042	2.324546	-0.024454	12.936952	-0.026198	-0.002943	3.331442	1.000000	0.000003	0.000057	-0.000060	-0.117033	-10.073716	-177.631836
40043	2.281312	-0.043899	12.899575	0.009020	0.018157	3.287119	1.000000	0.000008	0.000033	-0.000051	-0.116379	-10.075157	-177.629759
40044	2.293872	-0.018110	12.918466	0.000983	-0.008087	3.307864	1.000000	-0.000014	0.000059	-0.000074	-0.117659	-10.073530	-177.634981
40045	2.282887	-0.060166	12.951824	0.015724	0.034518	3.338871	1.000000	0.000008	0.000047	-0.000075	-0.116546	-10.073412	-177.635767
40046	2.283484	-0.040041	12.923740	0.010945	0.014425	3.311284	1.000000	0.000001	0.000049	-0.000067	-0.116161	-10.072869	-177.643885
40047	2.295940	-0.014218	12.942650	0.002960	-0.011836	3.332030	1.000000	-0.000007	0.000050	-0.000074	-0.116795	-10.072432	-177.644500
40048	2.309165	-0.045241	12.943127	-0.011410	0.018615	3.334874	1.000000	0.000000	0.000056	-0.000083	-0.116287	-10.071309	-177.648926
40049	2.309645	-0.025191	12.915067	-0.016144	-0.001521	3.307289	1.000000	0.000002	0.000049	-0.000059	-0.116141	-10.070919	-177.647839
40050	2.284170	-0.035987	12.948166	0.014121	0.010391	3.335447	1.000000	-0.000008	0.000049	-0.000081	-0.116802	-10.070283	-177.651714
40051	2.283101	-0.035690	12.948356	0.015338	0.010150	3.335445	1.000000	0.000008	0.000033	-0.000051	-0.116147	-10.071723	-177.649636
40052	2.306231	-0.024351	12.915678	-0.012530	-0.002287	3.307293	1.000000	-0.000007	0.000050	-0.000074	-0.116849	-10.071382	-177.648255
40053	2.297199	-0.046744	12.920710	-0.003754	0.020430	3.310712	1.000000	0.000000	0.000049	-0.000074	-0.116610	-10.071104	-177.648953
40054	2.303738	-0.023651	12.916125	-0.010078	-0.002789	3.307295	1.000000	0.000007	0.000047	-0.000083	-0.115512	-10.071121	-177.649029
40055	2.274282	-0.017642	12.897390	0.015904	-0.007664	3.283687	1.000000	-0.000008	0.000043	-0.000065	-0.116351	-10.071492	-177.648659
40056	2.279111	-0.014583	12.921083	0.015487	-0.010957	3.307853	1.000000	-0.000009	0.000042	-0.000073	-0.117062	-10.071794	-177.653787
40057	2.298670	-0.042721	12.945004	-0.000508	0.016393	3.334881	1.000000	-0.000000	0.000034	-0.000058	-0.117233	-10.073131	-177.652516
40058	2.277149	-0.014122	12.921429	0.017950	-0.011435	3.307850	1.000000	-0.000001	0.000041	-0.000074	-0.117143	-10.073839	-177.652659
40059	2.320895	-0.030860	12.912507	-0.027162	0.003705	3.306748	1.000000	0.000014	0.000038	-0.000075	-0.115314	-10.074742	-177.653435
40060	2.297468	-0.021835	12.917244	-0.002774	-0.004251	3.307298	1.000000	-0.000008	0.000043	-0.000065	-0.116260	-10.075137	-177.651133
40061	2.302302	-0.018671	12.940938	-0.003145	-0.007568	3.331466	1.000000	-0.000001	0.000041	-0.000074	-0.116178	-10.075724	-177.651739
40062	2.317716	-0.029936	12.913080	-0.023521	0.002963	3.306755	1.000000	-0.000000	0.000041	-0.000066	-0.116057	-10.076200	-177.655173
40063	2.324392	-0.006974	12.908473	-0.029838	-0.020253	3.303342	1.000000	-0.000001	0.000041	-0.000074	-0.115975	-10.076786	-177.655779
40064	2.306771	0.005023	12.936723	-0.007018	-0.031289	3.328051	1.000000	0.000008	0.000047	-0.000075	-0.115038	-10.076702	-177.652888
40065	2.308462	-0.031835	12.890179	-0.018287	0.005262	3.282593	1.000000	-0.000008	0.000043	-0.000065	-0.115878	-10.077075	-177.652517
40066	2.318981	-0.025677	12.937418	-0.020222	-0.001157	3.330931	1.000000	0.000003	0.000057	-0.000060	-0.115669	-10.075827	-177.650181
40067	2.305995	-0.031387	12.890622	-0.015859	0.004752	3.282597	1.000000	-0.000009	0.000035	-0.000065	-0.116666	-10.077063	-177.649718
40068	2.310682	-0.028394	12.914344	-0.016282	0.001401	3.306766	1.000000	-0.000014	0.000059	-0.000074	-0.118132	-10.075312	-177.652611
40069	2.309392	-0.028249	12.914575	-0.015066	0.001157	3.306768	1.000000	-0.000000	0.000041	-0.000066	-0.118098	-10.075843	-177.652323
40070	2.302338	-0.030894	12.891277	-0.012326	0.004023	3.282601	1.000000	0.000001	0.000049	-0.000067	-0.117764	-10.075336	-177.658778
40071	2.321848	-0.058875	12.915238	-0.028340	0.031332	3.309661	1.000000	-0.000001	0.000034	-0.000065	-0.117887	-10.076730	-177.658399
40072	2.298455	-0.050112	12.919943	-0.003974	0.023454	3.310185	1.000000	-0.000007	0.000043	-0.000058	-0.118678	-10.076938	-177.661935
40073	2.304878	-0.027304	12.915383	-0.010269	0.000232	3.306773	1.000000	-0.000007	0.000057	-0.000082	-0.119106	-10.075696	-177.663530
40074	2.290030	-0.052682	12.896888	0.000035	0.026048	3.286017	1.000000	-0.000001	0.000041	-0.000074	-0.119035	-10.076408	-177.663301
40075	2.300542	-0.046401	12.944129	-0.001858	0.019641	3.334355	1.000000	0.000001	0.000056	-0.000075	-0.118637	-10.075268	-177.664087
40076	2.299074	-0.046123	12.944391	-0.000645	0.019367	3.334356	1.000000	-0.000005	0.000058	-0.000067	-0.119299	-10.073900	-177.662267
40077	2.291832	-0.048833	12.921124	0.002117	0.022207	3.310187	1.000000	0.000000	0.000048	-0.000074	-0.119058	-10.073623	-177.662962
40078	2.292311	-0.028776	12.893069	-0.002625	0.002069	3.282607	1.000000	0.000002	0.000057	-0.000068	-0.118690	-10.072401	-177.664901
40079	2.302692	-0.022476	12.940333	-0.004494	-0.004344	3.330945	1.000000	0.000000	0.000048	-0.000074	-0.118450	-10.072124	-177.665595
40080	2.287905	-0.047674	12.921825	0.005767	0.021495	3.310187	1.000000	0.000008	0.000047	-0.000075	-0.117286	-10.072071	-177.667799
40081	2.292719	-0.044304	12.945524	0.005444	0.018167	3.334357	1.000000	-0.000000	0.000034	-0.000058	-0.117457	-10.073409	-177.666525
40082	2.321855	-0.029898	12.936410	-0.023937	0.002494	3.330449	1.000000	-0.000001	0.000041	-0.000074	-0.117662	-10.074315	-177.657788
40083	2.299615	-0.077711	12.922645	-0.006235	0.051314	3.313102	1.000000	0.000014	0.000038	-0.000075	-0.115831	-10.075217	-177.658557
40084	2.266973	-0.034515	12.950617	0.032393	0.009741	3.334848	1.000000	-0.000004	0.000065	-0.000068	-0.116327	-10.073159	-177.654711
40085	2.304503	-0.054299	12.918364	-0.011251	0.027808	3.309695	1.000000	0.000000	0.000048	-0.000074	-0.116086	-10.072884	-177.655404
40086	2.316871	-0.028319	12.937307	-0.019011	0.001467	3.330457	1.000000	-0.000000	0.000041	-0.000066	-0.116114	-10.073485	-177.654089
40087	2.285727	-0.042057	12.946768	0.012866	0.016614	3.334354	1.000000	0.000006	0.000040	-0.000074	-0.115156	-10.074231	-177.654774
40088	2.300040	0.003805	12.937392	-0.000803	-0.029657	3.327535	1.000000	0.000007	0.000040	-0.000067	-0.114429	-10.075060	-177.649965
40089	2.313746	-0.027093	12.937869	-0.015323	0.000690	3.330462	1.000000	-0.000009	0.000042	-0.000081	-0.115170	-10.075549	-177.651377
40090	2.314503	-0.007171	12.909765	-0.020046	-0.019531	3.302884	1.000000	-0.000001	0.000041	-0.000074	-0.115396	-10.076125	-177.646804
40091	2.283376	-0.020834	12.919214	0.011822	-0.004363	3.306770	1.000000	0.000016	0.000039	-0.000060	-0.113662	-10.076914	-177.645786
40092	2.318138	-0.003368	12.933678	-0.019058	-0.023136	3.327058	1.000000	-0.000015	0.000051	-0.000073	-0.115263	-10.076562	-177.642037
40093	2.280920	-0.020377	12.919649	0.014311	-0.004862	3.306768	1.000000	0.000001	0.000049	-0.000067	-0.115072	-10.076232	-177.641836
40094	2.285394	-0.017036	12.943408	0.014047	-0.008256	3.330937	1.000000	0.000001	0.000056	-0.000075	-0.114938	-10.075162	-177.637156
40095	2.284159	-0.016593	12.943626	0.015267	-0.008497	3.330935	1.000000	0.000006	0.000040	-0.000074	-0.113980	-10.075909	-177.637840
40096	2.299533	-0.027653	12.915851	-0.005232	0.001870	3.306298	1.000000	0.000003	0.000057	-0.000060	-0.113924	-10.074629	-177.633364
40097	2.281549	-0.015810	12.944088	0.017703	-0.009032	3.330932	1.000000	0.000000	0.000048	-0.000074	-0.113684	-10.074357	-177.634055
40098	2.310591	-0.001216	12.935029	-0.011719	-0.024755	3.327063	1.000000	0.000006	0.000033	-0.000066	-0.113076	-10.075871	-177.632343
40099	2.296079	-0.026584	12.916467	-0.001591	0.001108	3.306299	1.000000	-0.000008	0.000049	-0.000081	-0.113660	-10.075499	-177.633843
40100	2.324909	-0.012043	12.907453	-0.030966	-0.014622	3.302438	1.000000	0.000010	0.000048	-0.000060	-0.112771	-10.075429	-177.628651
40101	2.299390	-0.022819	12.940436	-0.000600	-0.002504	3.330470	1.000000	0.000000	0.000048	-0.000074	-0.112531	-10.075157	-177.629340
40102	2.292322	-0.025557	12.917137	0.002096	0.000315	3.306299	1.000000	-0.000008	0.000049	-0.000081	-0.113289	-10.074779	-177.628162
40103	2.296877	-0.022218	12.940884	0.001839	-0.003029	3.330470	1.000000	0.000009	0.000048	-0.000067	-0.112225	-10.074607	-177.628041
40104	2.304759	-0.055973	12.917873	-0.011282	0.030341	3.309258	1.000000	-0.000000	0.000041	-0.000066	-0.112363	-10.075151	-177.624877
40105	2.300441	-0.018606	12.964807	0.002812	-0.006657	3.354641	1.000000	-0.000008	0.000043	-0.000065	-0.113202	-10.075532	-177.624500
40106	2.302592	-0.055574	12.918261	-0.008822	0.029816	3.309261	1.000000	0.000001	0.000042	-0.000058	-0.113387	-10.076167	-177.618240
40107	2.286456	-0.024263	12.918179	0.008221	-0.000968	3.306297	1.000000	-0.000014	0.000059	-0.000074	-0.114739	-10.074721	-177.618853
40108	2.330181	-0.041080	12.909490	-0.037006	0.013858	3.305422	1.000000	-0.000000	0.000034	-0.000058	-0.114801	-10.076073	-177.620963
40109	2.289865	-0.020930	12.942128	0.009197	-0.004532	3.330467	1.000000	-0.000006	0.000057	-0.000074	-0.115279	-10.074782	-177.621659
40110	2.297562	-0.054834	12.919160	-0.004006	0.028877	3.309265	1.000000	0.000001	0.000049	-0.000067	-0.115045	-10.074274	-177.626674
40111	2.304002	-0.031817	12.914606	-0.010178	0.005614	3.305863	1.000000	0.000001	0.000042	-0.000058	-0.115061	-10.074754	-177.625486
40112	2.308596	-0.028604	12.938348	-0.010360	0.002193	3.330036	1.000000	-0.000006	0.000050	-0.000066	-0.116051	-10.074486	-177.616269
40113	2.293943	-0.054066	12.919806	-0.000319	0.028082	3.309268	1.000000	0.000000	0.000048	-0.000074	-0.115810	-10.074215	-177.616956
40114	2.315254	-0.062199	12.915575	-0.022325	0.035330	3.308845	1.000000	0.000001	0.000042	-0.000058	-0.115871	-10.074739	-177.615238
40115	2.274948	-0.041879	12.948184	0.023906	0.016979	3.333862	1.000000	0.000007	0.000047	-0.000083	-0.114706	-10.074681	-177.616900
40116	2.292341	-0.033192	12.892128	-0.002631	0.007436	3.281694	1.000000	-0.000000	0.000041	-0.000066	-0.114643	-10.075067	-177.621255
40117	2.289340	-0.052682	12.920628	0.004512	0.027108	3.309269	1.000000	-0.000006	0.000050	-0.000066	-0.115327	-10.074585	-177.620966
40118	2.295757	-0.029746	12.916079	-0.001593	0.003825	3.305867	1.000000	-0.000001	0.000041	-0.000074	-0.115314	-10.075373	-177.618030
40119	2.300290	-0.026297	12.939832	-0.001808	0.000469	3.330040	1.000000	0.000009	0.000055	-0.000076	-0.114045	-10.074394	-177.618888
40120	2.300867	-0.006153	12.911764	-0.006469	-0.019718	3.302466	1.000000	0.000001	0.000042	-0.000058	-0.114190	-10.075072	-177.613048
40121	2.297770	-0.025620	12.940281	0.000676	-0.000044	3.330040	1.000000	-0.000007	0.000057	-0.000082	-0.114619	-10.073841	-177.614635
40122	2.290742	-0.028384	12.916973	0.003288	0.002831	3.305867	1.000000	0.000001	0.000042	-0.000058	-0.114617	-10.074191	-177.617057
40123	2.317914	-0.033499	12.936279	-0.020155	0.006946	3.329637	1.000000	-0.000001	0.000041	-0.000074	-0.114531	-10.074785	-177.617652
40124	2.281045	-0.050497	12.922104	0.013066	0.025375	3.309267	1.000000	-0.000000	0.000041	-0.000066	-0.114522	-10.075321	-177.618122
40125	2.293201	-0.024453	12.941094	0.005522	-0.001017	3.330039	1.000000	0.000001	0.000049	-0.000067	-0.114332	-10.074994	-177.617915
40126	2.286193	-0.027128	12.917781	0.008178	0.001808	3.305865	1.000000	0.000001	0.000049	-0.000067	-0.114377	-10.074764	-177.613084
40127	2.315092	-0.012494	12.908824	-0.021184	-0.014012	3.302072	1.000000	-0.000001	0.000041	-0.000074	-0.114291	-10.075359	-177.613679
40128	2.304552	-0.054602	12.942071	-0.006745	0.028667	3.333045	1.000000	0.000001	0.000049	-0.000067	-0.114240	-10.074865	-177.614943
40129	2.290196	-0.003410	12.913662	0.004461	-0.021987	3.302463	1.000000	-0.000002	0.000047	-0.000090	-0.113897	-10.074709	-177.617413
40130	2.311345	-0.011447	12.909497	-0.017538	-0.014849	3.302076	1.000000	0.000003	0.000057	-0.000060	-0.113913	-10.073567	-177.610173
40131	2.308370	-0.030746	12.937992	-0.010397	0.004826	3.329649	1.000000	0.000006	0.000033	-0.000066	-0.113158	-10.075123	-177.609865
40132	2.278984	-0.025042	12.919059	0.015475	0.000246	3.305859	1.000000	-0.000006	0.000057	-0.000074	-0.113717	-10.073869	-177.609997
40133	2.336011	-0.015734	12.929277	-0.038518	-0.011285	3.325874	1.000000	0.000007	0.000040	-0.000074	-0.112756	-10.074619	-177.610672
40134	2.276475	-0.024365	12.919503	0.017865	-0.000255	3.305856	1.000000	-0.000004	0.000058	-0.000059	-0.113421	-10.073024	-177.612398
40135	2.310981	-0.006669	12.934128	-0.012869	-0.019231	3.326255	1.000000	0.000007	0.000040	-0.000074	-0.112460	-10.073774	-177.613072
40136	2.296392	-0.031954	12.915569	-0.002896	0.006698	3.305480	1.000000	0.000003	0.000064	-0.000076	-0.111906	-10.072035	-177.611053
40137	2.300847	-0.028599	12.939337	-0.003062	0.003330	3.329654	1.000000	-0.000000	0.000034	-0.000057	-0.112076	-10.073381	-177.609770
40138	2.299756	-0.028403	12.939531	-0.001783	0.003045	3.329654	1.000000	-0.000006	0.000050	-0.000066	-0.112957	-10.073162	-177.602615
40139	2.285110	-0.054094	12.920979	0.008109	0.028978	3.308877	1.000000	-0.000014	0.000059	-0.000074	-0.114311	-10.071724	-177.603225
40140	2.298990	-0.008406	12.911705	-0.005209	-0.017400	3.302084	1.000000	0.000007	0.000033	-0.000058	-0.113778	-10.073452	-177.595434
40141	2.318713	-0.036203	12.935782	-0.021333	0.009688	3.329293	1.000000	-0.000008	0.000042	-0.000073	-0.114565	-10.073895	-177.595945
40142	2.289408	-0.030744	12.916812	0.004561	0.005139	3.305480	1.000000	-0.000008	0.000042	-0.000073	-0.115489	-10.074540	-177.591151
40143	2.323961	-0.013211	12.931451	-0.026131	-0.013888	3.325902	1.000000	-0.000007	0.000050	-0.000074	-0.116122	-10.074121	-177.591751
40144	2.307853	-0.058473	12.941121	-0.010345	0.031951	3.332695	1.000000	-0.000002	0.000033	-0.000073	-0.116307	-10.075629	-177.590125
40145	2.293496	-0.007436	12.912683	0.000949	-0.018666	3.302083	1.000000	-0.000005	0.000058	-0.000067	-0.116839	-10.074288	-177.589922
40146	2.312803	-0.035348	12.936843	-0.015178	0.008432	3.329303	1.000000	-0.000006	0.000050	-0.000066	-0.117414	-10.073842	-177.592511
40147	2.305853	-0.038035	12.913521	-0.012606	0.011320	3.305130	1.000000	0.000009	0.000048	-0.000067	-0.116350	-10.073672	-177.592380
40148	2.319716	-0.068797	12.914095	-0.027416	0.041510	3.308181	1.000000	-0.000008	0.000042	-0.000073	-0.117173	-10.074001	-177.595496
40149	2.303550	-0.037379	12.913933	-0.010200	0.010824	3.305132	1.000000	0.000008	0.000047	-0.000075	-0.116057	-10.073887	-177.596257
40150	2.307980	-0.034010	12.937708	-0.010271	0.007445	3.329308	1.000000	-0.000006	0.000050	-0.000066	-0.116758	-10.073676	-177.592139
40151	2.301012	-0.036892	12.914387	-0.007709	0.010336	3.305135	1.000000	-0.000007	0.000050	-0.000074	-0.117391	-10.073257	-177.592738
40152	2.281274	-0.044951	12.970771	0.021412	0.019527	3.357214	1.000000	0.000007	0.000033	-0.000058	-0.116649	-10.075026	-177.588392
40153	2.304380	-0.033127	12.938352	-0.006556	0.006725	3.329311	1.000000	0.000003	0.000064	-0.000076	-0.116102	-10.073033	-177.589252
40154	2.274938	-0.027392	12.919376	0.019326	0.002223	3.305467	1.000000	0.000006	0.000032	-0.000066	-0.115510	-10.074815	-177.583482
40155	2.301894	-0.032338	12.938796	-0.004066	0.006203	3.329312	1.000000	-0.000006	0.000064	-0.000083	-0.115784	-10.072727	-177.585153
40156	2.287392	-0.057764	12.920214	0.005732	0.032139	3.308530	1.000000	0.000008	0.000041	-0.000059	-0.115052	-10.073406	-177.582958
40157	2.299510	-0.031480	12.939222	-0.001618	0.005690	3.329313	1.000000	0.000007	0.000040	-0.000074	-0.114089	-10.074158	-177.583628
40158	2.292824	-0.034010	12.915852	0.000930	0.008621	3.305138	1.000000	0.000007	0.000040	-0.000067	-0.113029	-10.074879	-177.586866
40159	2.297247	-0.030535	12.939626	0.000824	0.005239	3.329313	1.000000	0.000001	0.000056	-0.000075	-0.112634	-10.073751	-177.587634
40160	2.303471	-0.007432	12.935121	-0.005175	-0.018099	3.325921	1.000000	-0.000001	0.000041	-0.000074	-0.112658	-10.074393	-177.586905
40161	2.289181	-0.032907	12.916500	0.004589	0.007872	3.305138	1.000000	0.000002	0.000049	-0.000059	-0.112521	-10.074014	-177.585798
40162	2.293683	-0.029540	12.940261	0.004462	0.004508	3.329313	1.000000	-0.000003	0.000040	-0.000089	-0.112233	-10.074599	-177.592722
40163	2.294338	-0.009583	12.912185	-0.000231	-0.015664	3.301746	1.000000	-0.000006	0.000050	-0.000066	-0.112918	-10.074125	-177.592427
40164	2.296910	-0.025924	12.964248	0.005636	0.000864	3.353487	1.000000	0.000008	0.000047	-0.000075	-0.111891	-10.074206	-177.589773
40165	2.291827	-0.008901	12.912632	0.002253	-0.016166	3.301745	1.000000	-0.000006	0.000050	-0.000066	-0.112577	-10.073732	-177.589478
40166	2.294492	-0.025258	12.964677	0.008057	0.000389	3.353486	1.000000	0.000007	0.000040	-0.000074	-0.111570	-10.074389	-177.593513
40167	2.312288	-0.016381	12.908676	-0.018620	-0.009319	3.301443	1.000000	0.000007	0.000033	-0.000058	-0.110864	-10.075890	-177.592307
40168	2.315163	-0.032669	12.960686	-0.012864	0.007226	3.353186	1.000000	-0.000002	0.000040	-0.000081	-0.110704	-10.076217	-177.601174
40169	2.315637	-0.012574	12.932645	-0.017556	-0.012950	3.325622	1.000000	0.000003	0.000063	-0.000076	-0.110158	-10.074225	-177.602031
40170	2.301201	-0.038031	12.914050	-0.007839	0.013004	3.304837	1.000000	0.000001	0.000042	-0.000058	-0.110290	-10.074694	-177.600158
40171	2.305873	-0.034608	12.937782	-0.007914	0.009614	3.329014	1.000000	0.000006	0.000032	-0.000066	-0.109531	-10.076252	-177.599844
40172	2.276707	-0.029194	12.918714	0.017884	0.005238	3.305128	1.000000	-0.000016	0.000044	-0.000072	-0.111057	-10.076551	-177.603417
40173	2.333809	-0.019793	12.929116	-0.035970	-0.006618	3.325340	1.000000	-0.000001	0.000041	-0.000074	-0.110967	-10.077151	-177.604005
40174	2.302634	-0.034072	12.938361	-0.004208	0.008885	3.329016	1.000000	-0.000006	0.000050	-0.000066	-0.111786	-10.076906	-177.598625
40175	2.308788	-0.011063	12.933871	-0.010180	-0.014442	3.325628	1.000000	0.000001	0.000049	-0.000067	-0.111597	-10.076585	-177.598409
40176	2.307514	-0.010819	12.934099	-0.008967	-0.014700	3.325629	1.000000	-0.000007	0.000050	-0.000074	-0.112291	-10.076134	-177.600411
40177	2.299002	-0.033389	12.939008	-0.000560	0.008142	3.329017	1.000000	-0.000000	0.000034	-0.000057	-0.112459	-10.077483	-177.599123
40178	2.314995	-0.044404	12.911311	-0.021389	0.018368	3.304565	1.000000	-0.000001	0.000041	-0.000074	-0.112248	-10.077994	-177.604204
40179	2.291265	-0.035918	12.915823	0.003124	0.010835	3.304841	1.000000	-0.000008	0.000049	-0.000081	-0.112826	-10.077637	-177.605692
40180	2.312612	-0.043715	12.911740	-0.018960	0.017854	3.304570	1.000000	0.000016	0.000046	-0.000068	-0.110998	-10.077617	-177.605073
40181	2.294341	-0.031767	12.939840	0.004292	0.007174	3.329017	1.000000	0.000009	0.000055	-0.000076	-0.109729	-10.076640	-177.605917
40182	2.310075	-0.042623	12.912198	-0.016491	0.017357	3.304574	1.000000	0.000001	0.000042	-0.000058	-0.109782	-10.077301	-177.602424
40183	2.308898	-0.042401	12.912409	-0.015276	0.017113	3.304576	1.000000	-0.000007	0.000050	-0.000074	-0.110414	-10.076887	-177.603020
40184	2.290840	-0.030906	12.940462	0.008004	0.006411	3.329015	1.000000	-0.000001	0.000034	-0.000065	-0.110669	-10.078359	-177.600542
40185	2.314054	-0.019188	12.908102	-0.019994	-0.006500	3.301193	1.000000	-0.000005	0.000058	-0.000067	-0.111203	-10.077024	-177.600334
40186	2.310850	-0.038757	12.936629	-0.012853	0.013202	3.328757	1.000000	-0.000006	0.000050	-0.000066	-0.111848	-10.076611	-177.600339
40187	2.309677	-0.038530	12.936839	-0.011636	0.012958	3.328758	1.000000	-0.000001	0.000041	-0.000074	-0.111757	-10.077212	-177.600925
40188	2.314203	-0.035163	12.960598	-0.011733	0.009524	3.352937	1.000000	-0.000000	0.000041	-0.000066	-0.111850	-10.077442	-177.605420
40189	2.284972	-0.029698	12.941502	0.014039	0.005181	3.329011	1.000000	-0.000001	0.000041	-0.000074	-0.111758	-10.078042	-177.606005
40190	2.283713	-0.029445	12.941725	0.015291	0.004946	3.329010	1.000000	-0.000007	0.000057	-0.000082	-0.112166	-10.076971	-177.606226
40191	2.299446	-0.040563	12.914101	-0.005564	0.015115	3.304586	1.000000	-0.000008	0.000043	-0.000065	-0.113002	-10.077364	-177.605839
40192	2.275797	-0.032051	12.918568	0.019034	0.007602	3.304830	1.000000	0.000007	0.000040	-0.000074	-0.112162	-10.078424	-177.601043
40193	2.304824	-0.017082	12.909756	-0.010204	-0.008497	3.301203	1.000000	-0.000000	0.000034	-0.000057	-0.112330	-10.079775	-177.599753
40194	2.296477	-0.039588	12.914633	-0.001823	0.014344	3.304588	1.000000	-0.000001	0.000041	-0.000074	-0.112317	-10.080491	-177.598426
40195	2.302696	-0.016557	12.910136	-0.007741	-0.009001	3.301205	1.000000	-0.000008	0.000049	-0.000081	-0.112894	-10.080137	-177.599912
40196	2.299747	-0.035864	12.938616	-0.000579	0.010662	3.328766	1.000000	0.000016	0.000039	-0.000060	-0.111320	-10.081080	-177.595199
40197	2.298618	-0.035348	12.938818	0.000639	0.010419	3.328766	1.000000	0.000000	0.000048	-0.000074	-0.111077	-10.080818	-177.595872
40198	2.327342	-0.020390	12.930073	-0.028592	-0.005757	3.325154	1.000000	0.000000	0.000048	-0.000074	-0.111060	-10.080524	-177.595380
40199	2.298024	-0.014945	12.910971	-0.002836	-0.010058	3.301206	1.000000	-0.000000	0.000041	-0.000066	-0.111023	-10.081069	-177.595071
40200	2.289619	-0.037337	12.915857	0.005551	0.012768	3.304588	1.000000	0.000007	0.000040	-0.000074	-0.110238	-10.082041	-177.590642
40201	2.296030	-0.014156	12.911326	-0.000346	-0.010582	3.301206	1.000000	-0.000000	0.000034	-0.000057	-0.110405	-10.083393	-177.589351
40202	2.315667	-0.041742	12.935551	-0.016547	0.016342	3.328545	1.000000	0.000001	0.000056	-0.000075	-0.109948	-10.082276	-177.591873
40203	2.293607	-0.013503	12.911758	0.002092	-0.011052	3.301205	1.000000	0.000001	0.000042	-0.000058	-0.109965	-10.082764	-177.590671
40204	2.297874	-0.010196	12.935562	0.002117	-0.014463	3.325382	1.000000	-0.000006	0.000057	-0.000074	-0.110454	-10.081526	-177.591496
40205	2.296502	-0.009937	12.935806	0.003338	-0.014705	3.325382	1.000000	0.000001	0.000049	-0.000067	-0.110266	-10.081207	-177.591275
40206	2.304951	-0.043736	12.912902	-0.010480	0.018518	3.304374	1.000000	-0.000006	0.000050	-0.000066	-0.111010	-10.080705	-177.591305
40207	2.316649	-0.017645	12.931997	-0.017556	-0.008009	3.325172	1.000000	0.000001	0.000042	-0.000058	-0.111027	-10.081192	-177.590102
40208	2.292942	-0.009291	12.936438	0.007040	-0.015460	3.325380	1.000000	-0.000008	0.000043	-0.000065	-0.111940	-10.081779	-177.587126
40209	2.301439	-0.042976	12.913531	-0.006793	0.017772	3.304377	1.000000	0.000008	0.000054	-0.000083	-0.110617	-10.080861	-177.588857
40210	2.313084	-0.016640	12.932637	-0.013823	-0.008790	3.325176	1.000000	-0.000001	0.000041	-0.000074	-0.110659	-10.081577	-177.587107
40211	2.309905	-0.036113	12.961155	-0.006701	0.010911	3.352735	1.000000	-0.000004	0.000065	-0.000067	-0.111046	-10.079382	-177.586984
40212	2.297588	-0.042019	12.914220	-0.003085	0.016993	3.304380	1.000000	-0.000002	0.000033	-0.000073	-0.111202	-10.081012	-177.584266
40213	2.337502	-0.020992	12.952651	-0.034636	-0.005547	3.349163	1.000000	-0.000005	0.000051	-0.000058	-0.111944	-10.080487	-177.583073
40214	2.295138	-0.041563	12.914657	-0.000660	0.016499	3.304381	1.000000	0.000001	0.000056	-0.000075	-0.111591	-10.079335	-177.584933
40215	2.293912	-0.041117	12.914876	0.000555	0.016257	3.304381	1.000000	0.000007	0.000040	-0.000074	-0.110622	-10.080088	-177.585592
40216	2.298368	-0.037731	12.938648	0.000629	0.012781	3.328560	1.000000	-0.000008	0.000043	-0.000065	-0.111721	-10.080600	-177.581229
40217	2.304392	-0.014778	12.934191	-0.005217	-0.010586	3.325181	1.000000	-0.000005	0.000058	-0.000067	-0.112259	-10.079270	-177.581017
40218	2.308734	-0.011379	12.957983	-0.005132	-0.014022	3.349360	1.000000	0.000006	0.000032	-0.000066	-0.111569	-10.080945	-177.578862
40219	2.281823	-0.062849	12.920413	0.012528	0.038343	3.307759	1.000000	-0.000002	0.000066	-0.000052	-0.112068	-10.078634	-177.576954
40220	2.310379	-0.047916	12.911755	-0.016626	0.022105	3.304203	1.000000	0.000001	0.000042	-0.000058	-0.112168	-10.079266	-177.573516
40221	2.299391	-0.013581	12.935082	-0.000273	-0.011590	3.325181	1.000000	0.000000	0.000048	-0.000074	-0.111925	-10.079007	-177.574184
40222	2.307979	-0.047246	12.912187	-0.014176	0.021629	3.304207	1.000000	0.000000	0.000048	-0.000074	-0.111630	-10.078845	-177.574764
40223	2.319531	-0.020993	12.931314	-0.021156	-0.004925	3.325010	1.000000	0.000000	0.000048	-0.000074	-0.111386	-10.078586	-177.575432
40224	2.282937	-0.038472	12.916829	0.011583	0.013990	3.304379	1.000000	0.000001	0.000042	-0.000058	-0.111479	-10.078990	-177.576253
40225	2.281669	-0.038231	12.917054	0.012799	0.013749	3.304378	1.000000	-0.000007	0.000057	-0.000082	-0.111905	-10.077777	-177.577824
40226	2.285812	-0.034783	12.940881	0.012975	0.010291	3.328555	1.000000	0.000009	0.000048	-0.000067	-0.111030	-10.078051	-177.570017
40227	2.301749	-0.045434	12.913306	-0.008020	0.020355	3.304214	1.000000	0.000009	0.000048	-0.000067	-0.109967	-10.077884	-177.569870
40228	2.285147	-0.014167	12.913049	0.009531	-0.010187	3.300998	1.000000	-0.000008	0.000049	-0.000081	-0.110746	-10.077583	-177.569091
40229	2.306539	-0.022002	12.909073	-0.012604	-0.003313	3.300840	1.000000	0.000000	0.000048	-0.000074	-0.110503	-10.077325	-177.569758
40230	2.303593	-0.041316	12.937547	-0.005480	0.016408	3.328396	1.000000	0.000008	0.000040	-0.000066	-0.109541	-10.078084	-177.569714
40231	2.287076	-0.009986	12.937268	0.012074	-0.014082	3.325173	1.000000	0.000001	0.000049	-0.000067	-0.109353	-10.077769	-177.569489
40232	2.308564	-0.017748	12.933282	-0.010032	-0.007235	3.325022	1.000000	-0.000000	0.000041	-0.000066	-0.109399	-10.078444	-177.567044
40233	2.307589	-0.017468	12.933456	-0.008811	-0.007479	3.325023	1.000000	-0.000000	0.000034	-0.000057	-0.109564	-10.079799	-177.565749
40234	2.293567	-0.043160	12.914769	0.000512	0.018587	3.304219	1.000000	-0.000004	0.000065	-0.000067	-0.110034	-10.077480	-177.568103
40235	2.322131	-0.028139	12.906150	-0.028642	0.002300	3.300701	1.000000	-0.000001	0.000041	-0.000073	-0.109939	-10.078087	-177.568680
40236	2.303793	-0.016551	12.934134	-0.005162	-0.008261	3.325024	1.000000	0.000009	0.000048	-0.000067	-0.109027	-10.077982	-177.568126
40237	2.295267	-0.039049	12.939033	0.003062	0.014640	3.328399	1.000000	-0.000006	0.000050	-0.000066	-0.109715	-10.077520	-177.567822
40238	2.295790	-0.019164	12.910993	-0.001592	-0.005595	3.300845	1.000000	-0.000007	0.000050	-0.000074	-0.110519	-10.077195	-177.566989
40239	2.299971	-0.015826	12.934815	-0.001479	-0.009027	3.325024	1.000000	0.000001	0.000049	-0.000067	-0.110331	-10.076880	-177.566762
40240	2.293365	-0.018597	12.911425	0.000819	-0.006100	3.300845	1.000000	-0.000001	0.000041	-0.000073	-0.110326	-10.077375	-177.569455
40241	2.297736	-0.015290	12.935213	0.000937	-0.009533	3.325024	1.000000	-0.000008	0.000043	-0.000065	-0.111162	-10.077778	-177.569061
40242	2.306426	-0.049047	12.912343	-0.013103	0.023627	3.304091	1.000000	0.000003	0.000057	-0.000060	-0.110938	-10.076619	-177.567331
40243	2.289856	-0.017747	12.912049	0.004493	-0.006836	3.300844	1.000000	0.000006	0.000032	-0.000066	-0.110172	-10.078181	-177.567003
40244	2.322335	-0.019377	12.955267	-0.019761	-0.006437	3.349080	1.000000	-0.000016	0.000050	-0.000081	-0.111805	-10.078033	-177.561808
40245	2.285695	-0.037132	12.940734	0.012900	0.012601	3.328395	1.000000	0.000002	0.000049	-0.000059	-0.111674	-10.077661	-177.560687
40246	2.307190	-0.044951	12.936778	-0.009273	0.019382	3.328276	1.000000	-0.000008	0.000042	-0.000073	-0.112614	-10.078026	-177.562030
40247	2.290663	-0.013960	12.936469	0.008343	-0.011070	3.325020	1.000000	-0.000008	0.000043	-0.000065	-0.113450	-10.078430	-177.561636
40248	2.299308	-0.047678	12.913617	-0.005791	0.022046	3.304099	1.000000	0.000003	0.000063	-0.000076	-0.113104	-10.076288	-177.564387
40249	2.305210	-0.024374	12.909190	-0.011544	-0.001351	3.300727	1.000000	0.000008	0.000040	-0.000066	-0.112190	-10.076986	-177.564147
40250	2.294128	0.009997	12.932471	0.004980	-0.035001	3.321645	1.000000	0.000001	0.000042	-0.000058	-0.112234	-10.077364	-177.565375
40251	2.295834	-0.046721	12.914239	-0.002171	0.021312	3.304101	1.000000	-0.000016	0.000043	-0.000072	-0.113888	-10.077679	-177.565795
40252	2.301890	-0.023645	12.909784	-0.007908	-0.002118	3.300730	1.000000	0.000009	0.000048	-0.000067	-0.112961	-10.077544	-177.564019
40253	2.293531	-0.046072	12.914650	0.000267	0.020797	3.304102	1.000000	-0.000001	0.000041	-0.000073	-0.112865	-10.078154	-177.564593
40254	2.282525	-0.011804	12.937909	0.016859	-0.012866	3.325010	1.000000	-0.000002	0.000033	-0.000073	-0.113047	-10.079703	-177.563272
40255	2.304158	-0.019500	12.933949	-0.005299	-0.006075	3.324912	1.000000	0.000000	0.000048	-0.000074	-0.112804	-10.079448	-177.563934
40256	2.320300	-0.030187	12.906405	-0.026393	0.003868	3.300637	1.000000	0.000008	0.000040	-0.000066	-0.112075	-10.080165	-177.562053
40257	2.289263	-0.044613	12.915412	0.005150	0.019760	3.304103	1.000000	0.000000	0.000048	-0.000074	-0.111832	-10.079911	-177.562714
40258	2.323298	-0.026405	12.930444	-0.024968	0.000179	3.324822	1.000000	-0.000006	0.000050	-0.000066	-0.112508	-10.079652	-177.561289
40259	2.314815	-0.049108	12.935332	-0.016810	0.023096	3.328195	1.000000	-0.000008	0.000049	-0.000081	-0.113082	-10.079309	-177.562765
40260	2.292690	-0.020924	12.911426	0.002661	-0.005795	3.300731	1.000000	0.000017	0.000047	-0.000060	-0.118776	-10.082223	-177.573458
40261	2.284250	-0.043350	12.916304	0.010817	0.017122	3.304103	1.000000	-0.000007	0.000050	-0.000074	-0.119425	-10.081822	-177.573985
40262	2.285557	0.016805	12.958544	0.019470	-0.042885	3.345797	1.000000	0.000000	0.000041	-0.000066	-0.119433	-10.082410	-177.573252
40263	2.287328	-0.039597	12.940323	0.012216	0.013418	3.328281	1.000000	0.000009	0.000048	-0.000067	-0.118389	-10.082244	-177.573039
40264	2.293259	-0.016400	12.935891	0.006551	-0.010027	3.324909	1.000000	-0.000006	0.000050	-0.000066	-0.119255	-10.081974	-177.566879
40265	2.284995	-0.039054	12.940736	0.014696	0.012895	3.328279	1.000000	-0.000002	0.000033	-0.000073	-0.119323	-10.083449	-177.567305
40266	2.308267	-0.026840	12.908570	-0.013376	-0.000310	3.300658	1.000000	0.000011	0.000063	-0.000069	-0.117983	-10.081504	-177.568774
40267	2.289716	-0.015219	12.936520	0.010202	-0.010764	3.324906	1.000000	0.000006	0.000032	-0.000066	-0.117233	-10.083067	-177.568384
40268	2.293408	-0.052083	12.890026	-0.003028	0.025586	3.279850	1.000000	-0.000014	0.000051	-0.000065	-0.118761	-10.082325	-177.572828
40269	2.310167	-0.022755	12.932803	-0.010780	-0.004254	3.324841	1.000000	0.000007	0.000040	-0.000074	-0.117806	-10.083082	-177.573418
40270	2.303673	-0.025349	12.909394	-0.008534	-0.001296	3.300662	1.000000	0.000009	0.000048	-0.000067	-0.116790	-10.082930	-177.573084
40271	2.307806	-0.021788	12.933226	-0.008336	-0.004757	3.324843	1.000000	0.000000	0.000048	-0.000074	-0.116563	-10.082677	-177.573686
40272	2.293928	-0.047411	12.914506	0.000831	0.021394	3.304033	1.000000	0.000001	0.000056	-0.000075	-0.116142	-10.081668	-177.573140
40273	2.307027	-0.001230	12.905425	-0.011760	-0.025200	3.297294	1.000000	0.000008	0.000040	-0.000066	-0.115244	-10.082366	-177.572838
40274	2.281541	-0.012743	12.937967	0.018725	-0.012425	3.324895	1.000000	-0.000009	0.000035	-0.000064	-0.116068	-10.083553	-177.576719
40275	2.295802	-0.043426	12.938740	0.003449	0.017479	3.328214	1.000000	-0.000004	0.000065	-0.000067	-0.116482	-10.081367	-177.576529
40276	2.271630	-0.035115	12.943100	0.028062	0.010296	3.328260	1.000000	0.000009	0.000048	-0.000067	-0.115287	-10.081194	-177.578839
40277	2.317729	-0.030830	12.906843	-0.023409	0.004027	3.300620	1.000000	0.000000	0.000041	-0.000066	-0.115264	-10.081747	-177.578461
40278	2.288880	0.014507	12.957845	0.015709	-0.039752	3.345698	1.000000	0.000002	0.000056	-0.000067	-0.114899	-10.080552	-177.580269
40279	2.313298	-0.049987	12.935577	-0.015087	0.023500	3.328173	1.000000	-0.000006	0.000050	-0.000066	-0.115605	-10.080095	-177.579902
40280	2.317300	-0.046493	12.959434	-0.014897	0.020010	3.352356	1.000000	0.000008	0.000054	-0.000083	-0.114396	-10.079039	-177.583737
40281	2.312625	-0.029441	12.907761	-0.018577	0.003019	3.300628	1.000000	-0.000000	0.000034	-0.000057	-0.114577	-10.080397	-177.582378
40282	2.299193	-0.055147	12.888960	-0.009517	0.029151	3.279817	1.000000	-0.000003	0.000040	-0.000089	-0.114458	-10.080991	-177.587514
40283	2.310625	-0.028822	12.908121	-0.016173	0.002502	3.300632	1.000000	0.000001	0.000042	-0.000058	-0.114494	-10.081485	-177.586243
40284	2.309345	-0.028590	12.908350	-0.014911	0.002209	3.300633	1.000000	-0.000005	0.000058	-0.000067	-0.115254	-10.080355	-177.580596
40285	2.307997	-0.028229	12.908592	-0.013694	0.001961	3.300634	1.000000	0.000008	0.000047	-0.000075	-0.114151	-10.080247	-177.581271
40286	2.287653	-0.036514	12.964756	0.015828	0.011531	3.352387	1.000000	0.000000	0.000041	-0.000066	-0.114048	-10.080739	-177.584731
40287	2.318041	-0.001550	12.928003	-0.019119	-0.024924	3.321451	1.000000	-0.000005	0.000058	-0.000067	-0.114608	-10.079418	-177.584452
40288	2.297084	-0.050203	12.913911	-0.003138	0.024402	3.304005	1.000000	0.000002	0.000049	-0.000059	-0.114587	-10.079285	-177.578749
40289	2.308347	-0.023971	12.933103	-0.009756	-0.002255	3.324820	1.000000	-0.000007	0.000043	-0.000065	-0.115439	-10.079694	-177.578293
40290	2.301868	-0.026783	12.909690	-0.007612	0.000737	3.300640	1.000000	0.000009	0.000048	-0.000067	-0.114318	-10.079336	-177.583018
40291	2.316335	-0.057326	12.910465	-0.022949	0.030603	3.303995	1.000000	-0.000018	0.000042	-0.000087	-0.115868	-10.079777	-177.585163
40292	2.297867	-0.045974	12.938342	0.000725	0.020172	3.328188	1.000000	0.000015	0.000039	-0.000067	-0.114248	-10.080664	-177.583115
40293	2.303956	-0.022576	12.933888	-0.004909	-0.003265	3.324822	1.000000	-0.000001	0.000041	-0.000073	-0.114165	-10.081276	-177.583626
40294	2.297493	-0.025386	12.910472	-0.002726	-0.000306	3.300641	1.000000	0.000001	0.000049	-0.000066	-0.114085	-10.080986	-177.582824
40295	2.289127	-0.048028	12.915332	0.005337	0.022639	3.304007	1.000000	-0.000008	0.000049	-0.000081	-0.114673	-10.080649	-177.584239
40296	2.300290	-0.021649	12.934542	-0.001227	-0.004073	3.324823	1.000000	0.000009	0.000048	-0.000067	-0.113833	-10.080543	-177.581858
40297	2.288529	-0.027607	12.887501	0.001892	0.002137	3.276461	1.000000	-0.000007	0.000043	-0.000065	-0.114685	-10.080953	-177.581401
40298	2.290760	-0.043981	12.939609	0.008001	0.018617	3.328187	1.000000	0.000001	0.000056	-0.000075	-0.114347	-10.079621	-177.585953
40299	2.296490	-0.020826	12.935219	0.002384	-0.004824	3.324822	1.000000	-0.000006	0.000050	-0.000066	-0.115053	-10.079166	-177.585584
40300	2.312596	-0.031482	12.907785	-0.018823	0.005033	3.300650	1.000000	0.000010	0.000055	-0.000068	-0.113966	-10.078354	-177.580500
40301	2.299192	-0.016799	12.959306	0.003938	-0.008568	3.349003	1.000000	0.000008	0.000040	-0.000066	-0.113067	-10.079052	-177.580193
40302	2.315515	-0.027385	12.931838	-0.017387	0.001263	3.324835	1.000000	0.000001	0.000049	-0.000066	-0.113074	-10.078465	-177.584118
40303	2.291481	-0.019287	12.936110	0.007255	-0.005873	3.324820	1.000000	-0.000006	0.000050	-0.000066	-0.113781	-10.078011	-177.583748
40304	2.312866	-0.026890	12.932313	-0.014923	0.000714	3.324838	1.000000	0.000002	0.000056	-0.000067	-0.113689	-10.076939	-177.580300
40305	2.288875	-0.018588	12.936572	0.009722	-0.006413	3.324818	1.000000	0.000006	0.000039	-0.000082	-0.112671	-10.077756	-177.581775
40306	2.310596	-0.026029	12.932720	-0.012525	0.000214	3.324840	1.000000	0.000001	0.000042	-0.000058	-0.112716	-10.078070	-177.585373
40307	2.297420	-0.011510	12.984186	0.010275	-0.013377	3.373179	1.000000	0.000006	0.000032	-0.000066	-0.111961	-10.079633	-177.584977
40308	2.338314	-0.010266	12.924440	-0.040331	-0.016593	3.321507	1.000000	-0.000005	0.000058	-0.000067	-0.112429	-10.078282	-177.586782
40309	2.277252	-0.040239	12.942005	0.021361	0.015824	3.328176	1.000000	-0.000006	0.000050	-0.000066	-0.113136	-10.077829	-177.586412
40310	2.325214	0.024035	12.947954	-0.022151	-0.050431	3.342300	1.000000	0.000000	0.000048	-0.000074	-0.113031	-10.077682	-177.584293
40311	2.318682	0.021140	12.924551	-0.020010	-0.047445	3.318119	1.000000	-0.000007	0.000050	-0.000073	-0.113678	-10.077288	-177.584814
40312	2.303181	-0.024507	12.934046	-0.005162	-0.001281	3.324845	1.000000	-0.000006	0.000057	-0.000074	-0.114179	-10.076150	-177.583817
40313	2.326483	-0.012413	12.901996	-0.033262	-0.014644	3.297341	1.000000	-0.000009	0.000042	-0.000080	-0.114910	-10.076680	-177.585142
40314	2.295488	-0.027348	12.910847	-0.001855	0.001493	3.300664	1.000000	-0.000008	0.000049	-0.000081	-0.115356	-10.076193	-177.591745
40315	2.304820	-0.020820	12.958323	-0.002441	-0.005232	3.349027	1.000000	0.000001	0.000042	-0.000058	-0.115391	-10.076689	-177.590469
40316	2.285998	-0.049798	12.915903	0.007378	0.024199	3.304026	1.000000	-0.000006	0.000057	-0.000074	-0.115938	-10.075482	-177.589807
40317	2.296999	-0.023680	12.935147	0.000912	-0.002497	3.324846	1.000000	-0.000016	0.000043	-0.000072	-0.117604	-10.075810	-177.590166
40318	2.283618	-0.049643	12.916324	0.009880	0.023718	3.304025	1.000000	0.000001	0.000042	-0.000058	-0.117615	-10.076636	-177.584466
40319	2.310476	-0.053986	12.936158	-0.013233	0.027066	3.328259	1.000000	0.000001	0.000049	-0.000066	-0.117446	-10.076327	-177.584169
40320	2.314450	-0.050502	12.960021	-0.012891	0.023573	3.352443	1.000000	0.000002	0.000049	-0.000059	-0.117350	-10.076019	-177.583084
40321	2.287048	-0.025875	12.912348	0.006767	-0.000234	3.300663	1.000000	-0.000007	0.000043	-0.000065	-0.118200	-10.076432	-177.582625
40322	2.301730	-0.056382	12.913151	-0.008738	0.029545	3.304082	1.000000	-0.000001	0.000041	-0.000073	-0.118178	-10.076815	-177.587891
40323	2.300704	-0.055880	12.913336	-0.007525	0.029297	3.304084	1.000000	0.000016	0.000039	-0.000059	-0.116463	-10.077596	-177.586762
40324	2.329276	-0.040324	12.904945	-0.036551	0.012621	3.300789	1.000000	-0.000005	0.000058	-0.000067	-0.117173	-10.076123	-177.588921
40325	2.303408	-0.052065	12.937426	-0.006005	0.025523	3.328268	1.000000	0.000001	0.000042	-0.000058	-0.117209	-10.076619	-177.587644
40326	2.304027	-0.032085	12.909385	-0.010669	0.005306	3.300727	1.000000	-0.000006	0.000050	-0.000066	-0.117901	-10.076201	-177.587018
40327	2.285181	-0.020906	12.937245	0.013122	-0.005000	3.324839	1.000000	0.000001	0.000049	-0.000066	-0.117733	-10.075891	-177.586719
40328	2.306729	-0.028339	12.933475	-0.009131	0.001548	3.324911	1.000000	-0.000000	0.000048	-0.000082	-0.117505	-10.075577	-177.590005
40329	2.275560	-0.043220	12.942317	0.022286	0.017714	3.328195	1.000000	-0.000005	0.000058	-0.000067	-0.118068	-10.074260	-177.589720
40330	2.275885	-0.023194	12.914326	0.017610	-0.002522	3.300652	1.000000	0.000003	0.000057	-0.000060	-0.117895	-10.072998	-177.589051
40331	2.292232	-0.033778	12.886920	-0.003761	0.007282	3.276549	1.000000	-0.000002	0.000040	-0.000089	-0.117687	-10.073732	-177.591339
40332	2.329633	-0.031631	12.954047	-0.028588	0.004063	3.349178	1.000000	0.000007	0.000040	-0.000074	-0.116828	-10.074382	-177.594016
40333	2.293606	-0.049441	12.939177	0.003677	0.023490	3.328272	1.000000	0.000007	0.000040	-0.000074	-0.115866	-10.075139	-177.594595
40334	2.327572	-0.030697	12.954420	-0.026128	0.003540	3.349183	1.000000	0.000000	0.000041	-0.000066	-0.115931	-10.075769	-177.593246
40335	2.298406	-0.025781	12.934962	-0.000607	-0.000249	3.324914	1.000000	0.000001	0.000049	-0.000066	-0.115763	-10.075460	-177.592946
40336	2.297163	-0.025347	12.935184	0.000639	-0.000530	3.324914	1.000000	0.000009	0.000048	-0.000067	-0.114874	-10.075406	-177.590712
40337	2.290929	-0.028104	12.911725	0.002702	0.002475	3.300732	1.000000	-0.000002	0.000033	-0.000073	-0.114930	-10.076886	-177.591129
40338	2.324651	-0.009507	12.927020	-0.027080	-0.017468	3.321653	1.000000	-0.000004	0.000065	-0.000067	-0.115328	-10.074803	-177.590954
40339	2.272582	0.003154	12.911535	0.021890	-0.028015	3.297275	1.000000	0.000006	0.000032	-0.000066	-0.114570	-10.076366	-177.590553
40340	2.292514	-0.024154	12.936011	0.005563	-0.001519	3.324913	1.000000	-0.000014	0.000051	-0.000065	-0.116191	-10.075874	-177.589262
40341	2.265123	0.000306	12.888289	0.025187	-0.025255	3.273088	1.000000	0.000000	0.000041	-0.000066	-0.116166	-10.076430	-177.588875
40342	2.297127	-0.000868	12.931827	0.001318	-0.025240	3.321555	1.000000	-0.000007	0.000050	-0.000073	-0.116802	-10.076167	-177.587879
40343	2.288962	-0.023678	12.936640	0.009251	-0.002254	3.324911	1.000000	-0.000007	0.000042	-0.000065	-0.117652	-10.076582	-177.587418
40344	2.317588	-0.008233	12.928289	-0.019776	-0.018976	3.321664	1.000000	-0.000000	0.000048	-0.000082	-0.117358	-10.076058	-177.595473
40345	2.286633	-0.023212	12.937053	0.011614	-0.002750	3.324909	1.000000	-0.000007	0.000042	-0.000065	-0.118208	-10.076473	-177.595012
40346	2.313550	-0.027553	12.956939	-0.011417	0.000529	3.349205	1.000000	-0.000001	0.000041	-0.000073	-0.118003	-10.077222	-177.594307
40347	2.284477	-0.022884	12.937435	0.014083	-0.003213	3.324906	1.000000	-0.000016	0.000043	-0.000072	-0.119667	-10.077556	-177.594664
40348	2.283290	-0.022756	12.937644	0.015301	-0.003462	3.324905	1.000000	0.000001	0.000049	-0.000066	-0.119513	-10.077241	-177.594938
40349	2.304862	-0.030128	12.933919	-0.006943	0.003036	3.325025	1.000000	0.000000	0.000048	-0.000074	-0.119283	-10.076992	-177.595528
40350	2.275722	-0.025265	12.914420	0.018553	-0.000681	3.300720	1.000000	0.000000	0.000041	-0.000066	-0.119202	-10.077570	-177.596297
40351	2.297495	-0.032663	12.910663	-0.003696	0.005812	3.300844	1.000000	-0.000001	0.000041	-0.000073	-0.119114	-10.078187	-177.596800
40352	2.301580	-0.029277	12.934505	-0.003239	0.002293	3.325027	1.000000	-0.000007	0.000042	-0.000065	-0.120022	-10.078789	-177.593109
40353	2.300591	-0.029094	12.934682	-0.002020	0.002045	3.325027	1.000000	-0.000000	0.000034	-0.000057	-0.120200	-10.080151	-177.591741
40354	2.317294	-0.039693	12.907266	-0.023450	0.011791	3.300979	1.000000	0.000001	0.000042	-0.000058	-0.120214	-10.080747	-177.589253
40355	2.316114	-0.039477	12.907478	-0.022235	0.011541	3.300981	1.000000	-0.000006	0.000050	-0.000066	-0.120921	-10.080299	-177.588878
40356	2.320184	-0.036093	12.931325	-0.021742	0.008005	3.325166	1.000000	-0.000001	0.000034	-0.000065	-0.121149	-10.082017	-177.584453
40357	2.336815	-0.046652	12.903931	-0.043208	0.017733	3.301127	1.000000	0.000001	0.000049	-0.000066	-0.120980	-10.081710	-177.584151
40358	2.288077	-0.050815	12.940266	0.010837	0.024036	3.328381	1.000000	-0.000006	0.000050	-0.000066	-0.121697	-10.081273	-177.584322
