// Start Time: Unknown
// Update Rate: 100.0Hz
// Filter Profile: human (46.1)
// Firmware Version: 4.4.0
PacketCounter	Acc_X	Acc_Y	Acc_Z	FreeAcc_X	FreeAcc_Y	FreeAcc_Z	OriInc_q0	OriInc_q1	OriInc_q2	OriInc_q3	Roll	Pitch	Yaw
31036	9.483207	0.074401	-2.684345	-0.030333	-0.000589	0.043353	1.000000	-0.000003	0.000027	0.000044	178.276300	-74.019159	168.195284
31037	9.501588	0.085346	-2.672618	-0.043038	0.014355	0.057890	1.000000	0.000002	0.000023	0.000035	178.290246	-74.021911	168.180970
31038	9.467280	0.084766	-2.669495	-0.036313	0.013083	0.024044	1.000000	-0.000009	0.000015	0.000034	178.302558	-74.023885	168.167198
31039	9.464014	0.078574	-2.710975	0.002357	-0.001923	0.032266	1.000000	-0.000006	0.000017	0.000041	178.318006	-74.026007	168.150456
31040	9.500630	0.101235	-2.688025	-0.023043	0.027961	0.061339	1.000000	-0.000021	0.000029	0.000043	178.332400	-74.029590	168.132992
31041	9.467639	0.082832	-2.668282	-0.036303	0.013080	0.024044	1.000000	-0.000005	0.000019	0.000022	178.340364	-74.031799	168.124098
31042	9.502175	0.082052	-2.670633	-0.042975	0.014321	0.057890	1.000000	-0.000006	0.000024	0.000057	178.361715	-74.034933	168.101105
31043	9.465810	0.057899	-2.692741	-0.017565	-0.015566	0.028817	1.000000	0.000006	0.000019	0.000026	178.372536	-74.037153	168.090535
31044	9.482864	0.086948	-2.697691	-0.010235	0.012979	0.046802	1.000000	-0.000009	0.000015	0.000034	178.384917	-74.039417	168.076575
31045	9.482966	0.086450	-2.697348	-0.010235	0.012979	0.046802	1.000000	-0.000013	0.000021	0.000024	178.393047	-74.041881	168.066614
31046	9.464837	0.074195	-2.708222	0.002553	-0.002003	0.032266	1.000000	-0.000013	0.000019	0.000043	178.408260	-74.044771	168.049191
31047	9.484479	0.067306	-2.680033	-0.030118	-0.000679	0.043354	1.000000	-0.000009	0.000023	0.000031	178.419402	-74.047502	168.036500
31048	9.465093	0.072941	-2.707361	0.002659	-0.002038	0.032266	1.000000	-0.000006	0.000025	0.000038	178.433304	-74.051144	168.021321
31049	9.483452	0.083979	-2.695718	-0.010046	0.012906	0.046803	1.000000	-0.000009	0.000015	0.000034	178.445792	-74.052987	168.007258
31050	9.466599	0.053664	-2.690051	-0.017197	-0.015702	0.028817	1.000000	-0.000003	0.000027	0.000044	178.462521	-74.056934	167.989527
31051	9.467568	0.094195	-2.680749	-0.015934	0.026544	0.027494	1.000000	-0.000018	0.000032	0.000049	178.480010	-74.060711	167.969251
31052	9.465633	0.069899	-2.705553	0.002915	-0.002138	0.032266	1.000000	0.000005	0.000017	0.000045	178.497861	-74.063724	167.951270
31053	9.484007	0.080786	-2.693864	-0.009789	0.012805	0.046803	1.000000	-0.000013	0.000027	0.000040	178.512201	-74.066974	167.934763
31054	9.469212	0.074052	-2.662953	-0.035606	0.012800	0.024047	1.000000	-0.000012	0.000013	0.000028	178.520950	-74.069474	167.924134
31055	9.502482	0.091238	-2.681829	-0.022344	0.027681	0.061341	1.000000	-0.000003	0.000027	0.000044	178.538156	-74.072731	167.905943
31056	9.466149	0.067252	-2.703813	0.003284	-0.002325	0.032265	1.000000	-0.000009	0.000031	0.000028	178.546538	-74.077740	167.895968
31057	9.466302	0.066561	-2.703294	0.003284	-0.002325	0.032265	1.000000	-0.000017	0.000024	0.000053	178.565407	-74.080619	167.874287
31058	9.452302	0.100988	-2.663726	-0.021219	0.039877	0.008188	1.000000	-0.000009	0.000007	0.000037	178.577918	-74.082842	167.860129
31059	9.500889	0.064832	-2.705474	-0.003217	-0.001174	0.066112	1.000000	0.000009	0.000019	0.000051	178.599340	-74.085213	167.838878
31060	9.468698	0.087625	-2.676976	-0.014989	0.026036	0.027497	1.000000	-0.000017	0.000033	0.000031	178.607131	-74.090577	167.828549
31061	9.465526	0.081608	-2.718239	0.023682	0.011029	0.035712	1.000000	-0.000009	0.000023	0.000031	178.618348	-74.093293	167.815783
31062	9.487224	0.098054	-2.664767	-0.027483	0.040771	0.042038	1.000000	-0.000002	0.000019	0.000047	178.633566	-74.097096	167.799393
31063	9.467858	0.103546	-2.692141	0.005186	0.039449	0.030945	1.000000	-0.000006	0.000025	0.000038	178.647815	-74.100078	167.783876
31064	9.485449	0.073036	-2.689003	-0.008554	0.011812	0.046805	1.000000	-0.000007	0.000039	0.000050	178.661053	-74.106416	167.768867
31065	9.483127	0.108140	-2.721527	0.031379	0.039051	0.053699	1.000000	-0.000009	0.000015	0.000034	178.673621	-74.108242	167.754726
31066	9.469554	0.083344	-2.674085	-0.014388	0.025098	0.027500	1.000000	-0.000002	0.000027	0.000044	178.683358	-74.112931	167.743783
31067	9.489139	0.076318	-2.645956	-0.047058	0.026420	0.038595	1.000000	-0.000009	0.000007	0.000037	178.697255	-74.113866	167.728290
31068	9.484675	0.088154	-2.703984	0.011887	0.024586	0.050254	1.000000	-0.000009	0.000023	0.000031	178.700652	-74.118877	167.723005
31069	9.469880	0.081389	-2.672990	-0.014082	0.024653	0.027502	1.000000	-0.000013	0.000027	0.000040	178.715097	-74.122113	167.706395
31070	9.453866	0.092482	-2.658478	-0.019869	0.037805	0.008199	1.000000	-0.000013	0.000027	0.000040	178.719374	-74.127223	167.699894
31071	9.483888	0.104165	-2.719027	0.032070	0.037668	0.053702	1.000000	-0.000009	0.000023	0.000031	178.730625	-74.129926	167.687101
31072	9.488546	0.091009	-2.660306	-0.026346	0.038471	0.042050	1.000000	-0.000002	0.000019	0.000047	178.738105	-74.134270	167.678132
31073	9.485335	0.084775	-2.701774	0.012325	0.023461	0.050256	1.000000	-0.000009	0.000015	0.000034	178.750694	-74.136085	167.663975
31074	9.486675	0.066127	-2.684852	-0.007360	0.009199	0.046809	1.000000	-0.000002	0.000027	0.000044	178.755957	-74.141733	167.657172
31075	9.485619	0.083475	-2.700818	0.012609	0.022817	0.050257	1.000000	-0.000020	0.000031	0.000024	178.763042	-74.145333	167.647394
31076	9.487825	0.106258	-2.675156	-0.005817	0.050782	0.045505	1.000000	0.000005	0.000009	0.000048	178.770351	-74.148958	167.639617
31077	9.452626	0.064248	-2.680888	-0.000379	0.007287	0.012962	1.000000	-0.000006	0.000025	0.000038	178.784662	-74.151952	167.624059
31078	9.500921	0.087446	-2.730170	0.038988	0.021378	0.073009	1.000000	-0.000021	0.000022	0.000046	178.786678	-74.156099	167.618443
31079	9.454981	0.086231	-2.654720	-0.018960	0.035219	0.008211	1.000000	-0.000006	0.000025	0.000038	178.800995	-74.159080	167.602876
31080	9.486236	0.079901	-2.698760	0.013130	0.020677	0.050261	1.000000	0.000002	0.000023	0.000035	178.799560	-74.163392	167.603901
31081	9.469281	0.049596	-2.693207	0.005864	-0.007879	0.032261	1.000000	-0.000013	0.000012	0.000046	178.816679	-74.164842	167.584591
31082	9.486460	0.078331	-2.698019	0.013061	0.019898	0.050263	1.000000	-0.000017	0.000032	0.000049	178.817873	-74.169131	167.580974
31083	9.471617	0.071545	-2.667110	-0.012916	0.019972	0.027514	1.000000	-0.000005	0.000011	0.000025	178.827221	-74.170408	167.570713
31084	9.485463	0.095096	-2.713863	0.033136	0.032843	0.053716	1.000000	-0.000016	0.000017	0.000037	178.826625	-74.173960	167.568168
31085	9.507432	0.052251	-2.652612	-0.039468	0.006918	0.057913	1.000000	-0.000006	0.000025	0.000038	178.840898	-74.176911	167.552674
31086	9.470760	0.087696	-2.682478	0.007446	0.032221	0.030970	1.000000	-0.000017	0.000025	0.000034	178.839176	-74.182396	167.551854
31087	9.470874	0.087122	-2.682094	0.007447	0.032217	0.030970	1.000000	-0.000009	0.000015	0.000034	178.851742	-74.184221	167.537771
31088	9.485938	0.092590	-2.712287	0.033501	0.031410	0.053720	1.000000	-0.000006	0.000017	0.000041	178.852697	-74.187659	167.535168
31089	9.471082	0.085744	-2.681405	0.007529	0.031487	0.030972	1.000000	0.000002	0.000023	0.000035	178.866813	-74.190381	167.520747
31090	9.451830	0.091374	-2.708557	0.040403	0.029415	0.019872	1.000000	-0.000018	0.000047	0.000043	178.867006	-74.198064	167.517786
31091	9.470267	0.102391	-2.696659	0.027710	0.044337	0.034428	1.000000	-0.000020	0.000015	0.000030	178.876708	-74.199912	167.505403
31092	9.490960	0.077486	-2.652111	-0.025165	0.031172	0.042079	1.000000	0.000002	0.000007	0.000041	178.874546	-74.200530	167.507667
31093	9.471589	0.083121	-2.679697	0.007504	0.029856	0.030977	1.000000	-0.000016	0.000017	0.000037	178.887253	-74.202617	167.492573
31094	9.487859	0.070630	-2.693307	0.013580	0.015265	0.050271	1.000000	-0.000021	0.000022	0.000046	178.885103	-74.206722	167.492834
31095	9.486809	0.087923	-2.709395	0.033551	0.028874	0.053727	1.000000	-0.000009	0.000023	0.000031	178.896287	-74.209456	167.480216
31096	9.469815	0.057817	-2.703871	0.025960	-0.000409	0.035713	1.000000	0.000006	0.000011	0.000029	178.891701	-74.209815	167.483668
31097	9.470828	0.098333	-2.694841	0.027218	0.041830	0.034440	1.000000	-0.000006	0.000016	0.000060	178.914831	-74.211782	167.458994
31098	9.472132	0.079533	-2.677886	0.006810	0.027490	0.030984	1.000000	0.000001	0.000031	0.000032	178.910606	-74.213739	167.461909
31099	9.471092	0.096938	-2.693962	0.026771	0.041099	0.034445	1.000000	-0.000020	0.000015	0.000030	178.920242	-74.215523	167.449609
31100	9.486225	0.102521	-2.723975	0.052753	0.040335	0.057197	1.000000	-0.000014	0.000035	0.000037	178.919577	-74.220556	167.446427
31101	9.471370	0.095779	-2.693027	0.026781	0.040420	0.034447	1.000000	-0.000001	0.000013	0.000032	178.931967	-74.222113	167.433442
31102	9.487593	0.083335	-2.706792	0.031985	0.025863	0.053741	1.000000	-0.000016	0.000009	0.000040	178.924699	-74.219753	167.438605
31103	9.471552	0.094577	-2.692429	0.025970	0.039567	0.034453	1.000000	-0.000009	0.000031	0.000028	178.934575	-74.223283	167.427285
31104	9.472839	0.076090	-2.675482	0.005786	0.025136	0.030991	1.000000	-0.000009	0.000015	0.000034	178.929255	-74.224895	167.431185
31105	9.471781	0.093430	-2.691662	0.025742	0.038746	0.034457	1.000000	-0.000024	0.000019	0.000039	178.942109	-74.227165	167.415046
31106	9.473974	0.116064	-2.666113	0.006710	0.066634	0.029738	1.000000	0.000013	0.000007	0.000045	178.944853	-74.227186	167.412109
31107	9.489268	0.062149	-2.688547	0.011446	0.010665	0.050279	1.000000	-0.000024	0.000027	0.000036	178.956409	-74.230346	167.397286
31108	9.488234	0.079341	-2.704665	0.031197	0.023427	0.053749	1.000000	-0.000010	0.000014	0.000053	178.957841	-74.231910	167.394541
31109	9.472165	0.090386	-2.690413	0.025185	0.037133	0.034464	1.000000	-0.000009	0.000015	0.000034	178.970346	-74.233677	167.380561
31110	9.472301	0.089842	-2.689956	0.024443	0.036276	0.034470	1.000000	-0.000017	0.000033	0.000031	178.959155	-74.234360	167.390519
31111	9.470358	0.065779	-2.714661	0.043136	0.007635	0.039189	1.000000	-0.000010	0.000029	0.000047	178.976573	-74.237747	167.371325
31112	9.488761	0.076634	-2.702893	0.029564	0.021729	0.053758	1.000000	-0.000016	0.000017	0.000037	178.968220	-74.235890	167.377801
31113	9.490985	0.099421	-2.677241	0.010829	0.050351	0.049039	1.000000	-0.000024	0.000019	0.000039	178.980972	-74.238070	167.361789
31114	9.456727	0.098906	-2.674032	0.017041	0.048430	0.015196	1.000000	-0.000007	0.000039	0.000050	178.982877	-74.240779	167.357728
31115	9.474156	0.068444	-2.671023	0.003051	0.021084	0.031002	1.000000	-0.000005	0.000011	0.000025	178.992067	-74.241921	167.347686
31116	9.473075	0.085844	-2.687358	0.022862	0.033862	0.034482	1.000000	-0.000009	0.000007	0.000037	178.987813	-74.243067	167.351911
31117	9.473189	0.085270	-2.686975	0.022838	0.033851	0.034482	1.000000	-0.000017	0.000033	0.000031	178.997733	-74.246782	167.339706
31118	9.488359	0.090706	-2.716956	0.048759	0.032955	0.057245	1.000000	-0.000002	0.000019	0.000047	178.999813	-74.249910	167.337102
31119	9.492810	0.077425	-2.658409	-0.009895	0.034338	0.045573	1.000000	-0.000001	0.000005	0.000035	179.013326	-74.250474	167.323046
31120	9.473523	0.083241	-2.685862	0.022465	0.032243	0.034488	1.000000	-0.000024	0.000035	0.000033	179.005482	-74.253826	167.328771
31121	9.454258	0.088846	-2.713257	0.055120	0.030939	0.023402	1.000000	0.000009	0.000011	0.000054	179.028138	-74.255169	167.306439
31122	9.475934	0.104952	-2.659601	0.003132	0.060186	0.029781	1.000000	-0.000003	0.000043	0.000038	179.026109	-74.257568	167.306312
31123	9.492225	0.092432	-2.673094	0.009110	0.046447	0.049060	1.000000	-0.000009	0.000007	0.000037	179.039783	-74.258373	167.291202
31124	9.474015	0.080313	-2.684214	0.021606	0.030572	0.034496	1.000000	-0.000020	0.000015	0.000030	179.028266	-74.260215	167.304479
31125	9.472993	0.097666	-2.700409	0.041547	0.044173	0.037981	1.000000	-0.000006	0.000017	0.000041	179.043600	-74.262187	167.288073
31126	9.474194	0.079111	-2.683618	0.021050	0.029546	0.034500	1.000000	-0.000012	0.000013	0.000028	179.029555	-74.261978	167.305855
31127	9.474295	0.078546	-2.683277	0.021029	0.029523	0.034500	1.000000	0.000002	0.000023	0.000035	179.043287	-74.264574	167.292031
31128	9.474444	0.078035	-2.682767	0.020195	0.028568	0.034505	1.000000	-0.000020	0.000031	0.000024	179.026469	-74.264622	167.311386
31129	9.489616	0.083429	-2.712794	0.046123	0.028436	0.057271	1.000000	-0.000006	0.000016	0.000060	179.049199	-74.266424	167.287320
31130	9.439164	0.094852	-2.695799	0.046703	0.040122	0.004153	1.000000	-0.000005	0.000026	0.000019	179.036987	-74.269873	167.302853
31131	9.491003	0.064170	-2.695337	0.026004	0.013903	0.053782	1.000000	-0.000017	0.000032	0.000049	179.054155	-74.273484	167.283261
31132	9.473887	0.093250	-2.697428	0.039108	0.040542	0.038006	1.000000	-0.000009	0.000015	0.000034	179.047885	-74.271336	167.288513
31133	9.478310	0.080115	-2.638806	-0.019555	0.041887	0.026314	1.000000	-0.000016	0.000017	0.000037	179.060041	-74.273247	167.274242
31134	9.454719	0.098492	-2.724583	0.071815	0.038500	0.026933	1.000000	-0.000009	0.000023	0.000031	179.056177	-74.277293	167.278079
31135	9.474237	0.091457	-2.696259	0.039114	0.039735	0.038010	1.000000	-0.000013	0.000027	0.000040	179.070080	-74.280397	167.262393
31136	9.508769	0.090468	-2.698525	0.031419	0.040066	0.071862	1.000000	-0.000016	0.000009	0.000040	179.062353	-74.277087	167.270916
31137	9.459415	0.083947	-2.665021	0.012160	0.038982	0.015245	1.000000	-0.000003	0.000035	0.000041	179.077749	-74.281037	167.254969
31138	9.490715	0.077537	-2.709120	0.044021	0.024624	0.057291	1.000000	-0.000019	-0.000001	0.000036	179.079153	-74.281217	167.247904
31139	9.474658	0.088787	-2.694869	0.037996	0.038327	0.038020	1.000000	0.000001	0.000031	0.000032	179.091390	-74.284685	167.235705
31140	9.474799	0.088103	-2.694394	0.037151	0.037516	0.038026	1.000000	-0.000013	0.000019	0.000043	179.086305	-74.283220	167.241962
31141	9.474884	0.087394	-2.694118	0.037118	0.037482	0.038026	1.000000	-0.000016	0.000009	0.000040	179.099706	-74.284237	167.226462
31142	9.474999	0.086753	-2.693736	0.036111	0.036637	0.038033	1.000000	0.000002	0.000031	0.000032	179.090124	-74.283159	167.238994
31143	9.476239	0.068135	-2.676688	0.016120	0.022971	0.034527	1.000000	-0.000013	0.000027	0.000040	179.103859	-74.286169	167.223531
31144	9.459165	0.097333	-2.678727	0.028849	0.049548	0.018771	1.000000	-0.000017	0.000025	0.000034	179.093008	-74.283126	167.235186
31145	9.492640	0.055084	-2.689768	0.020840	0.008401	0.053801	1.000000	-0.000009	0.000015	0.000034	179.104724	-74.284670	167.222353
31146	9.459392	0.095942	-2.677977	0.028194	0.048776	0.018776	1.000000	-0.000006	0.000024	0.000057	179.108572	-74.284996	167.217717
31147	9.459483	0.095095	-2.677683	0.028138	0.048735	0.018777	1.000000	-0.000009	0.000007	0.000037	179.121543	-74.285633	167.203626
31148	9.475766	0.082621	-2.691166	0.032124	0.034251	0.038056	1.000000	-0.000014	0.000043	0.000034	179.108363	-74.280060	167.217461
31149	9.475961	0.081987	-2.690499	0.032047	0.034209	0.038056	1.000000	-0.000013	0.000027	0.000040	179.121833	-74.282866	167.202316
31150	9.459946	0.093130	-2.676119	0.024397	0.046970	0.018795	1.000000	-0.000006	0.000017	0.000041	179.108998	-74.276708	167.221615
31151	9.476228	0.080586	-2.689601	0.030293	0.033181	0.038065	1.000000	-0.000006	0.000033	0.000035	179.120793	-74.280057	167.209131
31152	9.494669	0.091582	-2.677705	0.015763	0.047435	0.052643	1.000000	-0.000020	0.000023	0.000027	179.107822	-74.273317	167.218324
31153	9.476503	0.079424	-2.688667	0.028396	0.032514	0.038073	1.000000	-0.000002	0.000019	0.000047	179.125223	-74.275030	167.200453
31154	9.457239	0.085112	-2.716276	0.060299	0.030567	0.027038	1.000000	-0.000009	0.000007	0.000037	179.120677	-74.272349	167.204951
31155	9.460519	0.089678	-2.674208	0.021503	0.045503	0.018809	1.000000	0.000009	0.000019	0.000051	179.140907	-74.274034	167.185451
31156	9.496150	0.070589	-2.659784	-0.005389	0.032157	0.049120	1.000000	-0.000024	0.000035	0.000033	179.132957	-74.278181	167.195486
31157	9.475916	0.094396	-2.703622	0.047127	0.044509	0.041614	1.000000	-0.000013	0.000019	0.000043	179.147357	-74.279892	167.179499
31158	9.460950	0.087645	-2.672750	0.020938	0.043727	0.018818	1.000000	-0.000017	0.000025	0.000034	179.138977	-74.282545	167.192916
31159	9.477203	0.075135	-2.686322	0.026813	0.029925	0.038086	1.000000	0.000002	0.000015	0.000038	179.152943	-74.283765	167.179214
31160	9.495605	0.085991	-2.674569	0.012979	0.044234	0.052661	1.000000	-0.000017	0.000025	0.000034	179.147797	-74.281256	167.181457
31161	9.458132	0.080346	-2.713310	0.058308	0.028087	0.027057	1.000000	-0.000013	0.000027	0.000040	179.160789	-74.283831	167.166950
31162	9.477589	0.073264	-2.685010	0.024454	0.028540	0.038096	1.000000	0.000006	0.000019	0.000026	179.150073	-74.280381	167.182376
31163	9.442232	0.090977	-2.698566	0.051034	0.041009	0.007801	1.000000	-0.000013	0.000019	0.000043	179.164278	-74.282015	167.166655
31164	9.493986	0.060059	-2.698083	0.029938	0.013693	0.057365	1.000000	-0.000013	0.000035	0.000037	179.153945	-74.285375	167.186967
31165	9.460846	0.101121	-2.686103	0.037766	0.054774	0.022380	1.000000	-0.000006	0.000025	0.000038	179.166537	-74.287660	167.173864
31166	9.477110	0.088529	-2.699631	0.042805	0.040111	0.041653	1.000000	-0.000013	0.000019	0.000043	179.158720	-74.285765	167.186227
31167	9.459979	0.058347	-2.694076	0.035509	0.011538	0.023534	1.000000	-0.000013	0.000027	0.000040	179.171359	-74.288275	167.172236
31168	9.479521	0.110634	-2.673443	0.023387	0.067945	0.036968	1.000000	0.000002	0.000016	0.000019	179.162135	-74.288150	167.187275
31169	9.478504	0.068655	-2.681901	0.022083	0.025620	0.038109	1.000000	-0.000017	0.000024	0.000053	179.179291	-74.290279	167.168145
31170	9.477605	0.085801	-2.697981	0.040332	0.038588	0.041669	1.000000	-0.000013	0.000019	0.000043	179.172937	-74.283867	167.173778
31171	9.462580	0.078860	-2.667250	0.014271	0.038617	0.018852	1.000000	-0.000002	0.000011	0.000050	179.190941	-74.284507	167.155582
31172	9.478839	0.066193	-2.680777	0.019215	0.023925	0.038120	1.000000	-0.000006	0.000033	0.000035	179.179370	-74.283640	167.176521
31173	9.461850	0.095464	-2.682770	0.032994	0.051257	0.022416	1.000000	-0.000017	0.000025	0.000034	179.188673	-74.285780	167.165675
31174	9.465136	0.100274	-2.640565	-0.005933	0.065419	0.014170	1.000000	-0.000009	0.000015	0.000034	179.183910	-74.287258	167.173300
31175	9.499658	0.099192	-2.642816	-0.012883	0.066428	0.048005	1.000000	-0.000006	0.000017	0.000041	179.197351	-74.288522	167.159510
31176	9.494467	0.069764	-2.709496	0.044427	0.022338	0.060948	1.000000	-0.000006	0.000033	0.000035	179.198411	-74.292237	167.156323
31177	9.463319	0.074852	-2.664739	0.012382	0.036111	0.018864	1.000000	0.000002	0.000007	0.000041	179.212995	-74.292371	167.142261
31178	9.480722	0.103479	-2.669470	0.019287	0.063975	0.037003	1.000000	-0.000017	0.000032	0.000050	179.216537	-74.295600	167.139317
31179	9.497969	0.072860	-2.666555	0.005205	0.036478	0.052700	1.000000	-0.000009	0.000007	0.000037	179.228219	-74.295752	167.126987
31180	9.446486	0.102623	-2.666281	0.025174	0.062162	0.003176	1.000000	-0.000013	0.000021	0.000025	179.219366	-74.294687	167.137030
31181	9.478878	0.078369	-2.693731	0.036993	0.034565	0.041697	1.000000	-0.000017	0.000025	0.000034	179.228577	-74.296858	167.126343
31182	9.479013	0.077824	-2.693274	0.036367	0.033496	0.041703	1.000000	-0.000009	0.000023	0.000031	179.214426	-74.297414	167.151897
31183	9.478159	0.095186	-2.709285	0.056126	0.047072	0.045274	1.000000	-0.000013	0.000027	0.000040	179.226567	-74.299834	167.138638
31184	9.479339	0.076467	-2.692165	0.034417	0.032889	0.041713	1.000000	-0.000018	0.000039	0.000046	179.223813	-74.294813	167.135094
31185	9.464357	0.069793	-2.661188	0.008349	0.032895	0.018879	1.000000	-0.000005	0.000019	0.000022	179.229394	-74.296127	167.129615
31186	9.462454	0.105231	-2.693914	0.048105	0.059108	0.026036	1.000000	-0.000009	0.000007	0.000037	179.219460	-74.298178	167.150995
31187	9.479651	0.074650	-2.691115	0.034015	0.031583	0.041718	1.000000	-0.000013	0.000019	0.000043	179.232712	-74.299648	167.136672
31188	9.464601	0.067713	-2.660376	0.008130	0.030980	0.018886	1.000000	-0.000009	0.000014	0.000053	179.238622	-74.302310	167.132333
31189	9.479852	0.073050	-2.690453	0.033866	0.030791	0.041721	1.000000	-0.000009	0.000023	0.000031	179.247302	-74.304194	167.123249
31190	9.463850	0.084407	-2.676079	0.027584	0.043823	0.022469	1.000000	-0.000009	0.000023	0.000031	179.242030	-74.306180	167.131869
31191	9.482264	0.095215	-2.664295	0.014622	0.058545	0.037045	1.000000	-0.000006	0.000017	0.000041	179.255047	-74.307435	167.118731
31192	9.480214	0.071262	-2.689225	0.032693	0.028963	0.041731	1.000000	0.000006	0.000026	0.000023	179.240303	-74.307742	167.147264
31193	9.482506	0.093828	-2.663484	0.013732	0.057437	0.037053	1.000000	-0.000006	0.000016	0.000060	179.260831	-74.308855	167.126313
31194	9.463351	0.099652	-2.690973	0.046274	0.055126	0.026068	1.000000	-0.000005	0.000026	0.000019	179.242069	-74.312600	167.159685
31195	9.498902	0.080764	-2.676508	0.019397	0.042378	0.056314	1.000000	-0.000024	0.000027	0.000036	179.250809	-74.315024	167.148922
31196	9.444377	0.105022	-2.717868	0.076213	0.052956	0.015104	1.000000	-0.000017	0.000024	0.000053	179.237746	-74.304101	167.164852
31197	9.479894	0.085819	-2.703522	0.049307	0.040198	0.045341	1.000000	-0.000016	0.000017	0.000037	179.247413	-74.305250	167.154075
31198	9.498297	0.096580	-2.691783	0.035847	0.053946	0.059925	1.000000	-0.000006	0.000017	0.000041	179.237875	-74.305080	167.171882
31199	9.463019	0.114462	-2.705358	0.062384	0.066475	0.029695	1.000000	-0.000020	0.000023	0.000027	179.243030	-74.306865	167.165434
31200	9.481187	0.066003	-2.685927	0.027689	0.024638	0.041758	1.000000	-0.000013	0.000019	0.000043	179.240219	-74.304914	167.169017
31201	9.480327	0.083314	-2.702080	0.047390	0.038204	0.045359	1.000000	-0.000009	0.000015	0.000034	179.249516	-74.305778	167.159595
31202	9.465297	0.076619	-2.671190	0.019101	0.037628	0.022514	1.000000	-0.000013	0.000035	0.000037	179.237691	-74.296925	167.173225
31203	9.498948	0.093530	-2.689593	0.031936	0.052228	0.059948	1.000000	-0.000024	0.000027	0.000036	179.245936	-74.299084	167.163093
31204	9.479839	0.099468	-2.716991	0.065432	0.050056	0.048981	1.000000	-0.000006	0.000025	0.000038	179.241504	-74.307964	167.182567
31205	9.463558	0.051347	-2.695031	0.038302	0.007734	0.027193	1.000000	-0.000013	0.000019	0.000043	179.253883	-74.309306	167.169526
31206	9.464929	0.091880	-2.685696	0.038864	0.049394	0.026131	1.000000	-0.000010	0.000029	0.000047	179.256698	-74.310765	167.174022
31207	9.481208	0.079273	-2.699110	0.044662	0.035495	0.045382	1.000000	-0.000017	0.000025	0.000034	179.264694	-74.312749	167.165115
31208	9.465223	0.090639	-2.684702	0.037135	0.048654	0.026141	1.000000	-0.000017	0.000025	0.000034	179.256236	-74.307693	167.169602
31209	9.483636	0.101378	-2.672929	0.024085	0.063309	0.040718	1.000000	-0.000013	0.000012	0.000046	179.269841	-74.308084	167.155316
31210	9.481606	0.077282	-2.697768	0.042188	0.033888	0.045398	1.000000	-0.000003	0.000043	0.000038	179.263148	-74.310039	167.169335
31211	9.447335	0.077197	-2.694715	0.048832	0.032739	0.011575	1.000000	-0.000020	0.000015	0.000030	179.269219	-74.310810	167.162086
31212	9.480912	0.093981	-2.713440	0.060420	0.046412	0.049030	1.000000	-0.000002	0.000011	0.000050	179.260339	-74.305451	167.183088
31213	9.468006	0.110497	-2.657354	0.015489	0.074881	0.021489	1.000000	-0.000009	0.000023	0.000031	179.267850	-74.307066	167.175670
31214	9.482078	0.074699	-2.696182	0.039961	0.031884	0.045414	1.000000	-0.000017	0.000025	0.000034	179.263554	-74.308808	167.181496
31215	9.465174	0.103993	-2.698232	0.053621	0.059226	0.029793	1.000000	-0.000013	0.000027	0.000040	179.274293	-74.310937	167.170253
31216	9.497569	0.079392	-2.725592	0.066176	0.030492	0.068287	1.000000	0.000005	0.000025	0.000042	179.269020	-74.318766	167.198353
31217	9.465472	0.102481	-2.697246	0.053968	0.057886	0.029799	1.000000	-0.000013	0.000027	0.000040	179.279671	-74.320962	167.187280
31218	9.484803	0.095216	-2.669011	0.018496	0.058000	0.040762	1.000000	-0.000009	0.000007	0.000037	179.260981	-74.307432	167.213894
31219	9.463450	0.077782	-2.722067	0.069864	0.028271	0.034490	1.000000	0.000002	0.000015	0.000038	179.272397	-74.308111	167.203858
31220	9.485900	0.075880	-2.651946	-0.002718	0.043266	0.037134	1.000000	-0.000017	0.000025	0.000034	179.260779	-74.305763	167.221159
31221	9.482953	0.069959	-2.693229	0.035777	0.028303	0.045441	1.000000	-0.000006	0.000033	0.000035	179.269682	-74.308454	167.212834
31222	9.465168	0.117223	-2.711704	0.068443	0.068843	0.033483	1.000000	-0.000006	0.000025	0.000038	179.264597	-74.306309	167.221796
31223	9.482335	0.086576	-2.708711	0.054344	0.041180	0.049089	1.000000	-0.000021	0.000022	0.000046	179.276403	-74.307701	167.208729
31224	9.467249	0.079859	-2.677893	0.028439	0.040859	0.026205	1.000000	-0.000009	0.000023	0.000031	179.280087	-74.310551	167.202432
31225	9.483488	0.067214	-2.691416	0.034201	0.026927	0.045451	1.000000	-0.000002	0.000019	0.000047	179.294662	-74.311701	167.188655
31226	9.482707	0.084247	-2.707482	0.053583	0.039992	0.049098	1.000000	-0.000006	0.000024	0.000057	179.300608	-74.312678	167.184606
31227	9.467642	0.077490	-2.676572	0.027498	0.039877	0.026212	1.000000	-0.000020	0.000031	0.000024	179.303506	-74.315121	167.180835
31228	9.500897	0.034908	-2.687542	0.017696	-0.001737	0.061057	1.000000	0.000009	0.000011	0.000055	179.310606	-74.305851	167.168360
31229	9.466051	0.111861	-2.708847	0.065026	0.066858	0.033520	1.000000	-0.000006	0.000017	0.000041	179.322053	-74.306678	167.157416
31230	9.467056	0.093225	-2.692017	0.044649	0.052040	0.029878	1.000000	-0.000002	0.000021	0.000029	179.307871	-74.307588	167.181937
31231	9.468077	0.074619	-2.675114	0.024551	0.038142	0.026227	1.000000	-0.000006	0.000025	0.000038	179.317904	-74.309313	167.172502
31232	9.467318	0.091828	-2.691145	0.043998	0.051502	0.029884	1.000000	-0.000010	0.000021	0.000050	179.327280	-74.310043	167.161221
31233	9.483540	0.079139	-2.704716	0.049744	0.037562	0.049128	1.000000	-0.000009	0.000015	0.000034	179.335564	-74.310629	167.153205
31234	9.447025	0.055805	-2.727210	0.036649	-0.038976	0.020126	1.000000	-0.000024	0.000027	0.000036	178.174662	-74.149502	168.259046
31235	9.486845	0.083270	-2.662147	-0.028514	0.004658	0.040908	1.000000	-0.000009	0.000007	0.000037	178.174501	-74.147847	168.259277
31236	9.449426	0.078021	-2.701176	0.016671	-0.011522	0.015521	1.000000	-0.000013	0.000029	0.000021	178.167657	-74.148730	168.263934
31237	9.484009	0.077008	-2.703132	0.009062	-0.011275	0.049314	1.000000	-0.000017	0.000025	0.000034	178.164956	-74.149108	168.265876
31238	9.486338	0.099673	-2.677340	-0.010356	0.016726	0.044711	1.000000	-0.000013	0.000019	0.000043	178.166877	-74.148969	168.261756
31239	9.466798	0.046304	-2.697346	0.001050	-0.040771	0.030910	1.000000	-0.000016	0.000017	0.000037	178.165522	-74.148462	168.262318
31240	9.483443	0.093042	-2.718573	0.027198	0.000789	0.053124	1.000000	-0.000016	0.000009	0.000040	178.165710	-74.147106	168.259837
31241	9.467017	0.045047	-2.696598	-0.000088	-0.041875	0.030906	1.000000	-0.000013	0.000043	0.000034	178.163350	-74.149519	168.261790
31242	9.485508	0.055748	-2.684551	-0.013658	-0.027764	0.045498	1.000000	-0.000013	0.000019	0.000043	178.164791	-74.149020	168.266880
31243	9.469531	0.067011	-2.670163	-0.020142	-0.014442	0.026300	1.000000	0.000002	0.000031	0.000032	178.163476	-74.150024	168.269547
31244	9.484012	0.090504	-2.716671	0.024908	-0.001423	0.053130	1.000000	-0.000012	0.000005	0.000031	178.160753	-74.148415	168.271299
31245	9.488028	0.077167	-2.658111	-0.034193	-0.000879	0.040891	1.000000	-0.000020	0.000022	0.000046	178.162580	-74.148434	168.268065
31246	9.487277	0.094528	-2.674196	-0.014940	0.012320	0.044711	1.000000	0.000006	0.000018	0.000026	178.160106	-74.147991	168.271288
31247	9.466008	0.077329	-2.727085	0.036147	-0.017720	0.038539	1.000000	-0.000017	0.000025	0.000034	178.157407	-74.148368	168.273229
31248	9.487518	0.093342	-2.673381	-0.016064	0.011233	0.044711	1.000000	-0.000006	0.000017	0.000041	178.159594	-74.147975	168.267694
31249	9.486816	0.110831	-2.689315	0.003186	0.024400	0.048539	1.000000	-0.000020	0.000039	0.000021	178.151172	-74.149858	168.275144
31250	9.469479	0.080861	-2.683883	-0.004238	-0.004527	0.030115	1.000000	0.000013	0.000007	0.000045	178.157073	-74.148249	168.273920
31251	9.487920	0.091431	-2.672020	-0.017781	0.009574	0.044710	1.000000	-0.000013	0.000035	0.000037	178.156060	-74.149775	168.274492
31252	9.485005	0.085441	-2.713366	0.020372	-0.005795	0.053139	1.000000	-0.000006	0.000017	0.000041	178.157820	-74.149431	168.274726
31253	9.469014	0.096684	-2.699057	0.013892	0.007537	0.033949	1.000000	-0.000006	0.000025	0.000038	178.158004	-74.149810	168.274965
31254	9.469129	0.096042	-2.698678	0.013357	0.007006	0.033950	1.000000	-0.000009	0.000015	0.000034	178.157198	-74.149227	168.269996
31255	9.488412	0.088737	-2.670365	-0.020013	0.007378	0.044707	1.000000	-0.000006	0.000025	0.000038	178.157382	-74.149606	168.270235
31256	9.472392	0.099915	-2.656162	-0.026450	0.020728	0.025517	1.000000	-0.000020	0.000006	0.000052	178.162373	-74.148053	168.259731
31257	9.487762	0.105531	-2.686190	-0.001303	0.020005	0.048549	1.000000	-0.000012	0.000030	0.000003	178.147592	-74.148884	168.274769
31258	9.488718	0.087055	-2.669334	-0.021689	0.005729	0.044705	1.000000	-0.000002	0.000011	0.000050	178.153674	-74.147810	168.269730
31259	9.486591	0.062902	-2.694422	-0.003388	-0.023371	0.049296	1.000000	-0.000013	0.000019	0.000043	178.155353	-74.147565	168.267542
31260	9.488939	0.085480	-2.668599	-0.022793	0.004613	0.044703	1.000000	-0.000013	0.000027	0.000040	178.155846	-74.148471	168.265958
31261	9.454675	0.085444	-2.665578	-0.016285	0.003306	0.010918	1.000000	-0.000013	0.000035	0.000037	178.154836	-74.149997	168.266529
31262	9.488441	0.102167	-2.683921	-0.004084	0.017238	0.048553	1.000000	0.000002	0.000023	0.000035	178.155287	-74.150333	168.265627
31263	9.489389	0.083373	-2.667062	-0.024477	0.002953	0.044700	1.000000	-0.000002	0.000019	0.000047	178.159850	-74.150089	168.261736
31264	9.470355	0.089337	-2.694603	0.007811	0.001478	0.033958	1.000000	-0.000009	0.000023	0.000031	178.157187	-74.150561	168.261884
31265	9.471311	0.070603	-2.677701	-0.012580	-0.012806	0.030100	1.000000	-0.000017	0.000024	0.000053	178.162050	-74.150842	168.255900
31266	9.472746	0.111082	-2.668675	-0.012206	0.028913	0.029370	1.000000	0.000007	-0.000013	0.000038	178.164432	-74.146956	168.255843
31267	9.470569	0.087126	-2.693922	0.006100	-0.000183	0.033959	1.000000	-0.000024	0.000027	0.000036	178.161886	-74.147594	168.256736
31268	9.489040	0.097833	-2.681965	-0.007451	0.013902	0.048557	1.000000	0.000002	0.000023	0.000035	178.162037	-74.147773	168.256480
31269	9.471640	0.067853	-2.676609	-0.014850	-0.015022	0.030094	1.000000	-0.000016	0.000017	0.000037	178.160686	-74.147264	168.257041
31270	9.487034	0.073212	-2.706622	0.010287	-0.015754	0.053144	1.000000	-0.000013	0.000019	0.000043	178.162328	-74.147057	168.257185
31271	9.487118	0.072434	-2.706350	0.009712	-0.016310	0.053144	1.000000	-0.000005	0.000009	0.000044	178.165204	-74.145663	168.254663
31272	9.452765	0.072315	-2.703662	0.016275	-0.017587	0.019363	1.000000	-0.000013	0.000019	0.000043	178.167150	-74.145596	168.252443
31273	9.488149	0.053023	-2.689145	-0.011215	-0.031150	0.049269	1.000000	-0.000009	0.000031	0.000028	178.162964	-74.146594	168.256805
31274	9.486689	0.088290	-2.721546	0.027857	-0.004223	0.057018	1.000000	-0.000006	0.000023	0.000057	178.171229	-74.147006	168.243790
31275	9.472325	0.063448	-2.674291	-0.018226	-0.018335	0.030083	1.000000	-0.000009	0.000023	0.000031	178.168387	-74.147119	168.246774
31276	9.487813	0.068851	-2.704005	0.006860	-0.019054	0.053141	1.000000	-0.000010	0.000045	0.000041	178.169184	-74.149565	168.249065
31277	9.471120	0.098247	-2.705847	0.020206	0.008035	0.037841	1.000000	-0.000009	0.000031	0.000028	178.164999	-74.150564	168.253428
31278	9.472067	0.079583	-2.688886	-0.000135	-0.006256	0.033959	1.000000	0.000013	0.000023	0.000039	178.168102	-74.150910	168.253715
31279	9.472200	0.078834	-2.688437	-0.000709	-0.006812	0.033959	1.000000	-0.000006	0.000025	0.000038	178.168293	-74.151286	168.253949
31280	9.454001	0.066847	-2.699481	0.011726	-0.021976	0.019361	1.000000	0.000002	0.000023	0.000035	178.168623	-74.151397	168.253643
31281	9.487808	0.083458	-2.717794	0.023835	-0.008086	0.057026	1.000000	-0.000002	0.000035	0.000041	178.170506	-74.152922	168.252504
31282	9.472709	0.076823	-2.686704	-0.002415	-0.008451	0.033957	1.000000	-0.000024	0.000043	0.000030	178.165639	-74.155392	168.256144
31283	9.474295	0.117579	-2.677292	-0.002080	0.033264	0.033269	1.000000	-0.000009	0.000007	0.000037	178.165482	-74.153733	168.256372
31284	9.472982	0.075726	-2.685772	-0.003560	-0.009544	0.033956	1.000000	-0.000017	0.000041	0.000028	178.160509	-74.155875	168.258324
31285	9.473136	0.075277	-2.685241	-0.004134	-0.010099	0.033955	1.000000	-0.000020	0.000015	0.000030	178.156124	-74.155101	168.261636
31286	9.476300	0.080095	-2.642861	-0.043414	0.004154	0.025477	1.000000	-0.000017	0.000041	0.000028	178.151018	-74.157177	168.265209
31287	9.472694	0.092356	-2.700539	0.014510	0.002543	0.037854	1.000000	-0.000017	0.000025	0.000034	178.148324	-74.157552	168.267149
31288	9.492678	0.066933	-2.655801	-0.038673	-0.010870	0.044648	1.000000	-0.000005	0.000009	0.000044	178.151439	-74.156193	168.264734
31289	9.456806	0.103029	-2.685944	0.007489	0.015363	0.018680	1.000000	-0.000009	0.000031	0.000028	178.147253	-74.157190	168.269098
31290	9.491447	0.101729	-2.687632	-0.000229	0.015504	0.052455	1.000000	-0.000003	0.000043	0.000038	178.147944	-74.159576	168.271378
31291	9.474009	0.071741	-2.682257	-0.007580	-0.013403	0.033949	1.000000	0.000006	0.000003	0.000032	178.147492	-74.157391	168.273693
31292	9.492450	0.082390	-2.670391	-0.021161	0.000659	0.048547	1.000000	-0.000013	0.000035	0.000037	178.146786	-74.158989	168.272661
31293	9.491825	0.099792	-2.686368	-0.001941	0.013844	0.052457	1.000000	-0.000009	0.000015	0.000034	178.145288	-74.158214	168.274266
31294	9.475811	0.111120	-2.672197	-0.008398	0.027215	0.033285	1.000000	0.000002	0.000015	0.000038	178.146738	-74.157418	168.277724
31295	9.456822	0.117219	-2.699804	0.023847	0.025803	0.022603	1.000000	-0.000009	0.000023	0.000031	178.143897	-74.157529	168.280709
31296	9.492120	0.097737	-2.685402	-0.003695	0.012168	0.052459	1.000000	-0.000002	0.000011	0.000050	178.149550	-74.156289	168.283841
31297	9.458538	0.079758	-2.666250	-0.016906	-0.002809	0.014769	1.000000	-0.000020	0.000023	0.000027	178.143823	-74.156400	168.288532
31298	9.493094	0.078456	-2.668220	-0.024634	-0.002699	0.048538	1.000000	-0.000013	0.000019	0.000043	178.145463	-74.156165	168.288338
31299	9.457240	0.114377	-2.698461	0.021526	0.023579	0.022614	1.000000	-0.000002	0.000011	0.000050	178.151380	-74.155030	168.283058
31300	9.460305	0.118999	-2.656376	-0.017729	0.037798	0.014119	1.000000	-0.000023	0.000013	0.000024	178.144115	-74.154099	168.287505
31301	9.477226	0.088472	-2.653573	-0.032215	0.009562	0.029363	1.000000	-0.000024	0.000012	0.000042	178.144258	-74.152965	168.285640
31302	9.458216	0.094587	-2.681286	0.000057	0.008165	0.018692	1.000000	-0.000009	0.000015	0.000034	178.142818	-74.152306	168.285982
31303	9.458294	0.093883	-2.681034	-0.000517	0.007610	0.018692	1.000000	-0.000013	0.000011	0.000046	178.145848	-74.151171	168.282409
31304	9.458337	0.093049	-2.680912	-0.001085	0.007058	0.018693	1.000000	-0.000005	0.000001	0.000047	178.150157	-74.148914	168.276150
31305	9.476751	0.103547	-2.669165	-0.014702	0.021091	0.033292	1.000000	0.000002	0.000023	0.000035	178.150207	-74.149024	168.277424
31306	9.458541	0.091423	-2.680248	-0.002221	0.005939	0.018693	1.000000	-0.000006	0.000023	0.000057	178.157814	-74.149375	168.271505
31307	9.455624	0.085368	-2.721883	0.035906	-0.009381	0.027200	1.000000	-0.000019	-0.000001	0.000036	178.156115	-74.146829	168.272059
31308	9.474755	0.077873	-2.693758	0.002536	-0.009107	0.037860	1.000000	0.000005	0.000017	0.000045	178.160691	-74.146507	168.263152
31309	9.474812	0.077003	-2.693585	0.001961	-0.009663	0.037860	1.000000	-0.000005	0.000001	0.000047	178.164912	-74.144223	168.259248
31310	9.471861	0.070927	-2.735337	0.040091	-0.024989	0.046371	1.000000	-0.000005	0.000009	0.000044	178.167691	-74.142848	168.258534
31311	9.438216	0.052854	-2.716332	0.026918	-0.039939	0.008660	1.000000	-0.000013	0.000011	0.000046	178.170719	-74.141712	168.254964
31312	9.472008	0.069345	-2.734870	0.038968	-0.026096	0.046372	1.000000	-0.000005	0.000017	0.000041	178.172468	-74.141347	168.250591
31313	9.472889	0.050665	-2.717898	0.018614	-0.040406	0.042423	1.000000	0.000002	0.000038	0.000029	178.169843	-74.143227	168.254615
31314	9.491418	0.061356	-2.705751	0.004970	-0.026381	0.057021	1.000000	-0.000024	0.000027	0.000036	178.167294	-74.143758	168.257478
31315	9.457862	0.043643	-2.686398	-0.008193	-0.041327	0.019302	1.000000	-0.000020	0.000031	0.000024	178.160234	-74.144755	168.263541
31316	9.457253	0.061098	-2.702464	0.010993	-0.028120	0.023255	1.000000	-0.000005	0.000009	0.000044	178.163104	-74.143218	168.267401
31317	9.472729	0.066361	-2.732446	0.036062	-0.028858	0.046376	1.000000	-0.000013	0.000027	0.000040	178.163454	-74.143853	168.266584
31318	9.456093	0.095753	-2.734444	0.049380	-0.001694	0.031174	1.000000	-0.000006	0.000033	0.000035	178.162494	-74.145002	168.271464
31319	9.475318	0.088378	-2.705920	0.015969	-0.001442	0.041814	1.000000	-0.000016	0.000025	0.000034	178.159809	-74.145375	168.273399
31320	9.473932	0.046561	-2.714337	0.014565	-0.044255	0.042413	1.000000	-0.000017	0.000033	0.000031	178.156227	-74.146695	168.271749
31321	9.476386	0.069434	-2.688246	-0.004938	-0.016298	0.037850	1.000000	-0.000020	0.000039	0.000021	178.147827	-74.148576	168.279192
31322	9.478098	0.110072	-2.678730	-0.004651	0.025437	0.037256	1.000000	0.000009	0.000019	0.000052	178.155733	-74.148408	168.269818
31323	9.476685	0.068090	-2.687228	-0.006068	-0.017393	0.037848	1.000000	-0.000020	0.000031	0.000024	178.148672	-74.149403	168.275884
31324	9.494479	0.096913	-2.691623	0.000058	0.010402	0.056418	1.000000	-0.000009	0.000023	0.000031	178.146373	-74.149467	168.273421
31325	9.441832	0.085853	-2.700352	0.019761	-0.005329	0.008058	1.000000	-0.000013	0.000027	0.000040	178.146725	-74.150100	168.272603
31326	9.476432	0.084539	-2.702137	0.011948	-0.005258	0.041819	1.000000	-0.000020	0.000031	0.000024	178.139836	-74.150915	168.280560
31327	9.492692	0.072095	-2.715428	0.017232	-0.019766	0.060978	1.000000	-0.000009	0.000031	0.000028	178.135663	-74.151909	168.284917
31328	9.458412	0.072553	-2.712554	0.023872	-0.020915	0.027219	1.000000	-0.000016	0.000026	0.000015	178.125648	-74.152354	168.297018
31329	9.479201	0.106547	-2.674967	-0.008712	0.021596	0.037263	1.000000	-0.000017	0.000039	0.000047	178.127842	-74.154399	168.293783
31330	9.495453	0.093860	-2.688293	-0.003422	0.007102	0.056421	1.000000	0.000006	0.000018	0.000026	178.125083	-74.154002	168.295554
31331	9.494914	0.111314	-2.704227	0.015768	0.020309	0.060406	1.000000	-0.000013	0.000035	0.000037	178.124093	-74.155521	168.296115
31332	9.463624	0.116808	-2.659347	-0.016270	0.033924	0.018108	1.000000	-0.000009	0.000038	0.000025	178.119078	-74.157441	168.295011
31333	9.479227	0.122353	-2.688979	0.008775	0.033174	0.041254	1.000000	-0.000017	0.000033	0.000031	178.115050	-74.158698	168.298327
31334	9.447923	0.127744	-2.644138	-0.023280	0.046781	-0.001046	1.000000	-0.000010	0.000037	0.000044	178.117254	-74.160425	168.296340
31335	9.495697	0.108945	-2.701574	0.013468	0.018112	0.060413	1.000000	-0.000013	0.000027	0.000040	178.117607	-74.161058	168.295521
31336	9.464326	0.114251	-2.656958	-0.018585	0.031721	0.018111	1.000000	-0.000013	0.000019	0.000043	178.119445	-74.160741	168.291369
31337	9.466686	0.136692	-2.631214	-0.038096	0.059675	0.013559	1.000000	0.000013	0.000015	0.000042	178.123737	-74.159959	168.289543
31338	9.483507	0.105881	-2.628466	-0.052588	0.031389	0.028715	1.000000	-0.000034	0.000004	0.000041	178.122285	-74.157920	168.288351
31339	9.479999	0.117879	-2.686458	0.005299	0.029856	0.041267	1.000000	-0.000021	0.000028	0.000062	178.130351	-74.158718	168.278557
31340	9.483716	0.104179	-2.627782	-0.053739	0.030265	0.028712	1.000000	-0.000024	0.000012	0.000042	178.130358	-74.157596	168.279730
31341	9.463187	0.069008	-2.664473	-0.022282	-0.013341	0.018661	1.000000	-0.000013	0.000019	0.000043	178.132054	-74.157342	168.277530
31342	9.478677	0.074198	-2.694558	0.002759	-0.014101	0.041817	1.000000	-0.000013	0.000004	0.000049	178.136310	-74.155364	168.272773
31343	9.478733	0.073395	-2.694383	0.002185	-0.014657	0.041816	1.000000	0.000002	0.000015	0.000038	178.137712	-74.154582	168.272659
31344	9.481710	0.077757	-2.652377	-0.037085	-0.000480	0.033256	1.000000	-0.000028	0.000000	0.000058	178.143676	-74.152236	168.263126
31345	9.478798	0.071580	-2.694204	0.001041	-0.015772	0.041815	1.000000	-0.000002	0.000003	0.000054	178.150941	-74.150208	168.256460
31346	9.478841	0.070854	-2.694070	0.000473	-0.016328	0.041814	1.000000	-0.000005	0.000011	0.000025	178.146303	-74.148943	168.259657
31347	9.463478	0.064295	-2.663558	-0.025702	-0.016684	0.018647	1.000000	-0.000024	0.000012	0.000042	178.146448	-74.147806	168.257793
31348	9.462853	0.081579	-2.679910	-0.006513	-0.003467	0.022663	1.000000	0.000010	-0.000003	0.000042	178.150433	-74.145024	168.255123
31349	9.495051	0.056760	-2.707533	0.004600	-0.031966	0.060960	1.000000	-0.000009	0.000015	0.000034	178.148947	-74.144245	168.256720
31350	9.460027	0.075032	-2.721452	0.031032	-0.019304	0.031230	1.000000	-0.000009	0.000007	0.000037	178.148876	-74.142535	168.256349
31351	9.462367	0.097649	-2.695833	0.011512	0.008645	0.026684	1.000000	-0.000001	0.000013	0.000032	178.147244	-74.141492	168.258987
31352	9.494605	0.072949	-2.723303	0.022632	-0.019862	0.064980	1.000000	-0.000009	0.000015	0.000034	178.145734	-74.140775	168.261273
31353	9.462547	0.096309	-2.695248	0.010374	0.007532	0.026686	1.000000	-0.000002	0.000019	0.000047	178.150321	-74.140518	168.257363
31354	9.477061	0.042198	-2.717866	0.014833	-0.049273	0.046349	1.000000	-0.000009	0.000007	0.000037	178.150153	-74.138810	168.258899
31355	9.459737	0.089581	-2.736761	0.047918	-0.008302	0.035264	1.000000	-0.000013	0.000004	0.000049	178.154524	-74.136784	168.253949
31356	9.494878	0.069855	-2.722433	0.020338	-0.022081	0.064981	1.000000	-0.000005	0.000017	0.000041	178.156287	-74.136347	168.248801
31357	9.441559	0.076882	-2.747737	0.059897	-0.023928	0.020666	1.000000	-0.000006	0.000025	0.000038	178.156503	-74.136713	168.249019
31358	9.460692	0.069403	-2.719287	0.026463	-0.023725	0.031233	1.000000	-0.000009	0.000023	0.000031	178.153934	-74.136818	168.247185
31359	9.478565	0.098010	-2.723675	0.032524	0.004015	0.049875	1.000000	-0.000013	0.000027	0.000040	178.154295	-74.137448	168.246361
31360	9.460356	0.086140	-2.734731	0.045052	-0.011050	0.035275	1.000000	-0.000013	0.000027	0.000040	178.154755	-74.138002	168.248155
31361	9.477224	0.055194	-2.731612	0.030568	-0.039362	0.050377	1.000000	-0.000006	0.000031	0.000054	178.161191	-74.139153	168.241824
31362	9.480291	0.059618	-2.689235	-0.008709	-0.025180	0.041792	1.000000	-0.000009	0.000023	0.000031	178.158651	-74.139227	168.242839
31363	9.461409	0.065992	-2.716879	0.023582	-0.026475	0.031234	1.000000	-0.000020	0.000015	0.000030	178.154277	-74.138451	168.246146
31364	9.495382	0.082561	-2.735068	0.035459	-0.012710	0.069027	1.000000	0.000005	0.000040	0.000036	178.154987	-74.140532	168.245062
31365	9.482408	0.099176	-2.678698	-0.009649	0.015442	0.041297	1.000000	-0.000024	0.000027	0.000036	178.152459	-74.141165	168.245950
31366	9.466502	0.110714	-2.664266	-0.016076	0.028885	0.022155	1.000000	-0.000017	0.000033	0.000031	178.148614	-74.142297	168.250543
31367	9.464365	0.086966	-2.689177	0.002306	-0.000168	0.026694	1.000000	-0.000009	0.000023	0.000031	178.145794	-74.142402	168.253513
31368	9.480600	0.074310	-2.702489	0.007540	-0.014696	0.045835	1.000000	-0.000013	0.000035	0.000037	178.145060	-74.143767	168.252597
31369	9.464707	0.085817	-2.688009	0.001135	-0.001262	0.026695	1.000000	-0.000009	0.000031	0.000028	178.140903	-74.144757	168.256943
31370	9.483213	0.096358	-2.675952	-0.012589	0.012701	0.041297	1.000000	-0.000013	0.000019	0.000043	178.142770	-74.144371	168.256398
31371	9.467279	0.107740	-2.661624	-0.018994	0.026136	0.022158	1.000000	0.000002	0.000030	0.000032	178.141506	-74.145357	168.259031
31372	9.467481	0.107208	-2.660928	-0.019583	0.025593	0.022158	1.000000	-0.000024	0.000043	0.000030	178.136493	-74.147661	168.260708
31373	9.501520	0.123703	-2.678934	-0.007726	0.039328	0.059965	1.000000	-0.000010	0.000029	0.000047	178.139896	-74.148550	168.257127
31374	9.467812	0.105775	-2.659806	-0.020737	0.024488	0.022159	1.000000	-0.000005	0.000017	0.000041	178.141545	-74.147998	168.256243
31375	9.486272	0.116253	-2.647912	-0.034449	0.038432	0.036762	1.000000	-0.000009	0.000015	0.000034	178.140063	-74.147216	168.257837
31376	9.450242	0.075078	-2.654307	-0.028494	-0.004897	0.003484	1.000000	-0.000006	0.000023	0.000057	178.147949	-74.147420	168.248682
31377	9.483595	0.109582	-2.689092	0.003090	0.022615	0.045369	1.000000	-0.000016	0.000011	0.000021	178.140389	-74.146118	168.255787
31378	9.502662	0.102102	-2.660716	-0.030373	0.022767	0.055898	1.000000	-0.000002	0.000027	0.000044	178.143574	-74.146683	168.257806
31379	9.483837	0.108353	-2.688289	0.001926	0.021502	0.045372	1.000000	-0.000035	0.000020	0.000035	178.139490	-74.146435	168.259033
31380	9.500558	0.077479	-2.685520	-0.012558	-0.006837	0.060429	1.000000	0.000006	0.000001	0.000051	178.146633	-74.144134	168.249989
31381	9.484538	0.088758	-2.671516	-0.018957	0.006605	0.041293	1.000000	-0.000009	0.000015	0.000034	178.145153	-74.143352	168.251582
31382	9.481704	0.082862	-2.713231	0.019175	-0.008656	0.049907	1.000000	-0.000005	0.000001	0.000047	178.149436	-74.141101	168.245886
31383	9.465672	0.094179	-2.699277	0.012778	0.004790	0.030773	1.000000	-0.000016	0.000009	0.000040	178.149436	-74.139697	168.245063
31384	9.463458	0.070180	-2.724435	0.031158	-0.024253	0.035305	1.000000	-0.000010	0.000021	0.000050	178.154087	-74.139598	168.245071
31385	9.481956	0.080663	-2.712417	0.017432	-0.010322	0.049908	1.000000	-0.000020	0.000023	0.000027	178.148380	-74.139706	168.249752
31386	9.482563	0.062023	-2.695902	-0.002880	-0.024667	0.045818	1.000000	0.000006	-0.000013	0.000038	178.150565	-74.135674	168.252835
31387	9.463072	0.086356	-2.740250	0.049153	-0.012123	0.039399	1.000000	-0.000009	0.000023	0.000031	178.147751	-74.135777	168.255802
31388	9.482112	0.078756	-2.711928	0.015691	-0.011984	0.049909	1.000000	-0.000005	0.000009	0.000044	178.150689	-74.134330	168.253443
31389	9.481626	0.096036	-2.728078	0.034840	0.001252	0.054006	1.000000	-0.000013	0.000019	0.000043	178.152393	-74.134072	168.251240
31390	9.444984	0.073143	-2.750925	0.060575	-0.028256	0.024802	1.000000	0.000006	0.000018	0.000026	178.149319	-74.133596	168.256193
31391	9.466339	0.088791	-2.697118	0.008139	0.000360	0.030780	1.000000	-0.000005	0.000017	0.000041	178.150878	-74.133072	168.255030
31392	9.466465	0.088004	-2.696704	0.007550	-0.000194	0.030780	1.000000	-0.000002	0.000027	0.000044	178.154091	-74.133610	168.256719
31393	9.482669	0.075294	-2.710080	0.012795	-0.014758	0.049910	1.000000	-0.000020	0.000023	0.000027	178.148386	-74.133718	168.261399
31394	9.467296	0.068603	-2.679372	-0.013323	-0.015094	0.026674	1.000000	-0.000006	0.000023	0.000057	178.156253	-74.133944	168.251271
31395	9.482382	0.091941	-2.725588	0.031359	-0.002069	0.054018	1.000000	-0.000005	0.000026	0.000019	178.148926	-74.134408	168.259404
31396	9.464711	0.062250	-2.720270	0.024225	-0.030885	0.035306	1.000000	-0.000013	0.000027	0.000040	178.149410	-74.134987	168.256348
31397	9.467199	0.084796	-2.694228	0.004667	-0.002958	0.030781	1.000000	-0.000013	0.000035	0.000037	178.148448	-74.136499	168.256893
31398	9.483428	0.072038	-2.707508	0.009880	-0.017520	0.049909	1.000000	-0.000006	0.000025	0.000038	178.148651	-74.136685	168.262768
31399	9.486464	0.076520	-2.665046	-0.029399	-0.003397	0.041269	1.000000	-0.000021	0.000037	0.000040	178.147834	-74.138461	168.262274
31400	9.485496	0.112058	-2.697456	0.009437	0.023653	0.049503	1.000000	-0.000020	0.000007	0.000033	178.144869	-74.136693	168.265455
31401	9.468303	0.064328	-2.675919	-0.017389	-0.018966	0.026661	1.000000	0.000006	0.000026	0.000023	178.140436	-74.137150	168.271872
31402	9.483447	0.087800	-2.722019	0.027266	-0.005927	0.054029	1.000000	-0.000013	0.000035	0.000037	178.139637	-74.138587	168.270612
31403	9.502573	0.080062	-2.693285	-0.006201	-0.005824	0.064510	1.000000	-0.000006	0.000039	0.000051	178.144754	-74.140617	168.265645
31404	9.468326	0.080419	-2.690397	0.000578	-0.006812	0.030781	1.000000	-0.000020	0.000031	0.000024	178.137849	-74.141521	168.270948
31405	9.486317	0.109140	-2.694685	0.006533	0.020892	0.049512	1.000000	-0.000009	0.000023	0.000031	178.135039	-74.141622	168.273913
31406	9.470924	0.102631	-2.663975	-0.019591	0.020559	0.026260	1.000000	-0.000016	0.000025	0.000034	178.132405	-74.141836	168.279438
31407	9.455042	0.114173	-2.649513	-0.025977	0.034024	0.007137	1.000000	-0.000006	0.000040	0.000032	178.129966	-74.143968	168.282397
31408	9.489113	0.130465	-2.667611	-0.014238	0.047708	0.044998	1.000000	-0.000017	0.000016	0.000056	178.136215	-74.143250	168.277287
31409	9.471941	0.082607	-2.645890	-0.041038	0.005089	0.022124	1.000000	-0.000020	0.000039	0.000021	178.127841	-74.145128	168.284721
31410	9.468218	0.113050	-2.720017	0.036505	0.017483	0.039052	1.000000	0.000013	0.000022	0.000039	178.130916	-74.145211	168.281081
31411	9.487241	0.105294	-2.691584	0.003034	0.017571	0.049520	1.000000	-0.000013	0.000019	0.000043	178.132625	-74.144950	168.278875
31412	9.472358	0.080473	-2.644462	-0.042760	0.003429	0.022117	1.000000	-0.000010	0.000029	0.000047	178.136063	-74.145834	168.273162
31413	9.473798	0.139038	-2.651290	-0.022925	0.058958	0.025886	1.000000	-0.000013	0.000027	0.000040	178.136438	-74.146458	168.272330
31414	9.488202	0.084968	-2.673686	-0.018412	0.002094	0.045378	1.000000	-0.000006	0.000025	0.000038	178.136584	-74.146733	168.275141
31415	9.453859	0.085247	-2.671160	-0.011597	0.001122	0.011653	1.000000	-0.000005	0.000009	0.000044	178.139482	-74.145321	168.272598
31416	9.488385	0.083552	-2.673083	-0.019571	0.000974	0.045376	1.000000	-0.000001	0.000020	0.000029	178.136393	-74.145118	168.279644
31417	9.472437	0.095088	-2.658869	-0.025952	0.014446	0.026256	1.000000	-0.000024	0.000019	0.000039	178.135206	-74.144863	168.279156
31418	9.471487	0.130594	-2.691482	0.012865	0.041509	0.034562	1.000000	0.000006	0.000003	0.000032	178.134679	-74.142631	168.282713
31419	9.470263	0.070524	-2.683849	-0.008099	-0.015137	0.030768	1.000000	-0.000002	0.000027	0.000044	178.137952	-74.143248	168.280162
31420	9.488225	0.098825	-2.688360	-0.002181	0.012552	0.049528	1.000000	-0.000005	0.000001	0.000047	178.142116	-74.140943	168.275571
31421	9.485934	0.074796	-2.713729	0.016253	-0.016471	0.054041	1.000000	-0.000005	0.000009	0.000044	178.145014	-74.139530	168.273029
31422	9.469455	0.104210	-2.716059	0.029567	0.010817	0.039085	1.000000	-0.000005	0.000017	0.000041	178.146531	-74.138983	168.271179
31423	9.486585	0.055177	-2.696824	-0.004596	-0.031399	0.049878	1.000000	-0.000005	0.000009	0.000044	178.149429	-74.137570	168.268637
31424	9.453594	0.114915	-2.701603	0.022609	0.023743	0.019974	1.000000	-0.000009	0.000031	0.000028	178.145271	-74.138521	168.272204
31425	9.486328	0.072058	-2.712426	0.013943	-0.018697	0.054040	1.000000	-0.000009	0.000015	0.000034	178.143797	-74.137735	168.273792
31426	9.486929	0.053166	-2.695654	-0.006332	-0.033066	0.049872	1.000000	-0.000006	0.000023	0.000057	178.151594	-74.137957	168.263566
31427	9.488872	0.093433	-2.686267	-0.006226	0.008656	0.049531	1.000000	-0.000002	0.000011	0.000051	178.157532	-74.136802	168.258267
31428	9.486657	0.069523	-2.711342	0.012203	-0.020365	0.054039	1.000000	-0.000009	0.000031	0.000028	178.153361	-74.137735	168.262101
31429	9.468402	0.057842	-2.722532	0.024844	-0.035346	0.039434	1.000000	-0.000005	0.000017	0.000041	178.154929	-74.137207	168.260931
31430	9.455292	0.074372	-2.666405	-0.020236	-0.007209	0.011637	1.000000	-0.000013	0.000027	0.000040	178.155345	-74.137807	168.258332
31431	9.471014	0.079551	-2.696133	0.004678	-0.007990	0.034926	1.000000	-0.000002	0.000027	0.000044	178.158623	-74.138423	168.255778
31432	9.505642	0.077778	-2.697680	-0.003325	-0.008164	0.068642	1.000000	-0.000006	0.000040	0.000032	178.156217	-74.140520	168.257888
31433	9.437381	0.061161	-2.676416	-0.008739	-0.023292	-0.002974	1.000000	-0.000013	0.000011	0.000046	178.159259	-74.139372	168.254307
31434	9.487538	0.065406	-2.708360	0.008748	-0.023695	0.054036	1.000000	-0.000009	0.000038	0.000025	178.153904	-74.141269	168.255233
31435	9.471162	0.095165	-2.710433	0.022070	0.003610	0.039110	1.000000	-0.000020	0.000015	0.000030	178.149533	-74.140490	168.258540
31436	9.487355	0.082412	-2.723786	0.027287	-0.010988	0.058222	1.000000	-0.000002	0.000035	0.000041	178.151547	-74.141987	168.256609
31437	9.471939	0.075743	-2.692991	0.001233	-0.011313	0.034923	1.000000	-0.000006	0.000025	0.000038	178.151785	-74.142344	168.256812
31438	9.471619	0.093125	-2.708907	0.020337	0.001953	0.039114	1.000000	-0.000013	0.000027	0.000040	178.152234	-74.142912	168.255468
31439	9.490204	0.103536	-2.696592	0.006534	0.015811	0.053721	1.000000	-0.000013	0.000043	0.000034	178.149955	-74.145305	168.257380
31440	9.455952	0.103992	-2.693783	0.013386	0.014896	0.020009	1.000000	-0.000006	0.000025	0.000038	178.150200	-74.145594	168.258669
31441	9.475405	0.078198	-2.648826	-0.039788	0.001114	0.026220	1.000000	-0.000013	0.000027	0.000040	178.150583	-74.146216	168.257833
31442	9.509064	0.112525	-2.683362	-0.008441	0.028558	0.068330	1.000000	-0.000013	0.000019	0.000043	178.152357	-74.145933	168.254098
31443	9.456785	0.083759	-2.676129	-0.008022	-0.000583	0.015812	1.000000	0.000002	0.000015	0.000038	178.153785	-74.145138	168.253963
31444	9.491365	0.081971	-2.677822	-0.016046	-0.000784	0.049523	1.000000	-0.000013	0.000035	0.000037	178.152844	-74.146631	168.254630
31445	9.491067	0.099349	-2.693713	0.003060	0.012480	0.053727	1.000000	-0.000013	0.000019	0.000043	178.154559	-74.146367	168.252420
31446	9.456758	0.099731	-2.691114	0.009936	0.011575	0.020017	1.000000	-0.000013	0.000027	0.000040	178.154954	-74.146987	168.250792
31447	9.494558	0.084995	-2.634564	-0.056476	0.012184	0.040811	1.000000	-0.000016	0.000017	0.000037	178.153626	-74.146465	168.251342
31448	9.491445	0.097320	-2.692453	0.001322	0.010812	0.053730	1.000000	-0.000006	0.000025	0.000038	178.153849	-74.146761	168.252993
31449	9.456677	0.115867	-2.706325	0.027882	0.023736	0.024233	1.000000	-0.000009	0.000015	0.000034	178.152378	-74.145973	168.254580
31450	9.507726	0.083808	-2.705498	0.005949	-0.004360	0.072835	1.000000	-0.000002	0.000027	0.000045	178.155638	-74.146560	168.251428
31451	9.476166	0.089280	-2.661139	-0.025871	0.009378	0.030411	1.000000	-0.000009	0.000007	0.000037	178.155497	-74.144887	168.251642
31452	9.476257	0.088674	-2.660834	-0.026453	0.008822	0.030410	1.000000	-0.000016	0.000025	0.000034	178.152821	-74.145207	168.253119
31453	9.492401	0.075845	-2.674328	-0.021245	-0.005795	0.049512	1.000000	-0.000005	0.000009	0.000044	178.155724	-74.143791	168.250572
31454	9.457611	0.094272	-2.688312	0.005319	0.007141	0.020025	1.000000	-0.000013	0.000019	0.000043	178.157427	-74.143511	168.247744
31455	9.492592	0.074309	-2.673694	-0.022398	-0.006909	0.049508	1.000000	-0.000013	0.000019	0.000043	178.159143	-74.143246	168.245533
31456	9.476655	0.085707	-2.659513	-0.028753	0.006596	0.030406	1.000000	-0.000013	0.000019	0.000043	178.160836	-74.142983	168.242474
31457	9.476752	0.085029	-2.659190	-0.029327	0.006040	0.030404	1.000000	-0.000009	0.000015	0.000034	178.159366	-74.142195	168.244059
31458	9.476869	0.084311	-2.658795	-0.029902	0.005485	0.030403	1.000000	-0.000002	0.000027	0.000045	178.162664	-74.142805	168.240198
31459	9.474633	0.060490	-2.683885	-0.011443	-0.023526	0.034895	1.000000	-0.000020	0.000015	0.000030	178.158295	-74.142025	168.243506
31460	9.453118	0.061762	-2.753596	0.059615	-0.039268	0.033249	1.000000	-0.000002	0.000011	0.000051	178.164220	-74.140862	168.238301
31461	9.477138	0.082112	-2.657904	-0.031626	0.003815	0.030398	1.000000	0.000002	0.000015	0.000038	178.165651	-74.140064	168.238164
31462	9.474463	0.076277	-2.699471	0.006507	-0.011366	0.039127	1.000000	-0.000013	0.000019	0.000043	178.167393	-74.139813	168.234280
31463	9.474169	0.093710	-2.715472	0.025601	0.001907	0.043367	1.000000	-0.000009	0.000023	0.000031	178.164596	-74.139910	168.237236
31464	9.493088	0.086062	-2.687040	-0.007912	0.001906	0.053732	1.000000	-0.000009	0.000015	0.000034	178.163132	-74.139074	168.240225
31465	9.456826	0.045175	-2.693561	-0.001626	-0.041240	0.020276	1.000000	-0.000006	0.000031	0.000054	178.169609	-74.140207	168.233864
31466	9.458536	0.103739	-2.700314	0.018092	0.014319	0.024275	1.000000	-0.000024	0.000027	0.000036	178.167144	-74.140823	168.234229
31467	9.475100	0.072842	-2.697331	0.003626	-0.014139	0.039125	1.000000	0.000002	0.000015	0.000038	178.168577	-74.140024	168.234090
31468	9.475613	0.054045	-2.680562	-0.016617	-0.028525	0.034875	1.000000	-0.000005	0.000025	0.000038	178.168829	-74.140343	168.236402
31469	9.443256	0.095744	-2.668921	-0.009073	0.012901	0.000933	1.000000	-0.000013	0.000019	0.000043	178.170548	-74.140076	168.234190
31470	9.491080	0.076574	-2.726407	0.027334	-0.016045	0.062471	1.000000	-0.000005	0.000017	0.000041	178.172166	-74.139549	168.232291
31471	9.443888	0.076297	-2.651735	-0.029879	-0.002038	-0.003322	1.000000	-0.000009	0.000030	0.000028	178.168044	-74.140532	168.236617
31472	9.475313	0.087689	-2.711682	0.020411	-0.003078	0.043378	1.000000	-0.000005	0.000018	0.000022	178.162085	-74.140100	168.244183
31473	9.477817	0.110164	-2.685720	0.000791	0.024813	0.038893	1.000000	-0.000006	0.000031	0.000054	178.168566	-74.141232	168.237820
31474	9.459969	0.080316	-2.680457	-0.006172	-0.003942	0.020026	1.000000	-0.000024	0.000027	0.000036	178.166100	-74.141830	168.239155
31475	9.478531	0.090714	-2.668224	-0.020024	0.009869	0.034632	1.000000	0.000002	0.000030	0.000032	178.164880	-74.142802	168.241756
31476	9.478664	0.090097	-2.667774	-0.020592	0.009315	0.034632	1.000000	-0.000016	0.000017	0.000037	178.163616	-74.142310	168.239758
31477	9.476395	0.066326	-2.692944	-0.002119	-0.019686	0.039116	1.000000	-0.000016	0.000017	0.000037	178.162292	-74.141786	168.240306
31478	9.478879	0.088837	-2.667050	-0.021751	0.008205	0.034630	1.000000	-0.000005	0.000025	0.000038	178.162570	-74.142086	168.242716
31479	9.476266	0.083149	-2.708491	0.016380	-0.006957	0.043384	1.000000	-0.000009	0.000023	0.000031	178.159777	-74.142181	168.245671
31480	9.478788	0.105720	-2.682469	-0.003242	0.020934	0.038901	1.000000	-0.000006	0.000033	0.000035	178.158786	-74.143431	168.245053
31481	9.479309	0.087007	-2.665582	-0.023472	0.006540	0.034627	1.000000	-0.000024	0.000019	0.000039	178.157605	-74.143173	168.244564
31482	9.460642	0.093431	-2.693303	0.008888	0.005467	0.024296	1.000000	-0.000013	0.000019	0.000043	178.159314	-74.142869	168.245042
31483	9.460732	0.092582	-2.693016	0.008314	0.004912	0.024297	1.000000	-0.000002	0.000011	0.000051	178.165266	-74.141705	168.239731
31484	9.460836	0.091765	-2.692678	0.007739	0.004359	0.024298	1.000000	-0.000005	0.000025	0.000038	178.165550	-74.142049	168.239356
31485	9.479349	0.102098	-2.680627	-0.006128	0.018157	0.038905	1.000000	-0.000001	0.000013	0.000032	178.163942	-74.140992	168.241974
31486	9.460665	0.108614	-2.708434	0.026240	0.017091	0.028583	1.000000	-0.000016	0.000017	0.000037	178.162622	-74.140465	168.242693
31487	9.495568	0.088564	-2.693825	-0.001517	0.002955	0.057993	1.000000	0.000005	0.000017	0.000045	178.167105	-74.139919	168.239788
31488	9.479618	0.099902	-2.679758	-0.007860	0.016488	0.038907	1.000000	-0.000013	0.000011	0.000046	178.170118	-74.138739	168.238014
31489	9.461708	0.070292	-2.674595	-0.014783	-0.012258	0.020010	1.000000	-0.000020	0.000039	0.000021	178.161773	-74.140616	168.245433
31490	9.461523	0.087716	-2.690399	0.004287	0.001032	0.024301	1.000000	-0.000006	0.000023	0.000057	178.169605	-74.140841	168.237336
31491	9.458869	0.081951	-2.732044	0.042420	-0.014116	0.033073	1.000000	-0.000016	0.000003	0.000024	178.163377	-74.138652	168.243071
31492	9.480074	0.097410	-2.678235	-0.010174	0.014266	0.038908	1.000000	-0.000013	0.000019	0.000043	178.165083	-74.138322	168.242986
31493	9.477806	0.073506	-2.703377	0.008315	-0.014726	0.043385	1.000000	-0.000013	0.000019	0.000043	178.166807	-74.138053	168.240770
31494	9.498679	0.106901	-2.665894	-0.024634	0.027493	0.053516	1.000000	-0.000016	0.000009	0.000040	178.166791	-74.136630	168.240864
31495	9.493974	0.059868	-2.716732	0.012923	-0.029934	0.062468	1.000000	-0.000005	0.000009	0.000044	178.169698	-74.135208	168.238313
31496	9.496102	0.100297	-2.707317	0.012924	0.011791	0.062295	1.000000	0.000013	0.000022	0.000039	178.172720	-74.135293	168.237135
31497	9.461823	0.100878	-2.704684	0.019900	0.010997	0.028607	1.000000	-0.000024	0.000035	0.000033	178.168891	-74.136806	168.239385
31498	9.478312	0.069872	-2.701700	0.005443	-0.017505	0.043383	1.000000	0.000013	0.000007	0.000045	178.174551	-74.135110	168.235509
31499	9.494141	0.075080	-2.731417	0.030264	-0.018312	0.066773	1.000000	-0.000024	0.000043	0.000030	178.169399	-74.137509	168.239129
31500	9.444196	0.069867	-2.698506	0.011855	-0.018849	0.009693	1.000000	-0.000005	0.000025	0.000038	178.169644	-74.137867	168.239269
31501	9.481112	0.091088	-2.674781	-0.015349	0.009259	0.038908	1.000000	-0.000009	0.000007	0.000037	178.169507	-74.136189	168.239479
31502	9.478833	0.067370	-2.699934	0.003145	-0.019729	0.043380	1.000000	-0.000009	0.000030	0.000028	178.165399	-74.137152	168.244001
31503	9.463280	0.060850	-2.669260	-0.022819	-0.020032	0.019982	1.000000	-0.000020	0.000021	0.000046	178.167266	-74.137148	168.240750
31504	9.463095	0.078322	-2.685153	-0.003760	-0.006735	0.024299	1.000000	-0.000009	0.000030	0.000028	178.163161	-74.138109	168.245904
31505	9.497341	0.094363	-2.703181	0.007732	0.006782	0.062305	1.000000	-0.000006	0.000015	0.000060	178.172303	-74.137463	168.236793
31506	9.463334	0.076708	-2.684360	-0.004904	-0.007843	0.024297	1.000000	-0.000009	0.000023	0.000031	178.169580	-74.137570	168.237530
31507	9.463160	0.094358	-2.700237	0.014155	0.005455	0.028621	1.000000	-0.000020	0.000031	0.000024	178.162566	-74.138560	168.243577
31508	9.482022	0.086652	-2.671702	-0.019385	0.005371	0.038903	1.000000	0.000002	0.000015	0.000038	178.164032	-74.137708	168.244610
31509	9.479449	0.080993	-2.713150	0.018749	-0.009760	0.047700	1.000000	-0.000016	0.000033	0.000031	178.160063	-74.138954	168.247894
31510	9.497710	0.109432	-2.717265	0.024474	0.017859	0.066639	1.000000	-0.000005	0.000025	0.000038	178.160344	-74.139292	168.248212
31511	9.480083	0.061712	-2.695677	-0.002032	-0.024725	0.043369	1.000000	-0.000016	0.000033	0.000031	178.156375	-74.140537	168.251497
31512	9.464195	0.073299	-2.681415	-0.008366	-0.011168	0.024292	1.000000	-0.000005	0.000017	0.000041	178.157962	-74.139929	168.253077
31513	9.480045	0.078573	-2.711139	0.016437	-0.011978	0.047702	1.000000	-0.000009	0.000030	0.000028	178.153853	-74.140907	168.257396
31514	9.500978	0.112159	-2.673461	-0.016566	0.030206	0.057843	1.000000	-0.000020	0.000015	0.000030	178.149504	-74.140070	168.262621
31515	9.464233	0.089706	-2.696634	0.009530	0.001027	0.028628	1.000000	0.000002	0.000015	0.000038	178.150949	-74.139265	168.262470
31516	9.464379	0.089014	-2.696145	0.008954	0.000473	0.028629	1.000000	-0.000020	0.000037	0.000040	178.150168	-74.141017	168.262730
31517	9.464552	0.088347	-2.695559	0.008380	-0.000082	0.028629	1.000000	-0.000005	0.000025	0.000038	178.150430	-74.141364	168.262916
31518	9.464712	0.087688	-2.695018	0.007801	-0.000635	0.028630	1.000000	-0.000005	0.000032	0.000035	178.149389	-74.142570	168.264790
31519	9.464818	0.087048	-2.694665	0.007227	-0.001190	0.028630	1.000000	-0.000001	0.000005	0.000035	178.149114	-74.140623	168.266031
31520	9.501724	0.108179	-2.670973	-0.020029	0.026865	0.057846	1.000000	-0.000013	0.000019	0.000043	178.150887	-74.140378	168.261476
31521	9.481010	0.073452	-2.707903	0.011828	-0.016417	0.047702	1.000000	-0.000009	0.000015	0.000034	178.149428	-74.139584	168.263053
31522	9.483524	0.095865	-2.681989	-0.007840	0.011448	0.043239	1.000000	-0.000002	0.000027	0.000045	178.152731	-74.140164	168.261221
31523	9.467374	0.125593	-2.684037	0.005460	0.038875	0.028524	1.000000	-0.000020	0.000031	0.000024	178.145718	-74.141153	168.267269
31524	9.465378	0.083716	-2.692805	0.004363	-0.003963	0.028631	1.000000	0.000006	0.000009	0.000048	178.151556	-74.139742	168.260698
31525	9.502299	0.104687	-2.669066	-0.022911	0.024077	0.057847	1.000000	-0.000013	0.000019	0.000043	178.153286	-74.139469	168.258478
31526	9.484011	0.093052	-2.680366	-0.010138	0.009223	0.043239	1.000000	-0.000013	0.000027	0.000040	178.153677	-74.140072	168.257813
31527	9.483835	0.110404	-2.696402	0.008902	0.022530	0.047603	1.000000	-0.000005	0.000009	0.000044	178.156590	-74.138647	168.255257
31528	9.465798	0.080646	-2.691423	0.002064	-0.006186	0.028631	1.000000	-0.000013	0.000027	0.000040	178.156949	-74.139253	168.255207
31529	9.465907	0.079892	-2.691060	0.001490	-0.006741	0.028631	1.000000	-0.000013	0.000011	0.000046	178.160003	-74.138094	168.251617
31530	9.482276	0.048924	-2.688216	-0.012962	-0.035287	0.043328	1.000000	-0.000020	0.000015	0.000030	178.155657	-74.137295	168.253884
31531	9.481820	0.084419	-2.720677	0.025691	-0.008111	0.052068	1.000000	-0.000017	0.000015	0.000056	178.161899	-74.136658	168.246497
31532	9.481910	0.083567	-2.720391	0.025117	-0.008666	0.052069	1.000000	0.000002	0.000015	0.000038	178.163397	-74.135860	168.243720
31533	9.484681	0.087838	-2.678169	-0.014167	0.005330	0.043237	1.000000	-0.000013	0.000019	0.000043	178.165128	-74.135586	168.241499
31534	9.482121	0.082175	-2.719697	0.023969	-0.009778	0.052071	1.000000	-0.000001	0.000020	0.000029	178.162196	-74.135422	168.244734
31535	9.482491	0.063427	-2.702969	0.003783	-0.024201	0.047693	1.000000	-0.000005	0.000017	0.000041	178.163787	-74.134881	168.243546
31536	9.485010	0.085835	-2.677070	-0.015891	0.003661	0.043235	1.000000	0.000002	0.000022	0.000035	178.163946	-74.134955	168.243546
31537	9.466464	0.092363	-2.704725	0.016509	0.002689	0.033009	1.000000	-0.000013	0.000027	0.000040	178.164356	-74.135568	168.242694
31538	9.485278	0.084418	-2.676164	-0.017045	0.002550	0.043234	1.000000	-0.000013	0.000019	0.000043	178.166106	-74.135270	168.240158
31539	9.485396	0.083767	-2.675767	-0.017620	0.001993	0.043233	1.000000	-0.000009	0.000023	0.000031	178.163328	-74.135360	168.243102
31540	9.466862	0.090297	-2.703403	0.014777	0.001028	0.033012	1.000000	-0.000009	0.000029	0.000047	178.166800	-74.136196	168.239835
31541	9.448588	0.078651	-2.714648	0.027574	-0.013804	0.018404	1.000000	-0.000005	0.000025	0.000038	178.167070	-74.136540	168.240015
31542	9.485607	0.099681	-2.690581	0.000254	0.014196	0.047622	1.000000	-0.000002	0.000034	0.000042	178.169080	-74.138015	168.238239
31543	9.483117	0.093937	-2.731925	0.038388	-0.000903	0.056470	1.000000	-0.000005	0.000025	0.000038	178.169351	-74.138359	168.238419
31544	9.467722	0.069236	-2.684966	-0.007124	-0.015061	0.028619	1.000000	-0.000020	0.000021	0.000046	178.171238	-74.138361	168.233741
31545	9.467583	0.086663	-2.700995	0.011906	-0.001745	0.033016	1.000000	-0.000009	0.000015	0.000034	178.169783	-74.137565	168.235316
31546	9.486422	0.078759	-2.672279	-0.021657	-0.001900	0.043225	1.000000	-0.000017	0.000047	0.000044	178.170721	-74.140423	168.235071
31547	9.486580	0.078165	-2.671734	-0.022232	-0.002457	0.043223	1.000000	-0.000005	0.000011	0.000025	178.166076	-74.139106	168.240445
31548	9.486691	0.077519	-2.671359	-0.022809	-0.003014	0.043222	1.000000	-0.000009	0.000029	0.000047	178.169538	-74.139956	168.236929
31549	9.470602	0.107103	-2.673427	-0.009511	0.024446	0.028568	1.000000	-0.000013	0.000027	0.000040	178.169951	-74.140567	168.236075
31550	9.470769	0.106507	-2.672860	-0.010088	0.023893	0.028569	1.000000	-0.000016	0.000033	0.000031	178.166030	-74.141798	168.238293
31551	9.468266	0.100885	-2.714295	0.028047	0.008802	0.037428	1.000000	-0.000005	0.000017	0.000041	178.167624	-74.141255	168.237102
31552	9.487232	0.074856	-2.669513	-0.025108	-0.005239	0.043215	1.000000	-0.000001	0.000013	0.000032	178.166028	-74.140209	168.238313
31553	9.468670	0.081499	-2.697345	0.007302	-0.006183	0.033018	1.000000	-0.000024	0.000019	0.000039	178.164855	-74.139948	168.237823
31554	9.471206	0.103891	-2.671414	-0.012390	0.021671	0.028571	1.000000	0.000013	0.000022	0.000039	178.167883	-74.139976	168.238338
31555	9.487335	0.090854	-2.684795	-0.007242	0.006967	0.047627	1.000000	-0.000013	0.000019	0.000043	178.169618	-74.139700	168.236114
31556	9.487249	0.108240	-2.700726	0.011772	0.020287	0.052046	1.000000	-0.000013	0.000027	0.000040	178.170019	-74.140279	168.236218
31557	9.469216	0.078707	-2.695508	0.004995	-0.008402	0.033018	1.000000	-0.000009	0.000038	0.000025	178.164603	-74.142140	168.241898
31558	9.487794	0.089046	-2.683233	-0.008972	0.005299	0.047627	1.000000	-0.000009	0.000015	0.000034	178.163175	-74.141354	168.241637
31559	9.469283	0.095580	-2.710936	0.023442	0.004366	0.037443	1.000000	-0.000017	0.000031	0.000050	178.166781	-74.142484	168.236983
31560	9.469449	0.094807	-2.710384	0.022862	0.003811	0.037444	1.000000	-0.000013	0.000027	0.000040	178.167175	-74.143068	168.236533
31561	9.453799	0.088253	-2.679740	-0.003023	0.003531	0.013964	1.000000	-0.000013	0.000027	0.000040	178.167592	-74.143677	168.235677
31562	9.488120	0.104288	-2.697820	0.008313	0.016952	0.052056	1.000000	0.000006	0.000002	0.000032	178.167189	-74.141462	168.236214
31563	9.469787	0.092695	-2.709277	0.021138	0.002146	0.037449	1.000000	-0.000017	0.000031	0.000050	178.170796	-74.142592	168.231558
31564	9.504564	0.072366	-2.694444	-0.006718	-0.012197	0.066676	1.000000	-0.000005	0.000017	0.000041	178.172358	-74.142005	168.231486
31565	9.470200	0.073076	-2.692209	0.000393	-0.012844	0.033015	1.000000	-0.000016	0.000009	0.000040	178.172366	-74.140589	168.230659
31566	9.470269	0.072373	-2.691983	-0.000188	-0.013398	0.033014	1.000000	0.000002	0.000014	0.000038	178.173811	-74.139732	168.231046
31567	9.451774	0.079033	-2.719681	0.032232	-0.014315	0.022845	1.000000	-0.000016	0.000033	0.000031	178.169860	-74.140974	168.234322
31568	9.470122	0.107416	-2.723910	0.037837	0.013255	0.041897	1.000000	-0.000001	0.000005	0.000035	178.169599	-74.139031	168.233728
31569	9.473026	0.093609	-2.665336	-0.021032	0.013337	0.028571	1.000000	-0.000013	0.000027	0.000040	178.170018	-74.139640	168.232870
31570	9.486565	0.075732	-2.720495	0.022815	-0.015899	0.056505	1.000000	-0.000024	0.000027	0.000036	178.167522	-74.140262	168.232596
31571	9.454851	0.081392	-2.676243	-0.008770	-0.002013	0.013961	1.000000	-0.000002	0.000011	0.000051	178.173491	-74.139083	168.227268
31572	9.470987	0.068509	-2.689558	-0.003639	-0.016730	0.033008	1.000000	-0.000012	0.000036	0.000019	178.164995	-74.140637	168.237025
31573	9.470965	0.086103	-2.705374	0.015369	-0.003402	0.037459	1.000000	-0.000020	0.000021	0.000046	178.166874	-74.140627	168.233767
31574	9.489532	0.096205	-2.693150	0.001372	0.010279	0.052069	1.000000	-0.000005	0.000025	0.000038	178.167158	-74.140933	168.234178
31575	9.489828	0.077366	-2.676395	-0.018784	-0.004163	0.047614	1.000000	-0.000005	0.000017	0.000041	178.168758	-74.140387	168.232983
31576	9.471326	0.083946	-2.704175	0.013640	-0.005065	0.037461	1.000000	0.000002	0.000022	0.000035	178.168906	-74.140463	168.232956
31577	9.452822	0.090601	-2.731975	0.046065	-0.005965	0.027312	1.000000	-0.000009	0.000015	0.000034	178.167456	-74.139664	168.234528
31578	9.492582	0.098527	-2.649766	-0.039645	0.022565	0.043173	1.000000	-0.000009	0.000023	0.000031	178.164674	-74.139723	168.237634
31579	9.474464	0.068888	-2.644685	-0.046375	-0.006107	0.024100	1.000000	-0.000017	0.000031	0.000050	178.168286	-74.140851	168.232976
31580	9.471660	0.099357	-2.718864	0.030917	0.006601	0.041928	1.000000	-0.000005	0.000017	0.000041	178.169902	-74.140323	168.229930
31581	9.471939	0.080522	-2.702133	0.010766	-0.007841	0.037463	1.000000	0.000002	0.000022	0.000035	178.170045	-74.140394	168.231132
31582	9.472072	0.079905	-2.701686	0.010189	-0.008396	0.037463	1.000000	-0.000016	0.000025	0.000034	178.167395	-74.140733	168.232779
31583	9.474654	0.102372	-2.675641	-0.009520	0.019444	0.033030	1.000000	-0.000013	0.000027	0.000040	178.167818	-74.141341	168.231919
31584	9.488495	0.048230	-2.698195	-0.004829	-0.037570	0.052032	1.000000	-0.000009	0.000015	0.000034	178.166353	-74.140545	168.232796
31585	9.474892	0.101071	-2.674849	-0.010670	0.018332	0.033030	1.000000	-0.000013	0.000027	0.000040	178.166776	-74.141153	168.231935
31586	9.472562	0.077159	-2.700045	0.007898	-0.010619	0.037463	1.000000	-0.000002	0.000011	0.000051	178.172766	-74.140012	168.223589
31587	9.475112	0.099492	-2.674127	-0.011812	0.017221	0.033031	1.000000	-0.000024	0.000027	0.000036	178.170278	-74.140635	168.224465
31588	9.491230	0.086559	-2.687486	-0.006687	0.002486	0.052072	1.000000	0.000002	0.000014	0.000038	178.171707	-74.139811	168.224457
31589	9.488751	0.080879	-2.729030	0.031446	-0.012574	0.060985	1.000000	-0.000005	0.000025	0.000038	178.171992	-74.140150	168.224627
31590	9.475309	0.115604	-2.689345	0.006030	0.029443	0.037517	1.000000	-0.000009	0.000015	0.000034	178.170557	-74.139339	168.225216
31591	9.438697	0.075227	-2.696177	0.012761	-0.013429	0.003813	1.000000	-0.000020	0.000029	0.000043	178.171121	-74.140214	168.223323
31592	9.491734	0.083769	-2.685793	-0.008991	0.000260	0.052070	1.000000	-0.000002	0.000027	0.000045	178.174450	-74.140805	168.219670
31593	9.475875	0.095434	-2.671570	-0.015265	0.013885	0.033032	1.000000	-0.000020	0.000023	0.000027	178.168771	-74.140907	168.224344
31594	9.473528	0.071672	-2.696808	0.003298	-0.015064	0.037460	1.000000	-0.000002	0.000011	0.000051	178.174704	-74.139716	168.219202
31595	9.475947	0.112125	-2.687242	0.003149	0.026665	0.037526	1.000000	-0.000024	0.000027	0.000036	178.172217	-74.140338	168.220077
31596	9.494531	0.122294	-2.674962	-0.010882	0.040315	0.052137	1.000000	0.000002	0.000022	0.000035	178.172311	-74.140359	168.223006
31597	9.457910	0.081902	-2.681782	-0.004129	-0.002546	0.018421	1.000000	-0.000005	0.000025	0.000038	178.172598	-74.140696	168.223173
31598	9.489889	0.074724	-2.725246	0.026247	-0.017578	0.060992	1.000000	-0.000005	0.000017	0.000041	178.174159	-74.140109	168.222976
31599	9.476588	0.091254	-2.669188	-0.018733	0.010546	0.033030	1.000000	-0.000005	0.000025	0.000038	178.174447	-74.140447	168.223144
31600	9.458261	0.079750	-2.680609	-0.005858	-0.004209	0.018420	1.000000	-0.000005	0.000017	0.000041	178.176087	-74.139887	168.220081
31601	9.492790	0.077563	-2.682245	-0.014190	-0.004752	0.052063	1.000000	-0.000009	0.000015	0.000034	178.174641	-74.139086	168.221650
31602	9.474462	0.066062	-2.693667	-0.001316	-0.019509	0.037452	1.000000	-0.000002	0.000027	0.000045	178.177936	-74.139647	168.219962
31603	9.474362	0.101626	-2.725909	0.037229	0.007730	0.046471	1.000000	-0.000009	0.000023	0.000031	178.175173	-74.139732	168.222897
31604	9.456264	0.054016	-2.704641	0.010989	-0.034817	0.022840	1.000000	-0.000016	0.000017	0.000037	178.173819	-74.139175	168.224491
31605	9.493165	0.093045	-2.696943	0.003057	0.006916	0.056572	1.000000	-0.000013	0.000027	0.000040	178.174248	-74.139780	168.223627
31606	9.477436	0.086518	-2.666333	-0.022769	0.006653	0.033025	1.000000	-0.000013	0.000027	0.000040	178.174666	-74.140381	168.221917
31607	9.477574	0.085896	-2.665864	-0.023343	0.006097	0.033024	1.000000	-0.000009	0.000023	0.000031	178.171904	-74.140465	168.224852
31608	9.456805	0.051499	-2.702800	0.008694	-0.037034	0.022834	1.000000	-0.000016	0.000025	0.000034	178.169265	-74.140795	168.227014
31609	9.493820	0.072319	-2.678743	-0.018807	-0.009211	0.052052	1.000000	-0.000002	0.000019	0.000048	178.173925	-74.140497	168.223044
31610	9.443486	0.085479	-2.662755	-0.017309	0.004438	-0.000619	1.000000	-0.000020	0.000015	0.000030	178.169544	-74.139638	168.228704
31611	9.475369	0.096625	-2.722588	0.032603	0.003294	0.046490	1.000000	-0.000009	0.000023	0.000031	178.166783	-74.139723	168.231638
31612	9.475684	0.059718	-2.689514	-0.007078	-0.025067	0.037437	1.000000	-0.000005	0.000017	0.000041	178.168359	-74.139162	168.231000
31613	9.494254	0.069759	-2.677275	-0.021122	-0.011440	0.052045	1.000000	-0.000013	0.000027	0.000040	178.168790	-74.139766	168.230135
31614	9.494376	0.069103	-2.676857	-0.021693	-0.011998	0.052043	1.000000	-0.000016	0.000017	0.000037	178.167489	-74.139257	168.229812
31615	9.459887	0.106291	-2.707171	0.024617	0.015273	0.027470	1.000000	-0.000005	0.000032	0.000035	178.166466	-74.140478	168.231342
31616	9.460120	0.087539	-2.690353	0.004488	0.000817	0.022937	1.000000	-0.000016	0.000017	0.000037	178.165185	-74.139910	168.232207
31617	9.478772	0.079655	-2.661795	-0.029110	0.000535	0.033010	1.000000	-0.000020	0.000023	0.000027	178.159511	-74.140011	168.236880
31618	9.476348	0.074106	-2.703290	0.009020	-0.014494	0.041964	1.000000	0.000013	0.000022	0.000040	178.162580	-74.140027	168.237199
31619	9.478939	0.096378	-2.677285	-0.010718	0.013329	0.037548	1.000000	-0.000028	0.000023	0.000049	178.164605	-74.140282	168.232907
31620	9.479078	0.095824	-2.676812	-0.011286	0.012772	0.037548	1.000000	-0.000005	0.000026	0.000019	178.157353	-74.140770	168.239168
31621	9.495084	0.101073	-2.706565	0.013367	0.011918	0.061117	1.000000	-0.000005	0.000009	0.000044	178.160280	-74.139333	168.236598
31622	9.476818	0.071437	-2.701714	0.006729	-0.016717	0.041962	1.000000	-0.000013	0.000027	0.000040	178.160717	-74.139939	168.235220
31623	9.460925	0.101218	-2.703737	0.020016	0.010842	0.027486	1.000000	-0.000013	0.000035	0.000037	178.159834	-74.141428	168.235719
31624	9.477071	0.088132	-2.716947	0.025120	-0.003919	0.046511	1.000000	-0.000009	0.000021	0.000050	178.164660	-74.141379	168.230406
31625	9.461321	0.063437	-2.670223	-0.020220	-0.018081	0.018385	1.000000	0.000006	0.000010	0.000029	178.162941	-74.140038	168.234030
31626	9.479818	0.091734	-2.674331	-0.014742	0.009438	0.037547	1.000000	-0.000038	0.000032	0.000041	178.160729	-74.141184	168.232986
31627	9.477402	0.086294	-2.715851	0.023393	-0.005584	0.046515	1.000000	-0.000005	0.000010	0.000025	178.156096	-74.139860	168.238351
31628	9.480069	0.072451	-2.657378	-0.035435	-0.005583	0.032988	1.000000	-0.000013	0.000011	0.000046	178.159166	-74.138668	168.235349
31629	9.480019	0.108011	-2.689797	0.003067	0.021681	0.042106	1.000000	-0.000016	0.000017	0.000037	178.157863	-74.138134	168.235884
31630	9.461748	0.078488	-2.684901	-0.003559	-0.006946	0.022935	1.000000	-0.000005	0.000025	0.000038	178.158140	-74.138430	168.237081
31631	9.496242	0.094387	-2.702742	0.007587	0.006356	0.061128	1.000000	-0.000016	0.000017	0.000037	178.156837	-74.137895	168.237616
31632	9.477878	0.082938	-2.714295	0.020510	-0.008358	0.046519	1.000000	-0.000020	0.000013	0.000049	178.160055	-74.137009	168.231927
31633	9.480519	0.087209	-2.671999	-0.018775	0.005547	0.037543	1.000000	0.000006	0.000026	0.000023	178.155710	-74.137438	168.238280
31634	9.478093	0.081830	-2.713578	0.019441	-0.009220	0.046521	1.000000	-0.000005	0.000010	0.000025	178.156523	-74.136278	168.249833
31635	9.462303	0.075328	-2.683037	-0.006343	-0.009477	0.022932	1.000000	-0.000006	0.000039	0.000051	178.161767	-74.138268	168.244791
31636	9.478462	0.062259	-2.696169	-0.001234	-0.024248	0.041949	1.000000	-0.000016	0.000025	0.000034	178.159180	-74.138645	168.245000
31637	9.446613	0.086265	-2.668308	-0.013163	0.003632	0.003912	1.000000	-0.000005	0.000017	0.000041	178.160809	-74.138092	168.243794
31638	9.478641	0.079032	-2.711746	0.017145	-0.011438	0.046523	1.000000	0.000002	0.000022	0.000035	178.161016	-74.138142	168.244759
31639	9.481272	0.083299	-2.669449	-0.022142	0.002454	0.037537	1.000000	-0.000016	0.000017	0.000037	178.159729	-74.137607	168.245295
31640	9.478918	0.059483	-2.694629	-0.003528	-0.026468	0.041943	1.000000	-0.000024	0.000025	0.000055	178.164817	-74.138136	168.237029
31641	9.481516	0.081879	-2.668626	-0.023287	0.001342	0.037535	1.000000	-0.000005	0.000018	0.000022	178.158887	-74.137699	168.243758
31642	9.481556	0.117440	-2.700913	0.015192	0.028625	0.046703	1.000000	-0.000006	0.000023	0.000057	178.166756	-74.137924	168.235453
31643	9.463262	0.069591	-2.679807	-0.010921	-0.013912	0.022922	1.000000	-0.000009	0.000007	0.000037	178.166646	-74.136234	168.235652
31644	9.463333	0.069065	-2.679568	-0.011495	-0.014465	0.022921	1.000000	-0.000005	0.000018	0.000022	178.160741	-74.135789	168.242060
31645	9.481896	0.079203	-2.667358	-0.025585	-0.000881	0.037529	1.000000	-0.000013	0.000019	0.000043	178.162509	-74.135505	168.239825
31646	9.479492	0.073541	-2.708923	0.012548	-0.015876	0.046523	1.000000	-0.000013	0.000019	0.000043	178.164285	-74.135186	168.238924
31647	9.479601	0.072717	-2.708565	0.011974	-0.016431	0.046523	1.000000	-0.000002	0.000019	0.000048	178.168970	-74.134882	168.234947
31648	9.466262	0.089165	-2.652478	-0.032981	0.011681	0.018512	1.000000	-0.000013	0.000027	0.000040	178.169457	-74.135502	168.233451
31649	9.482331	0.094316	-2.682150	-0.008364	0.010821	0.042120	1.000000	-0.000009	0.000015	0.000034	178.168034	-74.134697	168.235014
31650	9.463996	0.101238	-2.709845	0.024102	0.010059	0.032111	1.000000	-0.000009	0.000038	0.000025	178.162698	-74.136538	168.240867
31651	9.480155	0.070160	-2.706694	0.009678	-0.018649	0.046522	1.000000	-0.000013	0.000019	0.000043	178.164468	-74.136253	168.238631
31652	9.464281	0.081752	-2.692628	0.003438	-0.004973	0.027511	1.000000	-0.000005	0.000017	0.000041	178.166126	-74.135712	168.236001
31653	9.464376	0.099250	-2.708591	0.022382	0.008398	0.032116	1.000000	-0.000009	0.000023	0.000031	178.163391	-74.135794	168.238928
31654	9.464510	0.080456	-2.691862	0.002292	-0.006081	0.027510	1.000000	-0.000013	0.000019	0.000043	178.165178	-74.135517	168.236550
31655	9.467134	0.102876	-2.665801	-0.017478	0.021724	0.023111	1.000000	-0.000009	0.000030	0.000028	178.161131	-74.136484	168.240842
31656	9.499248	0.059516	-2.676392	-0.026233	-0.021225	0.056517	1.000000	-0.000016	0.000025	0.000034	178.158544	-74.136853	168.241657
31657	9.464896	0.096777	-2.706861	0.020089	0.006183	0.032123	1.000000	-0.000013	0.000011	0.000046	178.161628	-74.135681	168.238055
31658	9.483478	0.106749	-2.694601	0.005980	0.019752	0.046734	1.000000	0.000002	0.000030	0.000032	178.160522	-74.136626	168.240610
31659	9.481133	0.064873	-2.703397	0.005091	-0.023088	0.046516	1.000000	-0.000013	0.000019	0.000043	178.162293	-74.136340	168.238373
31660	9.483756	0.105326	-2.693677	0.004828	0.018643	0.046737	1.000000	-0.000020	0.000029	0.000043	178.162920	-74.137203	168.236169
31661	9.465440	0.094014	-2.705059	0.017791	0.003970	0.032128	1.000000	-0.000009	0.000023	0.000031	178.160187	-74.137283	168.239095
31662	9.465544	0.075294	-2.688373	-0.002300	-0.010515	0.027507	1.000000	-0.000009	0.000015	0.000034	178.158704	-74.136445	168.242734
31663	9.481637	0.098589	-2.734387	0.041808	0.002551	0.055761	1.000000	-0.000005	0.000024	0.000038	178.159027	-74.136775	168.242889
31664	9.449846	0.086336	-2.673719	-0.009115	0.002621	0.008500	1.000000	-0.000013	0.000035	0.000037	178.158218	-74.138221	168.243845
31665	9.465965	0.091508	-2.703304	0.015481	0.001757	0.032133	1.000000	-0.000009	0.000015	0.000034	178.156798	-74.137415	168.245406
31666	9.500479	0.089054	-2.704904	0.007023	0.001070	0.065748	1.000000	-0.000002	0.000011	0.000051	178.162810	-74.136230	168.239074
31667	9.484583	0.100565	-2.690945	0.000787	0.014758	0.046745	1.000000	0.000002	0.000014	0.000038	178.164309	-74.135404	168.238891
31668	9.450286	0.101558	-2.688640	0.008099	0.014339	0.013133	1.000000	-0.000013	0.000035	0.000037	178.163457	-74.136879	168.239497
31669	9.484851	0.081097	-2.673658	-0.019870	-0.000286	0.042110	1.000000	-0.000016	0.000017	0.000037	178.162174	-74.136342	168.240030
31670	9.482493	0.075632	-2.715190	0.018260	-0.015258	0.051139	1.000000	-0.000016	0.000025	0.000034	178.159565	-74.136641	168.243367
31671	9.466661	0.087371	-2.701003	0.012028	-0.001566	0.032138	1.000000	-0.000005	0.000024	0.000038	178.159890	-74.136970	168.243519
31672	9.469261	0.091706	-2.658644	-0.027262	0.012296	0.023105	1.000000	-0.000012	0.000021	0.000025	178.154115	-74.136787	168.249352
31673	9.480416	0.050843	-2.739375	0.035747	-0.045271	0.055530	1.000000	-0.000002	0.000034	0.000042	178.156184	-74.138251	168.248097
31674	9.469557	0.108546	-2.674062	-0.008908	0.025122	0.027749	1.000000	-0.000009	0.000007	0.000037	178.156099	-74.136568	168.247322
31675	9.467199	0.084964	-2.699193	0.009731	-0.003782	0.032140	1.000000	-0.000024	0.000043	0.000030	178.151017	-74.138959	168.250922
31676	9.483334	0.071864	-2.712352	0.014814	-0.018587	0.051139	1.000000	0.000016	0.000016	0.000049	178.158502	-74.138373	168.245619
31677	9.469940	0.088392	-2.656337	-0.030128	0.009521	0.023100	1.000000	-0.000020	0.000023	0.000027	178.152852	-74.138473	168.250289
31678	9.502006	0.044974	-2.666870	-0.038895	-0.033474	0.056441	1.000000	-0.000020	0.000037	0.000040	178.152191	-74.140204	168.249628
31679	9.467853	0.100400	-2.713449	0.026931	0.007942	0.036796	1.000000	0.000006	0.000024	0.000042	178.155439	-74.140511	168.248032
31680	9.467828	0.045197	-2.664154	-0.032139	-0.034426	0.022825	1.000000	-0.000016	0.000009	0.000040	178.155457	-74.139033	168.249039
31681	9.486511	0.091674	-2.684458	-0.007290	0.006987	0.046751	1.000000	-0.000020	0.000038	0.000021	178.147184	-74.140904	168.256439
31682	9.468167	0.062447	-2.679448	-0.013795	-0.021595	0.027479	1.000000	-0.000009	0.000022	0.000031	178.144488	-74.140951	168.259684
31683	9.470850	0.102933	-2.669701	-0.014097	0.020135	0.027754	1.000000	-0.000002	0.000026	0.000045	178.147874	-74.141528	168.257061
31684	9.471003	0.102342	-2.669180	-0.014674	0.019581	0.027755	1.000000	-0.000012	0.000028	0.000022	178.140785	-74.142227	168.264739
31685	9.468600	0.060717	-2.677960	-0.015516	-0.023259	0.027473	1.000000	-0.000016	0.000025	0.000034	178.138192	-74.142575	168.266637
31686	9.484810	0.084029	-2.723850	0.028540	-0.010190	0.055803	1.000000	-0.000005	0.000024	0.000038	178.138502	-74.142898	168.266902
31687	9.468893	0.077607	-2.693467	0.002826	-0.010427	0.032139	1.000000	-0.000001	0.000012	0.000032	178.136950	-74.141820	168.269486
31688	9.469062	0.095252	-2.709410	0.021742	0.002963	0.036812	1.000000	-0.000034	0.000027	0.000032	178.131602	-74.142463	168.271722
31689	9.503618	0.093005	-2.710814	0.013237	0.002226	0.070416	1.000000	-0.000009	0.000015	0.000034	178.130186	-74.141655	168.273279
31690	9.471759	0.117231	-2.683157	0.001367	0.030195	0.032432	1.000000	-0.000005	0.000010	0.000025	178.125578	-74.140334	168.277694
31691	9.519807	0.079649	-2.723775	0.017732	-0.013151	0.089410	1.000000	-0.000024	0.000043	0.000030	178.120495	-74.142723	168.281298
31692	9.488041	0.103737	-2.695796	0.005868	0.014820	0.051427	1.000000	0.000006	0.000016	0.000045	178.125053	-74.142170	168.277229
31693	9.453649	0.086498	-2.677319	-0.006255	0.000511	0.013144	1.000000	-0.000020	0.000021	0.000046	178.126966	-74.142151	168.273960
31694	9.488271	0.102328	-2.695040	0.004710	0.013708	0.051429	1.000000	-0.000012	0.000021	0.000025	178.121136	-74.141948	168.281611
31695	9.488308	0.083663	-2.678362	-0.015349	-0.000794	0.046744	1.000000	-0.000016	0.000017	0.000037	178.119857	-74.141410	168.282142
31696	9.472530	0.113374	-2.680597	-0.002090	0.026866	0.032441	1.000000	-0.000006	0.000023	0.000057	178.127777	-74.141594	168.274600
31697	9.472587	0.094488	-2.663843	-0.022146	0.012364	0.027752	1.000000	-0.000020	0.000023	0.000027	178.122129	-74.141692	168.279271
31698	9.488700	0.099736	-2.693628	0.002398	0.011487	0.051433	1.000000	0.000006	0.000002	0.000032	178.121728	-74.139430	168.282200
31699	9.454194	0.064572	-2.658919	-0.029187	-0.016761	0.008447	1.000000	-0.000024	0.000027	0.000036	178.119273	-74.140048	168.283071
31700	9.470465	0.087807	-2.704753	0.014846	-0.003687	0.036824	1.000000	-0.000002	0.000026	0.000045	178.122735	-74.140650	168.279045
31701	9.473079	0.110065	-2.678796	-0.004965	0.024094	0.032447	1.000000	-0.000016	0.000009	0.000040	178.122769	-74.139225	168.278209
31702	9.470658	0.086272	-2.704130	0.013702	-0.004796	0.036826	1.000000	-0.000009	0.000021	0.000050	178.127610	-74.139210	168.272210
31703	9.473165	0.090272	-2.661933	-0.025587	0.009034	0.027748	1.000000	0.000002	0.000006	0.000041	178.130432	-74.137493	168.270652
31704	9.470735	0.066524	-2.687282	-0.006925	-0.019854	0.032123	1.000000	0.000002	0.000022	0.000035	178.130650	-74.137535	168.271235
31705	9.470995	0.083945	-2.703021	0.011977	-0.006458	0.036827	1.000000	-0.000017	0.000039	0.000047	178.133002	-74.139535	168.267922
31706	9.471071	0.083169	-2.702780	0.011403	-0.007012	0.036827	1.000000	0.000006	-0.000013	0.000038	178.135268	-74.135526	168.267074
31707	9.489515	0.074921	-2.674343	-0.022248	-0.007462	0.046728	1.000000	-0.000013	0.000035	0.000037	178.134428	-74.137007	168.267559
31708	9.471279	0.081843	-2.702089	0.010251	-0.008121	0.036828	1.000000	-0.000016	0.000017	0.000037	178.133126	-74.136451	168.268708
31709	9.473894	0.104169	-2.676147	-0.009565	0.019656	0.032454	1.000000	-0.000005	0.000017	0.000041	178.134773	-74.135890	168.267488
31710	9.489843	0.072935	-2.673235	-0.023974	-0.009131	0.046722	1.000000	-0.000009	0.000015	0.000034	178.133373	-74.135087	168.268192
31711	9.473969	0.084728	-2.659255	-0.030184	0.004593	0.027738	1.000000	-0.000009	0.000015	0.000034	178.131962	-74.134277	168.269746
31712	9.471648	0.079207	-2.700875	0.007950	-0.010337	0.036828	1.000000	-0.000013	0.000019	0.000044	178.133753	-74.133946	168.268747
31713	9.506105	0.058520	-2.685902	-0.020070	-0.025082	0.065698	1.000000	-0.000013	0.000027	0.000041	178.134225	-74.134541	168.267867
31714	9.453426	0.067264	-2.711944	0.020415	-0.025492	0.022217	1.000000	0.000006	0.000018	0.000026	178.131234	-74.134076	168.272482
31715	9.490429	0.069571	-2.671243	-0.026853	-0.011912	0.046712	1.000000	-0.000006	0.000038	0.000051	178.136512	-74.136053	168.267418
31716	9.472218	0.076362	-2.698958	0.005650	-0.012555	0.036827	1.000000	-0.000016	0.000017	0.000037	178.135240	-74.135490	168.268612
31717	9.472235	0.057649	-2.682196	-0.014389	-0.027066	0.032098	1.000000	-0.000009	0.000030	0.000028	178.131211	-74.136451	168.272894
31718	9.456671	0.105786	-2.700583	0.018329	0.014581	0.022577	1.000000	-0.000013	0.000027	0.000041	178.131674	-74.137012	168.273182
31719	9.456845	0.105117	-2.700001	0.017755	0.014028	0.022579	1.000000	-0.000013	0.000035	0.000038	178.130837	-74.138491	168.273665
31720	9.491333	0.084646	-2.684854	-0.010284	-0.000734	0.051434	1.000000	-0.000012	0.000028	0.000022	178.123728	-74.139137	168.282951
31721	9.472987	0.073573	-2.696334	0.002765	-0.015326	0.036824	1.000000	-0.000024	0.000019	0.000039	178.122587	-74.138868	168.282456
31722	9.457279	0.103314	-2.698550	0.016016	0.012370	0.022584	1.000000	-0.000006	0.000023	0.000057	178.130491	-74.139045	168.274786
31723	9.491811	0.100745	-2.699994	0.007446	0.011559	0.056173	1.000000	-0.000005	0.000010	0.000025	178.125889	-74.137715	168.280139
31724	9.489397	0.077102	-2.725253	0.026119	-0.017316	0.060540	1.000000	-0.000009	0.000029	0.000047	178.129467	-74.138508	168.277268
31725	9.476123	0.111875	-2.685414	0.000657	0.024744	0.037199	1.000000	-0.000027	0.000025	0.000030	178.123958	-74.138876	168.280912
31726	9.492067	0.080710	-2.682378	-0.013746	-0.004064	0.051429	1.000000	-0.000013	0.000019	0.000044	178.125815	-74.138585	168.278359
31727	9.473709	0.069405	-2.693907	-0.000689	-0.018647	0.036819	1.000000	-0.000005	0.000024	0.000038	178.126157	-74.138907	168.278500
31728	9.476387	0.091696	-2.667765	-0.020522	0.009117	0.032453	1.000000	-0.000020	0.000029	0.000043	178.126754	-74.139778	168.277085
31729	9.458062	0.080416	-2.679178	-0.007462	-0.005462	0.017842	1.000000	-0.000013	0.000027	0.000041	178.127230	-74.140370	168.276201
31730	9.492582	0.077792	-2.680641	-0.016036	-0.006291	0.051425	1.000000	-0.000013	0.000003	0.000050	178.131644	-74.138357	168.270180
31731	9.455851	0.074100	-2.720548	0.030117	-0.020926	0.026960	1.000000	-0.000023	0.000027	0.000036	178.129196	-74.138972	168.271048
31732	9.460752	0.083185	-2.636213	-0.047890	0.007229	0.008719	1.000000	-0.000001	0.000020	0.000029	178.126374	-74.138765	168.275115
31733	9.492885	0.075917	-2.679622	-0.017763	-0.007959	0.051421	1.000000	-0.000016	0.000009	0.000040	178.126410	-74.137338	168.274279
31734	9.492939	0.075179	-2.679451	-0.018347	-0.008512	0.051419	1.000000	-0.000005	0.000009	0.000044	178.129402	-74.135833	168.272895
31735	9.477092	0.086913	-2.665419	-0.024545	0.005232	0.032446	1.000000	-0.000023	0.000027	0.000036	178.126955	-74.136448	168.273762
31736	9.458772	0.075750	-2.676805	-0.011472	-0.009338	0.017835	1.000000	-0.000005	0.000032	0.000035	178.126007	-74.137670	168.275317
31737	9.475001	0.080777	-2.706388	0.013025	-0.010226	0.041572	1.000000	-0.000013	0.000011	0.000047	178.129103	-74.136490	168.271704
31738	9.491057	0.067530	-2.719722	0.018076	-0.025085	0.060542	1.000000	-0.000002	0.000026	0.000045	178.132522	-74.137077	168.268596
31739	9.475001	0.060976	-2.689563	-0.007566	-0.025305	0.036801	1.000000	-0.000009	-0.000009	0.000043	178.135039	-74.133607	168.266057
31740	9.475061	0.060235	-2.689371	-0.008144	-0.025860	0.036799	1.000000	-0.000020	0.000029	0.000043	178.135646	-74.134444	168.264632
31741	9.459423	0.090206	-2.691495	0.005107	0.001861	0.022603	1.000000	-0.000009	0.000022	0.000031	178.132932	-74.134517	168.267546
31742	9.475480	0.077134	-2.704813	0.010151	-0.012997	0.041572	1.000000	-0.000005	0.000017	0.000041	178.134635	-74.133937	168.266420
31743	9.441151	0.078257	-2.702744	0.017613	-0.013249	0.007994	1.000000	-0.000013	0.000019	0.000044	178.136423	-74.133642	168.264172
31744	9.443671	0.082365	-2.660293	-0.021675	0.000543	-0.001143	1.000000	-0.000013	0.000035	0.000038	178.135680	-74.135125	168.263780
31745	9.494422	0.085761	-2.691316	-0.005227	-0.000655	0.056181	1.000000	-0.000019	0.000038	0.000021	178.127427	-74.136993	168.271172
31746	9.492228	0.080287	-2.732680	0.032915	-0.015548	0.065321	1.000000	-0.000006	0.000023	0.000057	178.135388	-74.137195	168.263435
31747	9.476180	0.073696	-2.702457	0.007283	-0.015765	0.041570	1.000000	0.000006	0.000002	0.000032	178.135022	-74.134953	168.265669
31748	9.494764	0.083559	-2.690177	-0.006954	-0.002316	0.056179	1.000000	-0.000027	0.000031	0.000046	178.135860	-74.136074	168.261926
31749	9.460279	0.066614	-2.671718	-0.018920	-0.016531	0.017814	1.000000	-0.000009	0.000015	0.000034	178.134455	-74.135260	168.263476
31750	9.476714	0.089809	-2.717589	0.025004	-0.003449	0.046361	1.000000	-0.000009	0.000029	0.000047	178.138081	-74.136141	168.258430
31751	9.495161	0.081475	-2.688841	-0.008673	-0.003983	0.056178	1.000000	-0.000009	0.000022	0.000031	178.135371	-74.136213	168.261342
31752	9.479561	0.111563	-2.690931	0.004576	0.023753	0.042010	1.000000	-0.000016	0.000033	0.000031	178.131536	-74.137449	168.264163
31753	9.479504	0.092835	-2.674183	-0.015435	0.009223	0.037213	1.000000	-0.000009	0.000015	0.000034	178.130133	-74.136635	168.265712
31754	9.461111	0.081621	-2.685833	-0.002344	-0.005321	0.022603	1.000000	-0.000013	0.000019	0.000044	178.131952	-74.136314	168.264035
31755	9.461239	0.080826	-2.685404	-0.002918	-0.005875	0.022603	1.000000	-0.000002	0.000026	0.000045	178.135363	-74.136879	168.261393
31756	9.496012	0.096399	-2.702928	0.007877	0.007220	0.060977	1.000000	-0.000016	0.000025	0.000034	178.132841	-74.137198	168.263443
31757	9.443009	0.068952	-2.696499	0.009606	-0.020967	0.007992	1.000000	-0.000005	0.000017	0.000041	178.134499	-74.136630	168.262214
31758	9.512196	0.082579	-2.715802	0.012331	-0.008209	0.079939	1.000000	-0.000013	0.000027	0.000041	178.135031	-74.137191	168.261895
31759	9.477904	0.083871	-2.713627	0.019821	-0.008429	0.046370	1.000000	-0.000009	0.000022	0.000031	178.132322	-74.137262	168.264806
31760	9.445923	0.089934	-2.669624	-0.011400	0.005682	0.003640	1.000000	0.000002	0.000014	0.000038	178.133855	-74.136429	168.264571
31761	9.480691	0.105327	-2.687200	-0.000616	0.018767	0.042021	1.000000	-0.000006	0.000031	0.000054	178.140464	-74.137511	168.258127
31762	9.480611	0.086419	-2.670471	-0.020619	0.004233	0.037207	1.000000	-0.000019	0.000015	0.000030	178.136162	-74.136719	168.261028
31763	9.478442	0.081030	-2.711835	0.017523	-0.010646	0.046372	1.000000	-0.000017	0.000047	0.000044	178.137232	-74.139598	168.259062
31764	9.462666	0.092633	-2.697614	0.011340	0.003126	0.027415	1.000000	-0.000002	0.000011	0.000051	178.143271	-74.138381	168.253321
31765	9.478937	0.097468	-2.727212	0.035798	0.002226	0.051193	1.000000	-0.000009	0.000029	0.000047	178.146821	-74.139216	168.249653
31766	9.481198	0.083373	-2.668483	-0.022926	0.002012	0.037203	1.000000	-0.000009	0.000022	0.000031	178.144096	-74.139240	168.253637
31767	9.463043	0.090391	-2.696365	0.009610	0.001465	0.027417	1.000000	-0.000013	0.000019	0.000044	178.145889	-74.138942	168.251384
31768	9.478870	0.058930	-2.693372	-0.004783	-0.027396	0.041546	1.000000	-0.000009	0.000021	0.000050	178.150832	-74.138878	168.246116
31769	9.481764	0.099423	-2.683635	-0.005230	0.014332	0.042027	1.000000	-0.000005	0.000018	0.000022	178.144930	-74.138430	168.252827
31770	9.481694	0.080577	-2.666806	-0.025231	-0.000205	0.037197	1.000000	-0.000006	0.000038	0.000051	178.150257	-74.140366	168.248704
31771	9.463338	0.069130	-2.678327	-0.012112	-0.014729	0.022586	1.000000	-0.000002	0.000011	0.000051	178.156285	-74.139156	168.243334
31772	9.498324	0.102795	-2.712305	0.018066	0.012322	0.065817	1.000000	-0.000001	0.000020	0.000029	178.153514	-74.138979	168.246415
31773	9.463535	0.067739	-2.677666	-0.013253	-0.015836	0.022583	1.000000	-0.000013	0.000019	0.000044	178.155309	-74.138680	168.244162
31774	9.464126	0.103452	-2.709856	0.025014	0.011584	0.032258	1.000000	-0.000009	0.000022	0.000031	178.152699	-74.138776	168.245817
31775	9.479693	0.053980	-2.690576	-0.008794	-0.031276	0.041532	1.000000	-0.000005	0.000017	0.000041	178.154360	-74.138206	168.244586
31776	9.482611	0.094290	-2.680829	-0.009257	0.010454	0.042029	1.000000	-0.000017	0.000023	0.000053	178.159366	-74.138391	168.239932
31777	9.464454	0.101230	-2.708795	0.023285	0.009925	0.032264	1.000000	0.000006	0.000010	0.000029	178.157698	-74.137031	168.243525
31778	9.480289	0.070066	-2.705676	0.008900	-0.018951	0.046371	1.000000	-0.000023	0.000043	0.000030	178.152714	-74.139439	168.246675
31779	9.482744	0.074281	-2.663252	-0.030392	-0.005199	0.037181	1.000000	-0.000009	0.000007	0.000037	178.152617	-74.137736	168.246862
31780	9.482827	0.073676	-2.662974	-0.030974	-0.005751	0.037179	1.000000	-0.000009	0.000022	0.000031	178.149975	-74.137756	168.250424
31781	9.480406	0.050203	-2.688138	-0.012242	-0.034601	0.041517	1.000000	-0.000009	0.000030	0.000028	178.145967	-74.138711	168.254693
31782	9.481043	0.085952	-2.720270	0.026008	-0.007173	0.051222	1.000000	-0.000005	0.000017	0.000041	178.147740	-74.138144	168.252715
31783	9.499436	0.077552	-2.691478	-0.007688	-0.007766	0.060976	1.000000	-0.000020	0.000037	0.000040	178.147062	-74.139889	168.252161
31784	9.446687	0.068445	-2.701199	0.013571	-0.021878	0.012809	1.000000	-0.000023	0.000027	0.000036	178.144713	-74.140547	168.250823
31785	9.465322	0.078305	-2.688734	-0.000713	-0.008482	0.027418	1.000000	0.000002	0.000022	0.000036	178.144940	-74.140589	168.251973
31786	9.484167	0.106299	-2.692746	0.004399	0.018903	0.046888	1.000000	-0.000009	0.000007	0.000037	178.144827	-74.138839	168.252385
31787	9.484001	0.087500	-2.676137	-0.015584	0.004357	0.042026	1.000000	-0.000023	0.000027	0.000036	178.142390	-74.139452	168.253248
31788	9.481566	0.063819	-2.701351	0.003157	-0.024489	0.046362	1.000000	-0.000009	0.000021	0.000050	178.147314	-74.139433	168.247330
31789	9.468571	0.116676	-2.677987	-0.002914	0.031586	0.027946	1.000000	-0.000001	0.000012	0.000032	178.145783	-74.138343	168.249898
31790	9.499994	0.054780	-2.672396	-0.031110	-0.025649	0.056100	1.000000	-0.000016	0.000025	0.000034	178.143226	-74.138717	168.250885
31791	9.468839	0.115574	-2.677089	-0.004058	0.030477	0.027949	1.000000	-0.000016	0.000033	0.000031	178.139354	-74.139943	168.254132
31792	9.466149	0.073669	-2.685951	-0.004720	-0.012357	0.027413	1.000000	-0.000006	0.000023	0.000057	178.147375	-74.140158	168.245481
31793	9.468816	0.095796	-2.659971	-0.024606	0.015378	0.023077	1.000000	0.000006	0.000010	0.000029	178.145711	-74.138796	168.249070
31794	9.484848	0.082743	-2.673282	-0.019590	0.000475	0.042020	1.000000	-0.000023	0.000027	0.000036	178.143334	-74.139410	168.249280
31795	9.485288	0.100335	-2.689024	-0.000764	0.013912	0.046897	1.000000	0.000002	0.000030	0.000033	178.142261	-74.140337	168.251788
31796	9.469210	0.094004	-2.658634	-0.026327	0.013718	0.023075	1.000000	-0.000016	0.000017	0.000037	178.141038	-74.139797	168.252356
31797	9.487802	0.103858	-2.646323	-0.040630	0.027096	0.037683	1.000000	-0.000009	0.000015	0.000034	178.139641	-74.138978	168.253901
31798	9.467095	0.088041	-2.700013	0.011242	-0.001684	0.032290	1.000000	-0.000009	0.000015	0.000034	178.138255	-74.138169	168.255832
31799	9.485385	0.079602	-2.671475	-0.022461	-0.002303	0.042013	1.000000	-0.000013	0.000011	0.000047	178.141357	-74.136983	168.252215
31800	9.469832	0.109561	-2.673828	-0.009228	0.025497	0.027960	1.000000	-0.000016	0.000017	0.000037	178.140148	-74.136415	168.252952
31801	9.451432	0.098353	-2.685506	0.003931	0.011014	0.013352	1.000000	-0.000002	0.000018	0.000048	178.144879	-74.136087	168.248936
31802	9.485914	0.095449	-2.686992	-0.004795	0.010033	0.046901	1.000000	0.000002	-0.000001	0.000044	178.149093	-74.133453	168.246543
31803	9.485990	0.094740	-2.686748	-0.005371	0.009478	0.046901	1.000000	-0.000023	0.000027	0.000036	178.146661	-74.134065	168.247405
31804	9.501752	0.063437	-2.683662	-0.019753	-0.019433	0.060944	1.000000	0.000002	0.000022	0.000036	178.146975	-74.134119	168.247824
31805	9.467761	0.082904	-2.697841	0.007221	-0.005553	0.032292	1.000000	-0.000002	0.000026	0.000045	178.150405	-74.134675	168.245168
31806	9.485809	0.056199	-2.652761	-0.045869	-0.020184	0.037102	1.000000	-0.000013	0.000027	0.000041	178.150937	-74.135317	168.243340
31807	9.486595	0.092014	-2.684705	-0.007659	0.007258	0.046901	1.000000	-0.000008	0.000038	0.000025	178.145637	-74.137156	168.248964
31808	9.502409	0.060722	-2.681398	-0.022043	-0.021659	0.060934	1.000000	-0.000002	0.000034	0.000042	178.147819	-74.138600	168.247761
31809	9.486612	0.072277	-2.667321	-0.028199	-0.007851	0.041996	1.000000	0.000009	0.000010	0.000055	178.156787	-74.137356	168.240624
31810	9.468533	0.079306	-2.695235	0.004369	-0.008321	0.032292	1.000000	-0.000019	0.000031	0.000024	178.149931	-74.138376	168.245825
31811	9.503086	0.076704	-2.696441	-0.004373	-0.009326	0.065836	1.000000	0.000002	0.000014	0.000039	178.151469	-74.137529	168.245609
31812	9.434322	0.080140	-2.692885	0.011387	-0.008973	-0.001252	1.000000	-0.000016	0.000017	0.000037	178.150257	-74.136953	168.246759
31813	9.468494	0.059327	-2.678029	-0.016744	-0.023983	0.027378	1.000000	-0.000012	0.000005	0.000031	178.147099	-74.135003	168.249723
31814	9.466288	0.054025	-2.719781	0.021410	-0.038814	0.036615	1.000000	-0.000016	0.000017	0.000037	178.145909	-74.134520	168.248912
31815	9.468960	0.076353	-2.693823	0.001507	-0.011089	0.032290	1.000000	-0.000001	0.000012	0.000032	178.144384	-74.133428	168.251475
31816	9.503463	0.073687	-2.695195	-0.007240	-0.012103	0.065831	1.000000	-0.000009	0.000015	0.000034	178.143048	-74.132632	168.251977
31817	9.487671	0.085637	-2.681114	-0.013392	0.001711	0.046898	1.000000	-0.000009	0.000030	0.000028	178.139052	-74.133584	168.256239
31818	9.469267	0.074631	-2.692791	-0.000205	-0.012745	0.032288	1.000000	-0.000009	0.000007	0.000037	178.139093	-74.131905	168.255334
31819	9.467100	0.069286	-2.734429	0.037937	-0.027574	0.041534	1.000000	-0.000023	0.000027	0.000036	178.136662	-74.132517	168.256196
31820	9.469859	0.091684	-2.708178	0.018038	0.000154	0.037213	1.000000	-0.000016	0.000033	0.000031	178.132935	-74.133787	168.258174
31821	9.469686	0.072893	-2.691363	-0.001917	-0.014404	0.032286	1.000000	-0.000005	0.000024	0.000038	178.133306	-74.134098	168.258294
31822	9.488353	0.082652	-2.678793	-0.016255	-0.001056	0.046893	1.000000	-0.000005	0.000032	0.000035	178.132399	-74.135278	168.260038
31823	9.454422	0.102333	-2.692911	0.010740	0.012870	0.018287	1.000000	-0.000016	0.000025	0.000034	178.129837	-74.135616	168.261920
31824	9.470506	0.089299	-2.705995	0.015747	-0.002056	0.037217	1.000000	-0.000023	0.000035	0.000033	178.126247	-74.137161	168.262608
31825	9.456980	0.105975	-2.649913	-0.029114	0.026038	0.009034	1.000000	-0.000009	0.000015	0.000034	178.124855	-74.136340	168.264148
31826	9.488937	0.080348	-2.676792	-0.018554	-0.003267	0.046889	1.000000	0.000002	0.000030	0.000033	178.123926	-74.137212	168.267446
31827	9.473544	0.110414	-2.678805	-0.005323	0.024564	0.032900	1.000000	-0.000013	0.000034	0.000038	178.123128	-74.138680	168.267907
31828	9.471043	0.086885	-2.704194	0.013443	-0.004260	0.037220	1.000000	-0.000012	-0.000003	0.000034	178.121385	-74.135844	168.269277
31829	9.510721	0.129997	-2.654216	-0.034015	0.051243	0.062119	1.000000	-0.000005	0.000024	0.000038	178.121758	-74.136154	168.269396
31830	9.471232	0.085637	-2.703571	0.012298	-0.005366	0.037220	1.000000	-0.000001	0.000020	0.000029	178.119013	-74.135963	168.272703
31831	9.508379	0.105908	-2.679057	-0.015825	0.021859	0.066438	1.000000	-0.000016	0.000025	0.000034	178.116452	-74.136301	168.274583
31832	9.473743	0.089113	-2.660699	-0.027568	0.007790	0.027955	1.000000	-0.000002	0.000026	0.000045	178.119932	-74.136839	168.272752
31833	9.490533	0.112083	-2.706348	0.016167	0.020871	0.056781	1.000000	-0.000006	0.000030	0.000054	178.126569	-74.137909	168.266288
31834	9.455551	0.076880	-2.671672	-0.014929	-0.007202	0.013345	1.000000	-0.000002	0.000026	0.000045	178.130126	-74.138511	168.262414
31835	9.456382	0.112385	-2.703865	0.023238	0.020266	0.023253	1.000000	-0.000002	0.000011	0.000051	178.136168	-74.137292	168.257029
31836	9.472055	0.080945	-2.700830	0.008859	-0.008684	0.037222	1.000000	-0.000016	0.000033	0.000031	178.132343	-74.138513	168.260948
31837	9.455946	0.074591	-2.670337	-0.016648	-0.008862	0.013341	1.000000	-0.000009	0.000029	0.000047	178.135917	-74.139339	168.257263
31838	9.490503	0.071600	-2.671485	-0.025440	-0.009924	0.046869	1.000000	-0.000002	0.000018	0.000048	178.140707	-74.139002	168.252865
31839	9.491008	0.088996	-2.687303	-0.006649	0.003533	0.051830	1.000000	-0.000020	0.000029	0.000043	178.141347	-74.139856	168.250943
31840	9.472633	0.077978	-2.698890	0.006566	-0.010899	0.037221	1.000000	-0.000001	0.000020	0.000029	178.138557	-74.139669	168.254322
31841	9.490859	0.069492	-2.670273	-0.027161	-0.011592	0.046863	1.000000	-0.000013	0.000011	0.000047	178.141665	-74.138478	168.250700
31842	9.491398	0.086913	-2.685994	-0.008375	0.001869	0.051829	1.000000	-0.000016	0.000046	0.000044	178.142824	-74.141321	168.249833
31843	9.472661	0.057727	-2.681243	-0.014523	-0.026575	0.032250	1.000000	-0.000005	0.000010	0.000025	178.138235	-74.139983	168.255175
31844	9.475745	0.098268	-2.671484	-0.015087	0.015153	0.032909	1.000000	-0.000005	0.000024	0.000038	178.138645	-74.140291	168.255735
31845	9.473271	0.074667	-2.696743	0.003693	-0.013668	0.037219	1.000000	0.000002	0.000022	0.000036	178.138892	-74.140326	168.256869
31846	9.457073	0.068420	-2.666509	-0.021806	-0.013840	0.013325	1.000000	-0.000012	0.000013	0.000028	178.134493	-74.139232	168.261559
31847	9.457544	0.086018	-2.682499	-0.003019	-0.000377	0.018301	1.000000	-0.000005	0.000016	0.000041	178.136172	-74.138653	168.260315
31848	9.473926	0.091020	-2.712132	0.021329	-0.001305	0.042197	1.000000	-0.000001	0.000012	0.000032	178.134787	-74.137574	168.262254
31849	9.457759	0.084796	-2.681780	-0.004162	-0.001479	0.018300	1.000000	-0.000023	0.000035	0.000033	178.131061	-74.139070	168.264474
31850	9.458257	0.102423	-2.697695	0.014622	0.011990	0.023284	1.000000	0.000006	0.000002	0.000032	178.130810	-74.136807	168.266825
31851	9.474292	0.089345	-2.710907	0.019605	-0.002963	0.042201	1.000000	-0.000023	0.000043	0.000030	178.125784	-74.139188	168.270404
31852	9.476276	0.075173	-2.652097	-0.039035	-0.003289	0.027919	1.000000	-0.000002	0.000018	0.000048	178.130664	-74.138879	168.265674
31853	9.440144	0.090080	-2.708422	0.026710	-0.003524	0.008680	1.000000	-0.000016	0.000017	0.000037	178.129407	-74.138329	168.266192
31854	9.492791	0.079399	-2.681299	-0.015273	-0.004782	0.051820	1.000000	-0.000020	0.000021	0.000046	178.131379	-74.138300	168.263284
31855	9.474409	0.068295	-2.692913	-0.002040	-0.019195	0.037211	1.000000	-0.000013	0.000027	0.000041	178.131891	-74.138879	168.262379
31856	9.459047	0.098411	-2.695076	0.011188	0.008677	0.023292	1.000000	-0.000009	0.000022	0.000031	178.129249	-74.138969	168.265199
31857	9.493179	0.077453	-2.679982	-0.016994	-0.006450	0.051816	1.000000	-0.000023	0.000019	0.000039	178.128124	-74.138693	168.264698
31858	9.458906	0.078992	-2.677909	-0.009312	-0.006450	0.018295	1.000000	-0.000012	0.000034	0.000038	178.127380	-74.140141	168.265387
31859	9.474936	0.065907	-2.691118	-0.004333	-0.021411	0.037205	1.000000	-0.000005	0.000010	0.000025	178.122795	-74.138801	168.270725
31860	9.461756	0.100874	-2.651393	-0.029811	0.020698	0.013989	1.000000	-0.000008	0.000030	0.000028	178.118852	-74.139835	168.273373
31861	9.491494	0.070554	-2.720201	0.019434	-0.022908	0.061118	1.000000	-0.000009	0.000015	0.000034	178.117467	-74.139011	168.274909
31862	9.477863	0.087254	-2.664342	-0.025394	0.005181	0.032898	1.000000	-0.000012	0.000013	0.000028	178.113086	-74.138025	168.277887
31863	9.462918	0.135664	-2.682826	0.007175	0.047083	0.024005	1.000000	0.000002	0.000030	0.000033	178.112040	-74.138942	168.280377
31864	9.475953	0.081349	-2.705349	0.012173	-0.010161	0.042208	1.000000	-0.000020	0.000029	0.000043	178.112731	-74.139792	168.278388
31865	9.479115	0.121659	-2.695495	0.011573	0.031565	0.042919	1.000000	0.000013	0.000014	0.000043	178.117221	-74.138907	168.276391
31866	9.495146	0.108498	-2.708704	0.016539	0.016603	0.061830	1.000000	-0.000019	0.000031	0.000024	178.110386	-74.139843	168.283619
31867	9.494879	0.089831	-2.691895	-0.003381	0.002022	0.056816	1.000000	-0.000023	0.000027	0.000036	178.107962	-74.140451	168.284479
31868	9.460593	0.091292	-2.689893	0.004323	0.002043	0.023301	1.000000	-0.000009	0.000021	0.000050	178.112883	-74.140394	168.279249
31869	9.479194	0.100859	-2.677550	-0.010078	0.015327	0.037908	1.000000	-0.000009	0.000007	0.000037	178.112798	-74.138684	168.279424
31870	9.442251	0.079486	-2.701400	0.017000	-0.012896	0.008694	1.000000	-0.000013	0.000027	0.000041	178.113403	-74.139235	168.279325
31871	9.495774	0.105210	-2.706629	0.013653	0.013832	0.061839	1.000000	-0.000016	0.000025	0.000034	178.110850	-74.139570	168.281201
31872	9.461060	0.088577	-2.688342	0.002020	-0.000168	0.023302	1.000000	-0.000013	0.000027	0.000041	178.111344	-74.140129	168.280896
31873	9.460738	0.069465	-2.671695	-0.017891	-0.014751	0.018274	1.000000	-0.000006	0.000015	0.000060	178.120595	-74.139420	168.271699
31874	9.495688	0.084678	-2.689207	-0.007424	-0.001861	0.056813	1.000000	-0.000019	0.000015	0.000030	178.116329	-74.138580	168.275718
31875	9.461351	0.086288	-2.687392	0.000292	-0.001826	0.023302	1.000000	0.000002	0.000014	0.000039	178.117885	-74.137724	168.275484
31876	9.495903	0.083449	-2.688487	-0.008568	-0.002973	0.056812	1.000000	-0.000016	0.000032	0.000031	178.114079	-74.138982	168.278847
31877	9.477548	0.072553	-2.700008	0.004694	-0.017355	0.042204	1.000000	0.000010	0.000027	0.000030	178.112909	-74.139624	168.282350
31878	9.462224	0.102633	-2.702222	0.017921	0.010544	0.028339	1.000000	-0.000005	0.000016	0.000041	178.114627	-74.139099	168.280278
31879	9.477781	0.071217	-2.699224	0.003556	-0.018466	0.042203	1.000000	-0.000009	0.000022	0.000031	178.111946	-74.139160	168.283171
31880	9.465114	0.124280	-2.675620	-0.002601	0.037683	0.024047	1.000000	-0.000005	0.000032	0.000035	178.111067	-74.140406	168.283819
31881	9.478063	0.070003	-2.698264	0.002417	-0.019577	0.042201	1.000000	-0.000009	0.000015	0.000034	178.109684	-74.139580	168.285352
31882	9.462721	0.100093	-2.700578	0.015633	0.008330	0.028345	1.000000	-0.000013	0.000019	0.000044	178.111542	-74.139270	168.283482
31883	9.478727	0.086777	-2.713844	0.020599	-0.006651	0.047246	1.000000	-0.000013	0.000019	0.000044	178.113359	-74.138960	168.281213
31884	9.462490	0.080400	-2.683561	-0.004854	-0.006805	0.023298	1.000000	-0.000005	0.000024	0.000038	178.113836	-74.139196	168.282388
31885	9.478968	0.085329	-2.713049	0.019439	-0.007754	0.047247	1.000000	-0.000005	0.000016	0.000041	178.115523	-74.138612	168.281135
31886	9.481252	0.089274	-2.670668	-0.019844	0.005902	0.037904	1.000000	-0.000013	0.000027	0.000041	178.116098	-74.139233	168.279200
31887	9.478771	0.065620	-2.695888	-0.001029	-0.022898	0.042194	1.000000	-0.000002	0.000026	0.000045	178.119559	-74.139778	168.276521
31888	9.463012	0.077561	-2.681804	-0.007141	-0.009018	0.023295	1.000000	-0.000019	0.000023	0.000027	178.114007	-74.139862	168.282092
31889	9.479498	0.082556	-2.711284	0.017147	-0.009968	0.047250	1.000000	-0.000002	0.000018	0.000048	178.118765	-74.139521	168.278053
31890	9.463287	0.075993	-2.680879	-0.008292	-0.010125	0.023293	1.000000	-0.000006	0.000038	0.000051	178.124163	-74.141438	168.273753
31891	9.463435	0.075293	-2.680374	-0.008865	-0.010679	0.023292	1.000000	-0.000019	0.000015	0.000030	178.119842	-74.140643	168.277055
31892	9.479914	0.080362	-2.709892	0.015422	-0.011628	0.047251	1.000000	0.000002	0.000022	0.000036	178.120155	-74.140689	168.277609
31893	9.464146	0.092314	-2.695855	0.009312	0.002253	0.028356	1.000000	-0.000009	0.000022	0.000031	178.117478	-74.140748	168.280501
31894	9.484972	0.106693	-2.641257	-0.043832	0.029704	0.033607	1.000000	-0.000005	0.000032	0.000035	178.116612	-74.141981	168.280969
31895	9.480330	0.078526	-2.708490	0.013705	-0.013293	0.047251	1.000000	-0.000016	0.000017	0.000037	178.115361	-74.141428	168.281484
31896	9.467204	0.113423	-2.668702	-0.011797	0.028832	0.024071	1.000000	-0.000008	0.000030	0.000028	178.111440	-74.142386	168.285742
31897	9.481081	0.095640	-2.723866	0.031877	-0.000360	0.052325	1.000000	-0.000009	0.000015	0.000034	178.110060	-74.141559	168.287274
31898	9.480715	0.076946	-2.707189	0.011979	-0.014953	0.047251	1.000000	-0.000019	0.000031	0.000024	178.103171	-74.142500	168.293641
31899	9.483518	0.099466	-2.680878	-0.007996	0.012730	0.042965	1.000000	-0.000019	0.000031	0.000024	178.096254	-74.143476	168.299662
31900	9.465144	0.088573	-2.692475	0.005299	-0.001620	0.028359	1.000000	0.000006	0.000024	0.000042	178.099619	-74.143745	168.298112
31901	9.448895	0.082167	-2.662139	-0.020119	-0.001774	0.004386	1.000000	-0.000013	0.000027	0.000041	178.100142	-74.144319	168.297200
31902	9.449531	0.099653	-2.677933	-0.001378	0.011718	0.009469	1.000000	-0.000020	0.000021	0.000046	178.102161	-74.144282	168.293982
31903	9.481416	0.073812	-2.704819	0.009107	-0.017724	0.047249	1.000000	-0.000009	0.000014	0.000034	178.100782	-74.143455	168.295513
31904	9.465653	0.085593	-2.690782	0.003003	-0.003831	0.028359	1.000000	-0.000006	0.000030	0.000054	178.107500	-74.144506	168.289718
31905	9.465803	0.084892	-2.690277	0.002429	-0.004385	0.028359	1.000000	-0.000019	0.000023	0.000027	178.101882	-74.144596	168.294380
31906	9.466398	0.102576	-2.706240	0.021168	0.009106	0.033450	1.000000	-0.000009	0.000007	0.000037	178.101837	-74.142897	168.294285
31907	9.465471	0.065526	-2.673432	-0.018025	-0.019538	0.023266	1.000000	-0.000023	0.000027	0.000036	178.099420	-74.143504	168.295143
31908	9.482489	0.088629	-2.719196	0.025555	-0.006451	0.052341	1.000000	0.000006	0.000008	0.000048	178.105370	-74.142058	168.289737
31909	9.482036	0.069707	-2.702756	0.005672	-0.021052	0.047246	1.000000	-0.000012	0.000013	0.000028	178.100922	-74.140988	168.294054
31910	9.482140	0.069130	-2.702406	0.005100	-0.021605	0.047245	1.000000	-0.000005	0.000024	0.000038	178.101380	-74.141301	168.293867
31911	9.466383	0.081094	-2.688354	-0.000999	-0.007709	0.028357	1.000000	-0.000008	0.000022	0.000031	178.098707	-74.141359	168.296755
31912	9.467028	0.098658	-2.704183	0.017738	0.005788	0.033459	1.000000	-0.000020	0.000021	0.000046	178.100765	-74.141344	168.293089
31913	9.466606	0.079616	-2.687613	-0.002141	-0.008814	0.028356	1.000000	0.000013	0.000014	0.000043	178.105274	-74.140450	168.291075
31914	9.464570	0.074299	-2.729319	0.036006	-0.023547	0.037741	1.000000	-0.000019	0.000015	0.000030	178.101049	-74.139682	168.293722
31915	9.501276	0.076022	-2.688238	-0.011652	-0.010599	0.061845	1.000000	-0.000016	0.000046	0.000044	178.102184	-74.142542	168.291722
31916	9.466509	0.059367	-2.669901	-0.023166	-0.024520	0.023244	1.000000	-0.000013	0.000019	0.000044	178.104043	-74.142183	168.290319
31917	9.486212	0.105253	-2.689899	0.000969	0.016797	0.048071	1.000000	-0.000002	0.000018	0.000048	178.108810	-74.141837	168.286272
31918	9.467282	0.076069	-2.685331	-0.005002	-0.011580	0.028352	1.000000	-0.000008	0.000030	0.000028	178.104884	-74.142837	168.289491
31919	9.484385	0.099221	-2.730934	0.038543	0.001508	0.057466	1.000000	-0.000009	0.000021	0.000050	178.109781	-74.142766	168.284428
31920	9.483444	0.062013	-2.698000	-0.000632	-0.027146	0.047232	1.000000	0.000010	0.000027	0.000030	178.108649	-74.143388	168.287853
31921	9.467668	0.073891	-2.684033	-0.006725	-0.013242	0.028349	1.000000	-0.000013	0.000011	0.000047	178.111769	-74.142189	168.284219
31922	9.486820	0.101734	-2.687889	-0.001888	0.014023	0.048076	1.000000	-0.000019	0.000015	0.000030	178.107556	-74.141471	168.286538
31923	9.467860	0.072735	-2.683387	-0.007858	-0.014349	0.028347	1.000000	-0.000023	0.000027	0.000036	178.105142	-74.142077	168.287394
31924	9.468543	0.090295	-2.699167	0.010876	-0.000850	0.033471	1.000000	-0.000020	0.000021	0.000046	178.107189	-74.142105	168.282944
31925	9.484521	0.077015	-2.712455	0.015818	-0.015867	0.052351	1.000000	-0.000001	0.000012	0.000032	178.105686	-74.141002	168.285487
31926	9.452316	0.083342	-2.668645	-0.015078	-0.001543	0.009464	1.000000	-0.000012	0.000027	0.000041	178.106310	-74.141595	168.284196
31927	9.452485	0.082669	-2.668067	-0.015651	-0.002097	0.009463	1.000000	-0.000012	0.000034	0.000038	178.105546	-74.143053	168.284637
31928	9.487049	0.079685	-2.669018	-0.024631	-0.003355	0.042945	1.000000	-0.000023	0.000019	0.000039	178.104463	-74.142691	168.285902
31929	9.503571	0.084702	-2.698579	-0.000400	-0.004323	0.066956	1.000000	0.000006	0.000010	0.000029	178.102833	-74.141312	168.289460
31930	9.469314	0.086389	-2.696588	0.007424	-0.004161	0.033473	1.000000	-0.000016	0.000046	0.000044	178.104106	-74.144178	168.287363
31931	9.485958	0.091469	-2.725736	0.031653	-0.005128	0.057489	1.000000	-0.000004	0.000026	0.000019	178.096941	-74.144604	168.295411
31932	9.472852	0.126380	-2.685987	0.006142	0.037010	0.034344	1.000000	-0.000005	0.000016	0.000041	178.098715	-74.144037	168.293788
31933	9.469168	0.066324	-2.678933	-0.013582	-0.019878	0.028331	1.000000	-0.000013	0.000019	0.000044	178.100543	-74.143723	168.291511
31934	9.473083	0.124969	-2.685240	0.004974	0.035905	0.034349	1.000000	-0.000016	0.000025	0.000034	178.098028	-74.143962	168.294769
31935	9.469410	0.065010	-2.678109	-0.014743	-0.020984	0.028327	1.000000	-0.000013	0.000019	0.000044	178.099857	-74.143647	168.292492
31936	9.472743	0.105508	-2.668243	-0.015455	0.020738	0.029205	1.000000	-0.000004	0.000018	0.000022	178.094024	-74.143228	168.298513
31937	9.504617	0.079634	-2.695049	-0.005009	-0.008763	0.066952	1.000000	-0.000017	0.000023	0.000053	178.099054	-74.143429	168.292432
31938	9.470276	0.081229	-2.693366	0.002825	-0.008586	0.033473	1.000000	0.000006	0.000002	0.000032	178.098775	-74.141145	168.294792
31939	9.488307	0.072388	-2.664750	-0.030956	-0.009458	0.042924	1.000000	-0.000006	0.000022	0.000057	178.106750	-74.141312	168.286937
31940	9.486386	0.066921	-2.706193	0.007197	-0.024172	0.052344	1.000000	-0.000012	0.000034	0.000038	178.106025	-74.142836	168.286595
31941	9.491852	0.111911	-2.654208	-0.032247	0.031706	0.043810	1.000000	-0.000005	0.000016	0.000041	178.107727	-74.142246	168.285332
31942	9.489321	0.088443	-2.679517	-0.013395	0.002936	0.048076	1.000000	-0.000008	0.000030	0.000028	178.103805	-74.143139	168.290412
31943	9.487363	0.083174	-2.721109	0.024745	-0.011774	0.057503	1.000000	-0.000013	0.000011	0.000047	178.106929	-74.141938	168.286776
