// Start Time: Unknown
// Update Rate: 100.0Hz
// Filter Profile: human (46.1)
// Firmware Version: 4.4.0
PacketCounter	Acc_X	Acc_Y	Acc_Z	FreeAcc_X	FreeAcc_Y	FreeAcc_Z	OriInc_q0	OriInc_q1	OriInc_q2	OriInc_q3	Roll	Pitch	Yaw
35453	9.540894	0.110095	-2.479311	-0.000000	-0.000000	0.045698	1.000000	-0.000013	0.000030	0.000030	177.451878	-75.417673	174.959443
35454	9.524286	0.139298	-2.473174	0.000313	0.013435	0.028442	1.000000	-0.000010	0.000022	0.000024	177.091080	-75.418009	175.077081
35455	9.551205	0.120713	-2.509373	0.026210	-0.008800	0.063358	1.000000	-0.000009	0.000017	0.000032	177.103606	-75.420190	175.063042
35456	9.541246	0.108540	-2.478024	-0.002452	-0.016377	0.045684	1.000000	-0.000013	0.000026	0.000037	177.117428	-75.423518	175.047636
35457	9.527975	0.116939	-2.459239	-0.015401	-0.005259	0.028226	1.000000	-0.000013	0.000026	0.000037	177.131862	-75.426710	175.031208
35458	9.538186	0.127854	-2.489698	0.013286	0.002295	0.045900	1.000000	-0.000032	0.000023	0.000043	177.146631	-75.429589	175.012179
35459	9.521558	0.097335	-2.486492	0.010998	-0.027508	0.028619	1.000000	-0.000011	0.000045	0.000017	177.152011	-75.434849	175.005345
35460	9.538515	0.127002	-2.488481	0.013279	0.002310	0.045900	1.000000	0.000006	0.000014	0.000024	177.163497	-75.436525	174.994190
35461	9.548666	0.124103	-2.447075	-0.028851	0.005897	0.045291	1.000000	-0.000015	0.000026	0.000058	177.186708	-75.439866	174.968433
35462	9.538728	0.125473	-2.487740	0.013281	0.002320	0.045900	1.000000	-0.000013	0.000011	0.000030	177.198306	-75.441266	174.954893
35463	9.525414	0.133966	-2.469122	0.000333	0.013437	0.028442	1.000000	-0.000005	0.000024	0.000034	177.212076	-75.444225	174.940045
35464	9.552352	0.115169	-2.505264	0.026223	-0.008799	0.063358	1.000000	-0.000005	0.000020	0.000041	177.229215	-75.446709	174.921790
35465	9.525666	0.132643	-2.468218	0.000325	0.013435	0.028442	1.000000	-0.000013	0.000030	0.000030	177.240278	-75.450322	174.908767
35466	9.525759	0.132064	-2.467892	0.000294	0.013429	0.028442	1.000000	-0.000032	0.000003	0.000042	177.255079	-75.450771	174.889705
35467	9.515830	0.133549	-2.508556	0.042423	0.009842	0.029051	1.000000	0.000018	0.000034	0.000031	177.269874	-75.454839	174.876537
35468	9.539438	0.121759	-2.485203	0.013168	0.002282	0.045900	1.000000	-0.000013	0.000030	0.000030	177.280113	-75.458035	174.864310
35469	9.526131	0.130223	-2.466551	0.000219	0.013400	0.028442	1.000000	-0.000020	0.000008	0.000041	177.295631	-75.459215	174.845889
35470	9.536317	0.141155	-2.497204	0.028815	0.020902	0.046117	1.000000	-0.000017	0.000019	0.000035	177.307671	-75.461129	174.831377
35471	9.559868	0.129341	-2.474042	-0.000366	0.013372	0.062965	1.000000	-0.000005	0.000024	0.000034	177.321486	-75.464080	174.816483
35472	9.543137	0.098639	-2.471147	-0.002777	-0.016520	0.045684	1.000000	-0.000009	0.000013	0.000039	177.335218	-75.465149	174.801124
35473	9.526529	0.127661	-2.465148	0.000009	0.013264	0.028442	1.000000	-0.000005	0.000024	0.000034	177.349043	-75.468097	174.786219
35474	9.523194	0.087833	-2.480574	0.010556	-0.027738	0.028619	1.000000	-0.000008	0.000009	0.000047	177.366382	-75.468778	174.767245
35475	9.550252	0.128669	-2.513669	0.041525	0.009614	0.063577	1.000000	-0.000020	0.000028	0.000041	177.381636	-75.472175	174.749078
35476	9.546958	0.134888	-2.454013	-0.013722	0.024265	0.045507	1.000000	-0.000020	0.000008	0.000041	177.395580	-75.472395	174.732243
35477	9.526915	0.125008	-2.463793	-0.000275	0.013129	0.028443	1.000000	-0.000011	0.000026	0.000017	177.401355	-75.475423	174.725027
35478	9.540457	0.115416	-2.481588	0.012524	0.001907	0.045901	1.000000	0.000007	0.000025	0.000040	177.416420	-75.477683	174.710074
35479	9.517156	0.125952	-2.503915	0.041706	0.009437	0.029055	1.000000	-0.000017	0.000019	0.000035	177.429767	-75.480072	174.694296
35480	9.520557	0.104720	-2.490861	0.025733	-0.009345	0.028837	1.000000	-0.000005	0.000024	0.000034	177.440427	-75.481693	174.682414
35481	9.514118	0.145273	-2.515696	0.057202	0.027987	0.029275	1.000000	-0.000012	0.000022	0.000045	177.458430	-75.484428	174.662378
35482	9.537630	0.133377	-2.492612	0.027665	0.020321	0.046122	1.000000	-0.000021	0.000012	0.000033	177.466690	-75.484044	174.650940
35483	9.507492	0.111867	-2.471341	0.012433	0.001638	0.011379	1.000000	-0.000009	0.000037	0.000032	177.479083	-75.488425	174.637016
35484	9.561306	0.121060	-2.468899	-0.001927	0.012622	0.062966	1.000000	0.000006	0.000014	0.000024	177.485545	-75.487853	174.630692
35485	9.484491	0.181569	-2.490148	0.046282	0.068589	-0.005418	1.000000	0.000000	0.000023	0.000051	177.507510	-75.490698	174.608004
35486	9.558221	0.094062	-2.555814	0.079069	-0.024629	0.081441	1.000000	-0.000046	0.000022	0.000057	177.519437	-75.490969	174.589573
35487	9.561726	0.178664	-2.464980	0.002671	0.071919	0.063014	1.000000	0.000054	-0.000021	-0.000011	177.521302	-75.488509	174.594047
35488	9.540637	-0.097842	-2.343295	-0.146329	-0.185825	0.009146	1.000000	-0.000125	0.000064	0.000107	177.544003	-75.493468	174.555040
35489	9.562602	0.356110	-2.454644	0.017350	0.250331	0.063166	1.000000	0.000075	-0.000011	0.000006	177.555682	-75.492258	174.551850
35490	9.360170	-0.096815	-2.574081	0.121112	-0.218961	-0.107769	1.000000	-0.000004	0.000070	0.000057	177.568263	-75.498994	174.537894
35491	9.616535	0.396532	-2.304420	-0.133467	0.312709	0.078204	1.000000	0.000017	0.000003	0.000015	177.576861	-75.499438	174.531004
35492	9.736564	-0.094464	-2.853092	0.296137	-0.244849	0.326449	1.000000	0.000023	0.000045	0.000005	177.567343	-75.503002	174.542374
35493	9.424940	0.240315	-2.367781	-0.046475	0.144833	-0.093094	1.000000	-0.000129	-0.000097	0.000045	177.574435	-75.492087	174.519818
35494	9.437726	0.083567	-2.247884	-0.185829	0.006275	-0.112375	1.000000	0.000127	0.000155	0.000034	177.591646	-75.507021	174.516959
35495	9.536152	0.113102	-2.646483	0.177321	-0.014835	0.082928	1.000000	-0.000119	-0.000018	0.000073	177.610452	-75.505274	174.483423
35496	9.556462	0.259906	-2.410960	-0.033978	0.162882	0.045231	1.000000	0.000100	0.000038	-0.000017	177.605340	-75.505903	174.499886
35497	9.535815	0.038829	-2.577420	0.100784	-0.078684	0.064561	1.000000	-0.000113	-0.000031	0.000054	177.616822	-75.502568	174.474669
35498	9.488903	0.138890	-2.401009	-0.043856	0.043289	-0.023938	1.000000	0.000030	0.000015	0.000036	177.624877	-75.500326	174.468615
35499	9.388493	0.151176	-2.448342	0.028487	0.047223	-0.109183	1.000000	-0.000064	0.000004	0.000035	177.632810	-75.500851	174.452852
35500	9.572885	0.076444	-2.569698	0.088448	-0.038699	0.098922	1.000000	0.000022	0.000002	0.000032	177.636248	-75.499304	174.452081
35501	9.599884	0.195414	-2.380945	-0.082865	0.105949	0.079065	1.000000	0.000007	0.000006	0.000039	177.654345	-75.500099	174.434230
35502	9.522434	-0.001399	-2.633964	0.152158	-0.124690	0.065360	1.000000	-0.000054	0.000005	0.000061	177.661616	-75.499822	174.419134
35503	9.516461	0.236664	-2.430575	-0.008481	0.139129	0.011126	1.000000	0.000041	0.000024	0.000027	177.677863	-75.502765	174.407225
35504	9.555989	-0.016387	-2.569417	0.080217	-0.129208	0.081552	1.000000	-0.000040	0.000025	0.000046	177.678899	-75.502532	174.401315
35505	9.593786	0.187580	-2.479832	0.013457	0.086519	0.097802	1.000000	0.000023	0.000037	0.000040	177.698525	-75.506938	174.383724
35506	9.526589	0.080658	-2.540934	0.074392	-0.029122	0.046946	1.000000	0.000005	0.000053	0.000025	177.697974	-75.508917	174.383541
35507	9.493326	0.125688	-2.456833	0.009195	0.026513	-0.005838	1.000000	-0.000012	0.000041	0.000045	177.715845	-75.513877	174.363626
35508	9.540240	0.102285	-2.410650	-0.049885	0.011037	0.027804	1.000000	-0.000027	0.000025	0.000052	177.724612	-75.513263	174.351012
35509	9.504136	0.195464	-2.483362	0.042253	0.093241	0.011946	1.000000	0.000025	0.000036	0.000020	177.735469	-75.517552	174.342740
35510	9.540443	0.055267	-2.484792	0.015253	-0.045034	0.046067	1.000000	-0.000049	0.000000	0.000027	177.730614	-75.514521	174.339003
35511	9.500536	0.141899	-2.426684	-0.018460	0.047940	-0.006237	1.000000	-0.000022	0.000017	0.000026	177.739444	-75.516600	174.327317
35512	9.540876	0.114248	-2.481113	0.019716	0.014016	0.046152	1.000000	-0.000010	0.000022	0.000024	177.734820	-75.515894	174.333029
35513	9.530738	0.102269	-2.450018	-0.008939	0.006477	0.028445	1.000000	-0.000029	-0.000001	0.000029	177.744527	-75.515981	174.319601
35514	9.534262	0.094797	-2.509120	0.045539	-0.008759	0.046556	1.000000	-0.000012	0.000022	0.000045	177.749166	-75.515605	174.315336
35515	9.534623	0.153840	-2.505773	0.050619	0.050823	0.046646	1.000000	-0.000009	-0.000002	0.000032	177.762033	-75.515581	174.301023
35516	9.557976	0.096043	-2.557939	0.086729	-0.012806	0.081730	1.000000	-0.000009	0.000017	0.000032	177.763423	-75.515617	174.298200
35517	9.547947	0.129828	-2.451529	-0.007641	0.035286	0.045753	1.000000	0.000014	0.000027	0.000029	177.777128	-75.518974	174.285748
35518	9.551580	0.122285	-2.510244	0.046765	0.020131	0.063869	1.000000	-0.000016	0.000035	0.000043	177.782114	-75.519605	174.278113
35519	9.508319	0.169469	-2.467410	0.023726	0.072186	0.011730	1.000000	0.000010	0.000036	0.000034	177.797796	-75.523975	174.263202
35520	9.538192	0.070252	-2.493877	0.027972	-0.028934	0.046311	1.000000	-0.000013	0.000026	0.000037	177.796545	-75.522748	174.265308
35521	9.531988	0.156800	-2.443479	-0.006272	0.064027	0.028544	1.000000	-0.000009	0.000033	0.000040	177.812368	-75.526778	174.248024
35522	9.505254	0.128484	-2.481530	0.032562	0.030054	0.011894	1.000000	-0.000010	0.000022	0.000024	177.805169	-75.523681	174.256423
35523	9.532233	0.155574	-2.442600	-0.007297	0.063411	0.028547	1.000000	-0.000004	0.000016	0.000049	177.825806	-75.525782	174.234768
35524	9.522038	0.097294	-2.486572	0.029136	-0.000310	0.029105	1.000000	-0.000020	0.000008	0.000041	177.827152	-75.523564	174.230167
35525	9.545743	0.144983	-2.460582	0.005006	0.051715	0.046014	1.000000	-0.000016	-0.000004	0.000043	177.844049	-75.523321	174.210945
35526	9.562406	0.114650	-2.466030	0.001725	0.021379	0.063223	1.000000	-0.000018	0.000023	0.000028	177.840666	-75.523672	174.210700
35527	9.535627	0.086422	-2.504233	0.041608	-0.011995	0.046570	1.000000	-0.000002	0.000016	0.000028	177.852504	-75.525651	174.198393
35528	9.549460	0.136355	-2.519115	0.059531	0.035970	0.064148	1.000000	-0.000027	0.000006	0.000052	177.860904	-75.526513	174.184751
35529	9.556287	0.154119	-2.490380	0.033150	0.058209	0.063743	1.000000	0.000002	0.000026	0.000023	177.870581	-75.529749	174.175081
35530	9.552847	0.114393	-2.505790	0.043473	0.016720	0.063891	1.000000	0.000004	0.000014	0.000045	177.876704	-75.529939	174.169067
35531	9.539529	0.122771	-2.487201	0.030572	0.027845	0.046427	1.000000	0.000010	0.000021	0.000027	177.889091	-75.532549	174.157573
35532	9.523069	0.151903	-2.481079	0.032246	0.057074	0.029232	1.000000	-0.000001	0.000031	0.000036	177.888331	-75.529982	174.157670
35533	9.533134	0.149102	-2.439486	-0.009868	0.060644	0.028562	1.000000	0.000002	0.000026	0.000023	177.898002	-75.533202	174.148010
35534	9.496131	0.109131	-2.446767	0.000243	0.019121	-0.005817	1.000000	-0.000012	0.000018	0.000052	177.902295	-75.529325	174.141611
35535	9.530159	0.168169	-2.451430	0.004754	0.078671	0.028832	1.000000	-0.000008	0.000009	0.000047	177.921688	-75.530607	174.120764
35536	9.519900	0.109878	-2.495537	0.041767	0.014769	0.029381	1.000000	-0.000012	0.000002	0.000045	177.922771	-75.531245	174.120706
35537	9.523500	0.148223	-2.479650	0.031109	0.055674	0.029244	1.000000	-0.000013	0.000007	0.000037	177.937449	-75.532243	174.104214
35538	9.510064	0.110664	-2.536372	0.083324	0.010548	0.030061	1.000000	-0.000027	0.000006	0.000052	177.941232	-75.530117	174.095333
35539	9.550488	0.128562	-2.515624	0.056380	0.032751	0.064177	1.000000	-0.000009	0.000037	0.000032	177.953558	-75.534548	174.081652
35540	9.543873	0.109452	-2.543609	0.081635	0.009761	0.064594	1.000000	-0.000008	0.000009	0.000047	177.953107	-75.529573	174.083294
35541	9.547507	0.147747	-2.527634	0.070963	0.050663	0.064460	1.000000	-0.000020	0.000008	0.000041	177.968437	-75.530721	174.065260
35542	9.567369	0.096691	-2.520193	0.051925	0.001545	0.081380	1.000000	-0.000017	0.000039	0.000036	177.965874	-75.532795	174.065793
35543	9.503548	0.074967	-2.490841	0.037330	-0.017070	0.012060	1.000000	-0.000005	0.000020	0.000041	177.982997	-75.535299	174.047760
35544	9.517547	0.124814	-2.505345	0.054744	0.030875	0.029674	1.000000	-0.000005	0.000039	0.000042	177.987347	-75.537062	174.040302
35545	9.500735	0.094229	-2.502208	0.052508	0.001086	0.012339	1.000000	0.000006	0.000033	0.000025	177.998193	-75.541016	174.029960
35546	9.527339	0.061538	-2.466247	0.006857	-0.025532	0.028840	1.000000	-0.000020	0.000024	0.000049	178.006676	-75.540036	174.013861
35547	9.507773	0.111300	-2.472695	0.025407	0.022939	0.011934	1.000000	0.000006	0.000033	0.000025	178.017601	-75.543991	174.003396
35548	9.494502	0.119760	-2.453919	0.011674	0.033374	-0.005528	1.000000	-0.000012	0.000022	0.000045	178.017185	-75.542371	174.008303
35549	9.521427	0.100900	-2.490084	0.037513	0.011071	0.029403	1.000000	0.000006	0.000014	0.000025	178.028181	-75.544087	173.997840
35550	9.525165	0.139496	-2.473752	0.025917	0.051415	0.029282	1.000000	-0.000010	0.000041	0.000025	178.021806	-75.543890	174.005295
35551	9.525334	0.138975	-2.473130	0.025918	0.051398	0.029282	1.000000	-0.000005	0.000024	0.000034	178.035469	-75.546804	173.990789
35552	9.552306	0.120104	-2.509132	0.050296	0.028557	0.064223	1.000000	-0.000020	0.000028	0.000041	178.034593	-75.542028	173.989802
35553	9.555629	0.098787	-2.495827	0.034559	0.009866	0.063935	1.000000	-0.000005	0.000044	0.000034	178.048052	-75.547091	173.975497
35554	9.522705	0.157781	-2.483911	0.039300	0.068884	0.029585	1.000000	-0.000025	0.000025	0.000032	178.042309	-75.545361	173.980784
35555	9.576156	0.106926	-2.484256	0.020165	0.020322	0.080993	1.000000	-0.000001	0.000050	0.000036	178.056969	-75.551169	173.965747
35556	9.509185	0.105975	-2.467492	0.020654	0.019623	0.011952	1.000000	-0.000009	0.000017	0.000032	178.049445	-75.549885	173.981268
35557	9.536208	0.133069	-2.428373	-0.019272	0.052926	0.028593	1.000000	-0.000029	0.000034	0.000037	178.061653	-75.553806	173.965616
35558	9.509491	0.104771	-2.466367	0.019787	0.018996	0.011955	1.000000	-0.000009	0.000033	0.000040	178.061591	-75.553123	173.966199
35559	9.516355	0.122346	-2.437465	-0.006648	0.041204	0.011541	1.000000	-0.000004	0.000016	0.000049	178.081845	-75.555013	173.945165
35560	9.536580	0.130821	-2.427036	-0.021291	0.051423	0.028597	1.000000	-0.000020	0.000008	0.000041	178.074502	-75.550041	173.960036
35561	9.536654	0.130115	-2.426781	-0.021324	0.051390	0.028597	1.000000	0.000003	0.000018	0.000038	178.090449	-75.552100	173.944352
35562	9.523240	0.092697	-2.483462	0.031588	0.006387	0.029428	1.000000	0.000002	0.000003	0.000030	178.091496	-75.553392	173.944126
35563	9.540333	0.121968	-2.485711	0.033775	0.036120	0.046783	1.000000	-0.000016	0.000015	0.000043	178.107638	-75.555164	173.925985
35564	9.570839	0.142307	-2.506234	0.047814	0.053900	0.081615	1.000000	-0.000014	-0.000000	0.000015	178.090081	-75.549452	173.952079
35565	9.540406	0.120966	-2.485483	0.032664	0.035239	0.046790	1.000000	-0.000008	0.000009	0.000047	178.108776	-75.550512	173.932339
35566	9.544086	0.159263	-2.469505	0.021106	0.075474	0.046686	1.000000	-0.000013	0.000007	0.000037	178.105999	-75.546932	173.938221
35567	9.523988	0.149330	-2.479511	0.034579	0.064356	0.029634	1.000000	-0.000009	0.000013	0.000039	178.121213	-75.548411	173.922032
35568	9.557656	0.148817	-2.487243	0.033771	0.063604	0.064160	1.000000	-0.000017	0.000019	0.000035	178.118283	-75.550016	173.927463
35569	9.504021	0.138853	-2.489046	0.047848	0.052554	0.012586	1.000000	-0.000009	0.000017	0.000032	178.130040	-75.551965	173.914801
35570	9.540779	0.117679	-2.484207	0.030185	0.033002	0.046805	1.000000	-0.000028	0.000010	0.000045	178.124508	-75.545890	173.922028
35571	9.517626	0.128320	-2.506650	0.059359	0.040575	0.030066	1.000000	-0.000008	0.000029	0.000047	178.142851	-75.549100	173.902738
35572	9.537862	0.136689	-2.496208	0.045147	0.050874	0.047126	1.000000	-0.000004	-0.000004	0.000048	178.144173	-75.545341	173.905818
35573	9.507426	0.115162	-2.475420	0.030001	0.032208	0.012289	1.000000	-0.000009	0.000017	0.000032	178.155749	-75.547200	173.893426
35574	9.517847	0.126034	-2.505928	0.057958	0.038941	0.030081	1.000000	-0.000031	0.000019	0.000050	178.153343	-75.546255	173.899735
35575	9.531366	0.116146	-2.523817	0.070820	0.027748	0.047551	1.000000	0.000003	0.000018	0.000038	178.168794	-75.548214	173.884839
35576	9.547969	0.085701	-2.529108	0.066852	-0.003274	0.064709	1.000000	-0.000009	0.000017	0.000032	178.150635	-75.544187	173.916749
35577	9.518133	0.123992	-2.504941	0.056656	0.037644	0.030094	1.000000	-0.000009	0.000013	0.000039	178.165295	-75.545533	173.901429
35578	9.521295	0.102613	-2.492074	0.041059	0.018152	0.029772	1.000000	-0.000009	0.000013	0.000039	178.163138	-75.548328	173.913005
35579	9.521396	0.101952	-2.491717	0.041007	0.018086	0.029773	1.000000	-0.000005	0.000024	0.000034	178.175589	-75.550953	173.900426
35580	9.535009	0.092261	-2.509229	0.052556	0.006340	0.047248	1.000000	0.000006	0.000053	0.000025	178.169195	-75.549473	173.906462
35581	9.518674	0.121387	-2.503012	0.055267	0.036116	0.030107	1.000000	-0.000008	0.000009	0.000047	178.187163	-75.550359	173.887866
35582	9.528654	0.118388	-2.461387	0.011601	0.039071	0.029366	1.000000	-0.000014	0.000049	0.000030	178.182218	-75.547535	173.890547
35583	9.539203	0.129340	-2.491471	0.040124	0.046567	0.047169	1.000000	-0.000001	0.000031	0.000036	178.195874	-75.550796	173.877208
35584	9.532613	0.110302	-2.519363	0.066420	0.023948	0.047591	1.000000	-0.000020	0.000028	0.000041	178.201251	-75.553544	173.867597
35585	9.499192	0.109512	-2.510764	0.066973	0.023974	0.013071	1.000000	-0.000009	0.000033	0.000040	178.215681	-75.557054	173.852547
35586	9.529292	0.115705	-2.459041	0.010811	0.037649	0.029373	1.000000	-0.000009	0.000013	0.000039	178.210511	-75.556467	173.867953
35587	9.542824	0.105792	-2.476878	0.023653	0.026438	0.046843	1.000000	-0.000008	0.000029	0.000047	178.228252	-75.559536	173.849627
35588	9.553312	0.116598	-2.507248	0.051492	0.033553	0.064654	1.000000	-0.000024	0.000021	0.000039	178.230220	-75.557982	173.844532
35589	9.522913	0.095384	-2.486174	0.036363	0.014872	0.029796	1.000000	-0.000011	0.000026	0.000017	178.234436	-75.560603	173.839883
35590	9.546929	0.143109	-2.459481	0.011314	0.066006	0.046770	1.000000	-0.000005	0.000039	0.000042	178.231311	-75.561565	173.854005
35591	9.563561	0.112611	-2.464544	0.008472	0.036083	0.063901	1.000000	-0.000017	0.000019	0.000036	178.243004	-75.563506	173.840940
35592	9.533162	0.091213	-2.443447	-0.007979	0.016958	0.029039	1.000000	-0.000001	0.000031	0.000036	178.242975	-75.559296	173.839502
35593	9.530234	0.111274	-2.455595	0.007614	0.035595	0.029383	1.000000	-0.000009	0.000017	0.000032	178.253912	-75.560951	173.828110
35594	9.527296	0.131454	-2.467785	0.021828	0.053657	0.029734	1.000000	0.000002	0.000026	0.000023	178.245073	-75.555943	173.841417
35595	9.547541	0.140045	-2.457281	0.008178	0.064618	0.046782	1.000000	-0.000012	0.000002	0.000045	178.261494	-75.555859	173.824052
35596	9.524354	0.150904	-2.480054	0.036148	0.071687	0.030092	1.000000	-0.000017	0.000004	0.000028	178.254470	-75.549461	173.829637
35597	9.520760	0.111285	-2.495539	0.046826	0.030723	0.030169	1.000000	-0.000016	0.000034	0.000043	178.269299	-75.552991	173.813428
35598	9.524563	0.149649	-2.479325	0.036100	0.070952	0.030098	1.000000	0.000002	0.000003	0.000030	178.267575	-75.554276	173.821849
35599	9.527670	0.128377	-2.466506	0.020326	0.052157	0.029746	1.000000	-0.000017	0.000019	0.000036	178.279083	-75.556068	173.809041
35600	9.531388	0.120950	-2.525515	0.075693	0.037177	0.047997	1.000000	-0.000001	0.000011	0.000036	178.286646	-75.559629	173.797182
35601	9.541245	0.117914	-2.484208	0.033463	0.040557	0.047220	1.000000	-0.000009	0.000013	0.000039	178.300896	-75.560799	173.782490
35602	9.521130	0.107953	-2.494272	0.045701	0.029121	0.030180	1.000000	-0.000020	0.000004	0.000048	178.307399	-75.554004	173.767655
35603	9.535276	0.157861	-2.509103	0.063392	0.077504	0.047940	1.000000	-0.000013	0.000011	0.000030	178.316956	-75.554786	173.757238
35604	9.551842	0.127441	-2.514332	0.059942	0.047073	0.065064	1.000000	-0.000001	0.000031	0.000036	178.317327	-75.554873	173.758453
35605	9.521411	0.106169	-2.493276	0.044817	0.028396	0.030186	1.000000	-0.000022	0.000017	0.000026	178.324179	-75.556314	173.749869
35606	9.515435	0.146999	-2.518197	0.076292	0.065030	0.030908	1.000000	-0.000009	0.000013	0.000039	178.321963	-75.559318	173.759988
35607	9.518571	0.125633	-2.505218	0.060524	0.046232	0.030549	1.000000	-0.000013	0.000026	0.000038	178.334735	-75.561904	173.746368
35608	9.541873	0.113453	-2.482000	0.030740	0.037652	0.047240	1.000000	-0.000009	0.000013	0.000039	178.328897	-75.560958	173.759813
35609	9.528524	0.121908	-2.463533	0.017733	0.048708	0.029768	1.000000	-0.000001	0.000011	0.000036	178.342232	-75.561872	173.747058
35610	9.535293	0.093771	-2.509876	0.055597	0.014665	0.047676	1.000000	-0.000013	0.000026	0.000038	178.335830	-75.556633	173.760218
35611	9.518984	0.123057	-2.503777	0.058244	0.044443	0.030571	1.000000	-0.000018	0.000023	0.000028	178.343717	-75.558829	173.751186
35612	9.555694	0.101634	-2.498807	0.040044	0.025157	0.064732	1.000000	-0.000011	0.000013	0.000060	178.354038	-75.549939	173.735724
35613	9.542383	0.110015	-2.480196	0.027016	0.036213	0.047257	1.000000	0.000002	0.000026	0.000023	178.361742	-75.552383	173.729129
35614	9.543103	0.123308	-2.551826	0.095644	0.039941	0.065931	1.000000	-0.000012	0.000002	0.000045	178.365253	-75.540974	173.719470
35615	9.522368	0.099500	-2.489893	0.038378	0.024697	0.030223	1.000000	-0.000013	0.000026	0.000038	178.377813	-75.543313	173.706120
35616	9.556111	0.098928	-2.497321	0.037586	0.023647	0.064745	1.000000	-0.000021	0.000032	0.000034	178.368146	-75.547062	173.725956
35617	9.522704	0.098250	-2.488659	0.038127	0.023689	0.030226	1.000000	-0.000005	0.000039	0.000042	178.383185	-75.550979	173.711072
35618	9.522913	0.097569	-2.487887	0.037161	0.023162	0.030231	1.000000	0.000002	0.000042	0.000031	178.381787	-75.550575	173.713449
35619	9.543264	0.106097	-2.476973	0.023439	0.034080	0.047274	1.000000	-0.000020	0.000028	0.000041	178.394961	-75.553133	173.698645
35620	9.543396	0.105356	-2.476497	0.022414	0.033556	0.047278	1.000000	-0.000012	0.000022	0.000045	178.398488	-75.550162	173.694381
35621	9.523299	0.095400	-2.486490	0.035852	0.022459	0.030238	1.000000	0.000007	0.000005	0.000039	178.414247	-75.550127	173.680157
35622	9.523406	0.094740	-2.486107	0.035737	0.021571	0.030240	1.000000	-0.000002	0.000035	0.000029	178.405117	-75.554182	173.701652
35623	9.530276	0.112537	-2.457192	0.009106	0.043617	0.029804	1.000000	-0.000013	0.000011	0.000030	178.414126	-75.554738	173.692056
35624	9.530395	0.112018	-2.456756	0.008538	0.042941	0.029807	1.000000	-0.000002	0.000035	0.000029	178.408997	-75.556011	173.704709
35625	9.550725	0.120582	-2.445916	-0.005196	0.053840	0.046849	1.000000	-0.000013	0.000026	0.000038	178.421269	-75.558338	173.691831
35626	9.544098	0.101732	-2.473942	0.021848	0.030757	0.047288	1.000000	-0.000010	0.000021	0.000024	178.410008	-75.564786	173.719148
35627	9.541241	0.121878	-2.486068	0.037356	0.049395	0.047680	1.000000	-0.000021	0.000028	0.000041	178.422923	-75.567396	173.704784
35628	9.530934	0.109595	-2.454772	0.008160	0.040862	0.029817	1.000000	-0.000012	0.000022	0.000045	178.417919	-75.566937	173.722959
35629	9.534829	0.147982	-2.438427	-0.002846	0.081619	0.029778	1.000000	0.000002	0.000026	0.000023	178.425111	-75.569328	173.717186
35630	9.544578	0.099169	-2.472194	0.020124	0.028608	0.047298	1.000000	-0.000008	0.000009	0.000047	178.419101	-75.566509	173.736378
35631	9.531185	0.107608	-2.453886	0.007075	0.039627	0.029823	1.000000	-0.000017	-0.000000	0.000035	178.429835	-75.565875	173.724837
35632	9.545458	0.157580	-2.468651	0.023626	0.087361	0.047670	1.000000	-0.000009	0.000017	0.000032	178.422530	-75.562085	173.738137
35633	9.544749	0.097311	-2.471607	0.018743	0.027631	0.047304	1.000000	-0.000009	0.000017	0.000032	178.432359	-75.563418	173.728451
35634	9.538902	0.138135	-2.496450	0.048200	0.064854	0.048117	1.000000	-0.000017	0.000019	0.000036	178.434918	-75.555429	173.719605
35635	9.508329	0.116792	-2.475728	0.033119	0.046147	0.013194	1.000000	0.000003	-0.000001	0.000037	178.448829	-75.554567	173.707122
35636	9.528596	0.125199	-2.465143	0.017428	0.056319	0.030243	1.000000	-0.000016	0.000034	0.000043	178.441694	-75.547102	173.721607
35637	9.552634	0.126982	-2.513596	0.058689	0.052693	0.065617	1.000000	0.000002	0.000026	0.000023	178.448588	-75.549281	173.716256
35638	9.505702	0.135624	-2.487113	0.044674	0.063643	0.013627	1.000000	-0.000013	0.000006	0.000037	178.451031	-75.539677	173.704578
35639	9.522166	0.105228	-2.492467	0.041764	0.033641	0.030697	1.000000	-0.000010	0.000021	0.000025	178.457362	-75.541226	173.698410
35640	9.539497	0.134459	-2.494376	0.042503	0.062624	0.048158	1.000000	-0.000012	0.000022	0.000045	178.455125	-75.537020	173.704712
35641	9.539574	0.133753	-2.494122	0.042309	0.062507	0.048159	1.000000	-0.000005	0.000005	0.000034	178.466165	-75.536627	173.694272
35642	9.532914	0.114895	-2.522279	0.069352	0.040016	0.048607	1.000000	-0.000014	0.000030	0.000030	178.469987	-75.543466	173.688773
35643	9.519647	0.123379	-2.503502	0.056268	0.051034	0.031126	1.000000	-0.000008	0.000028	0.000047	178.486420	-75.545890	173.672392
35644	9.542902	0.111094	-2.480194	0.025388	0.042868	0.047748	1.000000	-0.000009	0.000017	0.000032	178.486503	-75.538688	173.666101
35645	9.540047	0.131151	-2.492449	0.040815	0.061509	0.048172	1.000000	0.000003	0.000018	0.000038	178.500176	-75.539831	173.653863
35646	9.520029	0.121432	-2.502145	0.053416	0.050096	0.031146	1.000000	-0.000018	0.000043	0.000029	178.497404	-75.539104	173.648149
35647	9.526962	0.139170	-2.472994	0.026695	0.072084	0.030695	1.000000	-0.000013	0.000026	0.000038	178.509127	-75.541110	173.636056
35648	9.513588	0.101954	-2.529505	0.077884	0.026932	0.031619	1.000000	-0.000005	0.000024	0.000034	178.495935	-75.533854	173.664669
35649	9.520454	0.119654	-2.500614	0.051144	0.048907	0.031164	1.000000	-0.000009	0.000017	0.000032	178.505498	-75.534798	173.655282
35650	9.510085	0.107510	-2.469393	0.021635	0.040652	0.013251	1.000000	-0.000013	0.000026	0.000038	178.503154	-75.532488	173.659830
35651	9.543820	0.106820	-2.476846	0.020674	0.040352	0.047770	1.000000	-0.000005	0.000024	0.000034	178.513972	-75.534181	173.649640
35652	9.520817	0.117736	-2.499321	0.048566	0.048148	0.031181	1.000000	0.000003	0.000018	0.000038	178.527365	-75.528388	173.623309
35653	9.534361	0.107975	-2.517110	0.061231	0.036894	0.048673	1.000000	0.000002	0.000026	0.000023	178.534136	-75.530265	173.618057
35654	9.530758	0.114176	-2.457308	0.004020	0.050794	0.030288	1.000000	-0.000013	0.000026	0.000038	178.530097	-75.521064	173.625373
35655	9.530894	0.113522	-2.456812	0.003782	0.050677	0.030288	1.000000	-0.000013	0.000026	0.000038	178.541672	-75.522849	173.613442
35656	9.541533	0.124493	-2.487097	0.030956	0.057641	0.048231	1.000000	-0.000006	0.000028	0.000027	178.533663	-75.518921	173.626149
35657	9.541670	0.123943	-2.486597	0.030710	0.057523	0.048233	1.000000	-0.000005	0.000024	0.000034	178.544452	-75.520444	173.615944
35658	9.511106	0.102608	-2.465666	0.015670	0.038255	0.013272	1.000000	-0.000005	0.000020	0.000041	178.545478	-75.522235	173.623676
35659	9.528511	0.131759	-2.467426	0.017385	0.067848	0.030746	1.000000	-0.000010	0.000037	0.000032	178.554862	-75.525222	173.614460
35660	9.508486	0.121973	-2.477160	0.029416	0.056324	0.013729	1.000000	-0.000012	0.000022	0.000045	178.555585	-75.518754	173.608713
35661	9.541359	0.107251	-2.412805	-0.042246	0.051698	0.029376	1.000000	-0.000009	0.000017	0.000032	178.564990	-75.519460	173.599493
35662	9.528905	0.129759	-2.466012	0.016990	0.066604	0.030755	1.000000	-0.000009	0.000033	0.000040	178.572447	-75.532356	173.595602
35663	9.545359	0.099086	-2.471229	0.014032	0.036576	0.047796	1.000000	-0.000008	0.000009	0.000047	178.588681	-75.532245	173.579476
35664	9.532005	0.107559	-2.452769	0.000163	0.047178	0.030307	1.000000	-0.000009	0.000017	0.000032	178.586626	-75.528967	173.581250
35665	9.519510	0.130094	-2.506180	0.057674	0.062516	0.031687	1.000000	-0.000001	0.000011	0.000036	178.598705	-75.529064	173.570246
35666	9.542673	0.117957	-2.483040	0.026552	0.054356	0.048263	1.000000	-0.000014	0.000015	0.000022	178.594405	-75.520233	173.571904
35667	9.533128	0.119791	-2.523720	0.068446	0.050927	0.049197	1.000000	-0.000008	0.000028	0.000047	178.610549	-75.522254	173.555839
35668	9.540010	0.137268	-2.494770	0.041236	0.072281	0.048732	1.000000	0.000003	0.000018	0.000038	178.608885	-75.521052	173.559441
35669	9.529548	0.125148	-2.463764	0.012497	0.064524	0.030775	1.000000	-0.000018	0.000004	0.000028	178.615626	-75.520199	173.552030
35670	9.529622	0.124701	-2.463500	0.011312	0.063996	0.030780	1.000000	-0.000018	0.000023	0.000028	178.610525	-75.516407	173.554541
35671	9.540245	0.135671	-2.493960	0.039532	0.071505	0.048745	1.000000	-0.000001	0.000011	0.000036	178.622517	-75.516393	173.543628
35672	9.543222	0.114336	-2.481096	0.022444	0.051954	0.048286	1.000000	-0.000009	0.000017	0.000032	178.613429	-75.510392	173.557646
35673	9.537517	0.155136	-2.505980	0.053374	0.089376	0.049229	1.000000	-0.000009	0.000013	0.000039	178.626067	-75.510553	173.545198
35674	9.523179	0.103944	-2.490918	0.034681	0.040044	0.031276	1.000000	-0.000013	0.000006	0.000037	178.618053	-75.505257	173.565533
35675	9.517484	0.144661	-2.515796	0.065596	0.077472	0.032227	1.000000	0.000007	0.000025	0.000040	178.632490	-75.506716	173.553119
35676	9.533928	0.113962	-2.520968	0.061566	0.047064	0.049262	1.000000	-0.000012	0.000022	0.000045	178.636078	-75.502004	173.542575
35677	9.540806	0.131428	-2.492040	0.034732	0.068999	0.048780	1.000000	-0.000012	0.000022	0.000045	178.650643	-75.503091	173.527752
35678	9.551434	0.142324	-2.522536	0.062606	0.075855	0.066769	1.000000	-0.000006	0.000009	0.000026	178.641607	-75.501329	173.544417
35679	9.523678	0.100456	-2.489154	0.031949	0.038376	0.031292	1.000000	-0.000005	0.000024	0.000034	178.651994	-75.502645	173.534769
35680	9.541093	0.129655	-2.491035	0.032012	0.067465	0.048800	1.000000	-0.000009	0.000017	0.000032	178.645790	-75.494467	173.547090
35681	9.544105	0.108297	-2.477970	0.016133	0.048548	0.048316	1.000000	-0.000009	0.000033	0.000040	178.658160	-75.496721	173.534982
35682	9.521191	0.119283	-2.500328	0.043476	0.056180	0.031798	1.000000	-0.000005	0.000024	0.000034	178.662068	-75.488405	173.517603
35683	9.521332	0.118545	-2.499827	0.043174	0.056049	0.031800	1.000000	-0.000008	0.000028	0.000047	178.677842	-75.490136	173.502009
35684	9.541673	0.126927	-2.488951	0.028184	0.065835	0.048823	1.000000	-0.000014	0.000030	0.000030	178.659542	-75.486993	173.535203
35685	9.511068	0.105597	-2.467982	0.013119	0.047135	0.013813	1.000000	-0.000000	0.000022	0.000051	178.677843	-75.488016	173.518035
35686	9.535191	0.107208	-2.516482	0.051499	0.042771	0.049339	1.000000	-0.000006	0.000028	0.000027	178.660429	-75.474859	173.543225
35687	9.535334	0.106643	-2.515964	0.051172	0.042633	0.049342	1.000000	-0.000013	0.000026	0.000038	178.671251	-75.476138	173.532307
35688	9.542235	0.124227	-2.486932	0.024274	0.063993	0.048845	1.000000	-0.000021	0.000028	0.000041	178.670179	-75.478040	173.539189
35689	9.531778	0.112003	-2.455756	-0.004494	0.056194	0.030833	1.000000	-0.000009	0.000013	0.000039	178.682321	-75.477878	173.527412
35690	9.535691	0.104513	-2.514704	0.049290	0.041213	0.049357	1.000000	-0.000020	0.000024	0.000049	178.684249	-75.473954	173.521192
35691	9.532035	0.110535	-2.454825	-0.006054	0.055452	0.030837	1.000000	-0.000010	0.000037	0.000032	178.692929	-75.476438	173.512922
35692	9.552353	0.119051	-2.444019	-0.021335	0.065611	0.047844	1.000000	0.000006	0.000014	0.000025	178.683122	-75.469475	173.527297
35693	9.542847	0.120848	-2.484749	0.020475	0.062226	0.048865	1.000000	-0.000028	0.000025	0.000052	178.698636	-75.470670	173.509852
35694	9.522828	0.111175	-2.494459	0.032994	0.050786	0.031868	1.000000	-0.000003	0.000039	0.000021	178.691681	-75.468625	173.519790
35695	9.523014	0.110623	-2.493776	0.032650	0.050642	0.031870	1.000000	-0.000009	0.000033	0.000040	178.703654	-75.470579	173.508208
35696	9.516471	0.137430	-2.446581	-0.008854	0.083027	0.013853	1.000000	-0.000009	0.000017	0.000032	178.693041	-75.461215	173.526743
35697	9.523256	0.109395	-2.492903	0.030232	0.049720	0.031882	1.000000	-0.000005	0.000024	0.000034	178.702898	-75.462114	173.517789
35698	9.543547	0.117945	-2.482199	0.015457	0.060223	0.048887	1.000000	-0.000014	0.000015	0.000022	178.699390	-75.458019	173.515817
35699	9.530262	0.126565	-2.463470	0.002243	0.071212	0.031373	1.000000	-0.000012	0.000041	0.000045	178.713317	-75.460881	173.501804
35700	9.527550	0.146499	-2.475609	0.016594	0.088956	0.031911	1.000000	0.000007	0.000005	0.000039	178.703795	-75.455435	173.532821
35701	9.557294	0.106629	-2.499278	0.026384	0.047735	0.066414	1.000000	-0.000021	0.000008	0.000041	178.715025	-75.454505	173.520702
35702	9.520938	0.126951	-2.503653	0.041917	0.065982	0.032440	1.000000	-0.000006	0.000028	0.000027	178.704580	-75.453192	173.544262
35703	9.530653	0.123923	-2.462090	-0.000601	0.069028	0.031389	1.000000	-0.000017	0.000019	0.000036	178.713679	-75.453477	173.534784
35704	9.530751	0.123344	-2.461739	-0.000209	0.068851	0.031390	1.000000	-0.000009	0.000017	0.000032	178.723540	-75.457913	173.516356
35705	9.507834	0.134383	-2.484303	0.028725	0.076632	0.014928	1.000000	-0.000005	0.000020	0.000041	178.736673	-75.458324	173.504114
35706	9.530941	0.122029	-2.461072	0.000006	0.067997	0.031396	1.000000	-0.000021	0.000012	0.000034	178.734268	-75.463750	173.515206
35707	9.521488	0.123978	-2.501710	0.041805	0.064655	0.032450	1.000000	-0.000010	0.000037	0.000032	178.742667	-75.466110	173.507321
35708	9.521621	0.123444	-2.501230	0.038844	0.064098	0.032465	1.000000	0.000006	0.000014	0.000025	178.733419	-75.450901	173.519188
35709	9.521699	0.122653	-2.500972	0.038474	0.063946	0.032468	1.000000	-0.000011	0.000013	0.000060	178.753950	-75.450566	173.498554
35710	9.552624	0.142401	-2.520979	0.051949	0.081285	0.067542	1.000000	-0.000014	0.000030	0.000030	178.733792	-75.448339	173.547886
35711	9.542157	0.130295	-2.489675	0.023177	0.073429	0.049477	1.000000	-0.000013	0.000026	0.000038	178.744067	-75.449356	173.537718
35712	9.562480	0.138499	-2.478866	0.008128	0.083520	0.066480	1.000000	-0.000000	0.000022	0.000051	178.745231	-75.445134	173.541713
35713	9.522199	0.119803	-2.499204	0.035271	0.061646	0.032494	1.000000	-0.000014	0.000015	0.000022	178.748726	-75.444813	173.538444
35714	9.531857	0.116748	-2.457777	-0.008069	0.064251	0.031418	1.000000	0.000003	0.000018	0.000038	178.749727	-75.440384	173.527401
35715	9.549322	0.145791	-2.459727	-0.006680	0.093772	0.048967	1.000000	-0.000001	0.000011	0.000036	178.760534	-75.439672	173.518082
35716	9.538742	0.087864	-2.503745	0.028894	0.030217	0.049478	1.000000	-0.000032	0.000038	0.000051	178.755708	-75.432355	173.524027
35717	9.542866	0.126195	-2.487168	0.017413	0.070862	0.049508	1.000000	0.000002	0.000026	0.000023	178.761016	-75.433269	173.520753
35718	9.529529	0.134761	-2.468646	0.003492	0.081607	0.031988	1.000000	-0.000008	0.000009	0.000047	178.769004	-75.428393	173.502537
35719	9.522850	0.115819	-2.496912	0.029712	0.059463	0.032526	1.000000	-0.000017	0.000019	0.000036	178.777811	-75.428495	173.493419
35720	9.536404	0.105980	-2.514664	0.040919	0.047824	0.050061	1.000000	-0.000013	0.000026	0.000038	178.776753	-75.422342	173.486972
35721	9.543297	0.123560	-2.485647	0.013896	0.069648	0.049522	1.000000	-0.000005	0.000024	0.000034	178.786131	-75.422952	173.478631
35722	9.543425	0.122938	-2.485188	0.012431	0.068807	0.049530	1.000000	-0.000005	0.000024	0.000034	178.777048	-75.417967	173.502153
35723	9.543521	0.122289	-2.484850	0.012018	0.068643	0.049532	1.000000	-0.000001	0.000011	0.000036	178.787690	-75.417094	173.493018
35724	9.510004	0.121918	-2.476630	0.012106	0.067932	0.015027	1.000000	-0.000014	0.000030	0.000030	178.774020	-75.416432	173.518761
35725	9.523577	0.111960	-2.494312	0.024538	0.056639	0.032557	1.000000	-0.000000	0.000022	0.000051	178.791292	-75.416855	173.502944
35726	9.543897	0.120158	-2.483509	0.010858	0.066808	0.049546	1.000000	-0.000005	0.000024	0.000034	178.790288	-75.420836	173.512343
35727	9.530609	0.128797	-2.464792	-0.002399	0.077765	0.032019	1.000000	-0.000021	0.000032	0.000034	178.797568	-75.422324	173.504388
35728	9.557625	0.109771	-2.500617	0.022387	0.054571	0.067083	1.000000	-0.000005	0.000024	0.000034	178.787564	-75.420654	173.533457
35729	9.510676	0.118618	-2.474207	0.010072	0.065815	0.015044	1.000000	-0.000017	0.000019	0.000036	178.796103	-75.420681	173.524722
35730	9.530986	0.126997	-2.463428	-0.004905	0.076296	0.032030	1.000000	-0.000005	0.000024	0.000034	178.799093	-75.416770	173.505581
35731	9.541741	0.137954	-2.493849	0.023037	0.083839	0.050150	1.000000	-0.000014	0.000011	0.000030	178.805604	-75.415777	173.499335
35732	9.564799	0.125544	-2.470596	-0.006885	0.075216	0.066548	1.000000	-0.000012	0.000022	0.000045	178.808255	-75.415334	173.505170
35733	9.521753	0.127610	-2.503493	0.035808	0.072235	0.033177	1.000000	-0.000025	0.000021	0.000039	178.817499	-75.415551	173.494784
35734	9.531368	0.124436	-2.462081	-0.007646	0.074537	0.032042	1.000000	0.000006	0.000009	0.000032	178.810412	-75.409803	173.513681
35735	9.544894	0.114578	-2.479940	0.004776	0.063240	0.049574	1.000000	-0.000005	0.000024	0.000034	178.819479	-75.410325	173.505773
35736	9.542227	0.134744	-2.492161	0.019591	0.081197	0.050180	1.000000	-0.000021	0.000012	0.000034	178.809372	-75.408537	173.526260
35737	9.531641	0.122590	-2.461119	-0.009180	0.073290	0.032050	1.000000	0.000003	0.000018	0.000038	178.821024	-75.408375	173.516674
35738	9.525007	0.103681	-2.489205	0.017098	0.050796	0.032605	1.000000	-0.000001	0.000031	0.000036	178.822661	-75.410177	173.518811
35739	9.539810	0.153435	-2.503537	0.033860	0.099140	0.050793	1.000000	-0.000017	0.000015	0.000043	178.834421	-75.409688	173.506833
35740	9.522461	0.123068	-2.501029	0.031687	0.068504	0.033218	1.000000	-0.000010	0.000017	0.000032	178.823526	-75.409648	173.526868
35741	9.522568	0.122389	-2.500655	0.031265	0.068325	0.033221	1.000000	-0.000012	0.000022	0.000045	178.836536	-75.409932	173.514114
35742	9.526672	0.160598	-2.484358	0.019431	0.108448	0.033284	1.000000	-0.000001	0.000011	0.000036	178.835060	-75.407975	173.520496
35743	9.522740	0.121036	-2.500066	0.030183	0.067485	0.033230	1.000000	-0.000010	0.000017	0.000032	178.842645	-75.407721	173.513707
35744	9.545803	0.108644	-2.476704	-0.000052	0.058861	0.049602	1.000000	-0.000013	0.000026	0.000038	178.842089	-75.405819	173.514966
35745	9.543145	0.128741	-2.488962	0.015011	0.077541	0.050217	1.000000	-0.000013	0.000006	0.000037	178.851697	-75.404320	173.505665
35746	9.522999	0.119119	-2.499171	0.027359	0.066334	0.033246	1.000000	-0.000001	0.000011	0.000036	178.854093	-75.397310	173.490905
35747	9.540584	0.148206	-2.500901	0.028593	0.095816	0.050842	1.000000	-0.000010	0.000037	0.000032	178.861654	-75.399228	173.484107
35748	9.530034	0.136123	-2.469641	-0.001167	0.087085	0.032698	1.000000	-0.000010	0.000017	0.000032	178.847916	-75.393776	173.509288
35749	9.523347	0.117141	-2.497939	0.025068	0.064984	0.033261	1.000000	0.000004	0.000010	0.000053	178.866072	-75.392616	173.493151
35750	9.526199	0.095523	-2.484968	0.010473	0.045425	0.032640	1.000000	-0.000009	0.000033	0.000040	178.868592	-75.402153	173.502141
35751	9.530357	0.133736	-2.468524	-0.001153	0.086017	0.032708	1.000000	-0.000017	0.000015	0.000043	178.880143	-75.401628	173.490434
35752	9.543898	0.123818	-2.486322	0.010078	0.074255	0.050249	1.000000	-0.000005	0.000024	0.000034	178.875299	-75.395521	173.492836
35753	9.507625	0.144123	-2.490789	0.026120	0.093268	0.016369	1.000000	-0.000008	0.000009	0.000047	178.889449	-75.394279	173.479405
35754	9.544087	0.122327	-2.485671	0.008719	0.073533	0.050255	1.000000	-0.000013	0.000026	0.000038	178.889610	-75.392293	173.471015
35755	9.557654	0.112448	-2.503364	0.021118	0.062225	0.067794	1.000000	-0.000005	0.000024	0.000034	178.898357	-75.392726	173.463507
35756	9.524128	0.112152	-2.495187	0.020430	0.061879	0.033292	1.000000	-0.000010	0.000017	0.000032	178.891084	-75.385458	173.474642
35757	9.531033	0.129681	-2.466131	-0.006695	0.083598	0.032726	1.000000	-0.000017	0.000034	0.000043	178.902541	-75.387065	173.463019
35758	9.524393	0.110774	-2.494237	0.019455	0.060817	0.033300	1.000000	-0.000009	0.000013	0.000039	178.897158	-75.386227	173.476198
35759	9.531245	0.128319	-2.465383	-0.007675	0.082529	0.032735	1.000000	-0.000010	0.000017	0.000032	178.904488	-75.385853	173.469699
35760	9.544800	0.118555	-2.483117	0.007550	0.070460	0.050279	1.000000	-0.000006	0.000028	0.000027	178.899838	-75.403945	173.514641
35761	9.531506	0.127231	-2.464431	-0.005727	0.081380	0.032746	1.000000	-0.000013	0.000026	0.000038	178.909198	-75.404659	173.505660
35762	9.527555	0.087618	-2.480056	0.005186	0.039947	0.032668	1.000000	-0.000009	0.000013	0.000039	178.909158	-75.404804	173.508011
35763	9.554689	0.114027	-2.440491	-0.035803	0.072394	0.049085	1.000000	-0.000001	0.000050	0.000037	178.919118	-75.408293	173.499788
35764	9.525197	0.106933	-2.491334	0.019000	0.058056	0.033318	1.000000	-0.000013	0.000022	0.000045	178.920722	-75.404217	173.499434
35765	9.545493	0.115298	-2.480603	0.004708	0.068623	0.050294	1.000000	-0.000007	0.000013	0.000019	178.922599	-75.403392	173.498955
35766	9.532128	0.124027	-2.462186	-0.010245	0.079272	0.032759	1.000000	-0.000009	0.000013	0.000039	178.922589	-75.393008	173.490732
35767	9.505262	0.096250	-2.500781	0.029887	0.046443	0.016357	1.000000	-0.000013	0.000026	0.000038	178.931888	-75.393653	173.481791
35768	9.565999	0.122484	-2.469121	-0.013433	0.077870	0.067275	1.000000	-0.000010	0.000021	0.000025	178.917317	-75.386772	173.496529
35769	9.532460	0.122318	-2.460987	-0.012850	0.078031	0.032766	1.000000	-0.000010	0.000017	0.000032	178.924509	-75.386389	173.490199
35770	9.520424	0.145060	-2.514244	0.044334	0.093443	0.034659	1.000000	0.000006	0.000029	0.000033	178.926797	-75.387627	173.492371
35771	9.556880	0.123276	-2.509020	0.027402	0.073999	0.068512	1.000000	-0.000017	0.000015	0.000043	178.938059	-75.387005	173.480986
35772	9.525987	0.102171	-2.488510	0.012683	0.054847	0.033346	1.000000	-0.000005	0.000005	0.000034	178.937111	-75.386358	173.494279
35773	9.534119	0.133735	-2.531548	0.055972	0.081328	0.052215	1.000000	-0.000013	0.000022	0.000045	178.949686	-75.386513	173.482015
35774	9.546393	0.109652	-2.477395	-0.001940	0.064811	0.050320	1.000000	-0.000013	0.000026	0.000038	178.950297	-75.388239	173.483636
35775	9.520956	0.141522	-2.512428	0.042384	0.091661	0.034684	1.000000	-0.000001	0.000026	0.000044	178.963477	-75.388948	173.472119
35776	9.564162	0.137814	-2.478667	-0.001284	0.093441	0.067963	1.000000	-0.000009	0.000013	0.000039	178.959861	-75.388536	173.488009
35777	9.544026	0.128212	-2.488843	0.012155	0.082501	0.050997	1.000000	-0.000001	0.000011	0.000036	178.969630	-75.387489	173.479970
35778	9.497037	0.137182	-2.462613	-0.001740	0.093372	-0.001047	1.000000	0.000002	0.000022	0.000030	178.963545	-75.378297	173.486207
35779	9.560331	0.096981	-2.493773	0.006999	0.051677	0.067875	1.000000	-0.000029	0.000014	0.000037	178.970741	-75.377554	173.477578
35780	9.526743	0.096655	-2.485836	0.006977	0.051151	0.033372	1.000000	0.000007	0.000005	0.000040	178.965375	-75.372662	173.491875
35781	9.557755	0.116330	-2.506015	0.020900	0.069478	0.068561	1.000000	-0.000021	0.000008	0.000041	178.975145	-75.371222	173.481567
35782	9.510764	0.125293	-2.479796	0.008157	0.080142	0.016516	1.000000	-0.000005	0.000024	0.000034	178.967863	-75.369139	173.503624
35783	9.524307	0.115356	-2.497583	0.020540	0.068832	0.034063	1.000000	-0.000017	0.000015	0.000043	178.978914	-75.368456	173.492486
35784	9.544622	0.123572	-2.486794	0.005594	0.078804	0.051033	1.000000	-0.000005	0.000024	0.000034	178.973047	-75.365685	173.492222
35785	9.547414	0.102183	-2.473775	-0.010293	0.059689	0.050347	1.000000	-0.000005	0.000024	0.000034	178.981325	-75.365997	173.485269
35786	9.511210	0.122634	-2.478220	0.005800	0.078173	0.016533	1.000000	-0.000017	0.000015	0.000043	178.978570	-75.366139	173.499156
35787	9.513996	0.101332	-2.465208	-0.010079	0.059053	0.015845	1.000000	-0.000007	0.000032	0.000019	178.980119	-75.367380	173.499045
35788	9.531704	0.130567	-2.466752	-0.009854	0.087792	0.033505	1.000000	-0.000014	0.000030	0.000030	178.967820	-75.364079	173.518303
35789	9.522393	0.132385	-2.507474	0.031850	0.084680	0.034787	1.000000	-0.000011	0.000013	0.000060	178.986756	-75.363208	173.499655
35790	9.535936	0.122269	-2.525275	0.044806	0.073099	0.052336	1.000000	-0.000005	0.000024	0.000034	178.990442	-75.367013	173.491340
35791	9.514510	0.098693	-2.463328	-0.012162	0.057274	0.015853	1.000000	-0.000014	0.000030	0.000030	178.996007	-75.368007	173.486243
35792	9.545621	0.118472	-2.483205	0.002029	0.075369	0.051061	1.000000	-0.000009	0.000013	0.000039	179.002057	-75.369062	173.483845
35793	9.532284	0.127071	-2.464693	-0.011267	0.086269	0.033516	1.000000	-0.000005	0.000024	0.000034	179.010268	-75.369383	173.476953
35794	9.545839	0.117110	-2.482431	0.002349	0.074380	0.051069	1.000000	-0.000005	0.000020	0.000042	179.011959	-75.376827	173.479657
35795	9.525721	0.107565	-2.492530	0.015814	0.063463	0.034107	1.000000	-0.000029	0.000014	0.000037	179.018921	-75.376086	173.471308
35796	9.546021	0.115790	-2.481791	-0.000497	0.073133	0.051078	1.000000	0.000003	0.000018	0.000038	179.005750	-75.365153	173.499735
35797	9.559542	0.105991	-2.499651	0.011879	0.061816	0.068627	1.000000	-0.000007	0.000013	0.000019	179.007136	-75.364164	173.499809
35798	9.532746	0.123905	-2.463068	-0.013427	0.083324	0.033539	1.000000	-0.000004	0.000016	0.000049	179.012983	-75.368779	173.504192
35799	9.512630	0.114281	-2.473165	0.000044	0.072415	0.016579	1.000000	-0.000017	0.000019	0.000036	179.020461	-75.368562	173.496716
35800	9.532940	0.122572	-2.462384	-0.014156	0.082228	0.033547	1.000000	-0.000010	0.000017	0.000032	179.012445	-75.369689	173.511175
35801	9.537056	0.115287	-2.521369	0.040400	0.068050	0.052391	1.000000	-0.000017	0.000015	0.000043	179.023228	-75.369017	173.500361
35802	9.523753	0.123918	-2.502739	0.027471	0.078645	0.034850	1.000000	-0.000002	0.000035	0.000029	179.023501	-75.372940	173.503957
35803	9.550824	0.150195	-2.463445	-0.013693	0.110908	0.051230	1.000000	-0.000024	-0.000007	0.000054	179.038313	-75.369815	173.488130
35804	9.544118	0.131265	-2.491802	0.012711	0.088133	0.051823	1.000000	-0.000001	0.000031	0.000036	179.030271	-75.372033	173.509518
35805	9.536038	0.098306	-2.448168	-0.031363	0.061135	0.032844	1.000000	-0.000021	0.000008	0.000041	179.039670	-75.370608	173.499663
35806	9.546912	0.109114	-2.478667	-0.003885	0.068451	0.051111	1.000000	-0.000009	0.000013	0.000039	179.041935	-75.368175	173.495893
35807	9.524157	0.120483	-2.501371	0.024988	0.076496	0.034873	1.000000	-0.000022	0.000017	0.000026	179.044636	-75.367669	173.492819
35808	9.524239	0.119935	-2.501084	0.023863	0.075855	0.034881	1.000000	-0.000009	0.000013	0.000039	179.043150	-75.363208	173.500388
35809	9.557997	0.118834	-2.508423	0.022302	0.075211	0.069390	1.000000	-0.000013	0.000026	0.000038	179.051840	-75.363759	173.492141
35810	9.531228	0.136612	-2.471765	-0.003312	0.096325	0.034307	1.000000	-0.000016	0.000011	0.000051	179.047439	-75.366417	173.511794
35811	9.544782	0.126642	-2.489499	0.009079	0.085005	0.051855	1.000000	0.000006	0.000033	0.000025	179.052636	-75.367777	173.509407
35812	9.544926	0.125988	-2.488978	0.008362	0.084022	0.051864	1.000000	-0.000013	0.000022	0.000045	179.046496	-75.366912	173.520537
35813	9.511361	0.125592	-2.480976	0.009014	0.084233	0.017360	1.000000	-0.000009	0.000009	0.000047	179.059712	-75.365561	173.508207
35814	9.531658	0.133715	-2.470262	-0.005129	0.093814	0.034330	1.000000	-0.000017	0.000019	0.000036	179.048077	-75.367632	173.535812
35815	9.545206	0.123739	-2.488020	0.007266	0.082491	0.051878	1.000000	-0.000013	0.000022	0.000045	179.059941	-75.367743	173.524429
35816	9.509069	0.144158	-2.492450	0.024347	0.101313	0.018113	1.000000	-0.000013	0.000022	0.000045	179.066576	-75.374142	173.507517
35817	9.525207	0.113435	-2.497697	0.021380	0.071032	0.034923	1.000000	-0.000002	0.000015	0.000028	179.072334	-75.373536	173.503688
35818	9.525279	0.112918	-2.497447	0.021220	0.070322	0.034928	1.000000	-0.000014	0.000011	0.000030	179.067093	-75.374430	173.516414
35819	9.548187	0.100410	-2.474119	-0.008551	0.061783	0.051152	1.000000	-0.000006	0.000024	0.000034	179.074886	-75.374823	173.510063
35820	9.545714	0.120478	-2.486230	0.005585	0.080107	0.051899	1.000000	-0.000013	0.000022	0.000045	179.075378	-75.370711	173.507517
35821	9.525644	0.110873	-2.496144	0.019099	0.069230	0.034940	1.000000	-0.000017	0.000034	0.000044	179.085916	-75.372291	173.497000
35822	9.548563	0.098223	-2.472753	-0.011018	0.060284	0.051159	1.000000	-0.000013	0.000006	0.000037	179.084276	-75.368957	173.498549
35823	9.532628	0.127637	-2.466841	-0.008957	0.090114	0.034362	1.000000	-0.000013	0.000026	0.000038	179.092743	-75.369541	173.490581
35824	9.525954	0.108933	-2.495049	0.015878	0.067311	0.034959	1.000000	-0.000002	0.000015	0.000028	179.075373	-75.360567	173.505542
35825	9.499182	0.126837	-2.458401	-0.010265	0.089278	-0.000134	1.000000	-0.000013	0.000022	0.000045	179.087101	-75.360650	173.494286
35826	9.546387	0.116308	-2.483842	0.001138	0.077195	0.051923	1.000000	-0.000005	0.000020	0.000042	179.091785	-75.361481	173.478442
35827	9.526250	0.106851	-2.494008	0.014652	0.066320	0.034968	1.000000	-0.000014	0.000011	0.000030	179.096779	-75.360275	173.474003
35828	9.533166	0.124422	-2.464925	-0.013149	0.087368	0.034382	1.000000	0.000010	0.000040	0.000027	179.090951	-75.359516	173.470640
35829	9.546718	0.114542	-2.482651	-0.000774	0.076029	0.051932	1.000000	-0.000006	0.000005	0.000034	179.098544	-75.357612	173.464470
35830	9.526586	0.105073	-2.492800	0.011903	0.064583	0.034983	1.000000	-0.000021	0.000028	0.000041	179.092353	-75.353860	173.465740
35831	9.524124	0.125163	-2.504954	0.026802	0.083309	0.035752	1.000000	-0.000009	0.000013	0.000039	179.101955	-75.352925	173.457075
35832	9.560480	0.103277	-2.499634	0.009362	0.062895	0.069497	1.000000	-0.000002	0.000035	0.000029	179.089142	-75.352287	173.477792
35833	9.521831	0.144673	-2.516522	0.040760	0.101055	0.036536	1.000000	-0.000005	0.000020	0.000042	179.100028	-75.352110	173.468298
35834	9.527038	0.102393	-2.491181	0.009127	0.062238	0.035001	1.000000	-0.000013	0.000006	0.000037	179.092050	-75.348236	173.480385
35835	9.547365	0.110624	-2.480341	-0.005326	0.072631	0.051957	1.000000	0.000006	0.000033	0.000025	179.096840	-75.349525	173.478460
35836	9.511275	0.131360	-2.484730	0.010923	0.091346	0.018234	1.000000	-0.000010	0.000017	0.000032	179.092351	-75.350600	173.486914
35837	9.527334	0.100691	-2.490119	0.007937	0.061033	0.035010	1.000000	-0.000006	0.000005	0.000034	179.099778	-75.348663	173.480940
35838	9.531653	0.138840	-2.473739	-0.003828	0.101116	0.035197	1.000000	-0.000009	0.000028	0.000047	179.104398	-75.350627	173.467042
35839	9.524997	0.119929	-2.501889	0.022525	0.079140	0.035797	1.000000	-0.000005	0.000020	0.000042	179.115207	-75.350449	173.457622
35840	9.545315	0.128167	-2.491089	0.006898	0.089020	0.052758	1.000000	-0.000014	0.000015	0.000023	179.102013	-75.343251	173.473707
35841	9.534502	0.116155	-2.460155	-0.021752	0.080918	0.034422	1.000000	-0.000001	0.000011	0.000036	179.110729	-75.342059	173.466865
35842	9.534607	0.115473	-2.459782	-0.022827	0.080018	0.034427	1.000000	-0.000021	0.000028	0.000041	179.102955	-75.339704	173.474921
35843	9.525378	0.117402	-2.500559	0.018873	0.077016	0.035821	1.000000	0.000011	0.000012	0.000042	179.115587	-75.338580	173.465480
35844	9.512054	0.126021	-2.482021	0.005898	0.087327	0.018275	1.000000	-0.000014	0.000030	0.000030	179.108461	-75.341750	173.470407
35845	9.523117	0.136885	-2.512087	0.033599	0.094944	0.036624	1.000000	-0.000017	0.000034	0.000044	179.118584	-75.343214	173.460321
35846	9.543421	0.145040	-2.501346	0.018000	0.104914	0.053584	1.000000	-0.000021	-0.000007	0.000033	179.111798	-75.333575	173.456115
35847	9.512334	0.124213	-2.481039	0.003354	0.086196	0.018286	1.000000	-0.000010	0.000017	0.000032	179.117787	-75.333035	173.451126
35848	9.546114	0.123006	-2.488284	0.001449	0.084858	0.052797	1.000000	-0.000001	0.000026	0.000044	179.115548	-75.332608	173.462576
35849	9.505796	0.104794	-2.508763	0.028986	0.063389	0.018903	1.000000	-0.000018	0.000023	0.000028	179.118878	-75.332750	173.459379
35850	9.530382	0.151777	-2.481836	0.002467	0.114026	0.036055	1.000000	-0.000005	0.000016	0.000049	179.121725	-75.329137	173.455195
35851	9.537130	0.123654	-2.528251	0.041637	0.080946	0.054222	1.000000	0.000010	0.000020	0.000027	179.127576	-75.328907	173.452623
35852	9.533124	0.129654	-2.468562	-0.013676	0.094060	0.035258	1.000000	-0.000025	0.000021	0.000039	179.123947	-75.330029	173.451731
35853	9.549192	0.098959	-2.473790	-0.016678	0.063723	0.052005	1.000000	-0.000010	0.000017	0.000032	179.129856	-75.329477	173.446813
35854	9.540148	0.146603	-2.439096	-0.041977	0.114777	0.034656	1.000000	0.000006	0.000033	0.000025	179.121467	-75.328050	173.454087
35855	9.524194	0.130668	-2.508332	0.026546	0.090062	0.036691	1.000000	-0.000006	0.000024	0.000034	179.128687	-75.328254	173.448290
35856	9.513412	0.118539	-2.477182	-0.001863	0.081666	0.018326	1.000000	-0.000013	0.000026	0.000038	179.130654	-75.330203	173.446038
35857	9.547223	0.117424	-2.484297	-0.003543	0.080903	0.052830	1.000000	-0.000014	0.000030	0.000030	179.135252	-75.331098	173.441969
35858	9.531396	0.146973	-2.478230	-0.001731	0.110091	0.036100	1.000000	-0.000017	0.000019	0.000036	179.126259	-75.329833	173.446836
35859	9.527272	0.107515	-2.493779	0.009283	0.069147	0.035893	1.000000	-0.000010	0.000037	0.000033	179.132159	-75.331491	173.441907
35860	9.534172	0.124911	-2.464758	-0.017679	0.089947	0.035290	1.000000	0.000007	0.000005	0.000040	179.128970	-75.332061	173.447550
35861	9.547718	0.114834	-2.482513	-0.005344	0.078575	0.052848	1.000000	-0.000017	0.000034	0.000044	179.138880	-75.333483	173.437644
35862	9.514210	0.114676	-2.474297	-0.005231	0.078397	0.018351	1.000000	-0.000013	0.000026	0.000038	179.134863	-75.330656	173.443082
35863	9.548018	0.113562	-2.481420	-0.006925	0.077617	0.052854	1.000000	-0.000006	0.000028	0.000027	179.138652	-75.331322	173.440753
35864	9.545656	0.133706	-2.493437	0.007105	0.095994	0.053689	1.000000	-0.000001	0.000026	0.000044	179.140311	-75.327175	173.427119
35865	9.555074	0.130353	-2.451816	-0.035555	0.098477	0.052244	1.000000	-0.000010	0.000021	0.000025	179.142738	-75.327055	173.425697
35866	9.539123	0.114575	-2.521150	0.032813	0.073018	0.054317	1.000000	0.000002	0.000026	0.000023	179.128066	-75.327153	173.450941
35867	9.535091	0.120446	-2.461420	-0.022657	0.086610	0.035310	1.000000	-0.000020	0.000019	0.000056	179.143201	-75.326842	173.435256
35868	9.512480	0.131602	-2.484062	0.005818	0.094077	0.019213	1.000000	-0.000013	0.000022	0.000045	179.137867	-75.324951	173.447381
35869	9.515068	0.110239	-2.471196	-0.009997	0.074835	0.018375	1.000000	-0.000007	0.000013	0.000019	179.138149	-75.323834	173.448617
35870	9.548815	0.109058	-2.478552	-0.010275	0.073519	0.052883	1.000000	-0.000005	0.000016	0.000049	179.143726	-75.331721	173.440510
35871	9.528703	0.099610	-2.488636	0.003279	0.062679	0.035940	1.000000	-0.000006	0.000028	0.000027	179.147396	-75.332391	173.438302
35872	9.546561	0.128639	-2.490235	0.003682	0.091303	0.053736	1.000000	-0.000010	0.000017	0.000032	179.136433	-75.330010	173.456981
35873	9.549142	0.107272	-2.477369	-0.012125	0.072053	0.052891	1.000000	-0.000010	0.000017	0.000032	179.142046	-75.329440	173.452350
35874	9.524074	0.139490	-2.512467	0.031387	0.098700	0.037653	1.000000	-0.000009	0.000032	0.000040	179.138031	-75.326794	173.440883
35875	9.499764	0.136601	-2.463384	-0.010038	0.101703	0.001689	1.000000	0.000003	-0.000002	0.000038	179.147511	-75.324069	173.433682
35876	9.526747	0.117197	-2.499286	0.014019	0.078675	0.036815	1.000000	-0.000032	0.000038	0.000051	179.143975	-75.320018	173.431619
35877	9.536183	0.113823	-2.457503	-0.028645	0.081125	0.035341	1.000000	0.000002	0.000026	0.000023	179.146826	-75.320421	173.431148
35878	9.527034	0.115872	-2.498254	0.012563	0.077768	0.036824	1.000000	-0.000012	0.000017	0.000053	179.151107	-75.317330	173.422014
35879	9.513691	0.124353	-2.479792	-0.000729	0.088632	0.019266	1.000000	0.000003	0.000018	0.000038	179.160599	-75.316790	173.414779
35880	9.529717	0.093547	-2.484985	-0.003675	0.057872	0.035970	1.000000	-0.000006	0.000024	0.000034	179.158863	-75.317535	173.407120
35881	9.522438	0.155323	-2.522110	0.041811	0.114562	0.038562	1.000000	-0.000013	0.000026	0.000038	179.166431	-75.317903	173.399997
35882	9.540966	0.103806	-2.514633	0.022693	0.064608	0.054404	1.000000	-0.000014	0.000030	0.000030	179.155170	-75.314631	173.406288
35883	9.514205	0.121741	-2.477952	-0.003392	0.086607	0.019283	1.000000	-0.000005	0.000016	0.000049	179.168645	-75.313829	173.394074
35884	9.527704	0.111741	-2.495887	0.008271	0.074447	0.036854	1.000000	-0.000018	0.000004	0.000028	179.152296	-75.308590	173.424074
35885	9.548072	0.119812	-2.484877	-0.006285	0.084741	0.053793	1.000000	-0.000009	0.000048	0.000048	179.164515	-75.311449	173.412698
35886	9.537250	0.107540	-2.453643	-0.034926	0.076111	0.035361	1.000000	-0.000009	0.000013	0.000040	179.161535	-75.310418	173.404503
35887	9.528114	0.109514	-2.494418	0.006750	0.073135	0.036865	1.000000	-0.000009	0.000028	0.000047	179.173658	-75.311056	173.393213
35888	9.505552	0.120803	-2.517029	0.035940	0.080900	0.020812	1.000000	0.000003	0.000018	0.000038	179.174930	-75.312436	173.382198
35889	9.535145	0.126067	-2.464922	-0.020788	0.093906	0.036246	1.000000	-0.000013	0.000026	0.000038	179.182371	-75.312780	173.375191
35890	9.548717	0.115923	-2.482583	-0.008573	0.081951	0.053815	1.000000	-0.000001	0.000022	0.000051	179.184389	-75.312669	173.375472
35891	9.526159	0.127303	-2.505200	0.020312	0.090110	0.037765	1.000000	-0.000018	0.000023	0.000028	179.187129	-75.312713	173.372781
35892	9.535514	0.123998	-2.463600	-0.022294	0.091922	0.036261	1.000000	-0.000025	0.000021	0.000039	179.179903	-75.313348	173.383934
35893	9.569336	0.122691	-2.470662	-0.024068	0.091066	0.070761	1.000000	-0.000017	0.000034	0.000044	179.189342	-75.314680	173.374440
35894	9.513130	0.134652	-2.485606	0.005594	0.099393	0.020222	1.000000	-0.000005	0.000020	0.000042	179.188330	-75.311707	173.375490
35895	9.542563	0.094409	-2.508937	0.015357	0.057855	0.054460	1.000000	-0.000005	0.000020	0.000042	179.198308	-75.311354	173.366802
35896	9.526801	0.123857	-2.502932	0.017604	0.087288	0.037795	1.000000	-0.000006	0.000024	0.000034	179.195878	-75.312957	173.362458
35897	9.549606	0.111197	-2.479377	-0.012281	0.078574	0.053838	1.000000	-0.000006	0.000028	0.000027	179.199191	-75.313543	173.360528
35898	9.506801	0.113951	-2.512631	0.030016	0.075654	0.020874	1.000000	-0.000001	0.000007	0.000043	179.196374	-75.308177	173.354983
35899	9.533912	0.139970	-2.473159	-0.011411	0.107622	0.037180	1.000000	-0.000006	0.000024	0.000034	179.202979	-75.308282	173.349702
35900	9.529694	0.100465	-2.488758	-0.000855	0.065913	0.036918	1.000000	-0.000002	0.000031	0.000036	179.192452	-75.306913	173.368940
35901	9.550052	0.108626	-2.477774	-0.015434	0.076180	0.053853	1.000000	-0.000022	0.000017	0.000026	179.193691	-75.306166	173.367294
35902	9.514051	0.129586	-2.482350	0.001610	0.094790	0.020269	1.000000	0.000002	0.000022	0.000031	179.185913	-75.312005	173.380204
35903	9.527605	0.119655	-2.500071	0.013896	0.083371	0.037835	1.000000	-0.000017	0.000019	0.000036	179.191797	-75.311577	173.374303
35904	9.536906	0.116221	-2.458585	-0.029072	0.085114	0.036305	1.000000	-0.000009	0.000013	0.000040	179.184313	-75.309154	173.377757
35905	9.514359	0.127575	-2.481272	-0.000181	0.093293	0.020283	1.000000	-0.000001	0.000026	0.000044	179.195474	-75.309564	173.368324
35906	9.527899	0.117483	-2.499053	0.010947	0.081209	0.037857	1.000000	-0.000021	0.000008	0.000041	179.185137	-75.301659	173.378095
35907	9.539052	0.128246	-2.529257	0.038529	0.088781	0.056342	1.000000	0.000003	0.000037	0.000038	179.194272	-75.303279	173.371183
35908	9.517167	0.104581	-2.467335	-0.018271	0.072315	0.019382	1.000000	-0.000002	0.000031	0.000036	179.190721	-75.303683	173.369441
35909	9.528313	0.115635	-2.497564	0.009310	0.079883	0.037869	1.000000	-0.000019	0.000012	0.000013	179.186438	-75.302407	173.373865
35910	9.548645	0.123827	-2.486676	-0.005575	0.089439	0.054809	1.000000	-0.000020	0.000023	0.000049	179.181086	-75.301307	173.384842
35911	9.515083	0.123686	-2.478694	-0.004767	0.089775	0.020315	1.000000	-0.000005	0.000020	0.000042	179.190781	-75.300920	173.376438
35912	9.566697	0.151856	-2.487888	-0.004974	0.117730	0.072678	1.000000	-0.000010	0.000017	0.000032	179.181673	-75.302941	173.378174
35913	9.528738	0.113083	-2.496059	0.007401	0.077394	0.037891	1.000000	-0.000006	0.000024	0.000034	179.188013	-75.303030	173.373183
35914	9.538021	0.109548	-2.454565	-0.035119	0.079090	0.036335	1.000000	-0.000009	0.000009	0.000047	179.184343	-75.302831	173.381540
35915	9.515423	0.120869	-2.477528	-0.006226	0.087282	0.020337	1.000000	-0.000013	0.000002	0.000045	179.194591	-75.300460	173.371664
35916	9.549161	0.119519	-2.484903	-0.008538	0.085882	0.054838	1.000000	-0.000010	0.000017	0.000032	179.187196	-75.297232	173.372076
35917	9.517957	0.098841	-2.464525	-0.023020	0.067224	0.019408	1.000000	0.000006	0.000013	0.000025	179.190710	-75.296108	173.371320
35918	9.535889	0.127784	-2.466189	-0.022051	0.095958	0.037282	1.000000	-0.000017	0.000019	0.000036	179.185641	-75.297508	173.369891
35919	9.531604	0.088319	-2.481893	-0.010986	0.054996	0.036979	1.000000	-0.000013	0.000026	0.000038	179.192603	-75.297819	173.363337
35920	9.526928	0.129366	-2.506570	0.018606	0.091981	0.038870	1.000000	-0.000021	0.000012	0.000034	179.178882	-75.294188	173.378832
35921	9.513599	0.138192	-2.488054	0.005328	0.102845	0.021308	1.000000	-0.000014	0.000030	0.000030	179.182475	-75.294956	173.375712
35922	9.529544	0.107411	-2.493229	0.001434	0.071792	0.037936	1.000000	-0.000009	0.000013	0.000040	179.174555	-75.289208	173.381482
35923	9.536442	0.124670	-2.464210	-0.025950	0.093165	0.037299	1.000000	0.000007	0.000024	0.000040	179.184690	-75.289348	173.373994
35924	9.522960	0.088052	-2.521141	0.026959	0.048866	0.038584	1.000000	-0.000022	0.000017	0.000026	179.169196	-75.287102	173.390743
35925	9.529867	0.105643	-2.492069	-0.000429	0.070235	0.037947	1.000000	0.000002	0.000026	0.000023	179.171299	-75.287405	173.390966
35926	9.529955	0.105095	-2.491758	-0.001723	0.069519	0.037952	1.000000	-0.000013	0.000006	0.000037	179.166324	-75.281127	173.385558
35927	9.514249	0.134661	-2.485760	0.000297	0.099388	0.021345	1.000000	-0.000010	0.000037	0.000033	179.171160	-75.282622	173.381617
35928	9.541317	0.115501	-2.521314	0.025965	0.076364	0.056487	1.000000	-0.000007	0.000032	0.000019	179.163041	-75.287615	173.382950
35929	9.555069	0.151004	-2.463385	-0.028298	0.119401	0.055208	1.000000	-0.000002	0.000030	0.000036	179.170487	-75.288434	173.377251
35930	9.548404	0.132267	-2.491595	-0.001187	0.096735	0.055859	1.000000	-0.000024	0.000017	0.000047	179.165927	-75.292540	173.383471
35931	9.535102	0.140948	-2.472977	-0.014460	0.107599	0.038295	1.000000	-0.000010	0.000037	0.000033	179.170727	-75.294064	173.379554
35932	9.551101	0.110018	-2.477879	-0.017419	0.076481	0.054904	1.000000	-0.000005	0.000035	0.000050	179.168961	-75.296378	173.388979
35933	9.519587	0.169699	-2.466338	-0.012876	0.136521	0.021710	1.000000	-0.000018	0.000004	0.000028	179.170940	-75.294157	173.387009
35934	9.524421	0.127451	-2.440908	-0.044099	0.097696	0.019778	1.000000	0.000003	0.000037	0.000039	179.167629	-75.295276	173.388078
35935	9.538005	0.117350	-2.458512	-0.031847	0.086232	0.037345	1.000000	-0.000017	0.000015	0.000043	179.176312	-75.294336	173.379284
35936	9.522286	0.146795	-2.452640	-0.029821	0.115544	0.020760	1.000000	-0.000017	0.000015	0.000043	179.172069	-75.293709	173.373492
35937	9.527083	0.104485	-2.427297	-0.060912	0.077226	0.018810	1.000000	-0.000010	0.000017	0.000032	179.176698	-75.293015	173.369727
35938	9.538270	0.115304	-2.457581	-0.033411	0.084135	0.037358	1.000000	0.000002	0.000018	0.000038	179.170726	-75.292563	173.373618
35939	9.542661	0.108038	-2.516556	0.021009	0.070015	0.056546	1.000000	-0.000017	0.000015	0.000043	179.179346	-75.291622	173.364878
35940	9.529314	0.116715	-2.498109	0.007521	0.080363	0.038986	1.000000	-0.000025	0.000021	0.000039	179.172962	-75.290373	173.362192
35941	9.538530	0.113169	-2.456670	-0.035162	0.082711	0.037364	1.000000	0.000006	0.000005	0.000040	179.182763	-75.288295	173.354980
35942	9.538615	0.112446	-2.456376	-0.035252	0.081813	0.037371	1.000000	-0.000013	0.000026	0.000038	179.176943	-75.291401	173.358548
35943	9.536365	0.132607	-2.468563	-0.020472	0.100515	0.038360	1.000000	-0.000021	0.000008	0.000041	179.184158	-75.289700	173.350761
35944	9.513849	0.144206	-2.491425	0.008328	0.108258	0.022430	1.000000	-0.000002	0.000015	0.000029	179.176823	-75.288417	173.353528
35945	9.527380	0.134207	-2.509234	0.020571	0.096780	0.040000	1.000000	-0.000017	0.000015	0.000043	179.185368	-75.287478	173.344834
35946	9.502891	0.131306	-2.460317	-0.020015	0.099188	0.003886	1.000000	-0.000028	0.000006	0.000052	179.184191	-75.290130	173.345039
35947	9.518744	0.100402	-2.465654	-0.023055	0.068698	0.020459	1.000000	0.000010	0.000020	0.000027	179.188632	-75.289773	173.343716
35948	9.516478	0.120647	-2.477934	-0.008065	0.086638	0.021462	1.000000	-0.000006	0.000004	0.000034	179.177542	-75.289407	173.359475
35949	9.534415	0.149308	-2.479823	-0.007422	0.115816	0.039390	1.000000	-0.000020	-0.000000	0.000056	179.191306	-75.286788	173.345015
35950	9.527668	0.130559	-2.508334	0.019090	0.093261	0.040037	1.000000	-0.000010	0.000017	0.000032	179.182508	-75.287233	173.349517
35951	9.530048	0.109062	-2.495654	0.003300	0.073940	0.039039	1.000000	-0.000005	0.000000	0.000041	179.191514	-75.284640	173.341718
35952	9.532419	0.087477	-2.482996	-0.012498	0.053957	0.038042	1.000000	-0.000017	0.000015	0.000043	179.184896	-75.284129	173.350290
35953	9.543632	0.098189	-2.513275	0.015030	0.061481	0.056613	1.000000	-0.000005	0.000020	0.000042	179.193960	-75.283755	173.342439
35954	9.557201	0.088090	-2.530920	0.027452	0.049118	0.074185	1.000000	-0.000021	0.000028	0.000042	179.181614	-75.285965	173.364726
35955	9.548381	0.135703	-2.496160	0.002571	0.100637	0.056997	1.000000	-0.000018	0.000023	0.000028	179.183342	-75.285990	173.362979
35956	9.530548	0.105783	-2.493883	0.001103	0.070183	0.039067	1.000000	0.000006	0.000013	0.000025	179.171697	-75.286327	173.380775
35957	9.530684	0.105126	-2.493390	0.000598	0.069868	0.039069	1.000000	-0.000032	0.000038	0.000051	179.181531	-75.288082	173.368962
35958	9.530857	0.104479	-2.492757	0.000323	0.069011	0.039075	1.000000	-0.000006	0.000028	0.000027	179.172127	-75.290325	173.376019
35959	9.544458	0.094507	-2.510276	0.012572	0.057516	0.056641	1.000000	-0.000009	0.000032	0.000040	179.179828	-75.291419	173.369107
35960	9.499799	0.083098	-2.471547	-0.014593	0.049377	0.003574	1.000000	-0.000009	0.000032	0.000040	179.171373	-75.292798	173.382744
35961	9.549290	0.131982	-2.492882	-0.000111	0.096828	0.057036	1.000000	-0.000014	0.000030	0.000030	179.174363	-75.293596	173.380168
35962	9.518026	0.111278	-2.472422	-0.014581	0.077585	0.021530	1.000000	-0.000024	0.000017	0.000047	179.168693	-75.292751	173.382318
35963	9.540703	0.098475	-2.448852	-0.044507	0.068688	0.037434	1.000000	-0.000007	0.000032	0.000019	179.167625	-75.293793	173.384782
35964	9.545250	0.091370	-2.507379	0.010124	0.053890	0.056664	1.000000	-0.000009	0.000048	0.000048	179.163369	-75.298322	173.390329
35965	9.525319	0.127399	-2.441923	-0.042793	0.097553	0.020907	1.000000	0.000006	0.000013	0.000025	179.166145	-75.297225	173.390252
35966	9.552348	0.108006	-2.477608	-0.017451	0.074113	0.056039	1.000000	-0.000005	0.000039	0.000042	179.158836	-75.301616	173.403044
35967	9.536796	0.137475	-2.471340	-0.015446	0.103998	0.039512	1.000000	-0.000009	0.000032	0.000040	179.166399	-75.302721	173.396284
35968	9.516717	0.128258	-2.481325	-0.001149	0.092551	0.022594	1.000000	-0.000021	0.000032	0.000034	179.155983	-75.307883	173.401598
35969	9.519150	0.106831	-2.468287	-0.016910	0.073198	0.021560	1.000000	-0.000006	0.000024	0.000034	179.161457	-75.308014	173.397417
35970	9.516974	0.126976	-2.480403	-0.002241	0.091364	0.022605	1.000000	-0.000024	0.000017	0.000047	179.157772	-75.307195	173.399753
35971	9.537365	0.134883	-2.469286	-0.016907	0.101471	0.039536	1.000000	-0.000010	0.000037	0.000033	179.161958	-75.308779	173.396421
35972	9.524070	0.143575	-2.450641	-0.029692	0.111677	0.021987	1.000000	-0.000013	0.000022	0.000045	179.157828	-75.311832	173.401819
35973	9.551071	0.124217	-2.486450	-0.004689	0.088980	0.057109	1.000000	-0.000022	0.000017	0.000026	179.157916	-75.311133	173.401274
35974	9.519732	0.103627	-2.466180	-0.018819	0.069621	0.021583	1.000000	-0.000009	0.000013	0.000040	179.148688	-75.311829	173.420097
35975	9.526600	0.120888	-2.437253	-0.046241	0.090897	0.020955	1.000000	-0.000002	0.000011	0.000036	179.155334	-75.310519	173.415175
35976	9.551296	0.122261	-2.485682	-0.005497	0.086633	0.057129	1.000000	-0.000017	0.000015	0.000043	179.150950	-75.312867	173.418425
35977	9.537937	0.130990	-2.467284	-0.018749	0.097486	0.039573	1.000000	-0.000010	0.000017	0.000032	179.154951	-75.312256	173.415276
35978	9.551504	0.121082	-2.484939	-0.006514	0.085381	0.057139	1.000000	-0.000006	0.000028	0.000027	179.143504	-75.313137	173.424762
35979	9.531338	0.111879	-2.495260	0.007162	0.074633	0.040212	1.000000	-0.000013	0.000002	0.000045	179.152770	-75.310827	173.415788
35980	9.531396	0.111114	-2.495070	0.006662	0.073712	0.040219	1.000000	0.000002	0.000018	0.000038	179.147261	-75.310649	173.420308
35981	9.490992	0.093251	-2.515959	0.034518	0.052553	0.006361	1.000000	0.000002	0.000018	0.000038	179.155180	-75.310113	173.414533
35982	9.531551	0.109714	-2.494539	0.006130	0.072345	0.040229	1.000000	0.000002	0.000003	0.000030	179.144895	-75.311002	173.429986
35983	9.545101	0.099834	-2.512256	0.018385	0.060821	0.057789	1.000000	-0.000022	0.000036	0.000027	179.144923	-75.312546	173.429503
35984	9.531802	0.108810	-2.493620	0.005970	0.070978	0.040239	1.000000	-0.000010	0.000021	0.000025	179.131784	-75.317707	173.444088
35985	9.527406	0.149898	-2.518209	0.035960	0.108725	0.042372	1.000000	-0.000013	0.000022	0.000045	179.141056	-75.317641	173.435113
35986	9.529806	0.128392	-2.505191	0.020287	0.088660	0.041317	1.000000	0.000006	0.000033	0.000025	179.128060	-75.319704	173.455650
35987	9.532152	0.106978	-2.492361	0.004555	0.069279	0.040252	1.000000	-0.000025	0.000002	0.000039	179.133227	-75.317349	173.449473
35988	9.534628	0.166076	-2.488021	0.007876	0.127979	0.041780	1.000000	0.000002	0.000065	0.000024	179.120694	-75.324238	173.463402
35989	9.523499	0.108708	-2.532106	0.046022	0.065420	0.041957	1.000000	-0.000013	0.000021	0.000045	179.129905	-75.324181	173.454489
35990	9.537257	0.143797	-2.474142	-0.008357	0.107525	0.040723	1.000000	-0.000024	0.000036	0.000047	179.121900	-75.326252	173.461540
35991	9.512780	0.140977	-2.424823	-0.049590	0.110520	0.004540	1.000000	-0.000009	0.000032	0.000040	179.129104	-75.327426	173.455135
35992	9.542089	0.100622	-2.447869	-0.039004	0.068057	0.038581	1.000000	-0.000009	0.000032	0.000040	179.122645	-75.333730	173.460035
35993	9.526525	0.130137	-2.441834	-0.037013	0.097953	0.022108	1.000000	-0.000017	0.000015	0.000043	179.130436	-75.332924	173.452110
35994	9.517576	0.132126	-2.482751	0.004085	0.094548	0.023816	1.000000	-0.000020	0.000015	0.000064	179.133305	-75.329091	173.446092
35995	9.544631	0.077314	-2.434263	-0.056297	0.047444	0.037499	1.000000	-0.000018	0.000023	0.000028	179.134408	-75.329211	173.444966
35996	9.538015	0.139256	-2.471481	-0.011131	0.103523	0.040763	1.000000	0.000006	0.000005	0.000040	179.126753	-75.327534	173.455319
35997	9.542546	0.096836	-2.446239	-0.042084	0.065076	0.038589	1.000000	-0.000025	0.000021	0.000039	179.131853	-75.327410	173.449215
35998	9.540359	0.116938	-2.458613	-0.027066	0.083189	0.039685	1.000000	-0.000017	-0.000009	0.000050	179.130019	-75.325910	173.447822
35999	9.542592	0.095406	-2.446116	-0.042787	0.063790	0.038594	1.000000	-0.000006	0.000009	0.000026	179.131614	-75.324358	173.447558
36000	9.535839	0.076904	-2.474640	-0.017149	0.041247	0.039216	1.000000	-0.000002	0.000011	0.000036	179.121608	-75.318748	173.455845
36001	9.571987	0.135034	-2.478072	-0.015589	0.099753	0.075276	1.000000	-0.000017	0.000019	0.000036	179.125937	-75.318393	173.451429
36002	9.542759	0.128674	-2.529747	0.039985	0.085870	0.060075	1.000000	-0.000012	-0.000002	0.000052	179.122811	-75.314336	173.459786
36003	9.524967	0.143846	-2.452125	-0.028180	0.110437	0.023247	1.000000	0.000021	0.000029	0.000018	179.123676	-75.315078	173.463473
36004	9.520451	0.104651	-2.468071	-0.016735	0.068880	0.022774	1.000000	-0.000003	0.000000	0.000021	179.110308	-75.314084	173.471419
36005	9.518211	0.124897	-2.480687	-0.002004	0.087583	0.023881	1.000000	-0.000028	-0.000013	0.000052	179.120479	-75.310036	173.459664
36006	9.556534	0.162106	-2.471864	-0.015352	0.126414	0.058863	1.000000	0.000017	0.000018	0.000023	179.110353	-75.311964	173.477349
36007	9.509289	0.126542	-2.521573	0.039526	0.083764	0.025623	1.000000	-0.000002	0.000011	0.000036	179.116511	-75.310701	173.472888
36008	9.509301	0.125784	-2.521567	0.038719	0.082746	0.025635	1.000000	-0.000009	-0.000011	0.000047	179.110508	-75.305599	173.479335
36009	9.531755	0.112554	-2.498531	0.008793	0.073698	0.041457	1.000000	0.000007	0.000001	0.000047	179.122572	-75.303172	173.469774
36010	9.506936	0.064339	-2.525234	0.033872	0.021693	0.024038	1.000000	-0.000005	0.000015	0.000049	179.117653	-75.300671	173.480945
36011	9.570026	0.103498	-2.564781	0.060864	0.057764	0.095248	1.000000	-0.000044	0.000018	0.000045	179.122571	-75.300220	173.472717
36012	9.545430	0.100886	-2.515827	0.019638	0.060126	0.059029	1.000000	0.000006	0.000013	0.000025	179.110212	-75.299453	173.488775
36013	9.538719	0.082200	-2.544169	0.046106	0.038214	0.059654	1.000000	-0.000016	0.000026	0.000059	179.124412	-75.299908	173.474307
36014	9.545669	0.099369	-2.514980	0.019038	0.058788	0.059038	1.000000	-0.000018	0.000023	0.000028	179.112006	-75.302670	173.482716
36015	9.534576	0.087402	-2.483839	-0.009411	0.050574	0.040362	1.000000	-0.000010	0.000037	0.000033	179.115507	-75.304313	173.480051
36016	9.512305	0.099202	-2.506294	0.019555	0.058316	0.024564	1.000000	-0.000002	0.000035	0.000029	179.104315	-75.306277	173.491179
36017	9.548407	0.076929	-2.500472	0.002370	0.038033	0.057920	1.000000	0.000002	0.000045	0.000024	179.105115	-75.308928	173.492635
36018	9.519530	0.116110	-2.476050	-0.008445	0.078622	0.023954	1.000000	-0.000002	0.000035	0.000029	179.095619	-75.310417	173.503494
36019	9.517462	0.136449	-2.488109	0.006270	0.097326	0.025091	1.000000	-0.000014	0.000011	0.000030	179.097612	-75.309081	173.501880
36020	9.519767	0.115166	-2.475185	-0.009220	0.077322	0.023963	1.000000	0.000013	0.000035	0.000014	179.082938	-75.312152	173.522061
36021	9.537990	0.143957	-2.476488	-0.008736	0.106364	0.042036	1.000000	-0.000013	0.000021	0.000045	179.091654	-75.312102	173.513608
36022	9.544951	0.161191	-2.447228	-0.035278	0.126964	0.041430	1.000000	-0.000002	0.000035	0.000029	179.083381	-75.319244	173.521204
36023	9.520229	0.113310	-2.473492	-0.009774	0.075651	0.023976	1.000000	-0.000002	0.000030	0.000036	179.089406	-75.320217	173.516860
36024	9.540642	0.121027	-2.462280	-0.024319	0.085095	0.040916	1.000000	-0.000009	0.000028	0.000048	179.087801	-75.322262	173.512252
36025	9.504898	0.142072	-2.466859	-0.008113	0.104677	0.007579	1.000000	-0.000006	0.000024	0.000034	179.092445	-75.322475	173.508842
36026	9.556864	0.169881	-2.475488	-0.009589	0.132221	0.060153	1.000000	0.000002	0.000041	0.000031	179.081348	-75.322353	173.518322
36027	9.541095	0.118991	-2.460626	-0.026259	0.083391	0.040926	1.000000	-0.000017	0.000015	0.000043	179.088634	-75.321553	173.510842
36028	9.529941	0.106883	-2.429600	-0.054510	0.074518	0.022232	1.000000	-0.000029	0.000034	0.000038	179.077431	-75.324365	173.516669
36029	9.507660	0.118575	-2.452219	-0.025561	0.082889	0.006452	1.000000	-0.000013	0.000021	0.000045	179.086047	-75.324331	173.508295
36030	9.528031	0.126270	-2.441166	-0.039681	0.092204	0.023396	1.000000	-0.000005	0.000020	0.000042	179.080912	-75.328070	173.519809
36031	9.521341	0.107657	-2.469461	-0.013194	0.070295	0.024011	1.000000	-0.000013	0.000026	0.000038	179.086174	-75.328515	173.514849
36032	9.526092	0.145754	-2.452868	-0.024706	0.109939	0.024565	1.000000	-0.000002	0.000011	0.000036	179.080336	-75.332087	173.524624
36033	9.562040	0.123232	-2.447509	-0.041893	0.089597	0.057891	1.000000	0.000002	0.000018	0.000038	179.087498	-75.331628	173.519553
36034	9.548668	0.132031	-2.429172	-0.054582	0.099936	0.040353	1.000000	-0.000014	0.000011	0.000030	179.079030	-75.333758	173.524527
36035	9.519515	0.125820	-2.480806	0.001350	0.086785	0.025191	1.000000	-0.000005	0.000015	0.000049	179.090211	-75.333064	173.514438
36036	9.560096	0.142083	-2.459288	-0.027116	0.106275	0.059075	1.000000	-0.000018	0.000004	0.000028	179.074499	-75.334500	173.534363
36037	9.539894	0.133107	-2.469749	-0.013358	0.095590	0.042141	1.000000	-0.000010	0.000017	0.000032	179.077621	-75.333989	173.532024
36038	9.519691	0.123874	-2.480226	0.000069	0.084419	0.025212	1.000000	-0.000001	0.000003	0.000051	179.077938	-75.330183	173.525501
36039	9.517574	0.143954	-2.492643	0.014778	0.103121	0.026386	1.000000	-0.000006	0.000004	0.000034	179.082301	-75.328213	173.522337
36040	9.515077	0.083708	-2.496318	0.011246	0.042555	0.024658	1.000000	-0.000006	0.000004	0.000034	179.075814	-75.328633	173.527300
36041	9.531101	0.133264	-2.510474	0.026902	0.090637	0.043944	1.000000	-0.000002	0.000011	0.000036	179.081518	-75.327431	173.523221
36042	9.499608	0.112566	-2.490339	0.012971	0.071480	0.008297	1.000000	-0.000005	0.000015	0.000049	179.078814	-75.328513	173.525196
36043	9.544668	0.122305	-2.528159	0.038904	0.078032	0.061503	1.000000	-0.000010	-0.000002	0.000032	179.081767	-75.325791	173.522990
36044	9.510981	0.122661	-2.520702	0.039795	0.077922	0.027033	1.000000	-0.000021	0.000008	0.000041	179.072050	-75.323881	173.527809
36045	9.526636	0.091651	-2.526034	0.036856	0.047243	0.043399	1.000000	0.000002	0.000018	0.000038	179.079053	-75.323445	173.522865
36046	9.547014	0.099319	-2.514971	0.022503	0.056659	0.060342	1.000000	-0.000021	0.000023	0.000049	179.077684	-75.326161	173.511427
36047	9.547141	0.098588	-2.514518	0.022020	0.056282	0.060345	1.000000	-0.000006	0.000024	0.000034	179.082044	-75.326423	173.508247
36048	9.535957	0.086418	-2.483493	-0.006290	0.047476	0.041620	1.000000	-0.000001	0.000026	0.000044	179.077954	-75.327922	173.511582
36049	9.525041	0.109594	-2.536618	0.050596	0.063717	0.044606	1.000000	-0.000002	0.000035	0.000029	179.080320	-75.329416	173.510891
36050	9.547609	0.096535	-2.512821	0.020700	0.053891	0.060361	1.000000	-0.000009	0.000032	0.000040	179.071525	-75.331315	173.524103
36051	9.547786	0.095974	-2.512166	0.020217	0.053510	0.060364	1.000000	-0.000022	0.000036	0.000027	179.070576	-75.332965	173.524498
36052	9.532406	0.125620	-2.505911	0.021449	0.082803	0.044027	1.000000	-0.000005	0.000035	0.000050	179.065076	-75.330681	173.535129
36053	9.514395	0.095560	-2.503613	0.020041	0.053056	0.025895	1.000000	-0.000010	0.000017	0.000032	179.067983	-75.330174	173.532963
36054	9.501066	0.104473	-2.485122	0.006812	0.063373	0.008359	1.000000	-0.000006	0.000028	0.000027	179.056546	-75.331173	173.546633
36055	9.521482	0.112414	-2.473888	-0.007936	0.073273	0.025298	1.000000	-0.000014	0.000030	0.000031	179.058163	-75.332121	173.545321
36056	9.560065	0.149632	-2.464411	-0.021650	0.111950	0.060384	1.000000	-0.000021	0.000032	0.000034	179.047542	-75.334419	173.559453
36057	9.533132	0.122824	-2.503284	0.019129	0.079775	0.044056	1.000000	0.000001	0.000026	0.000023	179.047725	-75.334920	173.561426
36058	9.540112	0.140182	-2.473943	-0.008157	0.100323	0.043461	1.000000	-0.000010	0.000036	0.000033	179.037930	-75.338154	173.571126
36059	9.542354	0.118645	-2.460969	-0.023820	0.080852	0.042253	1.000000	-0.000017	0.000015	0.000043	179.044802	-75.337412	173.563989
36060	9.506644	0.139935	-2.465690	-0.008399	0.099960	0.008994	1.000000	0.000001	0.000026	0.000023	179.030082	-75.333529	173.577663
36061	9.553893	0.128950	-2.490822	0.002297	0.087368	0.061018	1.000000	-0.000006	0.000004	0.000034	179.034151	-75.331563	173.574738
36062	9.542663	0.116883	-2.459855	-0.026350	0.078684	0.042264	1.000000	-0.000025	0.000040	0.000040	179.027364	-75.332444	173.569284
36063	9.506984	0.138118	-2.464479	-0.010109	0.098351	0.009008	1.000000	-0.000002	0.000011	0.000036	179.032774	-75.331236	173.565440
36064	9.561038	0.144831	-2.460919	-0.026902	0.106731	0.060429	1.000000	-0.000009	0.000013	0.000040	179.025526	-75.327786	173.569012
36065	9.495818	0.125276	-2.433283	-0.039460	0.089210	-0.009749	1.000000	-0.000009	0.000032	0.000040	179.031708	-75.329013	173.563472
36066	9.536464	0.141331	-2.411503	-0.069060	0.108837	0.024124	1.000000	-0.000009	0.000009	0.000047	179.027603	-75.324589	173.560024
36067	9.543186	0.113282	-2.457994	-0.029832	0.075686	0.042278	1.000000	-0.000006	0.000024	0.000034	179.031693	-75.324821	173.557056
36068	9.520887	0.125066	-2.480982	-0.001011	0.083500	0.026583	1.000000	-0.000017	-0.000005	0.000043	179.023887	-75.321360	173.561383
36069	9.543250	0.111927	-2.457806	-0.030960	0.074289	0.042285	1.000000	-0.000006	0.000004	0.000034	179.027852	-75.319373	173.558527
36070	9.523048	0.102818	-2.468273	-0.017625	0.063104	0.025356	1.000000	-0.000005	0.000020	0.000042	179.021846	-75.316798	173.561249
36071	9.570281	0.091641	-2.493454	-0.006970	0.050471	0.077378	1.000000	-0.000006	0.000004	0.000034	179.025783	-75.314804	173.558412
36072	9.512168	0.125399	-2.521645	0.039318	0.078383	0.028454	1.000000	-0.000013	0.000006	0.000038	179.018369	-75.316655	173.554464
36073	9.534574	0.112248	-2.498284	0.009366	0.069169	0.044151	1.000000	-0.000009	0.000013	0.000040	179.024347	-75.315657	173.549090
36074	9.532558	0.132365	-2.510571	0.024345	0.087303	0.045402	1.000000	-0.000001	0.000007	0.000043	179.021023	-75.315980	173.548760
36075	9.521269	0.120294	-2.479753	-0.004035	0.079086	0.026618	1.000000	-0.000018	0.000023	0.000028	179.021023	-75.316148	173.548554
36076	9.534772	0.110165	-2.497620	0.007824	0.066931	0.044167	1.000000	-0.000005	-0.000004	0.000049	179.019109	-75.311440	173.549145
36077	9.512440	0.121887	-2.520790	0.036799	0.075366	0.028488	1.000000	-0.000006	0.000004	0.000034	179.022977	-75.309455	173.546353
36078	9.534834	0.108741	-2.497448	0.006819	0.065523	0.044178	1.000000	-0.000009	0.000013	0.000040	179.014696	-75.308731	173.555755
36079	9.519384	0.138487	-2.491662	0.008794	0.095471	0.027893	1.000000	-0.000006	0.000009	0.000026	179.015209	-75.307214	173.556379
36080	9.514677	0.099177	-2.507755	0.020435	0.053926	0.027253	1.000000	-0.000002	0.000011	0.000036	179.008482	-75.308088	173.559571
36081	9.532983	0.127703	-2.509197	0.020828	0.082863	0.045448	1.000000	-0.000021	0.000023	0.000049	179.017124	-75.308309	173.550088
36082	9.512826	0.118595	-2.519492	0.034467	0.071611	0.028524	1.000000	-0.000017	0.000019	0.000036	179.006013	-75.307448	173.560315
36083	9.548751	0.096059	-2.513835	0.017217	0.051110	0.061741	1.000000	-0.000010	0.000036	0.000033	179.008632	-75.309138	173.558345
36084	9.535459	0.104825	-2.495229	0.004048	0.061464	0.044205	1.000000	-0.000013	0.000021	0.000045	179.004945	-75.309591	173.555507
36085	9.537681	0.083217	-2.482139	-0.011614	0.041981	0.042941	1.000000	-0.000006	0.000043	0.000035	179.008904	-75.312043	173.552624
36086	9.513450	0.115933	-2.517257	0.032314	0.068939	0.028551	1.000000	-0.000009	0.000013	0.000040	179.001022	-75.310144	173.563392
36087	9.537940	0.081843	-2.481191	-0.012815	0.040604	0.042945	1.000000	-0.000002	0.000030	0.000037	179.006220	-75.311139	173.559693
36088	9.536065	0.102098	-2.493024	0.002009	0.058742	0.044223	1.000000	-0.000010	0.000036	0.000033	178.996631	-75.314003	173.566201
36089	9.534177	0.122384	-2.504920	0.016688	0.077428	0.045501	1.000000	-0.000006	0.000024	0.000034	179.000446	-75.314239	173.563440
36090	9.509454	0.119685	-2.455901	-0.023575	0.079842	0.009153	1.000000	-0.000021	0.000023	0.000049	178.996498	-75.319537	173.565080
36091	9.536463	0.100065	-2.491583	0.001348	0.056900	0.044233	1.000000	0.000010	0.000020	0.000027	178.998887	-75.319334	173.565599
36092	9.554848	0.128933	-2.492783	0.001927	0.085163	0.062456	1.000000	-0.000015	0.000038	0.000016	178.979038	-75.322840	173.588145
36093	9.530209	0.126415	-2.443399	-0.039137	0.088210	0.026100	1.000000	-0.000009	0.000047	0.000048	178.988292	-75.325829	173.579404
36094	9.521523	0.128733	-2.483998	0.002503	0.084873	0.027994	1.000000	-0.000017	0.000019	0.000036	178.979211	-75.325525	173.577823
36095	9.541918	0.136476	-2.472848	-0.012291	0.094695	0.044933	1.000000	-0.000013	0.000026	0.000038	178.983655	-75.326003	173.573496
36096	9.508331	0.136911	-2.465033	-0.011290	0.094845	0.010468	1.000000	-0.000013	0.000026	0.000038	178.976387	-75.326063	173.573489
36097	9.544235	0.114233	-2.459331	-0.028553	0.074299	0.043653	1.000000	-0.000009	0.000032	0.000040	178.982173	-75.327301	173.568249
36098	9.530911	0.122966	-2.440836	-0.041637	0.084661	0.026121	1.000000	-0.000017	0.000015	0.000043	178.977099	-75.327443	173.567631
36099	9.540451	0.154625	-2.483322	0.000907	0.111149	0.046250	1.000000	-0.000010	0.000036	0.000033	178.979532	-75.329150	173.565797
36100	9.535783	0.115070	-2.499149	0.012736	0.069587	0.045565	1.000000	-0.000012	0.000013	0.000060	178.982222	-75.331337	173.560183
36101	9.535890	0.114299	-2.498776	0.012249	0.069180	0.045568	1.000000	0.000001	0.000026	0.000023	178.981867	-75.331838	173.562548
36102	9.511100	0.111688	-2.449893	-0.028464	0.071767	0.009203	1.000000	-0.000009	0.000009	0.000047	178.980531	-75.332577	173.552601
36103	9.544914	0.109835	-2.456895	-0.030564	0.070291	0.043676	1.000000	-0.000006	0.000024	0.000034	178.984194	-75.332841	173.549944
36104	9.522720	0.121721	-2.479760	-0.001318	0.078233	0.028049	1.000000	-0.000002	0.000011	0.000036	178.977872	-75.333411	173.551316
36105	9.545069	0.108501	-2.456353	-0.031283	0.068954	0.043684	1.000000	-0.000002	0.000011	0.000036	178.982782	-75.332225	173.547826
36106	9.516012	0.102542	-2.508137	0.025010	0.055233	0.028658	1.000000	-0.000021	0.000008	0.000041	178.972940	-75.332855	173.554959
36107	9.536314	0.110188	-2.497342	0.010213	0.065036	0.045599	1.000000	0.000002	-0.000002	0.000038	178.979089	-75.330219	173.550659
36108	9.545225	0.106490	-2.455833	-0.032203	0.066429	0.043698	1.000000	-0.000014	0.000030	0.000031	178.966715	-75.332974	173.559997
36109	9.521044	0.139337	-2.491131	0.011960	0.093981	0.029388	1.000000	-0.000021	0.000008	0.000041	178.971612	-75.331488	173.554228
36110	9.536566	0.108345	-2.496461	0.009032	0.062549	0.045616	1.000000	-0.000010	0.000017	0.000032	178.959252	-75.331619	173.570311
36111	9.521217	0.138134	-2.490537	0.011019	0.092517	0.029403	1.000000	-0.000017	0.000019	0.000036	178.962150	-75.331363	173.567044
36112	9.525964	0.131202	-2.549366	0.064952	0.077828	0.048864	1.000000	-0.000006	0.000028	0.000027	178.948000	-75.329891	173.582264
36113	9.514633	0.119255	-2.518433	0.036614	0.069619	0.030014	1.000000	-0.000010	0.000017	0.000032	178.950169	-75.329403	173.580653
36114	9.536994	0.106042	-2.494924	0.006224	0.059739	0.045636	1.000000	-0.000017	0.000015	0.000043	178.942126	-75.326598	173.586401
36115	9.535129	0.126313	-2.506934	0.020897	0.078415	0.046966	1.000000	0.000006	0.000033	0.000026	178.942959	-75.327867	173.587994
36116	9.523801	0.114350	-2.475958	-0.008856	0.069674	0.028110	1.000000	-0.000010	0.000017	0.000032	178.929237	-75.319396	173.588353
36117	9.515058	0.116642	-2.516948	0.032828	0.066850	0.030047	1.000000	0.000003	0.000009	0.000053	178.942002	-75.318016	173.577311
36118	9.555763	0.132457	-2.494948	0.003866	0.086257	0.063925	1.000000	-0.000013	0.000045	0.000039	178.933729	-75.322104	173.580266
36119	9.530844	0.084706	-2.521250	0.029553	0.035058	0.046256	1.000000	-0.000017	0.000034	0.000044	178.939941	-75.323569	173.573622
36120	9.551298	0.092297	-2.509870	0.014876	0.044173	0.063196	1.000000	-0.000009	0.000032	0.000040	178.930688	-75.326085	173.588794
36121	9.515749	0.113750	-2.514468	0.031195	0.063958	0.030072	1.000000	-0.000006	0.000028	0.000027	178.930776	-75.326805	173.589760
36122	9.538145	0.100602	-2.490746	0.001157	0.054141	0.045670	1.000000	-0.000013	0.000026	0.000038	178.923401	-75.327247	173.592594
36123	9.556646	0.129146	-2.491739	0.001492	0.083000	0.063953	1.000000	-0.000002	0.000050	0.000037	178.928257	-75.330476	173.589171
36124	9.504812	0.100562	-2.481990	0.001859	0.053918	0.011209	1.000000	-0.000026	0.000029	0.000025	178.913564	-75.331817	173.600526
36125	9.556976	0.128081	-2.490528	0.000535	0.081652	0.063965	1.000000	0.000002	0.000018	0.000038	178.919578	-75.331377	173.596346
36126	9.509967	0.138095	-2.464580	-0.010967	0.093133	0.011971	1.000000	-0.000014	0.000049	0.000031	178.908325	-75.334944	173.607293
36127	9.532397	0.124931	-2.440669	-0.040949	0.083799	0.027555	1.000000	-0.000006	0.000024	0.000034	178.911684	-75.335199	173.604900
36128	9.501474	0.140041	-2.504761	0.030099	0.089351	0.013937	1.000000	-0.000002	0.000015	0.000029	178.900137	-75.334034	173.614422
36129	9.544092	0.135097	-2.470436	-0.014227	0.090193	0.046454	1.000000	-0.000013	0.000021	0.000046	178.907508	-75.334048	173.607019
36130	9.552971	0.131233	-2.428858	-0.056575	0.091529	0.044506	1.000000	-0.000009	0.000013	0.000040	178.899223	-75.335328	173.616707
36131	9.542321	0.154692	-2.482255	0.000261	0.107809	0.047829	1.000000	-0.000003	0.000019	0.000021	178.897134	-75.335065	173.620315
36132	9.524043	0.124917	-2.480411	-0.000664	0.077573	0.029539	1.000000	-0.000017	-0.000005	0.000043	178.891512	-75.334577	173.619844
36133	9.546326	0.111638	-2.457031	-0.030648	0.068225	0.045112	1.000000	-0.000025	0.000021	0.000040	178.894840	-75.334535	173.615178
36134	9.530982	0.141422	-2.451257	-0.028416	0.097556	0.028956	1.000000	-0.000018	-0.000000	0.000035	178.883104	-75.333908	173.626899
36135	9.555978	0.142702	-2.499649	0.011599	0.093596	0.065391	1.000000	-0.000009	0.000013	0.000040	178.888340	-75.332949	173.622118
36136	9.531076	0.140108	-2.450967	-0.029668	0.096080	0.028967	1.000000	-0.000006	0.000004	0.000034	178.876586	-75.329817	173.635800
36137	9.517473	0.103851	-2.508365	0.023896	0.052695	0.030159	1.000000	-0.000017	0.000015	0.000043	178.882492	-75.329082	173.629423
36138	9.556181	0.140700	-2.498987	0.009908	0.091130	0.065416	1.000000	-0.000010	0.000017	0.000032	178.871748	-75.329270	173.640261
36139	9.522507	0.141215	-2.491535	0.011096	0.091860	0.030954	1.000000	-0.000013	0.000002	0.000045	178.878905	-75.327082	173.633054
36140	9.537955	0.110136	-2.496924	0.007493	0.060414	0.047112	1.000000	-0.000010	0.000017	0.000032	178.865389	-75.323262	173.648945
36141	9.544861	0.127209	-2.467882	-0.020026	0.081458	0.046520	1.000000	-0.000009	0.000009	0.000047	178.873875	-75.321827	173.640849
36142	9.515867	0.121278	-2.519708	0.035754	0.068095	0.031572	1.000000	-0.000002	0.000011	0.000036	178.868438	-75.319315	173.638388
36143	9.524695	0.117386	-2.478271	-0.006909	0.070043	0.029593	1.000000	-0.000009	0.000009	0.000047	178.876906	-75.317877	173.630295
36144	9.538206	0.107196	-2.496095	0.005880	0.057681	0.047129	1.000000	-0.000022	0.000012	0.000034	178.865656	-75.320744	173.639698
36145	9.517982	0.098217	-2.506659	0.019751	0.047100	0.030196	1.000000	-0.000009	0.000009	0.000047	178.874103	-75.319314	173.631624
36146	9.538330	0.105718	-2.495684	0.004306	0.056268	0.047138	1.000000	-0.000009	0.000013	0.000040	178.865126	-75.315270	173.643711
36147	9.516218	0.117679	-2.518554	0.033320	0.064792	0.031603	1.000000	-0.000006	0.000024	0.000034	178.868241	-75.315527	173.641540
36148	9.518199	0.096090	-2.505918	0.018311	0.044735	0.030210	1.000000	-0.000017	-0.000005	0.000043	178.863566	-75.316472	173.639895
36149	9.536604	0.124545	-2.507473	0.018599	0.073548	0.048549	1.000000	0.000002	0.000018	0.000038	178.869298	-75.316042	173.635960
36150	9.531784	0.085188	-2.523471	0.030321	0.031954	0.047746	1.000000	-0.000017	0.000019	0.000036	178.859039	-75.317988	173.646783
36151	9.516532	0.115076	-2.517488	0.032303	0.061952	0.031625	1.000000	-0.000018	0.000023	0.000029	178.858118	-75.318192	173.647338
36152	9.550386	0.113221	-2.524314	0.029542	0.059769	0.066099	1.000000	-0.000013	0.000021	0.000046	178.851008	-75.315258	173.652947
36153	9.538993	0.101059	-2.493342	0.001249	0.051559	0.047165	1.000000	-0.000002	0.000030	0.000037	178.855418	-75.316281	173.649910
36154	9.523838	0.130968	-2.487005	0.003815	0.080912	0.031055	1.000000	0.000001	0.000050	0.000017	178.837929	-75.323297	173.671753
36155	9.525989	0.109455	-2.473656	-0.011807	0.061371	0.029646	1.000000	-0.000028	0.000045	0.000053	178.846473	-75.326002	173.661311
36156	9.559951	0.107459	-2.480062	-0.013868	0.059194	0.064115	1.000000	-0.000006	0.000043	0.000035	178.837605	-75.329571	173.667560
36157	9.512985	0.117560	-2.453975	-0.025316	0.071292	0.012127	1.000000	-0.000006	0.000043	0.000035	178.840698	-75.332060	173.665417
36158	9.528524	0.086563	-2.458854	-0.028026	0.039954	0.028239	1.000000	-0.000014	0.000030	0.000031	178.831026	-75.334703	173.667599
36159	9.524880	0.127791	-2.483176	0.001756	0.077725	0.031081	1.000000	-0.000002	0.000030	0.000037	178.835378	-75.335741	173.664609
36160	9.567495	0.122717	-2.448621	-0.042504	0.077898	0.063541	1.000000	-0.000013	0.000026	0.000038	178.827106	-75.337209	173.669463
36161	9.533871	0.123349	-2.440977	-0.041280	0.078670	0.029080	1.000000	-0.000010	0.000017	0.000032	178.828711	-75.336727	173.668338
36162	9.533988	0.122822	-2.440546	-0.041514	0.077720	0.029087	1.000000	-0.000006	0.000028	0.000027	178.817204	-75.339221	173.674935
36163	9.547543	0.112733	-2.458194	-0.029338	0.065938	0.046613	1.000000	-0.000002	0.000011	0.000036	178.821429	-75.338048	173.672044
36164	9.525488	0.124680	-2.480999	-0.000236	0.074002	0.031110	1.000000	-0.000017	0.000034	0.000044	178.816340	-75.340271	173.671364
36165	9.554598	0.129173	-2.428585	-0.057273	0.086037	0.046033	1.000000	-0.000018	0.000004	0.000028	178.815182	-75.338274	173.672110
36166	9.545947	0.131899	-2.469597	-0.015505	0.082680	0.048059	1.000000	-0.000010	0.000021	0.000025	178.800835	-75.339090	173.685355
36167	9.512299	0.132678	-2.462045	-0.014271	0.083465	0.013600	1.000000	-0.000022	0.000012	0.000034	178.801717	-75.338084	173.683569
36168	9.532657	0.140301	-2.451007	-0.028994	0.092611	0.030547	1.000000	-0.000010	0.000013	0.000040	178.794831	-75.338277	173.685874
36169	9.546200	0.130049	-2.468715	-0.016822	0.080820	0.048073	1.000000	-0.000005	0.000019	0.000042	178.801057	-75.338099	173.680478
36170	9.532827	0.138831	-2.450429	-0.029353	0.091132	0.030559	1.000000	-0.000021	0.000008	0.000041	178.793287	-75.340581	173.688187
36171	9.526101	0.120482	-2.478853	-0.002794	0.069230	0.031145	1.000000	0.000006	0.000033	0.000026	178.793478	-75.341875	173.690330
36172	9.512750	0.129340	-2.460481	-0.015366	0.079554	0.013631	1.000000	0.000006	0.000005	0.000040	178.788397	-75.343696	173.695256
36173	9.539675	0.109437	-2.496471	0.009470	0.056410	0.048675	1.000000	-0.000020	-0.000000	0.000056	178.799238	-75.341311	173.683303
36174	9.526282	0.118167	-2.478271	-0.003757	0.066744	0.031161	1.000000	-0.000018	0.000019	0.000036	178.788146	-75.340973	173.695871
36175	9.546644	0.125690	-2.467225	-0.018628	0.076400	0.048105	1.000000	-0.000001	0.000007	0.000044	178.795586	-75.339356	173.689683
36176	9.531145	0.110367	-2.537154	0.050084	0.051630	0.050724	1.000000	-0.000021	0.000008	0.000041	178.787554	-75.338108	173.697783
36177	9.506173	0.107781	-2.488474	0.009161	0.054778	0.014233	1.000000	-0.000010	0.000013	0.000040	178.792332	-75.337185	173.693394
36178	9.546822	0.123439	-2.466648	-0.020131	0.074007	0.048120	1.000000	-0.000017	0.000011	0.000051	178.789217	-75.336190	173.693431
36179	9.524788	0.135436	-2.489477	0.008900	0.082574	0.032643	1.000000	0.000006	0.000033	0.000026	178.789323	-75.337491	173.695652
36180	9.531475	0.107466	-2.536041	0.048245	0.048774	0.050748	1.000000	-0.000005	-0.000004	0.000049	178.786363	-75.335710	173.700832
36181	9.518058	0.116280	-2.517938	0.035105	0.059681	0.033234	1.000000	0.000005	0.000013	0.000025	178.786363	-75.334798	173.703143
36182	9.540303	0.103011	-2.494343	0.005274	0.049657	0.048715	1.000000	-0.000006	0.000024	0.000035	178.776923	-75.336427	173.713694
36183	9.552020	0.113699	-2.524367	0.032566	0.056964	0.067704	1.000000	-0.000013	0.000021	0.000046	178.783699	-75.336499	173.706812
36184	9.506819	0.102937	-2.486211	0.006167	0.049585	0.014263	1.000000	-0.000014	0.000030	0.000031	178.773912	-75.338410	173.708901
36185	9.523555	0.152433	-2.499773	0.021524	0.097446	0.034152	1.000000	-0.000006	0.000024	0.000035	178.776634	-75.338721	173.707060
36186	9.532137	0.103532	-2.533713	0.045494	0.044552	0.050781	1.000000	0.000006	0.000024	0.000040	178.770970	-75.338630	173.713335
36187	9.539130	0.120490	-2.504359	0.017956	0.065544	0.050209	1.000000	-0.000036	0.000031	0.000049	178.776464	-75.339856	173.705004
36188	9.520833	0.090661	-2.502177	0.016583	0.035352	0.031795	1.000000	0.000014	0.000026	0.000029	178.766153	-75.339798	173.719800
36189	9.527845	0.107586	-2.472736	-0.010955	0.056339	0.031221	1.000000	-0.000020	0.000038	0.000057	178.776993	-75.341847	173.707862
36190	9.519379	0.109966	-2.513222	0.030830	0.053056	0.033286	1.000000	-0.000006	0.000043	0.000035	178.768393	-75.345231	173.713996
36191	9.546704	0.135237	-2.472883	-0.011117	0.084117	0.049655	1.000000	-0.000002	0.000030	0.000037	178.772416	-75.346300	173.711288
36192	9.528407	0.105398	-2.470664	-0.012225	0.053934	0.031233	1.000000	-0.000009	0.000032	0.000040	178.765018	-75.348431	173.722002
36193	9.548861	0.112892	-2.459251	-0.027116	0.063549	0.048176	1.000000	-0.000002	0.000030	0.000037	178.769021	-75.349501	173.719313
36194	9.513470	0.134411	-2.463841	-0.010140	0.083008	0.015217	1.000000	-0.000005	0.000039	0.000043	178.765071	-75.355245	173.717455
36195	9.513634	0.133705	-2.463246	-0.010621	0.082554	0.015220	1.000000	-0.000006	0.000024	0.000035	178.767693	-75.355563	173.715701
36196	9.529017	0.102648	-2.468425	-0.014170	0.051145	0.031245	1.000000	-0.000010	0.000017	0.000032	178.756679	-75.351885	173.723621
36197	9.527257	0.122985	-2.480657	0.000459	0.069806	0.032745	1.000000	-0.000006	0.000004	0.000034	178.759195	-75.349982	173.721951
36198	9.534217	0.140097	-2.451395	-0.027248	0.090295	0.032178	1.000000	0.000002	0.000041	0.000031	178.749553	-75.351626	173.730620
36199	9.534379	0.139477	-2.450801	-0.027732	0.089837	0.032181	1.000000	-0.000025	0.000021	0.000040	178.752168	-75.351635	173.726570
36200	9.514179	0.130701	-2.461302	-0.013264	0.078860	0.015247	1.000000	-0.000022	0.000012	0.000034	178.743481	-75.354000	173.727541
36201	9.548006	0.128805	-2.468196	-0.015517	0.077088	0.049706	1.000000	-0.000010	0.000017	0.000032	178.744684	-75.353557	173.726751
36202	9.546299	0.149137	-2.480264	-0.000738	0.095182	0.051222	1.000000	-0.000025	0.000021	0.000040	178.734787	-75.354862	173.739884
36203	9.526128	0.140321	-2.490663	0.013198	0.084668	0.034285	1.000000	-0.000006	0.000024	0.000035	178.737333	-75.355181	173.738192
36204	9.516357	0.107192	-2.447564	-0.030391	0.056820	0.013754	1.000000	-0.000021	-0.000000	0.000056	178.735178	-75.351692	173.737494
36205	9.526284	0.138782	-2.490150	0.011983	0.083223	0.034299	1.000000	-0.000014	0.000030	0.000031	178.735057	-75.352703	173.737610
36206	9.528196	0.117250	-2.477327	-0.003137	0.063166	0.032790	1.000000	-0.000002	0.000011	0.000036	178.729079	-75.354534	173.738004
36207	9.541683	0.107081	-2.495228	0.009025	0.051326	0.050305	1.000000	-0.000018	-0.000000	0.000035	178.730838	-75.352112	173.735704
36208	9.528276	0.115952	-2.477082	-0.004056	0.061746	0.032798	1.000000	-0.000017	0.000015	0.000043	178.724680	-75.351997	173.739520
36209	9.526549	0.136089	-2.489288	0.010568	0.080404	0.034324	1.000000	-0.000009	0.000009	0.000047	178.732492	-75.350630	173.731973
36210	9.541841	0.104864	-2.494717	0.007777	0.048916	0.050318	1.000000	-0.000014	0.000006	0.000038	178.723966	-75.350180	173.739281
36211	9.546946	0.142844	-2.478144	-0.004669	0.089000	0.051279	1.000000	-0.000002	0.000011	0.000036	178.727717	-75.349050	173.736793
36212	9.533312	0.106660	-2.535633	0.048570	0.045232	0.052425	1.000000	-0.000009	0.000009	0.000047	178.724108	-75.345554	173.738236
36213	9.542011	0.102751	-2.494155	0.005917	0.047074	0.050329	1.000000	0.000005	0.000013	0.000025	178.723798	-75.344655	173.740802
36214	9.540292	0.122991	-2.506358	0.020301	0.065209	0.051868	1.000000	-0.000017	0.000011	0.000051	178.719702	-75.342504	173.746783
36215	9.542140	0.101271	-2.493721	0.004719	0.045622	0.050336	1.000000	-0.000002	0.000011	0.000036	178.723411	-75.341368	173.744333
36216	9.540458	0.121450	-2.505798	0.019568	0.063715	0.051879	1.000000	-0.000001	0.000026	0.000044	178.718164	-75.343709	173.754193
36217	9.538807	0.141670	-2.517773	0.034182	0.082376	0.053423	1.000000	0.000002	0.000022	0.000031	178.719874	-75.343801	173.754254
36218	9.547342	0.092705	-2.551630	0.058134	0.029521	0.069969	1.000000	-0.000013	0.000036	0.000054	178.718813	-75.344852	173.752357
36219	9.539127	0.140183	-2.516644	0.033033	0.080987	0.053439	1.000000	-0.000018	0.000023	0.000029	178.717194	-75.345109	173.753514
36220	9.542815	0.097820	-2.491277	0.002702	0.041764	0.050354	1.000000	-0.000014	0.000030	0.000031	178.706247	-75.348422	173.764193
36221	9.534362	0.100424	-2.531936	0.044393	0.039009	0.052471	1.000000	-0.000017	0.000034	0.000044	178.711381	-75.349967	173.758475
36222	9.541366	0.117343	-2.502536	0.016610	0.059463	0.051911	1.000000	0.000006	0.000024	0.000041	178.705916	-75.349388	173.767270
36223	9.543297	0.095695	-2.489512	0.001037	0.039868	0.050362	1.000000	-0.000017	0.000038	0.000037	178.707685	-75.351395	173.764986
36224	9.521413	0.107836	-2.512132	0.029728	0.047988	0.034980	1.000000	-0.000002	0.000030	0.000037	178.698490	-75.350733	173.780017
36225	9.541859	0.115306	-2.500750	0.014799	0.057535	0.051926	1.000000	-0.000013	0.000026	0.000038	178.701519	-75.351283	173.776895
36226	9.542007	0.114629	-2.500216	0.014305	0.056615	0.051932	1.000000	-0.000002	0.000030	0.000037	178.694874	-75.352552	173.779849
36227	9.528677	0.123462	-2.481789	0.001188	0.067540	0.034426	1.000000	-0.000017	0.000015	0.000043	178.699866	-75.351877	173.774249
36228	9.530533	0.101660	-2.469012	-0.014354	0.047467	0.032868	1.000000	-0.000001	0.000022	0.000052	178.699447	-75.352481	173.774194
36229	9.515434	0.131382	-2.463072	-0.012383	0.077523	0.016927	1.000000	-0.000010	0.000017	0.000032	178.700379	-75.352042	173.773651
36230	9.549334	0.129463	-2.469662	-0.014631	0.075210	0.051384	1.000000	-0.000010	0.000041	0.000026	178.687755	-75.354851	173.783819
36231	9.529191	0.120809	-2.479945	-0.000662	0.064732	0.034445	1.000000	-0.000018	0.000019	0.000036	178.689368	-75.354643	173.781660
36232	9.517593	0.108822	-2.449135	-0.029531	0.056105	0.015368	1.000000	0.000002	0.000022	0.000031	178.679572	-75.351103	173.792323
36233	9.536255	0.137299	-2.450314	-0.029386	0.084769	0.033886	1.000000	-0.000018	0.000019	0.000036	178.681166	-75.350888	173.790179
36234	9.531259	0.098054	-2.466356	-0.017902	0.043356	0.032881	1.000000	-0.000025	0.000021	0.000040	178.674009	-75.350925	173.789652
36235	9.523060	0.145632	-2.431384	-0.043016	0.094820	0.016385	1.000000	-0.000010	0.000036	0.000033	178.674973	-75.352693	173.789079
36236	9.538392	0.114470	-2.436439	-0.046158	0.063293	0.032318	1.000000	0.000002	0.000017	0.000038	178.667514	-75.351477	173.800803
36237	9.514652	0.147529	-2.472061	-0.002018	0.091089	0.018546	1.000000	-0.000002	-0.000008	0.000036	178.670942	-75.348120	173.798585
36238	9.543295	0.106913	-2.495640	0.007668	0.048193	0.051984	1.000000	0.000001	0.000007	0.000023	178.658003	-75.346712	173.809942
36239	9.528122	0.136830	-2.490049	0.009638	0.078258	0.036067	1.000000	-0.000017	-0.000005	0.000043	178.662806	-75.343817	173.804488
36240	9.563643	0.113725	-2.484651	-0.008276	0.056773	0.068932	1.000000	0.000010	0.000016	0.000035	178.655119	-75.340539	173.814537
36241	9.536558	0.087331	-2.524138	0.032796	0.024911	0.052562	1.000000	-0.000006	0.000009	0.000027	178.653884	-75.339097	173.816631
36242	9.528306	0.134878	-2.489451	0.007624	0.075916	0.036087	1.000000	-0.000033	0.000019	0.000051	178.649522	-75.338869	173.816260
36243	9.533527	0.172847	-2.472687	-0.004877	0.115971	0.037121	1.000000	0.000025	0.000016	0.000020	178.648912	-75.338251	173.821396
36244	9.516480	0.077244	-2.534227	0.045742	0.012580	0.035633	1.000000	-0.000048	0.000003	0.000057	178.645858	-75.336434	173.817818
36245	9.533619	0.171516	-2.472423	-0.005870	0.114559	0.037137	1.000000	-0.000018	0.000004	0.000028	178.643921	-75.334463	173.819238
36246	9.479397	0.119397	-2.551562	0.077074	0.050858	0.004398	1.000000	0.000006	0.000028	0.000033	178.636595	-75.337315	173.826972
36247	9.503244	0.084927	-2.515489	0.031968	0.022093	0.018133	1.000000	-0.000029	0.000010	0.000045	178.640738	-75.336105	173.820820
36248	9.528752	0.130858	-2.487957	0.005202	0.071676	0.036120	1.000000	0.000002	0.000013	0.000046	178.639128	-75.336741	173.820325
36249	9.528866	0.130084	-2.487563	0.004717	0.071199	0.036124	1.000000	0.000006	0.000028	0.000033	178.641919	-75.337581	173.819701
36250	9.562491	0.082983	-2.569921	0.069221	0.014625	0.089212	1.000000	-0.000013	0.000021	0.000046	178.637629	-75.338119	173.823318
36251	9.542635	0.119030	-2.504403	0.016398	0.058368	0.053640	1.000000	-0.000002	0.000049	0.000037	178.641178	-75.341405	173.821025
36252	9.557927	0.087793	-2.509494	0.013765	0.026869	0.069535	1.000000	0.000021	0.000001	0.000033	178.635945	-75.341145	173.827123
36253	9.556349	0.107935	-2.521456	0.028354	0.045526	0.071154	1.000000	-0.000009	0.000047	0.000048	178.643519	-75.344201	173.819801
36254	9.541383	0.137787	-2.515213	0.030455	0.075182	0.055275	1.000000	-0.000018	0.000023	0.000029	178.632353	-75.345442	173.823881
36255	9.534954	0.164491	-2.467749	-0.009745	0.107513	0.037213	1.000000	0.000002	0.000041	0.000032	178.633814	-75.347743	173.824157
36256	9.524829	0.086520	-2.499978	0.013285	0.025578	0.035100	1.000000	-0.000009	0.000028	0.000048	178.630752	-75.345712	173.822739
36257	9.535314	0.163011	-2.466456	-0.011248	0.106151	0.037226	1.000000	-0.000017	0.000038	0.000037	178.632222	-75.347711	173.820700
36258	9.528663	0.144839	-2.494584	0.015223	0.083840	0.037799	1.000000	-0.000002	0.000039	0.000022	178.618496	-75.349155	173.833371
36259	9.511865	0.094130	-2.480198	-0.000921	0.035121	0.017602	1.000000	-0.000017	0.000006	0.000058	178.629906	-75.347546	173.821151
36260	9.552559	0.109442	-2.458132	-0.030204	0.054111	0.051487	1.000000	-0.000041	0.000025	0.000047	178.623385	-75.349287	173.821895
36261	9.551007	0.129731	-2.470057	-0.015619	0.072765	0.053123	1.000000	0.000014	0.000026	0.000030	178.625387	-75.349896	173.822965
36262	9.512240	0.092109	-2.478835	-0.002015	0.032789	0.017610	1.000000	-0.000014	0.000034	0.000023	178.611835	-75.352703	173.832940
36263	9.551314	0.128620	-2.468930	-0.016403	0.071360	0.053132	1.000000	-0.000021	0.000023	0.000049	178.618585	-75.353019	173.825024
36264	9.539668	0.116420	-2.438079	-0.044620	0.062746	0.033993	1.000000	0.000006	0.000024	0.000041	178.614776	-75.353347	173.827584
36265	9.546429	0.088407	-2.484351	-0.005393	0.029444	0.052059	1.000000	0.000002	0.000037	0.000039	178.619505	-75.355179	173.824498
36266	9.533116	0.097236	-2.465854	-0.018184	0.040005	0.034559	1.000000	0.000002	0.000017	0.000038	178.615996	-75.356765	173.821424
36267	9.538380	0.135188	-2.449094	-0.030696	0.080046	0.035646	1.000000	-0.000029	0.000014	0.000037	178.616642	-75.356031	173.818791
36268	9.521494	0.084668	-2.434889	-0.047755	0.030944	0.015408	1.000000	0.000005	0.000013	0.000025	178.604614	-75.349981	173.832469
36269	9.511436	0.108265	-2.488102	0.008998	0.047350	0.019274	1.000000	-0.000032	0.000038	0.000051	178.610727	-75.351976	173.823826
36270	9.550489	0.144554	-2.478344	-0.005523	0.085466	0.054814	1.000000	-0.000013	0.000002	0.000045	178.606423	-75.349469	173.828067
36271	9.537103	0.153525	-2.460139	-0.018615	0.096417	0.037315	1.000000	-0.000010	0.000021	0.000025	178.603664	-75.349484	173.831206
36272	9.533654	0.093427	-2.463921	-0.022077	0.035796	0.034568	1.000000	-0.000014	0.000006	0.000038	178.595535	-75.348415	173.839410
36273	9.552336	0.121798	-2.465316	-0.021997	0.064392	0.053169	1.000000	-0.000014	0.000006	0.000038	178.598085	-75.346744	173.836655
36274	9.523572	0.116455	-2.517319	0.033859	0.051278	0.038460	1.000000	-0.000022	0.000012	0.000034	178.586921	-75.344154	173.846497
36275	9.532170	0.112676	-2.475725	-0.008796	0.053030	0.036236	1.000000	-0.000003	0.000019	0.000021	178.583435	-75.343934	173.851295
36276	9.523715	0.115312	-2.516830	0.032609	0.049901	0.038471	1.000000	-0.000021	-0.000000	0.000056	178.583383	-75.340196	173.848195
36277	9.544064	0.122633	-2.505807	0.017617	0.059350	0.055414	1.000000	0.000005	0.000013	0.000025	178.582533	-75.339277	173.851209
36278	9.542523	0.142905	-2.517826	0.031531	0.077635	0.057095	1.000000	-0.000009	0.000028	0.000048	178.579775	-75.336503	173.850476
36279	9.512189	0.101800	-2.485496	0.002830	0.040374	0.019309	1.000000	-0.000010	0.000017	0.000032	178.580297	-75.336041	173.850253
36280	9.529287	0.151117	-2.499110	0.018381	0.087638	0.039606	1.000000	-0.000017	0.000015	0.000043	178.575245	-75.338104	173.852689
36281	9.510750	0.121390	-2.497172	0.017343	0.058078	0.020994	1.000000	-0.000002	0.000030	0.000037	178.578481	-75.339163	173.850632
36282	9.544643	0.119015	-2.503775	0.014901	0.055643	0.055440	1.000000	-0.000021	0.000019	0.000057	178.578500	-75.339017	173.847724
36283	9.546452	0.097416	-2.490754	-0.000645	0.036010	0.053761	1.000000	-0.000010	0.000045	0.000018	178.572380	-75.341701	173.854310
36284	9.523026	0.130864	-2.525885	0.043387	0.063445	0.040197	1.000000	-0.000010	0.000017	0.000032	178.562538	-75.340899	173.866080
36285	9.545109	0.117284	-2.502079	0.013328	0.053733	0.055453	1.000000	-0.000017	0.000034	0.000044	178.567129	-75.342423	173.860804
36286	9.552117	0.134220	-2.472643	-0.014150	0.074215	0.054896	1.000000	-0.000006	0.000024	0.000035	178.560138	-75.343640	173.862415
36287	9.511611	0.117542	-2.494073	0.014394	0.053884	0.021022	1.000000	-0.000010	0.000017	0.000032	178.560600	-75.343184	173.862241
36288	9.538626	0.097761	-2.529633	0.038798	0.030064	0.056030	1.000000	-0.000006	0.000024	0.000035	178.551916	-75.342024	173.872711
36289	9.545207	-0.048626	-1.283580	-1.174059	0.045131	-0.253374	1.000000	0.000007	0.000314	0.000070	178.567671	-75.375638	173.858706
36290	8.776228	-1.128200	-0.163440	-2.200775	-0.894451	-1.287534	0.999999	-0.000209	-0.000801	0.000867	178.906860	-75.280900	173.488221
36291	10.413977	2.599090	-8.831249	6.171727	1.742163	2.519051	0.999996	0.002235	-0.000056	-0.001838	178.350059	-75.266924	174.330291
36292	9.196870	-0.765435	4.164639	-6.402254	0.005202	-1.969005	0.999996	-0.000815	0.002136	0.001752	178.979231	-75.502076	173.590034
36293	9.237882	0.185442	-6.917071	4.317581	-0.455750	0.881627	0.999986	-0.002670	-0.004172	-0.001658	177.987100	-75.016543	174.301043
36294	10.004662	-0.316663	-1.651789	-1.013902	-0.262387	0.278144	0.999996	0.001545	0.002112	0.001156	178.611014	-75.246678	173.845108
36295	9.014770	0.595731	-3.271746	0.916014	0.416199	-0.256909	0.999999	0.000012	-0.001563	-0.000512	178.396377	-75.063486	174.070015
36296	10.754118	-0.227333	-1.968500	-0.887883	-0.189158	1.084722	0.999999	-0.000458	0.001447	0.000422	178.483335	-75.214324	173.932406
36297	8.597788	0.312353	-3.262171	0.976225	0.121817	-0.664278	0.999999	0.000438	-0.000958	-0.000375	178.370419	-75.100777	174.102635
36298	9.967928	0.144011	-1.423053	-1.159932	0.225093	0.187776	0.999999	0.000128	0.000970	0.000220	178.442099	-75.196722	174.055689
36299	9.619691	-0.099745	-3.271079	0.672854	-0.261637	0.322754	1.000000	-0.000761	-0.000436	0.000048	178.368581	-75.144355	174.043051
36300	9.430883	-0.054386	-1.579552	-0.894738	-0.006163	-0.292241	1.000000	0.000434	0.000699	0.000048	178.405209	-75.205775	174.060300
36301	9.260268	0.502272	-3.264360	0.831496	0.325295	-0.021689	0.999999	-0.000238	-0.001075	-0.000122	178.326011	-75.079558	174.115511
36302	9.160354	-0.296018	-2.055847	-0.411281	-0.314263	-0.434079	1.000000	0.000154	0.000700	0.000182	178.387880	-75.143353	174.079336
36303	9.499593	0.576896	-2.398206	-0.053300	0.516492	-0.011827	1.000000	0.000061	-0.000338	-0.000126	178.332346	-75.101591	174.145466
36304	9.741394	-0.378546	-3.133914	0.461259	-0.518767	0.403848	1.000000	-0.000332	0.000202	0.000232	178.366413	-75.110133	174.072301
36305	9.511191	0.473572	-2.237244	-0.228584	0.435108	-0.042800	1.000000	0.000371	-0.000243	-0.000140	178.339596	-75.079148	174.145570
36306	9.693905	-0.169066	-2.819219	0.195263	-0.271468	0.278723	1.000000	-0.000201	0.000164	0.000178	178.365488	-75.084474	174.103162
36307	9.589013	0.300847	-2.584208	0.059276	0.221855	0.120342	1.000000	0.000227	-0.000000	-0.000087	178.341939	-75.081435	174.155978
36308	9.606568	0.036583	-2.694220	0.124649	-0.054145	0.163677	1.000000	-0.000110	0.000169	0.000120	178.353280	-75.084863	174.129619
36309	9.686402	0.300771	-2.542662	-0.005011	0.229370	0.203766	1.000000	0.000040	0.000040	-0.000002	178.344334	-75.086664	174.145044
36310	9.531090	0.083697	-2.309833	-0.217623	0.039167	-0.007835	1.000000	-0.000004	0.000131	0.000053	178.339378	-75.085549	174.158892
36311	9.414971	0.130088	-2.453044	-0.042951	0.063898	-0.082832	1.000000	0.000026	0.000093	0.000022	178.338460	-75.093510	174.164355
36312	9.392145	0.264998	-2.508281	0.032164	0.189544	-0.089667	1.000000	-0.000115	0.000029	0.000055	178.323596	-75.083622	174.171001
36313	9.393412	0.028966	-2.281484	-0.215714	-0.015991	-0.148557	1.000000	-0.000003	0.000051	-0.000000	178.310005	-75.086712	174.186124
36314	9.545626	0.128981	-2.420049	-0.110465	0.068866	0.034917	1.000000	-0.000100	-0.000037	0.000053	178.298247	-75.073550	174.192828
36315	9.566269	0.124919	-2.236873	-0.292203	0.088343	0.007675	1.000000	0.000035	0.000042	-0.000019	178.281336	-75.075452	174.215927
36316	9.499341	0.086046	-2.630746	0.094351	-0.002806	0.044127	1.000000	-0.000062	-0.000066	0.000034	178.264366	-75.053378	174.231311
36317	9.536877	0.074809	-2.365574	-0.171708	0.020902	0.011957	1.000000	-0.000091	0.000011	0.000066	178.269763	-75.051989	174.216401
36318	9.556953	0.150858	-2.623408	0.077233	0.063763	0.098435	1.000000	0.000152	-0.000017	-0.000021	178.253317	-75.034804	174.256523
36319	9.609633	0.165628	-2.460219	-0.091593	0.100762	0.107323	1.000000	-0.000133	-0.000029	0.000088	178.263841	-75.028925	174.231248
36320	9.616757	0.182328	-2.430538	-0.120581	0.121164	0.106665	1.000000	0.000147	0.000111	0.000002	178.256243	-75.031807	174.262148
36321	9.616002	0.103516	-2.753200	0.179177	0.002503	0.188623	1.000000	-0.000047	0.000006	0.000088	178.276073	-75.029880	174.237536
36322	9.491511	0.329395	-2.304519	-0.191303	0.280428	-0.045760	1.000000	0.000123	0.000016	0.000017	178.272327	-75.019017	174.257782
36323	9.477839	0.036395	-2.555792	0.015346	-0.041999	0.003668	1.000000	-0.000047	0.000061	0.000059	178.279072	-75.023340	174.246615
36324	9.539057	0.316452	-2.328320	-0.183524	0.265969	0.006192	1.000000	-0.000018	-0.000005	0.000043	178.270924	-75.011242	174.250018
36325	9.473100	0.041095	-2.495860	-0.041997	-0.029811	-0.016363	1.000000	0.000002	0.000017	0.000038	178.274971	-75.010469	174.247516
36326	9.494348	0.194776	-2.429917	-0.092760	0.131221	-0.011705	1.000000	-0.000104	-0.000024	0.000051	178.261249	-74.996625	174.251558
36327	9.514055	0.100813	-2.398700	-0.140734	0.042515	-0.001492	1.000000	-0.000018	-0.000015	0.000027	178.258629	-74.992042	174.253510
36328	9.492765	0.002867	-2.561752	0.005880	-0.076278	0.019368	1.000000	-0.000062	-0.000047	0.000035	178.243063	-74.976915	174.269858
36329	9.518620	0.093894	-2.459373	-0.088404	0.027546	0.018532	1.000000	-0.000070	-0.000040	0.000031	178.236401	-74.969467	174.269920
36330	9.559846	-0.000893	-2.577497	-0.001204	-0.080942	0.088201	1.000000	-0.000023	-0.000037	0.000017	178.216726	-74.952646	174.290413
36331	9.538299	0.113302	-2.622072	0.060611	0.025968	0.079881	1.000000	0.000001	-0.000032	0.000022	178.214084	-74.946106	174.294661
36332	9.541435	0.070877	-2.597489	0.028653	-0.013296	0.076193	1.000000	0.000005	0.000013	0.000025	178.201151	-74.936659	174.309277
36333	9.550155	0.123616	-2.652381	0.085538	0.032313	0.099301	1.000000	0.000017	0.000013	0.000031	178.203823	-74.935352	174.310003
36334	9.553918	0.125697	-2.551301	-0.012813	0.047067	0.076696	1.000000	0.000041	0.000042	0.000029	178.197389	-74.932053	174.324452
36335	9.508243	0.127037	-2.685401	0.127765	0.030505	0.067441	1.000000	0.000038	0.000027	0.000042	178.206631	-74.932318	174.320785
36336	9.426606	0.192730	-2.417096	-0.100711	0.127593	-0.080577	1.000000	0.000003	0.000028	0.000054	178.206025	-74.925324	174.327298
36337	9.498857	0.080686	-2.468252	-0.083623	0.012185	0.001584	1.000000	0.000059	0.000145	0.000040	178.215471	-74.939139	174.325903
36338	9.560843	0.273803	-2.723472	0.169485	0.172881	0.129313	1.000000	-0.000033	-0.000001	0.000050	178.210166	-74.930579	174.333059
36339	9.467215	0.116540	-2.544000	0.001007	0.037326	-0.009000	1.000000	-0.000018	-0.000015	0.000027	178.207461	-74.925917	174.335084
36340	9.432265	0.126859	-2.376467	-0.150033	0.067245	-0.086214	1.000000	-0.000029	0.000081	0.000024	178.190054	-74.925739	174.353422
36341	9.528376	0.094803	-2.584972	0.021555	0.011351	0.060530	1.000000	-0.000083	0.000071	0.000057	178.191291	-74.931046	174.343722
36342	9.606349	0.123346	-2.641245	0.058026	0.034060	0.150685	1.000000	-0.000034	-0.000007	0.000027	178.175928	-74.921602	174.358252
36343	9.499944	0.077442	-2.464170	-0.090212	0.008022	0.001530	1.000000	-0.000038	0.000025	0.000026	178.169960	-74.921515	174.361365
36344	9.548864	0.044732	-2.476149	-0.096718	-0.025207	0.051598	1.000000	-0.000068	0.000048	0.000049	178.158477	-74.916850	174.363729
36345	9.585108	0.123132	-2.490483	-0.081802	0.051467	0.090980	1.000000	0.000021	0.000052	0.000012	178.152626	-74.919820	174.373667
36346	9.539310	0.068206	-2.528024	-0.041743	-0.009450	0.056059	1.000000	-0.000037	0.000036	0.000042	178.142874	-74.915471	174.384984
36347	9.536745	0.154328	-2.476443	-0.079307	0.082426	0.040891	1.000000	0.000009	0.000020	0.000027	178.142823	-74.914777	174.387561
36348	9.525058	0.142526	-2.445399	-0.108014	0.073814	0.021432	1.000000	0.000048	0.000053	0.000003	178.126743	-74.914103	174.412756
36349	9.486227	0.104993	-2.453808	-0.094139	0.034537	-0.014185	1.000000	-0.000001	0.000060	0.000053	178.135852	-74.918142	174.404650
36350	9.514409	0.231198	-2.433738	-0.104923	0.162761	0.008871	1.000000	0.000033	0.000029	0.000025	178.126982	-74.913444	174.420292
36351	9.509232	0.192043	-2.449609	-0.093253	0.121797	0.007671	1.000000	0.000029	0.000042	0.000023	178.126963	-74.915231	174.425168
36352	9.502501	0.173768	-2.477905	-0.067370	0.099667	0.008375	1.000000	-0.000021	0.000023	0.000049	178.122635	-74.910879	174.424738
36353	9.521819	0.246687	-2.403043	-0.134618	0.182108	0.008170	1.000000	-0.000002	0.000030	0.000037	178.125144	-74.911392	174.423326
36354	9.549976	0.160938	-2.501923	-0.059460	0.085097	0.060346	1.000000	-0.000040	0.000021	0.000054	178.119820	-74.904181	174.425341
36355	9.558518	0.156809	-2.460285	-0.102203	0.086624	0.057719	1.000000	-0.000029	0.000014	0.000038	178.119631	-74.902880	174.423434
36356	9.524868	0.157859	-2.452861	-0.101278	0.087441	0.023301	1.000000	-0.000041	0.000025	0.000047	178.112351	-74.898893	174.432356
36357	9.559890	0.089696	-2.522931	-0.052134	0.012055	0.074773	1.000000	-0.000052	0.000016	0.000056	178.117323	-74.897837	174.422408
36358	9.594086	0.131932	-2.453999	-0.122640	0.063409	0.090188	1.000000	-0.000033	-0.000001	0.000050	178.112116	-74.890591	174.421168
36359	9.549613	0.055856	-2.479892	-0.096455	-0.016292	0.053341	1.000000	-0.000010	0.000017	0.000032	178.111939	-74.889558	174.421548
36360	9.527794	0.068253	-2.503069	-0.068397	-0.007732	0.038411	1.000000	-0.000025	-0.000003	0.000047	178.105789	-74.880588	174.428558
36361	9.533177	0.106046	-2.486563	-0.081256	0.032204	0.039625	1.000000	0.000002	-0.000002	0.000038	178.109508	-74.877395	174.426307
36362	9.502458	0.065137	-2.454817	-0.110636	-0.005386	0.001323	1.000000	0.000017	-0.000002	0.000023	178.098001	-74.867629	174.445080
36363	9.468672	0.066158	-2.447898	-0.108967	-0.004174	-0.033094	1.000000	-0.000010	-0.000011	0.000047	178.104270	-74.863445	174.438824
