// Start Time: Unknown
// Update Rate: 100.0Hz
// Filter Profile: human (46.1)
// Firmware Version: 4.4.0
PacketCounter	Acc_X	Acc_Y	Acc_Z	FreeAcc_X	FreeAcc_Y	FreeAcc_Z	OriInc_q0	OriInc_q1	OriInc_q2	OriInc_q3	Roll	Pitch	Yaw
58153	9.839732	-0.708582	0.675302	-0.000000	-0.000000	0.075611	1.000000	0.000026	0.000025	0.000047	-46.370809	-84.321982	48.147852
58154	9.874046	-0.707128	0.673769	-0.000366	-0.009014	0.109545	1.000000	0.000023	0.000017	0.000031	-46.046672	-84.388690	47.525786
58155	9.870339	-0.675563	0.647153	0.025558	0.023489	0.101826	1.000000	0.000029	0.000032	0.000039	-46.047891	-84.382938	47.530322
58156	9.875125	-0.706575	0.699193	-0.024663	-0.007460	0.112309	1.000000	0.000027	0.000026	0.000056	-46.069656	-84.376973	47.555597
58157	9.868886	-0.679388	0.623907	0.049666	0.021801	0.099063	1.000000	0.000030	0.000015	0.000032	-46.079300	-84.373195	47.568781
58158	9.905735	-0.673724	0.671009	0.005446	0.029758	0.138536	1.000000	0.000029	0.000032	0.000047	-46.086855	-84.366784	47.579706
58159	9.853943	-0.697075	0.651755	0.022500	0.003997	0.087332	1.000000	0.000043	0.000027	0.000039	-46.090991	-84.361447	47.588822
58160	9.869892	-0.679466	0.649887	0.025439	0.023401	0.101827	1.000000	0.000026	0.000025	0.000031	-46.092588	-84.357074	47.593404
58161	9.889442	-0.694094	0.675165	0.002471	0.010318	0.124040	1.000000	0.000019	0.000028	0.000039	-46.098842	-84.351647	47.601868
58162	9.872054	-0.715194	0.653898	0.023683	-0.010762	0.106782	1.000000	0.000036	0.000029	0.000039	-46.101468	-84.346394	47.608641
58163	9.870896	-0.679487	0.675827	0.001202	0.024985	0.104591	1.000000	0.000023	0.000018	0.000040	-46.115755	-84.341707	47.625692
58164	9.871871	-0.716755	0.654960	0.023631	-0.010810	0.106782	1.000000	0.000022	0.000035	0.000047	-46.121985	-84.335450	47.634462
58165	9.868206	-0.685296	0.628184	0.049555	0.021694	0.099064	1.000000	0.000025	0.000000	0.000032	-46.144645	-84.332736	47.660109
58166	9.854608	-0.699968	0.679615	-0.001924	0.005461	0.090095	1.000000	0.000031	0.000039	0.000038	-46.142008	-84.327143	47.661052
58167	9.872880	-0.716694	0.680716	-0.000688	-0.009244	0.109545	1.000000	0.000033	0.000022	0.000031	-46.144942	-84.322830	47.667802
58168	9.869214	-0.685217	0.654128	0.025124	0.023210	0.101828	1.000000	0.000029	0.000032	0.000047	-46.155004	-84.317024	47.681221
58169	9.853079	-0.704275	0.657061	0.022168	0.003789	0.087332	1.000000	0.000031	0.000015	0.000040	-46.170638	-84.312542	47.700450
58170	9.852993	-0.705092	0.657477	0.022006	0.003709	0.087333	1.000000	0.000033	0.000023	0.000047	-46.189751	-84.307800	47.723466
58171	9.868944	-0.687663	0.655636	0.024962	0.023130	0.101829	1.000000	0.000029	0.000032	0.000039	-46.190776	-84.302046	47.727808
58172	9.868865	-0.688319	0.656138	0.024746	0.023018	0.101830	1.000000	0.000030	0.000015	0.000032	-46.205082	-84.299579	47.745632
58173	9.868769	-0.689048	0.656811	0.024746	0.023018	0.101830	1.000000	0.000027	0.000049	0.000046	-46.197695	-84.291851	47.741340
58174	9.853864	-0.705962	0.684199	-0.002686	0.005050	0.090095	1.000000	0.000031	0.000015	0.000040	-46.218394	-84.289159	47.765602
58175	9.886944	-0.706615	0.658386	0.025706	0.008143	0.121280	1.000000	0.000026	0.000025	0.000031	-46.219774	-84.284638	47.769967
58176	9.868513	-0.691176	0.658419	0.024191	0.022660	0.101832	1.000000	0.000033	0.000022	0.000039	-46.233437	-84.281518	47.787560
58177	9.888028	-0.705796	0.683684	0.001221	0.009576	0.124041	1.000000	0.000026	0.000025	0.000031	-46.234757	-84.276997	47.791869
58178	9.885655	-0.672128	0.681310	0.002620	0.043478	0.119091	1.000000	0.000026	0.000025	0.000039	-46.247345	-84.273975	47.807487
58179	9.833855	-0.695435	0.661905	0.019684	0.017723	0.067887	1.000000	0.000033	0.000023	0.000047	-46.262297	-84.268251	47.826367
58180	9.869424	-0.691827	0.684748	-0.000667	0.023751	0.104594	1.000000	0.000026	0.000024	0.000023	-46.259885	-84.267042	47.826876
58181	9.886437	-0.710726	0.661558	0.024770	0.007422	0.121283	1.000000	0.000022	0.000035	0.000047	-46.265380	-84.260373	47.834915
58182	9.902410	-0.693317	0.659622	0.027360	0.026518	0.135783	1.000000	0.000045	0.000010	0.000040	-46.286707	-84.259076	47.861315
58183	9.902338	-0.693973	0.660011	0.027363	0.026519	0.135783	1.000000	0.000026	0.000025	0.000031	-46.287944	-84.254543	47.865535
58184	9.866611	-0.698892	0.638190	0.046927	0.019757	0.099081	1.000000	0.000026	0.000025	0.000039	-46.298238	-84.252932	47.878985
58185	9.883830	-0.679270	0.660579	0.025676	0.040796	0.116338	1.000000	0.000026	0.000025	0.000039	-46.305609	-84.247710	47.889399
58186	9.868906	-0.696079	0.687895	-0.001973	0.022562	0.104596	1.000000	0.000029	0.000032	0.000039	-46.310718	-84.245726	47.897416
58187	9.885921	-0.714986	0.664673	0.023460	0.006233	0.121287	1.000000	0.000033	0.000022	0.000031	-46.313474	-84.241403	47.903983
58188	9.868739	-0.697383	0.688973	-0.002539	0.022060	0.104597	1.000000	0.000026	0.000025	0.000039	-46.325669	-84.240536	47.919144
58189	9.884529	-0.718373	0.641413	0.047095	0.004108	0.118533	1.000000	0.000026	0.000024	0.000023	-46.320968	-84.236718	47.917368
58190	9.867352	-0.700772	0.665637	0.020983	0.019901	0.101845	1.000000	0.000031	0.000015	0.000048	-46.350721	-84.236488	47.950814
58191	9.885602	-0.717631	0.666570	0.022204	0.005190	0.121290	1.000000	0.000026	0.000025	0.000031	-46.352207	-84.231980	47.955281
58192	9.883266	-0.683963	0.664167	0.023318	0.038804	0.116352	1.000000	0.000026	0.000025	0.000039	-46.365741	-84.231309	47.971849
58193	9.867099	-0.702914	0.667125	0.020364	0.019389	0.101847	1.000000	0.000026	0.000025	0.000039	-46.373271	-84.226097	47.982414
58194	9.881865	-0.687515	0.641005	0.046711	0.036534	0.113606	1.000000	0.000029	0.000032	0.000031	-46.377558	-84.226974	47.990417
58195	9.863446	-0.672216	0.641032	0.045477	0.051247	0.094163	1.000000	0.000024	0.000019	0.000056	-46.403785	-84.220908	48.019518
58196	9.884136	-0.684842	0.690623	-0.002267	0.039170	0.119109	1.000000	0.000036	0.000029	0.000031	-46.400527	-84.220800	48.020042
58197	9.866739	-0.705937	0.669250	0.018983	0.018135	0.101852	1.000000	0.000031	0.000015	0.000048	-46.422022	-84.215633	48.045187
58198	9.884975	-0.722800	0.670268	0.019550	0.002700	0.121297	1.000000	0.000029	0.000032	0.000031	-46.417028	-84.216201	48.043712
58199	9.883876	-0.686969	0.692233	-0.002938	0.038448	0.119111	1.000000	0.000019	0.000028	0.000039	-46.423047	-84.210801	48.051948
58200	9.867694	-0.705912	0.695214	-0.006604	0.018260	0.104603	1.000000	0.000026	0.000025	0.000039	-46.431225	-84.211689	48.063860
58201	9.879025	-0.658443	0.641841	0.046467	0.068559	0.108693	1.000000	0.000036	0.000029	0.000039	-46.433644	-84.206178	48.070441
58202	9.882384	-0.691335	0.669633	0.019761	0.035390	0.116372	1.000000	0.000033	0.000022	0.000039	-46.450460	-84.206973	48.089530
58203	9.882294	-0.692067	0.670212	0.019751	0.035392	0.116372	1.000000	0.000029	0.000032	0.000039	-46.451664	-84.201246	48.094041
58204	9.882214	-0.692724	0.670716	0.018918	0.034486	0.116377	1.000000	0.000030	0.000015	0.000032	-46.461705	-84.204583	48.108236
58205	9.882130	-0.693539	0.671111	0.018903	0.034486	0.116377	1.000000	0.000041	0.000020	0.000056	-46.484419	-84.198413	48.135760
58206	9.865939	-0.712462	0.674123	0.015235	0.014219	0.101865	1.000000	0.000021	0.000034	0.000022	-46.469845	-84.200354	48.123631
58207	9.847539	-0.696895	0.674282	0.014002	0.028941	0.082428	1.000000	0.000029	0.000032	0.000039	-46.471237	-84.194663	48.128341
58208	9.896749	-0.679647	0.646169	0.044638	0.050401	0.128166	1.000000	0.000031	0.000015	0.000048	-46.481701	-84.196387	48.144933
58209	9.881773	-0.696399	0.673396	0.017478	0.032609	0.116386	1.000000	0.000029	0.000032	0.000031	-46.476811	-84.191404	48.143327
58210	9.863374	-0.680987	0.673442	0.015255	0.046510	0.096956	1.000000	0.000033	0.000023	0.000048	-46.503413	-84.193121	48.172688
58211	9.865477	-0.716126	0.676992	0.013508	0.012378	0.101870	1.000000	0.000029	0.000032	0.000039	-46.504909	-84.187442	48.177503
58212	9.880295	-0.700779	0.650776	0.039661	0.029095	0.113662	1.000000	0.000030	0.000015	0.000032	-46.515543	-84.192127	48.193232
58213	9.879238	-0.664926	0.672476	0.017151	0.064839	0.111485	1.000000	0.000040	0.000020	0.000039	-46.526631	-84.187444	48.209046
58214	9.884741	-0.732224	0.703151	-0.011089	-0.002719	0.124039	1.000000	0.000016	0.000021	0.000048	-46.534666	-84.187967	48.219721
58215	9.880046	-0.703088	0.652063	0.039023	0.028175	0.113667	1.000000	0.000033	0.000022	0.000039	-46.544126	-84.183064	48.233076
58216	9.881160	-0.701722	0.676861	0.014351	0.029058	0.116402	1.000000	0.000026	0.000025	0.000047	-46.548993	-84.182040	48.240402
58217	9.879867	-0.704646	0.653082	0.038537	0.027439	0.113671	1.000000	0.000033	0.000022	0.000031	-46.552339	-84.177815	48.247576
58218	9.863891	-0.684941	0.701546	-0.011383	0.044384	0.099707	1.000000	0.000024	0.000019	0.000056	-46.551174	-84.177233	48.252125
58219	9.861396	-0.690139	0.653411	0.037015	0.041144	0.094245	1.000000	0.000033	0.000022	0.000031	-46.554028	-84.173013	48.258844
58220	9.879623	-0.706793	0.654457	0.036766	0.025446	0.113683	1.000000	0.000026	0.000024	0.000023	-46.575262	-84.179009	48.282462
58221	9.880752	-0.705175	0.679221	0.012525	0.027054	0.116410	1.000000	0.000040	0.000020	0.000039	-46.586305	-84.174348	48.298245
58222	9.862368	-0.689747	0.679246	0.010516	0.040948	0.096986	1.000000	0.000022	0.000035	0.000039	-46.587948	-84.175123	48.301907
58223	9.880559	-0.706640	0.680497	0.011682	0.026203	0.116414	1.000000	0.000029	0.000032	0.000039	-46.589843	-84.169546	48.307160
58224	9.880465	-0.707375	0.681099	0.010818	0.025268	0.116417	1.000000	0.000026	0.000025	0.000039	-46.598375	-84.171696	48.319059
58225	9.826477	-0.696073	0.658677	0.029645	0.033724	0.060307	1.000000	0.000019	0.000027	0.000031	-46.599513	-84.167191	48.322407
58226	9.895235	-0.692644	0.655496	0.037708	0.041570	0.128235	1.000000	0.000043	0.000026	0.000031	-46.548798	-84.169668	48.285428
58227	9.896351	-0.691100	0.680263	0.013460	0.043155	0.130959	1.000000	0.000023	0.000018	0.000040	-46.562926	-84.165225	48.302457
58228	9.877747	-0.714410	0.634588	0.058068	0.019522	0.110982	1.000000	0.000026	0.000025	0.000039	-46.568916	-84.167799	48.313657
58229	9.878843	-0.712858	0.659638	0.033816	0.021103	0.113703	1.000000	0.000027	0.000049	0.000030	-46.550030	-84.161774	48.297908
58230	9.877798	-0.676987	0.681535	0.010106	0.056214	0.111547	1.000000	0.000021	0.000011	0.000040	-46.598514	-84.165046	48.346143
58231	9.861579	-0.695887	0.684407	0.007129	0.036800	0.097006	1.000000	0.000036	0.000029	0.000039	-46.601975	-84.159795	48.353868
58232	9.879763	-0.712783	0.685631	0.007258	0.021433	0.116429	1.000000	0.000029	0.000032	0.000039	-46.625225	-84.160862	48.376298
58233	9.860200	-0.699555	0.661394	0.030203	0.034548	0.094293	1.000000	0.000019	0.000028	0.000039	-46.632797	-84.155762	48.386179
58234	9.875074	-0.684270	0.635195	0.056698	0.051711	0.106128	1.000000	0.000033	0.000022	0.000031	-46.639441	-84.156533	48.394378
58235	9.877347	-0.680591	0.684481	0.008211	0.054919	0.111556	1.000000	0.000010	0.000048	0.000046	-46.637376	-84.149257	48.393552
58236	9.859910	-0.701772	0.663375	0.028844	0.032646	0.094304	1.000000	0.000026	0.000025	0.000039	-46.623615	-84.152070	48.388642
58237	9.878107	-0.718614	0.664389	0.029969	0.017870	0.113722	1.000000	0.000030	0.000015	0.000032	-46.634480	-84.148651	48.403175
58238	9.877085	-0.682728	0.686133	0.006508	0.052595	0.111570	1.000000	0.000036	0.000029	0.000039	-46.639508	-84.151308	48.413477
58239	9.859671	-0.703735	0.664840	0.027721	0.031569	0.094311	1.000000	0.000033	0.000022	0.000031	-46.644158	-84.147424	48.422103
58240	9.894012	-0.702430	0.663493	0.030903	0.036124	0.128280	1.000000	0.000026	0.000025	0.000039	-46.688460	-84.146026	48.461468
58241	9.860680	-0.702915	0.690156	0.002502	0.033087	0.097021	1.000000	0.000026	0.000025	0.000039	-46.698261	-84.141176	48.474383
58242	9.858238	-0.708099	0.642065	0.049390	0.029391	0.091615	1.000000	0.000016	0.000021	0.000040	-46.758551	-84.144187	48.532485
58243	9.893754	-0.704575	0.665057	0.029183	0.035629	0.128287	1.000000	0.000053	0.000031	0.000031	-46.754884	-84.139632	48.534879
58244	9.876566	-0.686884	0.689448	0.002872	0.050516	0.111583	1.000000	0.000022	0.000035	0.000047	-46.742647	-84.142916	48.533521
58245	9.875306	-0.689757	0.665739	0.026977	0.048885	0.108882	1.000000	0.000040	0.000019	0.000023	-46.744245	-84.140000	48.539813
58246	9.894666	-0.704375	0.691083	0.003420	0.034805	0.131000	1.000000	0.000033	0.000023	0.000048	-46.745816	-84.140319	48.547898
58247	9.875143	-0.691231	0.666636	0.026341	0.047931	0.108888	1.000000	0.000023	0.000018	0.000040	-46.762570	-84.136110	48.567531
58248	9.875057	-0.691969	0.667143	0.025816	0.046694	0.108895	1.000000	0.000036	0.000029	0.000039	-46.739838	-84.137951	48.554296
58249	9.889961	-0.676797	0.640995	0.052829	0.064435	0.120757	1.000000	0.000026	0.000025	0.000039	-46.749884	-84.133263	48.567550
58250	9.874877	-0.693530	0.668182	0.024123	0.045429	0.108905	1.000000	0.000024	0.000018	0.000048	-46.790569	-84.139325	48.614812
58251	9.875963	-0.691961	0.692990	-0.000213	0.046992	0.111600	1.000000	0.000028	0.000031	0.000023	-46.782845	-84.135629	48.610503
58252	9.874714	-0.694766	0.669300	0.022873	0.044772	0.108911	1.000000	0.000026	0.000025	0.000039	-46.814978	-84.137383	48.643285
58253	9.890786	-0.677625	0.667303	0.025643	0.064112	0.123476	1.000000	0.000031	0.000016	0.000064	-46.851516	-84.131406	48.683759
58254	9.875688	-0.694418	0.694450	-0.002094	0.045606	0.111607	1.000000	0.000033	0.000022	0.000031	-46.852993	-84.132633	48.688091
58255	9.874444	-0.697306	0.670648	0.021984	0.043964	0.108917	1.000000	0.000033	0.000022	0.000039	-46.865502	-84.128270	48.704652
58256	9.889371	-0.682155	0.644405	0.048185	0.061158	0.120801	1.000000	0.000033	0.000022	0.000039	-46.891468	-84.129223	48.731578
58257	9.874278	-0.698698	0.671636	0.020929	0.043355	0.108922	1.000000	0.000026	0.000025	0.000031	-46.896994	-84.125375	48.740251
58258	9.873032	-0.701589	0.647928	0.044920	0.041072	0.106238	1.000000	0.000036	0.000029	0.000039	-46.882843	-84.123579	48.729114
58259	9.874106	-0.700005	0.672808	0.020570	0.042645	0.108926	1.000000	0.000019	0.000027	0.000031	-46.886762	-84.119509	48.735345
58260	9.855765	-0.684620	0.672737	0.018598	0.056591	0.089527	1.000000	0.000026	0.000026	0.000056	-46.908502	-84.119473	48.761714
58261	9.892164	-0.717868	0.674429	0.020803	0.027018	0.128335	1.000000	0.000030	0.000015	0.000032	-46.921862	-84.116345	48.778769
58262	9.890025	-0.684199	0.671859	0.021510	0.060912	0.123506	1.000000	0.000029	0.000032	0.000039	-46.956777	-84.115519	48.813189
58263	9.855506	-0.686833	0.674275	0.017296	0.056286	0.089531	1.000000	0.000026	0.000025	0.000039	-46.968659	-84.110927	48.828210
58264	9.872498	-0.706114	0.651134	0.040471	0.038823	0.106267	1.000000	0.000033	0.000023	0.000048	-47.036786	-84.118412	48.901487
58265	9.890639	-0.723146	0.652353	0.041465	0.024022	0.125670	1.000000	0.000029	0.000032	0.000039	-47.043136	-84.113415	48.911277
58266	9.870267	-0.673247	0.649282	0.040896	0.071929	0.101452	1.000000	0.000036	0.000029	0.000031	-47.049629	-84.117314	48.924852
58267	9.907799	-0.704175	0.675442	0.018828	0.043951	0.142928	1.000000	0.000019	0.000028	0.000047	-47.066980	-84.111974	48.944607
58268	9.853878	-0.693076	0.652889	0.035935	0.051432	0.086888	1.000000	0.000026	0.000026	0.000056	-47.125436	-84.117344	49.009770
58269	9.907613	-0.705913	0.676349	0.016729	0.042812	0.142937	1.000000	0.000035	0.000005	0.000024	-47.143139	-84.115885	49.031674
58270	9.871971	-0.710633	0.654205	0.036258	0.035867	0.106294	1.000000	0.000026	0.000025	0.000039	-47.148985	-84.116344	49.041062
58271	9.873025	-0.709200	0.679021	0.011842	0.037431	0.108961	1.000000	0.000026	0.000025	0.000048	-47.168421	-84.111301	49.063755
58272	9.872929	-0.710022	0.679554	0.010210	0.036666	0.108966	1.000000	0.000026	0.000025	0.000039	-47.216747	-84.115627	49.113948
58273	9.885872	-0.660592	0.650233	0.038821	0.088539	0.116075	1.000000	0.000033	0.000022	0.000039	-47.232434	-84.111561	49.133670
58274	9.872740	-0.711575	0.680667	0.009597	0.035282	0.108971	1.000000	0.000022	0.000035	0.000047	-47.203424	-84.112284	49.112818
58275	9.854430	-0.696007	0.680561	0.008225	0.050017	0.089576	1.000000	0.000023	0.000017	0.000023	-47.212035	-84.110013	49.124306
58276	9.869425	-0.680837	0.654144	0.034786	0.066628	0.101512	1.000000	0.000045	0.000010	0.000048	-47.214813	-84.112274	49.137371
58277	9.887564	-0.697808	0.655284	0.035723	0.051789	0.120907	1.000000	0.000021	0.000034	0.000031	-47.214699	-84.108078	49.139952
58278	9.887472	-0.698546	0.655886	0.034045	0.050477	0.120920	1.000000	0.000033	0.000023	0.000048	-47.251435	-84.114446	49.187935
58279	9.869167	-0.683048	0.655733	0.032659	0.065202	0.101529	1.000000	0.000026	0.000025	0.000031	-47.259560	-84.111058	49.199346
58280	9.834664	-0.685571	0.657902	0.027939	0.060184	0.067549	1.000000	0.000021	0.000011	0.000040	-47.292470	-84.111421	49.231671
58281	9.871015	-0.718798	0.659683	0.030008	0.030550	0.106333	1.000000	0.000029	0.000032	0.000039	-47.300172	-84.106788	49.242967
58282	9.887139	-0.701363	0.657902	0.031994	0.049497	0.120932	1.000000	0.000029	0.000032	0.000031	-47.317447	-84.106879	49.258255
58283	9.852613	-0.704028	0.660220	0.027735	0.044873	0.086946	1.000000	0.000024	0.000019	0.000056	-47.349920	-84.101851	49.293848
58284	9.868719	-0.686912	0.658431	0.029804	0.064005	0.101546	1.000000	0.000042	0.000044	0.000046	-47.370727	-84.098538	49.314784
58285	9.871751	-0.719606	0.686553	0.003617	0.031406	0.108988	1.000000	0.000026	0.000024	0.000023	-47.373905	-84.095838	49.321110
58286	9.884770	-0.670215	0.657109	0.031989	0.082358	0.116152	1.000000	0.000038	0.000013	0.000056	-47.384451	-84.095931	49.340529
58287	9.886665	-0.705446	0.660656	0.030023	0.048158	0.120944	1.000000	0.000026	0.000025	0.000039	-47.398999	-84.091805	49.358349
58288	9.903935	-0.685831	0.682993	0.007569	0.069148	0.138189	1.000000	0.000033	0.000022	0.000039	-47.456137	-84.090744	49.410764
58289	9.887621	-0.704646	0.685953	0.004451	0.049750	0.123591	1.000000	0.000026	0.000025	0.000039	-47.471265	-84.086598	49.429106
58290	9.902633	-0.689510	0.659817	0.030429	0.067459	0.135551	1.000000	0.000029	0.000032	0.000031	-47.511493	-84.085913	49.466294
58291	9.868106	-0.692153	0.662122	0.026170	0.062862	0.101563	1.000000	0.000024	0.000019	0.000056	-47.545092	-84.080827	49.502882
58292	9.850937	-0.674521	0.686183	0.000282	0.078441	0.084819	1.000000	0.000026	0.000025	0.000039	-47.543994	-84.081138	49.509129
58293	9.887253	-0.707771	0.688037	0.002300	0.048820	0.123596	1.000000	0.000040	0.000019	0.000040	-47.562532	-84.077375	49.532495
58294	9.902256	-0.692791	0.662031	0.028138	0.065475	0.135571	1.000000	0.000027	0.000049	0.000046	-47.566443	-84.079184	49.545135
58295	9.867706	-0.695475	0.664599	0.023880	0.060879	0.101581	1.000000	0.000043	0.000027	0.000047	-47.584474	-84.074237	49.568349
58296	9.868733	-0.693995	0.689441	-0.001523	0.060831	0.104225	1.000000	0.000026	0.000025	0.000039	-47.580633	-84.080673	49.579688
58297	9.869489	-0.731276	0.668740	0.020705	0.025040	0.106372	1.000000	0.000030	0.000015	0.000032	-47.598445	-84.078074	49.601251
58298	9.883695	-0.679632	0.663570	0.024067	0.077521	0.116213	1.000000	0.000026	0.000025	0.000048	-47.624984	-84.081179	49.634492
58299	9.851111	-0.716488	0.669174	0.018083	0.038766	0.086995	1.000000	0.000024	0.000042	0.000030	-47.620726	-84.076682	49.633184
58300	9.902815	-0.694996	0.689936	0.000501	0.063840	0.138227	1.000000	0.000026	0.000025	0.000039	-47.620269	-84.073964	49.634537
58301	9.867173	-0.699906	0.667849	0.020464	0.057653	0.101608	1.000000	0.000031	0.000015	0.000048	-47.649671	-84.069942	49.667798
58302	9.883333	-0.682676	0.665832	0.022809	0.076818	0.116222	1.000000	0.000026	0.000025	0.000039	-47.671106	-84.067379	49.687491
58303	9.900322	-0.701997	0.642713	0.047884	0.060381	0.132981	1.000000	0.000023	0.000018	0.000040	-47.693447	-84.063848	49.712773
58304	9.864991	-0.667817	0.666012	0.020512	0.091022	0.096848	1.000000	0.000033	0.000022	0.000031	-47.713346	-84.065293	49.738901
58305	9.900156	-0.703402	0.643726	0.046709	0.059784	0.132990	1.000000	0.000029	0.000032	0.000047	-47.728758	-84.060015	49.757849
58306	9.866740	-0.703695	0.670264	0.017793	0.056080	0.101622	1.000000	0.000031	0.000015	0.000040	-47.746186	-84.061457	49.779581
58307	9.882918	-0.686397	0.668170	0.020363	0.075384	0.116238	1.000000	0.000023	0.000018	0.000040	-47.768761	-84.057939	49.805087
58308	9.866589	-0.705033	0.671076	0.016021	0.054652	0.101633	1.000000	0.000026	0.000024	0.000023	-47.776811	-84.065859	49.824050
58309	9.864584	-0.671441	0.668388	0.017451	0.088755	0.096874	1.000000	0.000041	0.000020	0.000056	-47.807538	-84.060857	49.859793
58310	9.900850	-0.704739	0.670400	0.018993	0.058092	0.135638	1.000000	0.000021	0.000034	0.000023	-47.786032	-84.063567	49.846265
58311	9.848154	-0.690793	0.672014	0.013615	0.068311	0.082265	1.000000	0.000033	0.000022	0.000040	-47.803789	-84.059834	49.868123
58312	9.882506	-0.689856	0.670692	0.017830	0.071635	0.116271	1.000000	0.000031	0.000015	0.000048	-47.767994	-84.058941	49.842347
58313	9.865049	-0.711031	0.649288	0.038930	0.050652	0.099036	1.000000	0.000033	0.000022	0.000040	-47.785184	-84.055207	49.863675
58314	9.882336	-0.691332	0.671683	0.016474	0.071378	0.116275	1.000000	0.000029	0.000032	0.000031	-47.818273	-84.055016	49.894840
58315	9.864882	-0.712347	0.650389	0.037569	0.050399	0.099042	1.000000	0.000023	0.000018	0.000040	-47.840791	-84.051592	49.920353
58316	9.882170	-0.692744	0.672665	0.016095	0.070997	0.116278	1.000000	0.000026	0.000025	0.000039	-47.839070	-84.048087	49.915075
58317	9.880980	-0.695722	0.649006	0.040031	0.069361	0.113671	1.000000	0.000022	0.000034	0.000031	-47.841513	-84.044134	49.920171
58318	9.881984	-0.694137	0.673958	0.014304	0.069854	0.116289	1.000000	0.000036	0.000030	0.000047	-47.873138	-84.048278	49.959229
58319	9.880789	-0.697267	0.650240	0.038230	0.068215	0.113686	1.000000	0.000033	0.000022	0.000040	-47.890927	-84.044571	49.981126
58320	9.881801	-0.695691	0.675048	0.012803	0.067860	0.116305	1.000000	0.000019	0.000028	0.000039	-47.876076	-84.052164	49.984043
58321	9.880607	-0.698840	0.651325	0.036722	0.066215	0.113705	1.000000	0.000026	0.000025	0.000048	-47.897872	-84.047617	50.009241
58322	9.882699	-0.695004	0.700537	-0.012386	0.069323	0.118906	1.000000	0.000039	0.000036	0.000039	-47.919830	-84.044202	50.023337
58323	9.898878	-0.677781	0.698710	-0.009863	0.088594	0.133539	1.000000	0.000033	0.000023	0.000048	-47.943373	-84.039835	50.051077
58324	9.865127	-0.716977	0.679865	0.007746	0.047916	0.101678	1.000000	0.000026	0.000025	0.000039	-47.975077	-84.040016	50.080281
58325	9.882401	-0.697446	0.702310	-0.013959	0.068770	0.118908	1.000000	0.000022	0.000035	0.000047	-47.989441	-84.034748	50.097447
58326	9.880123	-0.702840	0.654355	0.032587	0.064762	0.113729	1.000000	0.000033	0.000022	0.000031	-48.042073	-84.041237	50.158073
58327	9.861888	-0.687194	0.654109	0.031157	0.079520	0.094362	1.000000	0.000026	0.000025	0.000039	-48.059189	-84.037456	50.178493
58328	9.896243	-0.686226	0.652926	0.035625	0.082815	0.128375	1.000000	0.000026	0.000025	0.000039	-47.997333	-84.035557	50.127397
58329	9.879864	-0.704980	0.655967	0.032487	0.063411	0.113738	1.000000	0.000036	0.000029	0.000039	-48.008918	-84.031455	50.143429
58330	9.879779	-0.705635	0.656543	0.031299	0.062069	0.113750	1.000000	0.000026	0.000025	0.000031	-48.011317	-84.037295	50.156208
58331	9.876749	-0.674302	0.629644	0.056914	0.094580	0.106442	1.000000	0.000029	0.000032	0.000039	-48.021438	-84.033048	50.169982
58332	9.880684	-0.704695	0.682020	0.005443	0.063165	0.116343	1.000000	0.000026	0.000025	0.000039	-48.069401	-84.034418	50.215217
58333	9.846151	-0.707136	0.684251	0.001193	0.058588	0.082337	1.000000	0.000026	0.000025	0.000039	-48.086318	-84.030697	50.235489
58334	9.894632	-0.692926	0.632044	0.056181	0.079162	0.125821	1.000000	0.000033	0.000023	0.000048	-48.104176	-84.026108	50.251286
58335	9.861180	-0.693102	0.658531	0.027710	0.076167	0.094399	1.000000	0.000026	0.000025	0.000039	-48.121118	-84.022352	50.271552
58336	9.896625	-0.689730	0.681614	0.007775	0.081833	0.130992	1.000000	0.000033	0.000022	0.000031	-48.091879	-84.018413	50.245851
58337	9.877320	-0.676405	0.657122	0.030582	0.095020	0.109047	1.000000	0.000036	0.000029	0.000039	-48.103638	-84.014305	50.262030
58338	9.879066	-0.711469	0.660956	0.027275	0.060378	0.113773	1.000000	0.000019	0.000028	0.000039	-48.158964	-84.016877	50.314036
58339	9.861909	-0.693543	0.685085	0.001625	0.076721	0.096990	1.000000	0.000029	0.000032	0.000039	-48.169665	-84.012601	50.328314
58340	9.895184	-0.694947	0.659719	0.028973	0.079194	0.128426	1.000000	0.000026	0.000025	0.000039	-48.193361	-84.012229	50.352317
58341	9.879875	-0.711267	0.686891	0.001598	0.061380	0.116355	1.000000	0.000030	0.000015	0.000032	-48.212924	-84.009894	50.375663
58342	9.878714	-0.714353	0.663100	0.025363	0.058758	0.113787	1.000000	0.000036	0.000030	0.000047	-48.201281	-84.009921	50.375255
58343	9.877867	-0.678492	0.684717	0.002526	0.094427	0.111652	1.000000	0.000026	0.000025	0.000039	-48.218374	-84.006166	50.395649
58344	9.879607	-0.713476	0.688465	0.000648	0.059540	0.116367	1.000000	0.000033	0.000022	0.000031	-48.200571	-84.005612	50.382864
58345	9.876631	-0.682158	0.661516	0.026267	0.092058	0.109087	1.000000	0.000029	0.000032	0.000039	-48.211102	-84.001340	50.396978
58346	9.860232	-0.700889	0.664465	0.023363	0.070883	0.094449	1.000000	0.000038	0.000012	0.000040	-48.162927	-84.005547	50.369150
58347	9.894590	-0.700139	0.663135	0.026940	0.075288	0.128462	1.000000	0.000024	0.000019	0.000056	-48.196911	-84.000872	50.406321
58348	9.895565	-0.698520	0.688014	0.000797	0.075784	0.131043	1.000000	0.000031	0.000038	0.000022	-48.222233	-84.007862	50.440061
58349	9.841827	-0.686929	0.665296	0.019704	0.084497	0.075110	1.000000	0.000026	0.000026	0.000056	-48.250183	-84.002737	50.471494
58350	9.893236	-0.704790	0.640720	0.048419	0.072151	0.125915	1.000000	0.000036	0.000029	0.000031	-48.251626	-84.001573	50.475396
58351	9.877156	-0.684374	0.689104	-0.001465	0.090042	0.111693	1.000000	0.000036	0.000029	0.000039	-48.263549	-83.997585	50.491796
58352	9.876001	-0.687471	0.665406	0.002255	0.008953	0.109545	1.000000	0.000026	0.000025	0.000039	-46.192187	-84.422283	47.683639
58353	9.859587	-0.706199	0.668401	-0.001281	-0.010960	0.094724	1.000000	0.000026	0.000025	0.000039	-46.192872	-84.422256	47.683997
58354	9.876886	-0.686597	0.690761	-0.022829	0.009412	0.112071	1.000000	0.000019	0.000028	0.000039	-46.188531	-84.421022	47.663104
58355	9.892800	-0.708255	0.643627	0.025921	-0.010090	0.126256	1.000000	0.000028	0.000031	0.000023	-46.169998	-84.421878	47.644427
58356	9.874618	-0.692405	0.643274	0.024487	0.004177	0.107025	1.000000	0.000045	0.000009	0.000032	-46.179243	-84.423964	47.653418
58357	9.875584	-0.690761	0.668179	-0.000242	0.005300	0.109548	1.000000	0.000027	0.000049	0.000046	-46.164590	-84.421434	47.638510
58358	9.860207	-0.707188	0.695549	-0.028097	-0.012741	0.097239	1.000000	0.000021	0.000011	0.000040	-46.182572	-84.422896	47.655967
58359	9.875405	-0.692339	0.669190	-0.001376	0.003791	0.109548	1.000000	0.000026	0.000025	0.000039	-46.183261	-84.422868	47.656329
58360	9.878152	-0.725040	0.697202	-0.028128	-0.029304	0.116462	1.000000	0.000023	0.000018	0.000040	-46.181419	-84.422912	47.657657
58361	9.873130	-0.698586	0.621531	0.046179	-0.001507	0.104515	1.000000	0.000033	0.000022	0.000040	-46.183725	-84.423091	47.660465
58362	9.891492	-0.676609	0.668142	0.000281	0.020717	0.124384	1.000000	0.000019	0.000028	0.000039	-46.185058	-84.422525	47.648597
58363	9.858715	-0.713291	0.673702	-0.006300	-0.018332	0.094712	1.000000	0.000029	0.000032	0.000039	-46.179082	-84.421967	47.642577
58364	9.859672	-0.711649	0.698578	-0.030996	-0.017189	0.097224	1.000000	0.000026	0.000025	0.000039	-46.178462	-84.421787	47.639235
58365	9.891943	-0.715463	0.648810	0.020764	-0.017593	0.126258	1.000000	0.000030	0.000015	0.000032	-46.181165	-84.423202	47.642105
58366	9.874806	-0.697472	0.672700	-0.005007	-0.001456	0.109548	1.000000	0.000026	0.000025	0.000048	-46.196510	-84.423449	47.663726
58367	9.890010	-0.682715	0.646489	0.021718	0.015052	0.121881	1.000000	0.000026	0.000025	0.000039	-46.197205	-84.423421	47.664095
58368	9.856517	-0.682755	0.672918	-0.006961	0.012132	0.090328	1.000000	0.000033	0.000023	0.000048	-46.212306	-84.423063	47.671130
58369	9.890870	-0.682075	0.671784	-0.003628	0.015491	0.124393	1.000000	0.000002	0.000026	0.000048	-46.221085	-84.422239	47.676862
58370	9.907825	-0.701659	0.648915	0.020686	-0.002221	0.141105	1.000000	0.000036	0.000029	0.000039	-46.223804	-84.422769	47.686313
58371	9.840586	-0.739813	0.656005	0.010255	-0.045354	0.077340	1.000000	0.000047	0.000016	0.000032	-46.223099	-84.424066	47.687717
58372	9.870782	-0.633515	0.669191	-0.004042	0.062497	0.100818	1.000000	0.000026	0.000025	0.000039	-46.230803	-84.424104	47.683186
58373	9.857815	-0.720779	0.678888	-0.012061	-0.025743	0.094690	1.000000	0.000022	0.000034	0.000031	-46.216933	-84.424047	47.668395
58374	9.906799	-0.667664	0.672028	-0.003478	0.030923	0.139252	1.000000	0.000024	0.000018	0.000048	-46.231530	-84.423860	47.679882
58375	9.872945	-0.706788	0.653228	0.014136	-0.010000	0.107041	1.000000	0.000029	0.000032	0.000039	-46.225558	-84.423302	47.673868
58376	9.872856	-0.707521	0.653785	0.013653	-0.010765	0.107041	1.000000	0.000040	0.000019	0.000040	-46.227324	-84.423616	47.677863
58377	9.856407	-0.726196	0.656770	0.010094	-0.030646	0.092181	1.000000	0.000043	0.000027	0.000039	-46.224604	-84.423470	47.676759
58378	9.870955	-0.674647	0.651589	0.014794	0.021891	0.102694	1.000000	0.000036	0.000029	0.000039	-46.222195	-84.423469	47.679491
58379	9.889989	-0.689515	0.677134	-0.009139	0.007999	0.124398	1.000000	0.000052	0.000008	0.000057	-46.248620	-84.423377	47.708719
58380	9.836342	-0.677833	0.653961	0.009947	0.016310	0.068628	1.000000	0.000040	0.000019	0.000023	-46.239058	-84.425137	47.700195
58381	9.888787	-0.693375	0.653813	0.014052	0.004583	0.121905	1.000000	0.000032	0.000040	0.000055	-46.238949	-84.422634	47.700428
58382	9.906073	-0.673987	0.676398	-0.007663	0.024788	0.139266	1.000000	0.000046	0.000034	0.000047	-46.233555	-84.421659	47.710720
58383	9.888931	-0.655998	0.700403	-0.033182	0.041000	0.122556	1.000000	0.000040	0.000019	0.000040	-46.237518	-84.422041	47.716014
58384	9.838009	-0.676313	0.705029	-0.040586	0.017112	0.073614	1.000000	0.000012	0.000031	0.000047	-46.244209	-84.420835	47.709952
58385	9.923866	-0.692921	0.678867	-0.008460	0.007519	0.158471	1.000000	0.000031	0.000015	0.000048	-46.259483	-84.420831	47.725493
58386	9.870208	-0.681494	0.655770	0.010620	0.015848	0.102710	1.000000	0.000009	0.000024	0.000056	-46.276372	-84.419549	47.737464
58387	9.888538	-0.659749	0.702420	-0.035277	0.038053	0.122561	1.000000	0.000005	0.000034	0.000047	-46.278448	-84.418193	47.736778
58388	9.852954	-0.664541	0.680403	-0.015408	0.031366	0.086002	1.000000	0.000012	0.000030	0.000039	-46.277673	-84.417670	47.722873
58389	9.906031	-0.717141	0.659302	0.010603	-0.016501	0.141107	1.000000	0.000002	0.000027	0.000064	-46.298929	-84.415424	47.741181
58390	9.835333	-0.686896	0.659666	0.004827	0.008730	0.068641	1.000000	0.000016	0.000021	0.000040	-46.295894	-84.415760	47.752232
58391	9.854992	-0.738371	0.664372	0.002814	-0.041266	0.092147	1.000000	0.000019	0.000028	0.000039	-46.294980	-84.415523	47.750163
58392	9.871295	-0.721113	0.662447	0.005401	-0.022980	0.107028	1.000000	0.000026	0.000025	0.000031	-46.283677	-84.416307	47.750197
58393	9.872238	-0.719269	0.687270	-0.019330	-0.021811	0.109506	1.000000	0.000043	0.000026	0.000031	-46.274737	-84.416868	47.742823
58394	9.904587	-0.722985	0.637643	0.032377	-0.022351	0.138624	1.000000	0.000033	0.000021	0.000015	-46.259079	-84.419129	47.721999
58395	9.871734	-0.759314	0.643074	0.025772	-0.061320	0.108846	1.000000	0.000057	0.000021	0.000040	-46.259664	-84.419394	47.725857
58396	9.887407	-0.705209	0.661982	0.006407	-0.006857	0.121912	1.000000	0.000040	0.000019	0.000023	-46.248996	-84.420998	47.714459
58397	9.887976	-0.742432	0.641734	0.027819	-0.043717	0.123731	1.000000	0.000041	0.000043	0.000030	-46.225072	-84.420295	47.691843
58398	9.887233	-0.706401	0.663308	0.005423	-0.008362	0.121911	1.000000	0.000048	0.000017	0.000048	-46.234435	-84.419977	47.703481
58399	9.870736	-0.725123	0.666398	0.001860	-0.028215	0.107016	1.000000	0.000032	0.000039	0.000039	-46.221817	-84.418888	47.691107
58400	9.888049	-0.705599	0.688798	-0.019738	-0.007921	0.124383	1.000000	0.000024	0.000018	0.000048	-46.232010	-84.418285	47.697753
58401	9.867610	-0.618943	0.705888	-0.040640	0.076713	0.099102	1.000000	0.000033	0.000022	0.000040	-46.234367	-84.418460	47.700612
58402	9.868792	-0.693267	0.664683	0.002642	0.003741	0.102728	1.000000	0.000022	0.000035	0.000047	-46.235186	-84.417105	47.698483
58403	9.870715	-0.689239	0.713825	-0.046299	0.006864	0.107667	1.000000	0.000009	0.000023	0.000040	-46.239302	-84.417190	47.700331
58404	9.868606	-0.694859	0.665783	0.001604	0.002182	0.102728	1.000000	0.000026	0.000025	0.000039	-46.237678	-84.417426	47.711792
58405	9.903604	-0.731040	0.643695	0.026798	-0.030678	0.138618	1.000000	0.000021	0.000012	0.000057	-46.264257	-84.417034	47.737573
58406	9.901250	-0.660620	0.661795	0.006692	0.038894	0.132542	1.000000	0.000041	0.000042	0.000014	-46.227349	-84.417532	47.696131
58407	9.867721	-0.660065	0.688400	-0.021827	0.036080	0.100926	1.000000	0.000036	0.000029	0.000031	-46.216785	-84.417886	47.686306
58408	9.900722	-0.700797	0.617907	0.051825	-0.000663	0.131886	1.000000	0.000016	0.000020	0.000032	-46.214807	-84.418636	47.676744
58409	9.902285	-0.735710	0.621716	0.048996	-0.035601	0.136151	1.000000	0.000040	0.000019	0.000032	-46.212548	-84.419724	47.675767
58410	9.866501	-0.664236	0.665572	0.000868	0.031933	0.098468	1.000000	0.000043	0.000026	0.000031	-46.205580	-84.420287	47.664051
58411	9.851014	-0.680261	0.692846	-0.026911	0.014046	0.086017	1.000000	0.000033	0.000022	0.000031	-46.201680	-84.421169	47.660604
58412	9.866340	-0.665536	0.666649	-0.000085	0.030420	0.098473	1.000000	0.000036	0.000030	0.000047	-46.199562	-84.419870	47.659763
58413	9.849839	-0.684171	0.669612	-0.003653	0.010588	0.083558	1.000000	0.000030	0.000015	0.000032	-46.202331	-84.421280	47.662700
58414	9.868796	-0.698813	0.695318	-0.027640	-0.003310	0.105184	1.000000	0.000022	0.000035	0.000039	-46.194134	-84.420466	47.650624
58415	9.903154	-0.698167	0.694380	-0.024379	-0.000080	0.139270	1.000000	0.000026	0.000025	0.000048	-46.201131	-84.419724	47.657345
58416	9.865984	-0.668663	0.668793	-0.002162	0.027422	0.098482	1.000000	0.000033	0.000023	0.000048	-46.210848	-84.419317	47.666247
58417	9.866502	-0.706346	0.648386	0.019200	-0.009470	0.100271	1.000000	0.000016	0.000021	0.000048	-46.222866	-84.418898	47.676875
58418	9.900859	-0.705886	0.647316	0.022377	-0.006296	0.134361	1.000000	0.000026	0.000026	0.000056	-46.237662	-84.417972	47.702753
58419	9.884325	-0.724761	0.650319	0.018805	-0.026125	0.119434	1.000000	0.000033	0.000023	0.000048	-46.246301	-84.417436	47.711943
58420	9.900058	-0.670924	0.669215	-0.000579	0.028334	0.132580	1.000000	0.000026	0.000025	0.000040	-46.248392	-84.417582	47.713885
58421	9.901558	-0.706148	0.673115	-0.003432	-0.006604	0.136812	1.000000	0.000041	0.000020	0.000056	-46.264934	-84.416542	47.731856
58422	9.848968	-0.691966	0.674399	-0.008401	0.003840	0.083560	1.000000	0.000024	0.000041	0.000030	-46.244475	-84.415680	47.697679
58423	9.881745	-0.656932	0.670083	-0.002803	0.041234	0.113427	1.000000	0.000041	0.000020	0.000048	-46.254760	-84.415348	47.709345
58424	9.866206	-0.673161	0.697372	-0.030548	0.023338	0.100941	1.000000	0.000036	0.000029	0.000039	-46.246985	-84.414999	47.708767
58425	9.884138	-0.690338	0.698883	-0.030357	0.007472	0.120097	1.000000	0.000026	0.000025	0.000040	-46.247723	-84.414965	47.709180
58426	9.815126	-0.693774	0.702642	-0.038400	-0.001198	0.051909	1.000000	0.000031	0.000038	0.000022	-46.221556	-84.415417	47.686673
58427	9.899031	-0.715325	0.628270	0.041944	-0.015075	0.131921	1.000000	0.000023	0.000018	0.000040	-46.228959	-84.415911	47.693464
58428	9.899944	-0.713453	0.652990	0.017274	-0.013886	0.134363	1.000000	0.000026	0.000024	0.000023	-46.213481	-84.417164	47.679350
58429	9.881846	-0.697515	0.652707	0.016053	0.000487	0.115211	1.000000	0.000007	0.000040	0.000030	-46.196353	-84.416692	47.659650
58430	9.901339	-0.749043	0.657693	0.013864	-0.049584	0.138568	1.000000	0.000016	0.000021	0.000048	-46.208654	-84.416338	47.668846
58431	9.902815	-0.784124	0.661625	0.010981	-0.084525	0.142768	1.000000	0.000019	0.000027	0.000031	-46.201488	-84.416806	47.660478
58432	9.882157	-0.736480	0.633679	0.036349	-0.037914	0.116977	1.000000	0.000032	0.000039	0.000039	-46.189026	-84.415548	47.640421
58433	9.883024	-0.734812	0.658750	0.011616	-0.036689	0.119412	1.000000	0.000039	0.000037	0.000047	-46.184367	-84.413953	47.636886
58434	9.882346	-0.698748	0.680217	-0.010756	-0.001233	0.117650	1.000000	0.000033	0.000022	0.000032	-46.182498	-84.414718	47.625379
58435	9.865807	-0.717352	0.683185	-0.014340	-0.021036	0.102696	1.000000	0.000033	0.000023	0.000048	-46.191156	-84.414180	47.634589
58436	9.850235	-0.733472	0.710495	-0.042172	-0.038847	0.090172	1.000000	0.000036	0.000029	0.000031	-46.182474	-84.414657	47.627378
58437	9.847626	-0.702101	0.683452	-0.016096	-0.007389	0.083548	1.000000	0.000046	0.000033	0.000023	-46.160682	-84.415394	47.607392
58438	9.864980	-0.682228	0.705856	-0.037741	0.012936	0.100935	1.000000	0.000050	0.000023	0.000031	-46.153886	-84.415969	47.595826
58439	9.880386	-0.667409	0.679699	-0.010979	0.029247	0.113464	1.000000	0.000029	0.000032	0.000031	-46.141711	-84.416113	47.583563
58440	9.880298	-0.668058	0.680344	-0.011541	0.028480	0.113466	1.000000	0.000036	0.000029	0.000039	-46.138609	-84.415985	47.588770
58441	9.897253	-0.687666	0.657543	0.012827	0.010597	0.130179	1.000000	0.000023	0.000017	0.000032	-46.139745	-84.417187	47.589245
58442	9.895639	-0.654017	0.654521	0.014713	0.044008	0.126007	1.000000	0.000033	0.000022	0.000040	-46.140150	-84.417420	47.599889
58443	9.897072	-0.689160	0.658698	0.011805	0.009066	0.130181	1.000000	0.000010	0.000048	0.000046	-46.128904	-84.414998	47.586455
58444	9.879545	-0.710248	0.637562	0.032470	-0.012713	0.112791	1.000000	0.000030	0.000015	0.000032	-46.130460	-84.416225	47.583669
58445	9.862420	-0.692130	0.661341	0.007072	0.003679	0.096081	1.000000	0.000012	0.000031	0.000056	-46.140443	-84.414359	47.591767
58446	9.878784	-0.675183	0.659487	0.009693	0.021988	0.111052	1.000000	0.000036	0.000029	0.000039	-46.133966	-84.413655	47.577346
58447	9.880215	-0.710330	0.663482	0.006767	-0.012952	0.115214	1.000000	0.000016	0.000021	0.000048	-46.145984	-84.413233	47.587973
58448	9.862540	-0.655308	0.708033	-0.040490	0.039631	0.096764	1.000000	0.000033	0.000022	0.000032	-46.144494	-84.414408	47.591637
58449	9.811530	-0.675110	0.712448	-0.047801	0.015968	0.047685	1.000000	0.000023	0.000017	0.000032	-46.145639	-84.415609	47.592121
58450	9.896457	-0.694510	0.662308	0.008258	0.003785	0.130188	1.000000	0.000009	0.000023	0.000040	-46.146294	-84.415689	47.600665
58451	9.878380	-0.678866	0.661765	0.007081	0.018192	0.111062	1.000000	0.000048	0.000017	0.000048	-46.158290	-84.415561	47.614867
58452	9.862775	-0.694855	0.689119	-0.020697	0.000388	0.098498	1.000000	0.000031	0.000038	0.000022	-46.131611	-84.415904	47.592588
58453	9.879165	-0.677676	0.687251	-0.018149	0.018672	0.113479	1.000000	0.000016	0.000021	0.000048	-46.143635	-84.415482	47.603220
58454	9.911628	-0.682154	0.637725	0.033479	0.017779	0.142761	1.000000	0.000019	0.000028	0.000039	-46.142155	-84.415277	47.602068
58455	9.894515	-0.663932	0.661483	0.008097	0.034191	0.126053	1.000000	0.000023	0.000018	0.000040	-46.149573	-84.415769	47.608873
58456	9.877958	-0.682450	0.664372	0.004509	0.014385	0.111070	1.000000	0.000016	0.000020	0.000032	-46.148110	-84.416897	47.612125
58457	9.879371	-0.717450	0.668370	0.001576	-0.020558	0.115203	1.000000	0.000012	0.000030	0.000039	-46.145556	-84.416448	47.607590
58458	9.895760	-0.700462	0.666436	0.004146	-0.002285	0.130191	1.000000	0.000009	0.000024	0.000048	-46.154728	-84.415734	47.611559
58459	9.861194	-0.702725	0.668415	-0.000084	-0.006890	0.096082	1.000000	0.000033	0.000023	0.000048	-46.163422	-84.415193	47.620804
58460	9.843665	-0.723816	0.647135	0.020528	-0.028672	0.078682	1.000000	0.000002	0.000026	0.000031	-46.160137	-84.415856	47.613436
58461	9.894554	-0.705249	0.643584	0.026784	-0.006550	0.127786	1.000000	0.000030	0.000015	0.000032	-46.162961	-84.417263	47.616427
58462	9.843509	-0.725082	0.648081	0.019519	-0.030218	0.078679	1.000000	0.000022	0.000035	0.000039	-46.152327	-84.416660	47.621863
58463	9.878827	-0.721975	0.671537	-0.001509	-0.025119	0.115193	1.000000	0.000036	0.000029	0.000039	-46.148108	-84.416299	47.618434
58464	9.879252	-0.759697	0.651327	0.019754	-0.062072	0.116902	1.000000	0.000034	0.000023	0.000056	-46.163246	-84.415094	47.634762
58465	9.895120	-0.705940	0.670163	0.000507	-0.007606	0.130190	1.000000	0.000043	0.000027	0.000039	-46.160694	-84.414939	47.633827
58466	9.895559	-0.743496	0.649883	0.021804	-0.044590	0.131897	1.000000	0.000047	0.000017	0.000040	-46.164077	-84.415584	47.651308
58467	9.895892	-0.704795	0.695501	-0.024721	-0.007140	0.132587	1.000000	0.000039	0.000036	0.000031	-46.146944	-84.415405	47.635204
58468	9.875427	-0.657204	0.667332	0.000748	0.039475	0.106977	1.000000	0.000065	0.000019	0.000048	-46.155695	-84.415243	47.653534
58469	9.876803	-0.692237	0.671372	-0.002191	0.004529	0.111080	1.000000	0.000036	0.000029	0.000031	-46.145218	-84.415592	47.643798
58470	9.876188	-0.656121	0.692829	-0.024510	0.039983	0.109378	1.000000	0.000039	0.000037	0.000047	-46.141313	-84.414040	47.641474
58471	9.859583	-0.674656	0.696017	-0.028084	0.020225	0.094369	1.000000	0.000036	0.000029	0.000031	-46.130839	-84.414389	47.631743
58472	9.858565	-0.677840	0.672252	-0.004342	0.017490	0.091976	1.000000	0.000023	0.000018	0.000040	-46.137154	-84.414638	47.629278
58473	9.893884	-0.674671	0.695669	-0.025384	0.022570	0.128486	1.000000	0.000024	0.000041	0.000030	-46.116698	-84.414045	47.608197
58474	9.874905	-0.661192	0.671106	-0.002327	0.034971	0.106994	1.000000	0.000012	0.000030	0.000023	-46.100900	-84.415173	47.599707
58475	9.857382	-0.682130	0.649868	0.018312	0.013207	0.089590	1.000000	0.000009	0.000023	0.000040	-46.104995	-84.415251	47.601535
58476	9.859663	-0.714607	0.678331	-0.008877	-0.019753	0.096060	1.000000	-0.000007	0.000045	0.000030	-46.084643	-84.414554	47.584214
58477	9.876591	-0.734318	0.655805	0.015440	-0.037707	0.112769	1.000000	0.000026	0.000025	0.000040	-46.085428	-84.414515	47.584675
58478	9.874147	-0.703210	0.628425	0.041616	-0.006284	0.106306	1.000000	0.000013	0.000013	0.000032	-46.088981	-84.415944	47.590337
58479	9.876435	-0.735681	0.656614	0.014446	-0.039224	0.112765	1.000000	0.000026	0.000025	0.000040	-46.089768	-84.415905	47.590799
58480	9.878205	-0.731276	0.705699	-0.034514	-0.035959	0.117531	1.000000	0.000043	0.000026	0.000031	-46.081300	-84.416536	47.586486
58481	9.857390	-0.723002	0.632377	0.036992	-0.027541	0.091284	1.000000	0.000040	0.000019	0.000040	-46.085427	-84.416910	47.591943
58482	9.859165	-0.718577	0.681370	-0.011957	-0.024258	0.096047	1.000000	0.000057	0.000021	0.000032	-46.080345	-84.417855	47.589158
58483	9.875597	-0.701567	0.679379	-0.009417	-0.006011	0.111075	1.000000	0.000058	0.000022	0.000056	-46.093713	-84.416692	47.605895
58484	9.875502	-0.702366	0.679945	-0.009959	-0.006767	0.111074	1.000000	0.000036	0.000029	0.000031	-46.084113	-84.417164	47.601904
58485	9.857468	-0.686478	0.679527	-0.011086	0.007692	0.091984	1.000000	0.000060	0.000028	0.000039	-46.078289	-84.416890	47.599643
58486	9.873900	-0.669473	0.677646	-0.008573	0.025939	0.107018	1.000000	0.000043	0.000027	0.000048	-46.083467	-84.416113	47.607911
58487	9.856792	-0.651222	0.701321	-0.033909	0.042418	0.090309	1.000000	0.000030	0.000015	0.000040	-46.092577	-84.416808	47.617235
58488	9.889346	-0.655794	0.651763	0.017685	0.041414	0.119684	1.000000	0.000033	0.000022	0.000040	-46.094428	-84.416895	47.618129
58489	9.889262	-0.656542	0.652291	0.017170	0.040662	0.119688	1.000000	0.000019	0.000028	0.000039	-46.093542	-84.416648	47.616092
58490	9.872640	-0.675082	0.655336	0.013578	0.020913	0.104651	1.000000	0.000026	0.000025	0.000040	-46.094506	-84.416730	47.621298
58491	9.872543	-0.676002	0.655846	0.013062	0.020163	0.104653	1.000000	0.000009	0.000024	0.000056	-46.111135	-84.415387	47.635754
58492	9.888077	-0.661533	0.629636	0.039817	0.036367	0.117329	1.000000	0.000012	0.000030	0.000023	-46.095848	-84.416388	47.619051
58493	9.873763	-0.711853	0.660423	0.009565	-0.015546	0.108691	1.000000	0.000007	0.000017	0.000056	-46.119127	-84.415574	47.639869
58494	9.871855	-0.717643	0.612345	0.057494	-0.020343	0.103954	1.000000	0.000019	0.000026	0.000015	-46.098826	-84.417353	47.613110
58495	9.908090	-0.711723	0.660000	0.012198	-0.013284	0.142817	1.000000	0.000019	0.000027	0.000031	-46.091673	-84.417816	47.604757
58496	9.874918	-0.747952	0.665514	0.005549	-0.051985	0.112715	1.000000	0.000033	0.000022	0.000040	-46.094582	-84.417960	47.603612
58497	9.856898	-0.732076	0.665046	0.004443	-0.037509	0.093636	1.000000	0.000022	0.000034	0.000031	-46.080778	-84.417894	47.588897
58498	9.890853	-0.770839	0.619231	0.053506	-0.072780	0.127054	1.000000	0.000040	0.000019	0.000032	-46.079240	-84.419032	47.589426
58499	9.874179	-0.713043	0.687993	-0.017759	-0.017999	0.111049	1.000000	0.000039	0.000037	0.000047	-46.074694	-84.417429	47.586007
58500	9.891105	-0.732876	0.665363	0.006475	-0.036013	0.127757	1.000000	0.000030	0.000015	0.000032	-46.079501	-84.418998	47.593912
58501	9.874000	-0.714600	0.688946	-0.018839	-0.019496	0.111044	1.000000	0.000041	0.000020	0.000056	-46.096208	-84.417950	47.612045
58502	9.857342	-0.733266	0.692008	-0.022448	-0.039212	0.095981	1.000000	0.000029	0.000032	0.000039	-46.091795	-84.417477	47.610233
58503	9.889441	-0.701102	0.663411	0.007373	-0.004060	0.123743	1.000000	0.000036	0.000030	0.000048	-46.093899	-84.416403	47.613177
58504	9.889347	-0.701916	0.663950	0.006837	-0.004785	0.123743	1.000000	0.000040	0.000019	0.000040	-46.099864	-84.416730	47.614865
58505	9.887899	-0.668423	0.660836	0.008813	0.028667	0.119741	1.000000	0.000033	0.000023	0.000048	-46.108617	-84.416184	47.624169
58506	9.870342	-0.689577	0.639654	0.029423	0.006922	0.102322	1.000000	0.000029	0.000032	0.000039	-46.104383	-84.415639	47.617616
58507	9.887721	-0.669903	0.661992	0.007759	0.027180	0.119746	1.000000	0.000033	0.000022	0.000032	-46.100602	-84.416513	47.614290
58508	9.886743	-0.673140	0.638232	0.031448	0.024390	0.117396	1.000000	0.000026	0.000025	0.000040	-46.102159	-84.416468	47.614317
58509	9.869647	-0.654674	0.661975	0.006156	0.040930	0.100689	1.000000	0.000036	0.000029	0.000031	-46.091730	-84.416814	47.604633
58510	9.870915	-0.689567	0.666156	0.003125	0.005961	0.104680	1.000000	0.000019	0.000027	0.000031	-46.084231	-84.417372	47.603156
58511	9.870825	-0.690233	0.666798	0.002609	0.005212	0.104681	1.000000	0.000022	0.000035	0.000039	-46.076706	-84.416595	47.594768
58512	9.887753	-0.710038	0.644204	0.026847	-0.012832	0.121392	1.000000	0.000016	0.000020	0.000032	-46.077063	-84.417643	47.594472
58513	9.870660	-0.691580	0.667843	0.001558	0.003715	0.104681	1.000000	0.000026	0.000025	0.000040	-46.077872	-84.417600	47.594958
58514	9.888484	-0.708805	0.669468	0.001570	-0.012286	0.123738	1.000000	0.000026	0.000025	0.000031	-46.073455	-84.418371	47.592810
58515	9.871824	-0.727303	0.672474	-0.002015	-0.031990	0.108656	1.000000	0.000033	0.000023	0.000048	-46.082226	-84.417825	47.602132
58516	9.887415	-0.712785	0.646363	0.024723	-0.015836	0.121393	1.000000	0.000031	0.000038	0.000022	-46.058421	-84.418219	47.579451
58517	9.871194	-0.691794	0.694453	-0.024774	0.002775	0.107025	1.000000	0.000026	0.000026	0.000056	-46.071782	-84.416757	47.592582
58518	9.905113	-0.730992	0.648759	0.024219	-0.032592	0.140445	1.000000	0.000029	0.000032	0.000039	-46.066725	-84.416226	47.588281
58519	9.870108	-0.696018	0.671380	-0.001608	-0.000774	0.104682	1.000000	0.000033	0.000022	0.000040	-46.069228	-84.416389	47.591287
58520	9.884820	-0.684263	0.620922	0.049351	0.013320	0.115093	1.000000	0.000036	0.000030	0.000048	-46.072788	-84.415338	47.593607
58521	9.870797	-0.695138	0.696743	-0.026877	-0.000200	0.107020	1.000000	0.000041	0.000020	0.000048	-46.083251	-84.414996	47.605448
58522	9.870701	-0.696036	0.697213	-0.027416	-0.000972	0.107018	1.000000	0.000033	0.000023	0.000048	-46.092217	-84.414615	47.625360
58523	9.866648	-0.670313	0.621352	0.047236	0.026315	0.096057	1.000000	0.000043	0.000026	0.000040	-46.089770	-84.414454	47.624533
58524	9.852644	-0.680942	0.696944	-0.029013	0.012802	0.087969	1.000000	0.000025	0.000000	0.000033	-46.107191	-84.416989	47.642503
58525	9.868275	-0.666634	0.670432	-0.002248	0.028936	0.100732	1.000000	0.000041	0.000020	0.000056	-46.123927	-84.415935	47.660663
58526	9.884771	-0.649718	0.668511	0.000281	0.047132	0.115833	1.000000	0.000022	0.000034	0.000031	-46.111399	-84.415930	47.646646
58527	9.868089	-0.668110	0.671702	-0.003300	0.027444	0.100736	1.000000	0.000029	0.000032	0.000039	-46.105571	-84.415357	47.640784
58528	9.885004	-0.688032	0.649193	0.020941	0.009347	0.117449	1.000000	0.000019	0.000028	0.000039	-46.103559	-84.415129	47.642125
58529	9.903687	-0.702691	0.675081	-0.003261	-0.004615	0.138820	1.000000	0.000016	0.000020	0.000032	-46.103069	-84.416118	47.640148
58530	9.886140	-0.723631	0.653768	0.017376	-0.026366	0.121386	1.000000	0.000009	0.000023	0.000031	-46.100521	-84.416878	47.634033
58531	9.902647	-0.706582	0.651884	0.019923	-0.008186	0.136492	1.000000	0.000015	0.000038	0.000039	-46.091309	-84.415894	47.623133
58532	9.885960	-0.724987	0.654979	0.016323	-0.027871	0.121384	1.000000	0.000016	0.000020	0.000032	-46.091364	-84.416946	47.622645
58533	9.887626	-0.720375	0.704064	-0.032626	-0.024486	0.126032	1.000000	0.000022	0.000034	0.000031	-46.077579	-84.416877	47.607952
58534	9.885791	-0.726327	0.656055	0.015263	-0.029373	0.121381	1.000000	0.000038	0.000013	0.000049	-46.095702	-84.417147	47.629263
58535	9.868693	-0.707956	0.679643	-0.009991	-0.012774	0.104669	1.000000	0.000036	0.000029	0.000039	-46.091580	-84.416780	47.625934
58536	9.886472	-0.725276	0.681436	-0.010002	-0.028810	0.123699	1.000000	0.000029	0.000032	0.000039	-46.086157	-84.416277	47.624013
58537	9.851887	-0.727134	0.683518	-0.014105	-0.033201	0.089550	1.000000	0.000039	0.000036	0.000039	-46.075394	-84.415381	47.614333
58538	9.849652	-0.696239	0.656223	0.012139	-0.001794	0.083316	1.000000	0.000041	0.000020	0.000048	-46.086869	-84.414981	47.622200
58539	9.901516	-0.675685	0.677096	-0.005943	0.022089	0.134901	1.000000	0.000033	0.000023	0.000048	-46.095664	-84.414431	47.631545
58540	9.865217	-0.682683	0.630532	0.038378	0.013558	0.096121	1.000000	0.000046	0.000033	0.000023	-46.074852	-84.415194	47.613261
58541	9.882610	-0.662822	0.653094	0.016717	0.033804	0.113562	1.000000	0.000041	0.000043	0.000030	-46.051186	-84.414479	47.590922
58542	9.901250	-0.677520	0.679160	-0.007513	0.019859	0.134905	1.000000	0.000048	0.000017	0.000048	-46.064410	-84.414288	47.599890
58543	9.865820	-0.681986	0.656758	0.012611	0.013402	0.098443	1.000000	0.000036	0.000029	0.000031	-46.054030	-84.414630	47.590257
58544	9.900211	-0.681617	0.656014	0.015636	0.016286	0.132594	1.000000	0.000019	0.000028	0.000048	-46.061412	-84.413733	47.593511
58545	9.882638	-0.702698	0.634908	0.036260	-0.005467	0.115157	1.000000	0.000022	0.000034	0.000031	-46.047637	-84.413663	47.578830
58546	9.866398	-0.681683	0.682817	-0.013191	0.013251	0.100757	1.000000	0.000024	0.000019	0.000056	-46.067858	-84.412767	47.600635
58547	9.900780	-0.681405	0.682106	-0.010139	0.016115	0.134909	1.000000	0.000024	0.000041	0.000030	-46.047450	-84.412168	47.579611
58548	9.864489	-0.688421	0.635665	0.034199	0.007571	0.096142	1.000000	0.000012	0.000031	0.000039	-46.044986	-84.411764	47.577385
58549	9.865254	-0.686549	0.660496	0.009468	0.008910	0.098451	1.000000	0.000026	0.000025	0.000040	-46.045825	-84.411718	47.577901
58550	9.883881	-0.701198	0.686471	-0.014782	-0.005044	0.119774	1.000000	0.000019	0.000027	0.000031	-46.039288	-84.412177	47.566763
58551	9.899101	-0.726281	0.615415	0.057830	-0.027380	0.131875	1.000000	0.000026	0.000025	0.000031	-46.033860	-84.412842	47.560964
58552	9.867089	-0.720154	0.690042	-0.018925	-0.025445	0.104632	1.000000	0.000026	0.000025	0.000040	-46.036176	-84.412904	47.564207
58553	9.901483	-0.719811	0.689223	-0.015885	-0.022598	0.138783	1.000000	0.000033	0.000022	0.000040	-46.038721	-84.413064	47.567255
58554	9.882691	-0.706566	0.664325	0.007336	-0.010141	0.117468	1.000000	0.000043	0.000026	0.000040	-46.035889	-84.412893	47.567583
58555	9.882593	-0.707387	0.664910	0.006818	-0.010891	0.117467	1.000000	0.000019	0.000028	0.000048	-46.041298	-84.411930	47.571888
58556	9.863790	-0.694396	0.639993	0.030024	0.001576	0.096159	1.000000	0.000041	0.000020	0.000056	-46.058819	-84.410901	47.591323
58557	9.881182	-0.674967	0.662192	0.008370	0.021824	0.113606	1.000000	0.000040	0.000019	0.000040	-46.063074	-84.411265	47.596908
58558	9.899790	-0.689678	0.688143	-0.015891	0.007854	0.134911	1.000000	0.000043	0.000026	0.000040	-46.060638	-84.411135	47.597943
58559	9.863170	-0.659824	0.661996	0.006861	0.035635	0.094604	1.000000	0.000023	0.000018	0.000040	-46.068121	-84.411616	47.604812
58560	9.881772	-0.674550	0.687969	-0.017405	0.021673	0.115906	1.000000	0.000029	0.000032	0.000039	-46.062734	-84.411061	47.598694
58561	9.863830	-0.658753	0.687405	-0.018389	0.036243	0.096903	1.000000	0.000019	0.000028	0.000048	-46.068137	-84.410096	47.602993
58562	9.880727	-0.678935	0.664924	0.005736	0.018072	0.113615	1.000000	0.000019	0.000028	0.000048	-46.075486	-84.409277	47.610921
58563	9.863993	-0.697366	0.667959	0.002142	-0.001568	0.098459	1.000000	0.000033	0.000022	0.000032	-46.071784	-84.410146	47.607676
58564	9.898385	-0.697054	0.667251	0.005166	0.001237	0.132619	1.000000	0.000022	0.000035	0.000047	-46.070130	-84.408698	47.608130
58565	9.898302	-0.697822	0.667683	0.004647	0.000486	0.132619	1.000000	0.000010	0.000006	0.000033	-46.082925	-84.410741	47.618856
58566	9.898243	-0.698351	0.668007	0.004135	-0.000271	0.132619	1.000000	0.000026	0.000024	0.000023	-46.070783	-84.412112	47.606197
58567	9.862841	-0.702637	0.645600	0.024296	-0.006690	0.096172	1.000000	0.000019	0.000028	0.000039	-46.069927	-84.411858	47.604191
58568	9.880590	-0.719940	0.647350	0.024226	-0.022772	0.115169	1.000000	0.000026	0.000025	0.000031	-46.064846	-84.412574	47.599501
58569	9.880502	-0.720603	0.647948	0.023707	-0.023524	0.115168	1.000000	0.000029	0.000032	0.000039	-46.059064	-84.411997	47.593687
58570	9.880080	-0.684299	0.669022	0.001581	0.012058	0.113626	1.000000	0.000047	0.000016	0.000032	-46.059843	-84.413322	47.594825
58571	9.864171	-0.700058	0.696267	-0.026230	-0.005455	0.100739	1.000000	0.000019	0.000028	0.000048	-46.065253	-84.412357	47.599131
58572	9.880223	-0.722999	0.649533	0.022115	-0.025769	0.115166	1.000000	0.000026	0.000026	0.000056	-46.079488	-84.410928	47.612394
58573	9.881799	-0.718429	0.698528	-0.026834	-0.022283	0.119725	1.000000	0.000040	0.000018	0.000024	-46.071250	-84.412715	47.605394
58574	9.878893	-0.690093	0.646828	0.023715	0.006950	0.111351	1.000000	0.000036	0.000030	0.000048	-46.073783	-84.411585	47.603939
58575	9.861802	-0.671616	0.670472	-0.001457	0.023662	0.094642	1.000000	0.000019	0.000028	0.000039	-46.072928	-84.411331	47.601934
58576	9.897342	-0.705718	0.673585	-0.001131	-0.007770	0.132617	1.000000	0.000039	0.000037	0.000047	-46.070076	-84.409865	47.604054
58577	9.879421	-0.689803	0.673089	-0.002088	0.006821	0.113631	1.000000	0.000029	0.000032	0.000031	-46.058042	-84.409999	47.591941
58578	9.878513	-0.693125	0.649386	0.021594	0.003946	0.111357	1.000000	0.000040	0.000019	0.000040	-46.063020	-84.410423	47.599223
58579	9.859788	-0.679816	0.624455	0.044858	0.016415	0.090102	1.000000	0.000005	0.000033	0.000031	-46.052476	-84.410468	47.585830
58580	9.844693	-0.692734	0.675918	-0.007180	0.001054	0.079465	1.000000	0.000045	0.000009	0.000033	-46.059430	-84.412308	47.593788
58581	9.879117	-0.692317	0.674967	-0.004183	0.003824	0.113632	1.000000	0.000016	0.000020	0.000032	-46.058951	-84.413293	47.591821
58582	9.862358	-0.710728	0.677933	-0.007780	-0.015794	0.098444	1.000000	0.000033	0.000023	0.000048	-46.067510	-84.412746	47.601031
58583	9.878940	-0.693899	0.675936	-0.005214	0.002321	0.113632	1.000000	0.000026	0.000025	0.000040	-46.068376	-84.412696	47.601574
58584	9.896662	-0.711216	0.677789	-0.005322	-0.013782	0.132609	1.000000	0.000022	0.000034	0.000031	-46.055289	-84.412683	47.588180
58585	9.895762	-0.714483	0.654103	0.018373	-0.016667	0.130341	1.000000	0.000016	0.000020	0.000032	-46.054810	-84.413667	47.586215
58586	9.844214	-0.696751	0.678772	-0.010291	-0.003419	0.079462	1.000000	0.000030	0.000015	0.000032	-46.058427	-84.415027	47.584306
58587	9.861931	-0.714142	0.680564	-0.010390	-0.019523	0.098435	1.000000	0.000039	0.000037	0.000047	-46.054003	-84.413415	47.581015
58588	9.878510	-0.697308	0.678710	-0.007831	-0.001420	0.113630	1.000000	0.000026	0.000025	0.000040	-46.055147	-84.413423	47.584946
58589	9.860921	-0.718380	0.657496	0.012780	-0.023165	0.096169	1.000000	0.000026	0.000025	0.000040	-46.056017	-84.413373	47.585494
58590	9.896133	-0.715454	0.681040	-0.008471	-0.018288	0.132600	1.000000	0.000043	0.000026	0.000040	-46.054307	-84.413310	47.591014
58591	9.877429	-0.702210	0.656077	0.014812	-0.005816	0.111369	1.000000	0.000033	0.000022	0.000040	-46.056902	-84.413465	47.594112
58592	9.877040	-0.665962	0.677128	-0.007250	0.029794	0.109862	1.000000	0.000036	0.000029	0.000039	-46.053146	-84.413102	47.591144
58593	9.877244	-0.703684	0.657285	0.013772	-0.007315	0.111369	1.000000	0.000029	0.000032	0.000039	-46.047382	-84.412523	47.585350
58594	9.876049	-0.670119	0.654078	0.015931	0.026144	0.107610	1.000000	0.000040	0.000019	0.000040	-46.051435	-84.412923	47.594254
58595	9.876780	-0.668182	0.678741	-0.008799	0.027537	0.109868	1.000000	0.000023	0.000018	0.000040	-46.058947	-84.413400	47.601151
58596	9.877796	-0.703240	0.682965	-0.012010	-0.007414	0.113623	1.000000	0.000026	0.000025	0.000040	-46.060949	-84.413340	47.597833
58597	9.894403	-0.686271	0.681073	-0.009441	0.010681	0.128833	1.000000	0.000022	0.000034	0.000031	-46.047197	-84.413267	47.583179
58598	9.894319	-0.686942	0.681622	-0.009983	0.009928	0.128834	1.000000	0.000023	0.000018	0.000040	-46.055679	-84.413845	47.595253
58599	9.875639	-0.673719	0.656567	0.013317	0.022403	0.107623	1.000000	0.000026	0.000025	0.000040	-46.056557	-84.413794	47.595809
58600	9.876641	-0.708772	0.660870	0.010103	-0.012556	0.111368	1.000000	0.000026	0.000025	0.000040	-46.058069	-84.413725	47.591959
58601	9.875462	-0.675213	0.657696	0.012282	0.020911	0.107627	1.000000	0.000029	0.000032	0.000039	-46.052311	-84.413145	47.586171
58602	9.876461	-0.710176	0.662047	0.009041	-0.014059	0.111367	1.000000	0.000033	0.000022	0.000032	-46.049730	-84.414123	47.586670
58603	9.892281	-0.695909	0.635859	0.035827	0.001872	0.124341	1.000000	0.000029	0.000032	0.000039	-46.043974	-84.413543	47.580884
58604	9.893775	-0.691335	0.685063	-0.013136	0.005420	0.128833	1.000000	0.000022	0.000035	0.000047	-46.042951	-84.412151	47.584389
58605	9.876977	-0.709707	0.688105	-0.016741	-0.014165	0.113609	1.000000	0.000030	0.000015	0.000032	-46.045935	-84.413546	47.587539
58606	9.858318	-0.696390	0.663061	0.006559	-0.001691	0.092412	1.000000	0.000036	0.000029	0.000040	-46.042237	-84.413240	47.587336
58607	9.876004	-0.713803	0.664964	0.006426	-0.017826	0.111363	1.000000	0.000036	0.000029	0.000040	-46.038216	-84.412865	47.584112
58608	9.858132	-0.697861	0.664265	0.005508	-0.003193	0.092412	1.000000	0.000026	0.000025	0.000040	-46.039692	-84.412903	47.589071
58609	9.856979	-0.664299	0.661050	0.007698	0.030277	0.088693	1.000000	0.000036	0.000029	0.000040	-46.035675	-84.412529	47.585850
58610	9.857951	-0.699337	0.665398	0.004468	-0.004694	0.092412	1.000000	0.000033	0.000022	0.000040	-46.038472	-84.412727	47.589922
58611	9.874590	-0.682386	0.663364	0.007039	0.013384	0.107645	1.000000	0.000033	0.000022	0.000032	-46.034827	-84.413593	47.586736
58612	9.857791	-0.700665	0.666379	0.003423	-0.006192	0.092411	1.000000	0.000026	0.000025	0.000040	-46.036285	-84.413589	47.588386
58613	9.875212	-0.681090	0.688644	-0.018221	0.014047	0.109883	1.000000	0.000026	0.000025	0.000040	-46.037175	-84.413537	47.588954
58614	9.858399	-0.699439	0.691736	-0.021841	-0.005528	0.094645	1.000000	0.000036	0.000029	0.000040	-46.033761	-84.413232	47.588129
58615	9.855690	-0.671229	0.640026	0.028790	0.023615	0.086475	1.000000	0.000019	0.000027	0.000031	-46.026654	-84.413686	47.579828
58616	9.891926	-0.702565	0.667481	0.004782	-0.005769	0.126592	1.000000	0.000029	0.000032	0.000039	-46.021539	-84.413172	47.575748
58617	9.890008	-0.671727	0.640024	0.031200	0.025533	0.120665	1.000000	0.000026	0.000025	0.000040	-46.022433	-84.413119	47.576320
58618	9.874773	-0.684572	0.691490	-0.020855	0.010292	0.109882	1.000000	0.000023	0.000017	0.000032	-46.024378	-84.414410	47.580748
58619	9.892466	-0.701775	0.693305	-0.021008	-0.005861	0.128820	1.000000	0.000029	0.000031	0.000023	-46.006101	-84.415253	47.562350
58620	9.839332	-0.689444	0.669571	-0.001147	0.003206	0.073470	1.000000	0.000026	0.000026	0.000056	-46.020225	-84.413907	47.581503
58621	9.890706	-0.708874	0.645949	0.026363	-0.011708	0.124364	1.000000	0.000026	0.000025	0.000040	-46.021124	-84.413854	47.582079
58622	9.873652	-0.690122	0.669303	0.001251	0.005116	0.107655	1.000000	0.000037	0.000012	0.000032	-46.026641	-84.415529	47.590238
58623	9.891325	-0.707569	0.671092	0.001093	-0.011044	0.126589	1.000000	0.000029	0.000033	0.000048	-46.027172	-84.414235	47.590785
58624	9.873474	-0.691694	0.670297	0.000203	0.003620	0.107656	1.000000	0.000030	0.000015	0.000040	-46.037304	-84.414957	47.600019
58625	9.873390	-0.692450	0.670755	-0.000314	0.002870	0.107656	1.000000	0.000019	0.000028	0.000040	-46.036466	-84.414698	47.598033
58626	9.872527	-0.695841	0.647103	0.023372	-0.000054	0.105436	1.000000	0.000036	0.000029	0.000031	-46.026732	-84.415087	47.589673
58627	9.873225	-0.693689	0.671898	-0.001360	0.001370	0.107657	1.000000	0.000033	0.000022	0.000032	-46.023107	-84.415952	47.586507
58628	9.854618	-0.680462	0.646746	0.021972	0.013863	0.086511	1.000000	0.000031	0.000016	0.000049	-46.039501	-84.415983	47.603660
58629	9.873059	-0.695268	0.672703	-0.002411	-0.000128	0.107657	1.000000	0.000040	0.000019	0.000040	-46.043889	-84.416340	47.609378
58630	9.873742	-0.693187	0.697597	-0.027157	0.001293	0.109872	1.000000	0.000025	0.000041	0.000030	-46.023798	-84.415817	47.591455
58631	9.889617	-0.679076	0.671528	-0.000370	0.017167	0.122921	1.000000	0.000026	0.000025	0.000048	-46.030971	-84.415050	47.598351
58632	9.888753	-0.682646	0.647814	0.023320	0.014242	0.120709	1.000000	0.000026	0.000025	0.000040	-46.032632	-84.415002	47.597018
58633	9.871920	-0.700902	0.650880	0.019714	-0.005308	0.105443	1.000000	0.000019	0.000027	0.000031	-46.025530	-84.415455	47.588723
58634	9.888590	-0.683906	0.648978	0.022270	0.012732	0.120713	1.000000	0.000029	0.000032	0.000031	-46.013945	-84.415679	47.580013
58635	9.871522	-0.665280	0.672431	-0.002798	0.029590	0.104007	1.000000	0.000024	0.000019	0.000057	-46.034026	-84.414727	47.599568
58636	9.889400	-0.719795	0.653817	0.018455	-0.022995	0.124362	1.000000	0.000026	0.000024	0.000023	-46.023560	-84.416202	47.591093
58637	9.853835	-0.687100	0.651640	0.017271	0.007113	0.086528	1.000000	0.000041	0.000020	0.000057	-46.040496	-84.415132	47.609449
58638	9.872245	-0.701810	0.677847	-0.007136	-0.006879	0.107652	1.000000	0.000032	0.000038	0.000023	-46.016007	-84.415465	47.583092
58639	9.905887	-0.704275	0.653154	0.019981	-0.006460	0.139637	1.000000	0.000029	0.000032	0.000039	-46.010286	-84.414882	47.577342
58640	9.854324	-0.686398	0.677846	-0.008508	0.007054	0.088736	1.000000	0.000026	0.000025	0.000040	-46.011575	-84.414880	47.579104
58641	9.871212	-0.706531	0.655512	0.015517	-0.011321	0.105445	1.000000	0.000036	0.000029	0.000031	-46.001334	-84.415215	47.569616
58642	9.871118	-0.707265	0.656140	0.014983	-0.012071	0.105445	1.000000	0.000036	0.000030	0.000048	-46.004373	-84.414190	47.574140
58643	9.890273	-0.719317	0.706490	-0.033644	-0.023874	0.128758	1.000000	0.000023	0.000018	0.000040	-46.011923	-84.414662	47.581074
58644	9.887698	-0.691356	0.654645	0.017035	0.005208	0.120730	1.000000	0.000036	0.000030	0.000048	-46.014256	-84.413604	47.584209
58645	9.869885	-0.675372	0.653781	0.016201	0.019898	0.101824	1.000000	0.000030	0.000015	0.000032	-46.017289	-84.414995	47.587408
58646	9.888293	-0.689937	0.679897	-0.008221	0.005903	0.122931	1.000000	0.000022	0.000034	0.000031	-46.003932	-84.414938	47.571798
58647	9.853698	-0.691504	0.681738	-0.012144	0.001818	0.088735	1.000000	0.000036	0.000030	0.000048	-46.006236	-84.413847	47.574945
58648	9.853598	-0.692315	0.682369	-0.012688	0.001074	0.088734	1.000000	0.000036	0.000029	0.000040	-46.003673	-84.413562	47.575037
58649	9.870280	-0.675495	0.680426	-0.010111	0.019103	0.104028	1.000000	0.000026	0.000025	0.000040	-46.004595	-84.413506	47.575638
58650	9.887907	-0.692968	0.682433	-0.010326	0.002902	0.122930	1.000000	0.000039	0.000036	0.000039	-45.994208	-84.412642	47.566551
58651	9.887065	-0.696474	0.658767	0.013372	-0.000052	0.120737	1.000000	0.000023	0.000018	0.000040	-46.001762	-84.413114	47.573489
58652	9.870954	-0.711847	0.686126	-0.014471	-0.017374	0.107631	1.000000	0.000032	0.000038	0.000023	-45.977575	-84.413498	47.550849
58653	9.886899	-0.697550	0.660115	0.012321	-0.001556	0.120739	1.000000	0.000022	0.000034	0.000031	-45.963853	-84.413420	47.536228
58654	9.887552	-0.695528	0.684963	-0.012420	-0.000104	0.122928	1.000000	0.000033	0.000023	0.000048	-45.973013	-84.412898	47.546170
58655	9.885965	-0.701890	0.637057	0.035493	-0.005269	0.118551	1.000000	0.000029	0.000032	0.000039	-45.967314	-84.412313	47.540444
58656	9.852113	-0.700664	0.663125	0.007366	-0.007115	0.086540	1.000000	0.000029	0.000032	0.000039	-45.962081	-84.411701	47.530973
58657	9.887258	-0.697825	0.686872	-0.013975	-0.002345	0.122926	1.000000	0.000036	0.000029	0.000040	-45.958136	-84.411321	47.527827
58658	9.867967	-0.687448	0.637592	0.033640	0.007936	0.099662	1.000000	0.000026	0.000025	0.000048	-45.965456	-84.410584	47.534953
58659	9.851832	-0.702882	0.664953	0.005813	-0.009364	0.086539	1.000000	0.000029	0.000031	0.000023	-45.947225	-84.411424	47.516605
58660	9.903031	-0.685284	0.661846	0.011772	0.011950	0.136051	1.000000	0.000041	0.000020	0.000057	-45.964543	-84.410371	47.534191
58661	9.869186	-0.684044	0.687715	-0.016344	0.010119	0.104033	1.000000	0.000026	0.000024	0.000023	-45.952937	-84.411739	47.522175
58662	9.886815	-0.701469	0.689527	-0.016595	-0.006099	0.122921	1.000000	0.000031	0.000016	0.000049	-45.969271	-84.411788	47.541069
58663	9.868287	-0.688328	0.664316	0.006820	0.006400	0.101853	1.000000	0.000033	0.000022	0.000040	-45.971959	-84.411936	47.544261
58664	9.885904	-0.705744	0.666276	0.006579	-0.009819	0.120739	1.000000	0.000029	0.000032	0.000031	-45.960283	-84.412082	47.531580
58665	9.850418	-0.672902	0.664026	0.005504	0.020371	0.082970	1.000000	0.000023	0.000018	0.000040	-45.967844	-84.412553	47.538525
58666	9.885736	-0.707173	0.667261	0.005524	-0.011323	0.120738	1.000000	0.000026	0.000025	0.000040	-45.969518	-84.412578	47.542109
58667	9.884744	-0.673626	0.663950	0.007829	0.022152	0.117178	1.000000	0.000029	0.000032	0.000039	-45.963829	-84.411992	47.536394
58668	9.884653	-0.674372	0.664551	0.007305	0.021404	0.117180	1.000000	0.000026	0.000025	0.000040	-45.965250	-84.411955	47.536292
58669	9.886200	-0.706550	0.693141	-0.020254	-0.011347	0.122909	1.000000	0.000030	0.000015	0.000032	-45.968304	-84.413344	47.539511
58670	9.866964	-0.696033	0.643762	0.027378	-0.001082	0.099685	1.000000	0.000029	0.000032	0.000039	-45.962755	-84.412838	47.536240
58671	9.867600	-0.693988	0.668606	0.002646	0.000395	0.101857	1.000000	0.000026	0.000025	0.000040	-45.963696	-84.412779	47.536859
58672	9.867512	-0.694738	0.669135	0.002113	-0.000359	0.101857	1.000000	0.000026	0.000025	0.000040	-45.965198	-84.412808	47.540404
58673	9.867419	-0.695566	0.669646	0.001596	-0.001109	0.101857	1.000000	0.000033	0.000023	0.000048	-45.974168	-84.412242	47.549923
58674	9.902711	-0.729849	0.672938	0.001592	-0.032825	0.139605	1.000000	0.000033	0.000022	0.000032	-45.971209	-84.413156	47.548030
58675	9.884069	-0.679463	0.668036	0.003649	0.016135	0.117192	1.000000	0.000023	0.000018	0.000040	-45.978781	-84.413626	47.554985
58676	9.884126	-0.717298	0.648327	0.024502	-0.021072	0.118563	1.000000	0.000032	0.000039	0.000039	-45.966883	-84.412504	47.540671
58677	9.867062	-0.698472	0.671880	-0.000488	-0.004101	0.101856	1.000000	0.000012	0.000031	0.000039	-45.964307	-84.412033	47.536121
58678	9.866963	-0.699308	0.672461	-0.001018	-0.004849	0.101856	1.000000	0.000026	0.000025	0.000048	-45.972155	-84.411311	47.544240
58679	9.866863	-0.700133	0.673067	-0.001535	-0.005599	0.101855	1.000000	0.000029	0.000032	0.000039	-45.966480	-84.410723	47.538539
58680	9.866051	-0.703679	0.649426	0.022150	-0.008592	0.099694	1.000000	0.000026	0.000025	0.000040	-45.967805	-84.410738	47.541537
58681	9.884221	-0.681223	0.695983	-0.023695	0.013872	0.119358	1.000000	0.000029	0.000032	0.000031	-45.955867	-84.410864	47.529529
58682	9.866592	-0.702192	0.674887	-0.003099	-0.007861	0.101854	1.000000	0.000043	0.000026	0.000040	-45.953365	-84.410730	47.529029
58683	9.883319	-0.685505	0.672947	-0.000514	0.010121	0.117200	1.000000	0.000019	0.000028	0.000048	-45.958821	-84.409751	47.533381
58684	9.883223	-0.686340	0.673505	-0.001026	0.009377	0.117201	1.000000	0.000026	0.000025	0.000040	-45.959861	-84.409654	47.530116
58685	9.867014	-0.701771	0.700897	-0.028862	-0.007856	0.104006	1.000000	0.000046	0.000033	0.000039	-45.951102	-84.408949	47.523277
58686	9.847826	-0.691346	0.651543	0.018786	0.002398	0.080835	1.000000	0.000023	0.000018	0.000040	-45.959593	-84.409537	47.535645
58687	9.882251	-0.691304	0.650900	0.021612	0.004873	0.115050	1.000000	0.000026	0.000025	0.000032	-45.954283	-84.410190	47.529970
58688	9.865343	-0.709397	0.653945	0.017988	-0.014614	0.099696	1.000000	0.000026	0.000025	0.000032	-45.948710	-84.410908	47.525480
58689	9.866684	-0.704441	0.702857	-0.030959	-0.010866	0.103997	1.000000	0.000030	0.000015	0.000040	-45.958056	-84.411582	47.535035
58690	9.883564	-0.724718	0.680481	-0.007017	-0.029366	0.120700	1.000000	0.000026	0.000025	0.000032	-45.952317	-84.412166	47.523553
58691	9.882654	-0.691021	0.677065	-0.004660	0.004112	0.117204	1.000000	0.000019	0.000027	0.000031	-45.945237	-84.412613	47.515282
58692	9.881842	-0.694662	0.653526	0.019025	0.001100	0.115056	1.000000	0.000032	0.000040	0.000055	-45.945715	-84.410146	47.518524
58693	9.865614	-0.710073	0.680919	-0.008812	-0.016114	0.101840	1.000000	0.000040	0.000018	0.000024	-45.937674	-84.411925	47.511725
58694	9.847172	-0.696771	0.655645	0.014648	-0.003605	0.080842	1.000000	0.000023	0.000018	0.000048	-45.952174	-84.411720	47.526163
58695	9.899943	-0.710877	0.680780	-0.006531	-0.014408	0.136053	1.000000	0.000029	0.000032	0.000039	-45.946513	-84.411131	47.520477
58696	9.881483	-0.697730	0.655680	0.016931	-0.001910	0.115060	1.000000	0.000033	0.000023	0.000048	-45.955816	-84.410646	47.533090
58697	9.864435	-0.678937	0.678985	-0.008021	0.015115	0.098355	1.000000	0.000026	0.000025	0.000040	-45.956779	-84.410585	47.533733
58698	9.898155	-0.681745	0.654192	0.018998	0.015304	0.130432	1.000000	0.000026	0.000025	0.000032	-45.951896	-84.411228	47.526341
58699	9.899575	-0.713871	0.683006	-0.008625	-0.017415	0.136047	1.000000	0.000029	0.000032	0.000039	-45.946240	-84.410639	47.520660
58700	9.881128	-0.700645	0.657918	0.014858	-0.004905	0.115062	1.000000	0.000026	0.000025	0.000040	-45.947377	-84.410551	47.518550
58701	9.864085	-0.681679	0.681323	-0.010085	0.012132	0.098357	1.000000	0.000022	0.000034	0.000031	-45.933684	-84.410470	47.503963
58702	9.880957	-0.701984	0.659064	0.013829	-0.006407	0.115063	1.000000	0.000030	0.000015	0.000040	-45.942789	-84.411112	47.510018
58703	9.881581	-0.699830	0.683639	-0.010902	-0.004888	0.117198	1.000000	0.000030	0.000015	0.000032	-45.945881	-84.412498	47.513276
58704	9.864643	-0.717978	0.686669	-0.014537	-0.024357	0.101817	1.000000	0.000029	0.000032	0.000039	-45.939983	-84.412002	47.510479
58705	9.879922	-0.669792	0.656516	0.015176	0.025555	0.111607	1.000000	0.000026	0.000025	0.000040	-45.940950	-84.411940	47.511126
58706	9.880616	-0.704912	0.661041	0.011737	-0.009427	0.115063	1.000000	0.000026	0.000025	0.000048	-45.948795	-84.411228	47.520389
58707	9.880529	-0.705578	0.661638	0.011219	-0.010178	0.115063	1.000000	0.000029	0.000031	0.000023	-45.930607	-84.412066	47.502090
58708	9.879745	-0.709164	0.638002	0.034904	-0.013202	0.112933	1.000000	0.000026	0.000026	0.000056	-45.944652	-84.410620	47.516681
58709	9.847213	-0.702036	0.712404	-0.041563	-0.010291	0.085098	1.000000	0.000046	0.000032	0.000023	-45.923401	-84.411342	47.497265
58710	9.879566	-0.710470	0.639322	0.033861	-0.014705	0.112934	1.000000	0.000029	0.000032	0.000039	-45.918173	-84.410770	47.491479
58711	9.897718	-0.688063	0.685778	-0.011975	0.007794	0.132580	1.000000	0.000030	0.000015	0.000041	-45.927541	-84.411441	47.501055
58712	9.879303	-0.674923	0.660577	0.011522	0.020311	0.111624	1.000000	0.000029	0.000033	0.000048	-45.929046	-84.410135	47.501243
58713	9.863105	-0.727498	0.667670	0.004970	-0.033362	0.099665	1.000000	0.000040	0.000019	0.000040	-45.933576	-84.410484	47.507103
58714	9.879127	-0.676590	0.661503	0.010462	0.018809	0.111628	1.000000	0.000013	0.000014	0.000049	-45.953371	-84.410667	47.529441
58715	9.879808	-0.711554	0.665989	0.007021	-0.016173	0.115059	1.000000	0.000029	0.000031	0.000023	-45.935196	-84.411505	47.511155
58716	9.879666	-0.674921	0.686662	-0.014790	0.019594	0.113753	1.000000	0.000044	0.000009	0.000033	-45.942255	-84.413315	47.519265
58717	9.863473	-0.727251	0.693679	-0.021348	-0.034073	0.101776	1.000000	0.000022	0.000034	0.000031	-45.928561	-84.413233	47.504678
58718	9.861200	-0.662208	0.661959	0.008215	0.031352	0.092812	1.000000	0.000023	0.000018	0.000040	-45.935962	-84.413708	47.510451
58719	9.879485	-0.714065	0.668087	0.004942	-0.019177	0.115055	1.000000	0.000025	0.000042	0.000039	-45.921919	-84.412383	47.495855
58720	9.895583	-0.700198	0.642068	0.031735	-0.003530	0.128343	1.000000	0.000036	0.000029	0.000040	-45.918995	-84.412043	47.494728
58721	9.879221	-0.678401	0.689629	-0.017385	0.015848	0.113756	1.000000	0.000026	0.000025	0.000040	-45.919977	-84.411980	47.495390
58722	9.878461	-0.682017	0.665850	0.006298	0.012816	0.111641	1.000000	0.000023	0.000018	0.000040	-45.928584	-84.412469	47.503669
58723	9.860827	-0.702920	0.644662	0.026882	-0.008905	0.094118	1.000000	0.000029	0.000031	0.000023	-45.910407	-84.413306	47.485382
58724	9.878967	-0.680492	0.691207	-0.018940	0.013611	0.113756	1.000000	0.000026	0.000026	0.000056	-45.923650	-84.411776	47.494970
58725	9.879620	-0.715624	0.695532	-0.022407	-0.021370	0.117157	1.000000	0.000025	0.000000	0.000033	-45.940012	-84.414216	47.510904
58726	9.861249	-0.702329	0.670250	0.001122	-0.008849	0.096230	1.000000	0.000025	0.000042	0.000039	-45.926500	-84.412863	47.494398
58727	9.860430	-0.668704	0.666885	0.003561	0.024634	0.092834	1.000000	0.000033	0.000022	0.000032	-45.923001	-84.413719	47.491361
58728	9.878678	-0.720569	0.673024	0.000235	-0.025905	0.115041	1.000000	0.000022	0.000035	0.000047	-45.922524	-84.412244	47.490643
58729	9.878532	-0.684173	0.693778	-0.021537	0.009879	0.113755	1.000000	0.000023	0.000017	0.000032	-45.923862	-84.413422	47.491321
58730	9.877777	-0.687791	0.670049	0.002158	0.006830	0.111649	1.000000	0.000036	0.000030	0.000048	-45.926497	-84.412311	47.493144
58731	9.877688	-0.688532	0.670604	0.001642	0.006080	0.111650	1.000000	0.000033	0.000022	0.000032	-45.923005	-84.413167	47.490114
58732	9.876941	-0.692158	0.646780	0.025332	0.003027	0.109547	1.000000	0.000031	0.000016	0.000049	-45.939173	-84.413129	47.505779
58733	9.912025	-0.689445	0.670528	0.003869	0.007680	0.145883	1.000000	0.000022	0.000034	0.000031	-45.925487	-84.413046	47.491201
58734	9.878097	-0.687827	0.696354	-0.024148	0.006141	0.113752	1.000000	0.000040	0.000019	0.000040	-45.930781	-84.413476	47.500536
58735	9.875976	-0.660125	0.644323	0.026736	0.035004	0.106177	1.000000	0.000026	0.000025	0.000048	-45.938044	-84.412696	47.507521
58736	9.894851	-0.709211	0.674661	-0.000828	-0.013238	0.130453	1.000000	0.000026	0.000025	0.000040	-45.939270	-84.412632	47.507130
58737	9.877165	-0.693035	0.673667	-0.001488	0.001584	0.111651	1.000000	0.000026	0.000025	0.000032	-45.933997	-84.413282	47.501495
58738	9.877077	-0.693700	0.674264	-0.002007	0.000834	0.111651	1.000000	0.000029	0.000032	0.000039	-45.928457	-84.412699	47.494891
58739	9.877638	-0.691558	0.699172	-0.026737	0.002400	0.113747	1.000000	0.000029	0.000032	0.000039	-45.922835	-84.412106	47.489246
58740	9.860634	-0.709730	0.702305	-0.030389	-0.017005	0.098308	1.000000	0.000026	0.000025	0.000040	-45.924398	-84.412103	47.492242
58741	9.878139	-0.727419	0.704275	-0.030773	-0.033332	0.117102	1.000000	0.000031	0.000016	0.000049	-45.940075	-84.412056	47.508170
58742	9.858452	-0.682798	0.650816	0.019982	0.011086	0.090763	1.000000	0.000025	0.000041	0.000031	-45.919857	-84.411521	47.489528
58743	9.894209	-0.714205	0.678801	-0.004486	-0.018509	0.130444	1.000000	0.000026	0.000025	0.000032	-45.914590	-84.412170	47.483898
58744	9.893444	-0.680600	0.675285	-0.002011	0.014972	0.127093	1.000000	0.000019	0.000028	0.000040	-45.913658	-84.411902	47.480613
58745	9.841926	-0.699416	0.679348	-0.008897	-0.007490	0.077412	1.000000	0.000033	0.000023	0.000048	-45.922723	-84.411327	47.490224
58746	9.893278	-0.719437	0.656169	0.018155	-0.023089	0.128351	1.000000	0.000026	0.000025	0.000040	-45.924407	-84.411336	47.494008
58747	9.858657	-0.683570	0.677926	-0.006824	0.009659	0.092858	1.000000	0.000029	0.000032	0.000039	-45.918797	-84.410743	47.488375
58748	9.910659	-0.700625	0.679078	-0.003974	-0.003626	0.145885	1.000000	0.000026	0.000025	0.000040	-45.919671	-84.410681	47.487820
58749	9.875411	-0.667574	0.676423	-0.004731	0.026804	0.108310	1.000000	0.000030	0.000015	0.000032	-45.922822	-84.412064	47.491137
58750	9.876000	-0.702534	0.680858	-0.008246	-0.008180	0.111645	1.000000	0.000023	0.000018	0.000040	-45.930127	-84.412502	47.495306
58751	9.857681	-0.689315	0.655608	0.015335	0.004333	0.090776	1.000000	0.000029	0.000032	0.000039	-45.924516	-84.411908	47.489672
58752	9.892094	-0.689511	0.655273	0.015568	0.007606	0.125021	1.000000	0.000036	0.000029	0.000040	-46.069638	-84.417028	47.598154
58753	9.858789	-0.722177	0.685174	-0.015434	-0.028067	0.096183	1.000000	0.000019	0.000028	0.000040	-46.069249	-84.416772	47.596626
58754	9.874989	-0.671168	0.679010	-0.009803	0.024056	0.108314	1.000000	0.000030	0.000015	0.000032	-46.073522	-84.418213	47.604499
58755	9.875568	-0.706038	0.683498	-0.013365	-0.010922	0.111637	1.000000	0.000033	0.000022	0.000032	-46.070491	-84.419084	47.601937
58756	9.893060	-0.686399	0.705699	-0.034977	0.009318	0.129167	1.000000	0.000026	0.000025	0.000040	-46.072325	-84.419049	47.603980
58757	9.840880	-0.707885	0.685694	-0.017644	-0.015444	0.077391	1.000000	0.000042	0.000043	0.000031	-46.049381	-84.418341	47.582398
58758	9.892228	-0.690690	0.682813	-0.011803	0.005476	0.127096	1.000000	0.000030	0.000016	0.000049	-46.065166	-84.418241	47.593372
58759	9.856986	-0.695040	0.659998	0.008665	-0.000654	0.090785	1.000000	0.000026	0.000025	0.000048	-46.072841	-84.417473	47.600775
58760	9.891402	-0.695351	0.659539	0.011361	0.001619	0.125029	1.000000	0.000033	0.000022	0.000040	-46.075884	-84.417630	47.604636
58761	9.891958	-0.693197	0.684183	-0.013376	0.003230	0.127095	1.000000	0.000030	0.000015	0.000041	-46.085754	-84.418309	47.614720
58762	9.874303	-0.714181	0.662918	0.007175	-0.018506	0.109559	1.000000	0.000026	0.000025	0.000032	-46.080786	-84.418990	47.610387
58763	9.856645	-0.698138	0.661813	0.006573	-0.003645	0.090786	1.000000	0.000024	0.000019	0.000057	-46.101353	-84.418029	47.630428
58764	9.891696	-0.695461	0.685681	-0.014953	0.000986	0.127093	1.000000	0.000032	0.000038	0.000023	-46.077118	-84.418355	47.605949
58765	9.873385	-0.719339	0.640518	0.029809	-0.023112	0.107495	1.000000	0.000022	0.000035	0.000047	-46.076346	-84.416855	47.604379
58766	9.873934	-0.680059	0.685478	-0.016075	0.015104	0.108323	1.000000	0.000033	0.000022	0.000040	-46.079602	-84.417011	47.608538
58767	9.856269	-0.701028	0.664355	0.004477	-0.006627	0.090786	1.000000	0.000029	0.000032	0.000031	-46.068138	-84.417150	47.597017
58768	9.890091	-0.666836	0.659852	0.010231	0.029860	0.121746	1.000000	0.000033	0.000022	0.000032	-46.065004	-84.418000	47.592928
58769	9.890624	-0.701701	0.664465	0.006635	-0.005121	0.125032	1.000000	0.000026	0.000025	0.000032	-46.060176	-84.418664	47.587745
58770	9.856025	-0.702864	0.666039	0.002907	-0.008861	0.090785	1.000000	0.000022	0.000035	0.000039	-46.053306	-84.417874	47.578620
58771	9.873523	-0.683324	0.688143	-0.018689	0.011379	0.108324	1.000000	0.000018	0.000004	0.000041	-46.074648	-84.419399	47.598755
58772	9.889778	-0.669638	0.661692	0.008132	0.026867	0.121757	1.000000	0.000026	0.000025	0.000040	-46.076184	-84.419374	47.602128
58773	9.872726	-0.687930	0.664720	0.004470	0.007509	0.106271	1.000000	0.000041	0.000020	0.000057	-46.093754	-84.418296	47.621118
58774	9.889558	-0.708588	0.642614	0.028216	-0.011245	0.122980	1.000000	0.000012	0.000030	0.000031	-46.084951	-84.418558	47.610462
58775	9.856210	-0.703886	0.692569	-0.023925	-0.010220	0.092831	1.000000	0.000033	0.000022	0.000040	-46.088201	-84.418709	47.614224
58776	9.906979	-0.689630	0.665337	0.006098	0.008241	0.140523	1.000000	0.000033	0.000022	0.000032	-46.084999	-84.419556	47.609941
58777	9.890560	-0.704740	0.692560	-0.021779	-0.008732	0.127077	1.000000	0.000040	0.000019	0.000040	-46.090070	-84.419912	47.616349
58778	9.855333	-0.708976	0.669785	-0.001281	-0.014840	0.090778	1.000000	0.000019	0.000028	0.000048	-46.095682	-84.418960	47.622733
58779	9.838313	-0.689789	0.693132	-0.026062	0.002429	0.074069	1.000000	0.000049	0.000039	0.000023	-46.068332	-84.419174	47.597531
58780	9.854596	-0.675856	0.666809	0.000772	0.017907	0.087522	1.000000	0.000025	0.000000	0.000033	-46.085219	-84.421583	47.610920
58781	9.872725	-0.653287	0.713156	-0.045030	0.040533	0.107111	1.000000	0.000032	0.000039	0.000039	-46.073372	-84.420478	47.599356
58782	9.905802	-0.733941	0.624341	0.048261	-0.035266	0.139690	1.000000	0.000029	0.000033	0.000048	-46.074832	-84.419210	47.602998
58783	9.941537	-0.654115	0.712601	-0.039725	0.044960	0.175617	1.000000	-0.000008	0.000023	0.000048	-46.088516	-84.418670	47.612516
58784	9.785717	-0.751329	0.655039	0.010325	-0.061847	0.023466	1.000000	0.000070	0.000031	0.000024	-46.066123	-84.419487	47.594015
58785	9.888088	-0.644847	0.664732	0.004444	0.051363	0.118542	1.000000	0.000029	0.000033	0.000048	-46.067178	-84.418189	47.595098
58786	9.887841	-0.757240	0.605032	0.067219	-0.059262	0.122142	1.000000	0.000047	0.000016	0.000033	-46.068119	-84.419491	47.599437
58787	10.046003	-0.612959	0.780234	-0.101827	0.092212	0.281261	1.000000	-0.000070	-0.000007	0.000090	-46.148581	-84.417810	47.668903
58788	9.750906	-0.717622	0.677878	-0.016034	-0.031134	-0.012001	1.000000	0.000163	0.000055	-0.000035	-46.047383	-84.421499	47.581603
58789	9.784053	-0.760677	0.609271	0.056132	-0.070351	0.019375	1.000000	-0.000066	0.000024	0.000080	-46.093223	-84.418232	47.616774
58790	9.853070	-0.686438	0.648351	0.019769	0.008047	0.085498	1.000000	0.000072	0.000055	0.000030	-46.055662	-84.416525	47.581692
58791	9.958730	-0.786018	0.682821	-0.004832	-0.084193	0.199968	1.000000	-0.000060	-0.000004	0.000074	-46.118770	-84.415960	47.634843
58792	9.957718	-0.643733	0.714856	-0.041298	0.056793	0.191144	1.000000	0.000108	0.000022	-0.000000	-46.081144	-84.419455	47.607516
58793	9.803040	-0.771848	0.685387	-0.018578	-0.081768	0.044192	1.000000	0.000008	-0.000000	0.000041	-46.107328	-84.421296	47.631368
58794	9.784425	-0.649700	0.696202	-0.033949	0.038241	0.017835	1.000000	0.000108	0.000065	0.000022	-46.050871	-84.419620	47.586372
58795	9.835499	-0.781872	0.613541	0.056165	-0.087542	0.072351	1.000000	-0.000053	0.000035	0.000088	-46.091466	-84.414787	47.617762
58796	10.025813	-0.611738	0.711683	-0.033972	0.093861	0.256457	1.000000	0.000042	0.000043	0.000031	-46.069229	-84.414111	47.599953
58797	9.852298	-0.766118	0.612094	0.058247	-0.070454	0.087869	1.000000	0.000067	-0.000018	0.000018	-46.084627	-84.419218	47.619789
58798	9.869924	-0.709026	0.654037	0.015588	-0.013583	0.104240	1.000000	0.000005	0.000033	0.000031	-46.073764	-84.419217	47.602762
58799	9.871049	-0.703614	0.703028	-0.033358	-0.009513	0.108287	1.000000	0.000040	0.000018	0.000024	-46.066364	-84.421006	47.596616
58800	9.836535	-0.667276	0.724636	-0.058106	0.023484	0.072850	1.000000	0.000042	0.000043	0.000031	-46.043859	-84.420264	47.574400
58801	9.919984	-0.698938	0.604162	0.068730	0.000840	0.149988	1.000000	0.000022	0.000035	0.000047	-46.043101	-84.418759	47.572845
58802	9.852214	-0.620273	0.695082	-0.028639	0.072400	0.083168	1.000000	0.000016	0.000021	0.000048	-46.055667	-84.418271	47.581945
58803	9.955514	-0.694216	0.652667	0.022407	0.007067	0.188294	1.000000	0.000037	0.000011	0.000024	-46.054907	-84.420586	47.582141
58804	9.836101	-0.707342	0.706696	-0.039137	-0.016120	0.074013	1.000000	0.000016	0.000020	0.000032	-46.055595	-84.421593	47.583541
58805	9.905047	-0.707045	0.705518	-0.033373	-0.011067	0.142532	1.000000	0.000032	0.000038	0.000023	-46.031257	-84.421921	47.559406
58806	9.835340	-0.711380	0.683767	-0.015985	-0.020019	0.071990	1.000000	0.000043	0.000026	0.000040	-46.030419	-84.421781	47.564232
58807	9.903178	-0.680033	0.654218	0.017136	0.016840	0.135318	1.000000	0.000022	0.000035	0.000039	-46.023408	-84.420993	47.556383
58808	9.886762	-0.657905	0.701568	-0.031811	0.036598	0.120628	1.000000	0.000023	0.000018	0.000040	-46.031884	-84.421493	47.567058
58809	9.903598	-0.678489	0.679500	-0.008133	0.017759	0.137334	1.000000	0.000036	0.000029	0.000032	-46.022280	-84.421833	47.558225
58810	9.869492	-0.713806	0.685134	-0.014949	-0.020108	0.106243	1.000000	0.000033	0.000022	0.000040	-46.025510	-84.421970	47.561521
58811	9.833799	-0.683809	0.658179	0.008763	0.008079	0.066799	1.000000	0.000029	0.000033	0.000056	-46.032853	-84.419951	47.568933
58812	9.886308	-0.698132	0.683738	-0.012863	-0.003045	0.121788	1.000000	0.000040	0.000018	0.000024	-46.025896	-84.421786	47.567455
58813	9.834210	-0.682230	0.683526	-0.016501	0.009011	0.068809	1.000000	0.000022	0.000035	0.000047	-46.025147	-84.420280	47.565910
58814	9.902546	-0.685374	0.658206	0.013458	0.011594	0.135331	1.000000	0.000019	0.000028	0.000048	-46.030581	-84.419232	47.566499
58815	9.868048	-0.649254	0.679649	-0.011234	0.044636	0.099916	1.000000	0.000026	0.000025	0.000032	-46.025788	-84.419892	47.561352
58816	9.850848	-0.704411	0.662673	0.006134	-0.011328	0.085513	1.000000	0.000033	0.000022	0.000032	-46.022729	-84.420775	47.559850
58817	9.834315	-0.719580	0.689903	-0.021748	-0.028196	0.071959	1.000000	0.000016	0.000022	0.000057	-46.041507	-84.419602	47.577274
58818	9.868259	-0.685861	0.685334	-0.015969	0.008163	0.103073	1.000000	0.000043	0.000026	0.000040	-46.039921	-84.419392	47.575485
58819	9.850570	-0.706827	0.664226	0.004568	-0.013562	0.085511	1.000000	0.000019	0.000027	0.000031	-46.033294	-84.419847	47.567681
58820	9.884999	-0.707228	0.663817	0.007151	-0.011454	0.119777	1.000000	0.000030	0.000016	0.000049	-46.049897	-84.419863	47.588850
58821	9.903090	-0.684774	0.710162	-0.038646	0.011208	0.139339	1.000000	0.000026	0.000025	0.000040	-46.051366	-84.419805	47.590007
58822	9.867222	-0.729042	0.643083	0.027162	-0.033928	0.102213	1.000000	0.000033	0.000022	0.000032	-46.048396	-84.420669	47.587798
58823	9.867269	-0.692469	0.663463	0.005611	0.001995	0.101074	1.000000	0.000013	0.000014	0.000041	-46.061301	-84.421456	47.598966
58824	9.884660	-0.710269	0.665610	0.005053	-0.014446	0.119774	1.000000	0.000036	0.000030	0.000048	-46.064111	-84.420341	47.602084
58825	9.902163	-0.690878	0.687879	-0.016533	0.005783	0.137338	1.000000	0.000026	0.000026	0.000048	-46.071835	-84.419563	47.609537
58826	9.883895	-0.714931	0.642486	0.028213	-0.018386	0.117779	1.000000	0.000033	0.000022	0.000032	-46.068652	-84.420444	47.607641
58827	9.867474	-0.692550	0.689907	-0.020689	0.001444	0.103068	1.000000	0.000025	0.000041	0.000031	-46.048757	-84.419849	47.587168
58828	9.850344	-0.710591	0.693006	-0.024359	-0.017838	0.087493	1.000000	0.000045	0.000010	0.000049	-46.068384	-84.420194	47.608071
58829	9.884202	-0.714009	0.668416	0.002431	-0.018193	0.119769	1.000000	0.000022	0.000034	0.000031	-46.055125	-84.420124	47.593935
58830	9.848593	-0.683829	0.641407	0.026216	0.010021	0.080392	1.000000	0.000033	0.000023	0.000048	-46.064503	-84.419543	47.603959
58831	9.900494	-0.701222	0.642761	0.028743	-0.003604	0.133357	1.000000	0.000026	0.000025	0.000032	-46.059727	-84.420202	47.598831
58832	9.882945	-0.684840	0.641632	0.028267	0.011355	0.114667	1.000000	0.000036	0.000029	0.000032	-46.050401	-84.420544	47.591344
58833	9.883285	-0.719770	0.646452	0.024537	-0.023631	0.117777	1.000000	0.000026	0.000025	0.000040	-46.051879	-84.420484	47.592510
58834	9.883336	-0.683246	0.667005	0.003000	0.012304	0.116657	1.000000	0.000036	0.000029	0.000040	-46.048887	-84.420145	47.593409
58835	9.848172	-0.687327	0.644132	0.023593	0.006292	0.080402	1.000000	0.000023	0.000018	0.000040	-46.057003	-84.420610	47.600913
58836	9.865704	-0.667698	0.666307	0.002004	0.026521	0.097973	1.000000	0.000036	0.000029	0.000032	-46.047798	-84.420973	47.594642
58837	9.866032	-0.702709	0.671043	-0.001730	-0.008462	0.101072	1.000000	0.000030	0.000016	0.000049	-46.064018	-84.420923	47.611115
58838	9.865944	-0.703375	0.671640	-0.002248	-0.009209	0.101071	1.000000	0.000025	0.000041	0.000022	-46.037589	-84.421024	47.582773
58839	9.899260	-0.709689	0.622957	0.048734	-0.012059	0.131385	1.000000	0.000030	0.000015	0.000041	-46.047557	-84.421694	47.592952
58840	9.918471	-0.681113	0.717632	-0.045493	0.015520	0.154894	1.000000	0.000006	0.000017	0.000040	-46.058992	-84.422346	47.606092
58841	9.710907	-0.649073	0.718942	-0.061300	0.032216	-0.053841	1.000000	0.000073	0.000037	0.000007	-46.018147	-84.424083	47.570095
58842	9.759535	-0.793130	0.539947	0.125217	-0.103803	-0.007451	1.000000	0.000075	0.000063	0.000046	-45.986460	-84.420432	47.542791
58843	10.038339	-0.631040	0.710886	-0.031447	0.074408	0.270233	1.000000	-0.000107	0.000026	0.000104	-46.054808	-84.415027	47.595862
58844	10.074089	-0.587874	0.778505	-0.098294	0.118049	0.307359	1.000000	0.000172	-0.000024	-0.000054	-46.004526	-84.426640	47.561646
58845	9.745048	-0.906501	0.629055	0.038183	-0.219893	-0.007913	1.000000	-0.000118	0.000039	0.000103	-46.062562	-84.420298	47.603058
58846	9.918754	-0.498869	0.820833	-0.153532	0.194518	0.149386	1.000000	0.000128	0.000030	-0.000008	-46.008895	-84.423857	47.560886
58847	9.793439	-0.834012	0.521523	0.146652	-0.141456	0.027917	1.000000	-0.000018	0.000020	0.000073	-46.046060	-84.421474	47.592878
58848	9.813021	-0.585170	0.712066	-0.049197	0.103902	0.042850	1.000000	0.000031	0.000057	0.000054	-46.031537	-84.417663	47.578388
58849	10.018427	-0.811437	0.563794	0.118754	-0.102858	0.253121	1.000000	-0.000012	-0.000007	0.000066	-46.086014	-84.417981	47.628398
58850	9.867363	-0.517124	0.850382	-0.186002	0.172749	0.101493	1.000000	0.000081	0.000017	0.000017	-46.068047	-84.420413	47.613751
58851	9.828812	-0.793970	0.591092	0.078227	-0.100046	0.065025	1.000000	0.000053	0.000030	0.000032	-46.055580	-84.420634	47.604006
58852	9.743659	-0.588933	0.715576	-0.057383	0.095410	-0.025687	1.000000	-0.000026	0.000040	0.000063	-46.069862	-84.417536	47.614274
58853	9.949215	-0.777658	0.587454	0.089514	-0.074740	0.183468	1.000000	0.000074	0.000021	0.000024	-46.056724	-84.419090	47.606290
58854	9.846310	-0.630125	0.669954	-0.004050	0.063051	0.076283	1.000000	-0.000013	0.000010	0.000065	-46.096110	-84.418153	47.641270
58855	9.965952	-0.690478	0.601244	0.073895	0.013192	0.194951	1.000000	0.000074	0.000020	0.000016	-46.076738	-84.420427	47.627011
58856	9.899388	-0.713710	0.704305	-0.032835	-0.017427	0.137284	1.000000	-0.000024	0.000005	0.000049	-46.108000	-84.421247	47.651719
58857	9.898965	-0.679960	0.700481	-0.030107	0.016064	0.134239	1.000000	0.000090	0.000038	0.000007	-46.064316	-84.422872	47.614836
58858	9.794052	-0.724763	0.635179	0.029580	-0.034615	0.028558	1.000000	-0.000025	0.000023	0.000064	-46.092658	-84.420987	47.635622
58859	9.898592	-0.610148	0.717492	-0.048834	0.085519	0.130124	1.000000	0.000045	0.000051	0.000047	-46.075715	-84.418310	47.620436
58860	9.863552	-0.794516	0.643603	0.028114	-0.099081	0.103186	1.000000	0.000006	0.000016	0.000024	-46.074527	-84.420323	47.616870
58861	9.897834	-0.723399	0.658951	0.012955	-0.026128	0.133356	1.000000	0.000022	0.000035	0.000048	-46.073780	-84.418812	47.615330
58862	9.914838	-0.706913	0.656840	0.015575	-0.008380	0.148982	1.000000	0.000034	0.000005	0.000033	-46.086833	-84.420937	47.630935
58863	9.810674	-0.711349	0.635462	0.030115	-0.019828	0.044181	1.000000	0.000039	0.000036	0.000039	-46.076923	-84.420029	47.622140
58864	9.863589	-0.722762	0.685509	-0.015892	-0.028623	0.101021	1.000000	0.000026	0.000025	0.000040	-46.078411	-84.419984	47.624084
58865	9.862093	-0.695348	0.633418	0.035271	-0.000100	0.094096	1.000000	0.000039	0.000036	0.000039	-46.068506	-84.419076	47.615295
58866	9.931563	-0.692578	0.656733	0.016624	0.007103	0.164616	1.000000	0.000019	0.000028	0.000040	-46.068370	-84.418784	47.613457
58867	9.896421	-0.696701	0.633840	0.037265	0.001136	0.128384	1.000000	0.000033	0.000023	0.000049	-46.077986	-84.418205	47.623625
58868	9.913763	-0.714475	0.635971	0.036617	-0.015372	0.147034	1.000000	0.000044	0.000009	0.000033	-46.085633	-84.420013	47.633877
58869	9.861439	-0.664018	0.631098	0.036454	0.031152	0.091094	1.000000	0.000036	0.000029	0.000032	-46.076120	-84.420349	47.625139
58870	9.896183	-0.698696	0.635352	0.035677	-0.001109	0.128390	1.000000	0.000056	0.000038	0.000040	-46.063983	-84.419331	47.617219
58871	9.861471	-0.628082	0.652399	0.014477	0.066394	0.090044	1.000000	0.000019	0.000028	0.000040	-46.063626	-84.419063	47.615728
58872	9.896524	-0.697044	0.660890	0.010423	-0.000118	0.130337	1.000000	0.000029	0.000032	0.000031	-46.051992	-84.419180	47.602678
58873	9.878728	-0.646365	0.655308	0.013316	0.049136	0.108698	1.000000	0.000023	0.000017	0.000032	-46.053885	-84.420361	47.603919
58874	9.862157	-0.732698	0.667058	0.003052	-0.038571	0.099046	1.000000	0.000022	0.000034	0.000031	-46.040372	-84.420326	47.590273
58875	9.862800	-0.693065	0.711808	-0.042598	-0.000083	0.099932	1.000000	0.000019	0.000028	0.000048	-46.046268	-84.419338	47.595074
58876	9.862158	-0.697117	0.688305	-0.018914	-0.003329	0.097990	1.000000	0.000032	0.000040	0.000056	-46.046968	-84.416799	47.596299
58877	9.879167	-0.680892	0.686205	-0.016277	0.014395	0.113640	1.000000	0.000025	0.000002	0.000050	-46.076488	-84.417793	47.625466
58878	9.878569	-0.684641	0.662443	0.007408	0.011147	0.111703	1.000000	0.000025	0.000041	0.000022	-46.050352	-84.417909	47.598191
58879	9.879289	-0.716407	0.691705	-0.020625	-0.021336	0.116621	1.000000	0.000019	0.000028	0.000040	-46.050001	-84.417641	47.596704
58880	9.843886	-0.686099	0.664369	0.003333	0.006967	0.077416	1.000000	0.000030	0.000015	0.000033	-46.054423	-84.419035	47.602537
58881	9.879128	-0.717764	0.692592	-0.021686	-0.022824	0.116615	1.000000	0.000026	0.000025	0.000040	-46.055940	-84.418971	47.603744
58882	9.861120	-0.704466	0.667232	0.002128	-0.010300	0.096048	1.000000	0.000039	0.000036	0.000031	-46.040478	-84.418842	47.592662
58883	9.877630	-0.691063	0.641093	0.028973	0.004908	0.109776	1.000000	0.000033	0.000023	0.000049	-46.050116	-84.418261	47.602853
58884	9.878544	-0.685895	0.690187	-0.019963	0.009174	0.113639	1.000000	0.000032	0.000040	0.000056	-46.050639	-84.415697	47.602819
58885	9.895840	-0.703759	0.692569	-0.020638	-0.007354	0.132266	1.000000	0.000030	0.000015	0.000033	-46.054414	-84.417081	47.606765
58886	9.826202	-0.707945	0.670389	-0.002972	-0.015956	0.061754	1.000000	0.000022	0.000035	0.000048	-46.053816	-84.415533	47.604243
58887	9.861650	-0.702361	0.718596	-0.048903	-0.009002	0.099899	1.000000	0.000030	0.000015	0.000033	-46.057594	-84.416916	47.608192
58888	9.860047	-0.712292	0.646314	0.023193	-0.017287	0.094117	1.000000	0.000023	0.000018	0.000040	-46.065866	-84.417389	47.616521
58889	9.895502	-0.706725	0.694382	-0.022743	-0.010339	0.132259	1.000000	0.000023	0.000018	0.000040	-46.074022	-84.417848	47.624064
58890	9.843259	-0.728038	0.673812	-0.005221	-0.034719	0.080370	1.000000	0.000013	0.000014	0.000049	-46.092860	-84.417887	47.639920
58891	9.894826	-0.711351	0.670993	0.000419	-0.014352	0.130332	1.000000	0.000029	0.000031	0.000023	-46.075267	-84.418738	47.622239
58892	9.859467	-0.680937	0.643755	0.024419	0.013960	0.091170	1.000000	0.000026	0.000025	0.000040	-46.077218	-84.418721	47.626399
58893	9.894653	-0.712697	0.672119	-0.000644	-0.015851	0.130330	1.000000	0.000026	0.000025	0.000040	-46.078746	-84.418655	47.627617
58894	9.894564	-0.713452	0.672628	-0.001176	-0.016603	0.130328	1.000000	0.000033	0.000022	0.000040	-46.082321	-84.418831	47.633249
58895	9.894481	-0.714212	0.673042	-0.001702	-0.017352	0.130327	1.000000	0.000030	0.000015	0.000041	-46.092363	-84.419493	47.643501
58896	9.877028	-0.697849	0.671586	-0.002052	-0.002305	0.111711	1.000000	0.000023	0.000017	0.000032	-46.094049	-84.420656	47.643605
58897	9.876716	-0.664190	0.667687	0.000762	0.031187	0.108779	1.000000	0.000043	0.000026	0.000032	-46.086456	-84.421194	47.637612
58898	9.859496	-0.681962	0.670831	-0.002930	0.011997	0.093098	1.000000	0.000036	0.000029	0.000032	-46.077093	-84.421558	47.630207
58899	9.893433	-0.685504	0.646479	0.023742	0.011364	0.125481	1.000000	0.000019	0.000027	0.000032	-46.070498	-84.422009	47.622438
58900	9.875976	-0.669129	0.645204	0.023389	0.026410	0.106873	1.000000	0.000026	0.000025	0.000040	-46.072103	-84.421994	47.625538
58901	9.876624	-0.701132	0.674091	-0.004686	-0.006050	0.111709	1.000000	0.000025	0.000002	0.000050	-46.101680	-84.422982	47.654760
58902	9.893698	-0.684627	0.671896	-0.002041	0.011640	0.127398	1.000000	0.000029	0.000031	0.000023	-46.083934	-84.423810	47.635786
58903	9.858602	-0.688448	0.649002	0.018661	0.005732	0.091191	1.000000	0.000026	0.000025	0.000040	-46.085469	-84.423743	47.637010
58904	9.893519	-0.686048	0.673096	-0.003113	0.010155	0.127399	1.000000	0.000029	0.000033	0.000048	-46.088093	-84.422463	47.643117
58905	9.876054	-0.669818	0.671847	-0.003449	0.025216	0.108796	1.000000	0.000033	0.000022	0.000040	-46.091515	-84.422599	47.647052
58906	10.389830	-0.693834	0.466877	0.234314	0.043504	0.608020	1.000000	0.000020	-0.000070	0.000063	-46.193126	-84.428192	47.748609
58907	9.660757	-0.025495	1.235452	-0.597830	0.637579	-0.112517	1.000000	0.000168	0.000306	-0.000068	-45.853022	-84.414627	47.422952
58908	8.811853	-1.296789	0.063002	0.554258	-0.661065	-0.947578	1.000000	-0.000520	-0.000109	0.000230	-46.184505	-84.409526	47.690568
58909	10.217153	-1.015194	0.441605	0.260190	-0.287741	0.456946	1.000000	0.000453	0.000114	-0.000083	-45.962306	-84.412567	47.516163
58910	10.822943	-0.751902	1.378416	-0.644723	-0.005622	1.104537	1.000000	-0.000056	-0.000334	0.000096	-46.323368	-84.436351	47.868899
58911	9.143450	-0.402762	0.384341	0.227685	0.246218	-0.658445	1.000000	0.000252	0.000490	-0.000021	-45.856230	-84.404357	47.425190
58912	10.172951	-0.522291	0.897935	-0.212167	0.187382	0.409244	1.000000	-0.000094	-0.000308	0.000011	-46.128444	-84.433175	47.684010
58913	9.425019	-0.757850	0.597898	0.043928	-0.093224	-0.338924	1.000000	-0.000025	0.000266	0.000114	-45.992294	-84.407869	47.541040
58914	10.284896	-0.775433	0.436972	0.262729	-0.044268	0.507212	1.000000	0.000075	-0.000078	0.000031	-46.068068	-84.416688	47.620595
58915	9.567901	-0.868931	0.831759	-0.176605	-0.198309	-0.173130	1.000000	-0.000040	0.000007	0.000098	-46.139840	-84.413282	47.684750
58916	10.028834	-0.882778	0.579029	0.106577	-0.172389	0.269525	1.000000	0.000127	0.000089	0.000013	-46.053764	-84.410396	47.609793
58917	10.017562	-0.507960	0.924888	-0.250626	0.191627	0.255354	1.000000	0.000052	-0.000093	0.000040	-46.152263	-84.419691	47.711412
58918	9.889299	-0.715977	0.535865	0.134807	-0.015619	0.116038	1.000000	0.000092	0.000104	0.000019	-46.062231	-84.414985	47.624952
58919	9.978678	-0.465673	0.724528	-0.054168	0.235628	0.200172	1.000000	-0.000042	0.000021	0.000048	-46.081427	-84.414659	47.636077
58920	9.563447	-0.685278	0.663475	-0.013627	-0.011753	-0.201808	1.000000	0.000063	0.000075	0.000021	-46.021227	-84.412218	47.578556
58921	9.943407	-0.753942	0.664912	0.011541	-0.052594	0.181260	1.000000	-0.000098	-0.000053	0.000085	-46.139213	-84.414680	47.682519
58922	9.838862	-0.760901	0.618507	0.050564	-0.066182	0.074567	1.000000	0.000151	0.000043	-0.000034	-46.052208	-84.419274	47.611382
58923	9.927575	-0.762436	0.740493	-0.065322	-0.064826	0.171195	1.000000	-0.000060	-0.000004	0.000065	-46.108529	-84.419395	47.657674
58924	9.911573	-0.524841	0.833547	-0.166283	0.168497	0.144898	1.000000	0.000110	0.000046	-0.000001	-46.049896	-84.421124	47.609657
58925	9.837878	-0.802687	0.576038	0.093992	-0.107782	0.073642	1.000000	-0.000038	0.000011	0.000048	-46.077616	-84.421525	47.629827
58926	9.838268	-0.694383	0.611731	0.055254	-0.000685	0.068854	1.000000	0.000052	0.000046	0.000023	-46.044086	-84.421200	47.598887
58927	9.822566	-0.737030	0.691986	-0.024461	-0.046386	0.061628	1.000000	0.000013	0.000014	0.000049	-46.063261	-84.421253	47.616360
58928	9.891081	-0.634862	0.677655	-0.008877	0.060709	0.121697	1.000000	0.000047	0.000015	0.000025	-46.057397	-84.423206	47.610714
58929	9.959431	-0.709935	0.637002	0.038071	-0.008539	0.192237	1.000000	0.000034	0.000004	0.000025	-46.063518	-84.426035	47.617487
58930	9.925927	-0.738654	0.690848	-0.017215	-0.040958	0.164533	1.000000	0.000009	0.000024	0.000048	-46.073938	-84.425374	47.625732
58931	9.992972	-0.752014	0.593408	0.084947	-0.046881	0.225626	1.000000	0.000059	0.000045	0.000048	-46.060881	-84.423098	47.616089
58932	9.770003	-0.655073	0.684270	-0.022942	0.031672	0.003054	1.000000	0.000050	0.000024	0.000049	-46.067984	-84.422435	47.627377
58933	9.959097	-0.607589	0.650139	0.021993	0.093724	0.185622	1.000000	0.000006	0.000018	0.000057	-46.091505	-84.421560	47.648413
58934	9.822013	-0.636303	0.706178	-0.042086	0.053703	0.054980	1.000000	0.000077	0.000027	0.000008	-46.059988	-84.424053	47.623702
58935	9.855200	-0.680347	0.637944	0.029520	0.013544	0.086492	1.000000	0.000019	0.000028	0.000040	-46.059646	-84.423778	47.622227
58936	9.839512	-0.617342	0.728885	-0.064140	0.073183	0.072600	1.000000	0.000006	0.000018	0.000057	-46.082541	-84.422874	47.640648
58937	9.924165	-0.716368	0.642148	0.030911	-0.017126	0.157936	1.000000	0.000025	0.000042	0.000039	-46.068929	-84.421552	47.626511
58938	9.871775	-0.703043	0.617400	0.051914	-0.007126	0.103191	1.000000	0.000026	0.000024	0.000024	-46.058493	-84.422911	47.616158
58939	9.837164	-0.703829	0.618663	0.048469	-0.010405	0.068884	1.000000	0.000029	0.000033	0.000056	-46.065911	-84.420872	47.623647
58940	9.976635	-0.589204	0.700165	-0.026904	0.111992	0.205166	1.000000	0.000022	0.000034	0.000031	-46.052756	-84.420802	47.609860
58941	9.854069	-0.653783	0.613092	0.054032	0.040723	0.081827	1.000000	0.000032	0.000038	0.000023	-46.028564	-84.421126	47.585890
58942	9.958789	-0.750880	0.673433	0.003549	-0.050020	0.196923	1.000000	-0.000021	0.000012	0.000057	-46.059249	-84.420648	47.609120
58943	9.803399	-0.769048	0.679030	-0.011818	-0.079224	0.043921	1.000000	0.000036	0.000029	0.000040	-46.056085	-84.420257	47.606774
58944	9.923266	-0.793064	0.631247	0.044534	-0.093460	0.161675	1.000000	0.000046	0.000033	0.000032	-46.042062	-84.420335	47.596514
58945	9.821023	-0.644095	0.712854	-0.047780	0.045555	0.054995	1.000000	0.000046	0.000033	0.000032	-46.027926	-84.420344	47.584285
58946	9.906733	-0.630847	0.685369	-0.015093	0.065625	0.137515	1.000000	0.000016	0.000021	0.000048	-46.040436	-84.419840	47.594616
58947	9.855462	-0.679907	0.717667	-0.049353	0.012345	0.092103	1.000000	0.000023	0.000018	0.000041	-46.048635	-84.420292	47.602201
58948	9.837881	-0.769500	0.705531	-0.035751	-0.077840	0.080061	1.000000	0.000022	0.000036	0.000048	-46.048173	-84.418780	47.601548
58949	9.923576	-0.756368	0.678164	-0.003087	-0.057801	0.162582	1.000000	0.000012	0.000031	0.000039	-46.045940	-84.418300	47.597360
58950	9.854792	-0.719806	0.699782	-0.030166	-0.026713	0.093024	1.000000	0.000043	0.000027	0.000049	-46.050630	-84.417349	47.602137
58951	9.854231	-0.723867	0.676265	-0.006486	-0.030052	0.091163	1.000000	0.000039	0.000037	0.000048	-46.047094	-84.415710	47.599762
58952	9.819524	-0.690538	0.673030	-0.006443	0.000952	0.054066	1.000000	0.000016	0.000021	0.000048	-46.059309	-84.415190	47.608822
58953	9.905703	-0.674190	0.669684	0.002012	0.023555	0.138464	1.000000	0.000050	0.000023	0.000032	-46.053731	-84.415927	47.605669
58954	9.870734	-0.712164	0.651146	0.019340	-0.016528	0.105070	1.000000	0.000043	0.000026	0.000032	-46.045604	-84.416457	47.597892
58955	9.854242	-0.689367	0.698147	-0.029307	0.003804	0.090233	1.000000	0.000009	0.000024	0.000040	-46.049994	-84.416500	47.600023
58956	9.905591	-0.744766	0.680155	-0.006500	-0.047188	0.144006	1.000000	0.000030	0.000016	0.000049	-46.066528	-84.416502	47.619158
58957	9.853262	-0.731391	0.655077	0.014574	-0.037138	0.089294	1.000000	0.000050	0.000022	0.000016	-46.048477	-84.418684	47.603456
58958	9.853514	-0.660167	0.670797	-0.003200	0.033205	0.085616	1.000000	0.000026	0.000024	0.000032	-46.043630	-84.419275	47.596406
58959	9.871599	-0.671610	0.721708	-0.052423	0.021789	0.107855	1.000000	0.000012	0.000031	0.000039	-46.041392	-84.418794	47.592213
58960	9.887535	-0.733188	0.656208	0.015885	-0.036902	0.123605	1.000000	0.000022	0.000034	0.000031	-46.028549	-84.418752	47.580217
58961	9.853796	-0.727467	0.705854	-0.035935	-0.034904	0.092979	1.000000	0.000026	0.000025	0.000040	-46.030130	-84.418678	47.581488
58962	9.888174	-0.693931	0.701331	-0.030096	0.001050	0.124540	1.000000	0.000029	0.000032	0.000031	-46.018520	-84.418835	47.570353
58963	9.905326	-0.677507	0.699297	-0.027439	0.018655	0.140323	1.000000	0.000023	0.000018	0.000041	-46.026728	-84.419285	47.577947
58964	9.853048	-0.698435	0.678820	-0.009812	-0.005515	0.088375	1.000000	0.000022	0.000034	0.000031	-46.013075	-84.419169	47.562003
58965	9.887085	-0.736736	0.659002	0.013258	-0.040656	0.123594	1.000000	0.000020	0.000012	0.000057	-46.040400	-84.418698	47.588485
58966	9.886135	-0.743877	0.611038	0.061133	-0.046639	0.119909	1.000000	0.000036	0.000028	0.000024	-46.024840	-84.419798	47.575246
58967	9.886848	-0.669536	0.651006	0.019182	0.026321	0.118112	1.000000	0.000043	0.000026	0.000032	-46.017374	-84.420330	47.569383
58968	9.887196	-0.667013	0.675755	-0.005563	0.028193	0.119955	1.000000	0.000026	0.000025	0.000040	-46.019884	-84.420300	47.574342
58969	9.886680	-0.670965	0.652085	0.018118	0.024829	0.118118	1.000000	0.000026	0.000025	0.000040	-46.021471	-84.420226	47.575620
58970	9.835257	-0.685565	0.679933	-0.012661	0.005911	0.069843	1.000000	0.000040	0.000019	0.000041	-46.026796	-84.420564	47.582381
58971	9.886097	-0.675503	0.628862	0.041276	0.020710	0.116288	1.000000	0.000043	0.000025	0.000024	-46.013089	-84.421818	47.570239
58972	9.904116	-0.652769	0.675205	-0.004477	0.043547	0.135760	1.000000	0.000040	0.000020	0.000057	-46.031497	-84.420701	47.590852
58973	9.886348	-0.673885	0.654103	0.016020	0.021838	0.118129	1.000000	0.000036	0.000029	0.000032	-46.022126	-84.421029	47.582263
58974	9.869011	-0.691640	0.657263	0.012303	0.002755	0.102330	1.000000	0.000019	0.000028	0.000040	-46.022327	-84.420778	47.582833
58975	9.869342	-0.689197	0.682040	-0.012424	0.004631	0.104163	1.000000	0.000019	0.000028	0.000040	-46.022003	-84.420499	47.581377
58976	9.886929	-0.669670	0.704231	-0.033951	0.024845	0.121797	1.000000	0.000026	0.000025	0.000040	-46.022929	-84.420368	47.579860
58977	9.903679	-0.690784	0.682581	-0.010598	0.005564	0.138485	1.000000	0.000012	0.000031	0.000039	-46.020689	-84.419885	47.575666
58978	9.868637	-0.694763	0.659581	0.010232	-0.000240	0.102333	1.000000	0.000019	0.000028	0.000048	-46.026076	-84.418870	47.578912
58979	9.886216	-0.709541	0.686385	-0.014826	-0.014268	0.122675	1.000000	0.000029	0.000032	0.000040	-46.021046	-84.418271	47.573878
58980	9.903386	-0.658902	0.679931	-0.008646	0.037560	0.135781	1.000000	0.000036	0.000029	0.000032	-46.011888	-84.418567	47.565213
58981	9.903286	-0.693962	0.685055	-0.012690	0.002571	0.138483	1.000000	0.000026	0.000026	0.000057	-46.025971	-84.417046	47.579063
58982	9.867825	-0.701217	0.637879	0.032346	-0.005859	0.100510	1.000000	0.000022	0.000035	0.000039	-46.018682	-84.416228	47.570326
58983	9.850866	-0.750047	0.669856	0.000907	-0.056536	0.089213	1.000000	0.000036	0.000029	0.000040	-46.015577	-84.415832	47.568040
58984	9.833926	-0.730415	0.692699	-0.023488	-0.038734	0.072523	1.000000	0.000036	0.000029	0.000040	-46.012566	-84.415496	47.567520
58985	9.867949	-0.700230	0.664075	0.006563	-0.005472	0.102334	1.000000	0.000039	0.000036	0.000040	-46.002846	-84.414575	47.558925
58986	9.868294	-0.663368	0.684360	-0.014639	0.030659	0.101468	1.000000	0.000026	0.000024	0.000024	-45.992244	-84.415971	47.549090
58987	9.850917	-0.715419	0.691933	-0.021881	-0.022646	0.088331	1.000000	0.000023	0.000019	0.000057	-46.012948	-84.414973	47.569256
58988	9.885330	-0.716518	0.691887	-0.019559	-0.020997	0.122655	1.000000	0.000036	0.000030	0.000048	-46.015695	-84.413830	47.571872
58989	9.867141	-0.740677	0.646773	0.025133	-0.045345	0.103194	1.000000	0.000032	0.000038	0.000023	-45.991584	-84.414151	47.547988
58990	9.884764	-0.686835	0.664495	0.007123	0.009114	0.118159	1.000000	0.000033	0.000023	0.000049	-46.002079	-84.413550	47.560073
58991	9.867400	-0.704648	0.667541	0.003411	-0.009947	0.102332	1.000000	0.000033	0.000022	0.000032	-45.999363	-84.414399	47.557834
58992	9.884602	-0.688273	0.665409	0.006082	0.007617	0.118161	1.000000	0.000023	0.000018	0.000041	-46.007241	-84.414823	47.564177
58993	9.867245	-0.706010	0.668402	0.002369	-0.011442	0.102331	1.000000	0.000033	0.000022	0.000032	-46.004528	-84.415672	47.561939
58994	9.884840	-0.686486	0.690566	-0.019179	0.008769	0.119974	1.000000	0.000019	0.000029	0.000048	-46.010891	-84.414710	47.569061
58995	9.867073	-0.707538	0.669322	0.001310	-0.012936	0.102330	1.000000	0.000027	0.000008	0.000033	-46.021422	-84.416608	47.579456
58996	9.884249	-0.725235	0.671677	0.000419	-0.029619	0.120822	1.000000	0.000026	0.000024	0.000024	-46.010667	-84.418005	47.569006
58997	9.866987	-0.674432	0.665570	0.003811	0.019809	0.099672	1.000000	0.000040	0.000019	0.000041	-46.016126	-84.418334	47.575801
58998	9.867264	-0.705925	0.694878	-0.024463	-0.012525	0.104133	1.000000	0.000029	0.000030	0.000015	-45.992026	-84.419877	47.550647
58999	9.900971	-0.678727	0.641938	0.029796	0.018024	0.132199	1.000000	0.000026	0.000024	0.000032	-45.987388	-84.420523	47.545663
59000	9.866370	-0.679189	0.643080	0.026442	0.014910	0.097872	1.000000	0.000029	0.000032	0.000031	-45.976492	-84.420697	47.536184
59001	9.883853	-0.728011	0.674493	-0.002217	-0.033362	0.120810	1.000000	0.000043	0.000026	0.000040	-45.975336	-84.420502	47.536671
59002	9.900740	-0.680491	0.643642	0.028209	0.015774	0.132208	1.000000	0.000040	0.000018	0.000016	-45.962376	-84.422996	47.525228
59003	9.918354	-0.660804	0.665768	0.006673	0.035980	0.149858	1.000000	0.000019	0.000029	0.000048	-45.968314	-84.421991	47.530073
59004	9.883671	-0.695729	0.671460	-0.000224	-0.001359	0.118166	1.000000	0.000026	0.000025	0.000040	-45.969659	-84.421870	47.530072
59005	9.866350	-0.679291	0.670062	-0.000368	0.013840	0.099683	1.000000	0.000046	0.000033	0.000040	-45.961888	-84.421151	47.524250
59006	9.883097	-0.700380	0.648490	0.022947	-0.005513	0.116367	1.000000	0.000033	0.000022	0.000032	-45.958654	-84.421897	47.518447
59007	9.883476	-0.663672	0.668597	0.001798	0.030645	0.115537	1.000000	0.000026	0.000026	0.000048	-45.966521	-84.421095	47.526043
59008	9.883389	-0.664431	0.669127	0.001263	0.029906	0.115540	1.000000	0.000026	0.000024	0.000032	-45.962791	-84.421749	47.523428
59009	9.882915	-0.668353	0.645529	0.024941	0.026490	0.113747	1.000000	0.000029	0.000032	0.000040	-45.957788	-84.421146	47.518422
59010	9.883508	-0.696904	0.699148	-0.027580	-0.003162	0.119957	1.000000	0.000019	0.000029	0.000048	-45.964286	-84.420197	47.525813
59011	9.865418	-0.687139	0.649220	0.020689	0.006706	0.097895	1.000000	0.000047	0.000017	0.000049	-45.977949	-84.420006	47.541672
59012	9.900233	-0.684800	0.673486	-0.001236	0.010946	0.134022	1.000000	0.000008	0.000040	0.000030	-45.960433	-84.419566	47.521963
59013	9.865619	-0.685397	0.674593	-0.004558	0.007872	0.099688	1.000000	0.000030	0.000016	0.000049	-45.976854	-84.419491	47.538629
59014	9.865807	-0.717189	0.703977	-0.032874	-0.024451	0.104087	1.000000	0.000032	0.000039	0.000039	-45.964966	-84.418412	47.527812
59015	9.881970	-0.676467	0.624897	0.045989	0.019300	0.111977	1.000000	0.000026	0.000025	0.000040	-45.966589	-84.418333	47.529126
59016	9.882528	-0.704995	0.678573	-0.006527	-0.010349	0.118158	1.000000	0.000032	0.000040	0.000048	-45.960619	-84.416518	47.523238
59017	9.882416	-0.705904	0.679259	-0.007052	-0.011097	0.118157	1.000000	0.000026	0.000026	0.000048	-45.968488	-84.415715	47.530836
59018	9.864349	-0.696153	0.629392	0.041223	-0.001231	0.096119	1.000000	0.000019	0.000029	0.000048	-45.974961	-84.414706	47.536979
59019	9.882215	-0.707570	0.680454	-0.008109	-0.012586	0.118155	1.000000	0.000053	0.000030	0.000032	-45.962917	-84.414912	47.527671
59020	9.864908	-0.691109	0.679146	-0.008222	0.002639	0.099689	1.000000	0.000008	0.000041	0.000047	-45.958388	-84.412936	47.519994
59021	9.882003	-0.709234	0.681792	-0.009155	-0.014075	0.118152	1.000000	0.000030	0.000016	0.000049	-45.974801	-84.412860	47.536652
59022	9.882293	-0.706730	0.706420	-0.033883	-0.012138	0.119931	1.000000	0.000026	0.000024	0.000032	-45.970294	-84.413506	47.531986
59023	9.864631	-0.693463	0.680767	-0.009793	0.000402	0.099688	1.000000	0.000029	0.000032	0.000040	-45.965313	-84.412902	47.527005
59024	9.881735	-0.711420	0.683407	-0.010728	-0.016318	0.118147	1.000000	0.000033	0.000022	0.000041	-45.968562	-84.413010	47.530212
59025	9.881412	-0.681153	0.655089	0.016561	0.014487	0.113789	1.000000	0.000026	0.000024	0.000032	-45.963953	-84.413653	47.525258
59026	9.864000	-0.698924	0.658115	0.012840	-0.004532	0.097909	1.000000	0.000023	0.000019	0.000049	-45.978309	-84.413405	47.539448
59027	9.863770	-0.734062	0.663147	0.008698	-0.039519	0.100482	1.000000	0.000047	0.000017	0.000049	-45.991991	-84.413211	47.555325
59028	9.881384	-0.714442	0.685322	-0.012845	-0.019307	0.118139	1.000000	0.000046	0.000032	0.000024	-45.972621	-84.413965	47.539669
59029	9.880932	-0.718301	0.661749	0.010830	-0.022746	0.116363	1.000000	0.000026	0.000025	0.000040	-45.974255	-84.413884	47.540995
59030	9.881356	-0.681480	0.681896	-0.010262	0.013435	0.115570	1.000000	0.000029	0.000032	0.000032	-45.962416	-84.413977	47.527932
59031	9.846388	-0.685132	0.658766	0.010648	0.007717	0.079459	1.000000	0.000033	0.000022	0.000032	-45.959748	-84.414824	47.525740
59032	9.880677	-0.720240	0.663444	0.009268	-0.024994	0.116359	1.000000	0.000019	0.000028	0.000040	-45.959300	-84.414508	47.523435
59033	9.880384	-0.689998	0.635112	0.036573	0.005800	0.112033	1.000000	0.000016	0.000020	0.000032	-45.959366	-84.415471	47.522027
59034	9.897496	-0.707916	0.637527	0.035600	-0.010935	0.130482	1.000000	0.000020	0.000011	0.000041	-45.974836	-84.416490	47.538100
59035	9.846276	-0.718703	0.689552	-0.019283	-0.026803	0.083780	1.000000	0.000035	0.000045	0.000022	-45.944147	-84.416284	47.507951
59036	9.880134	-0.692032	0.636784	0.034991	0.003557	0.112040	1.000000	0.000026	0.000026	0.000057	-45.958321	-84.414720	47.521593
59037	9.898109	-0.669314	0.683036	-0.010735	0.026463	0.131470	1.000000	0.000030	0.000015	0.000033	-45.962273	-84.416089	47.525715
59038	9.897678	-0.673112	0.659409	0.012942	0.023009	0.129708	1.000000	0.000032	0.000038	0.000023	-45.938106	-84.416413	47.501596
59039	9.879891	-0.693975	0.638427	0.033419	0.001306	0.112046	1.000000	0.000033	0.000022	0.000041	-45.941690	-84.416535	47.505695
59040	9.863178	-0.705051	0.689850	-0.018698	-0.012272	0.099667	1.000000	0.000033	0.000022	0.000032	-45.938914	-84.417353	47.502835
59041	9.880261	-0.657819	0.658980	0.011824	0.036758	0.111276	1.000000	0.000036	0.000029	0.000040	-45.935888	-84.416950	47.500631
59042	9.897698	-0.672407	0.685954	-0.013339	0.022729	0.131476	1.000000	0.000039	0.000036	0.000031	-45.919869	-84.416689	47.484109
59043	9.880089	-0.659148	0.660241	0.010790	0.035267	0.111283	1.000000	0.000023	0.000018	0.000041	-45.928124	-84.417130	47.491747
59044	9.880006	-0.659827	0.660789	0.010276	0.034515	0.111286	1.000000	0.000022	0.000034	0.000031	-45.914457	-84.417032	47.476062
59045	9.862383	-0.711600	0.668690	0.002895	-0.018711	0.097900	1.000000	0.000036	0.000029	0.000032	-45.905188	-84.417352	47.467578
59046	9.897346	-0.675088	0.688390	-0.015436	0.019736	0.131480	1.000000	0.000029	0.000033	0.000048	-45.907023	-84.416043	47.470486
59047	9.896546	-0.682524	0.640696	0.032438	0.013553	0.127972	1.000000	0.000029	0.000032	0.000040	-45.902064	-84.415436	47.465527
59048	9.879632	-0.662736	0.663473	0.008173	0.031524	0.111298	1.000000	0.000022	0.000035	0.000039	-45.895270	-84.414656	47.458572
59049	9.879142	-0.731820	0.673545	0.000318	-0.037703	0.116324	1.000000	0.000022	0.000034	0.000031	-45.882121	-84.414568	47.444565
59050	9.862091	-0.681144	0.667263	0.003914	0.011780	0.095384	1.000000	0.000013	0.000014	0.000049	-45.901104	-84.414725	47.463566
59051	9.878819	-0.702361	0.645810	0.027123	-0.007697	0.112062	1.000000	0.000035	0.000045	0.000022	-45.870444	-84.414515	47.433449
59052	9.879047	-0.699957	0.670754	0.002400	-0.005726	0.113812	1.000000	0.000026	0.000027	0.000073	-45.896953	-84.411542	47.459803
59053	9.861910	-0.714609	0.698103	-0.025525	-0.021977	0.099635	1.000000	0.000036	0.000029	0.000032	-45.887706	-84.411862	47.451342
59054	9.895873	-0.687966	0.645242	0.028753	0.008277	0.127989	1.000000	0.000029	0.000032	0.000040	-45.882588	-84.411258	47.446205
59055	9.878409	-0.705678	0.648460	0.025027	-0.010698	0.112065	1.000000	0.000036	0.000029	0.000040	-45.879590	-84.410853	47.444030
59056	9.878997	-0.699808	0.697340	-0.023888	-0.005989	0.115554	1.000000	0.000023	0.000018	0.000041	-45.887614	-84.411257	47.450484
59057	9.878568	-0.703883	0.673686	-0.000214	-0.009464	0.113809	1.000000	0.000029	0.000032	0.000040	-45.882672	-84.410648	47.445542
59058	9.877800	-0.711264	0.625966	0.047642	-0.015676	0.110324	1.000000	0.000036	0.000029	0.000040	-45.880195	-84.410321	47.445727
59059	9.861230	-0.688037	0.672899	-0.000796	0.005057	0.095391	1.000000	0.000039	0.000036	0.000031	-45.864361	-84.410115	47.430987
59060	9.895329	-0.692315	0.648923	0.025584	0.003771	0.128001	1.000000	0.000026	0.000025	0.000040	-45.866474	-84.410099	47.434532
59061	9.878203	-0.706808	0.675975	-0.002342	-0.012462	0.113805	1.000000	0.000024	0.000002	0.000050	-45.896123	-84.411068	47.463807
59062	9.895261	-0.724825	0.678547	-0.003348	-0.029221	0.132217	1.000000	0.000032	0.000039	0.000031	-45.878474	-84.410573	47.445265
59063	9.860651	-0.725107	0.679620	-0.006588	-0.032158	0.097864	1.000000	0.000033	0.000022	0.000032	-45.875839	-84.411415	47.443108
59064	9.860493	-0.694743	0.651219	0.020769	-0.001391	0.093656	1.000000	0.000026	0.000024	0.000024	-45.865966	-84.412783	47.434132
59065	9.877797	-0.678384	0.649217	0.023449	0.016072	0.109599	1.000000	0.000036	0.000029	0.000040	-45.862983	-84.412378	47.431971
59066	9.878115	-0.706681	0.702875	-0.029182	-0.013436	0.115533	1.000000	0.000026	0.000025	0.000040	-45.865229	-84.412342	47.435136
59067	9.877701	-0.710777	0.679152	-0.005509	-0.016923	0.113798	1.000000	0.000023	0.000018	0.000041	-45.873494	-84.412782	47.442785
59068	9.894688	-0.697767	0.652849	0.021367	-0.002214	0.128011	1.000000	0.000026	0.000024	0.000024	-45.862329	-84.414182	47.431311
59069	9.877547	-0.711889	0.680212	-0.006560	-0.018426	0.113794	1.000000	0.000022	0.000034	0.000031	-45.849192	-84.414092	47.417316
59070	9.860266	-0.664439	0.649662	0.021341	0.028357	0.091207	1.000000	0.000037	0.000012	0.000041	-45.860668	-84.414873	47.427631
59071	9.877388	-0.713247	0.681099	-0.007595	-0.019919	0.113791	1.000000	0.000033	0.000022	0.000032	-45.858038	-84.415715	47.425479
59072	9.877573	-0.679642	0.676896	-0.004409	0.013567	0.111341	1.000000	0.000019	0.000027	0.000032	-45.851367	-84.416180	47.418124
59073	9.877816	-0.676902	0.701622	-0.029129	0.015569	0.113068	1.000000	0.000026	0.000024	0.000032	-45.846781	-84.416818	47.413195
59074	9.877409	-0.680911	0.678012	-0.005463	0.012077	0.111342	1.000000	0.000036	0.000029	0.000040	-45.844311	-84.416422	47.412250
