// Start Time: Unknown
// Update Rate: 100.0Hz
// Filter Profile: human (46.1)
// Firmware Version: 4.4.0
PacketCounter	Acc_X	Acc_Y	Acc_Z	FreeAcc_X	FreeAcc_Y	FreeAcc_Z	OriInc_q0	OriInc_q1	OriInc_q2	OriInc_q3	Roll	Pitch	Yaw
23228	2.449734	-0.031289	12.886232	-0.000000	-0.000000	3.304368	1.000000	-0.000009	0.000032	-0.000071	-0.139368	-10.765577	-178.049861
23229	2.417720	-0.010742	12.906981	0.000000	0.000000	3.318788	1.000000	-0.000001	0.000057	-0.000064	-0.048308	-10.612894	-177.607308
23230	2.425561	-0.032325	12.913484	0.011177	0.011597	3.326651	1.000000	-0.000011	0.000043	-0.000072	-0.093710	-10.686139	-177.840595
23231	2.436931	-0.008965	12.880668	-0.006459	-0.012204	3.296475	1.000000	0.000001	0.000053	-0.000058	-0.092379	-10.680091	-177.847332
23232	2.444868	-0.030404	12.887158	-0.015056	0.009191	3.304357	1.000000	0.000000	0.000040	-0.000067	-0.091084	-10.675578	-177.855081
23233	2.422806	-0.024417	12.937514	0.014924	0.004561	3.349744	1.000000	0.000001	0.000053	-0.000058	-0.089755	-10.669530	-177.861817
23234	2.442545	-0.029888	12.887600	-0.015056	0.009187	3.304357	1.000000	-0.000013	0.000035	-0.000088	-0.089366	-10.665559	-177.872051
23235	2.411460	-0.002146	12.931662	0.023545	-0.016881	3.341862	1.000000	0.000010	0.000048	-0.000063	-0.086874	-10.660035	-177.879407
23236	2.440123	-0.029138	12.888060	-0.015061	0.009187	3.304357	1.000000	-0.000001	0.000057	-0.000064	-0.085624	-10.653472	-177.886854
23237	2.438836	-0.028960	12.888304	-0.015061	0.009187	3.304357	1.000000	-0.000011	0.000043	-0.000072	-0.085304	-10.648561	-177.895301
23238	2.405861	-0.015553	12.885692	0.016115	-0.002909	3.295676	1.000000	-0.000001	0.000051	-0.000068	-0.084044	-10.642816	-177.903275
23239	2.437317	-0.021365	12.912101	-0.011320	0.002180	3.327450	1.000000	0.000000	0.000040	-0.000067	-0.082563	-10.638204	-177.911090
23240	2.426232	-0.006505	12.882689	-0.006407	-0.012278	3.296475	1.000000	-0.000011	0.000043	-0.000072	-0.082306	-10.633349	-177.919525
23241	2.425271	-0.006285	12.882870	-0.006407	-0.012278	3.296475	1.000000	0.000004	0.000032	-0.000055	-0.080673	-10.629726	-177.925917
23242	2.434377	-0.020710	12.912657	-0.011278	0.002183	3.327450	1.000000	-0.000009	0.000039	-0.000066	-0.080214	-10.625434	-177.933663
23243	2.401255	-0.007344	12.910057	0.019879	-0.009899	3.318769	1.000000	-0.000005	0.000066	-0.000076	-0.079131	-10.617904	-177.942532
23244	2.430878	-0.027212	12.889812	-0.014985	0.009202	3.304357	1.000000	0.000009	0.000036	-0.000072	-0.076376	-10.613889	-177.950986
23245	2.420732	-0.005007	12.883724	-0.006363	-0.012236	3.296475	1.000000	0.000000	0.000040	-0.000067	-0.074902	-10.609277	-177.958800
23246	2.429648	-0.019332	12.913550	-0.011216	0.002241	3.327450	1.000000	-0.000002	0.000045	-0.000073	-0.073374	-10.604378	-177.967350
23247	2.405026	-0.034666	12.893833	0.007597	0.018591	3.303558	1.000000	0.000000	0.000047	-0.000062	-0.071983	-10.599047	-177.974624
23248	2.449025	-0.017112	12.887249	-0.037417	-0.000139	3.305156	1.000000	0.000010	0.000048	-0.000063	-0.069592	-10.593772	-177.981956
23249	2.393389	-0.011941	12.888018	0.016277	-0.002864	3.295676	1.000000	0.000010	0.000048	-0.000063	-0.067120	-10.588248	-177.989307
23250	2.424263	-0.025017	12.891062	-0.014779	0.009222	3.304357	1.000000	-0.000028	0.000023	-0.000074	-0.068740	-10.586102	-177.997966
23251	2.424060	-0.017969	12.914602	-0.011056	0.002229	3.327450	1.000000	-0.000001	0.000057	-0.000064	-0.067513	-10.579564	-178.005411
23252	2.444375	-0.016087	12.888133	-0.037210	-0.000135	3.305156	1.000000	0.000006	0.000057	-0.000075	-0.065213	-10.573501	-178.014191
23253	2.430486	-0.039126	12.921399	-0.019573	0.023667	3.335332	1.000000	-0.000018	0.000043	-0.000061	-0.065996	-10.568561	-178.021307
23254	2.419409	-0.024409	12.891975	-0.014425	0.009070	3.304357	1.000000	0.000000	0.000040	-0.000067	-0.065265	-10.565015	-178.028950
23255	2.419128	-0.016996	12.915528	-0.010702	0.002073	3.327450	1.000000	-0.000002	0.000045	-0.000073	-0.063895	-10.559909	-178.037470
23256	2.440579	-0.008098	12.912354	-0.032966	-0.007362	3.328250	1.000000	-0.000002	0.000045	-0.000073	-0.062902	-10.555972	-178.045925
23257	2.447820	-0.036599	12.895506	-0.045311	0.021067	3.313040	1.000000	-0.000002	0.000045	-0.000073	-0.061532	-10.550864	-178.054445
23258	2.415753	-0.016171	12.916161	-0.009936	0.001890	3.327451	1.000000	-0.000009	0.000039	-0.000066	-0.061685	-10.548603	-178.062066
23259	2.436319	-0.014487	12.889660	-0.036193	-0.000475	3.305159	1.000000	-0.000001	0.000057	-0.000064	-0.060479	-10.542073	-178.069506
23260	2.444961	-0.028700	12.919549	-0.040412	0.013669	3.336137	1.000000	0.000010	0.000048	-0.000063	-0.059479	-10.539479	-178.076576
23261	2.412016	-0.015133	12.916860	-0.009247	0.001579	3.327451	1.000000	0.000000	0.000040	-0.000067	-0.058065	-10.534903	-178.084374
23262	2.410187	-0.021896	12.893707	-0.012299	0.008578	3.304360	1.000000	0.000000	0.000040	-0.000067	-0.056679	-10.533264	-178.092070
23263	2.430904	-0.020061	12.867188	-0.038546	0.006210	3.282071	1.000000	-0.000002	0.000045	-0.000073	-0.055333	-10.528224	-178.100584
23264	2.439675	-0.034382	12.897055	-0.042414	0.020585	3.313051	1.000000	-0.000001	0.000051	-0.000068	-0.054483	-10.526915	-178.108326
23265	2.429299	-0.012099	12.890988	-0.033767	-0.000856	3.305166	1.000000	0.000021	0.000039	-0.000062	-0.050799	-10.522520	-178.115578
23266	2.405701	-0.020253	12.894547	-0.010050	0.008268	3.304362	1.000000	-0.000009	0.000039	-0.000066	-0.051647	-10.523289	-178.123022
23267	2.449813	-0.002942	12.888012	-0.055081	-0.010450	3.305975	1.000000	-0.000009	0.000045	-0.000062	-0.051389	-10.518332	-178.130208
23268	2.402591	-0.027223	12.871635	-0.012388	0.015007	3.281273	1.000000	-0.000013	0.000053	-0.000074	-0.052594	-10.518151	-178.138517
23269	2.455636	-0.031403	12.871455	-0.066022	0.017724	3.290778	1.000000	0.000008	0.000053	-0.000069	-0.050261	-10.512366	-178.146567
23270	2.423311	-0.010801	12.892116	-0.029349	-0.001547	3.305176	1.000000	0.000000	0.000047	-0.000062	-0.050008	-10.514880	-178.153287
23271	2.432014	-0.025246	12.922000	-0.034159	0.012890	3.336156	1.000000	-0.000013	0.000053	-0.000074	-0.049919	-10.509065	-178.161896
23272	2.420815	-0.010449	12.892585	-0.027550	-0.002501	3.305180	1.000000	0.000000	0.000040	-0.000067	-0.053020	-10.511932	-178.169831
23273	2.387955	0.002949	12.889840	0.003686	-0.014604	3.296473	1.000000	0.000000	0.000040	-0.000067	-0.051688	-10.507691	-178.177607
23274	2.449466	-0.029864	12.872634	-0.060777	0.016578	3.290805	1.000000	0.000010	0.000067	-0.000049	-0.049569	-10.506956	-178.182536
23275	2.449688	-0.015376	12.919576	-0.053196	0.002566	3.336982	1.000000	-0.000009	0.000032	-0.000071	-0.049216	-10.503674	-178.190784
23276	2.406724	0.012607	12.887199	-0.016219	-0.023958	3.297291	1.000000	0.000006	0.000057	-0.000075	-0.047069	-10.501321	-178.199228
23277	2.455865	-0.043417	12.902966	-0.064504	0.030982	3.321793	1.000000	0.000000	0.000034	-0.000072	-0.045613	-10.497831	-178.207561
23278	2.462275	0.053926	12.847932	-0.076722	-0.067196	3.268775	1.000000	0.000000	0.000047	-0.000062	-0.047803	-10.501894	-178.214752
23279	2.491049	0.010301	12.937104	-0.091193	-0.023910	3.361727	1.000000	-0.000009	0.000045	-0.000062	-0.047659	-10.497288	-178.221906
23280	2.316309	-0.101850	12.900288	0.070855	0.092511	3.293781	1.000000	-0.000005	0.000042	-0.000045	-0.051473	-10.499463	-178.228097
23281	2.365424	0.114891	12.909768	0.029845	-0.125371	3.311867	1.000000	0.000002	0.000053	-0.000097	-0.049420	-10.493976	-178.239300
23282	2.470301	-0.194788	12.822131	-0.097116	0.180817	3.245078	1.000000	-0.000006	0.000030	-0.000054	-0.049465	-10.502194	-178.244672
23283	2.309505	-0.013229	12.925305	0.084594	0.004707	3.317062	1.000000	-0.000009	0.000032	-0.000071	-0.049261	-10.499172	-178.252873
23284	2.412979	0.059113	12.925849	-0.013824	-0.071710	3.336389	1.000000	0.000002	0.000036	-0.000061	-0.053378	-10.503130	-178.260697
23285	2.333206	-0.099181	12.874506	0.049535	0.088758	3.271512	1.000000	-0.000009	0.000045	-0.000062	-0.053414	-10.498669	-178.267793
23286	2.503033	-0.024623	12.974455	-0.096108	0.009378	3.400675	1.000000	-0.000009	0.000039	-0.000066	-0.054674	-10.502612	-178.274410
23287	2.394146	-0.131907	12.857480	-0.014440	0.119550	3.265907	1.000000	0.000011	0.000038	-0.000062	-0.052393	-10.499089	-178.281485
23288	2.412262	0.105157	12.887313	-0.018401	-0.118045	3.298325	1.000000	-0.000002	0.000032	-0.000082	-0.054190	-10.505329	-178.289855
23289	2.430438	-0.070890	12.914906	-0.037135	0.057644	3.328931	1.000000	-0.000007	0.000034	-0.000060	-0.054094	-10.502299	-178.296772
23290	2.414827	0.024860	12.886567	-0.023701	-0.037716	3.298134	1.000000	0.000006	0.000051	-0.000080	-0.053111	-10.503259	-178.305024
23291	2.517989	-0.042438	12.878661	-0.129280	0.026886	3.309224	1.000000	0.000002	0.000023	-0.000070	-0.051757	-10.501506	-178.313101
23292	2.444027	0.005564	12.866569	-0.056915	-0.019135	3.283812	1.000000	-0.000005	0.000053	-0.000085	-0.052722	-10.501946	-178.322729
23293	2.444885	0.027136	12.936856	-0.045354	-0.040228	3.353055	1.000000	-0.000004	0.000043	-0.000084	-0.051730	-10.498099	-178.332392
23294	2.500768	-0.078928	12.865570	-0.115286	0.063443	3.293252	1.000000	-0.000002	0.000038	-0.000078	-0.053898	-10.503010	-178.341458
23295	2.463808	0.022405	12.887268	-0.073048	-0.036395	3.307749	1.000000	0.000004	0.000055	-0.000086	-0.052061	-10.497905	-178.351347
23296	2.535610	-0.024778	12.899808	-0.141623	0.008872	3.333219	1.000000	-0.000002	0.000038	-0.000078	-0.052331	-10.503551	-178.359514
23297	2.476588	-0.065071	12.939651	-0.078555	0.051277	3.361663	1.000000	0.000006	0.000063	-0.000071	-0.050584	-10.497555	-178.367609
23298	2.469955	0.008964	12.917661	-0.072761	-0.024395	3.338770	1.000000	-0.000009	0.000039	-0.000066	-0.059661	-10.504002	-178.377536
23299	2.440050	-0.072811	12.867096	-0.055941	0.058093	3.283679	1.000000	0.000002	0.000065	-0.000087	-0.058153	-10.497842	-178.387543
23300	2.488803	0.011246	12.891590	-0.094363	-0.029075	3.316578	1.000000	-0.000005	0.000066	-0.000076	-0.067665	-10.509432	-178.397072
23301	2.441484	-0.012908	12.875128	-0.052748	-0.003507	3.291782	1.000000	0.000008	0.000053	-0.000069	-0.066061	-10.504892	-178.404894
23302	2.440129	-0.012495	12.875385	-0.048139	-0.003662	3.291800	1.000000	0.000000	0.000053	-0.000058	-0.066041	-10.519193	-178.407020
23303	2.406185	-0.006372	12.849276	-0.020426	-0.008875	3.259924	1.000000	-0.000002	0.000057	-0.000064	-0.065606	-10.514352	-178.414227
23304	2.438591	0.002244	12.922630	-0.038181	-0.017982	3.337952	1.000000	-0.000004	0.000055	-0.000075	-0.065240	-10.516623	-178.421948
23305	2.467598	-0.024486	12.879252	-0.076513	0.007966	3.300621	1.000000	0.000008	0.000065	-0.000060	-0.063817	-10.510941	-178.428689
23306	2.434074	-0.011186	12.876532	-0.042616	-0.004804	3.291819	1.000000	-0.000001	0.000063	-0.000059	-0.066208	-10.515830	-178.435319
23307	2.433661	0.003366	12.923559	-0.034553	-0.019011	3.337960	1.000000	0.000006	0.000069	-0.000066	-0.064917	-10.509759	-178.442757
23308	2.440543	-0.024913	12.906868	-0.044226	0.007237	3.322841	1.000000	0.000006	0.000069	-0.000066	-0.073084	-10.513517	-178.455180
23309	2.461540	-0.016032	12.903888	-0.066312	-0.002322	3.323726	1.000000	-0.000022	0.000052	-0.000073	-0.075033	-10.509537	-178.463418
23310	2.405570	-0.011868	12.904401	-0.010600	-0.006968	3.314015	1.000000	-0.000003	0.000068	-0.000065	-0.082971	-10.510634	-178.475809
23311	2.328263	-0.002044	12.954884	0.073695	-0.014633	3.349539	1.000000	-0.000004	0.000055	-0.000075	-0.082903	-10.506327	-178.484149
23312	2.346818	-0.021534	12.858474	0.038551	0.004543	3.258153	1.000000	-0.000013	0.000060	-0.000069	-0.081360	-10.511493	-178.488260
23313	2.242462	0.060125	12.913246	0.152466	-0.074423	3.292860	1.000000	-0.000004	0.000038	-0.000039	-0.082046	-10.509308	-178.492424
23314	2.181792	-0.001721	12.882847	0.207734	-0.011727	3.251947	1.000000	0.000002	0.000047	-0.000101	-0.084026	-10.521197	-178.502217
23315	2.440761	-0.185072	12.906448	-0.047652	0.165269	3.322699	1.000000	0.000013	0.000027	-0.000060	-0.082443	-10.520465	-178.508843
23316	2.267631	-0.003772	12.932723	0.133810	-0.013351	3.316647	1.000000	-0.000017	0.000032	-0.000060	-0.092836	-10.528031	-178.518952
23317	2.429741	-0.023054	12.908910	-0.030380	0.001563	3.322883	1.000000	0.000003	0.000013	-0.000069	-0.092303	-10.529053	-178.526537
23318	2.384155	-0.040208	12.915519	0.017412	0.019797	3.321076	1.000000	0.000004	0.000025	-0.000059	-0.093063	-10.538127	-178.530440
23319	2.574224	0.023037	12.942665	-0.163118	-0.047968	3.382419	1.000000	0.000003	0.000042	-0.000095	-0.091969	-10.535907	-178.541117
23320	2.567638	-0.049961	12.888706	-0.165508	0.024026	3.328318	1.000000	-0.000008	0.000028	-0.000065	-0.097801	-10.549226	-178.546822
23321	2.407841	0.021652	12.896849	-0.005476	-0.043667	3.306953	1.000000	-0.000002	0.000045	-0.000073	-0.097888	-10.546965	-178.554889
23322	2.437903	0.001999	12.876808	-0.036116	-0.025108	3.292793	1.000000	-0.000002	0.000051	-0.000068	-0.099561	-10.560141	-178.557453
23323	2.458666	0.003877	12.850429	-0.061818	-0.027736	3.270660	1.000000	-0.000013	0.000041	-0.000083	-0.100751	-10.558482	-178.566691
23324	2.435030	-0.004609	12.853885	-0.036782	-0.017932	3.269747	1.000000	0.000005	0.000044	-0.000085	-0.096552	-10.564527	-178.570447
23325	2.484592	-0.060410	12.869846	-0.084309	0.036674	3.294614	1.000000	-0.000009	0.000038	-0.000066	-0.097628	-10.563233	-178.577732
23326	2.402198	0.022799	12.897900	0.005495	-0.046382	3.306943	1.000000	-0.000011	0.000043	-0.000072	-0.106709	-10.570085	-178.590542
23327	2.441300	-0.025776	12.860807	-0.041187	0.000861	3.277739	1.000000	-0.000008	0.000034	-0.000060	-0.107821	-10.569368	-178.597075
23328	2.514663	-0.058797	12.920232	-0.101451	0.031218	3.349687	1.000000	-0.000011	0.000043	-0.000072	-0.112830	-10.576329	-178.606452
23329	2.481720	-0.045764	12.917335	-0.069606	0.018812	3.340768	1.000000	0.000004	0.000038	-0.000050	-0.112914	-10.575230	-178.611791
23330	2.476050	-0.104640	12.910142	-0.065721	0.076924	3.332779	1.000000	-0.000002	0.000063	-0.000059	-0.117164	-10.578165	-178.620777
23331	2.492256	-0.014469	12.908270	-0.080459	-0.013449	3.333732	1.000000	0.000020	0.000039	-0.000062	-0.115127	-10.576899	-178.627503
23332	2.454587	-0.060300	12.897989	-0.045159	0.031566	3.316811	1.000000	-0.000001	0.000070	-0.000055	-0.124178	-10.580518	-178.639414
23333	2.511855	-0.004968	12.905610	-0.099531	-0.025347	3.334694	1.000000	-0.000011	0.000049	-0.000068	-0.125771	-10.578246	-178.646759
23334	2.422975	-0.002089	12.856164	-0.020796	-0.026044	3.269768	1.000000	0.000008	0.000059	-0.000065	-0.123783	-10.579485	-178.651409
23335	2.445117	0.021434	12.899934	-0.034755	-0.049879	3.316809	1.000000	0.000008	0.000059	-0.000065	-0.123279	-10.576111	-178.658371
23336	2.384799	-0.033404	12.892879	0.023154	0.005509	3.298916	1.000000	-0.000004	0.000061	-0.000070	-0.127642	-10.581185	-178.666966
23337	2.396390	-0.002702	12.883603	0.009973	-0.025653	3.291860	1.000000	-0.000006	0.000059	-0.000081	-0.128367	-10.577844	-178.675799
23338	2.372232	-0.011178	12.887120	0.035511	-0.016067	3.290899	1.000000	0.000010	0.000067	-0.000049	-0.125488	-10.583469	-178.673830
23339	2.371453	-0.003676	12.910719	0.040251	-0.023508	3.313938	1.000000	0.000002	0.000036	-0.000061	-0.125780	-10.582946	-178.680354
23340	2.393534	0.012455	12.931045	0.023759	-0.041528	3.337932	1.000000	-0.000013	0.000041	-0.000083	-0.132938	-10.587471	-178.693937
23341	2.401157	-0.015970	12.914268	0.012139	-0.013459	3.322905	1.000000	0.000009	0.000054	-0.000058	-0.132495	-10.584892	-178.700141
23342	2.444370	-0.004950	12.884744	-0.034764	-0.026656	3.301796	1.000000	-0.000000	0.000046	-0.000062	-0.138336	-10.588549	-178.711551
23343	2.421690	0.000687	12.934889	-0.003533	-0.031855	3.346906	1.000000	0.000002	0.000048	-0.000052	-0.138976	-10.586710	-178.716940
23344	2.396843	-0.022186	12.891617	0.013302	-0.009074	3.299859	1.000000	-0.000011	0.000049	-0.000068	-0.142160	-10.590463	-178.724828
23345	2.419090	0.001139	12.935375	-0.000511	-0.032990	3.346904	1.000000	0.000009	0.000054	-0.000058	-0.141829	-10.587964	-178.730996
23346	2.417366	-0.005531	12.912245	-0.000662	-0.026886	3.323866	1.000000	-0.000002	0.000038	-0.000078	-0.145084	-10.600082	-178.737060
23347	2.393776	-0.014085	12.915640	0.022758	-0.017973	3.322886	1.000000	-0.000002	0.000045	-0.000073	-0.145791	-10.598842	-178.744931
23348	2.400895	-0.049605	12.875519	0.008637	0.016687	3.284846	1.000000	-0.000006	0.000053	-0.000085	-0.148844	-10.602783	-178.755271
23349	2.390985	-0.020714	12.892707	0.022019	-0.012247	3.299845	1.000000	-0.000010	0.000026	-0.000076	-0.150420	-10.603730	-178.763418
23350	2.421563	-0.040204	12.872676	-0.011124	0.005192	3.285833	1.000000	0.000007	0.000040	-0.000078	-0.155705	-10.607202	-178.779071
23351	2.421159	-0.032527	12.896205	-0.006273	-0.002353	3.308865	1.000000	0.000011	0.000031	-0.000066	-0.155207	-10.607540	-178.786085
23352	2.407250	-0.062666	12.905904	0.008623	0.027541	3.315919	1.000000	-0.000010	0.000032	-0.000071	-0.158771	-10.607711	-178.798154
23353	2.441988	-0.022952	12.893338	-0.026999	-0.013053	3.309854	1.000000	0.000009	0.000036	-0.000072	-0.158396	-10.607556	-178.805869
23354	2.463708	-0.013832	12.890305	-0.047414	-0.023241	3.310849	1.000000	-0.000017	0.000026	-0.000064	-0.162928	-10.613796	-178.813167
23355	2.476399	0.024230	12.904288	-0.056542	-0.061572	3.326826	1.000000	0.000032	0.000043	-0.000052	-0.160435	-10.612827	-178.818512
23356	2.461844	-0.012894	12.890662	-0.042948	-0.023631	3.310864	1.000000	-0.000017	0.000032	-0.000060	-0.160935	-10.624743	-178.815202
23357	2.492829	-0.025631	12.894028	-0.073062	-0.012060	3.319918	1.000000	-0.000006	0.000042	-0.000045	-0.162848	-10.623993	-178.819715
23358	2.459680	-0.012868	12.891075	-0.040488	-0.024187	3.310871	1.000000	-0.000009	0.000051	-0.000057	-0.163122	-10.624779	-178.823905
23359	2.458346	-0.012706	12.891330	-0.039538	-0.024671	3.310873	1.000000	-0.000000	0.000053	-0.000058	-0.164111	-10.622861	-178.829924
23360	2.434503	-0.021325	12.894756	-0.015489	-0.014664	3.309871	1.000000	-0.000002	0.000051	-0.000069	-0.160049	-10.623779	-178.830890
23361	2.388092	-0.038998	12.901358	0.030520	0.003580	3.307854	1.000000	-0.000015	0.000058	-0.000080	-0.162237	-10.621337	-178.839533
23362	2.409208	-0.029952	12.898449	0.009229	-0.006918	3.308861	1.000000	-0.000002	0.000051	-0.000069	-0.166213	-10.620862	-178.851404
23363	2.407987	-0.029542	12.898678	0.010189	-0.007403	3.308860	1.000000	0.000005	0.000044	-0.000085	-0.166031	-10.619965	-178.860541
23364	2.406424	-0.036336	12.875526	0.007421	-0.000409	3.285836	1.000000	-0.000013	0.000041	-0.000083	-0.166268	-10.620597	-178.868809
23365	2.406246	-0.021851	12.922448	0.016338	-0.015058	3.331880	1.000000	0.000007	0.000046	-0.000074	-0.166084	-10.619471	-178.876696
23366	2.414975	-0.035805	12.952395	0.013741	-0.001559	3.362962	1.000000	0.000007	0.000046	-0.000074	-0.167519	-10.622643	-178.885773
23367	2.403536	-0.027843	12.899512	0.015269	-0.009287	3.308854	1.000000	0.000009	0.000036	-0.000072	-0.167194	-10.622755	-178.893474
23368	2.403131	-0.020282	12.923030	0.021101	-0.016451	3.331872	1.000000	0.000004	0.000032	-0.000055	-0.166119	-10.627247	-178.894859
23369	2.401827	-0.027153	12.899832	0.018093	-0.009855	3.308850	1.000000	-0.000008	0.000034	-0.000060	-0.167959	-10.627595	-178.901161
23370	2.423298	-0.017893	12.896872	-0.002648	-0.020054	3.309873	1.000000	0.000013	0.000046	-0.000046	-0.169387	-10.630101	-178.907050
23371	2.453759	-0.037184	12.876936	-0.036708	-0.001415	3.295953	1.000000	0.000002	0.000036	-0.000061	-0.170176	-10.630275	-178.913416
23372	2.420710	-0.024223	12.873918	-0.003559	-0.013250	3.286855	1.000000	0.000002	0.000048	-0.000052	-0.168066	-10.633989	-178.912132
23373	2.420521	-0.009716	12.920834	0.005443	-0.027918	3.332889	1.000000	0.000002	0.000036	-0.000061	-0.168833	-10.634225	-178.918506
23374	2.418652	-0.023579	12.874306	-0.001238	-0.012929	3.286856	1.000000	-0.000000	0.000040	-0.000067	-0.163863	-10.635496	-178.918880
23375	2.408563	0.005533	12.891485	0.012298	-0.041898	3.301796	1.000000	0.000009	0.000042	-0.000068	-0.163579	-10.635052	-178.926060
23376	2.471855	-0.012313	12.921516	-0.044791	-0.025815	3.343038	1.000000	-0.000011	0.000043	-0.000073	-0.167469	-10.634494	-178.937922
23377	2.428970	0.014860	12.888735	-0.008221	-0.052654	3.302829	1.000000	-0.000014	0.000034	-0.000088	-0.169370	-10.634911	-178.947452
23378	2.437515	-0.006515	12.895289	-0.014983	-0.031075	3.310910	1.000000	-0.000002	0.000038	-0.000078	-0.167288	-10.638313	-178.950454
23379	2.436024	-0.013177	12.872134	-0.017984	-0.024467	3.287896	1.000000	0.000005	0.000044	-0.000085	-0.167098	-10.637656	-178.959599
23380	2.490203	-0.002324	12.919175	-0.061272	-0.036816	3.344101	1.000000	-0.000010	0.000045	-0.000062	-0.170773	-10.642344	-178.965912
23381	2.466108	-0.018335	12.899178	-0.041744	-0.020847	3.320044	1.000000	-0.000013	0.000047	-0.000079	-0.172866	-10.641423	-178.974362
23382	2.474006	-0.046824	12.882426	-0.051753	0.006865	3.305128	1.000000	-0.000002	0.000044	-0.000073	-0.175236	-10.647426	-178.981187
23383	2.463707	-0.017868	12.899637	-0.038167	-0.022125	3.320053	1.000000	-0.000002	0.000051	-0.000069	-0.176280	-10.646125	-178.988448
23384	2.485046	-0.008707	12.896731	-0.059065	-0.031038	3.321115	1.000000	-0.000010	0.000038	-0.000066	-0.173994	-10.648873	-178.989773
23385	2.447938	-0.055158	12.886239	-0.025540	0.015708	3.304084	1.000000	-0.000002	0.000057	-0.000064	-0.175096	-10.646879	-178.996506
23386	2.482427	-0.008382	12.897236	-0.055788	-0.031418	3.321128	1.000000	-0.000009	0.000051	-0.000057	-0.174593	-10.650849	-178.996742
23387	2.458260	-0.024293	12.877243	-0.036255	-0.015434	3.297059	1.000000	0.000002	0.000048	-0.000052	-0.175511	-10.649883	-179.002051
23388	2.511829	-0.020620	12.901003	-0.084415	-0.019809	3.330298	1.000000	-0.000013	0.000053	-0.000074	-0.175206	-10.649762	-179.007236
23389	2.496936	-0.058009	12.887441	-0.073408	0.017575	3.314326	1.000000	0.000007	0.000065	-0.000060	-0.175289	-10.646910	-179.013513
23390	2.476271	-0.014401	12.874987	-0.054149	-0.026348	3.298140	1.000000	0.000005	0.000063	-0.000071	-0.178393	-10.649322	-179.023487
23391	2.474540	-0.013932	12.875320	-0.053085	-0.026838	3.298143	1.000000	0.000002	0.000072	-0.000083	-0.178680	-10.645758	-179.032437
23392	2.450794	-0.015363	12.902100	-0.024515	-0.025661	3.320079	1.000000	0.000005	0.000057	-0.000075	-0.181520	-10.647977	-179.042777
23393	2.439294	-0.000540	12.872656	-0.018978	-0.040455	3.288970	1.000000	-0.000004	0.000068	-0.000065	-0.182850	-10.644912	-179.049673
23394	2.406370	0.026663	12.916395	0.020797	-0.067185	3.325792	1.000000	0.000013	0.000063	-0.000082	-0.181927	-10.640443	-179.061482
23395	2.400371	-0.039194	12.885902	0.019236	-0.001319	3.294922	1.000000	-0.000006	0.000078	-0.000067	-0.183448	-10.636156	-179.068551
23396	2.411478	-0.008434	12.876759	0.006846	-0.032285	3.287890	1.000000	-0.000006	0.000066	-0.000076	-0.183477	-10.635724	-179.074567
23397	2.374343	-0.047808	12.889654	0.044437	0.007356	3.293836	1.000000	-0.000004	0.000067	-0.000065	-0.184822	-10.632671	-179.081459
23398	2.373520	-0.033382	12.936655	0.054667	-0.007326	3.339830	1.000000	-0.000000	0.000053	-0.000058	-0.185870	-10.635824	-179.085936
23399	2.371393	-0.047311	12.890199	0.047615	0.006380	3.293825	1.000000	-0.000002	0.000057	-0.000064	-0.187051	-10.634014	-179.092649
23400	2.370362	-0.040081	12.913812	0.054180	-0.001187	3.316815	1.000000	-0.000010	0.000051	-0.000057	-0.189153	-10.639112	-179.096272
23401	2.359871	-0.011297	12.931011	0.067863	-0.030192	3.331689	1.000000	-0.000002	0.000051	-0.000069	-0.190252	-10.638065	-179.103521
23402	2.367519	-0.046619	12.890914	0.053490	0.004959	3.293803	1.000000	0.000009	0.000042	-0.000068	-0.189976	-10.643325	-179.107405
23403	2.353776	-0.069564	12.923963	0.072676	0.028112	3.323821	1.000000	0.000009	0.000048	-0.000063	-0.189918	-10.642612	-179.114008
23404	2.365694	-0.031502	12.938093	0.063559	-0.010027	3.339788	1.000000	-0.000002	0.000057	-0.000064	-0.190001	-10.639587	-179.121207
23405	2.386658	-0.029144	12.911878	0.038065	-0.012804	3.317887	1.000000	0.000007	0.000034	-0.000083	-0.189753	-10.640539	-179.130143
23406	2.376164	-0.007042	12.905649	0.048074	-0.034693	3.309754	1.000000	0.000007	0.000040	-0.000078	-0.189588	-10.642501	-179.139035
23407	2.374826	-0.013706	12.882477	0.045090	-0.028092	3.286754	1.000000	-0.000002	0.000038	-0.000078	-0.190522	-10.642950	-179.147357
23408	2.373958	-0.013256	12.882637	0.046674	-0.028098	3.286749	1.000000	0.000009	0.000029	-0.000077	-0.187995	-10.646553	-179.151704
23409	2.395960	0.003356	12.903076	0.029365	-0.045097	3.310845	1.000000	-0.000002	0.000032	-0.000083	-0.188827	-10.647747	-179.160569
23410	2.394953	-0.003378	12.879845	0.026494	-0.037768	3.287850	1.000000	0.000005	0.000021	-0.000053	-0.186182	-10.650719	-179.162442
23411	2.448864	-0.006524	12.880234	-0.025931	-0.035646	3.298204	1.000000	-0.000006	0.000024	-0.000059	-0.187910	-10.652873	-179.168555
23412	2.426008	-0.008381	12.906790	0.001591	-0.033691	3.320083	1.000000	-0.000010	0.000032	-0.000071	-0.188956	-10.653174	-179.176720
23413	2.457133	-0.020628	12.910309	-0.028318	-0.022190	3.329333	1.000000	0.000003	0.000038	-0.000050	-0.189790	-10.653681	-179.181828
23414	2.446616	0.001235	12.904080	-0.017619	-0.044382	3.321197	1.000000	0.000001	0.000036	-0.000061	-0.192038	-10.659132	-179.187328
23415	2.500226	-0.001928	12.904543	-0.070028	-0.042271	3.331577	1.000000	-0.000010	0.000032	-0.000071	-0.193960	-10.660352	-179.194866
23416	2.467344	0.010621	12.901353	-0.038043	-0.055286	3.322315	1.000000	-0.000008	0.000034	-0.000060	-0.198156	-10.660635	-179.206956
23417	2.466102	0.003612	12.878173	-0.041034	-0.048685	3.299328	1.000000	-0.000010	0.000038	-0.000067	-0.200202	-10.661126	-179.213946
23418	2.474804	-0.017693	12.884752	-0.048872	-0.027750	3.307474	1.000000	0.000001	0.000030	-0.000066	-0.200697	-10.660636	-179.224846
23419	2.505585	-0.036891	12.864938	-0.082889	-0.009141	3.293761	1.000000	-0.000002	0.000044	-0.000073	-0.201757	-10.660408	-179.232621
23420	2.472900	-0.009986	12.908534	-0.042305	-0.036089	3.330466	1.000000	-0.000006	0.000053	-0.000085	-0.203823	-10.660178	-179.244069
23421	2.471327	-0.016677	12.885420	-0.045308	-0.029490	3.307483	1.000000	0.000007	0.000046	-0.000074	-0.203822	-10.659750	-179.251910
23422	2.469844	-0.023350	12.862290	-0.048069	-0.022550	3.284502	1.000000	-0.000000	0.000046	-0.000062	-0.203408	-10.660391	-179.257810
23423	2.468865	-0.015846	12.885893	-0.042832	-0.030196	3.307490	1.000000	0.000007	0.000052	-0.000069	-0.203498	-10.659249	-179.265112
23424	2.490068	-0.006333	12.883093	-0.063158	-0.039720	3.308631	1.000000	-0.000002	0.000044	-0.000073	-0.202938	-10.663750	-179.270234
23425	2.475887	-0.036549	12.892805	-0.048024	-0.009478	3.315655	1.000000	0.000007	0.000059	-0.000065	-0.203119	-10.661917	-179.276999
23426	2.454732	-0.007326	12.833520	-0.037058	-0.038166	3.253382	1.000000	-0.000002	0.000051	-0.000069	-0.202775	-10.665918	-179.281281
23427	2.441169	-0.016419	12.913343	-0.009513	-0.029298	3.329346	1.000000	-0.000002	0.000069	-0.000055	-0.204222	-10.662886	-179.286899
23428	2.439378	-0.023263	12.890271	-0.012331	-0.022840	3.306365	1.000000	0.000002	0.000048	-0.000052	-0.205991	-10.663096	-179.295066
23429	2.415253	-0.032158	12.893616	0.011309	-0.013984	3.305219	1.000000	-0.000008	0.000082	-0.000073	-0.207713	-10.658604	-179.302829
23430	2.403986	-0.003379	12.910912	0.024848	-0.043137	3.320032	1.000000	-0.000004	0.000067	-0.000065	-0.209678	-10.654803	-179.315355
23431	2.421619	-0.046162	12.924055	0.008987	-0.000901	3.336362	1.000000	-0.000004	0.000055	-0.000075	-0.210965	-10.653423	-179.323296
23432	2.400653	-0.010007	12.888125	0.022860	-0.036941	3.297047	1.000000	-0.000004	0.000061	-0.000070	-0.211793	-10.650915	-179.333992
23433	2.399417	-0.002545	12.911762	0.028126	-0.044604	3.320021	1.000000	0.000009	0.000054	-0.000058	-0.211928	-10.649568	-179.340030
23434	2.384764	-0.039924	12.898136	0.039715	-0.006188	3.304057	1.000000	-0.000010	0.000068	-0.000093	-0.208824	-10.649370	-179.344939
23435	2.396102	-0.008809	12.888973	0.026819	-0.037475	3.297038	1.000000	0.000016	0.000048	-0.000074	-0.207751	-10.648778	-179.352850
23436	2.337345	-0.050243	12.928026	0.091568	0.004496	3.324708	1.000000	-0.000014	0.000053	-0.000074	-0.209666	-10.649511	-179.361736
23437	2.380888	-0.031709	12.922258	0.047675	-0.014793	3.327020	1.000000	0.000005	0.000050	-0.000080	-0.209768	-10.648650	-179.370291
23438	2.357495	-0.033354	12.948840	0.076002	-0.012746	3.348826	1.000000	0.000001	0.000042	-0.000056	-0.209362	-10.651081	-179.375851
23439	2.400845	-0.028821	12.896314	0.023791	-0.017768	3.305198	1.000000	0.000007	0.000040	-0.000079	-0.209283	-10.651437	-179.384229
23440	2.367755	-0.016051	12.893071	0.055976	-0.029567	3.295852	1.000000	-0.000001	0.000040	-0.000067	-0.207062	-10.652061	-179.389233
23441	2.385896	-0.065805	12.882746	0.035959	0.019806	3.289232	1.000000	0.000001	0.000030	-0.000066	-0.207872	-10.653596	-179.396113
23442	2.398114	-0.020783	12.920225	0.031953	-0.025712	3.328162	1.000000	-0.000010	0.000051	-0.000057	-0.209990	-10.655129	-179.402542
23443	2.396997	-0.020609	12.920432	0.033086	-0.026238	3.328158	1.000000	0.000001	0.000036	-0.000061	-0.210903	-10.655962	-179.408881
23444	2.408868	0.010370	12.911176	0.020434	-0.057054	3.321144	1.000000	0.000001	0.000036	-0.000061	-0.209729	-10.657855	-179.414225
23445	2.439900	-0.008828	12.891416	-0.013603	-0.038446	3.307531	1.000000	-0.000008	0.000028	-0.000065	-0.211620	-10.659621	-179.421035
23446	2.416630	-0.017654	12.894564	0.010272	-0.029718	3.306353	1.000000	0.000011	0.000038	-0.000062	-0.212061	-10.661290	-179.430505
23447	2.438164	-0.008030	12.891745	-0.011103	-0.039629	3.307530	1.000000	-0.000003	0.000032	-0.000083	-0.212966	-10.662601	-179.439353
23448	2.437400	-0.007684	12.891889	-0.010532	-0.039934	3.307529	1.000000	-0.000001	0.000028	-0.000076	-0.212777	-10.661944	-179.449909
23449	2.468766	-0.019631	12.895478	-0.040393	-0.028467	3.316902	1.000000	-0.000001	0.000028	-0.000076	-0.213597	-10.663722	-179.458040
23450	2.467963	-0.012219	12.919031	-0.034858	-0.035283	3.339875	1.000000	-0.000002	0.000051	-0.000069	-0.210976	-10.663852	-179.461189
23451	2.479466	0.011535	12.886453	-0.051938	-0.059428	3.309901	1.000000	-0.000010	0.000032	-0.000071	-0.212950	-10.665126	-179.468718
23452	2.456283	0.002827	12.889579	-0.027724	-0.050506	3.308717	1.000000	0.000020	0.000027	-0.000071	-0.211271	-10.669526	-179.477218
23453	2.487443	-0.009001	12.893218	-0.057577	-0.039041	3.318104	1.000000	-0.000010	0.000045	-0.000062	-0.213444	-10.669378	-179.483668
23454	2.486105	-0.016043	12.870080	-0.060020	-0.032171	3.295146	1.000000	-0.000010	0.000045	-0.000062	-0.214518	-10.671961	-179.488967
23455	2.462708	-0.017972	12.896639	-0.032179	-0.030455	3.316920	1.000000	-0.000001	0.000046	-0.000063	-0.215613	-10.671625	-179.495487
23456	2.483722	-0.015575	12.870540	-0.058216	-0.033173	3.295151	1.000000	0.000001	0.000048	-0.000052	-0.216508	-10.668999	-179.505106
23457	2.460192	-0.017278	12.897120	-0.030377	-0.031462	3.316922	1.000000	0.000007	0.000052	-0.000069	-0.216620	-10.667948	-179.512410
23458	2.458863	-0.017007	12.897374	-0.029481	-0.031932	3.316923	1.000000	-0.000010	0.000051	-0.000057	-0.218646	-10.666044	-179.521940
23459	2.466737	-0.052787	12.857377	-0.045233	0.003210	3.279205	1.000000	-0.000025	0.000062	-0.000075	-0.222276	-10.663918	-179.529928
23460	2.433314	-0.026254	12.900933	-0.004324	-0.023143	3.315725	1.000000	0.000005	0.000069	-0.000066	-0.220617	-10.662650	-179.535671
23461	2.463943	-0.038137	12.904699	-0.034171	-0.011683	3.325137	1.000000	-0.000003	0.000044	-0.000073	-0.221717	-10.662526	-179.543443
23462	2.420652	-0.011255	12.871655	0.003562	-0.038846	3.284551	1.000000	-0.000004	0.000061	-0.000070	-0.225043	-10.666459	-179.553749
23463	2.428841	-0.032605	12.878386	-0.003769	-0.018006	3.292763	1.000000	-0.000012	0.000055	-0.000063	-0.227440	-10.665147	-179.560367
23464	2.417880	-0.003803	12.895566	0.010569	-0.046913	3.307506	1.000000	0.000005	0.000057	-0.000075	-0.227011	-10.665904	-179.569903
23465	2.426102	-0.024898	12.902294	0.003244	-0.026076	3.315720	1.000000	-0.000003	0.000057	-0.000064	-0.228335	-10.664394	-179.576590
23466	2.392672	-0.012533	12.899037	0.035571	-0.038298	3.306286	1.000000	-0.000014	0.000047	-0.000079	-0.229294	-10.664974	-179.585272
23467	2.423391	-0.024262	12.902804	0.005742	-0.026845	3.315718	1.000000	0.000023	0.000060	-0.000077	-0.227373	-10.663072	-179.593422
23468	2.399778	-0.025897	12.929361	0.034482	-0.024652	3.337453	1.000000	-0.000010	0.000044	-0.000062	-0.227396	-10.666778	-179.597378
23469	2.365958	-0.027626	12.879390	0.058145	-0.022862	3.282094	1.000000	0.000003	0.000067	-0.000077	-0.227812	-10.664115	-179.605570
23470	2.396795	-0.025181	12.929916	0.037708	-0.025417	3.337442	1.000000	0.000007	0.000052	-0.000069	-0.226630	-10.667192	-179.610921
23471	2.385394	-0.024746	12.853617	0.034624	-0.025852	3.260351	1.000000	-0.000012	0.000049	-0.000068	-0.228932	-10.666670	-179.618081
23472	2.394057	-0.031751	12.907039	0.035593	-0.019440	3.314480	1.000000	0.000007	0.000052	-0.000069	-0.229558	-10.664876	-179.630051
23473	2.392814	-0.031357	12.907271	0.036747	-0.019978	3.314477	1.000000	-0.000003	0.000044	-0.000073	-0.230697	-10.664857	-179.637814
23474	2.391593	-0.031085	12.907498	0.038480	-0.020570	3.314471	1.000000	-0.000003	0.000051	-0.000069	-0.232194	-10.666661	-179.648256
23475	2.367973	-0.040073	12.910650	0.062143	-0.011727	3.313233	1.000000	-0.000003	0.000044	-0.000073	-0.233345	-10.666657	-179.656016
23476	2.411699	-0.014055	12.928383	0.022860	-0.038095	3.338647	1.000000	0.000009	0.000048	-0.000063	-0.232977	-10.667629	-179.663674
23477	2.388099	-0.037069	12.884766	0.038030	-0.014927	3.291507	1.000000	-0.000001	0.000028	-0.000076	-0.233852	-10.669561	-179.671792
23478	2.409822	-0.020373	12.905352	0.021155	-0.031434	3.315692	1.000000	-0.000001	0.000034	-0.000072	-0.232236	-10.671751	-179.675009
23479	2.421654	0.010669	12.896126	0.008273	-0.062729	3.308691	1.000000	-0.000003	0.000032	-0.000083	-0.233188	-10.673209	-179.683848
23480	2.430344	-0.017546	12.879405	-0.003022	-0.034324	3.293981	1.000000	-0.000001	0.000040	-0.000067	-0.232417	-10.674848	-179.689350
23481	2.429629	-0.010244	12.902920	0.002400	-0.042028	3.316927	1.000000	-0.000012	0.000024	-0.000087	-0.234345	-10.677246	-179.698661
23482	2.419177	0.004593	12.873210	0.007746	-0.056696	3.285736	1.000000	0.000024	0.000025	-0.000055	-0.232560	-10.679461	-179.707316
23483	2.450620	0.000257	12.900271	-0.017788	-0.052422	3.318172	1.000000	0.000009	0.000036	-0.000072	-0.232445	-10.680482	-179.714968
23484	2.449494	-0.006405	12.877106	-0.020966	-0.045535	3.295227	1.000000	-0.000003	0.000044	-0.000073	-0.232439	-10.680175	-179.724796
23485	2.448612	0.001008	12.900652	-0.015539	-0.053244	3.318171	1.000000	0.000003	0.000032	-0.000055	-0.233323	-10.681654	-179.730405
23486	2.447577	0.001195	12.900849	-0.014100	-0.053370	3.318173	1.000000	-0.000012	0.000049	-0.000068	-0.233805	-10.682381	-179.737051
23487	2.446258	-0.012826	12.854344	-0.021477	-0.039572	3.272284	1.000000	-0.000001	0.000040	-0.000067	-0.234863	-10.682898	-179.744097
23488	2.467565	0.003855	12.875022	-0.038089	-0.056241	3.296488	1.000000	-0.000003	0.000051	-0.000069	-0.234202	-10.684217	-179.749878
23489	2.466399	0.004146	12.875246	-0.036923	-0.056780	3.296489	1.000000	-0.000001	0.000040	-0.000067	-0.235257	-10.684747	-179.756926
23490	2.442974	0.001980	12.901721	-0.009095	-0.054668	3.318172	1.000000	-0.000021	0.000047	-0.000068	-0.236721	-10.683985	-179.764656
23491	2.473808	-0.016953	12.882168	-0.043161	-0.036059	3.304748	1.000000	0.000016	0.000048	-0.000074	-0.235703	-10.683602	-179.772558
23492	2.462639	-0.001987	12.852591	-0.038089	-0.050535	3.273553	1.000000	0.000005	0.000057	-0.000075	-0.234817	-10.681083	-179.783182
23493	2.458537	-0.046787	12.892047	-0.027042	-0.006128	3.311744	1.000000	-0.000010	0.000044	-0.000062	-0.237046	-10.681091	-179.789624
23494	2.470006	-0.008798	12.906272	-0.035557	-0.044341	3.327695	1.000000	-0.000003	0.000051	-0.000069	-0.237170	-10.680802	-179.798829
23495	2.446249	-0.010780	12.932797	-0.007603	-0.042669	3.349365	1.000000	-0.000005	0.000061	-0.000070	-0.238600	-10.678910	-179.806236
23496	2.454559	-0.046250	12.892807	-0.022664	-0.007427	3.311751	1.000000	-0.000012	0.000042	-0.000073	-0.240533	-10.682661	-179.813544
23497	2.443496	-0.017606	12.909947	-0.008756	-0.036509	3.326426	1.000000	-0.000003	0.000063	-0.000059	-0.241979	-10.680560	-179.819694
23498	2.419767	-0.033765	12.889713	0.011117	-0.020141	3.302212	1.000000	-0.000003	0.000038	-0.000078	-0.241503	-10.683528	-179.824977
23499	2.441086	-0.024135	12.887033	-0.010211	-0.030071	3.303489	1.000000	-0.000003	0.000044	-0.000073	-0.242650	-10.683604	-179.832743
23500	2.407481	-0.011817	12.883705	0.022394	-0.042858	3.293937	1.000000	-0.000003	0.000069	-0.000055	-0.245424	-10.682959	-179.841205
23501	2.393410	-0.035121	12.916706	0.041930	-0.019830	3.323857	1.000000	0.000008	0.000048	-0.000063	-0.245519	-10.682605	-179.847778
23502	2.404714	-0.003856	12.907590	0.029106	-0.051053	3.316863	1.000000	0.000007	0.000052	-0.000069	-0.245381	-10.682022	-179.856846
23503	2.400603	-0.048550	12.947040	0.040210	-0.006669	3.355055	1.000000	-0.000003	0.000051	-0.000069	-0.246650	-10.681399	-179.864068
23504	2.402139	-0.003085	12.908070	0.031311	-0.052090	3.316854	1.000000	0.000007	0.000046	-0.000074	-0.246492	-10.680633	-179.874686
23505	2.420481	-0.052600	12.897907	0.011300	-0.002731	3.310474	1.000000	-0.000007	0.000047	-0.000090	-0.247749	-10.680477	-179.884419
23506	2.386950	-0.033096	12.917907	0.047893	-0.022205	3.323833	1.000000	0.000005	0.000063	-0.000071	-0.247110	-10.679170	-179.892398
23507	2.408026	-0.030442	12.891920	0.022256	-0.024957	3.302190	1.000000	0.000001	0.000036	-0.000061	-0.248109	-10.680238	-179.898720
23508	2.397100	-0.008758	12.885643	0.031722	-0.046505	3.293906	1.000000	-0.000007	0.000053	-0.000086	-0.247861	-10.678723	-179.907719
23509	2.405736	-0.022920	12.915713	0.028780	-0.032878	3.325114	1.000000	-0.000010	0.000038	-0.000067	-0.250026	-10.679517	-179.914692
23510	2.382312	-0.032121	12.918765	0.052431	-0.024128	3.323812	1.000000	-0.000003	0.000044	-0.000073	-0.251596	-10.679507	-179.926739
23511	2.403648	-0.022329	12.916103	0.031108	-0.034066	3.325105	1.000000	0.000008	0.000036	-0.000072	-0.251516	-10.680594	-179.934382
23512	2.392814	-0.007601	12.886440	0.036235	-0.048832	3.293886	1.000000	-0.000003	0.000044	-0.000073	-0.252900	-10.680020	-179.947817
23513	2.433640	-0.040735	12.896790	-0.001952	-0.016050	3.311763	1.000000	-0.000003	0.000044	-0.000073	-0.254098	-10.680112	-179.955570
23514	2.390777	-0.014225	12.863457	0.034223	-0.043250	3.270947	1.000000	-0.000010	0.000026	-0.000076	-0.258334	-10.682237	-179.971790
23515	2.421987	-0.011863	12.914006	0.013126	-0.046217	3.326391	1.000000	0.000001	0.000048	-0.000052	-0.259573	-10.681857	-179.977023
23516	2.411267	-0.004331	12.860960	0.014105	-0.053605	3.272245	1.000000	0.000001	0.000023	-0.000070	-0.259789	-10.684554	-179.987054
23517	2.442582	-0.001693	12.911493	-0.006982	-0.056577	3.327694	1.000000	0.000008	0.000042	-0.000068	-0.259846	-10.684918	-179.994148
23518	2.441413	-0.015471	12.864996	-0.014214	-0.042417	3.281848	1.000000	-0.000003	0.000050	-0.000069	-0.259717	-10.685453	179.997443
23519	2.462656	0.008403	12.909085	-0.026867	-0.066752	3.329004	1.000000	-0.000001	0.000034	-0.000072	-0.260751	-10.686758	179.989877
23520	2.461721	0.001631	12.885905	-0.030429	-0.060428	3.306080	1.000000	-0.000001	0.000040	-0.000067	-0.263316	-10.685623	179.975117
23521	2.438304	-0.014567	12.865586	-0.011095	-0.044412	3.281844	1.000000	-0.000003	0.000044	-0.000073	-0.264557	-10.685714	179.967375
23522	2.459501	0.009314	12.909686	-0.024013	-0.068469	3.329001	1.000000	0.000001	0.000042	-0.000056	-0.264442	-10.684870	179.959740
23523	2.468211	-0.011896	12.916400	-0.031256	-0.047674	3.337307	1.000000	-0.000010	0.000044	-0.000062	-0.266771	-10.684933	179.953322
23524	2.457378	0.002579	12.886734	-0.025439	-0.062239	3.306082	1.000000	0.000001	0.000036	-0.000061	-0.267141	-10.688508	179.946711
23525	2.443862	-0.035001	12.872899	-0.014526	-0.024863	3.290152	1.000000	-0.000003	0.000044	-0.000073	-0.268387	-10.688610	179.938970
23526	2.452444	-0.049140	12.902995	-0.017482	-0.011092	3.321381	1.000000	-0.000010	0.000051	-0.000057	-0.270025	-10.687680	179.929242
23527	2.453797	0.003297	12.887416	-0.021986	-0.063753	3.306081	1.000000	0.000006	0.000052	-0.000069	-0.270299	-10.686846	179.921973
23528	2.439964	-0.027120	12.896995	-0.006399	-0.033107	3.313069	1.000000	-0.000003	0.000050	-0.000069	-0.269529	-10.687634	179.915921
23529	2.461106	-0.024636	12.871050	-0.032082	-0.035845	3.291482	1.000000	-0.000008	0.000046	-0.000051	-0.271872	-10.687484	179.910760
23530	2.437632	-0.026925	12.897436	-0.004434	-0.034462	3.313067	1.000000	-0.000010	0.000038	-0.000067	-0.275117	-10.686605	179.901141
23531	2.458816	-0.010111	12.918193	-0.021400	-0.051618	3.337311	1.000000	0.000008	0.000048	-0.000063	-0.275308	-10.686256	179.894594
23532	2.425380	-0.005002	12.891384	0.005794	-0.057248	3.304742	1.000000	-0.000014	0.000053	-0.000074	-0.279155	-10.683078	179.880999
23533	2.424081	-0.011845	12.868277	0.002602	-0.050607	3.281826	1.000000	0.000006	0.000052	-0.000069	-0.279452	-10.682233	179.873738
23534	2.432390	-0.025647	12.898428	-0.000256	-0.036896	3.313061	1.000000	0.000004	0.000063	-0.000071	-0.279333	-10.680246	179.866979
23535	2.408530	-0.027644	12.924871	0.027785	-0.035305	3.334634	1.000000	-0.000003	0.000050	-0.000069	-0.280710	-10.679619	179.859785
23536	2.429633	-0.025031	12.898949	0.002081	-0.038235	3.313057	1.000000	-0.000003	0.000050	-0.000069	-0.282962	-10.678975	179.852317
23537	2.418613	-0.003387	12.892655	0.011657	-0.060165	3.304725	1.000000	-0.000001	0.000040	-0.000067	-0.284158	-10.679555	179.845307
23538	2.427380	-0.031563	12.876026	0.000120	-0.032030	3.290144	1.000000	-0.000003	0.000050	-0.000069	-0.284939	-10.679230	179.839532
23539	2.403552	-0.019363	12.949148	0.036920	-0.044879	3.357525	1.000000	0.000008	0.000048	-0.000063	-0.285162	-10.678879	179.832995
23540	2.402328	-0.040279	12.879334	0.024986	-0.023516	3.288796	1.000000	-0.000007	0.000065	-0.000076	-0.285578	-10.676678	179.826803
23541	2.391081	-0.004476	12.919768	0.043322	-0.059881	3.326271	1.000000	0.000001	0.000029	-0.000066	-0.286583	-10.678469	179.819976
23542	2.422532	-0.030108	12.876943	0.004778	-0.033894	3.290139	1.000000	0.000008	0.000042	-0.000068	-0.286038	-10.678622	179.812458
23543	2.408935	-0.053424	12.909810	0.024433	-0.010957	3.320031	1.000000	-0.000001	0.000040	-0.000067	-0.287239	-10.679210	179.805450
23544	2.410438	-0.000954	12.894187	0.020199	-0.063278	3.304700	1.000000	-0.000003	0.000044	-0.000073	-0.287019	-10.680580	179.798837
23545	2.406859	-0.052839	12.910200	0.027071	-0.011769	3.320026	1.000000	-0.000001	0.000034	-0.000072	-0.288117	-10.681897	179.791292
23546	2.430625	0.009230	12.891804	-0.000218	-0.073665	3.306047	1.000000	0.000008	0.000054	-0.000059	-0.287811	-10.679679	179.783770
23547	2.426949	-0.042666	12.907838	0.006657	-0.022159	3.321377	1.000000	-0.000010	0.000032	-0.000071	-0.289989	-10.681207	179.776291
23548	2.438573	-0.011873	12.898690	-0.005852	-0.053259	3.314388	1.000000	-0.000018	0.000032	-0.000060	-0.292324	-10.684541	179.770548
23549	2.415327	-0.028149	12.878300	0.013424	-0.037230	3.290124	1.000000	0.000016	0.000048	-0.000074	-0.291467	-10.684230	179.762691
23550	2.436412	-0.011040	12.899099	-0.003496	-0.054002	3.314386	1.000000	-0.000001	0.000040	-0.000067	-0.290837	-10.684829	179.759163
23551	2.435383	-0.010739	12.899294	-0.002320	-0.054578	3.314384	1.000000	-0.000001	0.000040	-0.000067	-0.292038	-10.685435	179.752155
23552	2.456765	-0.007911	12.873359	-0.028078	-0.057086	3.292849	1.000000	0.000008	0.000042	-0.000068	-0.291153	-10.685668	179.748264
23553	2.443119	-0.031128	12.906229	-0.008397	-0.034156	3.322735	1.000000	0.000004	0.000044	-0.000085	-0.291358	-10.685816	179.739214
23554	2.432116	-0.009375	12.899911	0.000935	-0.056106	3.314378	1.000000	0.000001	0.000042	-0.000056	-0.292696	-10.685125	179.733089
23555	2.453337	-0.006691	12.874013	-0.024797	-0.058840	3.292848	1.000000	-0.000007	0.000053	-0.000086	-0.294179	-10.684283	179.723924
23556	2.452489	-0.013475	12.850838	-0.028250	-0.052232	3.269949	1.000000	0.000001	0.000023	-0.000070	-0.295303	-10.685875	179.716695
23557	2.438826	-0.029714	12.907044	-0.004148	-0.036541	3.322730	1.000000	0.000008	0.000054	-0.000059	-0.295645	-10.684822	179.710702
23558	2.449749	0.008481	12.921370	-0.012677	-0.075096	3.338637	1.000000	-0.000010	0.000051	-0.000057	-0.298194	-10.684113	179.704612
23559	2.458680	-0.026766	12.881415	-0.028732	-0.039865	3.301209	1.000000	0.000006	0.000046	-0.000074	-0.298429	-10.684019	179.696826
23560	2.434990	-0.028807	12.907770	-0.000617	-0.038431	3.322725	1.000000	-0.000003	0.000050	-0.000069	-0.300463	-10.683535	179.689324
23561	2.478319	-0.009251	12.902507	-0.044432	-0.057787	3.325483	1.000000	0.000017	0.000050	-0.000064	-0.299642	-10.682989	179.682734
23562	2.422652	-0.006437	12.901694	0.009941	-0.060785	3.314353	1.000000	-0.000003	0.000038	-0.000078	-0.300169	-10.683015	179.674176
23563	2.476129	-0.008418	12.902928	-0.042266	-0.058798	3.325486	1.000000	-0.000003	0.000044	-0.000073	-0.301492	-10.683138	179.666459
23564	2.430365	-0.034437	12.885312	-0.000365	-0.033227	3.299827	1.000000	-0.000010	0.000057	-0.000053	-0.303473	-10.682518	179.663089
23565	2.441247	0.003889	12.899645	-0.008862	-0.071780	3.315729	1.000000	0.000015	0.000048	-0.000075	-0.302646	-10.682212	179.655244
23566	2.450005	-0.024150	12.883073	-0.020773	-0.043508	3.301212	1.000000	-0.000012	0.000055	-0.000064	-0.304040	-10.679958	179.649342
23567	2.394010	-0.014687	12.905624	0.038214	-0.053896	3.312947	1.000000	-0.000001	0.000046	-0.000063	-0.305377	-10.679844	179.642885
23568	2.415318	-0.019072	12.856408	0.007994	-0.049219	3.268554	1.000000	-0.000003	0.000057	-0.000064	-0.306166	-10.678413	179.636541
23569	2.423538	-0.025977	12.909932	0.009654	-0.042944	3.322708	1.000000	-0.000003	0.000050	-0.000069	-0.307598	-10.677817	179.629364
23570	2.422410	-0.032936	12.886814	0.006618	-0.036106	3.299818	1.000000	-0.000010	0.000051	-0.000057	-0.309311	-10.678205	179.624796
23571	2.411194	-0.004243	12.903841	0.020625	-0.065274	3.314319	1.000000	0.000008	0.000036	-0.000072	-0.309369	-10.679322	179.617201
23572	2.410342	-0.011037	12.880672	0.017327	-0.058703	3.291428	1.000000	-0.000010	0.000044	-0.000062	-0.312187	-10.679325	179.609735
23573	2.396631	-0.041796	12.890197	0.032606	-0.028559	3.298411	1.000000	-0.000005	0.000061	-0.000070	-0.313827	-10.677534	179.602379
23574	2.439376	-0.008148	12.931747	-0.002715	-0.062380	3.346978	1.000000	0.000008	0.000054	-0.000059	-0.314044	-10.674698	179.594614
23575	2.383728	-0.012669	12.907529	0.047380	-0.058281	3.312898	1.000000	-0.000001	0.000046	-0.000063	-0.315399	-10.674584	179.588164
23576	2.437292	-0.021665	12.885489	-0.009504	-0.049272	3.301205	1.000000	-0.000003	0.000044	-0.000073	-0.317695	-10.673703	179.578745
23577	2.391539	-0.040663	12.891147	0.036652	-0.031082	3.298394	1.000000	-0.000014	0.000046	-0.000079	-0.320219	-10.673561	179.570384
23578	2.434992	-0.021365	12.885924	-0.007257	-0.050006	3.301203	1.000000	0.000001	0.000042	-0.000056	-0.319505	-10.673486	179.566682
23579	2.411704	-0.030514	12.888828	0.016406	-0.041204	3.299794	1.000000	0.000008	0.000036	-0.000072	-0.319582	-10.674592	179.559095
23580	2.410732	-0.030218	12.889011	0.017315	-0.041436	3.299792	1.000000	-0.000014	0.000040	-0.000084	-0.320414	-10.674015	179.548699
23581	2.409393	-0.022859	12.912585	0.022947	-0.049277	3.322669	1.000000	0.000008	0.000048	-0.000063	-0.320698	-10.673675	179.542186
23582	2.408205	-0.022467	12.912807	0.023950	-0.049060	3.322668	1.000000	-0.000003	0.000044	-0.000073	-0.318467	-10.673008	179.538332
23583	2.429542	-0.019692	12.886955	-0.001838	-0.051787	3.301198	1.000000	-0.000001	0.000046	-0.000063	-0.319816	-10.672884	179.531879
23584	2.438241	-0.033613	12.917070	-0.004720	-0.038076	3.332478	1.000000	0.000001	0.000036	-0.000061	-0.320011	-10.673349	179.524031
23585	2.449806	-0.009373	12.884634	-0.022130	-0.062137	3.302612	1.000000	0.000006	0.000040	-0.000079	-0.320171	-10.673964	179.515720
23586	2.413996	-0.049353	12.896824	0.015582	-0.022184	3.308180	1.000000	0.000008	0.000054	-0.000059	-0.318691	-10.672639	179.512295
23587	2.457460	-0.029867	12.891632	-0.028228	-0.041560	3.311018	1.000000	-0.000010	0.000032	-0.000071	-0.320904	-10.674173	179.504831
23588	2.423950	-0.010911	12.911330	0.008645	-0.061024	3.324066	1.000000	0.000001	0.000048	-0.000052	-0.320838	-10.675345	179.502080
23589	2.454939	-0.022217	12.915432	-0.021052	-0.049674	3.333897	1.000000	0.000004	0.000050	-0.000080	-0.321192	-10.674767	179.493584
23590	2.443484	0.006551	12.932470	-0.007035	-0.078180	3.348364	1.000000	-0.000001	0.000046	-0.000063	-0.319549	-10.674527	179.489554
23591	2.442732	-0.007482	12.885978	-0.014833	-0.064250	3.302612	1.000000	-0.000013	0.000048	-0.000068	-0.322057	-10.674147	179.482442
23592	2.441834	-0.014415	12.862832	-0.018195	-0.057930	3.279735	1.000000	-0.000001	0.000040	-0.000067	-0.324880	-10.674574	179.475097
23593	2.427793	-0.030769	12.919045	0.006060	-0.042308	3.332465	1.000000	0.000006	0.000059	-0.000065	-0.325355	-10.673038	179.468399
23594	2.471103	-0.011262	12.913909	-0.037870	-0.061767	3.335327	1.000000	-0.000011	0.000038	-0.000067	-0.328023	-10.673308	179.460675
23595	2.437779	0.000568	12.910231	-0.005833	-0.074290	3.325474	1.000000	-0.000003	0.000044	-0.000073	-0.329370	-10.673431	179.452970
23596	2.436732	-0.006146	12.887115	-0.008651	-0.067407	3.302602	1.000000	0.000004	0.000057	-0.000075	-0.328890	-10.674332	179.448425
23597	2.445149	-0.019973	12.917292	-0.011358	-0.053931	3.333892	1.000000	-0.000001	0.000046	-0.000063	-0.330250	-10.674225	179.441978
23598	2.411895	-0.015149	12.890276	0.015895	-0.058648	3.301160	1.000000	-0.000003	0.000050	-0.000069	-0.329321	-10.672366	179.436717
23599	2.443076	-0.033642	12.871061	-0.018301	-0.040043	3.288153	1.000000	-0.000005	0.000055	-0.000075	-0.330864	-10.671294	179.428826
23600	2.431116	0.002038	12.911488	-0.000062	-0.076319	3.325464	1.000000	-0.000003	0.000057	-0.000064	-0.331677	-10.668587	179.422071
23601	2.407974	-0.021672	12.867698	0.014580	-0.052974	3.278281	1.000000	-0.000015	0.000053	-0.000074	-0.334297	-10.667730	179.414245
23602	2.448930	-0.047336	12.901729	-0.018883	-0.027319	3.319449	1.000000	0.000001	0.000029	-0.000066	-0.334193	-10.669942	179.411817
23603	2.415503	-0.035062	12.898044	0.013148	-0.039831	3.309571	1.000000	0.000023	0.000060	-0.000077	-0.332513	-10.668211	179.403740
23604	2.436316	-0.024940	12.895655	-0.007915	-0.049501	3.311019	1.000000	-0.000015	0.000053	-0.000074	-0.333688	-10.668435	179.398075
23605	2.424954	-0.003306	12.889337	0.001633	-0.071414	3.302583	1.000000	0.000013	0.000052	-0.000081	-0.332977	-10.667649	179.389523
23606	2.413020	0.032749	12.929739	0.020265	-0.108063	3.339871	1.000000	0.000006	0.000052	-0.000069	-0.334230	-10.667064	179.382603
23607	2.402174	0.047213	12.900010	0.025293	-0.122707	3.308563	1.000000	-0.000009	0.000034	-0.000061	-0.336469	-10.668380	179.376407
23608	2.388923	0.016323	12.909428	0.040335	-0.092599	3.315539	1.000000	-0.000011	0.000044	-0.000062	-0.339053	-10.667480	179.367084
23609	2.387969	0.009369	12.886297	0.036982	-0.085917	3.292670	1.000000	-0.000001	0.000052	-0.000058	-0.340530	-10.666651	179.361181
23610	2.418892	0.004763	12.913782	0.011873	-0.081763	3.325426	1.000000	-0.000033	0.000030	-0.000087	-0.344543	-10.668624	179.351335
23611	2.428723	-0.030848	12.873784	-0.004385	-0.046483	3.288144	1.000000	-0.000011	0.000032	-0.000071	-0.346781	-10.670179	179.343885
23612	2.447368	-0.059136	12.933814	-0.010710	-0.018377	3.350755	1.000000	-0.000011	0.000032	-0.000071	-0.346315	-10.672518	179.338582
23613	2.466688	-0.108582	12.923806	-0.030812	0.030949	3.344789	1.000000	-0.000003	0.000050	-0.000069	-0.347780	-10.671936	179.331421
23614	2.487631	-0.098529	12.921417	-0.052289	0.021296	3.346258	1.000000	0.000000	0.000052	-0.000097	-0.346707	-10.670378	179.320689
23615	2.484749	-0.164290	12.890752	-0.054451	0.087307	3.315979	1.000000	0.000013	0.000052	-0.000081	-0.346011	-10.669594	179.312144
23616	2.473342	-0.141926	12.884448	-0.044803	0.065835	3.307534	1.000000	0.000039	0.000056	-0.000093	-0.340100	-10.668855	179.304085
23617	2.429531	-0.107779	12.874213	-0.004414	0.032012	3.289165	1.000000	0.000030	0.000060	-0.000088	-0.337348	-10.667152	179.294693
23618	2.440555	-0.082464	12.841926	-0.021815	0.008208	3.259330	1.000000	0.000048	0.000058	-0.000094	-0.331282	-10.666092	179.287193
23619	2.428291	-0.045593	12.882361	-0.003187	-0.028260	3.296588	1.000000	0.000034	0.000064	-0.000066	-0.328554	-10.663909	179.280319
23620	2.396259	0.026454	12.886237	0.027520	-0.099920	3.294072	1.000000	0.000038	0.000056	-0.000054	-0.324903	-10.662145	179.276330
23621	2.374291	0.077135	12.896687	0.049978	-0.150428	3.300002	1.000000	0.000030	0.000062	-0.000038	-0.323179	-10.660180	179.272758
23622	2.363124	0.092028	12.866994	0.055128	-0.164873	3.268678	1.000000	0.000016	0.000050	-0.000025	-0.322605	-10.660306	179.272315
23623	2.393371	0.095066	12.917934	0.034561	-0.168123	3.324315	1.000000	0.000008	0.000056	-0.000009	-0.324033	-10.659006	179.272169
23624	2.402525	0.066884	12.901405	0.022547	-0.139924	3.309918	1.000000	-0.000003	0.000040	-0.000028	-0.325471	-10.658469	179.268065
23625	2.379280	0.057364	12.904211	0.046196	-0.131103	3.308425	1.000000	0.000008	0.000037	-0.000023	-0.326579	-10.659325	179.266309
23626	2.442604	0.041341	12.935706	-0.009703	-0.114883	3.351173	1.000000	-0.000029	0.000034	-0.000066	-0.329772	-10.660814	179.262774
23627	2.461870	-0.001079	12.949069	-0.025262	-0.072846	3.368104	1.000000	0.000004	0.000031	-0.000094	-0.329830	-10.662417	179.252683
23628	2.461243	-0.007887	12.925897	-0.028573	-0.065972	3.345254	1.000000	-0.000022	0.000044	-0.000118	-0.331601	-10.662859	179.243564
23629	2.471134	-0.050169	12.862661	-0.049473	-0.023390	3.285178	1.000000	-0.000006	0.000053	-0.000125	-0.332139	-10.662066	179.229865
23630	2.424866	-0.055078	12.914807	0.005470	-0.019714	3.327892	1.000000	-0.000015	0.000032	-0.000138	-0.333401	-10.662267	179.211406
23631	2.454611	-0.125474	12.911419	-0.023026	0.050921	3.330465	1.000000	-0.000010	0.000036	-0.000156	-0.333708	-10.663394	179.194117
23632	2.433394	-0.082269	12.898418	-0.005158	0.007626	3.313518	1.000000	0.000011	0.000048	-0.000141	-0.332326	-10.662991	179.181273
23633	2.421028	-0.133451	12.837813	-0.003608	0.059633	3.251962	1.000000	0.000022	0.000058	-0.000127	-0.329659	-10.661530	179.167394
23634	2.507867	-0.079398	12.874375	-0.083434	0.007104	3.303647	1.000000	-0.000000	0.000046	-0.000102	-0.328662	-10.660355	179.153539
23635	2.441159	-0.041422	12.913335	-0.011432	-0.031870	3.329384	1.000000	0.000037	0.000056	-0.000054	-0.325766	-10.659120	179.148120
23636	2.431328	0.033069	12.891239	-0.007376	-0.105822	3.305439	1.000000	0.000030	0.000081	-0.000024	-0.324391	-10.656161	179.150000
23637	2.504794	-0.017575	12.882842	-0.080829	-0.054028	3.311050	1.000000	0.000006	0.000048	-0.000024	-0.325722	-10.655817	179.148071
23638	2.448435	-0.008408	12.905049	-0.021810	-0.064531	3.322401	1.000000	0.000021	0.000062	0.000012	-0.326728	-10.653603	179.152350
23639	2.426134	0.041604	12.915496	0.000674	-0.115045	3.328266	1.000000	0.000023	0.000071	0.000028	-0.327255	-10.650630	179.156472
23640	2.327852	0.069223	12.880369	0.089478	-0.143537	3.275436	1.000000	0.000008	0.000063	-0.000004	-0.326706	-10.647348	179.155879
23641	2.412787	0.063531	12.909484	0.011094	-0.137070	3.319770	1.000000	0.000015	0.000056	-0.000020	-0.327073	-10.646056	179.154428
23642	2.314235	0.098356	12.897661	0.104470	-0.173418	3.289756	1.000000	0.000008	0.000067	-0.000049	-0.328115	-10.642295	179.149125
23643	2.367390	0.096891	12.899370	0.052330	-0.171546	3.301256	1.000000	-0.000015	0.000040	-0.000084	-0.330564	-10.642892	179.140245
23644	2.343548	0.094453	12.925526	0.080519	-0.169751	3.322572	1.000000	-0.000000	0.000052	-0.000097	-0.329856	-10.641837	179.131242
23645	2.299039	0.060853	12.884128	0.117430	-0.136904	3.273852	1.000000	-0.000028	0.000015	-0.000119	-0.333030	-10.645303	179.118294
23646	2.429756	0.067269	12.884604	-0.010240	-0.141721	3.298417	1.000000	-0.000024	0.000030	-0.000138	-0.334193	-10.648113	179.107567
23647	2.382521	-0.004602	12.905725	0.041620	-0.071439	3.310854	1.000000	-0.000030	0.000032	-0.000116	-0.337682	-10.649665	179.094971
23648	2.372163	0.009202	12.875868	0.046588	-0.085869	3.279511	1.000000	-0.000037	0.000019	-0.000114	-0.341290	-10.652830	179.085218
23649	2.543352	-0.069337	12.902858	-0.114756	-0.005764	3.338129	1.000000	-0.000022	0.000028	-0.000082	-0.344611	-10.654859	179.076587
23650	2.370602	0.008696	12.876156	0.049438	-0.087180	3.279492	1.000000	-0.000022	0.000046	-0.000068	-0.348763	-10.656999	179.074127
23651	2.531169	-0.048903	12.896638	-0.103539	-0.028401	3.329647	1.000000	-0.000044	0.000040	-0.000039	-0.355564	-10.657539	179.070534
23652	2.366706	-0.044907	12.892317	0.057532	-0.036124	3.294965	1.000000	-0.000029	0.000023	-0.000025	-0.359908	-10.660040	179.070843
23653	2.451610	-0.124697	12.867118	-0.028916	0.044241	3.286391	1.000000	-0.000010	0.000046	-0.000012	-0.363417	-10.659906	179.070311
23654	2.426906	-0.113460	12.939979	0.008297	0.031392	3.353358	1.000000	-0.000010	0.000046	-0.000012	-0.365843	-10.658497	179.070736
23655	2.469090	-0.160314	12.904162	-0.038966	0.078579	3.326255	1.000000	-0.000005	0.000044	-0.000034	-0.368254	-10.658622	179.067626
23656	2.469400	-0.100607	12.911955	-0.038884	0.018707	3.333597	1.000000	0.000023	0.000050	-0.000036	-0.367133	-10.658241	179.065447
23657	2.404077	-0.084121	12.880670	0.019307	0.001676	3.290669	1.000000	0.000021	0.000035	-0.000056	-0.366096	-10.659381	179.059824
23658	2.502551	0.008065	12.931567	-0.069480	-0.088929	3.358323	1.000000	0.000004	0.000050	-0.000080	-0.364797	-10.659349	179.054585
23659	2.415135	0.007681	12.879522	0.006540	-0.089210	3.291015	1.000000	0.000030	0.000060	-0.000088	-0.362098	-10.657652	179.045228
23660	2.447609	0.056581	12.891405	-0.024372	-0.137222	3.308399	1.000000	0.000011	0.000044	-0.000096	-0.361061	-10.657238	179.033468
23661	2.414229	0.068475	12.887516	0.007619	-0.149690	3.298330	1.000000	-0.000005	0.000036	-0.000089	-0.362343	-10.658354	179.024004
23662	2.336467	0.060573	12.888707	0.084175	-0.143140	3.285172	1.000000	0.000002	0.000042	-0.000096	-0.361982	-10.657189	179.010839
23663	2.541543	0.023597	12.904256	-0.113694	-0.103275	3.338595	1.000000	-0.000022	0.000040	-0.000073	-0.365535	-10.657784	179.003294
23664	2.421779	0.040535	12.871361	-0.002042	-0.122682	3.284012	1.000000	-0.000020	0.000036	-0.000066	-0.368778	-10.659711	178.999408
23665	2.440996	-0.002064	12.884829	-0.017586	-0.080693	3.301063	1.000000	-0.000020	0.000048	-0.000057	-0.372457	-10.659347	178.993661
23666	2.512905	-0.098625	12.915648	-0.080592	0.015834	3.345262	1.000000	-0.000037	0.000034	-0.000055	-0.377686	-10.660893	178.988232
23667	2.490191	-0.115753	12.895014	-0.061608	0.031980	3.320896	1.000000	-0.000004	0.000044	-0.000074	-0.379100	-10.661047	178.980571
23668	2.500075	-0.151219	12.855163	-0.078268	0.067605	3.283792	1.000000	-0.000030	0.000053	-0.000052	-0.382666	-10.659417	178.975131
23669	2.517836	-0.179358	12.915457	-0.084502	0.094946	3.346513	1.000000	0.000009	0.000073	-0.000084	-0.382449	-10.656245	178.966255
23670	2.441428	-0.134695	12.900918	-0.013223	0.049515	3.317803	1.000000	0.000022	0.000048	-0.000086	-0.379778	-10.656529	178.960328
23671	2.442217	-0.088498	12.862069	-0.022473	0.004210	3.279469	1.000000	0.000025	0.000075	-0.000096	-0.377405	-10.653154	178.950074
23672	2.365030	-0.036468	12.870904	0.053364	-0.048234	3.273553	1.000000	0.000029	0.000067	-0.000083	-0.372657	-10.650838	178.941812
23673	2.363490	-0.035043	12.871191	0.054527	-0.048837	3.273546	1.000000	0.000050	0.000054	-0.000087	-0.367623	-10.649889	178.932533
23674	2.395585	0.014124	12.883167	0.024025	-0.097102	3.290939	1.000000	0.000007	0.000071	-0.000095	-0.368153	-10.648032	178.924235
23675	2.352272	0.113793	12.903591	0.067929	-0.197523	3.302387	1.000000	0.000026	0.000052	-0.000064	-0.366370	-10.647274	178.917659
23676	2.383954	0.096168	12.884580	0.033691	-0.178871	3.289670	1.000000	0.000012	0.000040	-0.000051	-0.366196	-10.648181	178.917427
23677	2.414748	0.092377	12.912267	0.008719	-0.174955	3.322589	1.000000	0.000000	0.000042	-0.000057	-0.367535	-10.648576	178.911756
23678	2.435760	0.102406	12.909975	-0.012839	-0.184985	3.324150	1.000000	-0.000007	0.000048	-0.000041	-0.370015	-10.647085	178.906202
23679	2.433960	0.109375	12.933575	-0.006995	-0.192923	3.346956	1.000000	-0.000018	0.000050	-0.000046	-0.373725	-10.646485	178.901726
23680	2.389407	0.075067	12.892104	0.029705	-0.159559	3.298183	1.000000	-0.000026	0.000044	-0.000040	-0.376490	-10.646369	178.900159
23681	2.396035	0.008399	12.938143	0.032963	-0.094191	3.345072	1.000000	-0.000018	0.000050	-0.000046	-0.380198	-10.645769	178.895683
23682	2.363199	0.005204	12.887558	0.055537	-0.091808	3.289312	1.000000	-0.000027	0.000067	-0.000071	-0.383528	-10.643075	178.888454
23683	2.361868	0.004795	12.887802	0.056701	-0.092414	3.289303	1.000000	-0.000033	0.000036	-0.000083	-0.388162	-10.644152	178.879723
23684	2.337031	-0.057412	12.906250	0.086110	-0.031475	3.303253	1.000000	-0.000003	0.000031	-0.000083	-0.388986	-10.645839	178.872976
23685	2.336147	-0.057259	12.906410	0.087275	-0.032082	3.303244	1.000000	-0.000017	0.000038	-0.000095	-0.391466	-10.646712	178.862869
23686	2.359831	-0.002039	12.864916	0.055447	-0.086486	3.266468	1.000000	-0.000003	0.000025	-0.000088	-0.391111	-10.648659	178.852795
23687	2.390501	0.001080	12.915908	0.035191	-0.089923	3.322222	1.000000	-0.000013	0.000023	-0.000087	-0.393281	-10.651207	178.843599
23688	2.412699	0.004025	12.890157	0.009403	-0.092532	3.300994	1.000000	-0.000007	0.000017	-0.000064	-0.394774	-10.655303	178.840538
23689	2.433809	0.021268	12.911124	-0.007190	-0.109924	3.325382	1.000000	0.000001	0.000023	-0.000071	-0.395788	-10.657863	178.833269
23690	2.433181	0.021250	12.911243	-0.005998	-0.109979	3.325383	1.000000	-0.000025	0.000025	-0.000054	-0.397675	-10.660192	178.827243
23691	2.487440	0.012937	12.889725	-0.062791	-0.100860	3.314323	1.000000	0.000012	0.000040	-0.000051	-0.397849	-10.660841	178.822247
23692	2.495791	0.005788	12.943241	-0.060821	-0.094418	3.368506	1.000000	-0.000040	0.000019	-0.000036	-0.402310	-10.662637	178.816805
23693	2.474021	-0.018686	12.899141	-0.046605	-0.070905	3.321305	1.000000	-0.000007	0.000036	-0.000050	-0.404625	-10.663733	178.811928
23694	2.473605	-0.025830	12.875967	-0.050224	-0.063837	3.298504	1.000000	-0.000016	0.000040	-0.000045	-0.406630	-10.663965	178.808141
23695	2.448823	-0.088169	12.894395	-0.020834	-0.002989	3.312460	1.000000	-0.000014	0.000029	-0.000043	-0.409918	-10.665763	178.804047
23696	2.470637	-0.085370	12.868733	-0.046739	-0.005735	3.291259	1.000000	-0.000007	0.000042	-0.000045	-0.412480	-10.666574	178.801488
23697	2.446786	-0.088200	12.894782	-0.018407	-0.004240	3.312463	1.000000	-0.000009	0.000046	-0.000051	-0.415011	-10.666474	178.796428
23698	2.456561	-0.116389	12.878267	-0.030270	0.023846	3.298244	1.000000	-0.000015	0.000034	-0.000089	-0.417067	-10.667959	178.789078
23699	2.444514	-0.088057	12.895214	-0.016046	-0.005388	3.312466	1.000000	-0.000008	0.000065	-0.000077	-0.418925	-10.665727	178.781066
23700	2.454039	-0.115793	12.878753	-0.027856	0.022966	3.298251	1.000000	0.000015	0.000035	-0.000084	-0.416455	-10.667248	178.777462
23701	2.497139	-0.095279	12.874061	-0.071598	0.003453	3.301469	1.000000	0.000001	0.000061	-0.000082	-0.417129	-10.665514	178.768856
23702	2.462811	-0.076416	12.893493	-0.034665	-0.016050	3.314079	1.000000	0.000013	0.000046	-0.000085	-0.415134	-10.666528	178.761967
23703	2.460977	-0.068603	12.917096	-0.028771	-0.024008	3.336878	1.000000	0.000013	0.000052	-0.000081	-0.414524	-10.665770	178.753490
23704	2.472061	-0.043868	12.884892	-0.046399	-0.047757	3.307107	1.000000	0.000013	0.000058	-0.000076	-0.412930	-10.664456	178.747590
23705	2.459835	-0.015063	12.901858	-0.032158	-0.076992	3.321314	1.000000	0.000003	0.000050	-0.000080	-0.413394	-10.663925	178.739174
23706	2.426091	-0.003537	12.897907	-0.000081	-0.089208	3.311107	1.000000	-0.000000	0.000054	-0.000047	-0.414000	-10.663351	178.738627
23707	2.402898	-0.020146	12.877308	0.018797	-0.073013	3.286691	1.000000	0.000014	0.000073	-0.000056	-0.413745	-10.660186	178.733023
23708	2.412409	-0.047882	12.860866	0.006981	-0.045038	3.272488	1.000000	-0.000004	0.000031	-0.000083	-0.415133	-10.662252	178.726147
23709	2.399879	-0.012210	12.901118	0.025972	-0.081625	3.309472	1.000000	0.000005	0.000052	-0.000069	-0.415617	-10.661480	178.718996
23710	2.431547	-0.029844	12.882233	-0.008472	-0.062535	3.296899	1.000000	0.000013	0.000052	-0.000081	-0.412643	-10.660338	178.710869
23711	2.397165	-0.011034	12.901624	0.028229	-0.082312	3.309463	1.000000	0.000001	0.000054	-0.000086	-0.413210	-10.659334	178.701733
23712	2.428306	-0.021701	12.906088	-0.001223	-0.070697	3.319687	1.000000	0.000004	0.000044	-0.000085	-0.411708	-10.660215	178.695892
23713	2.449726	-0.018199	12.880545	-0.027255	-0.073415	3.298521	1.000000	0.000009	0.000060	-0.000093	-0.411302	-10.658510	178.685974
23714	2.458519	-0.038623	12.887499	-0.034524	-0.052535	3.307126	1.000000	0.000015	0.000054	-0.000070	-0.409745	-10.657083	178.678362
23715	2.445791	-0.002977	12.927771	-0.015506	-0.089127	3.344098	1.000000	-0.000015	0.000040	-0.000084	-0.412242	-10.657733	178.669532
23716	2.380304	0.012542	12.896173	0.042734	-0.106095	3.300825	1.000000	0.000014	0.000060	-0.000065	-0.412173	-10.657117	178.666710
23717	2.411710	-0.004858	12.877365	0.008353	-0.087543	3.288273	1.000000	0.000022	0.000067	-0.000072	-0.410731	-10.654698	178.659260
23718	2.376413	0.021083	12.920128	0.049757	-0.114211	3.323598	1.000000	0.000005	0.000058	-0.000065	-0.409279	-10.652826	178.654568
23719	2.376482	0.073760	12.904620	0.045159	-0.166823	3.308001	1.000000	0.000005	0.000058	-0.000065	-0.409878	-10.651337	178.647959
23720	2.341862	0.026037	12.893022	0.077918	-0.119507	3.290544	1.000000	0.000011	0.000040	-0.000051	-0.408434	-10.651116	178.643271
23721	2.352635	0.057308	12.884115	0.064977	-0.150849	3.283557	1.000000	-0.000019	0.000044	-0.000051	-0.412045	-10.651259	178.638285
23722	2.350983	0.064425	12.907654	0.070925	-0.158616	3.306330	1.000000	0.000004	0.000033	-0.000044	-0.412297	-10.652647	178.634731
23723	2.382447	0.053373	12.912094	0.041309	-0.147427	3.316579	1.000000	-0.000022	0.000040	-0.000073	-0.415881	-10.653283	178.627225
23724	2.391862	0.032443	12.918938	0.034050	-0.126563	3.325190	1.000000	0.000012	0.000027	-0.000060	-0.414918	-10.654974	178.621023
23725	2.436783	0.038432	12.867516	-0.019226	-0.131383	3.282912	1.000000	-0.000027	0.000023	-0.000064	-0.419260	-10.657510	178.614490
23726	2.445099	0.031196	12.921040	-0.016540	-0.125062	3.337097	1.000000	-0.000022	0.000027	-0.000082	-0.420822	-10.660805	178.610933
23727	2.487712	-0.008109	12.908783	-0.059271	-0.085253	3.333212	1.000000	-0.000011	0.000031	-0.000072	-0.423120	-10.662414	178.603561
23728	2.475655	-0.046389	12.894690	-0.048799	-0.047742	3.317407	1.000000	-0.000024	0.000038	-0.000083	-0.426568	-10.663218	178.597444
23729	2.462837	-0.077621	12.903971	-0.033529	-0.017622	3.324383	1.000000	-0.000015	0.000040	-0.000084	-0.429071	-10.663877	178.588626
23730	2.485099	-0.081475	12.855081	-0.064457	-0.012671	3.280485	1.000000	0.000007	0.000054	-0.000059	-0.428218	-10.662504	178.585485
23731	2.461215	-0.084050	12.881055	-0.036063	-0.011177	3.301610	1.000000	-0.000004	0.000031	-0.000083	-0.429434	-10.664132	178.576799
23732	2.446930	-0.100789	12.937073	-0.011630	0.004644	3.354139	1.000000	-0.000004	0.000056	-0.000064	-0.429226	-10.660979	178.566167
23733	2.459441	-0.090629	12.858169	-0.038953	-0.004598	3.278838	1.000000	-0.000000	0.000048	-0.000052	-0.430698	-10.660666	178.561076
23734	2.445858	-0.047943	12.921790	-0.015267	-0.048339	3.338534	1.000000	0.000007	0.000048	-0.000063	-0.430046	-10.659476	178.553502
23735	2.445914	-0.061725	12.875326	-0.023698	-0.034213	3.292983	1.000000	-0.000000	0.000054	-0.000047	-0.431633	-10.658440	178.548949
23736	2.476401	-0.065317	12.903221	-0.048792	-0.030257	3.326059	1.000000	0.000009	0.000044	-0.000057	-0.431287	-10.657372	178.541621
23737	2.432422	-0.032816	12.892467	-0.008524	-0.063919	3.307118	1.000000	-0.000002	0.000052	-0.000058	-0.432863	-10.656579	178.535809
23738	2.431162	-0.032445	12.892705	-0.007594	-0.064302	3.307116	1.000000	0.000011	0.000046	-0.000046	-0.432167	-10.655464	178.530823
23739	2.439578	-0.045958	12.922985	-0.009959	-0.051030	3.338529	1.000000	0.000007	0.000048	-0.000063	-0.432558	-10.655160	178.524419
23740	2.439815	0.006780	12.907444	-0.014653	-0.103301	3.322912	1.000000	0.000007	0.000048	-0.000063	-0.431480	-10.654469	178.517707
23741	2.450148	-0.027991	12.867692	-0.031441	-0.067906	3.286011	1.000000	0.000001	0.000061	-0.000082	-0.432174	-10.652738	178.509130
23742	2.426699	-0.037598	12.870327	-0.007641	-0.058932	3.284338	1.000000	0.000003	0.000044	-0.000085	-0.432007	-10.653779	178.504632
23743	2.414483	-0.008955	12.887208	0.006663	-0.088179	3.298457	1.000000	0.000001	0.000048	-0.000091	-0.432475	-10.653495	178.494986
23744	2.445608	-0.019493	12.891779	-0.022643	-0.076720	3.308781	1.000000	0.000001	0.000054	-0.000086	-0.431722	-10.653744	178.490864
23745	2.422239	-0.029231	12.894392	0.000956	-0.067857	3.307101	1.000000	-0.000010	0.000044	-0.000101	-0.433246	-10.653941	178.480014
23746	2.431051	-0.049761	12.901382	-0.006242	-0.046932	3.315752	1.000000	0.000017	0.000075	-0.000084	-0.430763	-10.650390	178.474292
23747	2.419237	-0.028249	12.894958	0.003252	-0.068801	3.307095	1.000000	-0.000015	0.000040	-0.000084	-0.433271	-10.651045	178.465488
23748	2.395794	-0.037877	12.897576	0.027014	-0.059750	3.305409	1.000000	0.000025	0.000064	-0.000055	-0.430926	-10.649525	178.465053
23749	2.439287	-0.023927	12.869764	-0.021522	-0.071947	3.286010	1.000000	0.000015	0.000048	-0.000075	-0.430238	-10.649246	178.457341
23750	2.403999	0.001779	12.912387	0.020140	-0.098809	3.321192	1.000000	0.000005	0.000058	-0.000065	-0.429586	-10.648025	178.452589
23751	2.435656	-0.015698	12.893668	-0.014295	-0.080274	3.308772	1.000000	0.000014	0.000060	-0.000065	-0.429130	-10.646305	178.445952
23752	2.400296	0.009997	12.936292	0.027146	-0.106869	3.343947	1.000000	0.000009	0.000050	-0.000052	-0.427106	-10.645021	178.438822
23753	2.401084	0.055640	12.897406	0.017700	-0.152086	3.305542	1.000000	0.000007	0.000054	-0.000059	-0.427616	-10.644003	178.432966
23754	2.409446	0.042016	12.927705	0.015514	-0.138692	3.336962	1.000000	-0.000000	0.000042	-0.000057	-0.428343	-10.644948	178.433070
23755	2.376583	0.046149	12.900202	0.042598	-0.143685	3.303830	1.000000	-0.000000	0.000048	-0.000052	-0.429823	-10.644637	178.427998
23756	2.374854	0.053759	12.923734	0.048831	-0.151522	3.326581	1.000000	0.000019	0.000027	-0.000072	-0.427980	-10.647643	178.427101
23757	2.407117	0.036149	12.904922	0.014385	-0.132993	3.314179	1.000000	-0.000015	0.000046	-0.000079	-0.430604	-10.647585	178.418840
23758	2.405325	0.043367	12.928468	0.020385	-0.141091	3.336929	1.000000	-0.000002	0.000033	-0.000072	-0.432281	-10.648870	178.415507
23759	2.438468	0.018468	12.886289	-0.018918	-0.115178	3.301781	1.000000	-0.000011	0.000031	-0.000072	-0.434590	-10.650483	178.408166
23760	2.415488	0.008510	12.888800	0.004917	-0.106210	3.300074	1.000000	-0.000004	0.000038	-0.000078	-0.435498	-10.652398	178.406256
23761	2.437563	0.011634	12.863251	-0.021207	-0.108931	3.279018	1.000000	-0.000020	0.000023	-0.000076	-0.438763	-10.654967	178.398439
23762	2.433953	-0.026642	12.925875	-0.004815	-0.072491	3.340175	1.000000	-0.000022	0.000034	-0.000077	-0.442935	-10.655253	178.391501
23763	2.456539	-0.030499	12.877026	-0.035803	-0.067823	3.296371	1.000000	0.000007	0.000048	-0.000063	-0.443346	-10.654963	178.385128
23764	2.443709	-0.061681	12.886295	-0.020621	-0.037667	3.303344	1.000000	-0.000030	0.000040	-0.000061	-0.447887	-10.655263	178.381583
23765	2.463860	-0.044585	12.907534	-0.037019	-0.055175	3.327808	1.000000	-0.000004	0.000050	-0.000069	-0.449473	-10.654730	178.374544
23766	2.440464	-0.054506	12.910117	-0.013160	-0.046157	3.326097	1.000000	-0.000002	0.000052	-0.000058	-0.450417	-10.655091	178.374702
23767	2.440833	-0.068525	12.863635	-0.021741	-0.031988	3.280593	1.000000	-0.000013	0.000042	-0.000073	-0.452958	-10.655514	178.367186
23768	2.438978	-0.061312	12.887193	-0.015761	-0.039753	3.303344	1.000000	-0.000000	0.000042	-0.000057	-0.453245	-10.655662	178.362351
23769	2.437777	-0.060811	12.887423	-0.014600	-0.040371	3.303344	1.000000	0.000018	0.000052	-0.000053	-0.452606	-10.654897	178.357193
23770	2.436629	-0.060429	12.887642	-0.013570	-0.040835	3.303344	1.000000	-0.000011	0.000038	-0.000067	-0.454374	-10.655199	178.350523
23771	2.456812	-0.042933	12.908883	-0.029952	-0.058353	3.327813	1.000000	0.000007	0.000048	-0.000063	-0.454793	-10.654911	178.344162
23772	2.466032	-0.063477	12.915835	-0.036963	-0.037499	3.336509	1.000000	0.000003	0.000044	-0.000085	-0.454102	-10.655765	178.339100
23773	2.433136	-0.059190	12.888307	-0.009930	-0.042454	3.303342	1.000000	0.000005	0.000052	-0.000070	-0.454624	-10.655006	178.332015
23774	2.453200	-0.041456	12.909575	-0.026419	-0.059917	3.327813	1.000000	0.000007	0.000042	-0.000068	-0.454675	-10.654921	178.326280
23775	2.464610	-0.016671	12.877383	-0.044236	-0.083878	3.298094	1.000000	0.000015	0.000042	-0.000079	-0.453896	-10.655372	178.318071
23776	2.440521	-0.019163	12.903280	-0.015823	-0.081922	3.319113	1.000000	0.000005	0.000052	-0.000070	-0.452331	-10.654271	178.312591
23777	2.439972	-0.025646	12.880186	-0.019555	-0.075141	3.296366	1.000000	0.000014	0.000054	-0.000070	-0.451785	-10.653279	178.305455
23778	2.448439	-0.039231	12.910486	-0.021744	-0.061632	3.327814	1.000000	-0.000015	0.000033	-0.000089	-0.452865	-10.654994	178.299053
23779	2.458886	-0.007527	12.901676	-0.034669	-0.092994	3.320841	1.000000	0.000021	0.000060	-0.000077	-0.451353	-10.653297	178.291138
23780	2.412748	-0.020346	12.929861	0.016094	-0.081885	3.340111	1.000000	-0.000011	0.000031	-0.000072	-0.453187	-10.654285	178.285529
23781	2.412342	-0.027060	12.906739	0.012354	-0.075102	3.317364	1.000000	0.000012	0.000065	-0.000072	-0.452865	-10.652097	178.278207
23782	2.410867	-0.026623	12.907016	0.013604	-0.075511	3.317361	1.000000	-0.000004	0.000050	-0.000069	-0.453516	-10.651915	178.272837
23783	2.399102	-0.005259	12.900528	0.023096	-0.097363	3.308644	1.000000	0.000007	0.000054	-0.000059	-0.454059	-10.650907	178.267025
23784	2.430245	-0.015615	12.905224	-0.006166	-0.085982	3.319095	1.000000	0.000003	0.000050	-0.000080	-0.453277	-10.651729	178.265871
23785	2.418501	0.005871	12.898730	0.003329	-0.107832	3.310376	1.000000	0.000005	0.000052	-0.000070	-0.453806	-10.650974	178.258801
23786	2.395074	-0.003757	12.901277	0.027111	-0.098498	3.308628	1.000000	0.000014	0.000054	-0.000070	-0.451300	-10.650772	178.257992
23787	2.405382	0.028188	12.892488	0.014192	-0.129862	3.301650	1.000000	0.000014	0.000048	-0.000075	-0.450640	-10.650508	178.250332
23788	2.435831	0.024827	12.920520	-0.010524	-0.126055	3.334850	1.000000	-0.000012	0.000044	-0.000062	-0.452648	-10.650463	178.242924
23789	2.392600	0.049813	12.886178	0.024796	-0.152202	3.292915	1.000000	0.000005	0.000046	-0.000074	-0.453059	-10.650431	178.235322
23790	2.401852	0.029286	12.893144	0.017838	-0.131315	3.301631	1.000000	0.000005	0.000046	-0.000074	-0.452206	-10.651234	178.233060
23791	2.401531	0.022701	12.870012	0.014073	-0.124525	3.278889	1.000000	0.000005	0.000046	-0.000074	-0.452618	-10.651206	178.225461
23792	2.409218	0.016103	12.923655	0.017058	-0.118306	3.333079	1.000000	-0.000009	0.000033	-0.000061	-0.452992	-10.653775	178.225512
23793	2.421537	0.033482	12.868116	-0.005720	-0.134851	3.280637	1.000000	0.000011	0.000046	-0.000046	-0.453328	-10.653726	178.221165
23794	2.407987	0.009579	12.900695	0.014635	-0.111762	3.310335	1.000000	-0.000011	0.000038	-0.000067	-0.454086	-10.655356	178.217029
23795	2.429751	0.012618	12.875287	-0.011549	-0.114494	3.289359	1.000000	-0.000023	0.000052	-0.000064	-0.457940	-10.654589	178.210668
23796	2.438409	-0.001525	12.905564	-0.013564	-0.101111	3.320820	1.000000	-0.000018	0.000019	-0.000070	-0.460211	-10.658520	178.210090
23797	2.470795	-0.019200	12.886883	-0.048086	-0.082626	3.308586	1.000000	0.000005	0.000058	-0.000065	-0.460859	-10.657057	178.203569
23798	2.415098	-0.018438	12.884885	0.006300	-0.085133	3.296318	1.000000	-0.000011	0.000031	-0.000072	-0.461951	-10.658937	178.201695
23799	2.445748	-0.022091	12.912906	-0.018332	-0.081480	3.329548	1.000000	-0.000012	0.000044	-0.000062	-0.464513	-10.659136	178.195477
23800	2.446320	-0.036110	12.866431	-0.027022	-0.066817	3.284093	1.000000	-0.000004	0.000050	-0.000069	-0.464076	-10.658742	178.192492
23801	2.444251	-0.028925	12.890007	-0.020907	-0.074851	3.306819	1.000000	-0.000013	0.000042	-0.000073	-0.466621	-10.659191	178.185013
23802	2.422199	-0.046082	12.869087	-0.002286	-0.058146	3.282318	1.000000	0.000000	0.000029	-0.000066	-0.466104	-10.661040	178.181300
23803	2.452821	-0.049347	12.897124	-0.026908	-0.054501	3.315560	1.000000	0.000007	0.000048	-0.000063	-0.466527	-10.660773	178.174977
23804	2.429609	-0.059363	12.899604	-0.003312	-0.045839	3.313782	1.000000	-0.000012	0.000044	-0.000062	-0.470217	-10.661128	178.170519
23805	2.450415	-0.048863	12.897583	-0.024552	-0.055997	3.315559	1.000000	0.000005	0.000052	-0.000070	-0.470750	-10.660390	178.163475
23806	2.438712	-0.027513	12.891059	-0.014864	-0.077620	3.306811	1.000000	-0.000004	0.000044	-0.000074	-0.471253	-10.661364	178.162144
23807	2.457578	-0.062060	12.928154	-0.025407	-0.043236	3.347031	1.000000	0.000007	0.000048	-0.000063	-0.471683	-10.661101	178.155829
23808	2.446755	-0.047650	12.898283	-0.020787	-0.057508	3.315559	1.000000	0.000009	0.000050	-0.000052	-0.471482	-10.660932	178.153550
23809	2.434002	-0.078672	12.907518	-0.005558	-0.027377	3.322525	1.000000	-0.000012	0.000044	-0.000062	-0.474051	-10.661138	178.147347
23810	2.444295	-0.047051	12.898751	-0.018442	-0.058266	3.315559	1.000000	0.000014	0.000054	-0.000070	-0.471356	-10.660176	178.139208
23811	2.442986	-0.046455	12.899002	-0.017277	-0.058887	3.315557	1.000000	0.000007	0.000048	-0.000063	-0.471786	-10.659914	178.132898
23812	2.452101	-0.007561	12.913634	-0.025291	-0.097452	3.331310	1.000000	0.000010	0.000069	-0.000078	-0.470560	-10.656849	178.124415
23813	2.418020	-0.055750	12.901797	0.007360	-0.050355	3.313763	1.000000	-0.000004	0.000044	-0.000074	-0.472045	-10.657071	178.116898
23814	2.428324	-0.024124	12.893027	-0.005562	-0.081746	3.306793	1.000000	0.000005	0.000052	-0.000070	-0.472665	-10.656246	178.110749
23815	2.404051	-0.027015	12.918856	0.022986	-0.080251	3.327711	1.000000	-0.000004	0.000050	-0.000069	-0.474274	-10.655746	178.103772
23816	2.415230	-0.002465	12.886747	0.005057	-0.103665	3.298026	1.000000	0.000003	0.000050	-0.000080	-0.472428	-10.654996	178.096028
23817	2.402422	-0.033152	12.895987	0.020285	-0.073533	3.304987	1.000000	0.000016	0.000050	-0.000064	-0.471793	-10.654499	178.089671
23818	2.423211	-0.022496	12.893992	-0.001143	-0.083479	3.306783	1.000000	-0.000016	0.000046	-0.000080	-0.473502	-10.653622	178.079115
23819	2.411396	-0.001194	12.887465	0.008351	-0.105309	3.298011	1.000000	0.000010	0.000056	-0.000087	-0.473063	-10.652428	178.070043
23820	2.431230	-0.042650	12.901236	-0.007356	-0.063538	3.315545	1.000000	-0.000000	0.000035	-0.000061	-0.474468	-10.652694	178.063627
23821	2.409063	-0.000215	12.887901	0.010467	-0.106574	3.298000	1.000000	0.000014	0.000054	-0.000070	-0.473944	-10.651720	178.056549
23822	2.419360	0.031676	12.879132	-0.002321	-0.137509	3.291031	1.000000	0.000005	0.000040	-0.000079	-0.472278	-10.652834	178.052729
23823	2.417325	-0.020068	12.895101	0.004575	-0.086174	3.306765	1.000000	0.000007	0.000042	-0.000068	-0.472595	-10.653291	178.045898
23824	2.383700	-0.009053	12.890741	0.036456	-0.098176	3.296177	1.000000	-0.000004	0.000044	-0.000074	-0.472862	-10.653415	178.040717
23825	2.416105	0.033191	12.879739	0.001155	-0.139100	3.291014	1.000000	0.000028	0.000042	-0.000063	-0.470938	-10.653873	178.034510
23826	2.402622	0.009485	12.912271	0.021568	-0.116064	3.320685	1.000000	-0.000011	0.000037	-0.000067	-0.471870	-10.655467	178.034681
23827	2.412896	0.041008	12.903505	0.008670	-0.147441	3.313712	1.000000	0.000003	0.000056	-0.000076	-0.472518	-10.654260	178.026937
23828	2.423266	0.013227	12.887151	-0.003183	-0.119313	3.299780	1.000000	-0.000011	0.000031	-0.000072	-0.474293	-10.657265	178.027280
23829	2.421156	0.020538	12.910712	0.002996	-0.127371	3.322481	1.000000	0.000003	0.000056	-0.000076	-0.474943	-10.656062	178.019540
23830	2.431325	-0.007278	12.894400	-0.009002	-0.099110	3.308557	1.000000	-0.000014	0.000048	-0.000069	-0.476485	-10.656529	178.020852
23831	2.419612	0.013788	12.887837	0.000497	-0.120931	3.299766	1.000000	-0.000004	0.000044	-0.000074	-0.477977	-10.656758	178.013361
23832	2.451020	0.003431	12.892638	-0.028990	-0.109741	3.310374	1.000000	-0.000004	0.000044	-0.000074	-0.478667	-10.657238	178.011936
23833	2.428080	-0.006890	12.895012	-0.005438	-0.100801	3.308546	1.000000	-0.000021	0.000029	-0.000071	-0.482068	-10.659133	178.004747
23834	2.426172	0.000214	12.918532	0.000782	-0.108722	3.331245	1.000000	-0.000000	0.000042	-0.000057	-0.482843	-10.659673	177.999919
23835	2.437611	-0.034606	12.878830	-0.016453	-0.073273	3.294630	1.000000	-0.000004	0.000044	-0.000074	-0.484338	-10.659905	177.992435
23836	2.458434	-0.023878	12.876863	-0.037600	-0.083102	3.296460	1.000000	0.000007	0.000048	-0.000063	-0.483159	-10.659912	177.990393
23837	2.444803	-0.047883	12.909415	-0.017351	-0.060406	3.326125	1.000000	-0.000012	0.000044	-0.000063	-0.485737	-10.660130	177.984227
23838	2.466817	-0.044548	12.884067	-0.044071	-0.062613	3.305258	1.000000	-0.000009	0.000033	-0.000061	-0.485762	-10.659476	177.972187
23839	2.433180	-0.033717	12.879670	-0.012188	-0.074865	3.294626	1.000000	0.000005	0.000052	-0.000070	-0.486309	-10.658746	177.965189
23840	2.441490	-0.047368	12.910043	-0.014265	-0.061446	3.326124	1.000000	-0.000012	0.000044	-0.000063	-0.487582	-10.659136	177.962195
23841	2.407767	-0.036685	12.905653	0.017619	-0.073696	3.315482	1.000000	-0.000001	0.000048	-0.000052	-0.489107	-10.658864	177.957243
23842	2.461207	-0.036735	12.908296	-0.034712	-0.071802	3.327961	1.000000	-0.000012	0.000037	-0.000067	-0.489591	-10.658059	177.945892
23843	2.461028	-0.043439	12.885178	-0.038597	-0.064981	3.305264	1.000000	0.000010	0.000056	-0.000087	-0.489159	-10.656869	177.936854
23844	2.437599	-0.053388	12.887628	-0.015166	-0.055881	3.303423	1.000000	-0.000005	0.000056	-0.000065	-0.490219	-10.655125	177.929381
23845	2.447742	-0.021595	12.878904	-0.028062	-0.087263	3.296457	1.000000	0.000016	0.000044	-0.000068	-0.489471	-10.655347	177.922531
23846	2.445533	-0.014048	12.902476	-0.021917	-0.095201	3.319151	1.000000	-0.000007	0.000048	-0.000080	-0.490491	-10.654762	177.917335
23847	2.411668	-0.003305	12.898093	0.009960	-0.107448	3.308491	1.000000	-0.000007	0.000054	-0.000075	-0.492215	-10.653794	177.909672
23848	2.431550	-0.044950	12.911928	-0.005569	-0.065384	3.326111	1.000000	-0.000004	0.000044	-0.000074	-0.492347	-10.653847	177.901827
23849	2.419801	-0.023790	12.905350	0.003922	-0.087198	3.317295	1.000000	-0.000007	0.000048	-0.000080	-0.493949	-10.653601	177.893632
23850	2.441677	-0.020203	12.880057	-0.022197	-0.089660	3.296452	1.000000	-0.000000	0.000042	-0.000057	-0.494071	-10.654692	177.893499
23851	2.417553	-0.023177	12.905772	0.006410	-0.088163	3.317287	1.000000	0.000003	0.000044	-0.000085	-0.494483	-10.654933	177.884719
23852	2.394185	-0.033279	12.908189	0.029994	-0.078917	3.315429	1.000000	-0.000009	0.000065	-0.000077	-0.495116	-10.652887	177.879079
23853	2.415798	-0.029737	12.882952	0.003703	-0.081663	3.294590	1.000000	-0.000003	0.000046	-0.000063	-0.496629	-10.652863	177.872881
23854	2.413536	-0.022322	12.906525	0.010013	-0.089439	3.317277	1.000000	0.000007	0.000048	-0.000063	-0.495732	-10.652889	177.868507
23855	2.412385	-0.021832	12.906741	0.011174	-0.090064	3.317271	1.000000	0.000007	0.000042	-0.000068	-0.496054	-10.653351	177.861725
23856	2.442730	-0.024654	12.934964	-0.013316	-0.086228	3.350641	1.000000	0.000014	0.000048	-0.000075	-0.494067	-10.652983	177.854028
23857	2.422478	0.003544	12.874881	-0.005651	-0.114313	3.287613	1.000000	-0.000003	0.000046	-0.000063	-0.495580	-10.652960	177.847835
23858	2.397077	0.007696	12.923960	0.028251	-0.120145	3.331116	1.000000	0.000014	0.000054	-0.000070	-0.494487	-10.652788	177.848044
23859	2.429293	-0.009285	12.905548	-0.006380	-0.101711	3.319119	1.000000	0.000002	0.000056	-0.000076	-0.495149	-10.651589	177.840346
23860	2.405837	0.039958	12.915491	0.016628	-0.151881	3.324139	1.000000	-0.000000	0.000035	-0.000061	-0.495202	-10.653096	177.839058
23861	2.426961	-0.008563	12.905987	-0.003962	-0.102687	3.319112	1.000000	0.000000	0.000054	-0.000087	-0.495848	-10.652150	177.830100
23862	2.415098	0.012683	12.899409	0.005527	-0.124068	3.310277	1.000000	-0.000005	0.000044	-0.000074	-0.495462	-10.652271	177.824976
23863	2.413943	0.012920	12.899625	0.006688	-0.124692	3.310271	1.000000	-0.000003	0.000046	-0.000063	-0.496976	-10.652252	177.818792
23864	2.423450	-0.007736	12.906647	-0.000479	-0.103857	3.319103	1.000000	-0.000002	0.000039	-0.000068	-0.497124	-10.652899	177.814924
23865	2.444366	0.002849	12.904714	-0.021693	-0.114068	3.320975	1.000000	-0.000014	0.000042	-0.000073	-0.499688	-10.653370	177.807531
23866	2.443292	0.002982	12.904917	-0.020600	-0.114256	3.320975	1.000000	-0.000001	0.000042	-0.000057	-0.499165	-10.653433	177.803600
23867	2.431681	-0.035234	12.890774	-0.010499	-0.076656	3.305253	1.000000	-0.000009	0.000064	-0.000077	-0.501124	-10.651281	177.795771
23868	2.418678	-0.006942	12.907543	0.003978	-0.105611	3.319089	1.000000	0.000007	0.000035	-0.000073	-0.499976	-10.651919	177.786355
23869	2.428414	-0.027551	12.914528	-0.003191	-0.085059	3.327927	1.000000	-0.000010	0.000033	-0.000061	-0.502324	-10.653329	177.780424
23870	2.428588	-0.034450	12.891359	-0.007254	-0.078147	3.305247	1.000000	-0.000002	0.000039	-0.000068	-0.503407	-10.653505	177.775003
23871	2.448416	-0.016659	12.912778	-0.023359	-0.095824	3.329806	1.000000	-0.000002	0.000039	-0.000068	-0.504799	-10.654207	177.768296
23872	2.448380	-0.023473	12.889651	-0.027372	-0.088846	3.307129	1.000000	-0.000005	0.000050	-0.000069	-0.505812	-10.653397	177.764890
23873	2.425307	-0.033576	12.891979	-0.003842	-0.079881	3.305238	1.000000	0.000009	0.000037	-0.000062	-0.506032	-10.654330	177.758866
23874	2.422957	-0.026176	12.915556	0.002480	-0.087598	3.327911	1.000000	-0.000009	0.000058	-0.000082	-0.506202	-10.653023	177.752776
23875	2.424003	-0.040060	12.869091	-0.006599	-0.073290	3.282560	1.000000	-0.000000	0.000035	-0.000061	-0.507487	-10.654195	177.746806
23876	2.444939	-0.029433	12.867174	-0.027681	-0.083292	3.284452	1.000000	-0.000012	0.000044	-0.000063	-0.509083	-10.654929	177.745328
23877	2.419424	-0.025601	12.916220	0.006094	-0.089258	3.327898	1.000000	0.000004	0.000058	-0.000065	-0.509767	-10.653480	177.738922
23878	2.451830	-0.042842	12.897844	-0.028504	-0.070769	3.315979	1.000000	-0.000012	0.000044	-0.000063	-0.512017	-10.653942	177.739826
23879	2.419208	-0.039265	12.869996	-0.001775	-0.075497	3.282549	1.000000	0.000006	0.000048	-0.000063	-0.512471	-10.653687	177.733620
23880	2.449374	-0.042138	12.898313	-0.026412	-0.071919	3.315977	1.000000	0.000004	0.000052	-0.000070	-0.512621	-10.651964	177.725524
23881	2.438430	-0.027871	12.868413	-0.022056	-0.086243	3.284444	1.000000	0.000006	0.000060	-0.000054	-0.513327	-10.650262	177.720391
23882	2.423589	-0.044926	12.924267	0.003065	-0.070793	3.336741	1.000000	-0.000012	0.000037	-0.000067	-0.514728	-10.649691	177.708896
23883	2.446572	-0.048184	12.875722	-0.028416	-0.066071	3.293306	1.000000	0.000013	0.000060	-0.000065	-0.514353	-10.648000	177.702451
23884	2.399164	-0.054616	12.926827	0.028217	-0.062224	3.334827	1.000000	-0.000000	0.000035	-0.000061	-0.514583	-10.651116	177.706219
23885	2.432474	-0.019524	12.892669	-0.012166	-0.095747	3.307103	1.000000	-0.000007	0.000048	-0.000080	-0.516198	-10.650883	177.698081
23886	2.409284	-0.029703	12.894992	0.011478	-0.086599	3.305191	1.000000	0.000002	0.000050	-0.000080	-0.515962	-10.650893	177.692164
23887	2.429881	-0.018739	12.893159	-0.009729	-0.096829	3.307097	1.000000	0.000006	0.000054	-0.000059	-0.516548	-10.649917	177.686508
23888	2.428679	-0.018262	12.893386	-0.008673	-0.097225	3.307095	1.000000	0.000005	0.000039	-0.000079	-0.515857	-10.650142	177.679510
23889	2.427584	-0.018022	12.893592	-0.007515	-0.097852	3.307091	1.000000	-0.000016	0.000046	-0.000080	-0.518542	-10.650149	177.671429
23890	2.403360	-0.021380	12.919226	0.021248	-0.096114	3.327834	1.000000	-0.000001	0.000042	-0.000057	-0.518896	-10.650926	177.668588
23891	2.415552	-0.003655	12.863886	-0.001938	-0.112553	3.275544	1.000000	0.000009	0.000069	-0.000078	-0.518743	-10.648302	177.660700
23892	2.422689	-0.009941	12.917637	0.001351	-0.106680	3.329743	1.000000	0.000000	0.000023	-0.000071	-0.518445	-10.651466	177.658624
23893	2.444833	-0.006183	12.892401	-0.025011	-0.109438	3.308999	1.000000	-0.000003	0.000052	-0.000058	-0.520099	-10.650731	177.653028
23894	2.420465	-0.009327	12.918054	0.003756	-0.107570	3.329735	1.000000	0.000005	0.000046	-0.000074	-0.518908	-10.651003	177.649538
23895	2.442370	-0.005362	12.892869	-0.022609	-0.110330	3.308996	1.000000	0.000006	0.000048	-0.000063	-0.519370	-10.650752	177.643360
23896	2.431759	0.008817	12.862892	-0.018181	-0.124279	3.277452	1.000000	-0.000003	0.000039	-0.000068	-0.519164	-10.651801	177.643665
23897	2.438983	0.002058	12.916627	-0.015015	-0.118710	3.331649	1.000000	-0.000025	0.000044	-0.000079	-0.522913	-10.652054	177.635647
23898	2.427146	0.023152	12.909998	-0.005575	-0.140312	3.322757	1.000000	0.000018	0.000046	-0.000058	-0.521399	-10.651778	177.629309
23899	2.427190	0.016589	12.886871	-0.009590	-0.133457	3.300095	1.000000	-0.000005	0.000044	-0.000074	-0.522910	-10.652021	177.621923
23900	2.414781	-0.014467	12.896001	0.005469	-0.103065	3.307052	1.000000	0.000006	0.000048	-0.000063	-0.522300	-10.651196	177.613792
23901	2.435601	-0.003662	12.894150	-0.015730	-0.113309	3.308981	1.000000	-0.000012	0.000037	-0.000067	-0.524769	-10.652147	177.607190
23902	2.435793	-0.010449	12.870999	-0.019513	-0.106163	3.286326	1.000000	0.000007	0.000042	-0.000068	-0.523771	-10.653560	177.607593
23903	2.444155	-0.023882	12.901406	-0.021504	-0.093121	3.317873	1.000000	-0.000003	0.000046	-0.000063	-0.525300	-10.653551	177.601479
23904	2.421173	-0.034068	12.903660	0.002114	-0.083892	3.315932	1.000000	0.000009	0.000037	-0.000062	-0.524458	-10.654879	177.599363
23905	2.453122	0.008404	12.892929	-0.033103	-0.124916	3.310910	1.000000	0.000006	0.000054	-0.000059	-0.525049	-10.653908	177.593738
23906	2.429523	-0.054199	12.910958	-0.004052	-0.063542	3.324828	1.000000	-0.000012	0.000037	-0.000067	-0.525531	-10.654126	177.585101
23907	2.440916	-0.029698	12.878910	-0.022110	-0.087456	3.295217	1.000000	-0.000005	0.000044	-0.000074	-0.527042	-10.654370	177.577729
23908	2.462772	-0.025836	12.853768	-0.048281	-0.089920	3.274515	1.000000	0.000002	0.000056	-0.000076	-0.526346	-10.654071	177.574329
23909	2.437235	-0.021963	12.902718	-0.014377	-0.095900	3.317862	1.000000	-0.000000	0.000035	-0.000061	-0.527638	-10.655255	177.568419
23910	2.446849	-0.042678	12.909784	-0.021393	-0.074944	3.326770	1.000000	-0.000012	0.000050	-0.000058	-0.528398	-10.655346	177.565944
23911	2.434775	-0.021766	12.903183	-0.011902	-0.096721	3.317859	1.000000	-0.000005	0.000056	-0.000065	-0.530162	-10.654151	177.559647
23912	2.444125	-0.042410	12.910301	-0.019224	-0.075963	3.326767	1.000000	-0.000005	0.000050	-0.000069	-0.530770	-10.652971	177.554375
23913	2.411364	-0.039031	12.882393	0.007408	-0.080618	3.293254	1.000000	-0.000009	0.000058	-0.000082	-0.532626	-10.651560	177.546087
23914	2.432148	-0.028200	12.880573	-0.013735	-0.090755	3.295206	1.000000	-0.000000	0.000029	-0.000066	-0.533257	-10.653664	177.539427
23915	2.418467	-0.052127	12.913042	0.006652	-0.068100	3.324804	1.000000	0.000009	0.000069	-0.000078	-0.533113	-10.651050	177.531579
23916	2.426948	-0.013225	12.927766	-0.000696	-0.106705	3.340487	1.000000	-0.000005	0.000044	-0.000074	-0.533269	-10.652465	177.534135
23917	2.439143	-0.047897	12.888144	-0.018303	-0.071201	3.304117	1.000000	-0.000005	0.000037	-0.000079	-0.534654	-10.653439	177.526246
23918	2.393390	-0.009449	12.899993	0.027353	-0.111675	3.306954	1.000000	0.000004	0.000052	-0.000070	-0.533861	-10.653766	177.528126
23919	2.426018	-0.026374	12.881732	-0.007392	-0.093304	3.295193	1.000000	-0.000003	0.000046	-0.000063	-0.535392	-10.653767	177.522040
23920	2.434312	-0.039802	12.912163	-0.009384	-0.080047	3.326754	1.000000	0.000004	0.000046	-0.000074	-0.534791	-10.653543	177.516650
23921	2.412858	-0.004739	12.875322	0.003217	-0.115461	3.286262	1.000000	0.000004	0.000052	-0.000070	-0.535368	-10.652834	177.509789
23922	2.422447	-0.025331	12.882407	-0.004135	-0.094640	3.295185	1.000000	-0.000012	0.000037	-0.000067	-0.536502	-10.652976	177.503248
23923	2.421303	-0.025229	12.882622	-0.002979	-0.095267	3.295181	1.000000	-0.000009	0.000052	-0.000086	-0.538236	-10.652294	177.494444
23924	2.429432	-0.038439	12.913086	-0.004676	-0.082100	3.326744	1.000000	0.000025	0.000052	-0.000064	-0.535845	-10.652543	177.499027
23925	2.440761	-0.013414	12.881073	-0.022758	-0.106014	3.297148	1.000000	-0.000002	0.000033	-0.000072	-0.537122	-10.653990	177.491885
23926	2.404494	0.011103	12.923087	0.019590	-0.132954	3.331507	1.000000	-0.000005	0.000050	-0.000069	-0.537983	-10.653602	177.488311
23927	2.417925	-0.030495	12.860161	-0.003316	-0.089948	3.272531	1.000000	0.000007	0.000042	-0.000068	-0.538325	-10.654085	177.481659
23928	2.403502	0.004901	12.900171	0.016459	-0.126332	3.308861	1.000000	0.000008	0.000044	-0.000057	-0.537043	-10.653331	177.476449
23929	2.435010	-0.005028	12.905258	-0.013058	-0.115474	3.319771	1.000000	-0.000012	0.000044	-0.000063	-0.539642	-10.653574	177.470433
23930	2.413331	-0.022352	12.884123	0.005247	-0.098801	3.295154	1.000000	0.000014	0.000042	-0.000079	-0.538226	-10.654217	177.471763
23931	2.423197	0.009563	12.875483	-0.007594	-0.130214	3.288192	1.000000	-0.000005	0.000056	-0.000065	-0.540000	-10.653029	177.465508
23932	2.420718	0.016835	12.899044	-0.001080	-0.138248	3.310818	1.000000	-0.000001	0.000035	-0.000061	-0.540854	-10.654557	177.468809
23933	2.419646	0.016958	12.899245	0.000079	-0.138877	3.310811	1.000000	-0.000014	0.000048	-0.000069	-0.543566	-10.654335	177.462074
23934	2.452387	-0.000135	12.881023	-0.034742	-0.120261	3.299112	1.000000	-0.000003	0.000046	-0.000063	-0.543921	-10.654117	177.453335
23935	2.406207	-0.014171	12.908552	0.016345	-0.109079	3.317757	1.000000	-0.000001	0.000042	-0.000057	-0.545349	-10.654588	177.448015
23936	2.428298	-0.010430	12.883431	-0.009956	-0.111607	3.297117	1.000000	-0.000012	0.000044	-0.000063	-0.546798	-10.655353	177.445914
23937	2.425725	-0.003174	12.907007	-0.003533	-0.119742	3.319739	1.000000	0.000006	0.000054	-0.000059	-0.547400	-10.654393	177.440353
23938	2.425761	-0.009891	12.883909	-0.007562	-0.112684	3.297110	1.000000	-0.000009	0.000046	-0.000091	-0.548193	-10.654707	177.436996
23939	2.423291	-0.002750	12.907464	-0.001133	-0.120819	3.319730	1.000000	-0.000012	0.000044	-0.000063	-0.550797	-10.654956	177.431002
23940	2.465533	-0.033439	12.919480	-0.038927	-0.088605	3.339635	1.000000	0.000006	0.000048	-0.000063	-0.550106	-10.654898	177.429559
23941	2.423622	-0.016121	12.861223	-0.009306	-0.106801	3.274473	1.000000	0.000006	0.000041	-0.000068	-0.550452	-10.655385	177.422939
23942	2.431951	-0.029513	12.891662	-0.011307	-0.093689	3.306051	1.000000	-0.000003	0.000046	-0.000063	-0.551454	-10.654930	177.421343
23943	2.453897	-0.025533	12.866589	-0.037759	-0.096478	3.285429	1.000000	0.000004	0.000052	-0.000070	-0.552042	-10.654226	177.414532
23944	2.419946	-0.015104	12.861917	-0.005992	-0.108105	3.274465	1.000000	-0.000005	0.000050	-0.000069	-0.551681	-10.653399	177.409839
23945	2.429535	-0.035798	12.869033	-0.013181	-0.087611	3.283422	1.000000	-0.000012	0.000043	-0.000063	-0.554285	-10.653649	177.403858
23946	2.425755	-0.021478	12.915917	-0.001493	-0.103126	3.328660	1.000000	0.000006	0.000041	-0.000068	-0.554036	-10.653901	177.399657
23947	2.424767	-0.021089	12.916103	-0.000334	-0.103756	3.328655	1.000000	-0.000001	0.000035	-0.000061	-0.555337	-10.655097	177.393830
23948	2.435735	-0.048686	12.899879	-0.012939	-0.075539	3.315000	1.000000	-0.000005	0.000056	-0.000065	-0.556197	-10.653321	177.385640
23949	2.435813	-0.055521	12.876783	-0.017077	-0.068656	3.292380	1.000000	-0.000005	0.000043	-0.000074	-0.557721	-10.653582	177.378355
23950	2.422571	-0.027458	12.893432	-0.002539	-0.097515	3.306028	1.000000	-0.000001	0.000041	-0.000057	-0.557413	-10.652880	177.370394
23951	2.422731	-0.034149	12.870320	-0.006681	-0.090629	3.283407	1.000000	0.000004	0.000052	-0.000070	-0.558003	-10.652173	177.363599
23952	2.418781	-0.019739	12.917227	0.004804	-0.105940	3.328637	1.000000	-0.000005	0.000043	-0.000074	-0.558025	-10.651233	177.350987
23953	2.431251	-0.054349	12.877650	-0.012978	-0.070418	3.292376	1.000000	-0.000003	0.000039	-0.000068	-0.559438	-10.651957	177.344439
23954	2.439729	-0.015472	12.892367	-0.020312	-0.109041	3.308034	1.000000	0.000006	0.000054	-0.000059	-0.558600	-10.651726	177.347345
23955	2.416733	-0.025588	12.894532	0.003167	-0.099995	3.306009	1.000000	0.000014	0.000035	-0.000084	-0.557736	-10.652942	177.338905
23956	2.404362	-0.056645	12.903630	0.018291	-0.069377	3.312962	1.000000	-0.000006	0.000069	-0.000055	-0.557764	-10.650140	177.335719
23957	2.435775	-0.014133	12.893116	-0.016859	-0.110477	3.308027	1.000000	0.000004	0.000046	-0.000074	-0.558223	-10.650155	177.328399
23958	2.434574	-0.013665	12.893343	-0.015457	-0.110790	3.308026	1.000000	0.000006	0.000048	-0.000063	-0.557241	-10.650857	177.330577
23959	2.420959	-0.037660	12.925751	0.004994	-0.088144	3.337587	1.000000	0.000004	0.000046	-0.000074	-0.557700	-10.650874	177.323261
23960	2.432117	-0.012741	12.893808	-0.013328	-0.111782	3.308020	1.000000	0.000004	0.000052	-0.000070	-0.557142	-10.649321	177.315800
23961	2.409076	-0.023263	12.895969	0.010146	-0.102729	3.305984	1.000000	-0.000014	0.000041	-0.000074	-0.559729	-10.649826	177.308584
23962	2.418865	0.008453	12.887357	-0.002662	-0.133893	3.299026	1.000000	0.000006	0.000054	-0.000059	-0.559181	-10.648834	177.307328
23963	2.405197	-0.015564	12.919769	0.017795	-0.111248	3.328582	1.000000	0.000002	0.000043	-0.000085	-0.559623	-10.649106	177.298756
23964	2.427421	-0.011480	12.894694	-0.008772	-0.113712	3.308007	1.000000	-0.000001	0.000035	-0.000062	-0.559480	-10.649873	177.294634
23965	2.426219	-0.011135	12.894920	-0.007618	-0.114341	3.308002	1.000000	0.000004	0.000058	-0.000065	-0.560202	-10.648444	177.288401
23966	2.436018	0.020721	12.886310	-0.020620	-0.145559	3.301045	1.000000	-0.000001	0.000035	-0.000062	-0.560618	-10.648804	177.282419
23967	2.434864	-0.031161	12.902246	-0.013830	-0.094284	3.316989	1.000000	0.000006	0.000041	-0.000068	-0.560968	-10.649284	177.275853
23968	2.422881	-0.009925	12.895549	-0.004276	-0.115835	3.307991	1.000000	0.000006	0.000048	-0.000063	-0.560606	-10.649196	177.277168
23969	2.434087	0.014898	12.863605	-0.022433	-0.139737	3.278428	1.000000	-0.000003	0.000046	-0.000063	-0.562150	-10.649200	177.271189
23970	2.442279	0.001638	12.894089	-0.024419	-0.126396	3.310029	1.000000	0.000009	0.000050	-0.000092	-0.559940	-10.648090	177.260444
23971	2.419357	-0.008644	12.896212	-0.000951	-0.117335	3.307978	1.000000	-0.000001	0.000035	-0.000062	-0.561241	-10.649282	177.254665
23972	2.438744	0.009293	12.917823	-0.016881	-0.134920	3.332624	1.000000	-0.000012	0.000043	-0.000063	-0.562694	-10.648944	177.251350
23973	2.417330	-0.008260	12.896592	0.001241	-0.118328	3.307969	1.000000	0.000007	0.000035	-0.000073	-0.562913	-10.650146	177.244264
23974	2.428438	-0.035575	12.880398	-0.011256	-0.090073	3.294372	1.000000	0.000002	0.000056	-0.000076	-0.562493	-10.649052	177.242731
23975	2.414847	-0.007477	12.897057	0.003591	-0.119335	3.307960	1.000000	-0.000003	0.000046	-0.000063	-0.564038	-10.649055	177.236765
23976	2.446403	-0.017333	12.902284	-0.025860	-0.108240	3.319020	1.000000	-0.000014	0.000041	-0.000074	-0.565189	-10.649673	177.233274
23977	2.423574	-0.028115	12.904379	-0.002396	-0.099171	3.316961	1.000000	-0.000012	0.000037	-0.000067	-0.567666	-10.650645	177.226825
23978	2.421012	-0.020976	12.927923	0.004156	-0.107009	3.339555	1.000000	-0.000005	0.000050	-0.000069	-0.567882	-10.650237	177.225685
23979	2.445809	-0.031099	12.856277	-0.033083	-0.094747	3.273822	1.000000	-0.000006	0.000056	-0.000065	-0.569671	-10.649053	177.219530
23980	2.419601	-0.027299	12.905126	0.001049	-0.100462	3.316951	1.000000	0.000020	0.000060	-0.000077	-0.567043	-10.647063	177.215456
23981	2.429158	-0.047466	12.912300	-0.006143	-0.079994	3.325962	1.000000	-0.000001	0.000041	-0.000057	-0.568477	-10.647533	177.210236
23982	2.440470	-0.022725	12.880351	-0.024392	-0.103504	3.296415	1.000000	-0.000005	0.000043	-0.000074	-0.568284	-10.647377	177.204606
23983	2.417435	-0.033195	12.882474	-0.000935	-0.094427	3.294346	1.000000	0.000004	0.000052	-0.000070	-0.568879	-10.646669	177.197879
23984	2.439406	-0.029104	12.857498	-0.027403	-0.097025	3.273818	1.000000	-0.000005	0.000050	-0.000069	-0.569617	-10.646400	177.193818
23985	2.436824	-0.021713	12.881043	-0.020878	-0.105189	3.296407	1.000000	0.000008	0.000037	-0.000062	-0.569855	-10.647346	177.188026
23986	2.423199	-0.045891	12.913425	-0.000635	-0.082204	3.325950	1.000000	-0.000010	0.000058	-0.000082	-0.570253	-10.644824	177.177286
23987	2.431294	-0.007013	12.928199	-0.008063	-0.121175	3.341583	1.000000	0.000006	0.000048	-0.000064	-0.570737	-10.644581	177.171300
23988	2.411210	-0.031432	12.883645	0.004555	-0.096814	3.294328	1.000000	0.000006	0.000048	-0.000064	-0.570324	-10.643910	177.170213
23989	2.419578	-0.044755	12.914108	0.002744	-0.083888	3.325939	1.000000	-0.000003	0.000033	-0.000072	-0.571606	-10.645357	177.163211
23990	2.440343	-0.033559	12.912427	-0.018492	-0.093950	3.328013	1.000000	0.000006	0.000048	-0.000064	-0.570864	-10.644682	177.156414
23991	2.406401	-0.023335	12.907602	0.013307	-0.105961	3.316901	1.000000	-0.000005	0.000050	-0.000069	-0.572525	-10.644218	177.149751
23992	2.426975	-0.012177	12.905958	-0.007946	-0.116094	3.318976	1.000000	0.000004	0.000046	-0.000074	-0.572082	-10.643701	177.146120
23993	2.416309	-0.050561	12.891671	0.001770	-0.078378	3.303339	1.000000	-0.000017	0.000052	-0.000075	-0.574920	-10.643018	177.138777
23994	2.424790	-0.011833	12.906369	-0.005753	-0.117023	3.318969	1.000000	0.000004	0.000021	-0.000054	-0.574414	-10.645302	177.133570
23995	2.425139	-0.018387	12.883254	-0.009998	-0.110111	3.296380	1.000000	0.000008	0.000068	-0.000078	-0.574310	-10.642691	177.125895
23996	2.423806	-0.017831	12.883505	-0.008861	-0.110536	3.296377	1.000000	0.000006	0.000035	-0.000073	-0.573620	-10.643737	177.124901
23997	2.421211	-0.010444	12.907042	-0.002310	-0.118709	3.318955	1.000000	-0.000005	0.000050	-0.000069	-0.575283	-10.643272	177.118254
23998	2.420118	-0.010208	12.907248	-0.001290	-0.119014	3.318952	1.000000	-0.000001	0.000035	-0.000062	-0.575172	-10.643782	177.116094
23999	2.419130	-0.009826	12.907433	-0.000139	-0.119645	3.318946	1.000000	0.000006	0.000041	-0.000068	-0.575526	-10.644258	177.109604
24000	2.417875	-0.009499	12.907669	0.001334	-0.120195	3.318941	1.000000	-0.000006	0.000056	-0.000065	-0.576904	-10.644340	177.115961
24001	2.439924	-0.005222	12.882718	-0.025221	-0.123008	3.298449	1.000000	0.000014	0.000041	-0.000079	-0.576178	-10.644829	177.108166
24002	2.427782	0.016066	12.876002	-0.015460	-0.144344	3.289402	1.000000	0.000006	0.000054	-0.000059	-0.575061	-10.644846	177.109561
24003	2.438964	-0.011339	12.859858	-0.028079	-0.116347	3.275868	1.000000	-0.000005	0.000043	-0.000074	-0.576592	-10.645109	177.102395
24004	2.414379	-0.014981	12.885279	0.000854	-0.114409	3.296347	1.000000	-0.000006	0.000056	-0.000065	-0.576674	-10.644140	177.098301
24005	2.433514	0.003149	12.906972	-0.014865	-0.132318	3.321018	1.000000	0.000001	0.000031	-0.000055	-0.577864	-10.645798	177.093337
24006	2.412222	-0.014502	12.885683	0.003493	-0.115352	3.296338	1.000000	-0.000006	0.000050	-0.000069	-0.578055	-10.646667	177.096335
24007	2.454586	0.007334	12.882222	-0.039934	-0.135457	3.300540	1.000000	-0.000013	0.000043	-0.000063	-0.580667	-10.646923	177.090491
24008	2.433171	-0.010347	12.860956	-0.021915	-0.118651	3.275859	1.000000	0.000006	0.000048	-0.000064	-0.580479	-10.646622	177.092259
24009	2.441279	-0.023691	12.891483	-0.023688	-0.105753	3.307487	1.000000	-0.000004	0.000052	-0.000059	-0.582164	-10.645909	177.086910
24010	2.418521	-0.034441	12.893506	-0.000198	-0.096369	3.305378	1.000000	-0.000012	0.000025	-0.000077	-0.583160	-10.648464	177.084096
24011	2.426679	0.004254	12.908259	-0.007537	-0.135367	3.320993	1.000000	-0.000010	0.000064	-0.000077	-0.585187	-10.646358	177.076554
24012	2.428591	-0.061874	12.877586	-0.011651	-0.068842	3.291862	1.000000	-0.000001	0.000035	-0.000062	-0.585751	-10.647680	177.076116
24013	2.436843	-0.023019	12.892323	-0.018983	-0.107842	3.307478	1.000000	-0.000003	0.000046	-0.000063	-0.587304	-10.647690	177.070244
24014	2.413820	-0.033588	12.894389	0.004548	-0.098375	3.305362	1.000000	0.000004	0.000052	-0.000070	-0.586338	-10.647300	177.067516
24015	2.412595	-0.033131	12.894619	0.005699	-0.099005	3.305357	1.000000	0.000008	0.000044	-0.000057	-0.586714	-10.647528	177.062336
24016	2.422224	-0.001087	12.886059	-0.007022	-0.129936	3.298405	1.000000	0.000002	0.000050	-0.000081	-0.584981	-10.647191	177.054492
24017	2.411796	-0.039489	12.871734	0.002599	-0.092192	3.282783	1.000000	-0.000014	0.000041	-0.000074	-0.587574	-10.647710	177.047405
24018	2.440314	-0.035103	12.923733	-0.016006	-0.096212	3.339108	1.000000	-0.000001	0.000041	-0.000057	-0.587245	-10.647967	177.043878
24019	2.420040	-0.007639	12.863435	-0.009052	-0.123872	3.275826	1.000000	-0.000011	0.000077	-0.000068	-0.589542	-10.644419	177.037420
24020	2.428139	-0.021104	12.893969	-0.010425	-0.110551	3.307465	1.000000	-0.000000	0.000023	-0.000071	-0.588542	-10.648529	177.039612
24021	2.428786	-0.027610	12.870816	-0.014737	-0.103626	3.284897	1.000000	0.000015	0.000050	-0.000064	-0.587968	-10.648047	177.033666
24022	2.458616	-0.029903	12.899547	-0.038866	-0.100165	3.318666	1.000000	-0.000004	0.000052	-0.000059	-0.588168	-10.646771	177.031115
24023	2.424701	-0.019808	12.894618	-0.007077	-0.112099	3.307454	1.000000	0.000006	0.000041	-0.000068	-0.588521	-10.647260	177.024684
24024	2.414050	-0.005714	12.864561	-0.003003	-0.125838	3.275810	1.000000	0.000003	0.000058	-0.000065	-0.587477	-10.645839	177.023305
24025	2.422007	-0.018949	12.895125	-0.004743	-0.112958	3.307448	1.000000	0.000004	0.000052	-0.000070	-0.588079	-10.645141	177.016680
24026	2.431665	-0.039309	12.902342	-0.011840	-0.092260	3.316529	1.000000	-0.000006	0.000050	-0.000069	-0.588536	-10.645068	177.018088
24027	2.419667	-0.018401	12.895565	-0.002324	-0.113950	3.307440	1.000000	-0.000005	0.000031	-0.000083	-0.589794	-10.646787	177.009911
24028	2.452817	-0.034693	12.877632	-0.024848	0.031141	3.296444	1.000000	0.000012	0.000060	-0.000066	-0.011768	-10.682321	-177.878805
24029	2.428078	0.014122	12.887239	0.003003	-0.016529	3.301290	1.000000	-0.000003	0.000033	-0.000072	-0.011900	-10.683804	-177.879288
24030	2.448928	-0.026851	12.901396	-0.016321	0.023786	3.319074	1.000000	0.000004	0.000052	-0.000070	-0.011417	-10.682921	-177.873323
24031	2.413290	-0.009800	12.919788	0.022587	0.008164	3.330540	1.000000	-0.000006	0.000050	-0.000069	-0.011939	-10.682498	-177.873452
24032	2.446348	-0.026343	12.901887	-0.013929	0.023550	3.319077	1.000000	-0.000006	0.000050	-0.000069	-0.011184	-10.681885	-177.922459
24033	2.434117	-0.005358	12.895146	-0.002480	0.002981	3.310183	1.000000	0.000006	0.000048	-0.000064	-0.010530	-10.681684	-177.921901
24034	2.413061	-0.023069	12.873782	0.013980	0.021448	3.285290	1.000000	-0.000012	0.000025	-0.000077	-0.010716	-10.684656	-177.946602
24035	2.443240	-0.025486	12.902477	-0.010169	0.022952	3.319082	1.000000	0.000006	0.000048	-0.000064	-0.010063	-10.684455	-177.946044
24036	2.421506	0.009352	12.865452	0.005066	-0.010720	3.278664	1.000000	0.000012	0.000060	-0.000066	-0.006795	-10.681732	-178.026349
24037	2.427931	0.003048	12.919332	0.008394	-0.004302	3.332803	1.000000	-0.000015	0.000041	-0.000074	-0.008243	-10.682276	-178.026979
24038	2.437829	-0.017625	12.926520	-0.000476	0.016082	3.341703	1.000000	-0.000013	0.000043	-0.000063	-0.008231	-10.683101	-178.074255
24039	2.428880	-0.010807	12.873115	-0.001389	0.009131	3.287564	1.000000	0.000003	0.000052	-0.000070	-0.007695	-10.682428	-178.074427
24040	2.424406	0.003688	12.919994	0.012203	-0.004656	3.332800	1.000000	0.000006	0.000041	-0.000068	-0.006379	-10.683196	-178.087262
24041	2.415878	-0.041609	12.882302	0.012205	0.040725	3.294185	1.000000	-0.000001	0.000041	-0.000057	-0.006673	-10.683716	-178.085936
24042	2.456431	-0.012445	12.902325	-0.023039	0.010603	3.321373	1.000000	-0.000010	0.000058	-0.000082	-0.005955	-10.682343	-178.141287
24043	2.422500	-0.002573	12.897334	0.009671	0.001683	3.310180	1.000000	-0.000001	0.000035	-0.000062	-0.006112	-10.683580	-178.140502
24044	2.421496	-0.054777	12.913318	0.011706	0.053846	3.325706	1.000000	-0.000018	0.000064	-0.000066	-0.007591	-10.680839	-178.163836
24045	2.430843	-0.023107	12.904823	0.001769	0.021575	3.319088	1.000000	-0.000005	0.000043	-0.000074	-0.007981	-10.681134	-178.164510
24046	2.418774	-0.002232	12.898034	0.013163	0.001032	3.310177	1.000000	-0.000003	0.000039	-0.000068	-0.008023	-10.681937	-178.168898
24047	2.430245	-0.029804	12.881923	-0.001973	0.027912	3.296475	1.000000	-0.000015	0.000054	-0.000064	-0.009751	-10.681049	-178.168448
24048	2.427256	-0.022613	12.905499	0.005420	0.020591	3.319088	1.000000	0.000002	0.000050	-0.000081	-0.010222	-10.680693	-178.125049
24049	2.427646	-0.029317	12.882414	0.000446	0.027142	3.296477	1.000000	-0.000006	0.000050	-0.000069	-0.010753	-10.680272	-178.125182
24050	2.423033	-0.015100	12.929305	0.013879	0.013110	3.341699	1.000000	-0.000006	0.000050	-0.000069	-0.011832	-10.679185	-178.108597
24051	2.425124	-0.028806	12.882890	0.002708	0.026476	3.296478	1.000000	0.000006	0.000048	-0.000064	-0.011188	-10.678984	-178.108041
24052	2.411365	-0.000677	12.899421	0.020434	-0.000974	3.310168	1.000000	0.000006	0.000035	-0.000073	-0.010585	-10.680700	-178.085336
24053	2.411899	-0.007475	12.876310	0.015446	0.005574	3.287557	1.000000	-0.000015	0.000054	-0.000064	-0.012317	-10.679814	-178.084888
24054	2.421568	-0.027933	12.883561	0.006377	0.025620	3.296478	1.000000	0.000003	0.000052	-0.000070	-0.011719	-10.678874	-178.087244
24055	2.420371	-0.027478	12.883787	0.007586	0.025352	3.296478	1.000000	0.000006	0.000041	-0.000068	-0.010938	-10.679390	-178.087231
24056	2.395933	-0.031123	12.909048	0.036406	0.030052	3.316774	1.000000	-0.000003	0.000039	-0.000068	-0.011051	-10.680687	-178.082347
24057	2.416502	-0.019635	12.907522	0.016337	0.018047	3.319083	1.000000	0.000015	0.000050	-0.000064	-0.009350	-10.680235	-178.081833
24058	2.395526	-0.037295	12.886116	0.032365	0.036462	3.294163	1.000000	-0.000012	0.000024	-0.000077	-0.009713	-10.681528	-178.122902
24059	2.439721	-0.021991	12.859492	-0.015213	0.019550	3.276187	1.000000	0.000006	0.000048	-0.000064	-0.009074	-10.681328	-178.122347
24060	2.446250	-0.028366	12.913353	-0.011823	0.026182	3.330326	1.000000	-0.000017	0.000039	-0.000085	-0.009478	-10.681917	-178.164251
24061	2.423480	-0.039046	12.915287	0.010679	0.037633	3.328009	1.000000	0.000015	0.000044	-0.000069	-0.007640	-10.682182	-178.164279
24062	2.436358	-0.020958	12.860131	-0.011636	0.019030	3.276191	1.000000	-0.000006	0.000050	-0.000070	-0.007938	-10.681738	-178.170470
24063	2.410096	-0.017762	12.908722	0.023303	0.016848	3.319074	1.000000	-0.000003	0.000039	-0.000068	-0.008222	-10.682507	-178.170417
24064	2.465093	-0.022962	12.889172	-0.034661	0.020279	3.310054	1.000000	0.000003	0.000052	-0.000070	-0.007533	-10.681071	-178.185076
24065	2.429238	-0.005841	12.907477	0.004268	0.004612	3.321396	1.000000	0.000014	0.000056	-0.000059	-0.005977	-10.679902	-178.184021
24066	2.429650	-0.012424	12.884400	-0.001000	0.011180	3.298796	1.000000	-0.000010	0.000045	-0.000091	-0.006353	-10.678857	-178.204734
24067	2.426789	-0.005328	12.907938	0.006440	0.004088	3.321395	1.000000	-0.000013	0.000043	-0.000063	-0.007838	-10.679161	-178.204101
24068	2.425779	-0.005206	12.908127	0.007564	0.003763	3.321395	1.000000	-0.000001	0.000035	-0.000062	-0.008237	-10.680006	-178.197169
24069	2.434043	-0.018320	12.938662	0.004804	0.016968	3.352933	1.000000	0.000013	0.000048	-0.000075	-0.006522	-10.679800	-178.197927
24070	2.423615	-0.004121	12.908534	0.009636	0.003259	3.321394	1.000000	0.000008	0.000037	-0.000062	-0.005398	-10.679230	-178.226904
24071	2.424229	-0.010783	12.885423	0.004612	0.009810	3.298796	1.000000	-0.000006	0.000050	-0.000070	-0.005944	-10.678813	-178.227041
24072	2.454162	-0.013079	12.914253	-0.019667	0.011417	3.332673	1.000000	-0.000001	0.000035	-0.000062	-0.005531	-10.678982	-178.262430
24073	2.422161	-0.010431	12.885812	0.006790	0.009387	3.298796	1.000000	-0.000015	0.000041	-0.000074	-0.006998	-10.679534	-178.263069
24074	2.430427	-0.023792	12.916349	0.004053	0.022643	3.330337	1.000000	0.000006	0.000041	-0.000068	-0.005987	-10.680073	-178.269522
24075	2.450969	-0.012125	12.914860	-0.016022	0.010646	3.332679	1.000000	0.000013	0.000048	-0.000075	-0.004276	-10.679868	-178.270280
24076	2.429858	-0.029877	12.893466	0.000327	0.028849	3.307744	1.000000	-0.000013	0.000043	-0.000063	-0.006107	-10.680642	-178.246759
24077	2.428666	-0.029676	12.893691	0.001536	0.028576	3.307745	1.000000	0.000001	0.000050	-0.000081	-0.005574	-10.680220	-178.248208
24078	2.460290	-0.038844	12.899227	-0.028854	0.036965	3.319045	1.000000	-0.000003	0.000039	-0.000068	-0.005396	-10.680439	-178.272442
24079	2.413466	-0.001423	12.910436	0.020296	0.001017	3.321382	1.000000	0.000001	0.000056	-0.000076	-0.005006	-10.679300	-178.273350
24080	2.444924	-0.010494	12.916008	-0.010038	0.009315	3.332686	1.000000	0.000004	0.000045	-0.000075	-0.004275	-10.679060	-178.279533
24081	2.410932	-0.000560	12.910910	0.022657	0.000490	3.321378	1.000000	0.000001	0.000050	-0.000081	-0.003745	-10.678639	-178.280983
24082	2.422347	-0.027757	12.894884	0.007394	0.027281	3.307746	1.000000	0.000001	0.000062	-0.000071	-0.003723	-10.676775	-178.270659
24083	2.421098	-0.027441	12.895119	0.008604	0.027009	3.307745	1.000000	-0.000001	0.000035	-0.000062	-0.003900	-10.678016	-178.269879
24084	2.431023	-0.047813	12.902365	-0.000660	0.046967	3.316706	1.000000	-0.000006	0.000056	-0.000065	-0.004797	-10.675718	-178.278852
24085	2.420464	-0.034171	12.872252	0.004488	0.033232	3.285158	1.000000	-0.000015	0.000041	-0.000074	-0.006270	-10.676273	-178.279494
24086	2.417469	-0.027100	12.895800	0.012179	0.026240	3.307744	1.000000	-0.000008	0.000054	-0.000076	-0.006522	-10.676316	-178.279018
24087	2.416277	-0.026902	12.896024	0.013388	0.025968	3.307743	1.000000	-0.000003	0.000039	-0.000068	-0.006819	-10.677088	-178.278970
24088	2.415109	-0.026572	12.896244	0.014580	0.025663	3.307743	1.000000	0.000003	0.000052	-0.000070	-0.006476	-10.676354	-178.272244
24089	2.402752	-0.005431	12.889448	0.026013	0.005116	3.298774	1.000000	0.000017	0.000046	-0.000058	-0.004679	-10.676371	-178.271002
24090	2.412687	-0.025554	12.896699	0.016899	0.025176	3.307741	1.000000	-0.000010	0.000045	-0.000091	-0.004906	-10.675997	-178.290291
24091	2.433322	-0.014197	12.895220	-0.003152	0.013139	3.310108	1.000000	-0.000001	0.000035	-0.000062	-0.005087	-10.677239	-178.289513
24092	2.408689	-0.018115	12.920430	0.025476	0.017814	3.330321	1.000000	-0.000006	0.000056	-0.000065	-0.005754	-10.675505	-178.298925
24093	2.442044	-0.034358	12.902706	-0.011088	0.032869	3.319082	1.000000	-0.000003	0.000039	-0.000068	-0.006055	-10.676277	-178.298877
24094	2.429762	-0.013457	12.895892	0.000324	0.012488	3.310109	1.000000	0.000003	0.000052	-0.000070	-0.004809	-10.675513	-178.327136
24095	2.428563	-0.013006	12.896118	0.001535	0.012214	3.310110	1.000000	0.000006	0.000041	-0.000068	-0.004052	-10.676032	-178.327128
24096	2.429253	-0.019412	12.873012	-0.003488	0.018918	3.287530	1.000000	0.000017	0.000046	-0.000058	-0.001578	-10.676330	-178.344711
24097	2.402905	-0.016196	12.921510	0.031584	0.016759	3.330309	1.000000	-0.000013	0.000037	-0.000068	-0.002938	-10.677358	-178.344626
24098	2.448625	-0.007459	12.871785	-0.022311	0.006711	3.289912	1.000000	0.000023	0.000058	-0.000060	0.000106	-10.676029	-178.357162
24099	2.423843	-0.011052	12.897008	0.006465	0.011373	3.310109	1.000000	-0.000006	0.000043	-0.000074	-0.000315	-10.676334	-178.357846
24100	2.422730	-0.010838	12.897217	0.007851	0.011209	3.310108	1.000000	-0.000006	0.000043	-0.000074	-0.000266	-10.677415	-178.360468
24101	2.421641	-0.010614	12.897422	0.009062	0.010936	3.310108	1.000000	-0.000002	0.000041	-0.000057	-0.000592	-10.677941	-178.359150
24102	2.453307	-0.019666	12.903025	-0.021151	0.019239	3.321480	1.000000	0.000004	0.000045	-0.000075	0.000370	-10.678203	-178.366492
24103	2.428683	-0.023492	12.928209	0.007632	0.023910	3.341666	1.000000	-0.000006	0.000043	-0.000074	-0.000052	-10.678508	-178.367177
24104	2.431079	-0.037188	12.881816	-0.003909	0.037356	3.296519	1.000000	0.000001	0.000056	-0.000076	0.000667	-10.676829	-178.389130
24105	2.416965	-0.009427	12.898300	0.013831	0.009984	3.310104	1.000000	-0.000010	0.000033	-0.000061	-0.000577	-10.678327	-178.388316
24106	2.437655	0.002119	12.896836	-0.006259	-0.002234	3.312498	1.000000	0.000013	0.000041	-0.000080	0.000513	-10.678610	-178.365999
24107	2.449495	-0.024842	12.880786	-0.021600	0.024576	3.298919	1.000000	0.000005	0.000048	-0.000064	0.001123	-10.678413	-178.365451
24108	2.415379	-0.015174	12.875628	0.011005	0.015833	3.287530	1.000000	-0.000006	0.000056	-0.000065	0.000472	-10.676951	-178.372282
24109	2.444935	-0.017256	12.904618	-0.012924	0.017213	3.321493	1.000000	0.000003	0.000052	-0.000070	0.000962	-10.676285	-178.372465
24110	2.410924	-0.007700	12.899432	0.019833	0.008418	3.310098	1.000000	-0.000013	0.000043	-0.000063	-0.000790	-10.676926	-178.355892
24111	2.442492	-0.016863	12.905081	-0.010429	0.016603	3.321496	1.000000	0.000003	0.000052	-0.000070	-0.000302	-10.676260	-178.356075
24112	2.441109	-0.016577	12.905343	-0.009106	0.016156	3.321498	1.000000	-0.000006	0.000056	-0.000065	-0.001760	-10.675648	-178.318043
24113	2.407124	-0.007033	12.900142	0.023585	0.007453	3.310092	1.000000	-0.000005	0.000037	-0.000079	-0.002045	-10.676672	-178.319271
24114	2.417006	-0.027270	12.907437	0.014538	0.027462	3.319092	1.000000	0.000000	0.000062	-0.000072	-0.001661	-10.674801	-178.324737
24115	2.427836	-0.002402	12.875724	-0.001579	0.001936	3.289933	1.000000	-0.000014	0.000056	-0.000054	-0.003458	-10.673683	-178.323031
24116	2.446955	-0.036299	12.913407	-0.014532	0.035383	3.330506	1.000000	0.000005	0.000048	-0.000064	-0.002641	-10.673423	-178.330306
24117	2.436397	-0.022579	12.883274	-0.009430	0.021678	3.298939	1.000000	-0.000018	0.000051	-0.000076	-0.004391	-10.672801	-178.331145
24118	2.400478	-0.006199	12.901380	0.029535	0.006135	3.310081	1.000000	-0.000004	0.000045	-0.000063	-0.005017	-10.672472	-178.331034
24119	2.423448	-0.053943	12.892421	0.003859	0.053158	3.305532	1.000000	0.000003	0.000052	-0.000070	-0.004534	-10.671808	-178.331218
24120	2.419578	0.005621	12.900238	0.010653	-0.006348	3.312494	1.000000	-0.000008	0.000047	-0.000081	-0.005562	-10.671241	-178.322609
24121	2.419126	-0.046199	12.916195	0.012546	0.045690	3.328095	1.000000	0.000015	0.000044	-0.000069	-0.003760	-10.671507	-178.322641
24122	2.430436	-0.021092	12.884403	-0.003559	0.020182	3.298944	1.000000	-0.000013	0.000037	-0.000068	-0.004996	-10.672575	-178.325875
24123	2.407728	-0.032091	12.886214	0.018859	0.031753	3.296521	1.000000	0.000005	0.000048	-0.000064	-0.004396	-10.672380	-178.325328
24124	2.426284	-0.013548	12.908142	0.005149	0.012868	3.321504	1.000000	-0.000006	0.000043	-0.000074	-0.004609	-10.672268	-178.341627
24125	2.405531	-0.031412	12.886626	0.021184	0.031251	3.296519	1.000000	0.000008	0.000037	-0.000062	-0.003747	-10.673258	-178.340891
24126	2.457066	-0.022108	12.913989	-0.023822	0.020481	3.332950	1.000000	-0.000004	0.000039	-0.000068	-0.004973	-10.674436	-178.299715
