// Start Time: Unknown
// Update Rate: 100.0Hz
// Filter Profile: human (46.1)
// Firmware Version: 4.4.0
PacketCounter	Acc_X	Acc_Y	Acc_Z	FreeAcc_X	FreeAcc_Y	FreeAcc_Z	OriInc_q0	OriInc_q1	OriInc_q2	OriInc_q3	Roll	Pitch	Yaw
56313	9.527352	-0.200507	2.451036	0.000000	0.000000	0.026937	1.000000	0.000031	0.000019	0.000017	-4.674954	-75.527736	-3.159335
56314	9.535343	-0.235060	2.428336	0.001791	-0.023907	0.029785	1.000000	0.000025	0.000024	0.000006	-4.969509	-75.630698	-2.668481
56315	9.552348	-0.209437	2.473754	-0.033840	0.007293	0.056937	1.000000	0.000024	0.000016	0.000015	-4.972815	-75.628667	-2.662241
56316	9.568017	-0.210707	2.455553	-0.012139	0.003548	0.067643	1.000000	0.000022	0.000024	0.000014	-4.974985	-75.625301	-2.657102
56317	9.557814	-0.216524	2.383648	0.054027	-0.011544	0.040100	1.000000	0.000004	0.000018	-0.000001	-4.973516	-75.623280	-2.658144
56318	9.551345	-0.223211	2.443226	-0.005145	-0.010186	0.048714	1.000000	0.000041	0.000031	0.000028	-4.980038	-75.619536	-2.646591
56319	9.558259	-0.203444	2.416299	0.025392	0.005922	0.048323	1.000000	0.000021	0.000006	0.000007	-4.980412	-75.618743	-2.643711
56320	9.551180	-0.223492	2.443845	-0.005162	-0.010182	0.048714	1.000000	0.000031	0.000019	0.000017	-4.983910	-75.616549	-2.636445
56321	9.551066	-0.223733	2.444268	-0.005162	-0.010182	0.048714	1.000000	0.000020	0.000025	0.000021	-4.990007	-75.613543	-2.627824
56322	9.525750	-0.215212	2.422778	0.010745	-0.004067	0.018689	1.000000	0.000031	0.000019	0.000017	-4.993786	-75.611314	-2.620286
56323	9.551494	-0.210722	2.476939	-0.033799	0.007298	0.056937	1.000000	0.000029	0.000026	0.000016	-4.996404	-75.608140	-2.614102
56324	9.496377	-0.240883	2.528565	-0.100569	-0.015078	0.016987	1.000000	0.000025	0.000009	0.000016	-5.000808	-75.606950	-2.606570
56325	9.483655	-0.254180	2.646739	-0.218895	-0.012367	0.034214	1.000000	0.000005	-0.000013	0.000020	-5.009721	-75.608250	-2.596823
56326	9.539642	-0.176228	2.368698	0.072117	0.028200	0.017905	1.000000	0.000069	-0.000012	0.000026	-5.015209	-75.607693	-2.583033
56327	9.577136	-0.288007	2.471088	-0.031612	-0.069623	0.082004	1.000000	0.000031	-0.000018	-0.000003	-5.010783	-75.609727	-2.583930
56328	9.610954	-0.215417	2.270804	0.178566	-0.023931	0.063594	1.000000	-0.000011	0.000001	0.000030	-5.027275	-75.607948	-2.568323
56329	9.527642	-0.176320	2.518445	-0.074591	0.048455	0.043361	1.000000	0.000049	0.000015	0.000016	-5.028131	-75.606097	-2.561616
56330	9.607501	-0.236506	2.430102	0.022819	-0.023542	0.100149	1.000000	0.000029	0.000026	0.000016	-5.031994	-75.602256	-2.554228
56331	9.517756	-0.250110	2.419350	0.009494	-0.037461	0.010856	1.000000	0.000045	0.000013	0.000006	-5.029130	-75.600766	-2.551872
56332	9.555564	-0.246044	2.323532	0.111975	-0.046149	0.023647	1.000000	-0.000000	0.000036	0.000021	-5.039911	-75.596044	-2.540940
56333	9.556971	-0.138143	2.447152	0.008294	0.077116	0.053280	1.000000	0.000021	0.000032	0.000012	-5.041586	-75.592254	-2.536739
56334	9.566565	-0.213688	2.460947	-0.011538	0.003950	0.067643	1.000000	0.000071	0.000055	0.000019	-5.041424	-75.586411	-2.528579
56335	9.527102	-0.244768	2.494414	-0.056695	-0.022168	0.038403	1.000000	0.000025	0.000024	0.000006	-5.040305	-75.583597	-2.526763
56336	9.534048	-0.224846	2.467456	-0.026148	-0.005960	0.038010	1.000000	0.000013	0.000012	0.000003	-5.042072	-75.582153	-2.523588
56337	9.541037	-0.205020	2.440328	0.004388	0.010148	0.037617	1.000000	0.000018	0.000007	0.000014	-5.046021	-75.581262	-2.517335
56338	9.556743	-0.206329	2.422044	0.026045	0.006511	0.048321	1.000000	0.000022	0.000024	0.000013	-5.050615	-75.578184	-2.510079
56339	9.568375	-0.241629	2.530864	-0.079570	-0.014339	0.087359	1.000000	0.000045	0.000023	0.000022	-5.054240	-75.575358	-2.501011
56340	9.516662	-0.251225	2.423534	0.009636	-0.036976	0.010858	1.000000	0.000014	-0.000011	0.000015	-5.062041	-75.575794	-2.491402
56341	9.555566	-0.152501	2.418244	0.036991	0.060015	0.045053	1.000000	0.000013	-0.000003	0.000013	-5.066669	-75.576047	-2.485102
56342	9.566001	-0.214631	2.463055	-0.011337	0.004295	0.067643	1.000000	0.000021	0.000006	0.000007	-5.068427	-75.575072	-2.480929
56343	9.532044	-0.184946	2.432488	0.013490	0.030227	0.026518	1.000000	0.000034	0.000003	0.000020	-5.073414	-75.574533	-2.471763
56344	9.522657	-0.177492	2.391915	0.051046	0.032602	0.007195	1.000000	0.000024	-0.000009	0.000010	-5.075504	-75.575399	-2.466885
56345	9.548858	-0.240785	2.418216	0.024307	-0.026903	0.040491	1.000000	0.000031	0.000019	0.000017	-5.078891	-75.573107	-2.459732
56346	9.582295	-0.202897	2.476781	-0.018441	0.018021	0.086572	1.000000	0.000031	0.000019	0.000017	-5.081772	-75.571486	-2.453032
56347	9.531225	-0.198974	2.401310	0.042014	0.012752	0.018294	1.000000	0.000030	0.000001	0.000011	-5.083055	-75.571317	-2.448204
56348	9.524061	-0.219064	2.429065	0.011363	-0.003417	0.018688	1.000000	0.000053	0.000043	0.000031	-5.087355	-75.566751	-2.437429
56349	9.549082	-0.228216	2.451595	-0.004554	-0.009514	0.048715	1.000000	0.000018	0.000017	0.000030	-5.097787	-75.564529	-2.424478
56350	9.563126	-0.188685	2.397176	0.056415	0.022670	0.047928	1.000000	0.000021	0.000006	0.000007	-5.097314	-75.564321	-2.422550
56351	9.523745	-0.219892	2.430228	0.011258	-0.003447	0.018688	1.000000	0.000034	0.000029	0.000025	-5.103595	-75.560785	-2.412081
56352	9.565235	-0.216512	2.465864	-0.011847	0.004125	0.067643	1.000000	0.000041	0.000021	0.000012	-5.101745	-75.559369	-2.409098
56353	9.508788	-0.273364	2.453826	-0.021373	-0.053195	0.011250	1.000000	0.000037	0.000003	0.000013	-5.103154	-75.558919	-2.403316
56354	9.548041	-0.242451	2.421274	0.023696	-0.027066	0.040492	1.000000	0.000010	0.000012	0.000010	-5.106309	-75.557907	-2.398779
56355	9.549313	-0.215744	2.484907	-0.033553	0.007863	0.056937	1.000000	0.000003	-0.000005	0.000019	-5.114410	-75.558306	-2.390054
56356	9.539905	-0.208340	2.444465	0.003917	0.010268	0.037617	1.000000	0.000020	0.000014	0.000005	-5.114685	-75.557037	-2.387271
56357	9.548573	-0.229418	2.453464	-0.004992	-0.009567	0.048714	1.000000	0.000035	0.000011	0.000011	-5.115274	-75.555687	-2.382504
56358	9.539164	-0.221819	2.413053	0.032377	-0.007109	0.029395	1.000000	0.000032	0.000000	0.000003	-5.114865	-75.556628	-2.379989
56359	9.555548	-0.209534	2.426480	0.025376	0.006630	0.048323	1.000000	0.000015	0.000022	0.000011	-5.117218	-75.553964	-2.375759
56360	9.539653	-0.208513	2.445436	0.003548	0.010378	0.037617	1.000000	0.000024	0.000017	0.000015	-5.120742	-75.553125	-2.368956
56361	9.539574	-0.208600	2.445738	0.003551	0.010379	0.037617	1.000000	0.000020	0.000014	0.000005	-5.120305	-75.551439	-2.367101
56362	9.555934	-0.196229	2.459258	-0.003688	0.024129	0.056545	1.000000	0.000036	0.000018	0.000002	-5.116577	-75.550703	-2.366788
56363	9.548124	-0.229689	2.455184	-0.005596	-0.009442	0.048714	1.000000	0.000028	0.000019	0.000025	-5.123536	-75.548294	-2.356275
56364	9.539287	-0.208723	2.446845	0.003153	0.010446	0.037617	1.000000	0.000028	0.000024	-0.000001	-5.119950	-75.546550	-2.358147
56365	9.555637	-0.196510	2.460390	-0.003850	0.024187	0.056544	1.000000	0.000030	0.000011	0.000026	-5.127758	-75.545019	-2.346610
56366	9.539105	-0.209244	2.447510	0.003055	0.010375	0.037617	1.000000	0.000033	0.000021	0.000034	-5.136567	-75.542811	-2.333458
56367	9.547728	-0.230549	2.456645	-0.005858	-0.009457	0.048714	1.000000	0.000027	0.000016	0.000008	-5.136287	-75.540861	-2.330637
56368	9.563456	-0.231844	2.438343	0.015745	-0.013187	0.059422	1.000000	0.000032	0.000011	0.000019	-5.140420	-75.539531	-2.323795
56369	9.563392	-0.232122	2.438566	0.015749	-0.013182	0.059422	1.000000	0.000030	0.000011	0.000026	-5.148255	-75.537980	-2.312251
56370	9.538834	-0.210087	2.448495	0.002929	0.010401	0.037617	1.000000	0.000030	0.000001	0.000011	-5.149929	-75.538462	-2.307892
56371	9.547538	-0.231275	2.457314	-0.005981	-0.009428	0.048714	1.000000	0.000034	0.000003	0.000020	-5.155017	-75.537883	-2.298701
56372	9.522344	-0.222587	2.435467	0.010004	-0.003427	0.018690	1.000000	0.000031	0.000008	0.000002	-5.149687	-75.536497	-2.299106
56373	9.554539	-0.211435	2.430285	0.024631	0.006586	0.048325	1.000000	0.000035	0.000011	0.000011	-5.150350	-75.535113	-2.294315
56374	9.554501	-0.211618	2.430418	0.024351	0.006527	0.048325	1.000000	0.000002	0.000003	0.000017	-5.155945	-75.536272	-2.287432
56375	9.570883	-0.199633	2.443825	0.017353	0.020267	0.067253	1.000000	0.000028	0.000019	0.000025	-5.162926	-75.533824	-2.276922
56376	9.545632	-0.191070	2.422199	0.032856	0.026343	0.037230	1.000000	0.000027	0.000016	0.000008	-5.161707	-75.534339	-2.275478
56377	9.554266	-0.212133	2.431299	0.023943	0.006511	0.048326	1.000000	0.000027	0.000016	0.000008	-5.161430	-75.532382	-2.272660
56378	9.554176	-0.212231	2.431645	0.023735	0.006389	0.048327	1.000000	0.000031	0.000019	0.000017	-5.161726	-75.531253	-2.267826
56379	9.522491	-0.210084	2.469057	-0.019502	0.013848	0.026908	1.000000	0.000023	0.000009	0.000024	-5.169390	-75.529970	-2.257261
56380	9.553973	-0.212821	2.432387	0.023343	0.006366	0.048328	1.000000	0.000039	0.000039	0.000026	-5.173987	-75.527594	-2.249309
56381	9.545142	-0.192096	2.424049	0.032261	0.026204	0.037233	1.000000	0.000016	0.000007	0.000022	-5.181570	-75.526596	-2.239685
56382	9.530888	-0.231971	2.478974	-0.028806	-0.006124	0.038002	1.000000	0.000049	0.000015	0.000016	-5.179686	-75.524628	-2.236128
56383	9.554350	-0.199932	2.465109	-0.005268	0.023724	0.056545	1.000000	0.000017	0.000014	0.000013	-5.182894	-75.522816	-2.230883
56384	9.537208	-0.226022	2.420384	0.030005	-0.007504	0.029402	1.000000	0.000023	0.000009	0.000024	-5.189691	-75.523658	-2.223417
56385	9.562937	-0.221424	2.474327	-0.014543	0.003873	0.067639	1.000000	0.000035	0.000011	0.000011	-5.190414	-75.522309	-2.218610
56386	9.530632	-0.232638	2.479897	-0.029310	-0.006219	0.038001	1.000000	0.000025	0.000009	0.000016	-5.192353	-75.522019	-2.214290
56387	9.553534	-0.214309	2.433982	0.022853	0.006163	0.048329	1.000000	0.000019	-0.000009	0.000025	-5.201636	-75.522747	-2.202606
56388	9.544788	-0.193372	2.425342	0.031922	0.025904	0.037235	1.000000	0.000028	0.000024	-0.000001	-5.194887	-75.519100	-2.206821
56389	9.562090	-0.235623	2.443331	0.014096	-0.013757	0.059423	1.000000	0.000018	0.000017	0.000030	-5.205429	-75.516791	-2.193865
56390	9.537550	-0.213732	2.453174	0.000843	0.009800	0.037618	1.000000	0.000044	-0.000011	0.000026	-5.211469	-75.520982	-2.184261
56391	9.553312	-0.215170	2.434778	0.022467	0.006078	0.048330	1.000000	0.000029	0.000026	0.000016	-5.214203	-75.517770	-2.178097
56392	9.529647	-0.247466	2.449371	-0.001213	-0.023890	0.029785	1.000000	0.000024	0.000017	0.000015	-5.214313	-75.516556	-2.174806
56393	9.577624	-0.237775	2.425764	0.035023	-0.017606	0.070137	1.000000	0.000024	0.000017	0.000015	-5.217739	-75.514479	-2.168578
56394	9.553027	-0.215672	2.435852	0.022141	0.005790	0.048331	1.000000	0.000024	0.000017	0.000015	-5.216761	-75.513464	-2.164310
56395	9.537160	-0.214637	2.454612	0.000530	0.009528	0.037618	1.000000	0.000034	0.000003	0.000020	-5.221874	-75.512873	-2.155121
56396	9.552902	-0.215898	2.436321	0.021788	0.005798	0.048332	1.000000	0.000028	0.000024	-0.000001	-5.216877	-75.512265	-2.158487
56397	9.545680	-0.235868	2.464088	-0.008747	-0.010297	0.048711	1.000000	0.000018	0.000017	0.000030	-5.227420	-75.509998	-2.145540
56398	9.553339	-0.202676	2.468798	-0.007175	0.023285	0.056545	1.000000	0.000029	0.000016	0.000000	-5.223430	-75.510161	-2.147667
56399	9.552584	-0.216223	2.437541	0.021453	0.005825	0.048333	1.000000	0.000028	0.000034	0.000014	-5.225341	-75.506092	-2.142532
56400	9.536011	-0.228691	2.424846	0.028013	-0.007873	0.029408	1.000000	0.000024	0.000017	0.000015	-5.229128	-75.506690	-2.138315
56401	9.545237	-0.236354	2.465755	-0.009538	-0.010225	0.048710	1.000000	0.000031	0.000019	0.000017	-5.232710	-75.504398	-2.131130
56402	9.552915	-0.203100	2.470405	-0.007930	0.023352	0.056544	1.000000	0.000028	0.000008	0.000009	-5.233026	-75.505123	-2.128847
56403	9.551610	-0.230333	2.407107	0.049318	-0.011578	0.040125	1.000000	0.000032	0.000011	0.000019	-5.237443	-75.503718	-2.120636
56404	9.536390	-0.215656	2.457512	-0.001237	0.009494	0.037618	1.000000	0.000023	-0.000001	0.000008	-5.235196	-75.505594	-2.118518
56405	9.527670	-0.194814	2.448796	0.007682	0.029339	0.026527	1.000000	0.000030	0.000011	0.000026	-5.243147	-75.504096	-2.106958
56406	9.527617	-0.195157	2.448975	0.007113	0.029498	0.026527	1.000000	0.000016	0.000007	0.000022	-5.253913	-75.506491	-2.099300
56407	9.552033	-0.217693	2.439566	0.019790	0.005945	0.048336	1.000000	0.000029	0.000026	0.000016	-5.256753	-75.503378	-2.093112
56408	9.551940	-0.217866	2.439913	0.019566	0.005956	0.048336	1.000000	0.000025	0.000009	0.000016	-5.260887	-75.503518	-2.088579
56409	9.535429	-0.230363	2.426976	0.026564	-0.007765	0.029412	1.000000	0.000024	0.000017	0.000015	-5.264474	-75.501547	-2.082303
56410	9.568230	-0.205820	2.453679	0.012756	0.019761	0.067261	1.000000	0.000027	0.000016	0.000008	-5.265474	-75.498356	-2.081870
56411	9.535281	-0.230631	2.427531	0.026769	-0.007698	0.029411	1.000000	0.000016	0.000007	0.000022	-5.273394	-75.497385	-2.072133
56412	9.535794	-0.217371	2.459675	-0.002556	0.009765	0.037618	1.000000	0.000025	0.000035	0.000022	-5.277719	-75.497339	-2.066038
56413	9.551508	-0.218784	2.441524	0.019046	0.006048	0.048337	1.000000	0.000021	0.000006	0.000007	-5.278523	-75.496615	-2.063020
56414	9.535626	-0.217625	2.460303	-0.002712	0.009840	0.037618	1.000000	0.000024	0.000017	0.000015	-5.282903	-75.495418	-2.059286
56415	9.551381	-0.218985	2.442002	0.018891	0.006124	0.048338	1.000000	0.000028	0.000008	0.000009	-5.283870	-75.494421	-2.055302
56416	9.543249	-0.184550	2.465183	-0.001378	0.043105	0.045452	1.000000	0.000028	0.000019	0.000025	-5.282502	-75.495306	-2.047418
56417	9.535408	-0.218169	2.461100	-0.003314	0.009553	0.037618	1.000000	0.000025	0.000009	0.000016	-5.286934	-75.494238	-2.040116
56418	9.567601	-0.207447	2.455994	0.010878	0.019810	0.067263	1.000000	0.000018	0.000017	0.000030	-5.302988	-75.494459	-2.029831
56419	9.550412	-0.233572	2.411545	0.046490	-0.011387	0.040139	1.000000	0.000024	0.000032	0.000005	-5.301527	-75.490885	-2.028911
56420	9.526427	-0.197764	2.453392	0.005439	0.029470	0.026528	1.000000	0.000025	0.000009	0.000016	-5.301164	-75.488188	-2.024697
56421	9.550900	-0.220117	2.443781	0.018105	0.005922	0.048339	1.000000	0.000032	0.000000	0.000003	-5.299392	-75.488185	-2.023050
56422	9.558582	-0.186927	2.448456	0.020117	0.039189	0.056174	1.000000	0.000015	0.000033	0.000027	-5.300979	-75.483566	-2.015508
56423	9.525601	-0.211791	2.422437	0.034129	0.011730	0.018326	1.000000	0.000014	0.000004	0.000005	-5.301668	-75.483089	-2.013440
56424	9.566487	-0.221876	2.426127	0.039371	0.001969	0.059062	1.000000	0.000024	0.000017	0.000015	-5.306248	-75.483563	-2.010559
56425	9.541919	-0.199822	2.436083	0.026682	0.025564	0.037251	1.000000	0.000023	0.000009	0.000024	-5.314345	-75.482364	-1.999864
56426	9.566365	-0.222403	2.426560	0.039641	0.002135	0.059061	1.000000	0.000025	0.000009	0.000016	-5.322084	-75.479548	-1.996221
56427	9.541823	-0.200353	2.436417	0.026962	0.025736	0.037250	1.000000	0.000016	0.000007	0.000022	-5.330176	-75.478571	-1.986431
56428	9.550401	-0.221489	2.445609	0.017594	0.005858	0.048340	1.000000	0.000042	0.000028	0.000003	-5.324180	-75.477831	-1.989820
56429	9.533840	-0.233975	2.432866	0.024596	-0.007855	0.029417	1.000000	0.000018	0.000017	0.000030	-5.335140	-75.475621	-1.976750
56430	9.540916	-0.214486	2.405792	0.054475	0.008195	0.029054	1.000000	0.000049	0.000015	0.000016	-5.334612	-75.477689	-1.973497
56431	9.541477	-0.201005	2.437718	0.025844	0.025713	0.037253	1.000000	0.000011	0.000004	0.000012	-5.339080	-75.477127	-1.967992
56432	9.542299	-0.255577	2.442466	0.014125	-0.027776	0.040508	1.000000	0.000031	0.000019	0.000017	-5.339601	-75.479769	-1.964087
56433	9.534157	-0.221030	2.465688	-0.005573	0.009571	0.037617	1.000000	0.000027	0.000016	0.000008	-5.339901	-75.477949	-1.961080
56434	9.565750	-0.223779	2.428858	0.037615	0.002100	0.059069	1.000000	0.000023	0.000009	0.000024	-5.348017	-75.476841	-1.953495
56435	9.533402	-0.235148	2.434468	0.022999	-0.007863	0.029421	1.000000	0.000021	0.000017	0.000022	-5.355481	-75.474795	-1.943762
56436	9.549779	-0.222929	2.447904	0.014917	0.006030	0.048345	1.000000	0.000031	0.000008	0.000002	-5.355071	-75.480159	-1.945734
56437	9.549692	-0.222870	2.448248	0.014889	0.006066	0.048345	1.000000	0.000032	0.000026	0.000008	-5.354763	-75.477242	-1.942773
56438	9.548120	-0.182256	2.412314	0.054914	0.041992	0.036896	1.000000	0.000016	0.000007	0.000022	-5.363271	-75.473136	-1.936089
56439	9.548882	-0.237042	2.417256	0.044012	-0.011367	0.040150	1.000000	0.000023	0.000035	0.000029	-5.372860	-75.468968	-1.924079
56440	9.524278	-0.214951	2.427355	0.030378	0.012285	0.018338	1.000000	0.000028	0.000008	0.000009	-5.374334	-75.473641	-1.922550
56441	9.556505	-0.203966	2.422199	0.044949	0.022317	0.047988	1.000000	0.000035	0.000011	0.000011	-5.375763	-75.472471	-1.917502
56442	9.533420	-0.222439	2.468407	-0.007644	0.009947	0.037615	1.000000	0.000027	0.000016	0.000008	-5.373888	-75.473043	-1.917338
56443	9.549164	-0.223832	2.450218	0.013933	0.006234	0.048346	1.000000	0.000031	0.000019	0.000017	-5.378062	-75.470902	-1.909963
56444	9.549074	-0.224077	2.450546	0.013733	0.006364	0.048346	1.000000	0.000014	0.000015	0.000020	-5.387631	-75.470202	-1.904648
56445	9.548997	-0.224464	2.450812	0.013706	0.006408	0.048346	1.000000	0.000004	0.000013	0.000025	-5.398671	-75.468642	-1.893368
56446	9.548932	-0.224716	2.451043	0.013644	0.006944	0.048346	1.000000	0.000035	0.000011	0.000011	-5.411821	-75.467771	-1.891425
56447	9.540206	-0.203714	2.442464	0.022577	0.026816	0.037258	1.000000	0.000034	0.000018	0.000010	-5.412691	-75.465713	-1.887309
56448	9.532948	-0.223623	2.470122	-0.007684	0.010773	0.037614	1.000000	0.000016	0.000007	0.000022	-5.420783	-75.462923	-1.881048
56449	9.548718	-0.225108	2.451840	0.013902	0.007064	0.048345	1.000000	0.000034	0.000018	0.000010	-5.421690	-75.460824	-1.876919
56450	9.555845	-0.205405	2.424681	0.043081	0.023336	0.047994	1.000000	0.000021	0.000006	0.000007	-5.426081	-75.468202	-1.876030
56451	9.555792	-0.205524	2.424878	0.043050	0.023392	0.047994	1.000000	0.000039	0.000013	0.000021	-5.431551	-75.466688	-1.866551
56452	9.549142	-0.211712	2.484231	-0.016397	0.024738	0.056530	1.000000	0.000006	0.000010	0.000001	-5.427922	-75.467123	-1.870055
56453	9.523366	-0.216877	2.430760	0.028147	0.013345	0.018343	1.000000	0.000033	0.000021	0.000034	-5.439665	-75.464519	-1.854911
56454	9.539695	-0.204792	2.444366	0.021058	0.027274	0.037260	1.000000	0.000018	0.000022	0.000004	-5.442513	-75.462500	-1.857158
56455	9.531792	-0.238230	2.440463	0.019066	-0.006236	0.029430	1.000000	0.000031	0.000019	0.000017	-5.447117	-75.460364	-1.849630
56456	9.539505	-0.205040	2.445090	0.020666	0.026977	0.037262	1.000000	0.000017	0.000014	0.000013	-5.441493	-75.460622	-1.847367
56457	9.563892	-0.227467	2.435823	0.033271	0.003449	0.059084	1.000000	0.000025	0.000024	0.000006	-5.441531	-75.457990	-1.845193
56458	9.546513	-0.185501	2.418419	0.051661	0.042935	0.036910	1.000000	0.000039	0.000013	0.000021	-5.442599	-75.453545	-1.840314
56459	9.547854	-0.226348	2.455089	0.012107	0.007122	0.048348	1.000000	0.000025	0.000024	0.000006	-5.442628	-75.450863	-1.838143
56460	9.538528	-0.219208	2.414818	0.048860	0.009237	0.029083	1.000000	0.000020	0.000009	0.000031	-5.448768	-75.454236	-1.826883
56461	9.564137	-0.214447	2.468852	0.004254	0.020743	0.067266	1.000000	0.000029	0.000016	0.000000	-5.446042	-75.452574	-1.827042
56462	9.554831	-0.207171	2.428524	0.041167	0.022954	0.048003	1.000000	0.000030	0.000011	0.000026	-5.451146	-75.454866	-1.818899
56463	9.522450	-0.218344	2.434214	0.026541	0.013024	0.018348	1.000000	0.000025	0.000024	0.000006	-5.451139	-75.452247	-1.816748
56464	9.547423	-0.227130	2.456690	0.011269	0.007273	0.048349	1.000000	0.000024	0.000017	0.000015	-5.462231	-75.446125	-1.814613
56465	9.530933	-0.239569	2.443685	0.018249	-0.006421	0.029432	1.000000	0.000030	0.000001	0.000011	-5.464837	-75.446071	-1.809311
56466	9.554556	-0.207592	2.429568	0.042515	0.023249	0.047997	1.000000	0.000035	0.000011	0.000011	-5.462949	-75.440604	-1.808644
56467	9.546698	-0.241142	2.425463	0.040534	-0.010261	0.040166	1.000000	0.000016	0.000007	0.000022	-5.471722	-75.439664	-1.798626
56468	9.555871	-0.248630	2.466266	0.002553	-0.012480	0.059435	1.000000	0.000045	0.000013	0.000006	-5.470128	-75.440559	-1.799477
56469	9.554375	-0.208091	2.430237	0.042087	0.023435	0.047998	1.000000	0.000018	0.000017	0.000030	-5.481755	-75.438377	-1.786201
56470	9.537879	-0.220764	2.417238	0.048135	0.009969	0.029086	1.000000	0.000027	0.000001	0.000018	-5.492767	-75.443722	-1.779979
56471	9.570098	-0.209960	2.412170	0.062713	0.020012	0.058741	1.000000	0.000029	0.000026	0.000016	-5.496647	-75.440655	-1.773463
56472	9.538298	-0.207537	2.449583	0.018736	0.027351	0.037265	1.000000	0.000030	0.000011	0.000026	-5.498653	-75.443634	-1.765027
56473	9.537626	-0.221395	2.418178	0.047310	0.009882	0.029090	1.000000	0.000034	0.000018	0.000010	-5.499774	-75.441581	-1.760837
56474	9.546778	-0.228856	2.459037	0.010244	0.007456	0.048350	1.000000	0.000018	0.000007	0.000014	-5.500629	-75.437631	-1.759194
56475	9.537476	-0.221590	2.418753	0.047803	0.009798	0.029087	1.000000	0.000032	0.000026	0.000008	-5.500905	-75.434652	-1.756047
56476	9.553835	-0.209503	2.432239	0.039897	0.023679	0.048007	1.000000	0.000006	0.000005	0.000027	-5.514113	-75.439127	-1.746520
56477	9.553771	-0.209528	2.432487	0.039874	0.023743	0.048007	1.000000	0.000049	0.000020	-0.000010	-5.504718	-75.437118	-1.751417
56478	9.562328	-0.230510	2.441670	0.030578	0.004280	0.059093	1.000000	0.000016	0.000007	0.000022	-5.520174	-75.437998	-1.745518
56479	9.537772	-0.208368	2.451557	0.017946	0.027942	0.037264	1.000000	0.000015	0.000022	0.000011	-5.523939	-75.435484	-1.740853
56480	9.553524	-0.209949	2.433421	0.039312	0.024282	0.048008	1.000000	0.000021	0.000017	0.000022	-5.533418	-75.434687	-1.733845
56481	9.536993	-0.222524	2.420570	0.046287	0.010592	0.029094	1.000000	0.000024	0.000017	0.000015	-5.538166	-75.432778	-1.727189
56482	9.553362	-0.210380	2.434022	0.038315	0.024328	0.048011	1.000000	0.000032	0.000011	0.000019	-5.540998	-75.437029	-1.721412
56483	9.561905	-0.231442	2.443235	0.029296	0.004592	0.059097	1.000000	0.000036	0.000018	0.000002	-5.538754	-75.435111	-1.720506
56484	9.553213	-0.210598	2.434588	0.038105	0.024499	0.048012	1.000000	0.000020	0.000009	0.000031	-5.552072	-75.434794	-1.709763
56485	9.552576	-0.224705	2.403057	0.066666	0.007021	0.039845	1.000000	0.000016	0.000007	0.000022	-5.561152	-75.433953	-1.699646
56486	9.545249	-0.244543	2.430822	0.035160	-0.008890	0.040188	1.000000	0.000032	0.000026	0.000008	-5.561916	-75.436272	-1.699837
56487	9.552987	-0.211204	2.435420	0.037123	0.024754	0.048015	1.000000	0.000028	0.000008	0.000009	-5.564035	-75.435417	-1.695458
56488	9.536479	-0.223638	2.422493	0.044400	0.011236	0.029102	1.000000	0.000024	0.000017	0.000015	-5.573261	-75.431760	-1.692679
56489	9.552834	-0.211475	2.435997	0.037376	0.025079	0.048013	1.000000	0.000024	0.000017	0.000015	-5.578164	-75.429888	-1.685975
56490	9.561360	-0.232671	2.445253	0.027233	0.004795	0.059102	1.000000	0.000024	0.000017	0.000015	-5.569171	-75.434432	-1.681722
56491	9.536791	-0.210377	2.455202	0.014603	0.028465	0.037268	1.000000	0.000041	0.000021	0.000012	-5.570622	-75.432182	-1.676529
56492	9.552596	-0.211940	2.436891	0.033761	0.024756	0.048027	1.000000	0.000017	-0.000001	0.000023	-5.579147	-75.446297	-1.666500
56493	9.520224	-0.223081	2.442476	0.019121	0.014860	0.018362	1.000000	0.000032	0.000026	0.000008	-5.579674	-75.443558	-1.663284
56494	9.561023	-0.233385	2.446503	0.024106	0.005179	0.059110	1.000000	0.000018	0.000017	0.000030	-5.593087	-75.444794	-1.653130
56495	9.535918	-0.225036	2.424572	0.040052	0.011295	0.029120	1.000000	0.000027	0.000001	0.000018	-5.599636	-75.444855	-1.644354
56496	9.536467	-0.211531	2.456359	0.010972	0.028806	0.037272	1.000000	0.000025	0.000009	0.000016	-5.602162	-75.446538	-1.640386
56497	9.584566	-0.202130	2.432771	0.047076	0.035059	0.077697	1.000000	0.000024	0.000017	0.000015	-5.607026	-75.444858	-1.633704
56498	9.528452	-0.245300	2.452778	0.008008	-0.005052	0.029446	1.000000	0.000020	0.000025	0.000021	-5.603634	-75.447037	-1.628282
56499	9.567892	-0.214845	2.420475	0.053105	0.021004	0.058795	1.000000	0.000025	0.000024	0.000006	-5.604032	-75.444623	-1.626021
56500	9.519636	-0.224510	2.444636	0.015804	0.014717	0.018368	1.000000	0.000025	0.000009	0.000016	-5.604656	-75.450112	-1.620550
56501	9.535432	-0.226070	2.426382	0.037311	0.010998	0.029132	1.000000	0.000024	0.000017	0.000015	-5.609433	-75.448509	-1.613906
56502	9.560453	-0.234882	2.448584	0.020823	0.005099	0.059118	1.000000	0.000024	-0.000009	0.000010	-5.614467	-75.452235	-1.612079
56503	9.543201	-0.193023	2.430869	0.038763	0.044781	0.036961	1.000000	0.000027	0.000027	0.000023	-5.622088	-75.449388	-1.602190
56504	9.560284	-0.235238	2.449209	0.020573	0.005172	0.059118	1.000000	0.000034	0.000018	0.000010	-5.621600	-75.448174	-1.601396
56505	9.560220	-0.235263	2.449459	0.020496	0.005249	0.059118	1.000000	0.000021	0.000006	0.000007	-5.623627	-75.447826	-1.597966
56506	9.535693	-0.212948	2.459241	0.007088	0.028776	0.037276	1.000000	0.000024	0.000017	0.000015	-5.624502	-75.450654	-1.593196
56507	9.551473	-0.214505	2.441065	0.028588	0.025056	0.048043	1.000000	0.000024	0.000017	0.000015	-5.629326	-75.449082	-1.586540
56508	9.534977	-0.226957	2.428088	0.035340	0.011654	0.029138	1.000000	0.000037	0.000003	0.000013	-5.639184	-75.450192	-1.583773
56509	9.526317	-0.205959	2.419382	0.044275	0.031533	0.018060	1.000000	0.000018	0.000022	0.000004	-5.639600	-75.448122	-1.582416
56510	9.559848	-0.235900	2.450849	0.017603	0.005444	0.059124	1.000000	0.000018	0.000017	0.000030	-5.642692	-75.455336	-1.570668
56511	9.542581	-0.194193	2.433212	0.035543	0.045124	0.036971	1.000000	0.000032	0.000011	0.000019	-5.648501	-75.454437	-1.562016
56512	9.526083	-0.206723	2.420237	0.017041	0.007463	0.018193	1.000000	0.000025	0.000009	0.000016	-5.074555	-75.598999	-2.543554
56513	9.551052	-0.215513	2.442620	0.000579	0.001355	0.048116	1.000000	0.000027	0.000016	0.000008	-5.071010	-75.598830	-2.547160
56514	9.534544	-0.227950	2.429698	0.007204	-0.012531	0.029198	1.000000	0.000025	0.000009	0.000016	-5.072118	-75.599580	-2.542563
56515	9.550948	-0.215796	2.443005	-0.000066	0.001120	0.048116	1.000000	0.000011	0.000004	0.000012	-5.072750	-75.600717	-2.543670
56516	9.550274	-0.229763	2.411715	0.028062	-0.016744	0.040019	1.000000	0.000025	0.000035	0.000021	-5.075355	-75.598553	-2.540677
56517	9.551320	-0.202536	2.475407	-0.029202	0.018663	0.056212	1.000000	0.000027	0.000001	0.000018	-5.077049	-75.600036	-2.538846
56518	9.542872	-0.249752	2.439610	-0.003319	-0.032738	0.040200	1.000000	0.000021	0.000006	0.000007	-5.074632	-75.601259	-2.540714
56519	9.542047	-0.195546	2.435197	0.007813	0.020429	0.037115	1.000000	0.000034	0.000029	0.000025	-5.077674	-75.599476	-2.536676
56520	9.534661	-0.215336	2.463031	-0.023269	0.004594	0.037292	1.000000	0.000028	0.000008	0.000009	-5.076002	-75.600515	-2.546959
56521	9.550447	-0.216913	2.444862	-0.002064	0.000473	0.048116	1.000000	0.000020	0.000025	0.000021	-5.078806	-75.599262	-2.544831
56522	9.533917	-0.229417	2.432017	0.004584	-0.013415	0.029198	1.000000	0.000028	0.000008	0.000009	-5.076341	-75.599965	-2.545646
56523	9.550312	-0.217193	2.445365	-0.002683	0.000238	0.048116	1.000000	0.000025	0.000009	0.000016	-5.077209	-75.600570	-2.544844
56524	9.550251	-0.217393	2.445587	-0.002991	0.000129	0.048115	1.000000	0.000039	0.000013	0.000021	-5.078644	-75.600629	-2.541533
56525	9.525135	-0.208805	2.423787	0.012868	0.005984	0.018200	1.000000	0.000018	0.000022	0.000004	-5.074151	-75.599848	-2.547125
56526	9.574545	-0.239928	2.436698	0.008698	-0.023866	0.069941	1.000000	0.000021	0.000006	0.000007	-5.071549	-75.600757	-2.550237
56527	9.525556	-0.195238	2.456002	-0.016206	0.023531	0.026290	1.000000	0.000035	0.000021	0.000027	-5.075415	-75.599850	-2.545173
56528	9.540768	-0.210668	2.406218	0.033422	0.001636	0.029030	1.000000	0.000024	0.000017	0.000015	-5.075918	-75.599821	-2.544549
56529	9.533965	-0.216687	2.465604	-0.026082	0.003556	0.037285	1.000000	0.000025	0.000009	0.000016	-5.076786	-75.600426	-2.543747
56530	9.581534	-0.221055	2.410383	0.038113	-0.008580	0.069775	1.000000	0.000027	0.000016	0.000008	-5.073688	-75.600398	-2.548529
56531	9.517386	-0.229153	2.452954	-0.019770	-0.010443	0.018367	1.000000	0.000035	0.000011	0.000011	-5.071085	-75.600840	-2.550155
56532	9.549680	-0.218285	2.447735	-0.005509	-0.000788	0.048114	1.000000	0.000023	-0.000001	0.000008	-5.069401	-75.602592	-2.553568
56533	9.533185	-0.230640	2.434771	0.001134	-0.014689	0.029197	1.000000	0.000018	0.000022	0.000004	-5.064905	-75.601810	-2.559162
56534	9.556829	-0.198940	2.420845	0.024596	0.014716	0.047953	1.000000	0.000018	0.000017	0.000030	-5.072538	-75.601380	-2.553003
56535	9.532967	-0.231108	2.435577	0.000505	-0.014917	0.029197	1.000000	0.000032	0.000026	0.000008	-5.068278	-75.600066	-2.556687
56536	9.508422	-0.208755	2.445421	-0.012136	0.008760	0.007370	1.000000	0.000025	0.000009	0.000016	-5.069770	-75.601003	-2.558600
56537	9.548689	-0.232814	2.417690	0.021332	-0.019157	0.040032	1.000000	0.000024	0.000017	0.000015	-5.069808	-75.600730	-2.558829
56538	9.540591	-0.198192	2.440680	0.001756	0.018299	0.037122	1.000000	0.000024	0.000017	0.000015	-5.070440	-75.600712	-2.559489
56539	9.549052	-0.219293	2.450095	-0.007789	-0.001571	0.048113	1.000000	0.000032	0.000026	0.000008	-5.066180	-75.599399	-2.563174
56540	9.548960	-0.219388	2.450442	-0.008107	-0.001686	0.048112	1.000000	0.000025	0.000009	0.000016	-5.067228	-75.600051	-2.558821
56541	9.532487	-0.231930	2.437377	-0.001465	-0.015589	0.029196	1.000000	0.000027	0.000001	0.000018	-5.068923	-75.601533	-2.556991
56542	9.548879	-0.219778	2.450724	-0.008741	-0.001906	0.048112	1.000000	0.000024	0.000017	0.000015	-5.069529	-75.601341	-2.560654
56543	9.556691	-0.186596	2.455123	-0.006760	0.031498	0.056039	1.000000	0.000018	0.000007	0.000014	-5.070277	-75.602210	-2.560808
56544	9.548216	-0.233844	2.419458	0.019064	-0.019950	0.040035	1.000000	0.000028	0.000009	0.000009	-5.067861	-75.603071	-2.561657
56545	9.548707	-0.220162	2.451360	-0.009698	-0.002259	0.048111	1.000000	0.000024	0.000017	0.000015	-5.067898	-75.602798	-2.561887
56546	9.564518	-0.221790	2.433153	0.011502	-0.006409	0.058951	1.000000	0.000032	0.000011	0.000019	-5.069082	-75.603077	-2.559191
56547	9.541225	-0.240028	2.479439	-0.041055	-0.018203	0.048255	1.000000	0.000041	0.000021	0.000012	-5.065765	-75.602375	-2.560894
56548	9.548481	-0.220561	2.452203	-0.010635	-0.002597	0.048110	1.000000	0.000011	0.000005	0.000012	-5.066877	-75.603608	-2.562788
56549	9.555723	-0.201236	2.425021	0.019803	0.012984	0.047967	1.000000	0.000027	0.000027	0.000023	-5.069791	-75.602088	-2.559713
56550	9.564212	-0.222357	2.434302	0.010211	-0.006860	0.058952	1.000000	0.000032	0.000000	0.000003	-5.064823	-75.603957	-2.568139
56551	9.523250	-0.212342	2.430879	0.004607	0.003019	0.018209	1.000000	0.000027	0.000027	0.000023	-5.067736	-75.602437	-2.565065
56552	9.555451	-0.201601	2.426062	0.018842	0.012654	0.047969	1.000000	0.000025	0.000024	0.000006	-5.063883	-75.601419	-2.576495
56553	9.548051	-0.221340	2.453806	-0.012223	-0.003160	0.048108	1.000000	0.000024	0.000001	0.000025	-5.069167	-75.602796	-2.571283
56554	9.563872	-0.222975	2.435581	0.008956	-0.007324	0.058953	1.000000	0.000025	0.000024	0.000006	-5.065010	-75.601778	-2.576381
56555	9.539365	-0.200602	2.445272	-0.003585	0.016344	0.037125	1.000000	0.000020	-0.000001	0.000016	-5.066587	-75.603525	-2.575505
56556	9.548436	-0.208017	2.486057	-0.041582	0.014330	0.056175	1.000000	0.000039	0.000013	0.000021	-5.067848	-75.603509	-2.574803
56557	9.531361	-0.234352	2.441546	-0.006509	-0.017417	0.029191	1.000000	0.000024	0.000017	0.000015	-5.067883	-75.603235	-2.575035
56558	9.547175	-0.236074	2.423346	0.014664	-0.021589	0.040039	1.000000	0.000030	0.000011	0.000026	-5.072617	-75.603522	-2.566438
56559	9.547654	-0.222373	2.455260	-0.014084	-0.003870	0.048105	1.000000	0.000029	0.000016	0.000000	-5.065473	-75.603455	-2.573434
56560	9.562923	-0.237754	2.405419	0.035519	-0.025883	0.050889	1.000000	0.000030	0.000011	0.000026	-5.070297	-75.603775	-2.566055
56561	9.563946	-0.210393	2.468974	-0.021666	0.009682	0.067019	1.000000	0.000024	0.000017	0.000015	-5.070331	-75.603500	-2.566288
56562	9.546885	-0.236730	2.424425	0.013408	-0.022061	0.040039	1.000000	0.000025	0.000009	0.000016	-5.071431	-75.604094	-2.563761
56563	9.563259	-0.224564	2.437842	0.006151	-0.008400	0.058955	1.000000	0.000024	0.000017	0.000015	-5.071464	-75.603820	-2.563995
56564	9.547274	-0.223188	2.456663	-0.015680	-0.004448	0.048102	1.000000	0.000034	0.000018	0.000010	-5.068308	-75.603568	-2.560915
56565	9.579541	-0.212494	2.451607	-0.001449	0.005152	0.077869	1.000000	0.000016	0.000007	0.000022	-5.072643	-75.604333	-2.557689
56566	9.530669	-0.236034	2.444084	-0.009361	-0.018449	0.029187	1.000000	0.000027	0.000027	0.000023	-5.076181	-75.602836	-2.562288
56567	9.538465	-0.202930	2.448588	-0.007335	0.014949	0.037125	1.000000	0.000032	0.000011	0.000019	-5.077163	-75.603173	-2.560535
56568	9.530511	-0.236480	2.444658	-0.009993	-0.018669	0.029186	1.000000	0.000025	0.000009	0.000016	-5.078568	-75.603835	-2.563916
56569	9.538343	-0.203225	2.449037	-0.007961	0.014729	0.037125	1.000000	0.000027	0.000016	0.000008	-5.075011	-75.603664	-2.567532
56570	9.562692	-0.225810	2.439950	0.003929	-0.009183	0.058955	1.000000	0.000031	0.000019	0.000017	-5.075569	-75.603117	-2.569471
56571	9.553496	-0.218713	2.399703	0.041333	-0.007440	0.039923	1.000000	0.000025	0.000024	0.000006	-5.071179	-75.602068	-2.574121
56572	9.563029	-0.212163	2.472373	-0.025124	0.008450	0.067012	1.000000	0.000039	0.000013	0.000021	-5.072611	-75.602173	-2.569333
56573	9.562442	-0.226205	2.440891	0.002990	-0.009538	0.058955	1.000000	0.000027	0.000001	0.000018	-5.074307	-75.603653	-2.567501
56574	9.537954	-0.203900	2.450495	-0.009543	0.014183	0.037124	1.000000	0.000024	0.000017	0.000015	-5.075067	-75.603592	-2.575051
56575	9.530002	-0.237368	2.446554	-0.012211	-0.019457	0.029182	1.000000	0.000030	0.000001	0.000011	-5.073175	-75.605175	-2.576600
56576	9.553780	-0.205548	2.432303	0.011301	0.009866	0.047984	1.000000	0.000028	0.000009	0.000009	-5.070706	-75.605984	-2.573103
56577	9.553716	-0.205573	2.432552	0.010991	0.009742	0.047984	1.000000	0.000027	0.000016	0.000008	-5.067146	-75.605813	-2.576722
56578	9.561625	-0.240513	2.410299	0.029790	-0.027974	0.050902	1.000000	0.000024	0.000017	0.000015	-5.067360	-75.605620	-2.570161
56579	9.578535	-0.214505	2.455360	-0.005885	0.003564	0.077869	1.000000	0.000032	0.000011	0.000019	-5.068341	-75.605957	-2.568409
56580	9.537601	-0.204547	2.451816	-0.011445	0.013481	0.037123	1.000000	0.000025	0.000009	0.000016	-5.069508	-75.606633	-2.565378
56581	9.536969	-0.218488	2.420539	0.016666	-0.004518	0.029072	1.000000	0.000032	0.000026	0.000008	-5.065231	-75.605318	-2.569078
56582	9.537427	-0.204654	2.452485	-0.012090	0.013255	0.037123	1.000000	0.000021	0.000006	0.000007	-5.062785	-75.606447	-2.572045
56583	9.561785	-0.227419	2.443352	-0.000226	-0.010685	0.058954	1.000000	0.000033	0.000021	0.000034	-5.070228	-75.605431	-2.563612
56584	9.561681	-0.227751	2.443728	-0.000549	-0.010793	0.058954	1.000000	0.000024	0.000017	0.000015	-5.070606	-75.605223	-2.564009
56585	9.520714	-0.217687	2.440322	-0.006087	-0.000886	0.018208	1.000000	0.000034	0.000018	0.000010	-5.067162	-75.604786	-2.566674
56586	9.561515	-0.228029	2.444352	-0.001173	-0.011021	0.058954	1.000000	0.000023	0.000009	0.000024	-5.072025	-75.605293	-2.566608
56587	9.537017	-0.205769	2.453986	-0.013647	0.012678	0.037121	1.000000	0.000017	0.000014	0.000013	-5.071935	-75.605283	-2.567801
56588	9.536416	-0.219801	2.422598	0.014451	-0.005320	0.029075	1.000000	0.000025	0.000009	0.000016	-5.073088	-75.605926	-2.565498
56589	9.553339	-0.193863	2.467576	-0.021211	0.026237	0.056034	1.000000	0.000030	0.000011	0.000026	-5.077656	-75.606158	-2.560366
56590	9.536804	-0.206636	2.454741	-0.014582	0.012333	0.037120	1.000000	0.000033	0.000021	0.000034	-5.085294	-75.605143	-2.550396
56591	9.552634	-0.208408	2.436558	0.006582	0.008109	0.047989	1.000000	0.000021	0.000006	0.000007	-5.082450	-75.606115	-2.553934
56592	9.552573	-0.208505	2.436787	0.006285	0.007992	0.047990	1.000000	0.000024	0.000017	0.000015	-5.082657	-75.605766	-2.555682
56593	9.536024	-0.221013	2.424031	0.012914	-0.005923	0.029077	1.000000	0.000022	0.000024	0.000013	-5.081847	-75.604613	-2.556959
56594	9.552363	-0.208741	2.437588	0.005652	0.007759	0.047990	1.000000	0.000027	0.000016	0.000008	-5.078586	-75.604523	-2.563625
56595	9.535278	-0.235046	2.393238	0.040687	-0.024058	0.021037	1.000000	0.000030	0.000027	0.000016	-5.077893	-75.603104	-2.563948
56596	9.552161	-0.208997	2.438358	0.005020	0.007519	0.047991	1.000000	0.000025	0.000009	0.000016	-5.078908	-75.603773	-2.558447
56597	9.519208	-0.233880	2.412297	0.018586	-0.020188	0.010165	1.000000	0.000024	0.000017	0.000015	-5.078934	-75.603497	-2.558688
56598	9.567906	-0.210772	2.420534	0.025869	0.003170	0.058865	1.000000	0.000018	0.000022	0.000004	-5.074634	-75.602718	-2.565179
56599	9.544504	-0.228980	2.466870	-0.026708	-0.008448	0.048076	1.000000	0.000034	0.000014	0.000036	-5.082906	-75.602578	-2.555715
56600	9.535901	-0.208394	2.458096	-0.017703	0.011174	0.037117	1.000000	0.000021	0.000017	0.000022	-5.086984	-75.602306	-2.559813
56601	9.551739	-0.210103	2.439917	0.003453	0.006933	0.047992	1.000000	0.000035	0.000011	0.000011	-5.084375	-75.602746	-2.561442
56602	9.560199	-0.231223	2.449196	-0.006191	-0.012907	0.058950	1.000000	0.000025	0.000009	0.000016	-5.085285	-75.603337	-2.554632
56603	9.543122	-0.189383	2.431221	0.012171	0.026407	0.037035	1.000000	0.000003	0.000010	0.000008	-5.084958	-75.603859	-2.557735
56604	9.544121	-0.229917	2.468267	-0.028283	-0.009029	0.048071	1.000000	0.000031	0.000034	0.000007	-5.079928	-75.601698	-2.558434
56605	9.567335	-0.212080	2.422673	0.023673	0.002326	0.058871	1.000000	0.000041	0.000005	0.000023	-5.081861	-75.602644	-2.554692
56606	9.551386	-0.210677	2.441247	0.001895	0.006331	0.047993	1.000000	0.000021	0.000006	0.000007	-5.079189	-75.603640	-2.557419
56607	9.551297	-0.210921	2.441577	0.001585	0.006208	0.047993	1.000000	0.000024	0.000027	0.000030	-5.085667	-75.602010	-2.550987
56608	9.542692	-0.190246	2.432841	0.010595	0.025812	0.037039	1.000000	0.000025	0.000009	0.000016	-5.086719	-75.602735	-2.548094
56609	9.551152	-0.211361	2.442106	0.000944	0.005971	0.047993	1.000000	0.000028	0.000009	0.000009	-5.083993	-75.603441	-2.550678
56610	9.559080	-0.246296	2.419790	0.019674	-0.031781	0.050916	1.000000	0.000035	0.000011	0.000011	-5.081611	-75.603946	-2.557146
56611	9.551047	-0.211518	2.442501	0.000313	0.005735	0.047993	1.000000	0.000025	0.000009	0.000016	-5.082471	-75.604547	-2.556351
56612	9.550998	-0.211708	2.442679	-0.000008	0.005622	0.047993	1.000000	0.000025	0.000009	0.000016	-5.083543	-75.605218	-2.558117
56613	9.558870	-0.246763	2.420575	0.018723	-0.032144	0.050917	1.000000	0.000021	0.000032	0.000012	-5.081888	-75.603187	-2.560438
56614	9.534859	-0.210556	2.461953	-0.022104	0.009518	0.037109	1.000000	0.000030	0.000011	0.000026	-5.086608	-75.603513	-2.553513
56615	9.534771	-0.210722	2.462280	-0.022414	0.009396	0.037109	1.000000	0.000018	0.000022	0.000004	-5.082087	-75.602731	-2.559129
56616	9.550589	-0.212420	2.444214	-0.001281	0.005147	0.047994	1.000000	0.000021	0.000017	0.000022	-5.085902	-75.602444	-2.557215
56617	9.566422	-0.214137	2.426097	0.019866	0.000885	0.058880	1.000000	0.000027	0.000016	0.000007	-5.082336	-75.602273	-2.560839
56618	9.541413	-0.205673	2.404095	0.035854	0.006679	0.029020	1.000000	0.000023	0.000009	0.000024	-5.086830	-75.602731	-2.555989
56619	9.550364	-0.212945	2.445047	-0.002205	0.004780	0.047994	1.000000	0.000027	0.000016	0.000007	-5.083264	-75.602559	-2.559613
56620	9.550298	-0.213046	2.445299	-0.002514	0.004656	0.047994	1.000000	0.000025	0.000009	0.000016	-5.084108	-75.603150	-2.555022
56621	9.541227	-0.206076	2.404796	0.034927	0.006306	0.029023	1.000000	0.000035	0.000011	0.000011	-5.081498	-75.603590	-2.556653
56622	9.541654	-0.192186	2.436757	0.006215	0.024128	0.037047	1.000000	0.000032	0.000026	0.000008	-5.077323	-75.602358	-2.560645
56623	9.533592	-0.225629	2.433155	0.003475	-0.009503	0.029082	1.000000	0.000031	0.000019	0.000017	-5.077460	-75.601815	-2.559937
56624	9.533497	-0.225878	2.433506	0.003156	-0.009626	0.029082	1.000000	0.000021	0.000017	0.000022	-5.081052	-75.601481	-2.553365
56625	9.541358	-0.192690	2.437875	0.005280	0.023758	0.037048	1.000000	0.000027	0.000016	0.000007	-5.077485	-75.601309	-2.556989
56626	9.549763	-0.213854	2.447314	-0.004405	0.003926	0.047993	1.000000	0.000021	0.000017	0.000022	-5.081113	-75.600970	-2.553265
56627	9.566142	-0.201671	2.460698	-0.011649	0.017600	0.066904	1.000000	0.000021	0.000006	0.000007	-5.078269	-75.601942	-2.556803
56628	9.517290	-0.224929	2.452986	-0.019545	-0.005961	0.018189	1.000000	0.000025	0.000009	0.000016	-5.079181	-75.602551	-2.559666
56629	9.549551	-0.214292	2.448102	-0.005337	0.003560	0.047993	1.000000	0.000021	0.000032	0.000012	-5.077520	-75.600519	-2.561992
56630	9.533027	-0.226663	2.435273	0.001266	-0.010352	0.029082	1.000000	0.000032	0.000000	0.000003	-5.072197	-75.602311	-2.571713
56631	9.565334	-0.215970	2.430219	0.015474	-0.000836	0.058887	1.000000	0.000013	0.000023	0.000018	-5.074847	-75.601316	-2.570575
56632	9.549279	-0.214622	2.449134	-0.006302	0.003206	0.047992	1.000000	0.000030	0.000027	0.000016	-5.074249	-75.599996	-2.572672
56633	9.532747	-0.227075	2.436329	0.000318	-0.010715	0.029081	1.000000	0.000028	0.000009	0.000009	-5.071522	-75.600701	-2.575256
56634	9.549119	-0.214894	2.449734	-0.006926	0.002964	0.047992	1.000000	0.000021	0.000017	0.000022	-5.075195	-75.600340	-2.575461
56635	9.541047	-0.248486	2.446132	-0.009694	-0.030662	0.040021	1.000000	0.000030	0.000027	0.000016	-5.074490	-75.598919	-2.575795
56636	9.523950	-0.206644	2.428380	0.008763	0.008625	0.018142	1.000000	0.000022	0.000024	0.000013	-5.073685	-75.597802	-2.573581
56637	9.564725	-0.216942	2.432530	0.013582	-0.001570	0.058890	1.000000	0.000021	0.000006	0.000007	-5.070841	-75.598773	-2.577118
56638	9.532334	-0.227690	2.437887	-0.001255	-0.011318	0.029081	1.000000	0.000032	0.000000	0.000003	-5.065514	-75.600518	-2.586435
56639	9.539737	-0.208388	2.410503	0.029271	0.004090	0.029043	1.000000	0.000021	0.000017	0.000022	-5.069118	-75.600134	-2.583305
56640	9.532215	-0.228058	2.438320	-0.001883	-0.011558	0.029080	1.000000	0.000025	0.000009	0.000016	-5.070077	-75.600771	-2.585393
56641	9.548586	-0.215875	2.451724	-0.009119	0.002120	0.047991	1.000000	0.000024	0.000017	0.000015	-5.070095	-75.600493	-2.585641
56642	9.555954	-0.196632	2.424488	0.021402	0.017525	0.047956	1.000000	0.000024	0.000017	0.000015	-5.070179	-75.600265	-2.585402
56643	9.548446	-0.216309	2.452233	-0.009748	0.001879	0.047990	1.000000	0.000024	0.000001	0.000025	-5.075465	-75.601636	-2.580190
56644	9.532434	-0.214831	2.470957	-0.031499	0.005932	0.037087	1.000000	0.000042	0.000028	0.000003	-5.067648	-75.600154	-2.582292
56645	9.531809	-0.228943	2.439823	-0.003442	-0.012170	0.029079	1.000000	0.000018	0.000017	0.000030	-5.074837	-75.599664	-2.575786
56646	9.540205	-0.250196	2.449240	-0.013160	-0.031992	0.040013	1.000000	0.000035	0.000011	0.000011	-5.072244	-75.600142	-2.574417
56647	9.539638	-0.195945	2.444340	-0.001593	0.021087	0.037056	1.000000	0.000010	0.000012	0.000010	-5.072026	-75.600396	-2.576573
56648	9.564470	-0.204738	2.466937	-0.018241	0.015070	0.066899	1.000000	0.000031	0.000019	0.000017	-5.072235	-75.599902	-2.575229
56649	9.531511	-0.229721	2.440914	-0.004698	-0.012655	0.029078	1.000000	0.000023	0.000009	0.000024	-5.076679	-75.600395	-2.571059
56650	9.547883	-0.217537	2.454317	-0.011948	0.001028	0.047988	1.000000	0.000027	0.000016	0.000007	-5.073201	-75.600299	-2.573816
56651	9.522903	-0.209085	2.432276	0.004077	0.006803	0.018146	1.000000	0.000023	0.000009	0.000024	-5.077645	-75.600791	-2.569646
56652	9.547696	-0.218029	2.454999	-0.012574	0.000788	0.047987	1.000000	0.000025	0.000035	0.000021	-5.079753	-75.598418	-2.568456
56653	9.538624	-0.211102	2.414668	0.024889	0.002372	0.029056	1.000000	0.000046	0.000005	0.000008	-5.074515	-75.599574	-2.571469
56654	9.547056	-0.232224	2.423943	0.015154	-0.017446	0.039986	1.000000	0.000016	0.000007	0.000022	-5.078899	-75.600406	-2.566336
56655	9.531026	-0.230865	2.442696	-0.006592	-0.013378	0.029076	1.000000	0.000030	0.000027	0.000016	-5.078187	-75.598984	-2.566677
56656	9.563314	-0.220278	2.437772	0.007607	-0.003886	0.058896	1.000000	0.000025	0.000009	0.000016	-5.079183	-75.599577	-2.571258
56657	9.522400	-0.210223	2.434146	0.002206	0.006079	0.018147	1.000000	0.000024	0.000017	0.000015	-5.079197	-75.599298	-2.571509
56658	9.547237	-0.218951	2.456700	-0.014450	0.000063	0.047984	1.000000	0.000028	0.000009	0.000009	-5.076449	-75.600019	-2.568880
56659	9.546641	-0.233022	2.425501	0.013597	-0.018059	0.039987	1.000000	0.000037	0.000029	0.000018	-5.075852	-75.598330	-2.568268
56660	9.538606	-0.198163	2.448184	-0.005650	0.019512	0.037057	1.000000	0.000023	-0.000001	0.000008	-5.073833	-75.600173	-2.565452
56661	9.522119	-0.210790	2.435195	0.000967	0.005587	0.018148	1.000000	0.000018	0.000017	0.000030	-5.081017	-75.599681	-2.558950
56662	9.562886	-0.221288	2.439361	0.005736	-0.004622	0.058897	1.000000	0.000035	0.000011	0.000011	-5.078514	-75.600146	-2.562962
56663	9.546393	-0.233693	2.426411	0.012350	-0.018549	0.039988	1.000000	0.000028	0.000009	0.000009	-5.075785	-75.600851	-2.565548
56664	9.538364	-0.198902	2.449067	-0.006902	0.019032	0.037058	1.000000	0.000021	0.000017	0.000022	-5.079475	-75.600537	-2.560275
56665	9.562675	-0.221753	2.440143	0.004791	-0.004988	0.058897	1.000000	0.000024	0.000017	0.000015	-5.079487	-75.600258	-2.560528
56666	9.554151	-0.200943	2.431231	0.013902	0.014588	0.047974	1.000000	0.000025	0.000009	0.000016	-5.080476	-75.600900	-2.562646
56667	9.538179	-0.199596	2.449732	-0.007835	0.018671	0.037058	1.000000	0.000017	-0.000001	0.000023	-5.085647	-75.602535	-2.558386
56668	9.546572	-0.220681	2.459129	-0.017583	-0.001138	0.047979	1.000000	0.000028	0.000024	-0.000001	-5.077728	-75.601623	-2.569745
56669	9.521590	-0.211997	2.437157	-0.001535	0.004626	0.018148	1.000000	0.000035	0.000011	0.000011	-5.075114	-75.602062	-2.571378
56670	9.562380	-0.222434	2.441237	0.003228	-0.005596	0.058898	1.000000	0.000016	0.000007	0.000022	-5.079415	-75.602785	-2.567598
56671	9.562307	-0.222767	2.441495	0.002917	-0.005719	0.058898	1.000000	0.000028	0.000019	0.000025	-5.083128	-75.602133	-2.563522
56672	9.537821	-0.200319	2.451065	-0.009379	0.018062	0.037057	1.000000	0.000020	0.000014	0.000005	-5.079422	-75.602221	-2.566127
56673	9.537774	-0.200431	2.451241	-0.009688	0.017939	0.037057	1.000000	0.000034	0.000003	0.000020	-5.081239	-75.603429	-2.563338
56674	9.520792	-0.227081	2.406688	0.025267	-0.014010	0.010161	1.000000	0.000030	0.000011	0.000026	-5.085772	-75.603685	-2.555775
56675	9.553598	-0.202686	2.433255	0.011112	0.013476	0.047980	1.000000	0.000021	0.000017	0.000022	-5.089368	-75.603298	-2.552653
56676	9.529561	-0.234577	2.448052	-0.013148	-0.015920	0.029066	1.000000	0.000034	0.000018	0.000010	-5.085955	-75.602887	-2.557929
56677	9.553400	-0.203014	2.434007	0.010488	0.013231	0.047981	1.000000	0.000013	0.000023	0.000018	-5.088588	-75.601889	-2.556807
56678	9.553302	-0.203088	2.434385	0.010168	0.013107	0.047981	1.000000	0.000029	0.000016	0.000000	-5.081409	-75.601883	-2.559888
56679	9.536778	-0.215468	2.421564	0.016780	-0.000822	0.029073	1.000000	0.000024	0.000017	0.000015	-5.081418	-75.601604	-2.560144
56680	9.545638	-0.222630	2.462577	-0.021334	-0.002604	0.047972	1.000000	0.000032	0.000011	0.000019	-5.082378	-75.602004	-2.555592
56681	9.545584	-0.222746	2.462777	-0.021644	-0.002726	0.047971	1.000000	0.000028	0.000009	0.000009	-5.079648	-75.602708	-2.558179
56682	9.536560	-0.215864	2.422385	0.015827	-0.001188	0.029074	1.000000	0.000030	0.000027	0.000016	-5.079015	-75.601356	-2.560856
56683	9.544924	-0.237110	2.431851	0.006063	-0.020998	0.039989	1.000000	0.000024	0.000001	0.000025	-5.084303	-75.602723	-2.555642
56684	9.552351	-0.218087	2.404565	0.036626	-0.005665	0.040004	1.000000	0.000011	0.000030	0.000017	-5.086129	-75.600842	-2.558166
56685	9.544746	-0.237521	2.432511	0.005440	-0.021243	0.039988	1.000000	0.000046	0.000005	0.000008	-5.080893	-75.601998	-2.561176
56686	9.520320	-0.215017	2.441851	-0.006833	0.002555	0.018147	1.000000	0.000016	0.000007	0.000022	-5.085280	-75.602785	-2.559763
56687	9.577038	-0.227260	2.427609	0.019308	-0.011914	0.069826	1.000000	0.000021	0.000017	0.000022	-5.088873	-75.602397	-2.556643
56688	9.552553	-0.204874	2.437174	0.007050	0.011882	0.047985	1.000000	0.000031	0.000019	0.000017	-5.089005	-75.601817	-2.556098
56689	9.552477	-0.204908	2.437467	0.006740	0.011758	0.047986	1.000000	0.000038	0.000010	0.000004	-5.082805	-75.602362	-2.561108
56690	9.535479	-0.231329	2.393049	0.041678	-0.020218	0.021102	1.000000	0.000024	0.000017	0.000015	-5.082786	-75.602116	-2.557815
56691	9.536340	-0.203440	2.456566	-0.015300	0.015750	0.037054	1.000000	0.000030	0.000027	0.000016	-5.082061	-75.600692	-2.558167
56692	9.560625	-0.226157	2.447762	-0.003672	-0.008293	0.058895	1.000000	0.000020	0.000014	0.000005	-5.078397	-75.600835	-2.562755
56693	9.535656	-0.217793	2.425771	0.012406	-0.002542	0.029079	1.000000	0.000033	0.000021	0.000034	-5.085805	-75.599807	-2.554356
56694	9.544444	-0.224990	2.466989	-0.025717	-0.004297	0.047961	1.000000	0.000032	0.000026	0.000008	-5.081497	-75.598556	-2.554269
56695	9.535464	-0.218140	2.426493	0.011775	-0.002787	0.029080	1.000000	0.000020	-0.000001	0.000016	-5.083084	-75.600296	-2.553385
56696	9.551861	-0.205955	2.439791	0.004533	0.010901	0.047988	1.000000	0.000024	0.000017	0.000015	-5.083149	-75.600083	-2.552861
56697	9.560220	-0.227116	2.449252	-0.005250	-0.008904	0.058894	1.000000	0.000025	0.000009	0.000016	-5.084004	-75.600679	-2.552072
56698	9.535285	-0.218606	2.427155	0.010837	-0.003154	0.029081	1.000000	0.000027	0.000016	0.000007	-5.080421	-75.600486	-2.556085
56699	9.526788	-0.197880	2.418201	0.020004	0.016403	0.018176	1.000000	0.000020	0.000009	0.000031	-5.088444	-75.600867	-2.548545
56700	9.544032	-0.225970	2.468490	-0.027589	-0.005023	0.047955	1.000000	0.000028	0.000024	-0.000001	-5.080434	-75.599926	-2.555778
56701	9.551482	-0.206597	2.441222	0.002988	0.010285	0.047989	1.000000	0.000035	0.000011	0.000011	-5.077819	-75.600363	-2.557412
56702	9.543387	-0.240209	2.437574	0.000110	-0.023325	0.039985	1.000000	0.000018	0.000017	0.000030	-5.085021	-75.599903	-2.550108
56703	9.551310	-0.207105	2.441852	0.002362	0.010040	0.047990	1.000000	0.000034	0.000018	0.000010	-5.081556	-75.599464	-2.552791
56704	9.534772	-0.219576	2.429081	0.008963	-0.003889	0.029082	1.000000	0.000031	0.000019	0.000017	-5.081741	-75.598963	-2.553851
56705	9.559559	-0.228366	2.451715	-0.007751	-0.009881	0.058892	1.000000	0.000025	0.000009	0.000016	-5.082595	-75.599558	-2.553063
56706	9.551084	-0.207581	2.442697	0.001418	0.009677	0.047990	1.000000	0.000032	0.000011	0.000019	-5.083625	-75.599931	-2.552115
56707	9.551009	-0.207763	2.442972	0.001108	0.009554	0.047990	1.000000	0.000024	0.000017	0.000015	-5.083629	-75.599650	-2.552376
56708	9.575289	-0.230527	2.434193	0.012706	-0.014507	0.069834	1.000000	0.000048	0.000023	0.000014	-5.080405	-75.598711	-2.553117
56709	9.559751	-0.214750	2.484315	-0.037329	0.007705	0.066853	1.000000	0.000018	-0.000004	-0.000001	-5.074708	-75.600932	-2.559936
56710	9.534345	-0.220206	2.430700	0.007084	-0.004624	0.029084	1.000000	0.000021	0.000032	0.000012	-5.073029	-75.598935	-2.561223
56711	9.583100	-0.197314	2.438933	0.014342	0.018609	0.077843	1.000000	0.000034	0.000003	0.000020	-5.074847	-75.600141	-2.558434
56712	9.542610	-0.241549	2.440480	-0.003602	-0.023905	0.039983	1.000000	0.000024	0.000017	0.000015	-5.089284	-75.603347	-2.546087
56713	9.550097	-0.222361	2.413111	0.026983	-0.008618	0.040033	1.000000	0.000028	0.000009	0.000009	-5.086612	-75.604065	-2.548622
56714	9.550523	-0.208410	2.444817	-0.001653	0.009343	0.047990	1.000000	0.000025	0.000009	0.000016	-5.087558	-75.604714	-2.549684
56715	9.534024	-0.220954	2.431890	0.004951	-0.004590	0.029085	1.000000	0.000010	0.000012	0.000010	-5.087389	-75.604979	-2.551799
56716	9.550344	-0.208795	2.445484	-0.002276	0.009100	0.047991	1.000000	0.000025	0.000035	0.000021	-5.089397	-75.602572	-2.548145
56717	9.542678	-0.228233	2.473511	-0.033491	-0.006419	0.047936	1.000000	0.000021	0.000006	0.000007	-5.086610	-75.603557	-2.551632
56718	9.549784	-0.223009	2.414288	0.025409	-0.009228	0.040036	1.000000	0.000035	-0.000015	0.000006	-5.082906	-75.607040	-2.554466
56719	9.566187	-0.210690	2.427569	0.018180	0.004464	0.058942	1.000000	0.000037	0.000029	0.000018	-5.082346	-75.605362	-2.553822
56720	9.566096	-0.210888	2.427911	0.017855	0.004344	0.058943	1.000000	0.000041	0.000005	0.000023	-5.084364	-75.606383	-2.549772
56721	9.574911	-0.218064	2.468901	-0.020279	0.002644	0.077790	1.000000	0.000021	0.000017	0.000022	-5.088010	-75.606007	-2.546607
56722	9.534005	-0.207930	2.465240	-0.025559	0.012658	0.037037	1.000000	0.000027	0.000016	0.000007	-5.084435	-75.605838	-2.548749
56723	9.581827	-0.213281	2.410410	0.038313	-0.000303	0.069899	1.000000	0.000018	0.000017	0.000030	-5.091665	-75.605353	-2.542209
56724	9.541778	-0.243405	2.443546	-0.007391	-0.025344	0.039977	1.000000	0.000031	0.000008	0.000002	-5.085412	-75.606195	-2.551299
56725	9.549730	-0.209991	2.447780	-0.005103	0.008019	0.047990	1.000000	0.000032	0.000026	0.000008	-5.081149	-75.604892	-2.554985
56726	9.533200	-0.222535	2.434973	0.001494	-0.005914	0.029085	1.000000	0.000016	0.000007	0.000022	-5.085558	-75.605689	-2.554417
56727	9.558438	-0.217378	2.489134	-0.043558	0.006217	0.066829	1.000000	0.000028	0.000019	0.000024	-5.089317	-75.605046	-2.550301
56728	9.557386	-0.245788	2.426525	0.012736	-0.030111	0.050932	1.000000	0.000023	0.000024	0.000013	-5.088525	-75.603910	-2.552737
56729	9.549366	-0.210892	2.449121	-0.006358	0.007541	0.047990	1.000000	0.000025	0.000009	0.000016	-5.089437	-75.604519	-2.551897
56730	9.540802	-0.258451	2.413922	0.019017	-0.044169	0.032028	1.000000	0.000035	0.000011	0.000011	-5.086870	-75.604989	-2.551884
56731	9.508403	-0.200719	2.445681	-0.011936	0.017444	0.007238	1.000000	0.000032	0.000026	0.000008	-5.082605	-75.603687	-2.555571
56732	9.565098	-0.212993	2.431659	0.014086	0.002887	0.058950	1.000000	0.000020	0.000009	0.000031	-5.090707	-75.604107	-2.546157
56733	9.532633	-0.223917	2.437066	-0.000703	-0.006754	0.029085	1.000000	0.000021	0.000006	0.000007	-5.087919	-75.605091	-2.549645
56734	9.541437	-0.230734	2.478064	-0.038856	-0.008418	0.047915	1.000000	0.000029	0.000016	0.000000	-5.080913	-75.605096	-2.560571
56735	9.532509	-0.223810	2.437561	-0.001337	-0.006989	0.029085	1.000000	0.000035	0.000011	0.000011	-5.078354	-75.605547	-2.562155
56736	9.548430	-0.225726	2.419383	0.019738	-0.011410	0.040047	1.000000	0.000023	0.000009	0.000024	-5.082858	-75.606038	-2.557207
56737	9.548836	-0.211895	2.451099	-0.008872	0.006588	0.047989	1.000000	0.000032	0.000011	0.000019	-5.083884	-75.606380	-2.555415
56738	9.532347	-0.224387	2.438144	-0.002277	-0.007347	0.029084	1.000000	0.000021	0.000006	0.000007	-5.081141	-75.607388	-2.559503
56739	9.548727	-0.212103	2.451506	-0.009501	0.006351	0.047988	1.000000	0.000024	0.000017	0.000015	-5.081197	-75.607119	-2.559717
56740	9.532232	-0.224600	2.438574	-0.002904	-0.007582	0.029084	1.000000	0.000037	0.000003	0.000013	-5.079587	-75.608456	-2.564342
56741	9.572961	-0.235105	2.442894	0.001713	-0.017854	0.069836	1.000000	0.000027	0.000027	0.000023	-5.082489	-75.606935	-2.561282
56742	9.548016	-0.226753	2.420922	0.017857	-0.012133	0.040050	1.000000	0.000024	0.000017	0.000015	-5.082533	-75.606645	-2.558500
56743	9.531969	-0.225123	2.439551	-0.003838	-0.007943	0.029083	1.000000	0.000028	0.000009	0.000009	-5.079858	-75.607362	-2.561038
56744	9.548338	-0.212846	2.452955	-0.011058	0.005756	0.047987	1.000000	0.000031	0.000019	0.000017	-5.080054	-75.606817	-2.558060
56745	9.557110	-0.219880	2.494010	-0.049209	0.004108	0.066804	1.000000	0.000025	0.000009	0.000016	-5.080963	-75.607425	-2.557222
56746	9.564178	-0.214864	2.435109	0.009692	0.001207	0.058955	1.000000	0.000027	0.000016	0.000007	-5.077560	-75.607295	-2.562931
56747	9.531667	-0.225676	2.440681	-0.005091	-0.008416	0.029082	1.000000	0.000021	0.000017	0.000022	-5.081200	-75.606917	-2.559772
56748	9.548041	-0.213393	2.454063	-0.012310	0.005285	0.047986	1.000000	0.000031	0.000008	0.000002	-5.074972	-75.607729	-2.564944
56749	9.539589	-0.192602	2.445038	-0.003068	0.024823	0.037107	1.000000	0.000018	0.000017	0.000030	-5.082197	-75.607242	-2.558409
56750	9.539862	-0.247111	2.450648	-0.015581	-0.028429	0.039959	1.000000	0.000032	0.000000	0.000003	-5.076831	-75.608943	-2.562415
56751	9.539799	-0.247057	2.450897	-0.015895	-0.028549	0.039959	1.000000	0.000025	0.000024	0.000006	-5.072444	-75.607906	-2.567062
56752	9.547316	-0.227922	2.423570	0.014724	-0.013330	0.040053	1.000000	0.000025	0.000009	0.000016	-5.073484	-75.608523	-2.569115
56753	9.522881	-0.205464	2.432914	0.002595	0.010530	0.018204	1.000000	0.000021	0.000017	0.000022	-5.077123	-75.608145	-2.565957
56754	9.547158	-0.228345	2.424157	0.014097	-0.013568	0.040054	1.000000	0.000027	0.000016	0.000007	-5.073685	-75.607987	-2.571252
56755	9.515117	-0.225026	2.461151	-0.028966	-0.005031	0.018106	1.000000	0.000023	0.000009	0.000024	-5.078179	-75.608485	-2.567040
56756	9.587845	-0.238970	2.428636	0.018371	-0.023970	0.080807	1.000000	0.000031	0.000008	0.000002	-5.072043	-75.609311	-2.575841
56757	9.522609	-0.206097	2.433924	0.001352	0.010059	0.018205	1.000000	0.000018	0.000017	0.000030	-5.079267	-75.608824	-2.569308
56758	9.547312	-0.214914	2.456768	-0.015437	0.004112	0.047982	1.000000	0.000032	0.000026	0.000008	-5.075093	-75.607535	-2.572140
56759	9.531245	-0.213268	2.475432	-0.037121	0.008328	0.037005	1.000000	0.000034	0.000003	0.000020	-5.076973	-75.608752	-2.569296
56760	9.546725	-0.229281	2.425769	0.012219	-0.014283	0.040055	1.000000	0.000027	0.000016	0.000007	-5.073511	-75.608562	-2.576036
56761	9.563515	-0.202829	2.470792	-0.023272	0.017580	0.066884	1.000000	0.000023	0.000024	0.000013	-5.072706	-75.607416	-2.577310
56762	9.546534	-0.229525	2.426500	0.011593	-0.014521	0.040056	1.000000	0.000025	0.000009	0.000016	-5.073701	-75.608021	-2.576010
56763	9.530904	-0.213712	2.476706	-0.038362	0.007864	0.037000	1.000000	0.000032	0.000026	0.000008	-5.069426	-75.606717	-2.579707
56764	9.537977	-0.208903	2.417903	0.020548	0.004891	0.029186	1.000000	0.000020	0.000009	0.000031	-5.077613	-75.607097	-2.574877
56765	9.530325	-0.228306	2.445673	-0.010714	-0.010534	0.029076	1.000000	0.000032	0.000000	0.000003	-5.072208	-75.608800	-2.579736
56766	9.553855	-0.210883	2.399968	0.041295	0.000304	0.040168	1.000000	0.000021	0.000032	0.000012	-5.070643	-75.606760	-2.584320
56767	9.554961	-0.237060	2.468755	-0.027824	-0.016592	0.058846	1.000000	0.000027	0.000001	0.000018	-5.072408	-75.608244	-2.582429
56768	9.554169	-0.197088	2.431966	0.012401	0.018237	0.048091	1.000000	0.000024	0.000017	0.000015	-5.072537	-75.607977	-2.579444
56769	9.538110	-0.195421	2.450579	-0.009276	0.022467	0.037109	1.000000	0.000028	0.000009	0.000009	-5.069860	-75.608693	-2.581984
56770	9.529986	-0.228883	2.446936	-0.012274	-0.011121	0.029073	1.000000	0.000025	0.000009	0.000016	-5.070831	-75.609299	-2.580070
56771	9.545894	-0.230743	2.428902	0.008778	-0.015594	0.040057	1.000000	0.000025	0.000024	0.000006	-5.066438	-75.608262	-2.584722
56772	9.521447	-0.208251	2.438285	-0.003307	0.008291	0.018206	1.000000	0.000020	0.000009	0.000031	-5.074613	-75.608649	-2.577835
56773	9.545734	-0.231165	2.429489	0.008151	-0.015831	0.040057	1.000000	0.000029	0.000016	0.000000	-5.067492	-75.608599	-2.584806
56774	9.545640	-0.231186	2.429858	0.007839	-0.015949	0.040057	1.000000	0.000038	0.000021	0.000019	-5.067837	-75.607790	-2.582424
56775	9.546016	-0.217198	2.461596	-0.020737	0.002114	0.047973	1.000000	0.000011	0.000005	0.000012	-5.068514	-75.608931	-2.583494
56776	9.521155	-0.208870	2.439370	-0.004554	0.007820	0.018206	1.000000	0.000021	0.000017	0.000022	-5.072276	-75.608566	-2.581639
56777	9.545861	-0.217613	2.462160	-0.021365	0.001882	0.047972	1.000000	0.000034	0.000019	0.000010	-5.068855	-75.608139	-2.584283
56778	9.545344	-0.231887	2.430953	0.006582	-0.016422	0.040057	1.000000	0.000025	0.000009	0.000016	-5.069850	-75.608753	-2.583492
56779	9.545716	-0.217970	2.462691	-0.021991	0.001648	0.047970	1.000000	0.000021	0.000017	0.000022	-5.073483	-75.608373	-2.580339
56780	9.553290	-0.198893	2.435267	0.008657	0.016811	0.048098	1.000000	0.000031	0.000008	0.000002	-5.067360	-75.609217	-2.587598
56781	9.561592	-0.219971	2.444787	-0.001261	-0.002951	0.058959	1.000000	0.000030	0.000011	0.000026	-5.071967	-75.609447	-2.582436
56782	9.545474	-0.218574	2.463575	-0.022930	0.001303	0.047968	1.000000	0.000016	0.000033	0.000026	-5.077585	-75.607198	-2.578940
56783	9.544920	-0.233060	2.432505	0.005012	-0.017014	0.040057	1.000000	0.000025	0.000009	0.000016	-5.078491	-75.607805	-2.578105
56784	9.552961	-0.199823	2.436482	0.007413	0.016337	0.048100	1.000000	0.000028	0.000009	0.000009	-5.075913	-75.608516	-2.581630
56785	9.561246	-0.220884	2.446060	-0.002512	-0.003423	0.058959	1.000000	0.000024	0.000017	0.000015	-5.075960	-75.608246	-2.581854
56786	9.536385	-0.212492	2.423864	0.013694	0.002271	0.029199	1.000000	0.000025	0.000009	0.000016	-5.076921	-75.608809	-2.580798
56787	9.561110	-0.221162	2.446568	-0.003131	-0.003662	0.058959	1.000000	0.000027	0.000016	0.000007	-5.073383	-75.608648	-2.584396
56788	9.552249	-0.214644	2.406020	0.034426	-0.002346	0.040194	1.000000	0.000020	0.000009	0.000031	-5.081562	-75.609027	-2.578044
56789	9.560990	-0.221680	2.446986	-0.003756	-0.003898	0.058959	1.000000	0.000021	0.000006	0.000007	-5.078768	-75.610010	-2.581537
56790	9.536559	-0.198934	2.456329	-0.015793	0.020005	0.037106	1.000000	0.000032	0.000026	0.000008	-5.074554	-75.608667	-2.588184
56791	9.560829	-0.221801	2.447608	-0.004376	-0.004135	0.058958	1.000000	0.000034	0.000003	0.000020	-5.076435	-75.609883	-2.585340
56792	9.576793	-0.223809	2.429386	0.016665	-0.008638	0.069955	1.000000	0.000025	0.000009	0.000016	-5.077391	-75.610470	-2.583799
56793	9.519941	-0.211733	2.443858	-0.009829	0.005820	0.018204	1.000000	0.000020	0.000014	0.000005	-5.073736	-75.610576	-2.588350
56794	9.551892	-0.215432	2.407368	0.032562	-0.003072	0.040201	1.000000	0.000018	0.000007	0.000014	-5.074617	-75.611439	-2.590553
56795	9.560588	-0.222283	2.448503	-0.005624	-0.004609	0.058957	1.000000	0.000032	0.000026	0.000008	-5.070331	-75.610134	-2.594259
56796	9.560497	-0.222376	2.448852	-0.005936	-0.004728	0.058957	1.000000	0.000025	0.000009	0.000016	-5.071281	-75.610737	-2.591648
56797	9.528008	-0.233068	2.454235	-0.020704	-0.014285	0.029055	1.000000	0.000021	0.000006	0.000007	-5.068486	-75.611720	-2.595142
56798	9.552051	-0.201725	2.439890	0.003073	0.014668	0.048105	1.000000	0.000044	0.000016	0.000031	-5.073383	-75.611394	-2.586937
56799	9.560308	-0.222946	2.449535	-0.006873	-0.005086	0.058956	1.000000	0.000017	0.000015	0.000013	-5.073312	-75.611389	-2.588115
56800	9.535903	-0.200273	2.458766	-0.018894	0.018828	0.037103	1.000000	0.000028	0.000009	0.000009	-5.070723	-75.612098	-2.593199
56801	9.535419	-0.214591	2.427478	0.009033	0.000480	0.029204	1.000000	0.000025	0.000009	0.000016	-5.071627	-75.612703	-2.592366
56802	9.568236	-0.189905	2.453968	-0.005060	0.028025	0.067007	1.000000	0.000027	0.000016	0.000007	-5.068172	-75.612522	-2.597268
56803	9.544079	-0.221472	2.468718	-0.029466	-0.001156	0.047951	1.000000	0.000030	0.000001	0.000011	-5.066352	-75.614115	-2.598750
56804	9.544049	-0.221595	2.468822	-0.029776	-0.001269	0.047950	1.000000	0.000025	0.000009	0.000016	-5.067342	-75.614705	-2.602203
56805	9.559949	-0.223567	2.450882	-0.008746	-0.005793	0.058954	1.000000	0.000021	0.000032	0.000012	-5.065661	-75.612680	-2.604550
56806	9.526950	-0.248592	2.425073	0.004730	-0.033577	0.021152	1.000000	0.000030	0.000011	0.000026	-5.070283	-75.612866	-2.599136
56807	9.551425	-0.203030	2.442233	0.000284	0.013596	0.048107	1.000000	0.000027	0.000016	0.000007	-5.066739	-75.612705	-2.602738
56808	9.543015	-0.182082	2.433178	0.009625	0.033109	0.037260	1.000000	0.000020	0.000014	0.000005	-5.063222	-75.612815	-2.613578
56809	9.534840	-0.215533	2.429668	0.006549	-0.000471	0.029206	1.000000	0.000032	0.000011	0.000019	-5.064241	-75.613154	-2.611794
56810	9.534771	-0.215710	2.429923	0.006236	-0.000587	0.029206	1.000000	0.000017	0.000015	0.000013	-5.064286	-75.613154	-2.618393
56811	9.543078	-0.236784	2.439364	-0.003735	-0.020333	0.040052	1.000000	0.000031	-0.000007	0.000012	-5.063328	-75.615623	-2.618816
56812	9.551141	-0.203547	2.443298	-0.001276	0.013009	0.048107	1.000000	0.000023	0.000025	0.000013	-5.062576	-75.614481	-2.618594
56813	9.559379	-0.224593	2.453009	-0.011249	-0.006735	0.058951	1.000000	0.000035	0.000011	0.000011	-5.060008	-75.614930	-2.620185
56814	9.534552	-0.216081	2.430749	0.004987	-0.001063	0.029207	1.000000	0.000035	0.000011	0.000011	-5.057509	-75.615376	-2.621976
56815	9.534892	-0.202093	2.462535	-0.023547	0.017075	0.037096	1.000000	0.000010	0.000023	0.000026	-5.063743	-75.614272	-2.617468
56816	9.542679	-0.237506	2.440852	-0.005304	-0.020922	0.040050	1.000000	0.000034	0.000019	0.000010	-5.060410	-75.613844	-2.623327
56817	9.518266	-0.214900	2.450099	-0.017283	0.003008	0.018195	1.000000	0.000023	0.000009	0.000024	-5.064899	-75.614338	-2.619121
56818	9.542346	-0.183577	2.435688	0.006522	0.031921	0.037267	1.000000	0.000028	0.000009	0.000009	-5.062294	-75.615057	-2.619678
56819	9.534149	-0.217010	2.432246	0.003426	-0.001656	0.029208	1.000000	0.000016	0.000022	0.000011	-5.061355	-75.614175	-2.621921
56820	9.566950	-0.192376	2.458785	-0.010652	0.025900	0.067008	1.000000	0.000025	0.000009	0.000016	-5.062351	-75.614769	-2.625975
56821	9.558799	-0.225926	2.455147	-0.013756	-0.007676	0.058947	1.000000	0.000027	0.000001	0.000018	-5.064117	-75.616250	-2.624083
56822	9.558737	-0.226021	2.455378	-0.014062	-0.007798	0.058947	1.000000	0.000018	0.000022	0.000004	-5.059567	-75.615439	-2.625707
56823	9.558220	-0.240506	2.424262	0.013840	-0.026189	0.051063	1.000000	0.000027	0.000012	0.000033	-5.067755	-75.615554	-2.617174
56824	9.534231	-0.203803	2.464950	-0.026335	0.016018	0.037091	1.000000	0.000024	0.000017	0.000015	-5.067800	-75.615247	-2.616557
56825	9.549728	-0.220065	2.415520	0.022897	-0.006812	0.040226	1.000000	0.000031	0.000019	0.000017	-5.067953	-75.614708	-2.615836
56826	9.558382	-0.226934	2.456675	-0.015308	-0.008274	0.058945	1.000000	0.000017	0.000015	0.000013	-5.067930	-75.614695	-2.617225
56827	9.541674	-0.185191	2.438201	0.003744	0.030843	0.037271	1.000000	0.000017	0.000015	0.000013	-5.067854	-75.614689	-2.618408
56828	9.565944	-0.208165	2.429482	0.015076	0.006665	0.059127	1.000000	0.000025	0.000009	0.000016	-5.068804	-75.615298	-2.617850
56829	9.533415	-0.218889	2.434954	0.000319	-0.002850	0.029208	1.000000	0.000024	0.000017	0.000015	-5.068842	-75.615025	-2.618081
56830	9.549742	-0.206726	2.448496	-0.006874	0.010871	0.048108	1.000000	0.000027	0.000027	0.000023	-5.071793	-75.613488	-2.617703
56831	9.549232	-0.221145	2.417381	0.021022	-0.007534	0.040229	1.000000	0.000021	0.000006	0.000007	-5.068996	-75.614471	-2.621198
56832	9.549163	-0.221324	2.417636	0.020709	-0.007653	0.040230	1.000000	0.000028	0.000019	0.000024	-5.072786	-75.613820	-2.617369
56833	9.541784	-0.226401	2.477127	-0.038827	-0.004651	0.047917	1.000000	0.000017	0.000015	0.000013	-5.072708	-75.613815	-2.618554
56834	9.524696	-0.198873	2.427085	0.008455	0.016172	0.018375	1.000000	0.000037	0.000003	0.000013	-5.071044	-75.615128	-2.617550
56835	9.557726	-0.228495	2.459082	-0.018128	-0.009338	0.058939	1.000000	0.000018	0.000007	0.000014	-5.071831	-75.615999	-2.617671
56836	9.549399	-0.207763	2.449744	-0.008744	0.010158	0.048107	1.000000	0.000042	-0.000002	0.000024	-5.074725	-75.617818	-2.612336
56837	9.532465	-0.234707	2.405441	0.026029	-0.022094	0.021334	1.000000	0.000027	0.000027	0.000023	-5.077595	-75.616290	-2.609307
56838	9.549215	-0.208277	2.450420	-0.009359	0.009916	0.048106	1.000000	0.000024	0.000017	0.000015	-5.077593	-75.615961	-2.605668
56839	9.549135	-0.208361	2.450725	-0.009671	0.009796	0.048106	1.000000	0.000020	0.000014	0.000005	-5.073928	-75.616066	-2.610228
56840	9.532615	-0.220767	2.437915	-0.003101	-0.004160	0.029207	1.000000	0.000027	0.000016	0.000007	-5.070438	-75.615898	-2.614713
56841	9.557299	-0.229410	2.460655	-0.019997	-0.010053	0.058935	1.000000	0.000018	0.000007	0.000014	-5.071225	-75.616769	-2.614835
56842	9.548927	-0.208640	2.451512	-0.010609	0.009441	0.048106	1.000000	0.000031	0.000019	0.000017	-5.071421	-75.616238	-2.609640
56843	9.564841	-0.210592	2.433611	0.010398	0.004862	0.059134	1.000000	0.000025	0.000024	0.000006	-5.067005	-75.615200	-2.614313
56844	9.540562	-0.242224	2.448651	-0.014056	-0.024246	0.040033	1.000000	0.000028	0.000019	0.000024	-5.070790	-75.614534	-2.612079
56845	9.532182	-0.221362	2.439553	-0.004662	-0.004755	0.029206	1.000000	0.000015	0.000012	-0.000004	-5.063426	-75.615018	-2.620966
56846	9.548163	-0.223171	2.421413	0.016349	-0.009339	0.040237	1.000000	0.000021	0.000006	0.000007	-5.060645	-75.615965	-2.624346
56847	9.532482	-0.207192	2.471422	-0.033478	0.013313	0.037073	1.000000	0.000028	0.000019	0.000024	-5.064379	-75.615313	-2.620255
56848	9.547999	-0.223597	2.422022	0.015725	-0.009578	0.040238	1.000000	0.000024	0.000017	0.000015	-5.064465	-75.615033	-2.619696
56849	9.547914	-0.223686	2.422350	0.015412	-0.009699	0.040238	1.000000	0.000027	0.000016	0.000007	-5.060914	-75.614871	-2.623305
56850	9.539964	-0.188558	2.444623	-0.003373	0.028100	0.037280	1.000000	0.000025	0.000009	0.000016	-5.061844	-75.615427	-2.623364
56851	9.547810	-0.223994	2.422731	0.014794	-0.009941	0.040239	1.000000	0.000034	0.000003	0.000020	-5.063726	-75.616639	-2.620519
56852	9.547750	-0.224117	2.422954	0.014489	-0.010062	0.040239	1.000000	0.000034	0.000019	0.000010	-5.060286	-75.616164	-2.623326
56853	9.539778	-0.188976	2.445317	-0.004297	0.027740	0.037280	1.000000	0.000024	0.000017	0.000015	-5.060319	-75.615890	-2.623562
56854	9.564003	-0.211879	2.436793	0.006985	0.003539	0.059138	1.000000	0.000018	0.000022	0.000004	-5.055837	-75.615108	-2.630979
56855	9.547458	-0.224360	2.424084	0.013551	-0.010423	0.040240	1.000000	0.000031	0.000019	0.000017	-5.055984	-75.614567	-2.630263
56856	9.531348	-0.222579	2.442697	-0.008072	-0.006064	0.029203	1.000000	0.000035	0.000011	0.000011	-5.053437	-75.615005	-2.632014
56857	9.547738	-0.210213	2.456004	-0.015262	0.007659	0.048101	1.000000	0.000028	0.000009	0.000009	-5.050752	-75.615719	-2.634560
56858	9.522934	-0.201781	2.433748	0.001029	0.013303	0.018383	1.000000	0.000031	0.000019	0.000017	-5.050924	-75.615187	-2.632002
56859	9.530746	-0.237200	2.412001	0.019177	-0.024746	0.021343	1.000000	0.000018	0.000007	0.000014	-5.051709	-75.616057	-2.632126
56860	9.547142	-0.224980	2.425269	0.011977	-0.011019	0.040241	1.000000	0.000025	0.000009	0.000016	-5.052719	-75.616715	-2.629994
56861	9.547062	-0.225167	2.425569	0.011664	-0.011140	0.040242	1.000000	0.000038	0.000021	0.000019	-5.052979	-75.615906	-2.628327
56862	9.530902	-0.223512	2.444354	-0.009956	-0.006773	0.029201	1.000000	0.000027	0.000027	0.000023	-5.055874	-75.614370	-2.625299
56863	9.547257	-0.211193	2.457789	-0.017145	0.006950	0.048099	1.000000	0.000024	0.000006	-0.000001	-5.049489	-75.615464	-2.632170
56864	9.522473	-0.202677	2.435479	-0.000841	0.012592	0.018384	1.000000	0.000024	0.000017	0.000015	-5.049554	-75.615165	-2.632512
56865	9.563166	-0.213213	2.439958	0.003540	0.002222	0.059140	1.000000	0.000028	0.000009	0.000009	-5.046868	-75.615879	-2.635058
56866	9.538781	-0.190469	2.449089	-0.008332	0.026197	0.037282	1.000000	0.000024	0.000017	0.000015	-5.046919	-75.615566	-2.637686
56867	9.530534	-0.223981	2.445744	-0.011507	-0.007368	0.029199	1.000000	0.000024	0.000017	0.000015	-5.046950	-75.615292	-2.637924
56868	9.546501	-0.226065	2.427689	0.009487	-0.011982	0.040243	1.000000	0.000025	0.000009	0.000016	-5.047864	-75.615875	-2.637556
56869	9.546383	-0.226228	2.428138	0.009174	-0.012103	0.040243	1.000000	0.000035	0.000037	0.000016	-5.046386	-75.613312	-2.638021
56870	9.537973	-0.205286	2.419217	0.018611	0.007377	0.029430	1.000000	0.000030	0.000016	0.000000	-5.039276	-75.613238	-2.644983
56871	9.562609	-0.213827	2.442088	0.001677	0.001501	0.059141	1.000000	0.000024	0.000017	0.000015	-5.039306	-75.612963	-2.645221
56872	9.521780	-0.203639	2.438104	-0.003310	0.011637	0.018385	1.000000	0.000023	0.000009	0.000024	-5.043799	-75.613428	-2.640894
56873	9.546020	-0.226750	2.429519	0.007930	-0.012584	0.040244	1.000000	0.000031	0.000019	0.000017	-5.043943	-75.612886	-2.640181
56874	9.521629	-0.204078	2.438658	-0.003929	0.011399	0.018385	1.000000	0.000025	0.000009	0.000016	-5.044880	-75.613477	-2.641027
56875	9.553642	-0.208091	2.402303	0.038358	0.002268	0.040482	1.000000	0.000024	0.000017	0.000015	-5.044909	-75.613202	-2.641267
56876	9.562246	-0.214878	2.443414	0.000120	0.000903	0.059141	1.000000	0.000025	0.000009	0.000016	-5.045835	-75.613796	-2.641097
56877	9.521423	-0.204608	2.439420	-0.004861	0.011042	0.018385	1.000000	0.000024	0.000017	0.000015	-5.045863	-75.613521	-2.641337
56878	9.546062	-0.213238	2.462248	-0.021797	0.005172	0.048090	1.000000	0.000035	0.000011	0.000011	-5.043294	-75.613929	-2.642738
56879	9.545981	-0.213423	2.462547	-0.022109	0.005053	0.048090	1.000000	0.000028	0.000019	0.000024	-5.047020	-75.613275	-2.638655
56880	9.561935	-0.215512	2.444575	-0.001124	0.000424	0.059141	1.000000	0.000020	0.000014	0.000005	-5.043400	-75.613372	-2.647013
56881	9.561853	-0.215673	2.444883	-0.001437	0.000303	0.059141	1.000000	0.000021	0.000017	0.000022	-5.047012	-75.612984	-2.643881
56882	9.529674	-0.212060	2.481817	-0.044344	0.009221	0.037035	1.000000	0.000024	0.000017	0.000015	-5.047106	-75.612738	-2.644604
56883	9.545255	-0.228427	2.432364	0.004803	-0.013781	0.040244	1.000000	0.000028	0.000009	0.000009	-5.044420	-75.613452	-2.647151
56884	9.512629	-0.184738	2.431929	0.002742	0.029804	0.007579	1.000000	0.000025	0.000009	0.000016	-5.045326	-75.614013	-2.649914
56885	9.561578	-0.216306	2.445903	-0.002687	-0.000174	0.059141	1.000000	0.000024	0.000017	0.000015	-5.045353	-75.613737	-2.650156
56886	9.520750	-0.206107	2.441918	-0.007643	0.009971	0.018384	1.000000	0.000030	0.000011	0.000026	-5.049906	-75.613921	-2.644677
56887	9.536733	-0.208214	2.423852	0.013337	0.005327	0.029440	1.000000	0.000013	0.000012	0.000003	-5.046120	-75.614292	-2.650195
56888	9.560976	-0.231083	2.415274	0.024546	-0.018913	0.051301	1.000000	0.000020	0.000014	0.000005	-5.042422	-75.614364	-2.655571
56889	9.544850	-0.229231	2.433877	0.002942	-0.014506	0.040244	1.000000	0.000024	0.000017	0.000015	-5.042448	-75.614088	-2.655813
56890	9.544786	-0.229404	2.434111	0.002633	-0.014627	0.040244	1.000000	0.000018	0.000007	0.000014	-5.043203	-75.614938	-2.653097
56891	9.552891	-0.196240	2.438028	0.005229	0.018690	0.048339	1.000000	0.000038	0.000021	0.000019	-5.043458	-75.614127	-2.651435
56892	9.544630	-0.229772	2.434689	0.002004	-0.014866	0.040243	1.000000	0.000025	0.000009	0.000016	-5.044393	-75.614743	-2.650460
56893	9.536716	-0.194745	2.456783	-0.016684	0.022984	0.037279	1.000000	0.000016	0.000007	0.000022	-5.048760	-75.615499	-2.647215
56894	9.560973	-0.217709	2.448142	-0.005489	-0.001256	0.059140	1.000000	0.000015	0.000012	-0.000004	-5.041426	-75.615967	-2.657433
56895	9.544483	-0.230208	2.435226	0.001066	-0.015225	0.040243	1.000000	0.000016	0.000007	0.000022	-5.045793	-75.616723	-2.654187
56896	9.552613	-0.197129	2.439043	0.003672	0.018091	0.048340	1.000000	0.000032	0.000011	0.000019	-5.046785	-75.617054	-2.651785
56897	9.585121	-0.241059	2.439891	0.005070	-0.025741	0.080999	1.000000	0.000028	0.000009	0.000009	-5.044096	-75.617768	-2.654334
56898	9.536061	-0.209678	2.426367	0.009918	0.004002	0.029445	1.000000	0.000020	0.000014	0.000005	-5.040448	-75.617864	-2.657590
56899	9.552040	-0.211630	2.408355	0.030890	-0.000659	0.040509	1.000000	0.000020	0.000014	0.000005	-5.036773	-75.617968	-2.662159
56900	9.576674	-0.220245	2.431162	0.013919	-0.006517	0.070202	1.000000	0.000025	0.000009	0.000016	-5.037665	-75.618563	-2.662312
56901	9.544502	-0.216519	2.468002	-0.028961	0.002449	0.048073	1.000000	0.000024	0.000017	0.000015	-5.037689	-75.618287	-2.662556
56902	9.535783	-0.210212	2.427412	0.008668	0.003518	0.029446	1.000000	0.000030	0.000011	0.000026	-5.042230	-75.618524	-2.652552
56903	9.568228	-0.199866	2.422400	0.022771	0.012703	0.059409	1.000000	0.000024	0.000006	-0.000001	-5.035841	-75.619618	-2.659426
56904	9.535693	-0.210433	2.427746	0.008048	0.003276	0.029447	1.000000	0.000023	0.000009	0.000024	-5.040290	-75.620086	-2.655432
56905	9.552063	-0.198273	2.441104	0.000868	0.017006	0.048343	1.000000	0.000024	0.000017	0.000015	-5.040313	-75.619810	-2.655678
56906	9.519495	-0.208910	2.446569	-0.013854	0.007583	0.018379	1.000000	0.000032	0.000011	0.000019	-5.041304	-75.620129	-2.655256
56907	9.559766	-0.233874	2.419794	0.018592	-0.021220	0.051309	1.000000	0.000041	0.000021	0.000012	-5.037970	-75.619432	-2.656970
56908	9.551849	-0.198761	2.441900	-0.000061	0.016644	0.048344	1.000000	0.000017	-0.000001	0.000023	-5.043213	-75.621047	-2.652609
56909	9.560016	-0.219774	2.451692	-0.010177	-0.003058	0.059135	1.000000	0.000027	0.000032	-0.000003	-5.034320	-75.619243	-2.661741
56910	9.535616	-0.196951	2.460871	-0.021962	0.020957	0.037274	1.000000	0.000016	0.000007	0.000022	-5.038661	-75.619995	-2.657492
56911	9.575924	-0.221924	2.433964	0.010474	-0.007854	0.070206	1.000000	0.000038	0.000010	0.000004	-5.032501	-75.620554	-2.662462
56912	9.526892	-0.244809	2.426422	0.005191	-0.029162	0.021348	1.000000	0.000030	0.000027	0.000015	-5.080500	-75.604698	-2.592433
56913	9.567492	-0.201186	2.425195	0.022232	0.013463	0.059409	1.000000	0.000025	0.000009	0.000016	-5.081531	-75.605258	-2.591452
56914	9.535312	-0.197346	2.462017	-0.020639	0.022440	0.037273	1.000000	0.000027	0.000016	0.000007	-5.078014	-75.605077	-2.592070
56915	9.559538	-0.220349	2.453502	-0.009464	-0.001805	0.059136	1.000000	0.000032	0.000011	0.000019	-5.079157	-75.605370	-2.590139
56916	9.550859	-0.214006	2.412827	0.028176	-0.000745	0.040517	1.000000	0.000025	0.000009	0.000016	-5.080085	-75.605937	-2.588290
56917	9.567197	-0.201691	2.426318	0.021004	0.012992	0.059412	1.000000	0.000047	0.000031	0.000013	-5.076122	-75.604055	-2.589972
56918	9.583581	-0.243565	2.445687	0.001086	-0.026291	0.080999	1.000000	0.000021	0.000006	0.000007	-5.073339	-75.605009	-2.593494
56919	9.534547	-0.212321	2.432082	0.005980	0.003456	0.029448	1.000000	0.000014	0.000015	0.000020	-5.076962	-75.604846	-2.591168
56920	9.558778	-0.235477	2.423539	0.017142	-0.020798	0.051312	1.000000	0.000025	0.000009	0.000016	-5.077907	-75.605420	-2.589424
56921	9.534425	-0.212764	2.432521	0.005368	0.003223	0.029449	1.000000	0.000032	0.000011	0.000019	-5.079050	-75.605712	-2.587494
56922	9.550427	-0.215018	2.414445	0.026332	-0.001453	0.040522	1.000000	0.000023	0.000009	0.000024	-5.083600	-75.606198	-2.584644
56923	9.559388	-0.207417	2.486814	-0.040067	0.015680	0.066954	1.000000	0.000027	0.000001	0.000018	-5.085507	-75.607634	-2.582591
56924	9.550361	-0.215501	2.414662	0.025716	-0.001688	0.040524	1.000000	0.000025	0.000009	0.000016	-5.086450	-75.608222	-2.580896
56925	9.550677	-0.201221	2.446281	-0.002728	0.016612	0.048343	1.000000	0.000049	0.000015	0.000016	-5.084236	-75.608093	-2.580435
56926	9.526279	-0.232817	2.461447	-0.027265	-0.012373	0.029163	1.000000	0.000016	0.000033	0.000026	-5.089734	-75.605830	-2.576259
56927	9.550461	-0.201705	2.447085	-0.003344	0.016381	0.048344	1.000000	0.000030	0.000001	0.000011	-5.088060	-75.607380	-2.577574
56928	9.558663	-0.222676	2.456699	-0.013469	-0.003313	0.059131	1.000000	0.000028	0.000009	0.000009	-5.085442	-75.608060	-2.581256
56929	9.566441	-0.203939	2.429111	0.017318	0.011581	0.059421	1.000000	0.000030	0.000011	0.000026	-5.090165	-75.608237	-2.575957
56930	9.525613	-0.193687	2.425133	0.012420	0.021753	0.018663	1.000000	0.000023	0.000025	0.000013	-5.089383	-75.607093	-2.577619
56931	9.541979	-0.235699	2.444495	-0.007533	-0.017512	0.040236	1.000000	0.000025	0.000009	0.000016	-5.090412	-75.607652	-2.576640
56932	9.557982	-0.183619	2.420459	0.026218	0.030801	0.048637	1.000000	0.000025	0.000009	0.000016	-5.091337	-75.608218	-2.576309
56933	9.533271	-0.229502	2.403991	0.029812	-0.016601	0.021637	1.000000	0.000035	0.000011	0.000011	-5.088897	-75.608624	-2.577749
56934	9.566098	-0.204705	2.430397	0.015779	0.010990	0.059424	1.000000	0.000035	0.000011	0.000011	-5.086346	-75.609039	-2.579084
56935	9.549557	-0.217301	2.417678	0.022336	-0.002982	0.040531	1.000000	0.000027	0.000027	0.000023	-5.089312	-75.607463	-2.575936
56936	9.557683	-0.238471	2.427558	0.012194	-0.022673	0.051316	1.000000	0.000025	0.000009	0.000016	-5.090252	-75.608050	-2.573846
56937	9.533345	-0.215732	2.436488	0.000454	0.001362	0.029451	1.000000	0.000025	0.000009	0.000016	-5.091281	-75.608608	-2.572868
56938	9.533651	-0.201479	2.468107	-0.027988	0.019681	0.037261	1.000000	0.000024	0.000017	0.000015	-5.091366	-75.608340	-2.571401
56939	9.565678	-0.205649	2.431968	0.014239	0.010406	0.059427	1.000000	0.000023	0.000025	0.000013	-5.090637	-75.607146	-2.572573
56940	9.549523	-0.203803	2.450569	-0.007333	0.014870	0.048344	1.000000	0.000025	0.000009	0.000016	-5.091578	-75.607717	-2.574607
56941	9.565559	-0.206017	2.432405	0.013626	0.010171	0.059428	1.000000	0.000027	0.000001	0.000018	-5.093486	-75.609152	-2.572553
56942	9.532973	-0.216582	2.437869	-0.001083	0.000780	0.029451	1.000000	0.000007	0.000028	0.000007	-5.091570	-75.607627	-2.577247
56943	9.557167	-0.239506	2.429487	0.010032	-0.023491	0.051316	1.000000	0.000031	0.000008	0.000002	-5.085438	-75.608415	-2.583006
56944	9.548893	-0.218605	2.420183	0.019559	-0.004039	0.040537	1.000000	0.000017	0.000015	0.000012	-5.085409	-75.608420	-2.582976
56945	9.549201	-0.204339	2.451777	-0.008868	0.014293	0.048343	1.000000	0.000025	0.000009	0.000016	-5.086437	-75.608978	-2.581998
56946	9.540896	-0.237940	2.448502	-0.012164	-0.019250	0.040228	1.000000	0.000028	0.000019	0.000024	-5.090233	-75.608303	-2.578909
56947	9.549060	-0.204871	2.452284	-0.009482	0.014063	0.048343	1.000000	0.000034	0.000003	0.000020	-5.092253	-75.609470	-2.575905
56948	9.548625	-0.219487	2.421160	0.018328	-0.004508	0.040539	1.000000	0.000008	0.000020	0.000009	-5.091211	-75.608835	-2.578008
56949	9.532442	-0.217772	2.439836	-0.003237	-0.000028	0.029450	1.000000	0.000033	0.000022	0.000034	-5.098744	-75.607752	-2.569470
56950	9.548817	-0.205700	2.453158	-0.010399	0.013712	0.048343	1.000000	0.000027	0.000001	0.000018	-5.100555	-75.609174	-2.568964
56951	9.556975	-0.226808	2.462881	-0.020558	-0.005968	0.059118	1.000000	0.000024	0.000017	0.000015	-5.100702	-75.608856	-2.569063
56952	9.531913	-0.178678	2.403151	0.036813	0.034155	0.018991	1.000000	0.000025	0.000009	0.000016	-5.101692	-75.609453	-2.568574
56953	9.548259	-0.220693	2.422495	0.016795	-0.005092	0.040542	1.000000	0.000024	0.000017	0.000015	-5.101839	-75.609135	-2.568674
56954	9.548186	-0.220799	2.422770	0.016487	-0.005211	0.040542	1.000000	0.000035	0.000011	0.000011	-5.099320	-75.609551	-2.570615
56955	9.564578	-0.208565	2.436041	0.009324	0.008533	0.059435	1.000000	0.000016	0.000007	0.000022	-5.103817	-75.610261	-2.567218
56956	9.548462	-0.206640	2.454461	-0.012243	0.013020	0.048341	1.000000	0.000031	0.000008	0.000002	-5.097596	-75.611086	-2.572382
56957	9.564471	-0.208799	2.436443	0.008706	0.008299	0.059436	1.000000	0.000044	0.000016	0.000031	-5.102540	-75.610725	-2.565187
56958	9.556116	-0.242375	2.433336	0.005389	-0.025245	0.051315	1.000000	0.000007	0.000028	0.000007	-5.100555	-75.609215	-2.568363
56959	9.539612	-0.200689	2.414613	0.024814	0.013765	0.029773	1.000000	0.000032	0.000011	0.000019	-5.101695	-75.609505	-2.566436
56960	9.548102	-0.207402	2.455797	-0.013465	0.012554	0.048341	1.000000	0.000021	0.000017	0.000022	-5.105328	-75.609062	-2.564995
56961	9.547627	-0.222095	2.424856	0.014338	-0.006033	0.040545	1.000000	0.000023	0.000025	0.000013	-5.104591	-75.607867	-2.566174
56962	9.531443	-0.220207	2.443519	-0.007223	-0.001538	0.029448	1.000000	0.000024	0.000017	0.000015	-5.104654	-75.607570	-2.564951
56963	9.556009	-0.228801	2.466442	-0.024256	-0.007352	0.059109	1.000000	0.000035	0.000011	0.000011	-5.102213	-75.607975	-2.566392
56964	9.531299	-0.220588	2.444045	-0.007837	-0.001770	0.029447	1.000000	0.000034	0.000014	0.000036	-5.110527	-75.607788	-2.557294
56965	9.547672	-0.208339	2.457388	-0.014998	0.011977	0.048339	1.000000	0.000015	0.000012	-0.000004	-5.103289	-75.608235	-2.566030
56966	9.539347	-0.241835	2.454149	-0.018327	-0.021561	0.040214	1.000000	0.000018	0.000017	0.000029	-5.110507	-75.607710	-2.559208
56967	9.547518	-0.208751	2.457955	-0.015612	0.011746	0.048338	1.000000	0.000035	0.000011	0.000011	-5.108066	-75.608115	-2.560649
56968	9.547152	-0.169169	2.420793	0.025090	0.046122	0.037907	1.000000	0.000030	0.000011	0.000026	-5.112663	-75.608283	-2.556893
56969	9.546649	-0.238090	2.395795	0.039982	-0.025457	0.032758	1.000000	0.000034	0.000019	0.000010	-5.109338	-75.607812	-2.559413
56970	9.547301	-0.209235	2.458754	-0.016528	0.011394	0.048337	1.000000	0.000025	0.000009	0.000016	-5.110236	-75.608377	-2.558244
56971	9.546878	-0.223812	2.427644	0.011267	-0.007208	0.040548	1.000000	0.000020	0.000014	0.000005	-5.106688	-75.608442	-2.562664
56972	9.547167	-0.209330	2.459265	-0.017143	0.011163	0.048336	1.000000	0.000020	0.000014	0.000005	-5.103033	-75.608534	-2.567868
56973	9.538534	-0.203137	2.418665	0.020538	0.012113	0.029785	1.000000	0.000018	0.000017	0.000029	-5.110335	-75.607984	-2.561237
56974	9.538420	-0.203372	2.419094	0.020230	0.011995	0.029786	1.000000	0.000032	0.000026	0.000008	-5.106063	-75.606656	-2.565853
56975	9.538634	-0.243319	2.456771	-0.021098	-0.022599	0.040206	1.000000	0.000024	0.000001	0.000025	-5.111553	-75.607973	-2.560430
56976	9.546478	-0.224733	2.429130	0.009721	-0.007792	0.040549	1.000000	0.000024	0.000017	0.000015	-5.111665	-75.607707	-2.560025
56977	9.522475	-0.187435	2.469493	-0.030029	0.034779	0.026466	1.000000	0.000031	0.000019	0.000017	-5.111918	-75.607119	-2.559180
56978	9.546299	-0.224990	2.429811	0.009107	-0.008027	0.040550	1.000000	0.000020	0.000014	0.000005	-5.108259	-75.607191	-2.566483
56979	9.546248	-0.225180	2.429993	0.008801	-0.008142	0.040550	1.000000	0.000031	0.000004	0.000028	-5.113861	-75.608240	-2.560110
56980	9.578709	-0.214770	2.425100	0.022877	0.000965	0.070550	1.000000	0.000034	0.000023	-0.000016	-5.098728	-75.607543	-2.574326
56981	9.521794	-0.201909	2.439416	-0.003156	0.015817	0.018682	1.000000	0.000032	0.000026	0.000008	-5.094517	-75.606195	-2.577928
56982	9.546340	-0.210546	2.462370	-0.020217	0.010014	0.048332	1.000000	0.000001	0.000003	0.000017	-5.098713	-75.607465	-2.577080
56983	9.562361	-0.212866	2.444360	0.000716	0.005257	0.059442	1.000000	0.000038	0.000021	0.000019	-5.099077	-75.606609	-2.575286
56984	9.529732	-0.223396	2.449896	-0.013972	-0.004083	0.029440	1.000000	0.000024	0.000017	0.000015	-5.099118	-75.606263	-2.577424
56985	9.537573	-0.204735	2.422318	0.016866	0.010707	0.029794	1.000000	0.000025	0.000009	0.000016	-5.100144	-75.606819	-2.576449
56986	9.545678	-0.225900	2.432166	0.006649	-0.008961	0.040551	1.000000	0.000021	0.000017	0.000022	-5.103809	-75.606407	-2.577053
56987	9.562027	-0.213789	2.445587	-0.000506	0.004791	0.059442	1.000000	0.000021	0.000017	0.000022	-5.107528	-75.605971	-2.573792
56988	9.545854	-0.211870	2.464140	-0.022047	0.009325	0.048329	1.000000	0.000020	0.000014	0.000005	-5.103875	-75.606044	-2.579758
56989	9.553733	-0.192993	2.436454	0.008795	0.024104	0.048687	1.000000	0.000032	0.000000	0.000003	-5.098628	-75.607708	-2.584434
56990	9.536878	-0.220030	2.392274	0.043415	-0.008405	0.022021	1.000000	0.000013	0.000023	0.000018	-5.101230	-75.606690	-2.583297
56991	9.545647	-0.212067	2.464926	-0.022967	0.008980	0.048327	1.000000	0.000034	0.000019	0.000010	-5.097902	-75.606218	-2.585821
56992	9.553496	-0.193267	2.437360	0.007875	0.023751	0.048689	1.000000	0.000028	0.000009	0.000009	-5.095263	-75.606906	-2.588341
56993	9.553349	-0.247628	2.443650	-0.005422	-0.029323	0.051304	1.000000	0.000025	0.000009	0.000016	-5.096288	-75.607462	-2.587367
56994	9.536944	-0.205984	2.424688	0.014108	0.009649	0.029799	1.000000	0.000017	0.000015	0.000012	-5.096213	-75.607438	-2.588607
56995	9.553338	-0.193664	2.437949	0.006957	0.023401	0.048690	1.000000	0.000037	0.000003	0.000013	-5.094655	-75.608719	-2.588968
56996	9.536824	-0.206201	2.425141	0.013495	0.009414	0.029800	1.000000	0.000023	0.000025	0.000013	-5.093792	-75.607544	-2.588922
56997	9.544912	-0.227191	2.435049	0.003265	-0.010245	0.040551	1.000000	0.000021	0.000006	0.000007	-5.091125	-75.608484	-2.592264
56998	9.560960	-0.229318	2.416986	0.024187	-0.015031	0.051671	1.000000	0.000035	0.000011	0.000011	-5.088581	-75.608892	-2.594784
56999	9.536643	-0.206513	2.425824	0.012581	0.009064	0.029802	1.000000	0.000023	0.000009	0.000024	-5.093184	-75.609332	-2.590444
57000	9.553030	-0.194423	2.439093	0.005427	0.022811	0.048692	1.000000	0.000023	0.000009	0.000024	-5.097637	-75.609788	-2.586160
57001	9.561142	-0.215596	2.448884	-0.004808	0.003154	0.059441	1.000000	0.000025	0.000009	0.000016	-5.098661	-75.610343	-2.585186
57002	9.561428	-0.201161	2.480434	-0.033188	0.021576	0.067210	1.000000	0.000020	0.000014	0.000005	-5.095005	-75.610423	-2.589578
57003	9.544555	-0.228134	2.436360	0.001423	-0.010948	0.040551	1.000000	0.000034	0.000019	0.000010	-5.091673	-75.609951	-2.592104
57004	9.536693	-0.192730	2.458242	-0.017025	0.027019	0.037571	1.000000	0.000023	-0.000001	0.000008	-5.089829	-75.611813	-2.595249
57005	9.544424	-0.228406	2.436849	0.000802	-0.011180	0.040551	1.000000	0.000016	0.000033	0.000026	-5.095351	-75.609508	-2.590789
57006	9.544653	-0.214103	2.468595	-0.027578	0.007247	0.048316	1.000000	0.000035	0.000011	0.000011	-5.092779	-75.609950	-2.591105
57007	9.568637	-0.197594	2.422692	0.024501	0.017317	0.059820	1.000000	0.000016	0.000007	0.000022	-5.097271	-75.610657	-2.587714
57008	9.519935	-0.206067	2.446317	-0.011407	0.012685	0.018680	1.000000	0.000024	0.000017	0.000015	-5.097283	-75.610361	-2.590965
57009	9.560563	-0.216820	2.451036	-0.007277	0.002222	0.059440	1.000000	0.000025	0.000009	0.000016	-5.098306	-75.610916	-2.589992
57010	9.560512	-0.217009	2.451218	-0.007587	0.002103	0.059440	1.000000	0.000025	0.000009	0.000016	-5.099213	-75.611497	-2.589943
57011	9.544320	-0.215217	2.469788	-0.029113	0.006673	0.048312	1.000000	0.000017	0.000025	0.000028	-5.105618	-75.610067	-2.584403
57012	9.551806	-0.211202	2.411053	0.029808	0.002849	0.040935	1.000000	0.000034	0.000019	0.000010	-5.102178	-75.609612	-2.587512
57013	9.543931	-0.175775	2.432991	0.011392	0.040828	0.037955	1.000000	0.000021	0.000006	0.000007	-5.099511	-75.610552	-2.590854
57014	9.543734	-0.230112	2.439389	-0.001978	-0.012234	0.040549	1.000000	0.000024	0.000017	0.000015	-5.099547	-75.610264	-2.590475
57015	9.551919	-0.196848	2.443246	0.000827	0.021058	0.048698	1.000000	0.000025	0.000024	0.000006	-5.095214	-75.609183	-2.595036
57016	9.543886	-0.215644	2.471426	-0.030651	0.006097	0.048308	1.000000	0.000028	0.000009	0.000009	-5.092546	-75.609872	-2.599624
57017	9.535322	-0.209397	2.430766	0.007057	0.006952	0.029809	1.000000	0.000031	0.000019	0.000017	-5.092791	-75.609282	-2.598785
57018	9.543717	-0.215913	2.472054	-0.031269	0.005864	0.048306	1.000000	0.000024	0.000017	0.000015	-5.092779	-75.608997	-2.596135
57019	9.575837	-0.220239	2.435927	0.010856	-0.003640	0.070570	1.000000	0.000027	0.000016	0.000007	-5.089334	-75.608793	-2.599612
57020	9.543208	-0.230817	2.441380	-0.003829	-0.012932	0.040548	1.000000	0.000034	0.000014	0.000036	-5.097699	-75.608604	-2.592556
57021	9.535002	-0.210185	2.431954	0.005827	0.006486	0.029810	1.000000	0.000021	0.000006	0.000007	-5.095031	-75.609543	-2.595898
57022	9.534919	-0.210196	2.432278	0.005522	0.006367	0.029810	1.000000	0.000032	0.000026	0.000008	-5.090719	-75.608195	-2.600059
57023	9.543328	-0.216636	2.473492	-0.032799	0.005296	0.048302	1.000000	0.000027	0.000001	0.000018	-5.092630	-75.609625	-2.598003
57024	9.542938	-0.231466	2.442375	-0.005058	-0.013397	0.040547	1.000000	0.000021	0.000017	0.000022	-5.096255	-75.609218	-2.592755
57025	9.550809	-0.212936	2.414846	0.025814	0.001316	0.040947	1.000000	0.000024	0.000017	0.000015	-5.096387	-75.608897	-2.592867
57026	9.550746	-0.213109	2.415081	0.025500	0.001199	0.040948	1.000000	0.000018	0.000007	0.000014	-5.097230	-75.609767	-2.589064
57027	9.526619	-0.229837	2.461377	-0.027195	-0.009037	0.029409	1.000000	0.000020	0.000014	0.000005	-5.093672	-75.609831	-2.593491
57028	9.542659	-0.232218	2.443392	-0.006295	-0.013861	0.040546	1.000000	0.000020	0.000010	0.000031	-5.101745	-75.610177	-2.585285
57029	9.534449	-0.211494	2.434006	0.003370	0.005555	0.029812	1.000000	0.000030	0.000016	0.000000	-5.094719	-75.610090	-2.592130
57030	9.542527	-0.232489	2.443881	-0.006907	-0.014093	0.040545	1.000000	0.000016	0.000007	0.000021	-5.099126	-75.610797	-2.587667
57031	9.534659	-0.197186	2.465769	-0.025288	0.023905	0.037561	1.000000	0.000027	0.000016	0.000007	-5.095679	-75.610592	-2.591146
57032	9.558522	-0.234910	2.426076	0.013687	-0.019036	0.051684	1.000000	0.000027	0.000001	0.000018	-5.097495	-75.612030	-2.587775
57033	9.518109	-0.210003	2.453076	-0.019058	0.009801	0.018672	1.000000	0.000028	0.000019	0.000024	-5.101316	-75.611323	-2.583574
57034	9.550594	-0.200056	2.448163	-0.004999	0.018844	0.048701	1.000000	0.000031	0.000004	0.000028	-5.106828	-75.612384	-2.575660
57035	9.542225	-0.233513	2.444961	-0.008442	-0.014672	0.040543	1.000000	0.000037	0.000018	0.000002	-5.099911	-75.612029	-2.581558
57036	9.517230	-0.239724	2.391269	0.036112	-0.027725	0.003178	1.000000	0.000014	0.000015	0.000020	-5.103422	-75.611885	-2.578067
57037	9.550546	-0.146213	2.442779	0.007205	0.071426	0.046132	1.000000	0.000049	0.000015	0.000016	-5.101196	-75.611752	-2.577615
57038	9.557903	-0.290278	2.433932	-0.001290	-0.072667	0.054253	1.000000	0.000024	0.000017	0.000015	-5.101231	-75.611457	-2.576682
57039	9.534133	-0.198714	2.467678	-0.027736	0.022983	0.037557	1.000000	-0.000022	-0.000003	0.000018	-5.108747	-75.613385	-2.574672
57040	9.550052	-0.161450	2.412081	0.034337	0.052479	0.038391	1.000000	0.000034	0.000019	0.000010	-5.105339	-75.612916	-2.578834
57041	9.542814	-0.190481	2.540341	-0.094413	0.040423	0.063768	1.000000	0.000066	0.000008	-0.000002	-5.093378	-75.613743	-2.586445
57042	9.548908	-0.298922	2.362454	0.063530	-0.090803	0.028039	1.000000	0.000023	0.000009	0.000024	-5.097913	-75.614215	-2.582306
57043	9.549820	-0.255520	2.456595	-0.020899	-0.035122	0.051265	1.000000	-0.000004	0.000019	0.000021	-5.103976	-75.613587	-2.579624
57044	9.558260	-0.168351	2.453978	-0.004911	0.051085	0.056864	1.000000	0.000031	0.000004	0.000028	-5.109511	-75.614659	-2.576104
57045	9.565855	-0.164530	2.395030	0.054016	0.047161	0.049548	1.000000	-0.000001	0.000019	0.000014	-5.111994	-75.614148	-2.576788
57046	9.572631	-0.149698	2.236113	0.210214	0.040316	0.016456	1.000000	0.000165	0.000017	-0.000001	-5.088686	-75.613940	-2.587830
57047	9.517353	-0.385174	2.575546	-0.160076	-0.147659	0.052118	1.000000	-0.000059	0.000015	0.000035	-5.107508	-75.613574	-2.578465
57048	9.590205	-0.079604	2.375063	0.090637	0.128378	0.066311	1.000000	0.000002	0.000029	0.000022	-5.112664	-75.611804	-2.574946
57049	9.517997	-0.208523	2.588978	-0.149240	0.029488	0.052170	1.000000	0.000125	0.000025	0.000008	-5.098009	-75.610603	-2.578331
57050	9.506787	-0.319359	2.298309	0.112743	-0.118616	-0.028188	1.000000	-0.000039	0.000030	0.000040	-5.116150	-75.608579	-2.566667
57051	9.574417	-0.182657	2.538614	-0.083099	0.048456	0.093782	1.000000	0.000006	0.000005	0.000027	-5.124106	-75.609433	-2.560864
57052	9.516738	-0.253329	2.496085	-0.066070	-0.026689	0.028950	1.000000	0.000022	0.000003	-0.000018	-5.110452	-75.611023	-2.575622
57053	9.541580	-0.113543	2.468800	-0.015658	0.107689	0.043162	1.000000	0.000066	0.000004	0.000024	-5.110232	-75.612105	-2.571097
57054	9.564865	-0.314008	2.447802	-0.016289	-0.094052	0.064957	1.000000	0.000024	-0.000009	0.000010	-5.109244	-75.614813	-2.574682
57055	9.581052	-0.222736	2.385803	0.058990	-0.011703	0.063274	1.000000	-0.000024	0.000015	0.000031	-5.122240	-75.614484	-2.567170
57056	9.540956	-0.183334	2.444077	-0.001721	0.035802	0.037981	1.000000	0.000032	0.000011	0.000019	-5.123229	-75.614787	-2.563645
57057	9.580705	-0.277468	2.392570	0.045183	-0.064856	0.065826	1.000000	0.000038	0.000010	0.000004	-5.117201	-75.615308	-2.568457
57058	9.500134	-0.172489	2.440117	-0.006669	0.045953	-0.002779	1.000000	0.000070	0.000026	-0.000003	-5.103426	-75.614109	-2.579182
57059	9.563926	-0.249911	2.342890	0.092618	-0.044694	0.036663	1.000000	0.000021	0.000032	0.000011	-5.101762	-75.612035	-2.581480
57060	9.540624	-0.222694	2.483366	-0.044159	0.001055	0.048259	1.000000	0.000023	0.000025	0.000013	-5.100892	-75.610848	-2.584514
57061	9.524240	-0.181199	2.464595	-0.024426	0.039972	0.026826	1.000000	0.000030	0.000037	0.000031	-5.106603	-75.608001	-2.578187
57062	9.564408	-0.206587	2.438592	0.007624	0.010835	0.059857	1.000000	0.000041	0.000036	0.000001	-5.097926	-75.605644	-2.584321
57063	9.523956	-0.220899	2.503621	-0.066267	0.005469	0.037096	1.000000	0.000042	0.000039	0.000018	-5.096592	-75.602764	-2.583774
57064	9.547709	-0.258817	2.464444	-0.027387	-0.037550	0.051240	1.000000	0.000013	0.000023	0.000018	-5.099208	-75.601706	-2.583621
57065	9.532029	-0.187988	2.507961	-0.063682	0.038638	0.045265	1.000000	0.000017	0.000015	0.000012	-5.099223	-75.601651	-2.584689
57066	9.547801	-0.204764	2.458642	-0.014786	0.015124	0.048698	1.000000	0.000035	0.000000	-0.000004	-5.090297	-75.603456	-2.589802
57067	9.531444	-0.256773	2.483167	-0.049498	-0.033136	0.040075	1.000000	0.000020	-0.000001	0.000016	-5.092100	-75.605152	-2.588693
57068	9.539448	-0.238366	2.455309	-0.018597	-0.018500	0.040522	1.000000	0.000031	0.000004	0.000028	-5.097598	-75.606221	-2.581375
57069	9.547781	-0.205163	2.458688	-0.015706	0.014779	0.048697	1.000000	0.000018	-0.000004	-0.000001	-5.092137	-75.608423	-2.587941
57070	9.572009	-0.228348	2.450184	-0.004857	-0.009612	0.070570	1.000000	0.000001	0.000003	0.000017	-5.096331	-75.609657	-2.586580
57071	9.539331	-0.199267	2.417813	0.021733	0.015415	0.030262	1.000000	0.000018	0.000007	0.000014	-5.097239	-75.610477	-2.586560
57072	9.563855	-0.207752	2.440661	0.004557	0.009665	0.059860	1.000000	0.000032	0.000000	0.000003	-5.091898	-75.612177	-2.590845
57073	9.514500	-0.245141	2.401561	0.024746	-0.032092	0.003200	1.000000	0.000025	0.000009	0.000016	-5.092916	-75.612729	-2.589877
57074	9.523094	-0.197332	2.436425	-0.000370	0.019829	0.019100	1.000000	0.000017	0.000015	0.000012	-5.092848	-75.612688	-2.591791
57075	9.547568	-0.206098	2.459436	-0.017542	0.014086	0.048695	1.000000	0.000020	0.000010	0.000031	-5.101023	-75.613004	-2.584093
57076	9.539392	-0.185467	2.450011	-0.007807	0.033477	0.037987	1.000000	0.000034	0.000019	0.000010	-5.097562	-75.612535	-2.589521
57077	9.547131	-0.220812	2.428644	0.009856	-0.004800	0.040975	1.000000	0.000038	-0.000000	-0.000011	-5.085161	-75.614437	-2.600922
57078	9.555210	-0.241665	2.438429	-0.000495	-0.024426	0.051682	1.000000	0.000016	0.000007	0.000021	-5.089556	-75.615156	-2.596342
57079	9.563470	-0.208567	2.442099	0.002412	0.008848	0.059861	1.000000	0.000023	0.000025	0.000013	-5.088781	-75.613956	-2.597556
57080	9.563377	-0.208632	2.442458	0.002106	0.008729	0.059862	1.000000	0.000013	0.000012	0.000003	-5.084998	-75.614292	-2.601189
57081	9.555248	-0.187923	2.432863	0.011847	0.028121	0.049157	1.000000	0.000017	-0.000001	0.000023	-5.090379	-75.615870	-2.596715
57082	9.522645	-0.198364	2.438098	-0.002800	0.018898	0.019101	1.000000	0.000035	0.000011	0.000011	-5.087834	-75.616250	-2.599922
57083	9.546509	-0.236303	2.398519	0.036026	-0.024166	0.033260	1.000000	0.000009	0.000005	0.000019	-5.092209	-75.617220	-2.597487
57084	9.522267	-0.213447	2.407052	0.024596	-0.000001	0.011387	1.000000	-0.000003	0.000000	0.000007	-5.092679	-75.618846	-2.602079
57085	9.547337	-0.153309	2.454857	-0.007313	0.065821	0.046171	1.000000	0.000004	0.000013	0.000025	-5.099737	-75.618821	-2.597369
57086	9.555076	-0.189035	2.433450	0.010331	0.027530	0.049160	1.000000	0.000032	0.000000	0.000003	-5.094374	-75.620489	-2.601827
57087	9.562797	-0.224627	2.412128	0.027971	-0.010759	0.052150	1.000000	0.000038	0.000021	0.000019	-5.094714	-75.619628	-2.600053
57088	9.530110	-0.234867	2.417701	0.013319	-0.019977	0.022091	1.000000	0.000028	0.000024	-0.000002	-5.086660	-75.618664	-2.610535
57089	9.554497	-0.203821	2.403236	0.037418	0.008504	0.041450	1.000000	0.000014	0.000015	0.000020	-5.090248	-75.618490	-2.608242
57090	9.571155	-0.176925	2.447920	0.002291	0.040942	0.068048	1.000000	0.000016	0.000022	0.000011	-5.089242	-75.617551	-2.611794
57091	9.554621	-0.189465	2.435204	0.008813	0.026943	0.049163	1.000000	0.000042	0.000013	0.000014	-5.086900	-75.617685	-2.612295
57092	9.529719	-0.235199	2.419208	0.012092	-0.020447	0.022091	1.000000	0.000042	0.000028	0.000003	-5.079076	-75.616208	-2.617149
57093	9.562464	-0.210372	2.445880	-0.001866	0.007208	0.059863	1.000000	0.000027	0.000027	0.000023	-5.081987	-75.614620	-2.614051
57094	9.513007	-0.248017	2.407173	0.018307	-0.034567	0.003206	1.000000	0.000013	0.000023	0.000018	-5.084567	-75.613556	-2.613842
57095	9.521522	-0.200287	2.442320	-0.006748	0.017386	0.019102	1.000000	0.000026	0.000035	0.000021	-5.086579	-75.611092	-2.611838
57096	9.561106	-0.255196	2.353803	0.081194	-0.049203	0.036742	1.000000	0.000037	0.000029	0.000018	-5.085935	-75.609352	-2.613458
57097	9.521229	-0.160994	2.405705	0.033958	0.051349	0.008888	1.000000	0.000045	0.000013	0.000006	-5.080016	-75.609604	-2.617321
57098	9.561240	-0.280124	2.423462	0.011266	-0.064948	0.054663	1.000000	0.000038	0.000021	0.000019	-5.080258	-75.608776	-2.617701
57099	9.586869	-0.230186	2.571600	-0.117896	0.004094	0.115064	1.000000	-0.000021	0.000015	0.000024	-5.089659	-75.608562	-2.613572
57100	9.570517	-0.109652	2.477428	-0.015401	0.111344	0.073254	1.000000	0.000073	0.000047	0.000020	-5.085043	-75.604696	-2.613643
57101	9.560223	-0.270623	2.324848	0.107636	-0.068508	0.029048	1.000000	0.000061	0.000009	0.000012	-5.080243	-75.605286	-2.614517
57102	9.552989	-0.245444	2.446740	-0.007878	-0.027226	0.051671	1.000000	-0.000021	0.000015	0.000024	-5.089563	-75.605103	-2.609131
57103	9.544822	-0.225079	2.437310	0.001897	-0.007845	0.040977	1.000000	0.000018	0.000018	0.000029	-5.096832	-75.604540	-2.602534
57104	9.577609	-0.200445	2.463788	-0.012054	0.019809	0.078748	1.000000	0.000056	0.000017	0.000018	-5.094582	-75.604137	-2.600170
57105	9.560495	-0.242300	2.388539	0.050430	-0.031593	0.044460	1.000000	0.000068	0.000011	0.000015	-5.089892	-75.604460	-2.600095
57106	9.527816	-0.252633	2.394020	0.035775	-0.040785	0.014392	1.000000	0.000020	0.000025	0.000020	-5.092619	-75.603194	-2.596924
57107	9.536324	-0.244441	2.466819	-0.030583	-0.022990	0.040483	1.000000	-0.000007	0.000035	0.000018	-5.096860	-75.600808	-2.596453
57108	9.552283	-0.246865	2.449351	-0.009729	-0.027924	0.051667	1.000000	0.000045	0.000039	0.000011	-5.091816	-75.598035	-2.599337
57109	9.536227	-0.229874	2.499550	-0.059176	-0.004514	0.048179	1.000000	0.000030	0.000042	0.000005	-5.085772	-75.594932	-2.605155
57110	9.527730	-0.223443	2.459121	-0.021417	-0.003843	0.029790	1.000000	0.000035	0.000015	-0.000015	-5.071511	-75.595118	-2.619223
57111	9.535694	-0.244088	2.469288	-0.031815	-0.023448	0.040478	1.000000	0.000032	0.000026	0.000008	-5.067266	-75.593767	-2.622853
57112	9.552005	-0.192107	2.445241	0.002399	0.024485	0.049173	1.000000	0.000024	0.000032	0.000004	-5.061951	-75.591833	-2.627936
57113	9.536007	-0.175031	2.495167	-0.047039	0.047906	0.045681	1.000000	0.000021	0.000022	-0.000004	-5.053916	-75.591137	-2.636820
57114	9.535875	-0.174841	2.495684	-0.047351	0.047791	0.045680	1.000000	0.000027	0.000032	-0.000003	-5.045025	-75.589344	-2.645421
57115	9.543546	-0.210277	2.474648	-0.029776	0.009475	0.048671	1.000000	0.000045	0.000013	0.000006	-5.039113	-75.589595	-2.649278
57116	9.535730	-0.174712	2.496249	-0.047957	0.047567	0.045678	1.000000	-0.000003	0.000000	0.000007	-5.039640	-75.591227	-2.653358
57117	9.543545	-0.170935	2.437050	0.010970	0.043397	0.038489	1.000000	0.000038	-0.000005	0.000015	-5.038983	-75.593380	-2.652626
57118	9.560255	-0.183336	2.518961	-0.065485	0.041735	0.075246	1.000000	0.000038	-0.000005	0.000015	-5.038158	-75.595523	-2.650012
57119	9.535455	-0.189859	2.464957	-0.020892	0.028503	0.037983	1.000000	0.000023	0.000009	0.000024	-5.042744	-75.595954	-2.645690
57120	9.551601	-0.192331	2.446801	-0.000049	0.023553	0.049176	1.000000	0.000024	-0.000009	0.000010	-5.041767	-75.598673	-2.645290
57121	9.551631	-0.192566	2.446663	-0.000354	0.023439	0.049176	1.000000	0.000025	-0.000006	0.000027	-5.048149	-75.600856	-2.638784
57122	9.592297	-0.203565	2.451235	0.003570	0.012887	0.089937	1.000000	0.000035	-0.000004	0.000022	-5.050957	-75.602864	-2.635697
57123	9.518765	-0.218042	2.420455	0.012681	-0.004575	0.011408	1.000000	0.000034	0.000003	0.000020	-5.052977	-75.604022	-2.632693
57124	9.559402	-0.228861	2.425151	0.016594	-0.015130	0.052170	1.000000	0.000023	-0.000001	0.000008	-5.051043	-75.605842	-2.635565
57125	9.559082	-0.243795	2.394035	0.044256	-0.033975	0.044482	1.000000	0.000030	0.000012	0.000026	-5.055740	-75.606004	-2.630293
57126	9.558968	-0.244030	2.394469	0.043953	-0.034095	0.044483	1.000000	0.000021	0.000032	0.000011	-5.053985	-75.603897	-2.633236
57127	9.559177	-0.229152	2.426013	0.015680	-0.015480	0.052171	1.000000	0.000038	-0.000000	-0.000011	-5.041593	-75.605799	-2.644627
57128	9.534336	-0.235278	2.372220	0.060271	-0.028742	0.014921	1.000000	0.000033	0.000026	0.000008	-5.037232	-75.604459	-2.649793
57129	9.502190	-0.215900	2.440260	-0.010292	-0.000434	0.000212	1.000000	0.000028	0.000024	-0.000002	-5.029296	-75.603494	-2.657738
57130	9.526281	-0.238953	2.432348	0.000425	-0.024879	0.022089	1.000000	0.000025	0.000024	0.000006	-5.024867	-75.602431	-2.662591
57131	9.542634	-0.226498	2.445732	-0.006698	-0.011102	0.040972	1.000000	0.000028	0.000009	0.000009	-5.022302	-75.603099	-2.664991
57132	9.575119	-0.216314	2.441052	0.007325	-0.002179	0.071056	1.000000	0.000031	0.000034	0.000006	-5.017017	-75.600863	-2.669351
57133	9.550770	-0.193136	2.449976	-0.004001	0.022037	0.049178	1.000000	0.000018	0.000022	0.000003	-5.012546	-75.600047	-2.674883
57134	9.542607	-0.211661	2.478147	-0.035577	0.007287	0.048653	1.000000	0.000032	0.000000	0.000003	-5.007168	-75.601725	-2.679444
57135	9.550410	-0.208022	2.419070	0.023347	0.003058	0.041497	1.000000	0.000013	0.000008	0.000029	-5.015217	-75.602305	-2.672712
57136	9.575130	-0.202008	2.473277	-0.021860	0.016096	0.078738	1.000000	0.000018	0.000007	0.000014	-5.016013	-75.603113	-2.673954
57137	9.558648	-0.214657	2.460381	-0.015349	0.002090	0.059854	1.000000	0.000025	0.000009	0.000016	-5.017023	-75.603662	-2.672995
57138	9.574787	-0.217163	2.442279	0.005495	-0.002888	0.071057	1.000000	0.000035	-0.000004	0.000022	-5.019794	-75.605641	-2.670779
57139	9.550010	-0.223732	2.388252	0.050092	-0.016170	0.033821	1.000000	0.000018	0.000007	0.000014	-5.020693	-75.606459	-2.670768
57140	9.550151	-0.248673	2.457470	-0.019576	-0.031633	0.051642	1.000000	0.000028	0.000019	0.000024	-5.024387	-75.605723	-2.667444
57141	9.517503	-0.219565	2.425277	0.007206	-0.006685	0.011412	1.000000	0.000033	0.000026	0.000008	-5.020132	-75.604371	-2.671082
57142	9.558310	-0.215678	2.461604	-0.016867	0.001508	0.059851	1.000000	0.000044	0.000016	0.000030	-5.024990	-75.604004	-2.663737
57143	9.533450	-0.222140	2.407935	0.027733	-0.011781	0.022619	1.000000	0.000028	0.000024	-0.000002	-5.017050	-75.603039	-2.671684
57144	9.492599	-0.250846	2.441513	-0.018169	-0.035539	-0.008007	1.000000	0.000014	0.000030	0.000009	-5.015155	-75.601195	-2.675352
57145	9.501161	-0.202795	2.476387	-0.043094	0.016480	0.007880	1.000000	0.000013	0.000012	0.000003	-5.011470	-75.601524	-2.680743
57146	9.541747	-0.213501	2.481297	-0.039234	0.005916	0.048641	1.000000	0.000028	0.000009	0.000009	-5.008843	-75.602273	-2.682671
57147	9.541697	-0.213460	2.481493	-0.039539	0.005804	0.048639	1.000000	0.000038	0.000010	0.000004	-5.002812	-75.602791	-2.687484
57148	9.574322	-0.203278	2.476301	-0.025527	0.014709	0.078731	1.000000	0.000011	-0.000021	0.000007	-5.002468	-75.606912	-2.689717
57149	9.549928	-0.194956	2.453114	-0.008871	0.020174	0.049179	1.000000	0.000010	-0.000013	0.000006	-5.001366	-75.610137	-2.692783
57150	9.550202	-0.180287	2.484315	-0.037129	0.038824	0.056851	1.000000	0.000010	0.000013	0.000010	-5.001146	-75.610387	-2.692821
57151	9.549930	-0.195109	2.453092	-0.009487	0.019942	0.049179	1.000000	0.000035	-0.000015	0.000007	-4.997697	-75.613802	-2.695311
57152	9.582560	-0.185029	2.447869	0.004538	0.028842	0.079274	1.000000	0.000027	0.000001	0.000018	-4.999500	-75.615171	-2.693962
57153	9.541914	-0.174541	2.443173	0.000068	0.039181	0.038513	1.000000	0.000020	-0.000001	0.000016	-5.001296	-75.616864	-2.692861
57154	9.549658	-0.210399	2.421833	0.017553	0.000816	0.041509	1.000000	0.000041	0.000006	0.000023	-5.003336	-75.617746	-2.690774
57155	9.557755	-0.192149	2.393952	0.048535	0.015290	0.042059	1.000000	0.000024	0.000002	0.000025	-5.008822	-75.619051	-2.685359
57156	9.525084	-0.202562	2.399314	0.033910	0.006156	0.011964	1.000000	0.000023	0.000025	0.000013	-5.007939	-75.617862	-2.686127
57157	9.573926	-0.219496	2.445444	-0.000337	-0.005109	0.071057	1.000000	0.000024	0.000017	0.000015	-5.008045	-75.617534	-2.686263
57158	9.549390	-0.211303	2.422809	0.016324	0.000347	0.041512	1.000000	0.000041	0.000006	0.000023	-5.010107	-75.618451	-2.682324
57159	9.541205	-0.230216	2.450956	-0.015272	-0.014352	0.040958	1.000000	0.000027	0.000012	0.000033	-5.018381	-75.618492	-2.673690
57160	9.540871	-0.245197	2.419964	0.012360	-0.033252	0.033292	1.000000	0.000031	0.000008	0.000002	-5.012199	-75.619265	-2.682493
57161	9.557284	-0.232775	2.433116	0.005244	-0.019470	0.052175	1.000000	0.000027	0.000001	0.000018	-5.014108	-75.620689	-2.680440
57162	9.541092	-0.230651	2.451352	-0.016188	-0.014698	0.040956	1.000000	0.000018	0.000007	0.000014	-5.014886	-75.621499	-2.682145
57163	9.541082	-0.230685	2.451389	-0.016494	-0.014812	0.040956	1.000000	0.000018	-0.000004	-0.000001	-5.009414	-75.623699	-2.688721
57164	9.541039	-0.230791	2.451548	-0.016802	-0.014928	0.040955	1.000000	0.000028	0.000019	0.000024	-5.013135	-75.622992	-2.686219
57165	9.549120	-0.212372	2.423779	0.014189	-0.000472	0.041515	1.000000	0.000032	0.000000	0.000003	-5.007884	-75.624655	-2.690896
57166	9.549118	-0.212176	2.423806	0.013887	-0.000592	0.041515	1.000000	0.000013	0.000001	-0.000012	-4.997743	-75.626348	-2.705136
57167	9.549101	-0.212189	2.423872	0.013582	-0.000707	0.041516	1.000000	0.000009	0.000005	0.000019	-5.002106	-75.627314	-2.702714
57168	11.339233	-0.478470	-4.199551	6.765603	-1.174882	0.151725	0.999998	-0.001602	-0.001164	-0.000570	-4.972959	-75.767597	-2.923874
57169	7.677303	-1.360061	12.795197	-10.486524	0.226947	0.886921	0.999948	0.004661	0.009073	0.000437	-4.305893	-74.729019	-3.064376
57170	10.653974	2.745309	-6.917448	9.665245	1.692740	-1.291828	0.999926	-0.001748	-0.011969	-0.000902	-4.512593	-76.106302	-3.054371
57171	9.262495	-1.464654	10.164019	-7.643658	-0.228035	1.709613	0.999958	-0.001301	0.008893	0.002012	-5.216339	-75.073046	-2.484771
57172	8.717376	-0.641115	-1.156377	3.217521	-0.890443	-1.652134	0.999981	-0.001696	-0.005746	-0.001076	-5.165005	-75.741836	-2.740616
57173	10.109493	-0.556246	3.005412	-0.447700	-0.269045	0.735806	0.999995	0.002180	0.002336	0.000199	-4.909327	-75.474962	-2.749810
57174	9.506045	0.810822	3.528990	-0.907364	1.146779	0.253972	0.999998	0.001639	-0.000696	-0.000297	-4.613072	-75.559200	-2.863266
57175	9.511559	-0.247562	2.384616	0.052605	-0.048221	-0.003900	0.999997	-0.002383	0.000390	0.000425	-5.056912	-75.512339	-2.690026
57176	9.329927	-0.652828	2.535476	-0.191214	-0.420534	-0.133383	1.000000	0.000514	-0.000455	-0.000139	-4.951079	-75.567557	-2.742707
57177	9.514799	-0.083934	2.489719	-0.032589	0.132422	0.021872	1.000000	0.000157	-0.000115	-0.000026	-4.922936	-75.582738	-2.756244
57178	9.542709	0.101454	2.916829	-0.412934	0.371264	0.150903	1.000000	0.000144	-0.000005	0.000003	-4.904760	-75.585222	-2.758266
57179	9.501272	-0.394508	1.660508	0.716530	-0.284604	-0.190178	1.000000	-0.000365	-0.000084	0.000065	-4.975576	-75.595895	-2.731433
57180	9.492417	-0.269353	3.147477	-0.697189	0.038456	0.167172	1.000000	-0.000076	0.000012	0.000038	-4.997586	-75.596092	-2.717260
57181	9.487721	-0.182056	1.882921	0.526477	-0.042629	-0.152646	1.000000	0.000114	-0.000006	-0.000008	-4.978179	-75.598564	-2.726892
57182	9.604611	-0.280566	2.789465	-0.327419	-0.022150	0.187347	1.000000	0.000120	0.000041	0.000012	-4.965216	-75.595609	-2.729648
57183	9.571090	-0.054791	2.206065	0.254867	0.124281	0.005412	1.000000	0.000061	0.000102	0.000015	-4.957999	-75.585514	-2.732974
57184	9.543842	-0.322263	2.085886	0.328885	-0.156836	-0.045040	1.000000	0.000073	-0.000016	-0.000005	-4.945127	-75.589191	-2.741543
57185	9.524311	-0.066596	2.824996	-0.351645	0.194606	0.113844	1.000000	-0.000059	0.000057	0.000029	-4.959482	-75.584162	-2.736782
57186	9.578980	-0.045791	2.280856	0.187911	0.142066	0.031385	1.000000	0.000258	0.000083	-0.000002	-4.922481	-75.576560	-2.747769
57187	9.481153	-0.336209	2.956235	-0.521687	-0.055539	0.110487	1.000000	-0.000121	0.000036	0.000051	-4.954798	-75.573692	-2.731799
57188	9.554450	-0.047839	2.359732	0.106952	0.151027	0.027226	1.000000	0.000135	0.000012	0.000014	-4.941972	-75.574107	-2.730477
57189	9.471620	-0.405446	2.759561	-0.344632	-0.149215	0.053929	1.000000	-0.000078	-0.000037	0.000053	-4.972905	-75.579552	-2.710800
57190	9.539495	0.012251	2.501434	-0.026419	0.231009	0.046583	1.000000	0.000021	-0.000054	0.000050	-4.991579	-75.587082	-2.692259
57191	9.593688	-0.316895	2.426830	0.014191	-0.105060	0.087693	1.000000	0.000031	-0.000064	0.000029	-5.000600	-75.595783	-2.682391
57192	9.504946	-0.260984	2.437452	-0.012026	-0.045929	0.003169	1.000000	-0.000141	-0.000050	0.000074	-5.048614	-75.602590	-2.651088
57193	9.505598	-0.183500	2.360554	0.070719	0.021923	-0.016933	1.000000	0.000051	-0.000075	0.000030	-5.056132	-75.612624	-2.640443
57194	9.552795	-0.344265	2.224519	0.190223	-0.155101	-0.001334	1.000000	-0.000090	-0.000075	0.000046	-5.086767	-75.622589	-2.621349
57195	9.612082	-0.175834	2.352491	0.102781	0.029141	0.084072	1.000000	0.000008	-0.000051	0.000036	-5.100977	-75.629830	-2.608784
57196	9.634968	-0.337560	2.294473	0.141921	-0.138654	0.095481	1.000000	0.000031	-0.000022	0.000023	-5.105513	-75.634038	-2.602261
57197	9.602838	-0.293935	2.292687	0.140931	-0.094937	0.062961	1.000000	-0.000018	-0.000001	0.000027	-5.116715	-75.635566	-2.595946
57198	9.586467	-0.267186	2.242245	0.188935	-0.074984	0.034042	1.000000	0.000049	0.000046	-0.000006	-5.103547	-75.632339	-2.604398
57199	9.561753	-0.258713	2.220532	0.205648	-0.069557	0.004527	1.000000	0.000026	0.000076	0.000015	-5.101061	-75.625224	-2.607013
57200	9.569748	-0.313643	2.401293	0.028301	-0.100565	0.058166	1.000000	0.000030	0.000099	-0.000013	-5.085066	-75.615956	-2.621774
57201	9.552794	-0.301176	2.321118	0.104244	-0.099452	0.021610	1.000000	0.000055	0.000097	-0.000011	-5.066803	-75.606767	-2.637175
57202	9.545852	-0.190770	2.500201	-0.053317	0.032919	0.056799	1.000000	0.000040	0.000100	-0.000018	-5.047407	-75.597391	-2.653829
57203	9.529422	-0.148577	2.482236	-0.033178	0.071712	0.035521	1.000000	0.000065	0.000083	-0.000006	-5.031104	-75.589682	-2.666045
57204	9.528792	-0.187696	2.521671	-0.075056	0.037637	0.045552	1.000000	0.000043	0.000080	0.000012	-5.025336	-75.582322	-2.668292
57205	9.504747	-0.159280	2.662556	-0.211500	0.084486	0.056604	1.000000	0.000033	0.000052	0.000012	-5.022035	-75.577952	-2.670929
57206	9.504111	-0.189333	2.600802	-0.156009	0.046688	0.041329	1.000000	0.000010	0.000008	0.000036	-5.033505	-75.578505	-2.660432
57207	9.536310	-0.209447	2.533230	-0.086211	0.017851	0.056182	1.000000	-0.000016	-0.000027	0.000015	-5.040147	-75.583172	-2.658510
57208	9.504093	-0.205182	2.568760	-0.128732	0.027628	0.033686	1.000000	-0.000000	-0.000046	0.000032	-5.053211	-75.589931	-2.648245
57209	9.479481	-0.226927	2.482395	-0.056196	-0.004629	-0.011098	1.000000	0.000012	-0.000070	0.000015	-5.058384	-75.599558	-2.644528
57210	9.544376	-0.275946	2.446408	-0.013696	-0.058482	0.043912	1.000000	0.000024	-0.000076	0.000012	-5.060940	-75.610047	-2.642186
57211	9.569146	-0.260066	2.398798	0.038419	-0.049045	0.055774	1.000000	0.000029	-0.000082	0.000023	-5.068162	-75.620887	-2.634357
57212	9.552925	-0.248164	2.315676	0.114362	-0.047973	0.019247	1.000000	0.000048	-0.000029	0.000005	-5.063021	-75.626006	-2.637018
57213	9.585702	-0.237967	2.309988	0.128343	-0.039143	0.049379	1.000000	0.000049	-0.000037	0.000007	-5.058865	-75.631904	-2.638583
57214	9.626639	-0.209319	2.276457	0.173633	-0.015816	0.080131	1.000000	0.000075	-0.000013	0.000012	-5.053309	-75.635101	-2.637543
57215	9.618412	-0.227525	2.304596	0.141994	-0.030434	0.079517	1.000000	0.000063	0.000024	-0.000006	-5.039521	-75.634184	-2.647356
57216	9.594065	-0.203934	2.313614	0.130806	-0.006153	0.057639	1.000000	0.000078	0.000054	0.000003	-5.026859	-75.629861	-2.652578
57217	9.569826	-0.165463	2.354369	0.091751	0.036987	0.043387	1.000000	0.000072	0.000085	-0.000004	-5.010624	-75.621884	-2.663886
57218	9.561708	-0.153962	2.446334	0.004299	0.060099	0.058021	1.000000	0.000057	0.000085	0.000016	-5.004981	-75.613945	-2.665910
57219	9.537133	-0.130812	2.456123	-0.006851	0.084388	0.036140	1.000000	0.000033	0.000079	0.000017	-5.002625	-75.606559	-2.667555
57220	9.552681	-0.172792	2.477465	-0.027664	0.045379	0.057398	1.000000	0.000012	0.000083	0.000025	-5.006185	-75.598725	-2.665241
57221	9.519875	-0.192810	2.584207	-0.139622	0.040124	0.052515	1.000000	-0.000001	0.000071	0.000022	-5.010533	-75.592171	-2.663967
57222	9.495093	-0.185034	2.562611	-0.122893	0.045550	0.023004	1.000000	-0.000007	0.000072	0.000037	-5.021885	-75.585476	-2.654797
57223	9.526953	-0.229757	2.565299	-0.122604	0.001591	0.055511	1.000000	-0.000017	0.000033	0.000023	-5.029530	-75.583232	-2.651973
57224	9.518844	-0.209529	2.555873	-0.112685	0.020922	0.044880	1.000000	-0.000017	0.000018	0.000033	-5.042441	-75.582761	-2.642756
57225	9.510309	-0.243297	2.552936	-0.116437	-0.012534	0.036624	1.000000	0.000011	0.000005	0.000012	-5.043230	-75.583847	-2.643695
57226	9.502377	-0.222730	2.542888	-0.106518	0.006797	0.025995	1.000000	0.000006	-0.000020	0.000022	-5.050114	-75.587862	-2.637938
57227	9.526685	-0.221899	2.465239	-0.026507	-0.002677	0.030262	1.000000	0.000008	-0.000021	0.000015	-5.053524	-75.591844	-2.636517
57228	9.518572	-0.240533	2.492742	-0.058166	-0.017266	0.029627	1.000000	0.000028	-0.000033	0.000015	-5.055310	-75.597238	-2.634476
57229	9.526930	-0.222297	2.464257	-0.027132	-0.002905	0.030261	1.000000	0.000015	-0.000019	0.000017	-5.058831	-75.600951	-2.632105
57230	9.502601	-0.213884	2.441033	-0.010398	0.002517	0.000758	1.000000	0.000055	-0.000012	-0.000003	-5.048455	-75.604204	-2.638687
57231	9.526786	-0.237037	2.432762	0.000122	-0.022010	0.022641	1.000000	0.000059	0.000002	0.000021	-5.048144	-75.605549	-2.635092
57232	9.535014	-0.218799	2.404767	0.031140	-0.007660	0.023280	1.000000	0.000042	-0.000002	0.000024	-5.051105	-75.607421	-2.629095
57233	9.551151	-0.245689	2.455820	-0.017575	-0.027776	0.052140	1.000000	0.000061	0.000009	0.000012	-5.046308	-75.608012	-2.629962
57234	9.543109	-0.224905	2.446220	-0.007639	-0.008450	0.041519	1.000000	0.000038	0.000021	0.000019	-5.046588	-75.607261	-2.626987
57235	9.583623	-0.235951	2.451379	-0.003931	-0.019076	0.082280	1.000000	0.000023	0.000009	0.000024	-5.051165	-75.607687	-2.622676
57236	9.567312	-0.233928	2.469870	-0.025338	-0.014216	0.071016	1.000000	0.000031	0.000030	0.000032	-5.057605	-75.605807	-2.614747
57237	9.583082	-0.275984	2.490219	-0.046179	-0.053207	0.092254	1.000000	0.000013	0.000023	0.000018	-5.060247	-75.604750	-2.613593
57238	9.583497	-0.222196	2.483823	-0.032770	-0.000535	0.089892	1.000000	0.000018	0.000018	0.000029	-5.067487	-75.604262	-2.607416
57239	9.526229	-0.239143	2.434735	-0.002401	-0.022930	0.022638	1.000000	0.000001	-0.000023	0.000012	-5.070799	-75.608513	-2.606933
