// Start Time: Unknown
// Update Rate: 100.0Hz
// Filter Profile: human (46.1)
// Firmware Version: 4.4.0
PacketCounter	Acc_X	Acc_Y	Acc_Z	FreeAcc_X	FreeAcc_Y	FreeAcc_Z	OriInc_q0	OriInc_q1	OriInc_q2	OriInc_q3	Roll	Pitch	Yaw
07111	9.511043	0.138922	-2.582014	0.000000	0.000000	0.043581	1.000000	-0.000024	0.000035	0.000035	176.914734	-74.788626	174.325868
07112	9.512890	0.108048	-2.564856	-0.000000	0.000000	0.040497	1.000000	-0.000009	0.000029	0.000039	177.580210	-74.896238	173.963536
07113	9.526924	0.127448	-2.565208	-0.011706	0.005319	0.054362	1.000000	-0.000021	0.000014	0.000036	177.253454	-74.842441	174.133203
07114	9.498823	0.146419	-2.561984	-0.004158	0.024457	0.026633	1.000000	-0.000023	0.000026	0.000051	177.272071	-74.845651	174.111225
07115	9.516181	0.105057	-2.529287	-0.045426	-0.010353	0.034335	1.000000	0.000018	0.000014	0.000043	177.292831	-74.847760	174.091380
07116	9.527290	0.125084	-2.563965	-0.011651	0.005342	0.054362	1.000000	-0.000033	0.000037	0.000039	177.304786	-74.852175	174.075093
07117	9.530383	0.123851	-2.529046	-0.045329	0.009730	0.048218	1.000000	-0.000007	0.000018	0.000024	177.313989	-74.854437	174.064692
07118	9.527540	0.123872	-2.563096	-0.011637	0.005343	0.054362	1.000000	0.000001	0.000018	0.000052	177.335685	-74.856773	174.042312
07119	9.501083	0.112488	-2.543387	-0.024755	-0.002983	0.023543	1.000000	-0.000009	0.000017	0.000038	177.350196	-74.859109	174.026204
07120	9.510880	0.103006	-2.596031	0.022008	-0.019132	0.046622	1.000000	-0.000006	0.000021	0.000043	177.367296	-74.861773	174.007791
07121	9.543458	0.111340	-2.546137	-0.032182	-0.002031	0.065155	1.000000	-0.000009	0.000029	0.000039	177.382584	-74.865528	173.990856
07122	9.514102	0.100763	-2.560654	-0.011646	-0.014738	0.040479	1.000000	-0.000014	0.000023	0.000047	177.400480	-74.868457	173.970625
07123	9.531137	0.119321	-2.526420	-0.045184	0.009751	0.048219	1.000000	-0.000021	0.000039	0.000040	177.414848	-74.873534	173.953254
07124	9.514410	0.099400	-2.559563	-0.011576	-0.014719	0.040479	1.000000	0.000008	0.000012	0.000029	177.427870	-74.875109	173.940686
07125	9.512924	0.128998	-2.575590	0.009246	0.012763	0.043569	1.000000	-0.000010	0.000041	0.000041	177.444222	-74.880745	173.922646
07126	9.544178	0.107728	-2.543594	-0.031992	-0.001988	0.065155	1.000000	-0.000010	0.000003	0.000049	177.463734	-74.881361	173.901205
07127	9.514776	0.097097	-2.558291	-0.011317	-0.014683	0.040479	1.000000	0.000002	0.000032	0.000041	177.481176	-74.885971	173.883436
07128	9.541492	0.106847	-2.577152	0.001839	-0.006363	0.071298	1.000000	-0.000006	0.000021	0.000043	177.498333	-74.888623	173.864969
07129	9.530604	0.085510	-2.541554	-0.031790	-0.022022	0.051273	1.000000	-0.000011	0.000026	0.000021	177.506632	-74.892499	173.855167
07130	9.518126	0.094444	-2.522378	-0.044863	-0.010260	0.034338	1.000000	-0.000026	0.000033	0.000048	177.523311	-74.896562	173.834787
07131	9.518242	0.093797	-2.521962	-0.044629	-0.010184	0.034339	1.000000	-0.000004	0.000010	0.000028	177.536847	-74.899156	173.820470
07132	9.544896	0.103733	-2.541064	-0.031471	-0.001864	0.065157	1.000000	-0.000009	0.000017	0.000038	177.551478	-74.901256	173.804246
07133	9.502865	0.102574	-2.537141	-0.023675	-0.002723	0.023546	1.000000	0.000012	0.000020	0.000053	177.577771	-74.905727	173.778696
07134	9.545148	0.102052	-2.540185	-0.031135	-0.001777	0.065158	1.000000	-0.000024	0.000035	0.000035	177.589081	-74.909853	173.764083
07135	9.515799	0.091731	-2.554680	-0.010209	-0.014399	0.040481	1.000000	-0.000004	0.000022	0.000030	177.603753	-74.914780	173.748641
07136	9.531479	0.080901	-2.538420	-0.030827	-0.021774	0.051277	1.000000	-0.000021	0.000027	0.000038	177.617135	-74.918021	173.732303
07137	9.517382	0.120203	-2.535869	-0.022748	0.017585	0.037430	1.000000	-0.000002	0.000024	0.000017	177.627726	-74.923312	173.721362
07138	9.503536	0.099695	-2.534739	-0.022835	-0.002499	0.023548	1.000000	-0.000009	0.000017	0.000038	177.642390	-74.925404	173.705110
07139	9.530240	0.109587	-2.553693	-0.009159	0.005924	0.054364	1.000000	-0.000013	0.000025	0.000034	177.658514	-74.931285	173.687252
07140	9.505081	0.127959	-2.516088	-0.035311	0.029446	0.020497	1.000000	-0.000009	0.000017	0.000038	177.673190	-74.933379	173.670992
07141	9.517849	0.117874	-2.534222	-0.021674	0.017743	0.037432	1.000000	-0.000016	0.000032	0.000030	177.686446	-74.940438	173.655468
07142	9.505353	0.126892	-2.515115	-0.034750	0.029504	0.020499	1.000000	-0.000016	0.000020	0.000029	177.696518	-74.942871	173.643181
07143	9.501227	0.097562	-2.567024	0.012533	-0.006737	0.029683	1.000000	-0.000009	0.000017	0.000038	177.712485	-74.948439	173.625497
07144	9.532140	0.136184	-2.533805	-0.020982	0.037816	0.051315	1.000000	-0.000001	0.000015	0.000033	177.726407	-74.950271	173.611005
07145	9.502742	0.125838	-2.548508	0.000118	0.025058	0.026633	1.000000	-0.000004	0.000022	0.000030	177.738609	-74.956323	173.597632
07146	9.532345	0.135002	-2.533099	-0.020405	0.037767	0.051316	1.000000	-0.000001	0.000015	0.000033	177.752554	-74.958154	173.583108
07147	9.529581	0.135030	-2.567035	0.013847	0.033204	0.057445	1.000000	-0.000006	0.000034	0.000045	177.767835	-74.965529	173.566315
07148	9.517097	0.143872	-2.547898	0.000768	0.044966	0.040515	1.000000	-0.000024	0.000022	0.000033	177.778760	-74.968221	173.552136
07149	9.515900	0.113774	-2.565295	0.014227	0.012801	0.043563	1.000000	-0.000001	0.000027	0.000035	177.787257	-74.974385	173.542989
07150	9.503408	0.122636	-2.546181	0.001148	0.024564	0.026634	1.000000	-0.000021	0.000027	0.000038	177.800762	-74.977621	173.526521
07151	9.533028	0.131731	-2.530699	-0.018977	0.036948	0.051322	1.000000	-0.000009	0.000017	0.000038	177.809338	-74.982215	173.515974
07152	9.514964	0.082389	-2.581765	0.027619	-0.019365	0.046607	1.000000	-0.000016	0.000032	0.000030	177.820006	-74.986071	173.503018
07153	9.530440	0.131306	-2.564036	0.014937	0.032278	0.057447	1.000000	-0.000009	0.000029	0.000039	177.829545	-74.990989	173.491023
07154	9.519475	0.109851	-2.528472	-0.018850	0.016586	0.037440	1.000000	-0.000009	0.000017	0.000038	177.844351	-74.993061	173.474603
07155	9.504105	0.119582	-2.543726	0.001840	0.023635	0.026636	1.000000	-0.000020	0.000040	0.000027	177.845881	-74.998406	173.469502
07156	9.502943	0.089533	-2.560958	0.014822	-0.008207	0.029678	1.000000	-0.000001	0.000027	0.000035	177.860428	-75.001594	173.454282
07157	9.519919	0.107980	-2.526880	-0.018378	0.015902	0.037442	1.000000	-0.000011	0.000016	0.000051	177.873661	-75.006159	173.438426
07158	9.503178	0.088079	-2.560138	0.015218	-0.008564	0.029677	1.000000	0.000001	0.000028	0.000022	177.882794	-75.009432	173.429008
07159	9.546812	0.117238	-2.545237	-0.004839	0.023858	0.068254	1.000000	-0.000009	0.000029	0.000039	177.890985	-75.015305	173.418840
07160	9.517463	0.106712	-2.559794	0.015675	0.011158	0.043563	1.000000	-0.000003	0.000026	0.000048	177.911020	-75.018426	173.397732
07161	9.506484	0.085200	-2.524194	-0.017859	-0.004972	0.023557	1.000000	-0.000012	0.000025	0.000034	177.914603	-75.023156	173.392608
07162	9.544376	0.115806	-2.578115	0.029104	0.019034	0.074374	1.000000	-0.000009	0.000029	0.000039	177.929994	-75.026624	173.375533
07163	9.503898	0.084564	-2.557581	0.015828	-0.009685	0.029675	1.000000	-0.000014	0.000023	0.000047	177.940932	-75.029665	173.361366
07164	9.520928	0.103007	-2.523281	-0.017781	0.014787	0.037445	1.000000	-0.000010	0.000041	0.000041	177.956882	-75.034528	173.343659
07165	9.519586	0.132666	-2.539193	0.003149	0.041877	0.040528	1.000000	-0.000024	0.000022	0.000033	177.960258	-75.038743	173.337123
07166	9.504357	0.082500	-2.555941	0.016036	-0.010045	0.029675	1.000000	0.000014	0.000021	0.000040	177.978704	-75.041312	173.319660
07167	9.521337	0.101009	-2.521819	-0.017447	0.014046	0.037446	1.000000	-0.000012	0.000025	0.000034	177.983353	-75.045193	173.313140
07168	9.505960	0.110613	-2.537189	0.003156	0.021426	0.026641	1.000000	-0.000006	0.000021	0.000043	178.000827	-75.047743	173.294326
07169	9.492073	0.089998	-2.536083	0.003239	0.000914	0.012751	1.000000	-0.000016	0.000020	0.000029	178.001739	-75.051468	173.292039
07170	9.531466	0.090464	-2.573593	0.029492	-0.002544	0.060485	1.000000	0.000004	0.000020	0.000026	178.012930	-75.053834	173.280943
07171	9.507732	0.078703	-2.519701	-0.017270	-0.006874	0.023557	1.000000	-0.000012	-0.000000	0.000030	178.015713	-75.054862	173.277474
07172	9.548429	0.108561	-2.539552	-0.004006	0.021510	0.068260	1.000000	-0.000009	0.000017	0.000038	178.030552	-75.056871	173.261056
07173	9.490911	0.118020	-2.551455	0.024036	0.027650	0.015838	1.000000	-0.000001	0.000027	0.000035	178.038152	-75.060280	173.252499
07174	9.506564	0.107262	-2.535069	0.003414	0.020270	0.026643	1.000000	-0.000014	0.000034	0.000017	178.043437	-75.064126	173.245337
07175	9.533507	0.057583	-2.555101	0.008815	-0.031073	0.057398	1.000000	-0.000036	0.000032	0.000034	178.045299	-75.067795	173.238600
07176	9.480244	0.096101	-2.514559	-0.009842	0.011618	-0.004169	1.000000	0.000022	0.000029	0.000006	178.049931	-75.071111	173.236460
07177	9.533719	0.116789	-2.552524	0.016557	0.027801	0.057458	1.000000	-0.000043	0.000035	0.000025	178.045536	-75.075807	173.238407
07178	9.491972	-0.003116	-2.551173	0.008552	-0.091730	0.015717	1.000000	-0.000037	0.000029	0.000015	178.047197	-75.079074	173.232292
07179	9.550886	0.231342	-2.342021	-0.170648	0.172507	0.020884	1.000000	0.000047	0.000048	-0.000003	178.044361	-75.082134	173.241105
07180	9.418219	-0.227794	-2.773792	0.207479	-0.349030	-0.000257	1.000000	-0.000161	0.000050	0.000063	178.052200	-75.087948	173.213944
07181	9.520691	-0.082646	-2.553562	-0.007308	-0.170362	0.043376	1.000000	0.000055	-0.000037	-0.000087	178.022357	-75.082309	173.250964
07182	9.524724	-0.028824	-2.673991	0.114546	-0.135994	0.078713	1.000000	-0.000099	0.000035	-0.000024	178.000009	-75.086063	173.262427
07183	9.536732	-0.174276	-2.365458	-0.204154	-0.234877	0.009643	1.000000	-0.000066	0.000074	-0.000065	177.970352	-75.094467	173.286925
07184	9.616275	0.265213	-2.758084	0.218749	0.142139	0.191414	1.000000	-0.000005	0.000153	-0.000059	177.942076	-75.111621	173.315611
07185	9.467376	-0.092658	-2.353694	-0.181151	-0.156982	-0.059625	1.000000	-0.000033	0.000057	-0.000021	177.937845	-75.119918	173.318174
07186	9.670747	0.167591	-2.796315	0.230028	0.040531	0.252910	1.000000	0.000042	0.000054	0.000006	177.944423	-75.126095	173.316378
07187	9.568459	0.130047	-2.493598	-0.038309	0.045841	0.076033	1.000000	0.000063	0.000018	-0.000002	177.959778	-75.125656	173.309861
07188	9.451392	0.204352	-2.708648	0.207039	0.084361	0.018760	1.000000	0.000037	-0.000130	-0.000003	177.964499	-75.110650	173.309394
07189	9.396748	0.154037	-2.687905	0.193369	0.036084	-0.039830	1.000000	0.000055	0.000143	-0.000038	177.955284	-75.125001	173.329640
07190	9.431517	0.425470	-2.770117	0.304814	0.292916	0.017336	1.000000	-0.000080	-0.000039	0.000020	177.955034	-75.120502	173.320495
07191	9.533228	0.241569	-2.574228	0.063644	0.142929	0.063697	1.000000	0.000102	0.000093	-0.000010	177.952987	-75.125525	173.339669
07192	9.425531	0.229435	-2.512019	0.031639	0.137135	-0.056473	1.000000	-0.000034	0.000086	0.000046	177.967278	-75.135454	173.321041
07193	9.487659	0.271236	-2.618725	0.124923	0.164693	0.031307	1.000000	-0.000075	0.000047	0.000060	177.973568	-75.138404	173.308713
07194	9.496621	0.125009	-2.344270	-0.160130	0.061007	-0.031702	1.000000	0.000033	0.000091	-0.000016	177.968787	-75.148726	173.317762
07195	9.584605	-0.030840	-2.491800	-0.063750	-0.112878	0.089730	1.000000	-0.000155	0.000094	0.000047	177.960047	-75.156952	173.306346
07196	9.598696	0.169010	-2.486431	-0.040601	0.085098	0.103813	1.000000	-0.000102	0.000093	-0.000034	177.931979	-75.167446	173.323555
07197	9.589724	-0.000696	-2.435542	-0.110736	-0.077048	0.080566	1.000000	-0.000113	0.000131	-0.000011	177.903040	-75.181145	173.339517
07198	9.562329	0.044254	-2.603276	0.065345	-0.059721	0.097373	1.000000	-0.000117	0.000099	-0.000039	177.871047	-75.192265	173.359008
07199	9.469611	0.118786	-2.349351	-0.140766	0.047159	-0.056404	1.000000	-0.000068	0.000125	-0.000027	177.840136	-75.204681	173.386846
07200	9.511374	0.054454	-2.542683	0.025651	-0.044888	0.032706	1.000000	0.000006	0.000095	-0.000021	177.829570	-75.215383	173.398760
07201	9.560493	0.202195	-2.454625	-0.047785	0.114983	0.059171	1.000000	-0.000009	0.000090	0.000004	177.820471	-75.220205	173.407264
07202	9.574166	0.097182	-2.647364	0.118458	-0.017212	0.120505	1.000000	0.000055	0.000058	-0.000005	177.823027	-75.226722	173.411405
07203	9.564514	0.326153	-2.224317	-0.248518	0.271075	0.005594	1.000000	0.000049	0.000049	-0.000016	177.807446	-75.227876	173.439212
07204	9.551419	0.150712	-2.400168	-0.103109	0.071279	0.036039	1.000000	0.000025	0.000008	0.000021	177.818654	-75.228756	173.430855
07205	9.483379	0.408154	-2.353584	-0.091787	0.330487	-0.039112	1.000000	0.000105	0.000035	-0.000001	177.813587	-75.229226	173.451477
07206	9.458174	0.247203	-2.321705	-0.141013	0.176073	-0.073201	1.000000	-0.000077	-0.000132	0.000056	177.830532	-75.214108	173.425224
07207	9.535317	0.362536	-2.586767	0.107988	0.253298	0.070088	1.000000	0.000111	-0.000057	0.000022	177.833175	-75.206031	173.435263
07208	9.439446	0.196670	-2.376309	-0.094792	0.118918	-0.077928	1.000000	-0.000041	-0.000059	0.000073	177.860715	-75.199343	173.402348
07209	9.507393	0.224918	-2.762890	0.260945	0.091654	0.086716	1.000000	-0.000080	-0.000021	0.000072	177.857844	-75.197667	173.398332
07210	9.525203	0.188888	-2.540391	0.038046	0.090360	0.046782	1.000000	-0.000033	-0.000026	0.000043	177.872474	-75.194588	173.379709
07211	9.573192	0.151098	-2.649260	0.123975	0.037778	0.120621	1.000000	-0.000029	0.000004	0.000039	177.859872	-75.195459	173.390682
07212	9.573713	-0.028820	-2.652878	0.100933	-0.140174	0.120325	1.000000	-0.000065	0.000071	0.000046	177.870499	-75.203550	173.372402
07213	9.553882	0.167441	-2.541191	0.029331	0.068941	0.074513	1.000000	-0.000063	0.000072	0.000033	177.849143	-75.206651	173.390202
07214	9.560492	-0.049613	-2.649355	0.099784	-0.161347	0.106414	1.000000	-0.000012	0.000087	0.000030	177.858445	-75.216474	173.379596
07215	9.536652	0.058200	-2.591613	0.067497	-0.047399	0.069659	1.000000	-0.000039	0.000040	0.000030	177.847644	-75.217224	173.384027
07216	9.523887	0.043058	-2.399188	-0.114184	-0.033906	0.008116	1.000000	0.000036	0.000086	0.000020	177.858077	-75.226769	173.377951
07217	9.478466	-0.021677	-2.621242	0.100202	-0.132880	0.020166	1.000000	-0.000017	0.000029	0.000012	177.839848	-75.226686	173.399855
07218	9.476544	0.163876	-2.460056	-0.024768	0.074229	-0.020982	1.000000	-0.000002	0.000034	-0.000013	177.832426	-75.230104	173.407756
07219	9.469928	0.135990	-2.546293	0.054973	0.032816	-0.005673	1.000000	0.000086	0.000022	0.000001	177.820449	-75.229352	173.438773
07220	9.502569	0.168469	-2.669198	0.169172	0.048074	0.057514	1.000000	-0.000048	-0.000009	0.000040	177.831438	-75.228134	173.422282
07221	9.521483	0.221917	-2.427012	-0.059777	0.137069	0.014617	1.000000	0.000033	-0.000006	0.000015	177.821993	-75.223854	173.441562
07222	9.529238	0.177905	-2.688661	0.181505	0.055558	0.088368	1.000000	0.000012	-0.000008	0.000031	177.835809	-75.222646	173.429281
07223	9.562805	0.155678	-2.622590	0.105439	0.044180	0.103783	1.000000	-0.000050	0.000003	0.000055	177.830441	-75.217207	173.436551
07224	9.580915	0.203528	-2.570770	0.058662	0.100373	0.108538	1.000000	0.000003	0.000007	0.000037	177.845505	-75.217628	173.422008
07225	9.572983	0.145639	-2.674945	0.151984	0.027373	0.126865	1.000000	-0.000045	0.000047	0.000039	177.841649	-75.222809	173.422367
07226	9.527998	0.121768	-2.532121	0.024560	0.023782	0.046727	1.000000	-0.000055	0.000082	0.000031	177.846018	-75.231917	173.411987
07227	9.525734	0.122071	-2.564895	0.057143	0.018703	0.052888	1.000000	-0.000022	0.000088	0.000047	177.842811	-75.236268	173.414322
07228	9.517649	0.040086	-2.495116	-0.017997	-0.052031	0.026510	1.000000	-0.000039	0.000103	0.000026	177.846579	-75.247644	173.406495
07229	9.508139	0.048319	-2.440204	-0.065135	-0.036671	0.003424	1.000000	-0.000041	0.000102	0.000039	177.839146	-75.257836	173.414410
07230	9.483174	0.066774	-2.401286	-0.091387	-0.013179	-0.030423	1.000000	-0.000021	0.000089	0.000034	177.848838	-75.267737	173.402695
07231	9.496289	0.056904	-2.418281	-0.079638	-0.025516	-0.013512	1.000000	-0.000002	0.000074	0.000011	177.835637	-75.268830	173.416460
07232	9.509245	0.107042	-2.434262	-0.059055	0.021982	0.003567	1.000000	-0.000029	0.000039	0.000013	177.835783	-75.272779	173.413600
07233	9.512088	0.106166	-2.399188	-0.094918	0.025741	-0.002615	1.000000	0.000004	0.000030	-0.000004	177.815014	-75.263897	173.435275
07234	9.547617	0.138218	-2.487467	-0.014523	0.045360	0.054497	1.000000	-0.000002	-0.000001	0.000013	177.819144	-75.263106	173.431557
07235	9.533469	0.177968	-2.485651	-0.008524	0.083986	0.040740	1.000000	0.000009	-0.000027	-0.000008	177.798701	-75.251276	173.458239
07236	9.529356	0.209255	-2.536823	0.045666	0.107097	0.050088	1.000000	-0.000003	-0.000005	-0.000005	177.794599	-75.249928	173.462887
07237	9.585621	0.169592	-2.542084	0.030112	0.067871	0.105456	1.000000	-0.000029	0.000014	0.000009	177.775350	-75.249529	173.489087
07238	9.568828	0.269855	-2.572932	0.078804	0.162077	0.098054	1.000000	-0.000015	-0.000017	0.000023	177.782502	-75.246857	173.480796
07239	9.533368	0.237505	-2.484417	-0.002106	0.141618	0.040931	1.000000	-0.000000	0.000012	0.000002	177.764410	-75.246543	173.505466
07240	9.498712	0.169614	-2.569677	0.078151	0.060994	0.028437	1.000000	-0.000064	0.000022	0.000039	177.771977	-75.248373	173.490967
07241	9.555676	0.254162	-2.380874	-0.104453	0.174132	0.036317	1.000000	-0.000024	0.000034	0.000035	177.770273	-75.246041	173.482616
07242	9.488990	0.177157	-2.515564	0.030081	0.076571	0.005337	1.000000	-0.000009	0.000029	0.000039	177.784258	-75.248645	173.467893
07243	9.519954	0.155628	-2.483193	-0.012746	0.060799	0.026832	1.000000	-0.000023	0.000038	0.000053	177.779904	-75.244528	173.473418
07244	9.504638	0.224906	-2.497273	0.015274	0.127513	0.016280	1.000000	-0.000010	-0.000009	0.000047	177.797709	-75.242695	173.454681
07245	9.476607	0.124333	-2.497460	0.005671	0.027100	-0.011765	1.000000	-0.000003	0.000026	0.000048	177.789977	-75.234787	173.471605
07246	9.477996	0.152876	-2.479321	-0.007589	0.058862	-0.014764	1.000000	0.000001	-0.000007	0.000048	177.809447	-75.233108	173.452560
07247	9.507466	0.161561	-2.463977	-0.029219	0.070711	0.009906	1.000000	-0.000002	0.000013	0.000047	177.809612	-75.229407	173.453069
07248	9.573183	0.107171	-2.712766	0.183747	-0.017230	0.136301	1.000000	-0.000002	0.000001	0.000045	177.826967	-75.228556	173.435802
07249	9.502824	0.226618	-2.340497	-0.136910	0.153663	-0.025421	1.000000	0.000011	0.000004	0.000033	177.817290	-75.224765	173.457888
07250	9.571931	0.076293	-2.730478	0.195723	-0.050078	0.139316	1.000000	-0.000029	0.000016	0.000041	177.829388	-75.225633	173.442943
07251	9.571359	0.170700	-2.554335	0.040933	0.069269	0.094795	1.000000	-0.000008	0.000032	0.000058	177.831488	-75.221824	173.441707
07252	9.531939	0.228827	-2.514999	0.022119	0.132027	0.047207	1.000000	-0.000015	-0.000017	0.000023	177.838178	-75.218710	173.434051
07253	9.550705	0.121845	-2.640345	0.120295	0.007894	0.096283	1.000000	0.000016	0.000022	0.000027	177.829658	-75.216931	173.450170
07254	9.461751	0.247476	-2.508913	0.036126	0.149546	-0.022031	1.000000	-0.000002	-0.000011	0.000043	177.846228	-75.214516	173.433859
07255	9.515354	0.147962	-2.549845	0.045829	0.046738	0.039281	1.000000	-0.000035	0.000048	0.000054	177.845348	-75.212839	173.427576
07256	9.473422	0.147158	-2.545784	0.053159	0.045873	-0.002312	1.000000	0.000007	0.000037	0.000033	177.857736	-75.215858	173.416637
07257	9.513120	0.207146	-2.581449	0.085176	0.100769	0.045752	1.000000	-0.000042	0.000013	0.000053	177.849854	-75.208764	173.426727
07258	9.515792	0.085918	-2.549656	0.036184	-0.013652	0.039060	1.000000	0.000002	0.000031	0.000041	177.865039	-75.211084	173.412356
07259	9.507210	0.122991	-2.478276	-0.024924	0.033672	0.012905	1.000000	-0.000001	0.000016	0.000065	177.876892	-75.206169	173.392167
07260	9.542870	0.094110	-2.567789	0.047676	-0.006013	0.069947	1.000000	-0.000013	0.000039	0.000067	177.901869	-75.209410	173.365823
07261	9.531754	0.132097	-2.530415	0.020866	0.036938	0.050019	1.000000	-0.000001	0.000051	0.000039	177.901587	-75.212010	173.366904
07262	9.558754	0.081845	-2.550039	0.026109	-0.014187	0.080658	1.000000	-0.000020	0.000054	0.000060	177.922441	-75.217002	173.343996
07263	9.574371	0.070489	-2.533224	0.004831	-0.022743	0.091364	1.000000	0.000022	0.000044	0.000039	177.915114	-75.219126	173.369465
07264	9.551802	0.087879	-2.460846	-0.055248	0.005018	0.051254	1.000000	-0.000013	0.000049	0.000038	177.926883	-75.223391	173.356865
07265	9.532690	0.069097	-2.528214	0.010777	-0.024813	0.049771	1.000000	0.000004	0.000045	0.000029	177.907845	-75.221384	173.396654
07266	9.518938	0.108353	-2.525249	0.018020	0.014405	0.036083	1.000000	-0.000005	0.000047	0.000033	177.918595	-75.225328	173.386223
07267	9.523037	0.076539	-2.473612	-0.036693	-0.009583	0.026591	1.000000	-0.000004	0.000035	0.000032	177.913450	-75.227364	173.395620
07268	9.540029	0.155067	-2.437569	-0.063230	0.073975	0.034570	1.000000	-0.000012	0.000035	0.000004	177.910752	-75.229781	173.398208
07269	9.511918	0.114895	-2.436192	-0.066230	0.032999	0.006648	1.000000	-0.000008	-0.000008	0.000034	177.896103	-75.211567	173.421488
07270	9.518184	0.137087	-2.539872	0.034468	0.040150	0.039356	1.000000	-0.000034	0.000021	0.000018	177.897237	-75.212304	173.417633
07271	9.511975	0.114179	-2.436002	-0.068323	0.032503	0.006635	1.000000	-0.000003	-0.000015	0.000024	177.893675	-75.200566	173.418911
07272	9.533522	0.126022	-2.524056	0.011723	0.032153	0.050051	1.000000	-0.000030	0.000001	0.000020	177.896341	-75.198915	173.413875
07273	9.508107	0.144826	-2.486869	-0.015444	0.054925	0.016165	1.000000	-0.000022	0.000011	0.000018	177.881344	-75.194648	173.434918
07274	9.529758	0.156609	-2.574546	0.064588	0.054586	0.059594	1.000000	-0.000020	0.000014	0.000036	177.891795	-75.194567	173.423000
07275	9.555292	0.137105	-2.611327	0.088576	0.030235	0.093506	1.000000	-0.000019	0.000015	0.000023	177.875033	-75.184723	173.450110
07276	9.519866	0.164221	-2.520859	0.015375	0.069697	0.036396	1.000000	-0.000018	0.000031	0.000044	177.888535	-75.186498	173.435423
07277	9.531427	0.124725	-2.556617	0.039688	0.025561	0.056341	1.000000	-0.000023	0.000048	0.000023	177.877334	-75.181618	173.445581
07278	9.520292	0.163231	-2.519312	0.013144	0.069035	0.036404	1.000000	-0.000004	0.000035	0.000032	177.887097	-75.183663	173.436332
07279	9.534471	0.122917	-2.520622	0.003798	0.029161	0.050067	1.000000	-0.000023	0.000048	0.000023	177.876249	-75.178927	173.446025
07280	9.519396	0.132926	-2.535546	0.024053	0.036593	0.039401	1.000000	0.000000	0.000053	0.000026	177.883642	-75.182928	173.439774
07281	9.536300	0.151448	-2.500961	-0.012267	0.060181	0.047078	1.000000	-0.000024	0.000022	0.000033	177.872581	-75.171206	173.454109
07282	9.491640	0.151905	-2.531806	0.028691	0.055110	0.011797	1.000000	-0.000007	0.000018	0.000024	177.879055	-75.171088	173.447932
07283	9.508438	0.170532	-2.497614	-0.005195	0.078818	0.019469	1.000000	-0.000019	0.000015	0.000023	177.873729	-75.172707	173.455601
07284	9.520012	0.190964	-2.532348	0.027999	0.094517	0.039731	1.000000	-0.000015	0.000008	0.000027	177.880463	-75.171453	173.448202
07285	9.505901	0.170564	-2.531851	0.027031	0.073760	0.025775	1.000000	0.000008	-0.000012	0.000026	177.873340	-75.164512	173.461050
07286	9.505898	0.170083	-2.531896	0.026626	0.073671	0.025777	1.000000	-0.000015	0.000008	0.000027	177.880005	-75.163223	173.453755
07287	9.504747	0.199917	-2.548110	0.046613	0.100425	0.029100	1.000000	-0.000020	0.000014	0.000036	177.873533	-75.162380	173.462968
07288	9.545786	0.229736	-2.567433	0.059053	0.128617	0.073995	1.000000	0.000001	0.000016	0.000020	177.879052	-75.161978	173.458856
07289	9.548522	0.228340	-2.532537	0.024157	0.132350	0.067700	1.000000	-0.000004	0.000035	0.000032	177.877330	-75.159356	173.458894
07290	9.532010	0.208493	-2.565755	0.057523	0.108005	0.060043	1.000000	-0.000016	0.000034	0.000062	177.898624	-75.161226	173.436392
07291	9.492655	0.206669	-2.527418	0.030430	0.111010	0.012169	1.000000	0.000002	0.000044	0.000042	177.902288	-75.160224	173.429487
07292	9.533728	0.176256	-2.547553	0.035449	0.079855	0.056732	1.000000	-0.000012	0.000065	0.000058	177.921826	-75.165514	173.409299
07293	9.521257	0.184724	-2.528125	0.020894	0.090877	0.039783	1.000000	0.000021	0.000030	0.000051	177.924822	-75.160921	173.413076
07294	9.505915	0.134476	-2.545004	0.033721	0.038979	0.028801	1.000000	-0.000018	0.000031	0.000044	177.937966	-75.162245	173.398831
07295	9.550874	0.132687	-2.512993	-0.008738	0.043225	0.064053	1.000000	-0.000015	0.000048	0.000051	177.938917	-75.162219	173.397164
07296	9.498764	0.140389	-2.456128	-0.048168	0.058410	-0.000804	1.000000	-0.000008	0.000032	0.000058	177.959329	-75.163698	173.376574
07297	9.494956	0.110867	-2.507972	-0.002666	0.021499	0.008511	1.000000	-0.000011	0.000028	0.000053	177.956453	-75.159981	173.385192
07298	9.538394	0.079614	-2.494376	-0.031356	-0.005450	0.046735	1.000000	0.000003	0.000007	0.000037	177.969353	-75.158399	173.373680
07299	9.549781	0.039872	-2.530707	-0.006251	-0.049672	0.066679	1.000000	-0.000022	0.000013	0.000050	177.969999	-75.154217	173.377316
07300	9.548657	0.069624	-2.546974	0.013822	-0.022204	0.070029	1.000000	0.000001	0.000003	0.000018	177.974754	-75.152156	173.374067
07301	9.550130	0.098744	-2.528723	-0.000115	0.008845	0.067044	1.000000	-0.000022	0.000023	0.000020	177.961836	-75.150900	173.394567
07302	9.537486	0.107886	-2.509882	-0.013599	0.020509	0.050080	1.000000	-0.000004	0.000010	0.000028	177.969972	-75.149623	173.387233
07303	9.537598	0.107378	-2.509478	-0.013586	0.020271	0.050080	1.000000	-0.000016	0.000032	0.000030	177.975541	-75.153684	173.373915
07304	9.522448	0.117287	-2.524834	0.006613	0.027728	0.039457	1.000000	-0.000012	0.000024	0.000034	177.985121	-75.154112	173.364014
07305	9.522605	0.116704	-2.524271	0.005767	0.026797	0.039460	1.000000	-0.000004	0.000035	0.000032	177.974453	-75.153965	173.391251
07306	9.536881	0.135852	-2.524315	0.005181	0.046710	0.053443	1.000000	-0.000011	0.000015	0.000051	177.991481	-75.153407	173.373910
07307	9.521740	0.145766	-2.539672	0.024098	0.053640	0.042831	1.000000	-0.000017	0.000041	0.000014	177.975946	-75.148606	173.390355
07308	9.497561	0.134101	-2.485706	-0.022927	0.049485	0.005531	1.000000	0.000008	0.000012	0.000029	177.985810	-75.147546	173.382625
07309	9.511836	0.153408	-2.485756	-0.023216	0.069020	0.019517	1.000000	-0.000033	0.000036	0.000039	177.987170	-75.151409	173.381533
07310	9.496414	0.103387	-2.502768	-0.010345	0.017134	0.008515	1.000000	-0.000022	0.000013	0.000049	178.002345	-75.150532	173.364746
07311	9.510602	0.122603	-2.503158	-0.010240	0.036686	0.022501	1.000000	-0.000012	-0.000000	0.000030	178.004457	-75.152436	173.364756
07312	9.536101	0.103035	-2.540102	0.015379	0.013064	0.056433	1.000000	-0.000024	0.000010	0.000031	178.011546	-75.151149	173.356152
07313	9.520853	0.113085	-2.555877	0.035195	0.020323	0.045826	1.000000	0.000001	0.000003	0.000018	178.010556	-75.146997	173.352915
07314	9.588548	0.093523	-2.595843	0.053042	-0.002620	0.121324	1.000000	-0.000027	0.000018	0.000027	178.015616	-75.146575	173.345968
07315	9.550424	0.121682	-2.540021	0.013202	0.032163	0.070425	1.000000	-0.000004	0.000010	0.000028	178.013890	-75.143849	173.347172
07316	9.519999	0.142282	-2.571311	0.054038	0.047206	0.049215	1.000000	-0.000046	0.000043	0.000021	178.013578	-75.146330	173.343570
07317	9.535458	0.131719	-2.554756	0.032705	0.038753	0.059826	1.000000	-0.000020	0.000024	0.000007	177.991808	-75.145850	173.378244
07318	9.535864	0.191273	-2.552744	0.039540	0.098005	0.060236	1.000000	-0.000007	0.000018	0.000024	177.997767	-75.145418	173.372786
07319	9.493863	0.191015	-2.549018	0.046463	0.096920	0.018684	1.000000	0.000006	0.000046	0.000016	177.993078	-75.146080	173.377563
07320	9.495464	0.219995	-2.530359	0.032810	0.128586	0.015708	1.000000	-0.000004	0.000022	0.000030	178.001661	-75.146164	173.369753
07321	9.512293	0.238375	-2.495995	-0.000033	0.152240	0.023336	1.000000	-0.000012	0.000024	0.000034	178.005184	-75.155333	173.367822
07322	9.526258	0.197748	-2.497745	-0.007931	0.112788	0.036913	1.000000	-0.000002	0.000013	0.000047	178.021334	-75.154515	173.352392
07323	9.507446	0.238915	-2.564106	0.065039	0.142729	0.036102	1.000000	-0.000011	0.000026	0.000021	177.999659	-75.147923	173.393208
07324	9.494515	0.188049	-2.546808	0.044286	0.095021	0.018712	1.000000	-0.000011	0.000015	0.000051	178.016476	-75.147311	173.376173
07325	9.493454	0.217571	-2.563103	0.063833	0.121933	0.022127	1.000000	0.000015	-0.000004	0.000036	178.015888	-75.142249	173.383742
07326	9.532817	0.157869	-2.602120	0.082004	0.058957	0.069638	1.000000	-0.000009	0.000016	0.000038	178.027174	-75.141708	173.372652
07327	9.510017	0.175146	-2.530206	0.021171	0.085578	0.029328	1.000000	-0.000008	0.000032	0.000058	178.024024	-75.140144	173.392371
07328	9.549849	0.174951	-2.567086	0.046583	0.081959	0.077271	1.000000	0.000006	0.000036	0.000046	178.040196	-75.141803	173.378013
07329	9.537001	0.123816	-2.549388	0.027406	0.033299	0.059862	1.000000	-0.000015	0.000048	0.000051	178.038654	-75.154585	173.397963
07330	9.555377	0.171428	-2.496562	-0.020159	0.089066	0.064514	1.000000	0.000004	0.000045	0.000029	178.047226	-75.157296	173.391341
07331	9.512037	0.141319	-2.510519	0.000711	0.056049	0.025929	1.000000	-0.000008	0.000057	0.000061	178.057317	-75.163519	173.379755
07332	9.512320	0.140268	-2.509503	0.000262	0.055929	0.025930	1.000000	-0.000003	0.000050	0.000052	178.074813	-75.166949	173.363093
07333	9.527790	0.128917	-2.492815	-0.022738	0.047929	0.036512	1.000000	-0.000017	0.000031	0.000044	178.076350	-75.157192	173.357680
07334	9.498523	0.118781	-2.507649	-0.002354	0.035430	0.011930	1.000000	0.000002	0.000031	0.000041	178.089832	-75.158325	173.345775
07335	9.501172	0.117050	-2.472732	-0.037035	0.038955	0.005535	1.000000	-0.000006	0.000021	0.000043	178.090968	-75.155449	173.340519
07336	9.514002	0.106708	-2.490935	-0.024468	0.027082	0.022507	1.000000	-0.000014	0.000011	0.000045	178.104894	-75.154248	173.326236
07337	9.511590	0.106846	-2.525033	0.008695	0.022130	0.028907	1.000000	-0.000014	0.000023	0.000047	178.103417	-75.154690	173.338064
07338	9.541119	0.115397	-2.509277	-0.012625	0.034379	0.053487	1.000000	-0.000014	0.000011	0.000045	178.117286	-75.153490	173.323874
07339	9.539725	0.085085	-2.527123	-0.001021	0.001883	0.056454	1.000000	-0.000007	0.000007	0.000054	178.118564	-75.145537	173.335670
07340	9.538292	0.054953	-2.545098	0.011760	-0.029984	0.059421	1.000000	-0.000023	-0.000003	0.000029	178.124488	-75.142695	173.328588
07341	9.535853	0.055352	-2.579291	0.043179	-0.034923	0.065836	1.000000	-0.000001	0.000027	0.000035	178.114640	-75.133336	173.341613
07342	9.509477	0.104285	-2.558138	0.037050	0.016078	0.035331	1.000000	-0.000027	0.000030	0.000029	178.119571	-75.134140	173.335130
07343	9.523414	0.063966	-2.559695	0.028797	-0.023922	0.048861	1.000000	-0.000019	0.000028	0.000025	178.111427	-75.132806	173.345954
07344	9.495600	0.083671	-2.556503	0.035925	-0.004662	0.021326	1.000000	-0.000002	0.000036	0.000019	178.114480	-75.134228	173.344370
07345	9.541897	0.111515	-2.506490	-0.019619	0.031140	0.053486	1.000000	-0.000007	0.000030	0.000026	178.107961	-75.133844	173.360229
07346	9.514069	0.131017	-2.503366	-0.012496	0.050401	0.025952	1.000000	-0.000001	0.000027	0.000035	178.118505	-75.134280	173.351113
07347	9.553905	0.131337	-2.540294	0.012826	0.046320	0.073927	1.000000	-0.000026	0.000031	0.000016	178.107752	-75.135439	173.362504
07348	9.542323	0.110220	-2.504927	-0.021099	0.030299	0.053485	1.000000	-0.000007	0.000018	0.000024	178.113027	-75.134814	173.358092
07349	9.509469	0.131900	-2.570843	0.052145	0.040653	0.038823	1.000000	-0.000005	0.000019	0.000011	178.093137	-75.127681	173.392964
07350	9.512049	0.130838	-2.536076	0.017970	0.044610	0.032391	1.000000	-0.000057	0.000016	0.000016	178.089007	-75.126816	173.392448
07351	9.498370	0.170541	-2.533632	0.025630	0.083521	0.018883	1.000000	-0.000007	0.000018	0.000024	178.088503	-75.131045	173.396236
07352	9.508722	0.161564	-2.586240	0.071841	0.067562	0.042302	1.000000	-0.000019	0.000015	0.000023	178.091881	-75.130138	173.392462
07353	9.542190	0.198969	-2.518007	0.003264	0.115252	0.057471	1.000000	-0.000027	0.000018	0.000027	178.088311	-75.128397	173.391071
07354	9.540858	0.169018	-2.535595	0.016051	0.083389	0.060436	1.000000	-0.000009	0.000029	0.000039	178.099552	-75.129077	173.380288
07355	9.542430	0.197811	-2.517188	0.001236	0.114722	0.057478	1.000000	-0.000004	0.000010	0.000028	178.098167	-75.121724	173.381236
07356	9.555330	0.187833	-2.535134	0.013756	0.102845	0.074464	1.000000	-0.000023	0.000048	0.000023	178.100638	-75.124488	173.377914
07357	9.510866	0.188621	-2.565843	0.055992	0.097569	0.039371	1.000000	-0.000024	0.000022	0.000033	178.099576	-75.131598	173.382425
07358	9.499715	0.227013	-2.528858	0.029176	0.140908	0.019431	1.000000	0.000008	0.000024	0.000031	178.109198	-75.131764	173.375293
07359	9.484182	0.177118	-2.545955	0.042453	0.088672	0.008377	1.000000	-0.000001	0.000027	0.000035	178.111308	-75.133726	173.375861
07360	9.488272	0.204865	-2.492963	-0.005008	0.124340	-0.001028	1.000000	-0.000009	0.000029	0.000039	178.122541	-75.134425	173.365081
07361	9.532076	0.233297	-2.477407	-0.027416	0.156272	0.037555	1.000000	0.000011	0.000029	0.000036	178.127476	-75.130857	173.351781
07362	9.545003	0.222789	-2.495306	-0.014893	0.144392	0.054541	1.000000	0.000004	0.000034	0.000059	178.148636	-75.132232	173.332247
07363	9.528512	0.202935	-2.528630	0.017977	0.119312	0.046985	1.000000	-0.000006	0.000033	0.000045	178.140951	-75.130915	173.355570
07364	9.542913	0.222113	-2.528459	0.017198	0.139156	0.061013	1.000000	-0.000016	0.000032	0.000030	178.147426	-75.131922	173.348958
07365	9.515553	0.151267	-2.510861	-0.003392	0.070822	0.029468	1.000000	-0.000004	-0.000001	0.000058	178.153829	-75.128167	173.351375
07366	9.486665	0.200888	-2.524547	0.024092	0.117766	0.005462	1.000000	-0.000000	0.000014	0.000033	178.163551	-75.127133	173.343218
07367	9.500514	0.160161	-2.526260	0.015897	0.077629	0.018952	1.000000	-0.000011	0.000027	0.000052	178.165653	-75.126112	173.352253
07368	9.515903	0.148659	-2.509687	-0.005253	0.069802	0.029474	1.000000	-0.000011	0.000040	0.000054	178.182783	-75.128067	173.335199
07369	9.528822	0.138047	-2.527593	0.006905	0.057553	0.046464	1.000000	0.000004	0.000022	0.000057	178.193927	-75.126056	173.316073
07370	9.546591	0.125331	-2.476850	-0.047922	0.053782	0.050512	1.000000	-0.000009	0.000018	0.000069	178.217982	-75.125596	173.292067
07371	9.530048	0.105429	-2.510333	-0.014988	0.028874	0.042953	1.000000	-0.000006	0.000033	0.000045	178.213746	-75.124208	173.300318
07372	9.540463	0.095765	-2.562855	0.031197	0.012939	0.066417	1.000000	0.000003	0.000008	0.000069	178.238965	-75.122580	173.276533
07373	9.529734	0.043549	-2.511224	-0.024339	-0.031444	0.042382	1.000000	-0.000017	0.000031	0.000044	178.232756	-75.116298	173.287273
07374	9.511263	0.084652	-2.577547	0.049815	-0.000270	0.041883	1.000000	-0.000002	0.000013	0.000047	178.247765	-75.115076	173.273496
07375	9.512293	0.053502	-2.560885	0.028799	-0.028727	0.038356	1.000000	-0.000009	0.000016	0.000038	178.243037	-75.113723	173.289601
07376	9.499666	0.062390	-2.541964	0.015263	-0.017134	0.021366	1.000000	-0.000009	0.000029	0.000039	178.253924	-75.114271	173.279305
07377	9.543515	0.090816	-2.526294	-0.007378	0.014602	0.059943	1.000000	-0.000012	0.000037	0.000036	178.252377	-75.110988	173.278561
07378	9.529423	0.070129	-2.525293	-0.007587	-0.005518	0.045905	1.000000	0.000004	0.000022	0.000057	178.272570	-75.110788	173.260194
07379	9.556545	0.079642	-2.543772	0.003606	0.002078	0.076936	1.000000	-0.000010	0.000026	0.000021	178.261705	-75.105480	173.275716
07380	9.571803	0.068727	-2.527559	-0.017575	-0.005778	0.087431	1.000000	0.000001	0.000003	0.000018	178.265076	-75.102968	173.274441
07381	9.516040	0.108575	-2.522119	-0.002534	0.032497	0.032455	1.000000	-0.000016	0.000032	0.000030	178.261475	-75.105886	173.281724
07382	9.514686	0.078781	-2.539617	0.010281	0.000640	0.035409	1.000000	-0.000030	0.000025	0.000024	178.263168	-75.105943	173.278418
07383	9.513864	0.109001	-2.555610	0.030862	0.027802	0.038957	1.000000	-0.000028	0.000014	0.000009	178.252453	-75.109481	173.293471
07384	9.501195	0.118392	-2.536835	0.017321	0.039390	0.021965	1.000000	-0.000019	0.000015	0.000023	178.255380	-75.108419	173.290282
07385	9.501323	0.118090	-2.536368	0.018104	0.038762	0.021966	1.000000	-0.000014	0.000033	0.000017	178.248662	-75.117358	173.307199
07386	9.500542	0.147992	-2.552244	0.037908	0.066303	0.025520	1.000000	-0.000017	0.000019	0.000042	178.259682	-75.116777	173.295824
07387	9.545255	0.146057	-2.520429	-0.002913	0.070097	0.060552	1.000000	0.000004	0.000020	0.000026	178.256818	-75.124431	173.310629
07388	9.543554	0.206402	-2.552713	0.037197	0.125334	0.067661	1.000000	-0.000039	0.000028	0.000028	178.259294	-75.124878	173.305564
07389	9.531842	0.185330	-2.517404	0.003438	0.108591	0.047124	1.000000	-0.000005	0.000019	0.000011	178.244633	-75.125226	173.324267
07390	9.526199	0.217503	-2.602244	0.090579	0.128133	0.063689	1.000000	-0.000014	0.000021	0.000015	178.244646	-75.124896	173.324745
07391	9.502661	0.175522	-2.532022	0.024334	0.095926	0.022592	1.000000	-0.000016	0.000032	0.000030	178.250474	-75.131269	173.312030
07392	9.514661	0.195791	-2.566335	0.057166	0.111736	0.043145	1.000000	-0.000012	0.000024	0.000034	178.258632	-75.131403	173.304224
07393	9.531476	0.214016	-2.531866	0.023237	0.134942	0.050701	1.000000	-0.000012	0.000024	0.000034	178.254641	-75.135504	173.319388
07394	9.502215	0.204064	-2.546813	0.043729	0.122563	0.026167	1.000000	-0.000014	0.000035	0.000049	178.268841	-75.136979	173.305125
07395	9.519072	0.222067	-2.512197	0.008530	0.145583	0.033729	1.000000	0.000011	0.000029	0.000036	178.261204	-75.134349	173.322603
07396	9.534413	0.210823	-2.495627	-0.012616	0.137679	0.044214	1.000000	-0.000032	0.000036	0.000039	178.268832	-75.135896	173.313026
07397	9.535436	0.179605	-2.478819	-0.033406	0.109253	0.040651	1.000000	0.000004	0.000010	0.000055	178.275652	-75.134814	173.307669
07398	9.534638	0.209220	-2.494901	-0.013618	0.136799	0.044225	1.000000	-0.000015	0.000020	0.000029	178.281038	-75.134427	173.302426
07399	9.533196	0.179120	-2.512725	-0.000524	0.104316	0.047171	1.000000	0.000001	0.000005	0.000050	178.284114	-75.134043	173.296600
07400	9.518098	0.188831	-2.528518	0.019623	0.111901	0.036695	1.000000	-0.000014	0.000011	0.000045	178.296971	-75.132678	173.283846
07401	9.518232	0.188103	-2.528067	0.020086	0.111036	0.036704	1.000000	0.000007	0.000037	0.000033	178.293218	-75.140422	173.298985
07402	9.491323	0.177077	-2.508773	0.006926	0.102646	0.005659	1.000000	0.000001	0.000005	0.000050	178.309905	-75.138472	173.284070
07403	9.514554	0.157986	-2.579756	0.065985	0.074650	0.046162	1.000000	-0.000022	0.000037	0.000053	178.315340	-75.139455	173.278170
07404	9.534620	0.144427	-2.494545	-0.022496	0.074676	0.043605	1.000000	0.000021	0.000005	0.000047	178.333034	-75.137506	173.264561
07405	9.545064	0.134767	-2.547177	0.023918	0.058379	0.067118	1.000000	-0.000004	0.000024	0.000061	178.344660	-75.139271	173.259519
07406	9.518136	0.123550	-2.527930	0.010769	0.049988	0.036068	1.000000	-0.000002	0.000013	0.000047	178.359290	-75.138211	173.246317
07407	9.518230	0.122597	-2.527620	0.010112	0.049022	0.036074	1.000000	-0.000007	0.000020	0.000056	178.358807	-75.137550	173.255403
07408	9.546247	0.101435	-2.529721	0.002011	0.029356	0.063534	1.000000	-0.000002	0.000025	0.000048	178.373976	-75.137902	173.241655
07409	9.533573	0.110151	-2.510995	-0.013243	0.040559	0.046543	1.000000	-0.000002	0.000001	0.000045	178.375224	-75.125580	173.234256
07410	9.515393	0.061113	-2.562927	0.033716	-0.015207	0.041940	1.000000	-0.000011	0.000015	0.000051	178.390553	-75.124720	173.219362
07411	9.515473	0.060365	-2.562648	0.032694	-0.015921	0.041942	1.000000	-0.000020	0.000014	0.000036	178.384884	-75.121025	173.222255
07412	9.547397	0.067662	-2.512314	-0.022505	0.000050	0.059931	1.000000	-0.000004	0.000024	0.000061	178.405444	-75.121201	173.202719
07413	9.532397	0.077360	-2.527783	-0.001868	0.007301	0.049473	1.000000	-0.000001	0.000026	0.000035	178.408534	-75.124669	173.200042
07414	9.547614	0.066217	-2.511527	-0.023012	-0.000643	0.059929	1.000000	-0.000007	0.000005	0.000023	178.412274	-75.122602	173.197573
07415	9.546832	0.096135	-2.527721	-0.003539	0.026469	0.063542	1.000000	-0.000012	0.000012	0.000032	178.408779	-75.119949	173.199282
07416	9.502334	0.097026	-2.558989	0.037646	0.021897	0.028567	1.000000	-0.000012	0.000012	0.000032	178.415938	-75.118660	173.192668
07417	9.544597	0.096104	-2.561637	0.028884	0.021935	0.070088	1.000000	-0.000007	0.000018	0.000024	178.414450	-75.116719	173.187868
07418	9.489785	0.105611	-2.539810	0.023384	0.033058	0.011577	1.000000	-0.000021	0.000026	0.000038	178.423029	-75.117096	173.178753
07419	9.501854	0.126046	-2.574136	0.055102	0.048503	0.032205	1.000000	-0.000009	0.000027	0.000008	178.408477	-75.111550	173.198211
07420	9.548946	0.123391	-2.507626	-0.020769	0.056678	0.060617	1.000000	-0.000014	0.000033	0.000017	178.408733	-75.112629	173.198495
07421	9.518868	0.144247	-2.538908	0.020194	0.071420	0.039733	1.000000	-0.000016	0.000032	0.000030	178.400337	-75.115098	173.214603
07422	9.516694	0.144769	-2.572628	0.053356	0.067300	0.046291	1.000000	-0.000007	0.000042	0.000028	178.405822	-75.117236	173.210262
07423	9.547852	0.182819	-2.538400	0.017875	0.110399	0.067893	1.000000	-0.000015	0.000020	0.000029	178.396829	-75.114390	173.226387
07424	9.536068	0.161579	-2.502997	-0.015896	0.094220	0.047260	1.000000	-0.000019	0.000040	0.000027	178.400440	-75.116250	173.222630
07425	9.535434	0.191475	-2.518733	0.002967	0.121283	0.050905	1.000000	-0.000012	0.000024	0.000034	178.394669	-75.111762	173.237572
07426	9.521286	0.171219	-2.517745	0.002868	0.101163	0.036831	1.000000	-0.000011	0.000038	0.000023	178.397439	-75.113338	173.235679
07427	9.507899	0.210616	-2.515042	0.009516	0.139915	0.023484	1.000000	-0.000014	0.000023	0.000047	178.398214	-75.113401	173.237152
07428	9.506453	0.180616	-2.532732	0.022439	0.108068	0.026409	1.000000	-0.000007	0.000018	0.000024	178.402367	-75.112675	173.234263
07429	9.550361	0.209066	-2.516981	0.000575	0.139411	0.065008	1.000000	-0.000007	0.000042	0.000028	178.395532	-75.116066	173.246730
07430	9.508351	0.209026	-2.513464	0.008115	0.138822	0.023500	1.000000	-0.000024	0.000022	0.000033	178.401263	-75.115867	173.240243
07431	9.525947	0.196779	-2.462607	-0.047128	0.134378	0.027360	1.000000	-0.000001	0.000026	0.000035	178.401005	-75.114086	173.243551
07432	9.524499	0.166618	-2.480292	-0.034197	0.102530	0.030280	1.000000	-0.000011	0.000015	0.000051	178.416042	-75.113148	173.228990
07433	9.523830	0.196269	-2.496262	-0.014795	0.129767	0.033943	1.000000	-0.000012	0.000024	0.000034	178.415448	-75.111738	173.234932
07434	9.539048	0.184883	-2.479922	-0.035962	0.121775	0.044366	1.000000	-0.000011	0.000015	0.000051	178.430477	-75.110791	173.220366
07435	9.508957	0.205529	-2.511457	0.004388	0.136663	0.023533	1.000000	-0.000010	0.000025	0.000021	178.418826	-75.108777	173.229687
07436	9.507539	0.175617	-2.529003	0.017322	0.104818	0.026454	1.000000	-0.000017	0.000031	0.000044	178.429770	-75.109596	173.218551
07437	9.524321	0.193638	-2.494594	-0.017446	0.127779	0.033964	1.000000	-0.000017	0.000006	0.000040	178.423271	-75.107339	173.232676
07438	9.534842	0.184193	-2.547152	0.028716	0.111963	0.057559	1.000000	0.000021	0.000030	0.000051	178.441690	-75.108061	173.218336
07439	9.508671	0.142647	-2.511440	-0.004122	0.075394	0.022800	1.000000	-0.000002	0.000025	0.000048	178.448192	-75.111215	173.215419
07440	9.534311	0.122579	-2.547934	0.021397	0.051759	0.056808	1.000000	-0.000006	0.000021	0.000043	178.460302	-75.110897	173.204481
07441	9.538315	0.150137	-2.495135	-0.025792	0.086148	0.047313	1.000000	-0.000005	0.000008	0.000041	178.450991	-75.112614	173.227636
07442	9.506634	0.141291	-2.544876	0.028465	0.069967	0.029403	1.000000	-0.000006	0.000021	0.000043	178.463029	-75.112313	173.216821
07443	9.520263	0.100589	-2.546567	0.020651	0.029703	0.042729	1.000000	-0.000012	0.000024	0.000034	178.456737	-75.112045	173.228259
07444	9.534714	0.119594	-2.546568	0.019680	0.049444	0.056824	1.000000	-0.000010	0.000015	0.000051	178.471564	-75.111111	173.213980
07445	9.535545	0.088277	-2.529936	-0.000913	0.020749	0.053140	1.000000	-0.000010	0.000015	0.000051	178.470068	-75.111341	173.235200
07446	9.520539	0.098037	-2.545636	0.019222	0.028403	0.042736	1.000000	-0.000002	0.000013	0.000047	178.484041	-75.110154	173.222817
07447	9.534077	0.057139	-2.547609	0.010958	-0.011672	0.056048	1.000000	-0.000010	0.000003	0.000049	178.487841	-75.104586	173.217917
07448	9.505562	0.107044	-2.561271	0.038244	0.035480	0.032340	1.000000	-0.000009	0.000016	0.000038	178.497133	-75.103748	173.209585
07449	9.535836	0.085099	-2.528947	-0.003822	0.019267	0.053142	1.000000	-0.000012	0.000024	0.000034	178.496501	-75.102523	173.216275
07450	9.533618	0.085513	-2.562992	0.029331	0.015209	0.059750	1.000000	-0.000009	0.000016	0.000038	178.505786	-75.101677	173.207935
07451	9.533728	0.084885	-2.562604	0.027843	0.014750	0.059755	1.000000	-0.000012	0.000024	0.000034	178.504524	-75.096248	173.200620
07452	9.508333	0.103614	-2.525278	0.001290	0.037998	0.025743	1.000000	-0.000007	0.000018	0.000024	178.508339	-75.095482	173.198125
07453	9.522845	0.122894	-2.525077	0.001595	0.057274	0.039846	1.000000	-0.000007	0.000042	0.000028	178.506630	-75.105445	173.201801
07454	9.537372	0.142136	-2.524830	0.000599	0.077004	0.053949	1.000000	-0.000024	0.000022	0.000033	178.512048	-75.105236	173.195672
07455	9.535914	0.112272	-2.542407	0.012742	0.044828	0.056857	1.000000	-0.000015	0.000032	0.000030	178.507444	-75.101471	173.189822
07456	9.510554	0.131087	-2.504933	-0.013805	0.068080	0.022844	1.000000	-0.000010	0.000025	0.000021	178.509222	-75.101610	173.189021
07457	9.537810	0.140845	-2.523248	-0.002482	0.075456	0.053960	1.000000	-0.000019	0.000028	0.000025	178.495776	-75.098447	173.201713
07458	9.498081	0.139961	-2.485435	-0.028542	0.078785	0.005841	1.000000	-0.000019	0.000028	0.000025	178.498307	-75.098829	173.199158
07459	9.508665	0.130912	-2.537832	0.017535	0.062444	0.029479	1.000000	-0.000012	0.000024	0.000034	178.492684	-75.098799	173.209784
07460	9.539891	0.168876	-2.503426	-0.017636	0.105948	0.051067	1.000000	-0.000022	0.000048	0.000023	178.493788	-75.101482	173.208295
07461	9.512265	0.188791	-2.500219	-0.010566	0.124871	0.023685	1.000000	0.000001	0.000028	0.000022	178.486735	-75.101960	173.219837
07462	9.537881	0.169121	-2.536799	0.014937	0.101229	0.057705	1.000000	-0.000015	0.000007	0.000027	178.490606	-75.100038	173.216321
07463	9.512453	0.187851	-2.499577	-0.012646	0.123924	0.023695	1.000000	-0.000012	0.000024	0.000034	178.482551	-75.094441	173.226094
07464	9.523014	0.178720	-2.552121	0.033499	0.108150	0.047345	1.000000	-0.000012	0.000012	0.000032	178.489016	-75.093015	173.220280
07465	9.525424	0.177195	-2.517306	-0.001924	0.111067	0.040717	1.000000	-0.000019	0.000028	0.000025	178.471625	-75.086773	173.241034
07466	9.495469	0.197875	-2.548709	0.038849	0.126615	0.019986	1.000000	-0.000019	0.000029	0.000057	178.487534	-75.087403	173.224637
07467	9.537798	0.196557	-2.551068	0.031150	0.126111	0.061486	1.000000	0.000005	0.000020	0.000026	178.481656	-75.092961	173.229439
07468	9.525836	0.175256	-2.515883	-0.002532	0.109842	0.040731	1.000000	-0.000024	0.000022	0.000033	178.486814	-75.092680	173.223623
07469	9.540357	0.194363	-2.515723	-0.004096	0.129067	0.054854	1.000000	-0.000017	0.000031	0.000043	178.484947	-75.090762	173.225744
07470	9.538880	0.164285	-2.533357	0.008893	0.097226	0.057753	1.000000	-0.000017	0.000018	0.000042	178.494729	-75.090102	173.215920
07471	9.526245	0.173099	-2.514483	-0.004181	0.108328	0.040747	1.000000	-0.000002	0.000025	0.000048	178.500883	-75.093224	173.212507
07472	9.539790	0.132267	-2.516218	-0.011838	0.068605	0.054004	1.000000	-0.000009	0.000016	0.000038	178.509858	-75.092317	173.204500
07473	9.512076	0.151912	-2.513430	-0.005318	0.087495	0.026637	1.000000	-0.000009	0.000016	0.000038	178.505724	-75.088326	173.213419
07474	9.539962	0.130981	-2.515634	-0.013495	0.067679	0.054008	1.000000	-0.000012	0.000012	0.000032	178.512026	-75.086882	173.207794
07475	9.525001	0.140782	-2.531347	0.006779	0.074763	0.043658	1.000000	-0.000001	0.000016	0.000065	178.520671	-75.087336	173.207021
07476	9.525172	0.139758	-2.530762	0.006249	0.074555	0.043660	1.000000	-0.000026	0.000045	0.000049	178.532434	-75.089762	173.194125
07477	9.512581	0.148765	-2.511706	-0.007417	0.085412	0.026654	1.000000	-0.000007	0.000018	0.000024	178.520731	-75.088660	173.207252
07478	9.525440	0.138425	-2.529828	0.005060	0.073480	0.043669	1.000000	0.000001	0.000017	0.000052	178.536890	-75.087894	173.192991
07479	9.523897	0.108263	-2.547644	0.016456	0.041074	0.046566	1.000000	-0.000000	0.000014	0.000033	178.527840	-75.077726	173.201136
07480	9.526283	0.106562	-2.512822	-0.017739	0.044689	0.039895	1.000000	-0.000020	0.000026	0.000038	178.535439	-75.077914	173.193185
07481	9.511377	0.116560	-2.528355	0.002466	0.051809	0.029556	1.000000	-0.000005	0.000021	0.000043	178.534351	-75.078360	173.195882
07482	9.525896	0.135564	-2.528263	0.001389	0.071502	0.043685	1.000000	0.000008	0.000024	0.000031	178.542163	-75.078296	173.191057
07483	9.498867	0.124755	-2.509029	-0.010901	0.062570	0.012547	1.000000	-0.000014	0.000023	0.000047	178.544245	-75.082690	173.204332
07484	9.538870	0.124451	-2.545984	0.014031	0.058818	0.060707	1.000000	-0.000017	0.000006	0.000040	178.553179	-75.080599	173.195423
07485	9.511813	0.113666	-2.526846	0.001108	0.049860	0.029567	1.000000	-0.000017	0.000031	0.000043	178.550883	-75.082102	173.197670
07486	9.524739	0.103411	-2.544696	0.013583	0.037925	0.046583	1.000000	-0.000015	0.000032	0.000030	178.555598	-75.082947	173.193304
07487	9.554298	0.111820	-2.528578	-0.007734	0.049027	0.071055	1.000000	-0.000009	0.000016	0.000038	178.550496	-75.084956	173.207045
07488	9.526657	0.131523	-2.525609	-0.000620	0.068449	0.043707	1.000000	-0.000012	0.000036	0.000036	178.557817	-75.086335	173.200379
07489	9.499669	0.120892	-2.506179	-0.014600	0.059530	0.012561	1.000000	-0.000015	0.000032	0.000030	178.548135	-75.081800	173.222664
07490	9.525391	0.101103	-2.542347	0.010883	0.035878	0.046594	1.000000	-0.000016	0.000044	0.000032	178.553408	-75.084046	173.217718
07491	9.528881	0.159309	-2.505389	-0.016280	0.098333	0.040840	1.000000	-0.000027	0.000030	0.000029	178.545140	-75.088057	173.226224
07492	9.543002	0.088278	-2.490676	-0.043967	0.030742	0.050236	1.000000	-0.000001	0.000026	0.000035	178.553613	-75.088277	173.219756
07493	9.525290	0.130046	-2.556842	0.029533	0.062109	0.050415	1.000000	-0.000014	0.000033	0.000017	178.543201	-75.087374	173.225249
07494	9.529315	0.157754	-2.503836	-0.018240	0.097291	0.040846	1.000000	-0.000022	0.000013	0.000049	178.555432	-75.086059	173.212333
07495	9.527764	0.127845	-2.521617	-0.005298	0.065150	0.043728	1.000000	-0.000002	0.000023	0.000017	178.548583	-75.085413	173.212461
07496	9.527878	0.127457	-2.521206	-0.005833	0.064929	0.043729	1.000000	-0.000015	0.000020	0.000029	178.552547	-75.084838	173.208874
07497	9.530192	0.125936	-2.486529	-0.040660	0.068019	0.037032	1.000000	-0.000007	0.000005	0.000023	178.542606	-75.079226	173.217678
07498	9.514683	0.166701	-2.518510	-0.000461	0.103556	0.030541	1.000000	-0.000019	0.000028	0.000025	178.544530	-75.079527	173.215799
07499	9.542543	0.145802	-2.520661	-0.008071	0.083303	0.057881	1.000000	0.000011	0.000004	0.000033	178.546572	-75.080694	173.204342
07500	9.541423	0.206062	-2.553119	0.031557	0.138728	0.065540	1.000000	-0.000032	0.000012	0.000035	178.551463	-75.079224	173.197820
07501	9.541510	0.205594	-2.552832	0.031161	0.137838	0.065554	1.000000	-0.000007	0.000018	0.000024	178.539918	-75.079802	173.218697
07502	9.529437	0.184193	-2.517716	-0.002452	0.121511	0.044707	1.000000	-0.000005	0.000021	0.000043	178.551097	-75.079382	173.208803
07503	9.501252	0.234172	-2.531034	0.024763	0.168353	0.021224	1.000000	-0.000014	0.000035	0.000049	178.554194	-75.081051	173.205473
07504	9.499771	0.204057	-2.548558	0.037811	0.136518	0.024100	1.000000	-0.000009	0.000029	0.000039	178.563349	-75.081522	173.197266
07505	9.542136	0.202606	-2.550729	0.028732	0.135911	0.065588	1.000000	-0.000006	0.000033	0.000045	178.560697	-75.081285	173.205717
07506	9.527917	0.182115	-2.549694	0.028784	0.115799	0.051443	1.000000	-0.000017	0.000043	0.000045	178.571248	-75.083419	173.195067
07507	9.514761	0.221184	-2.546990	0.035813	0.154510	0.038282	1.000000	-0.000001	0.000016	0.000065	178.579779	-75.086026	173.198900
07508	9.530452	0.179022	-2.514246	-0.005437	0.118493	0.044742	1.000000	-0.000017	0.000031	0.000043	178.589671	-75.086763	173.188956
07509	9.531221	0.147609	-2.497190	-0.027106	0.089908	0.040896	1.000000	-0.000004	0.000048	0.000065	178.595534	-75.083654	173.179991
07510	9.529181	0.147626	-2.531001	0.006012	0.085911	0.047619	1.000000	-0.000019	0.000017	0.000055	178.610199	-75.082841	173.164911
07511	9.514862	0.127014	-2.530296	0.005626	0.065108	0.033472	1.000000	-0.000002	0.000025	0.000048	178.607156	-75.080816	173.173152
07512	9.529419	0.145785	-2.530214	0.004481	0.084760	0.047630	1.000000	-0.000010	0.000015	0.000051	178.620974	-75.079734	173.159944
07513	9.514515	0.155686	-2.545967	0.025093	0.091780	0.037345	1.000000	-0.000014	0.000011	0.000045	178.617414	-75.081618	173.176727
07514	9.487422	0.144892	-2.526834	0.012169	0.083388	0.006170	1.000000	-0.000017	0.000031	0.000043	178.627186	-75.082333	173.166924
07515	9.542512	0.133525	-2.547564	0.016235	0.070848	0.064668	1.000000	-0.000001	0.000016	0.000065	178.630349	-75.081292	173.175781
07516	9.502162	0.162359	-2.526172	0.010347	0.102024	0.020343	1.000000	-0.000012	0.000038	0.000067	178.650810	-75.082928	173.155496
07517	9.545027	0.130119	-2.512100	-0.018866	0.073603	0.057943	1.000000	-0.000010	0.000015	0.000051	178.651908	-75.080055	173.150651
07518	9.542938	0.130273	-2.546136	0.014251	0.069623	0.064680	1.000000	0.000009	0.000027	0.000050	178.667300	-75.080386	173.138182
07519	9.515879	0.119205	-2.526847	0.001641	0.060527	0.033503	1.000000	0.000013	0.000032	0.000055	178.670358	-75.083549	173.148356
07520	9.486601	0.109334	-2.542040	0.022390	0.048398	0.009058	1.000000	-0.000014	0.000023	0.000047	178.682018	-75.083369	173.137022
07521	9.541740	0.098077	-2.562549	0.026820	0.036092	0.067549	1.000000	-0.000006	0.000045	0.000047	178.683080	-75.087549	173.137217
07522	9.518136	0.145803	-2.506730	-0.013355	0.090881	0.030657	1.000000	-0.000011	0.000039	0.000054	178.698018	-75.089303	173.122857
07523	9.503864	0.125116	-2.505763	-0.013948	0.070313	0.016494	1.000000	-0.000007	0.000032	0.000058	178.702805	-75.086451	173.118130
07524	9.516835	0.114517	-2.523463	-0.001486	0.058355	0.033516	1.000000	-0.000026	0.000045	0.000049	178.713869	-75.088820	173.106002
07525	9.517033	0.113500	-2.522763	-0.001992	0.057516	0.033521	1.000000	-0.000021	0.000028	0.000070	178.720988	-75.089884	173.097016
07526	9.529865	0.102883	-2.540984	0.010470	0.045556	0.050544	1.000000	0.000003	-0.000006	0.000035	178.729668	-75.086357	173.090750
07527	9.545374	0.060934	-2.508428	-0.030191	0.008767	0.056917	1.000000	-0.000025	0.000033	0.000048	178.726132	-75.090956	173.101765
07528	9.501142	0.062154	-2.539618	0.011231	0.004651	0.022203	1.000000	-0.000012	0.000024	0.000034	178.732233	-75.090895	173.096387
07529	9.557479	0.110959	-2.558376	0.022375	0.051534	0.081748	1.000000	-0.000027	0.000030	0.000029	178.719000	-75.095687	173.125747
07530	9.515915	0.080870	-2.538816	0.010147	0.023270	0.036380	1.000000	-0.000007	0.000030	0.000026	178.722262	-75.096277	173.123915
07531	9.515613	0.110666	-2.554507	0.031156	0.050398	0.040288	1.000000	-0.000006	0.000033	0.000045	178.726505	-75.106584	173.121670
07532	9.532923	0.098180	-2.503382	-0.023677	0.045844	0.043809	1.000000	-0.000030	0.000038	0.000026	178.726710	-75.108102	173.120248
07533	9.574835	0.127402	-2.521692	-0.012875	0.073017	0.089187	1.000000	-0.000015	0.000032	0.000030	178.716542	-75.107360	173.134855
07534	9.520048	0.137326	-2.499940	-0.018107	0.084349	0.030708	1.000000	-0.000004	0.000034	0.000032	178.722417	-75.108497	173.130704
07535	9.547905	0.116324	-2.501818	-0.026269	0.063936	0.057993	1.000000	-0.000024	0.000022	0.000033	178.716849	-75.108550	173.131181
07536	9.519856	0.166738	-2.515286	0.000832	0.111299	0.034634	1.000000	-0.000015	0.000020	0.000029	178.720200	-75.108019	173.128273
07537	9.492685	0.156407	-2.496293	-0.012220	0.102264	0.003442	1.000000	-0.000022	0.000011	0.000018	178.703227	-75.105804	173.142165
07538	9.505107	0.176857	-2.530632	0.020239	0.118177	0.024389	1.000000	0.000001	0.000028	0.000022	178.705590	-75.106163	173.142244
07539	9.507374	0.175017	-2.495862	-0.014186	0.121179	0.017635	1.000000	-0.000007	0.000007	0.000054	178.710328	-75.103133	173.135230
07540	9.524116	0.192663	-2.461421	-0.049044	0.144482	0.025057	1.000000	-0.000025	0.000021	0.000046	178.719873	-75.102735	173.124717
07541	9.534364	0.214102	-2.530281	0.017214	0.156165	0.052787	1.000000	-0.000013	0.000009	0.000014	178.705466	-75.102166	173.139666
07542	9.535356	0.152581	-2.497337	-0.023277	0.100146	0.044920	1.000000	-0.000007	0.000032	0.000058	178.722146	-75.103064	173.123903
07543	9.522275	0.191886	-2.494773	-0.016951	0.138670	0.031850	1.000000	-0.000012	0.000012	0.000032	178.708593	-75.101635	173.145387
07544	9.520630	0.161962	-2.512666	-0.003800	0.106841	0.034682	1.000000	-0.000009	0.000016	0.000038	178.716459	-75.100724	173.138597
07545	9.490870	0.182901	-2.544386	0.036540	0.121967	0.014202	1.000000	-0.000009	0.000016	0.000038	178.707589	-75.097894	173.157559
07546	9.504186	0.142140	-2.546128	0.029047	0.082104	0.027279	1.000000	-0.000020	0.000026	0.000038	178.714210	-75.098126	173.150684
07547	9.506016	0.170643	-2.527643	0.013644	0.112906	0.024462	1.000000	-0.000007	0.000007	0.000054	178.714751	-75.089864	173.164242
07548	9.518895	0.159983	-2.545719	0.026111	0.100936	0.041488	1.000000	-0.000019	0.000029	0.000057	178.729435	-75.090470	173.149196
07549	9.535709	0.177654	-2.511003	-0.008902	0.123518	0.048910	1.000000	-0.000000	0.000026	0.000035	178.721484	-75.090410	173.155722
07550	9.546861	0.137838	-2.547181	0.017264	0.079977	0.068760	1.000000	0.000001	0.000017	0.000052	178.736528	-75.089605	173.142675
07551	9.547002	0.136926	-2.546704	0.016661	0.079028	0.068769	1.000000	-0.000005	0.000033	0.000045	178.731918	-75.090719	173.152252
07552	9.504967	0.136919	-2.543494	0.024479	0.078688	0.027319	1.000000	-0.000002	0.000025	0.000048	178.744927	-75.090806	173.140923
07553	9.532389	0.145964	-2.561695	0.036837	0.086080	0.058546	1.000000	-0.000002	0.000025	0.000048	178.748784	-75.094695	173.138476
07554	9.505202	0.135060	-2.542715	0.024008	0.077689	0.027328	1.000000	-0.000007	0.000007	0.000054	178.763917	-75.092750	173.124360
07555	9.490814	0.114607	-2.542028	0.022991	0.056951	0.013136	1.000000	-0.000020	0.000038	0.000040	178.753549	-75.087911	173.138871
07556	9.507616	0.132143	-2.507344	-0.011914	0.080186	0.020543	1.000000	0.000028	0.000014	0.000058	178.774194	-75.086714	173.123159
07557	9.478351	0.122316	-2.522558	0.008959	0.067603	-0.003878	1.000000	-0.000025	0.000045	0.000049	178.772708	-75.089679	173.119846
07558	9.533862	0.080398	-2.526761	-0.006883	0.027778	0.050613	1.000000	0.000001	0.000017	0.000052	178.787624	-75.088860	173.106923
07559	9.519092	0.090195	-2.542321	0.012577	0.035084	0.040396	1.000000	-0.000007	0.000031	0.000058	178.791113	-75.086242	173.103670
07560	9.550830	0.096998	-2.491455	-0.042989	0.050243	0.058014	1.000000	-0.000012	0.000036	0.000036	178.797364	-75.087574	173.098133
07561	9.506293	0.128767	-2.538963	0.018792	0.073568	0.027371	1.000000	-0.000014	0.000023	0.000047	178.795601	-75.089918	173.103687
07562	9.534471	0.077110	-2.524564	-0.009328	0.025602	0.050617	1.000000	0.000005	0.000032	0.000028	178.800227	-75.090742	173.101804
07563	9.489932	0.108925	-2.572120	0.051725	0.049204	0.019982	1.000000	-0.000014	0.000023	0.000047	178.802658	-75.088554	173.083232
07564	9.521616	0.115813	-2.521428	-0.003844	0.064360	0.037593	1.000000	-0.000000	0.000026	0.000035	178.810062	-75.088734	173.077859
07565	9.507298	0.095579	-2.520398	-0.002996	0.043700	0.023386	1.000000	-0.000015	0.000056	0.000034	178.804293	-75.096628	173.091753
07566	9.536943	0.103718	-2.503800	-0.024917	0.055192	0.047809	1.000000	-0.000009	0.000028	0.000039	178.812479	-75.097081	173.084585
07567	9.498799	0.132123	-2.447942	-0.064166	0.089682	-0.003258	1.000000	-0.000012	0.000036	0.000036	178.810243	-75.100247	173.080016
07568	9.522400	0.113350	-2.518580	-0.005063	0.062321	0.037606	1.000000	-0.000007	0.000030	0.000026	178.812966	-75.100827	173.078689
07569	9.537101	0.132478	-2.518226	-0.007031	0.081138	0.051829	1.000000	-0.000015	0.000032	0.000030	178.797809	-75.098181	173.098904
07570	9.524491	0.141685	-2.499224	-0.020565	0.092587	0.034806	1.000000	-0.000007	0.000030	0.000026	178.800483	-75.098748	173.097641
07571	9.524919	0.110537	-2.482651	-0.041164	0.063862	0.030792	1.000000	0.000010	0.000003	0.000046	178.801199	-75.095772	173.093574
07572	9.508041	0.121787	-2.532755	0.012603	0.068028	0.027421	1.000000	-0.000032	0.000036	0.000039	178.806241	-75.097110	173.086899
07573	9.510304	0.120334	-2.497728	-0.021602	0.071036	0.020597	1.000000	-0.000020	0.000024	0.000006	178.790748	-75.097147	173.099036
07574	9.524975	0.139636	-2.497493	-0.022882	0.090593	0.034819	1.000000	-0.000012	0.000024	0.000034	178.796174	-75.097076	173.094307
07575	9.537898	0.129399	-2.515366	-0.011019	0.078028	0.051850	1.000000	-0.000015	0.000032	0.000030	178.785353	-75.094963	173.113019
07576	9.565065	0.169265	-2.549651	0.020589	0.113777	0.087134	1.000000	-0.000015	0.000032	0.000030	178.788751	-75.095774	173.109991
07577	9.552745	0.147913	-2.514519	-0.012894	0.096808	0.066082	1.000000	-0.000009	0.000016	0.000038	178.784891	-75.094915	173.114356
07578	9.538005	0.158058	-2.530104	0.007220	0.104624	0.055897	1.000000	-0.000017	0.000031	0.000043	178.793714	-75.095605	173.105498
07579	9.538093	0.157428	-2.529813	0.006686	0.103729	0.055907	1.000000	-0.000012	-0.000001	0.000030	178.783885	-75.093177	173.113871
07580	9.537867	0.187255	-2.545779	0.026046	0.131372	0.059953	1.000000	-0.000017	0.000031	0.000043	178.792676	-75.093868	173.105048
07581	9.483650	0.136281	-2.491815	-0.018178	0.086181	-0.006589	1.000000	-0.000009	0.000016	0.000038	178.783966	-75.097429	173.112570
07582	9.536610	0.126183	-2.546992	0.019492	0.070547	0.058719	1.000000	-0.000012	0.000012	0.000032	178.788598	-75.095954	173.108673
07583	9.511115	0.144962	-2.510003	-0.008230	0.093036	0.024676	1.000000	-0.000017	0.000006	0.000040	178.777332	-75.087323	173.119327
07584	9.538504	0.154250	-2.528456	0.003449	0.100850	0.055938	1.000000	-0.000012	0.000012	0.000032	178.781913	-75.085825	173.115485
07585	9.551366	0.143922	-2.546573	0.015178	0.088108	0.072976	1.000000	-0.000017	0.000018	0.000042	178.771589	-75.081496	173.123670
07586	9.540504	0.182123	-2.509557	-0.012102	0.131101	0.053159	1.000000	-0.000022	0.000025	0.000051	178.783024	-75.081530	173.111546
07587	9.523955	0.162891	-2.543465	0.021842	0.106870	0.045790	1.000000	-0.000005	0.000008	0.000041	178.781077	-75.080411	173.109686
07588	9.538847	0.151222	-2.527346	0.000631	0.098481	0.055963	1.000000	-0.000002	0.000000	0.000045	178.792222	-75.077628	173.100220
07589	9.494386	0.182961	-2.575120	0.061296	0.121776	0.025478	1.000000	0.000006	0.000035	0.000046	178.785709	-75.074869	173.111570
07590	9.526368	0.159161	-2.507936	-0.014224	0.108893	0.038947	1.000000	-0.000014	0.000035	0.000049	178.796937	-75.076039	173.100634
07591	9.524165	0.189969	-2.558100	0.037872	0.132345	0.049905	1.000000	-0.000005	0.000020	0.000043	178.791542	-75.070761	173.102522
07592	9.526921	0.126781	-2.490747	-0.036101	0.079827	0.034873	1.000000	-0.000006	0.000022	0.000075	178.814802	-75.070517	173.080093
07593	9.513993	0.165754	-2.488219	-0.030407	0.118553	0.021934	1.000000	0.000001	0.000017	0.000052	178.812968	-75.066293	173.089598
07594	9.541691	0.144011	-2.490349	-0.038651	0.098415	0.049121	1.000000	0.000003	0.000008	0.000069	178.834718	-75.064369	173.069723
07595	9.525065	0.124444	-2.524538	-0.005564	0.074169	0.041759	1.000000	-0.000015	-0.000003	0.000056	178.835246	-75.057003	173.069564
07596	9.510461	0.103944	-2.524449	-0.005332	0.054068	0.027514	1.000000	-0.000010	-0.000010	0.000047	178.846334	-75.053009	173.059170
07597	9.523252	0.093358	-2.542804	0.006950	0.041417	0.044550	1.000000	-0.000010	0.000015	0.000051	178.844253	-75.051444	173.054309
07598	9.523561	0.062144	-2.526376	-0.013484	0.013196	0.040448	1.000000	-0.000028	0.000004	0.000039	178.849474	-75.048981	173.047829
07599	9.535854	0.112587	-2.577191	0.038760	0.056285	0.065695	1.000000	0.000001	0.000005	0.000050	178.846447	-75.047630	173.057490
07600	9.550770	0.100940	-2.560899	0.017535	0.047866	0.075841	1.000000	-0.000004	0.000022	0.000030	178.850588	-75.047211	173.055077
07601	9.550899	0.100328	-2.560440	0.017352	0.046838	0.075846	1.000000	-0.000000	0.000026	0.000035	178.841963	-75.049978	173.064993
07602	9.523677	0.089679	-2.541343	0.004622	0.038473	0.044563	1.000000	-0.000002	0.000025	0.000048	178.854151	-75.049956	173.054441
07603	9.523559	0.119431	-2.557167	0.023900	0.065535	0.048685	1.000000	0.000005	0.000020	0.000026	178.844325	-75.049553	173.075458
07604	9.540344	0.137229	-2.522490	-0.011099	0.088640	0.056050	1.000000	-0.000000	0.000026	0.000035	178.851054	-75.049655	173.070759
07605	9.496506	0.108080	-2.537462	0.009884	0.056480	0.017406	1.000000	0.000013	0.000044	0.000057	178.857490	-75.047746	173.058483
07606	9.494369	0.138877	-2.587629	0.062828	0.080523	0.028436	1.000000	-0.000012	0.000012	0.000032	178.861663	-75.046172	173.055043
07607	9.486287	0.084660	-2.467441	-0.057400	0.042614	-0.010649	1.000000	-0.000017	0.000031	0.000043	178.855724	-75.048970	173.062365
07608	9.511760	0.094948	-2.519905	-0.012156	0.046782	0.027545	1.000000	-0.000017	0.000031	0.000043	178.863984	-75.049580	173.054096
07609	9.482491	0.085708	-2.535176	0.008845	0.034213	0.003160	1.000000	-0.000027	0.000030	0.000029	178.851346	-75.050934	173.067215
07610	9.526861	0.082942	-2.502843	-0.033859	0.037423	0.037675	1.000000	-0.000028	0.000016	0.000040	178.857041	-75.049884	173.060235
07611	9.556433	0.091075	-2.486457	-0.055933	0.048245	0.062064	1.000000	-0.000018	0.000040	0.000027	178.846138	-75.051715	173.077962
07612	9.554789	0.061296	-2.503933	-0.042699	0.016409	0.064830	1.000000	-0.000032	0.000036	0.000039	178.850498	-75.052967	173.071959
07613	9.525295	0.082611	-2.535512	-0.001255	0.031852	0.044588	1.000000	-0.000007	0.000017	0.000024	178.841136	-75.056272	173.082917
07614	9.540057	0.101867	-2.535143	-0.002631	0.051344	0.058856	1.000000	-0.000017	0.000041	0.000014	178.836474	-75.058040	173.088028
07615	9.525441	0.112518	-2.550460	0.017817	0.058533	0.048742	1.000000	-0.000002	0.000035	0.000019	178.821643	-75.061625	173.113250
07616	9.512859	0.121875	-2.531367	0.004291	0.069965	0.031714	1.000000	-0.000010	0.000038	0.000023	178.821586	-75.063017	173.114379
07617	9.527847	0.110660	-2.514663	-0.017025	0.061000	0.041836	1.000000	-0.000005	0.000031	0.000013	178.806573	-75.063404	173.127494
07618	9.516878	0.179762	-2.493691	-0.024516	0.131911	0.026204	1.000000	-0.000015	0.000032	0.000030	178.809269	-75.064159	173.125172
07619	9.531837	0.168423	-2.477092	-0.045741	0.122903	0.036326	1.000000	-0.000010	0.000025	0.000021	178.796263	-75.064437	173.132864
07620	9.529945	0.169231	-2.511033	-0.012661	0.119019	0.043248	1.000000	0.000001	0.000027	0.000022	178.797349	-75.064676	173.134170
07621	9.532131	0.167568	-2.476019	-0.047643	0.121683	0.036332	1.000000	-0.000015	0.000032	0.000030	178.784266	-75.061240	173.144002
07622	9.530056	0.198632	-2.526216	0.005267	0.145752	0.047430	1.000000	-0.000017	0.000018	0.000042	178.791663	-75.060451	173.136605
07623	9.530153	0.197983	-2.525903	0.003907	0.145085	0.047441	1.000000	-0.000020	0.000014	0.000036	178.786151	-75.054692	173.135801
07624	9.504665	0.216795	-2.488920	-0.022581	0.168261	0.013378	1.000000	-0.000017	0.000006	0.000040	178.792857	-75.052481	173.129100
07625	9.543051	0.186897	-2.543937	0.016088	0.132044	0.064493	1.000000	-0.000014	0.000010	0.000045	178.787871	-75.053220	173.131848
07626	9.517752	0.175296	-2.490672	-0.030228	0.127269	0.026249	1.000000	-0.000018	0.000015	0.000023	178.787128	-75.052034	173.132674
07627	9.517844	0.174505	-2.490376	-0.030012	0.126327	0.026262	1.000000	-0.000000	0.000016	0.000065	178.794222	-75.055853	173.120381
07628	9.503363	0.154053	-2.489705	-0.029727	0.106233	0.011981	1.000000	-0.000032	0.000036	0.000039	178.798357	-75.057117	173.114571
07629	9.501434	0.154349	-2.523869	0.003262	0.101564	0.018928	1.000000	0.000011	-0.000007	0.000063	178.800265	-75.053595	173.118439
07630	9.530910	0.162085	-2.507843	-0.018814	0.112856	0.043310	1.000000	-0.000023	0.000022	0.000033	178.802897	-75.053194	173.115185
07631	9.514536	0.112627	-2.525486	-0.005249	0.060596	0.031776	1.000000	-0.000005	0.000020	0.000043	178.796207	-75.050040	173.128369
07632	9.514629	0.111795	-2.525172	-0.005806	0.060282	0.031777	1.000000	-0.000002	0.000013	0.000046	178.807288	-75.048607	173.118909
07633	9.483291	0.103527	-2.575170	0.048638	0.044316	0.014351	1.000000	0.000006	0.000023	0.000044	178.806845	-75.047703	173.114503
07634	9.527639	0.100402	-2.542745	0.005880	0.047417	0.048816	1.000000	-0.000009	0.000028	0.000039	178.813934	-75.048055	173.108378
07635	9.542407	0.119329	-2.542456	0.004707	0.066200	0.063114	1.000000	0.000005	0.000020	0.000026	178.802271	-75.049209	173.117495
07636	9.542428	0.149298	-2.558095	0.023966	0.093840	0.067327	1.000000	-0.000007	0.000042	0.000028	178.804569	-75.051096	173.116531
07637	9.557330	0.168297	-2.557320	0.022142	0.112665	0.081633	1.000000	-0.000015	0.000056	0.000034	178.793114	-75.052726	173.126182
07638	9.559481	0.196786	-2.538085	0.007763	0.143870	0.078901	1.000000	-0.000002	0.000049	0.000052	178.806118	-75.055507	173.114705
07639	9.557753	0.196894	-2.571603	0.041077	0.139205	0.085873	1.000000	-0.000004	0.000048	0.000065	178.807809	-75.060060	173.108245
07640	9.547252	0.204133	-2.517813	-0.006070	0.154206	0.061889	1.000000	-0.000001	0.000052	0.000070	178.828873	-75.063231	173.088618
07641	9.490645	0.184393	-2.514371	0.002753	0.133744	0.006197	1.000000	0.000003	0.000032	0.000072	178.838826	-75.064065	173.076552
07642	9.476147	0.163499	-2.513720	0.003057	0.113656	-0.008099	1.000000	0.000003	0.000020	0.000070	178.860506	-75.063524	173.056674
07643	9.507810	0.139101	-2.446662	-0.072705	0.099884	0.005087	1.000000	-0.000048	0.000030	0.000076	178.863826	-75.063285	173.045646
07644	9.495180	0.147418	-2.427792	-0.086213	0.111316	-0.011947	1.000000	-0.000007	0.000021	0.000088	178.891695	-75.062868	173.018172
07645	9.522793	0.125204	-2.429890	-0.094772	0.090444	0.015154	1.000000	-0.000022	0.000002	0.000079	178.900125	-75.059121	173.007458
07646	9.565083	0.092296	-2.416204	-0.123741	0.061969	0.052312	1.000000	-0.000040	-0.000009	0.000067	178.915552	-75.055254	172.988954
07647	9.577753	0.111891	-2.450904	-0.091920	0.077383	0.073585	1.000000	-0.000065	-0.000002	0.000079	178.921819	-75.050279	172.969267
07648	9.575826	0.081409	-2.469295	-0.078665	0.045530	0.076308	1.000000	-0.000025	-0.000015	0.000072	178.941051	-75.045759	172.948567
07649	9.542401	0.074207	-2.554248	0.010026	0.026113	0.065892	1.000000	-0.000043	-0.000001	0.000063	178.946919	-75.045590	172.923989
07650	9.502276	0.012279	-2.485180	-0.055174	-0.026355	0.009012	1.000000	-0.000035	-0.000028	0.000056	178.958147	-75.039546	172.910384
07651	9.487480	0.022560	-2.501413	-0.035067	-0.019055	-0.001049	1.000000	-0.000003	0.000009	0.000028	178.948011	-75.037999	172.919210
07652	9.498335	-0.016994	-2.538032	-0.008865	-0.062672	0.018704	1.000000	-0.000008	-0.000008	0.000034	178.952787	-75.034123	172.915425
07653	9.555270	0.000742	-2.540432	-0.018881	-0.043970	0.074410	1.000000	-0.000015	0.000032	0.000030	178.943291	-75.035362	172.929936
07654	9.533580	0.108685	-2.483102	-0.053155	0.070236	0.039165	1.000000	0.000036	-0.000003	0.000021	178.947439	-75.032114	172.932091
07655	9.529679	0.049669	-2.519851	-0.026423	0.006134	0.044602	1.000000	-0.000012	-0.000025	0.000027	178.931628	-75.024820	172.950409
07656	9.493291	0.107658	-2.446524	-0.079627	0.072623	-0.009217	1.000000	0.000053	0.000017	0.000016	178.935531	-75.023863	172.954787
07657	9.536238	0.103583	-2.674456	0.125878	0.038347	0.091149	1.000000	-0.000028	-0.000057	0.000029	178.923507	-75.014780	172.954681
07658	9.556711	0.088562	-2.555946	0.003761	0.040513	0.080228	1.000000	0.000030	-0.000036	0.000006	178.920921	-75.007696	172.963035
07659	9.480878	0.113811	-2.655060	0.119825	0.049040	0.032747	1.000000	0.000028	-0.000025	0.000021	178.907874	-74.998797	172.989737
07660	9.430763	0.058717	-2.758234	0.222802	-0.021214	0.010779	1.000000	-0.000045	-0.000006	0.000013	178.899545	-74.995177	172.995216
07661	9.486840	0.109779	-2.551780	0.017703	0.058446	0.011774	1.000000	-0.000036	0.000029	0.000015	178.878391	-74.995194	173.015192
07662	9.531921	0.135349	-2.760588	0.209338	0.056305	0.109494	1.000000	0.000020	0.000024	0.000001	178.871881	-74.995002	173.026438
07663	9.528562	-0.045299	-2.731362	0.157238	-0.119415	0.097756	1.000000	-0.000025	0.000068	0.000021	178.857949	-74.999981	173.032699
07664	9.549288	0.092263	-2.691878	0.134084	0.022528	0.108257	1.000000	-0.000020	0.000049	0.000010	178.850602	-75.002612	173.040087
07665	9.566516	0.019027	-2.607541	0.038913	-0.038811	0.102697	1.000000	-0.000018	0.000099	0.000004	178.829610	-75.007210	173.042652
07666	9.499221	0.100888	-2.598736	0.060738	0.040563	0.035839	1.000000	0.000000	0.000108	-0.000015	178.813204	-75.016591	173.061767
07667	9.532309	0.014749	-2.722754	0.159948	-0.062177	0.099380	1.000000	-0.000059	0.000108	-0.000007	178.782524	-75.024730	173.082926
07668	9.520834	0.147858	-2.507659	-0.022616	0.097834	0.033449	1.000000	-0.000016	0.000101	-0.000009	178.766949	-75.033213	173.099206
07669	9.506643	0.159061	-2.521672	-0.002296	0.105075	0.023437	1.000000	-0.000025	0.000115	-0.000003	178.739082	-75.045029	173.134696
07670	9.501521	0.071484	-2.574215	0.038627	0.010179	0.031550	1.000000	-0.000033	0.000117	0.000001	178.725671	-75.055435	173.146775
07671	9.524335	0.208042	-2.499349	-0.018817	0.155153	0.035082	1.000000	-0.000026	0.000089	0.000007	178.702143	-75.059055	173.157897
07672	9.539535	0.136086	-2.449290	-0.079663	0.090675	0.036460	1.000000	-0.000026	0.000077	0.000005	178.691319	-75.064848	173.168072
07673	9.556547	0.154354	-2.413385	-0.115067	0.113157	0.043772	1.000000	0.000002	0.000087	-0.000000	178.669538	-75.070225	173.185272
07674	9.556886	0.215423	-2.444213	-0.076058	0.168731	0.052423	1.000000	-0.000058	0.000075	0.000006	178.655713	-75.075765	173.194819
07675	9.568170	0.176400	-2.479391	-0.049967	0.124536	0.072168	1.000000	-0.000008	0.000076	0.000015	178.638849	-75.081308	173.211022
07676	9.531980	0.204030	-2.388671	-0.122916	0.163105	0.014026	1.000000	0.000018	0.000048	0.000018	178.638876	-75.083763	173.215230
07677	9.477268	0.214474	-2.366805	-0.127424	0.174264	-0.044383	1.000000	-0.000023	0.000071	0.000040	178.631598	-75.090966	173.216818
07678	9.506992	0.253124	-2.365668	-0.129812	0.213392	-0.015700	1.000000	-0.000023	0.000069	0.000008	178.622647	-75.095860	173.225424
07679	9.531027	0.234547	-2.435623	-0.071454	0.185296	0.025417	1.000000	-0.000003	0.000058	0.000035	178.612719	-75.097203	173.246713
07680	9.533128	0.202228	-2.384238	-0.125423	0.160540	0.014037	1.000000	-0.000015	0.000020	0.000028	178.613849	-75.096478	173.245847
07681	9.535103	0.261431	-2.381832	-0.120522	0.219029	0.015698	1.000000	-0.000020	0.000014	0.000036	178.602003	-75.092873	173.257547
07682	9.533236	0.170516	-2.367729	-0.146811	0.131230	0.009686	1.000000	0.000006	-0.000014	0.000039	178.610305	-75.088308	173.251793
07683	9.520407	0.240611	-2.381878	-0.120270	0.197977	0.001370	1.000000	-0.000012	-0.000001	0.000030	178.599723	-75.088432	173.257983
07684	9.545940	0.190058	-2.402779	-0.114786	0.146087	0.031088	1.000000	-0.000033	-0.000039	0.000041	178.604504	-75.081081	173.251166
07685	9.529232	0.232339	-2.470025	-0.041112	0.177743	0.032513	1.000000	-0.000015	-0.000017	0.000023	178.589578	-75.077598	173.269189
07686	9.529090	0.201126	-2.454440	-0.061456	0.149426	0.028155	1.000000	-0.000000	-0.000046	0.000056	178.604718	-75.069480	173.255554
07687	9.525086	0.172215	-2.508019	-0.015270	0.113352	0.037897	1.000000	0.000001	-0.000044	0.000043	178.597654	-75.057890	173.264045
07688	9.510226	0.212871	-2.540993	0.024619	0.149216	0.032285	1.000000	-0.000007	-0.000030	0.000049	178.608749	-75.051547	173.253822
07689	9.552304	0.149544	-2.511475	-0.023953	0.092008	0.064931	1.000000	0.000011	-0.000019	0.000061	178.613882	-75.048282	173.244406
07690	9.504283	0.153300	-2.612947	0.085026	0.081328	0.044724	1.000000	0.000009	-0.000033	0.000072	178.636872	-75.041689	173.223804
07691	9.548256	0.118957	-2.565188	0.022034	0.055531	0.074677	1.000000	-0.000009	-0.000019	0.000064	178.637176	-75.035269	173.225403
07692	9.504035	0.120338	-2.597738	0.063796	0.051955	0.040365	1.000000	0.000011	-0.000031	0.000059	178.654682	-75.028792	173.210687
07693	9.489197	0.099800	-2.598129	0.063524	0.031225	0.026016	1.000000	0.000021	-0.000020	0.000044	178.649873	-75.020371	173.230110
07694	9.503776	0.057230	-2.566235	0.022501	-0.005355	0.031603	1.000000	-0.000009	-0.000019	0.000064	178.666896	-75.015296	173.213545
07695	9.512679	0.048821	-2.653751	0.101667	-0.025228	0.062781	1.000000	-0.000009	-0.000007	0.000065	178.668748	-75.009794	173.210157
07696	9.483271	0.039396	-2.669720	0.122743	-0.037037	0.038453	1.000000	-0.000005	0.000008	0.000041	178.676226	-75.007769	173.203885
07697	9.525455	0.006832	-2.655868	0.094143	-0.066362	0.075422	1.000000	-0.000013	-0.000002	0.000043	178.669965	-75.007673	173.216248
07698	9.496106	-0.002178	-2.671608	0.115226	-0.078165	0.051092	1.000000	-0.000018	0.000027	0.000025	178.668813	-75.007828	173.217360
07699	9.540375	-0.005245	-2.638959	0.072253	-0.075939	0.085388	1.000000	-0.000003	0.000034	0.000032	178.658600	-75.008873	173.226032
07700	9.527932	0.034731	-2.635693	0.078515	-0.036520	0.072760	1.000000	-0.000035	0.000079	0.000009	178.648154	-75.014903	173.234827
07701	9.542882	-0.006841	-2.602305	0.037694	-0.073652	0.078308	1.000000	-0.000028	0.000039	0.000012	178.629254	-75.017864	173.242352
07702	9.545246	0.083372	-2.615181	0.062749	0.013456	0.084470	1.000000	-0.000018	0.000087	0.000003	178.617871	-75.024780	173.254071
07703	9.518153	0.043108	-2.578811	0.030367	-0.023300	0.048646	1.000000	-0.000031	0.000096	0.000016	178.599077	-75.032397	173.268854
07704	9.522463	0.101386	-2.540645	0.002066	0.039358	0.043321	1.000000	0.000000	0.000073	0.000011	178.593502	-75.037773	173.276699
07705	9.524726	0.099862	-2.504753	-0.032173	0.041885	0.036241	1.000000	-0.000016	0.000078	0.000019	178.574995	-75.043792	173.300264
07706	9.499578	0.149642	-2.482745	-0.038821	0.093101	0.006591	1.000000	-0.000028	0.000075	0.000018	178.569064	-75.049436	173.305150
07707	9.512707	0.109240	-2.483436	-0.045915	0.052494	0.019206	1.000000	-0.000023	0.000081	0.000010	178.550616	-75.057801	173.318440
07708	9.500251	0.118791	-2.463757	-0.059391	0.063932	0.002167	1.000000	-0.000013	0.000058	0.000021	178.547867	-75.061403	173.321777
07709	9.529949	0.126968	-2.446575	-0.082105	0.074432	0.026495	1.000000	-0.000028	0.000063	0.000016	178.527463	-75.063325	173.345741
07710	9.532141	0.155998	-2.427267	-0.096557	0.105569	0.023837	1.000000	-0.000025	0.000043	0.000018	178.522151	-75.065262	173.350356
07711	9.517709	0.166764	-2.442496	-0.076376	0.113010	0.013898	1.000000	-0.000022	0.000047	0.000023	178.508418	-75.068190	173.348724
07712	9.549177	0.173619	-2.391133	-0.132233	0.127593	0.031127	1.000000	-0.000025	0.000043	0.000018	178.503080	-75.070127	173.353356
07713	9.530946	0.156473	-2.459223	-0.064133	0.100104	0.030943	1.000000	-0.000022	0.000035	0.000021	178.492421	-75.074194	173.353231
07714	9.533034	0.185349	-2.440326	-0.078577	0.131245	0.028292	1.000000	-0.000018	0.000027	0.000025	178.491071	-75.074353	173.354487
07715	9.520396	0.194941	-2.421305	-0.092040	0.142130	0.011262	1.000000	-0.000015	0.000042	0.000001	178.467154	-75.076632	173.381441
07716	9.520547	0.194996	-2.420707	-0.092615	0.141762	0.011262	1.000000	-0.000003	0.000020	-0.000002	178.456127	-75.075876	173.394489
07717	9.535393	0.214230	-2.420358	-0.094473	0.160416	0.025660	1.000000	-0.000023	0.000022	0.000033	178.441562	-75.074095	173.408379
07718	9.522656	0.223651	-2.401734	-0.107948	0.171854	0.008623	1.000000	-0.000005	0.000006	0.000009	178.435293	-75.071810	173.416302
07719	9.550337	0.263595	-2.436179	-0.077227	0.206739	0.044527	1.000000	-0.000007	0.000005	0.000023	178.419771	-75.067847	173.433043
07720	9.522771	0.253345	-2.417882	-0.089722	0.198482	0.013098	1.000000	-0.000005	-0.000016	0.000037	178.425700	-75.063024	173.428312
07721	9.478684	0.255365	-2.450292	-0.048035	0.194408	-0.021135	1.000000	-0.000000	-0.000011	0.000030	178.415089	-75.058406	173.437906
07722	9.506081	0.233871	-2.452848	-0.056429	0.173937	0.005831	1.000000	-0.000010	-0.000022	0.000045	178.423767	-75.052951	173.429730
07723	9.514978	0.195366	-2.524558	0.003193	0.126159	0.032638	1.000000	-0.000007	-0.000042	0.000047	178.420422	-75.044554	173.432414
07724	9.472551	0.195912	-2.523163	0.011420	0.126206	-0.008714	1.000000	-0.000027	-0.000054	0.000048	178.428677	-75.035404	173.422701
07725	9.525401	0.154689	-2.562975	0.029078	0.081480	0.052329	1.000000	-0.000012	-0.000036	0.000056	178.428746	-75.030407	173.424538
07726	9.536149	0.114671	-2.600074	0.055278	0.037795	0.072008	1.000000	-0.000012	-0.000011	0.000060	178.443415	-75.026239	173.409951
07727	9.549038	0.134370	-2.634697	0.087791	0.053019	0.093538	1.000000	-0.000023	-0.000001	0.000060	178.445445	-75.026339	173.397095
07728	9.563555	0.091704	-2.602567	0.046787	0.016365	0.098967	1.000000	0.000008	-0.000011	0.000057	178.461181	-75.022165	173.383747
07729	9.565400	0.089307	-2.568162	0.012427	0.018867	0.091847	1.000000	0.000013	0.000007	0.000051	178.459984	-75.019408	173.392271
07730	9.506639	0.071391	-2.600111	0.055267	-0.004269	0.043214	1.000000	-0.000017	0.000007	0.000071	178.478651	-75.017419	173.372948
07731	9.521526	0.089704	-2.599745	0.053429	0.014510	0.057627	1.000000	0.000018	0.000037	0.000047	178.478167	-75.017540	173.375639
07732	9.508888	0.098674	-2.580838	0.039966	0.025954	0.040593	1.000000	0.000016	0.000022	0.000027	178.481537	-75.017040	173.376098
07733	9.506945	0.038362	-2.582437	0.034022	-0.034428	0.038714	1.000000	-0.000031	0.000036	0.000038	178.473638	-75.021152	173.381621
07734	9.479825	0.089026	-2.595682	0.060979	0.013316	0.016284	1.000000	-0.000005	0.000032	0.000045	178.481959	-75.021953	173.374391
07735	9.507435	0.067477	-2.597305	0.052875	-0.007722	0.043225	1.000000	-0.000003	0.000034	0.000032	178.473752	-75.024914	173.375864
07736	9.509462	0.065671	-2.562152	0.018706	-0.004586	0.036091	1.000000	-0.000018	0.000040	0.000027	178.472768	-75.026482	173.376707
07737	9.524426	0.084634	-2.561497	0.016995	0.014138	0.050509	1.000000	-0.000023	0.000034	0.000034	178.461249	-75.027040	173.387648
07738	9.554029	0.092334	-2.544709	-0.005300	0.025123	0.074824	1.000000	-0.000017	0.000043	0.000045	178.468303	-75.028998	173.380354
07739	9.565249	0.083395	-2.596616	0.040702	0.008834	0.099004	1.000000	-0.000008	0.000051	0.000011	178.449106	-75.032751	173.396956
07740	9.554713	0.121963	-2.558890	0.013347	0.051777	0.079353	1.000000	-0.000031	0.000060	0.000042	178.452914	-75.036757	173.391266
07741	9.514574	0.121496	-2.521270	-0.012178	0.054814	0.030865	1.000000	-0.000015	0.000032	0.000030	178.440828	-75.036656	173.399387
07742	9.514834	0.120942	-2.520315	-0.012753	0.054433	0.030866	1.000000	-0.000015	0.000068	0.000036	178.443709	-75.041541	173.396620
07743	9.502213	0.099747	-2.484530	-0.045557	0.037319	0.009299	1.000000	-0.000025	0.000068	0.000021	178.427347	-75.048696	173.408692
07744	9.519265	0.147990	-2.465112	-0.061042	0.088106	0.021112	1.000000	0.000002	0.000052	0.000026	178.428003	-75.051658	173.410185
07745	9.491792	0.107355	-2.429515	-0.093731	0.051379	-0.014894	1.000000	-0.000030	0.000062	0.000029	178.413289	-75.052886	173.420620
07746	9.523402	0.144642	-2.394151	-0.129937	0.093839	0.006802	1.000000	-0.000028	0.000039	0.000012	178.404865	-75.054316	173.427986
07747	9.551190	0.154040	-2.411764	-0.118652	0.100731	0.038269	1.000000	-0.000018	0.000040	0.000027	178.391143	-75.056261	173.440542
07748	9.522138	0.175883	-2.443386	-0.077798	0.116992	0.018510	1.000000	-0.000021	0.000023	0.000019	178.386698	-75.055906	173.444558
07749	9.535071	0.165846	-2.461281	-0.065709	0.104334	0.035550	1.000000	-0.000021	0.000023	0.000019	178.371731	-75.054598	173.456576
07750	9.535316	0.195979	-2.477196	-0.046596	0.131939	0.040108	1.000000	-0.000012	-0.000001	0.000030	178.373280	-75.051564	173.455531
07751	9.537323	0.224682	-2.458783	-0.060470	0.162550	0.037518	1.000000	-0.000023	0.000009	0.000031	178.363832	-75.053475	173.459470
07752	9.550202	0.214399	-2.476916	-0.048174	0.150329	0.054557	1.000000	-0.000012	0.000012	0.000032	178.366009	-75.051853	173.457769
07753	9.522671	0.204190	-2.458331	-0.061043	0.141548	0.023094	1.000000	-0.000012	0.000012	0.000032	178.354383	-75.048047	173.469987
07754	9.522747	0.203596	-2.458088	-0.061622	0.141160	0.023096	1.000000	-0.000000	0.000014	0.000033	178.358406	-75.046670	173.467743
07755	9.533817	0.194458	-2.510770	-0.015660	0.124851	0.047313	1.000000	-0.000013	-0.000002	0.000043	178.352398	-75.044307	173.470249
07756	9.520797	0.172904	-2.476409	-0.048797	0.108306	0.025705	1.000000	-0.000010	-0.000010	0.000047	178.361304	-75.040266	173.461752
07757	9.520790	0.172183	-2.476488	-0.049719	0.107426	0.025710	1.000000	-0.000000	0.000002	0.000032	178.352764	-75.035817	173.472023
07758	9.506162	0.182570	-2.492773	-0.029578	0.115374	0.015851	1.000000	-0.000019	-0.000020	0.000049	178.361769	-75.030629	173.462427
07759	9.476500	0.142792	-2.493055	-0.028688	0.075112	-0.013029	1.000000	-0.000004	-0.000014	0.000056	178.361048	-75.023002	173.461179
07760	9.515060	0.143009	-2.564508	0.029021	0.067201	0.042675	1.000000	-0.000007	-0.000018	0.000050	178.371887	-75.018055	173.451052
07761	9.513018	0.112994	-2.583044	0.042333	0.034756	0.045274	1.000000	-0.000005	-0.000004	0.000039	178.365343	-75.014875	173.454809
07762	9.527803	0.131706	-2.583161	0.040712	0.054021	0.059724	1.000000	0.000003	-0.000006	0.000035	178.370615	-75.011188	173.451633
07763	9.515054	0.140850	-2.564650	0.026928	0.064899	0.042696	1.000000	-0.000012	0.000024	0.000034	178.359593	-75.009380	173.463271
07764	9.555588	0.139868	-2.600948	0.051031	0.060475	0.091225	1.000000	0.000013	0.000019	0.000053	178.373409	-75.008627	173.452424
07765	9.540841	0.119494	-2.600754	0.051871	0.039836	0.076781	1.000000	-0.000002	0.000000	0.000045	178.369694	-75.008256	173.456621
07766	9.529920	0.127105	-2.547646	0.004838	0.054782	0.052555	1.000000	-0.000005	0.000032	0.000045	178.377615	-75.009044	173.449735
07767	9.526303	0.098424	-2.599811	0.052431	0.018827	0.062334	1.000000	-0.000005	0.000032	0.000045	178.374400	-75.014066	173.451655
07768	9.513690	0.107323	-2.580811	0.038990	0.030280	0.045302	1.000000	-0.000002	0.000037	0.000050	178.384948	-75.015374	173.442436
07769	9.513886	0.106540	-2.580119	0.039348	0.029357	0.045303	1.000000	-0.000012	0.000036	0.000036	178.378894	-75.022279	173.437562
07770	9.486470	0.096243	-2.561042	0.026962	0.021168	0.013814	1.000000	-0.000008	0.000040	0.000041	178.384786	-75.023981	173.432378
07771	9.501242	0.084335	-2.544235	0.005603	0.011862	0.023657	1.000000	-0.000005	0.000032	0.000045	178.379903	-75.024799	173.436102
07772	9.501408	0.083553	-2.543639	0.005031	0.011467	0.023657	1.000000	-0.000017	0.000030	0.000043	178.385895	-75.025358	173.429827
07773	9.530992	0.091202	-2.526841	-0.017204	0.021823	0.047956	1.000000	-0.000007	0.000042	0.000028	178.374600	-75.028204	173.437499
07774	9.560373	0.068341	-2.493723	-0.059229	0.004715	0.067623	1.000000	-0.000020	0.000050	0.000042	178.379218	-75.031061	173.432264
07775	9.529453	0.060843	-2.543414	-0.004987	-0.010967	0.050526	1.000000	-0.000026	0.000042	0.000031	178.365896	-75.030039	173.438299
07776	9.577658	0.115907	-2.473724	-0.075904	0.054549	0.079508	1.000000	-0.000018	0.000040	0.000027	178.364424	-75.031604	173.439563
07777	9.548498	0.107206	-2.488970	-0.054997	0.042406	0.055213	1.000000	-0.000018	0.000052	0.000029	178.352546	-75.033135	173.451011
07778	9.521377	0.127713	-2.485811	-0.047702	0.062219	0.028351	1.000000	-0.000002	0.000047	0.000020	178.350156	-75.035574	173.455183
07779	9.521648	0.127314	-2.484792	-0.047097	0.061304	0.028360	1.000000	-0.000001	0.000060	0.000022	178.339799	-75.046589	173.462436
07780	9.522179	0.157507	-2.499931	-0.028005	0.088899	0.033006	1.000000	-0.000005	0.000043	0.000015	178.334739	-75.048533	173.468973
07781	9.496506	0.146136	-2.446302	-0.074269	0.083657	-0.005707	1.000000	-0.000023	0.000046	0.000036	178.323311	-75.049460	173.482390
07782	9.511533	0.165128	-2.445557	-0.075910	0.102887	0.008765	1.000000	-0.000005	0.000031	0.000013	178.317579	-75.049996	173.489618
07783	9.509913	0.166071	-2.479585	-0.043217	0.098433	0.015985	1.000000	-0.000020	0.000014	0.000036	178.306846	-75.047218	173.502615
07784	9.553936	0.162545	-2.447029	-0.086322	0.100921	0.050093	1.000000	-0.000008	0.000016	0.000037	178.311295	-75.046111	173.498886
07785	9.553984	0.161948	-2.446881	-0.087480	0.099974	0.050092	1.000000	-0.000012	-0.000001	0.000030	178.298739	-75.040067	173.508718
07786	9.510346	0.194848	-2.495250	-0.025872	0.124682	0.020659	1.000000	-0.000020	0.000002	0.000034	178.300640	-75.037300	173.506248
07787	9.537701	0.173494	-2.497519	-0.033818	0.103557	0.047514	1.000000	-0.000018	-0.000009	0.000019	178.286740	-75.036468	173.513768
07788	9.523429	0.214620	-2.529841	0.005987	0.139524	0.042380	1.000000	-0.000002	0.000000	0.000045	178.295153	-75.033576	173.506692
07789	9.508330	0.163941	-2.513687	-0.013105	0.090968	0.023236	1.000000	-0.000017	0.000006	0.000040	178.288009	-75.032017	173.511287
07790	9.534298	0.174298	-2.566309	0.031669	0.094835	0.061985	1.000000	-0.000003	0.000009	0.000028	178.288976	-75.030136	173.511738
07791	9.508434	0.162713	-2.513374	-0.014404	0.089664	0.023246	1.000000	-0.000005	0.000008	0.000041	178.283824	-75.027572	173.511965
07792	9.523387	0.181324	-2.512993	-0.016062	0.108881	0.037734	1.000000	0.000003	0.000030	0.000041	178.290700	-75.028114	173.507080
07793	9.551175	0.190178	-2.530864	-0.004804	0.115702	0.069265	1.000000	-0.000008	0.000016	0.000037	178.283377	-75.027683	173.507082
07794	9.508718	0.160474	-2.512442	-0.016067	0.087922	0.023259	1.000000	0.000006	-0.000002	0.000041	178.290954	-75.024527	173.501835
07795	9.508758	0.159659	-2.512343	-0.016800	0.087042	0.023266	1.000000	-0.000022	0.000012	0.000049	178.287762	-75.022420	173.498824
07796	9.506800	0.129615	-2.530433	-0.003452	0.055144	0.025813	1.000000	-0.000010	0.000014	0.000051	178.297490	-75.021191	173.489387
07797	9.490584	0.141383	-2.580866	0.049948	0.059226	0.023269	1.000000	-0.000000	0.000001	0.000032	178.290684	-75.016686	173.491749
07798	9.532528	0.108607	-2.566750	0.020738	0.030188	0.059888	1.000000	-0.000017	0.000018	0.000042	178.295746	-75.015833	173.486353
07799	9.519808	0.117737	-2.548119	0.007289	0.041103	0.042858	1.000000	-0.000000	0.000014	0.000033	178.286844	-75.014632	173.495152
07800	9.533053	0.137682	-2.582168	0.039199	0.056816	0.064604	1.000000	-0.000010	0.000027	0.000052	178.297169	-75.014800	173.485088
07801	9.545669	0.096472	-2.583942	0.031942	0.015904	0.076933	1.000000	-0.000005	0.000020	0.000043	178.290289	-75.015385	173.499600
07802	9.547868	0.124672	-2.565083	0.017430	0.046982	0.074399	1.000000	0.000005	0.000033	0.000059	178.305111	-75.016314	173.486651
07803	9.535267	0.133606	-2.546026	0.004224	0.057939	0.057370	1.000000	0.000005	0.000044	0.000029	178.296290	-75.019919	173.495275
07804	9.546298	0.094011	-2.581707	0.030419	0.014162	0.076940	1.000000	-0.000031	0.000060	0.000042	178.299330	-75.023924	173.490244
07805	9.506076	0.093563	-2.544126	0.005289	0.017381	0.028374	1.000000	-0.000008	0.000040	0.000041	178.293395	-75.026099	173.491233
07806	9.520798	0.081708	-2.527266	-0.016024	0.008578	0.038151	1.000000	-0.000012	0.000036	0.000036	178.296241	-75.027283	173.488732
07807	9.523054	0.110317	-2.508172	-0.030086	0.039120	0.035623	1.000000	-0.000006	0.000042	0.000028	178.285487	-75.032049	173.499474
07808	9.482777	0.110048	-2.470749	-0.055233	0.042860	-0.012948	1.000000	-0.000015	0.000044	0.000032	178.286310	-75.034130	173.498682
07809	9.536323	0.099432	-2.524817	-0.018300	0.025830	0.052658	1.000000	-0.000023	0.000046	0.000036	178.275165	-75.037442	173.508812
07810	9.540303	0.126690	-2.471163	-0.066390	0.060385	0.042870	1.000000	-0.000006	0.000042	0.000028	178.275196	-75.039262	173.509824
07811	9.538728	0.127516	-2.505184	-0.033454	0.055990	0.050137	1.000000	-0.000028	0.000004	0.000038	178.266325	-75.036727	173.513812
07812	9.538458	0.096306	-2.488758	-0.053664	0.027570	0.045392	1.000000	-0.000017	0.000030	0.000043	178.271880	-75.037288	173.507906
07813	9.566300	0.105267	-2.506485	-0.042229	0.034402	0.076937	1.000000	0.000002	0.000027	0.000022	178.260690	-75.039385	173.518350
07814	9.498577	0.126131	-2.467307	-0.059458	0.058440	0.001563	1.000000	-0.000018	0.000015	0.000023	178.257519	-75.038155	173.521274
07815	9.524745	0.136715	-2.519439	-0.014674	0.061760	0.040383	1.000000	-0.000021	0.000047	0.000023	178.242635	-75.041299	173.533283
07816	9.541878	0.184734	-2.500328	-0.030306	0.112426	0.052384	1.000000	-0.000000	0.000026	0.000035	178.246620	-75.041338	173.530950
07817	9.541666	0.153541	-2.483643	-0.050384	0.083578	0.047633	1.000000	-0.000011	0.000036	0.000036	178.239967	-75.043491	173.529666
07818	9.516181	0.172694	-2.446448	-0.076620	0.106937	0.013570	1.000000	-0.000002	0.000023	0.000017	178.235866	-75.043138	173.535506
07819	9.525329	0.134480	-2.517349	-0.017347	0.059176	0.040395	1.000000	0.000010	0.000002	0.000046	178.233843	-75.037996	173.545270
07820	9.516687	0.201906	-2.462170	-0.058648	0.133615	0.018340	1.000000	-0.000031	0.000012	0.000035	178.234152	-75.036398	173.542996
07821	9.527459	0.162377	-2.498816	-0.032752	0.089292	0.037890	1.000000	-0.000009	-0.000009	0.000034	178.224317	-75.031084	173.553184
07822	9.512944	0.173056	-2.515061	-0.012589	0.097285	0.028144	1.000000	-0.000023	-0.000003	0.000029	178.223200	-75.027816	173.553357
07823	9.512952	0.172564	-2.515066	-0.013482	0.096401	0.028152	1.000000	-0.000020	0.000001	0.000034	178.213509	-75.023518	173.559957
07824	9.526168	0.192663	-2.549494	0.018382	0.112095	0.049970	1.000000	-0.000005	-0.000004	0.000039	178.218903	-75.020111	173.555527
07825	9.526161	0.191942	-2.549574	0.018160	0.111128	0.049981	1.000000	-0.000005	-0.000004	0.000039	178.212959	-75.019198	173.566732
07826	9.538601	0.150867	-2.551763	0.010792	0.070806	0.062232	1.000000	-0.000025	0.000008	0.000044	178.217853	-75.017216	173.560481
07827	9.538642	0.150171	-2.551651	0.010621	0.069887	0.062239	1.000000	0.000011	0.000004	0.000033	178.212271	-75.017295	173.558039
07828	9.551527	0.139640	-2.569740	0.022866	0.057568	0.079274	1.000000	-0.000025	0.000020	0.000046	178.217785	-75.016720	173.551149
07829	9.513182	0.168585	-2.514464	-0.015524	0.092304	0.028188	1.000000	-0.000030	0.000013	0.000022	178.202327	-75.019372	173.560624
07830	9.526095	0.158200	-2.532443	-0.003278	0.079983	0.045222	1.000000	0.000007	0.000022	0.000044	178.210822	-75.019035	173.554366
07831	9.526247	0.157348	-2.531924	-0.003803	0.079075	0.045229	1.000000	-0.000005	0.000032	0.000045	178.207363	-75.020460	173.557092
07832	9.511477	0.137116	-2.531540	-0.003247	0.059069	0.030696	1.000000	0.000010	0.000014	0.000048	178.217844	-75.019232	173.549154
07833	9.526504	0.155458	-2.531075	-0.005691	0.077712	0.045239	1.000000	0.000002	0.000029	0.000054	178.216375	-75.015820	173.559856
07834	9.526237	0.124040	-2.514450	-0.025874	0.049276	0.040430	1.000000	-0.000008	0.000028	0.000039	178.220938	-75.016119	173.555913
07835	9.537546	0.114842	-2.566647	0.019731	0.032971	0.064771	1.000000	-0.000005	0.000032	0.000045	178.216198	-75.016087	173.562671
07836	9.524865	0.123915	-2.547874	0.006333	0.044445	0.047742	1.000000	-0.000008	0.000016	0.000037	178.220100	-75.014982	173.559400
07837	9.539482	0.112076	-2.531231	-0.014737	0.035100	0.057468	1.000000	-0.000031	0.000036	0.000038	178.211303	-75.017953	173.561817
07838	9.538411	0.143312	-2.581236	0.037851	0.059217	0.069603	1.000000	0.000015	0.000020	0.000040	178.218951	-75.017343	173.557405
07839	9.526960	0.120357	-2.511887	-0.029210	0.045677	0.040438	1.000000	-0.000005	0.000032	0.000045	178.214315	-75.015553	173.560040
07840	9.527152	0.119572	-2.511195	-0.029788	0.045248	0.040439	1.000000	-0.000008	0.000040	0.000041	178.219457	-75.017249	173.555499
07841	9.540173	0.109019	-2.528760	-0.017963	0.032404	0.057471	1.000000	0.000000	0.000038	0.000037	178.211360	-75.016629	173.565869
07842	9.512655	0.099017	-2.509726	-0.030204	0.024307	0.025891	1.000000	-0.000013	0.000045	0.000019	178.206417	-75.018820	173.571202
07843	9.525698	0.088627	-2.527201	-0.017370	0.011441	0.042924	1.000000	0.000003	0.000042	0.000043	178.203018	-75.024552	173.575551
07844	9.515177	0.127063	-2.489797	-0.044733	0.054393	0.023413	1.000000	-0.000013	0.000033	0.000017	178.197415	-75.025347	173.581556
07845	9.500435	0.107320	-2.489209	-0.044079	0.033872	0.008863	1.000000	-0.000031	0.000036	0.000038	178.187217	-75.027324	173.590287
07846	9.515538	0.126062	-2.488469	-0.045813	0.053008	0.023416	1.000000	-0.000003	0.000034	0.000032	178.188890	-75.028248	173.589925
07847	9.543457	0.134967	-2.506056	-0.034421	0.059682	0.055005	1.000000	-0.000003	0.000034	0.000032	178.178996	-75.031375	173.603047
07848	9.543150	0.103767	-2.489390	-0.054584	0.031231	0.050152	1.000000	-0.000008	0.000028	0.000039	178.183419	-75.031676	173.599244
07849	9.559810	0.121095	-2.454492	-0.089963	0.053359	0.057379	1.000000	-0.000023	0.000009	0.000031	178.172051	-75.029656	173.603535
07850	9.543777	0.133116	-2.504938	-0.036231	0.057918	0.055009	1.000000	-0.000005	0.000008	0.000041	178.177826	-75.027662	173.598696
07851	9.516574	0.153749	-2.502553	-0.028879	0.077364	0.028287	1.000000	-0.000016	0.000017	0.000010	178.157954	-75.026811	173.616944
07852	9.530670	0.111654	-2.469862	-0.069789	0.040457	0.033116	1.000000	-0.000015	0.000032	0.000030	178.157684	-75.027492	173.617221
07853	9.502406	0.164094	-2.517699	-0.009310	0.084450	0.018601	1.000000	0.000000	0.000026	0.000035	178.149946	-75.027711	173.626204
07854	9.531410	0.140989	-2.485008	-0.051388	0.067099	0.037986	1.000000	-0.000020	0.000014	0.000036	178.151790	-75.026363	173.623681
07855	9.518656	0.150292	-2.466480	-0.064458	0.078035	0.020963	1.000000	-0.000023	0.000009	0.000031	178.139689	-75.026715	173.636719
07856	9.517085	0.151088	-2.500771	-0.031475	0.074147	0.028303	1.000000	-0.000005	0.000008	0.000041	178.145407	-75.024726	173.631941
07857	9.515509	0.151904	-2.535085	0.002119	0.069830	0.035650	1.000000	-0.000015	0.000007	0.000027	178.135688	-75.026387	173.635377
07858	9.517188	0.150003	-2.500443	-0.032017	0.072848	0.028311	1.000000	-0.000012	0.000011	0.000032	178.136739	-75.024787	173.634648
07859	9.515144	0.120409	-2.518577	-0.018961	0.040455	0.030772	1.000000	-0.000018	0.000015	0.000023	178.121372	-75.021821	173.648420
07860	9.531206	0.200407	-2.550174	0.018428	0.115611	0.055125	1.000000	-0.000015	0.000032	0.000030	178.121027	-75.022509	173.648770
07861	9.543104	0.128823	-2.536084	-0.009066	0.046755	0.062377	1.000000	0.000015	-0.000004	0.000037	178.115501	-75.016062	173.659681
07862	9.518017	0.178455	-2.515399	-0.015689	0.098176	0.033217	1.000000	-0.000035	0.000019	0.000031	178.113378	-75.015361	173.659507
07863	9.543744	0.158300	-2.551702	0.009745	0.073404	0.067283	1.000000	-0.000012	0.000011	0.000032	178.104295	-75.016372	173.665843
07864	9.516069	0.148320	-2.533194	-0.002453	0.065337	0.035681	1.000000	-0.000015	0.000019	0.000028	178.103280	-75.015656	173.666871
07865	9.516207	0.147836	-2.532705	-0.003078	0.064422	0.035687	1.000000	-0.000015	0.000032	0.000030	178.092089	-75.016375	173.678030
07866	9.499780	0.129202	-2.566802	0.031091	0.040991	0.028468	1.000000	0.000002	0.000016	0.000052	178.103002	-75.015407	173.668645
07867	9.544222	0.155761	-2.550070	0.007288	0.070788	0.067304	1.000000	-0.000011	0.000024	0.000034	178.095897	-75.014871	173.668603
07868	9.503260	0.124910	-2.496987	-0.037267	0.046630	0.013754	1.000000	-0.000016	0.000030	0.000043	178.100891	-75.015439	173.663204
07869	9.501816	0.125709	-2.530857	-0.004458	0.042336	0.021119	1.000000	-0.000015	0.000032	0.000030	178.090885	-75.015361	173.665452
07870	9.516393	0.113743	-2.514164	-0.025791	0.033420	0.030783	1.000000	-0.000002	0.000024	0.000048	178.099757	-75.015281	173.657781
07871	9.516529	0.112976	-2.513685	-0.026395	0.032507	0.030785	1.000000	-0.000020	0.000026	0.000038	178.091450	-75.015482	173.665351
07872	9.527869	0.104016	-2.566011	0.019380	0.016689	0.055183	1.000000	-0.000015	0.000019	0.000028	178.090367	-75.014762	173.666426
07873	9.542451	0.092266	-2.549267	-0.001427	0.007287	0.064842	1.000000	-0.000006	0.000042	0.000028	178.080373	-75.019933	173.678766
07874	9.516997	0.111323	-2.511985	-0.027600	0.030702	0.030787	1.000000	-0.000016	0.000030	0.000043	178.085318	-75.020505	173.673407
07875	9.517687	0.141459	-2.527500	-0.008723	0.057807	0.035725	1.000000	-0.000008	0.000027	0.000008	178.065099	-75.020239	173.693577
07876	9.531735	0.099324	-2.494631	-0.049611	0.020853	0.040441	1.000000	-0.000006	0.000042	0.000028	178.064484	-75.022061	173.695173
07877	9.545880	0.150067	-2.544200	0.001546	0.064035	0.067353	1.000000	-0.000023	0.000046	0.000036	178.053999	-75.023765	173.706747
07878	9.532156	0.098406	-2.493059	-0.050931	0.019471	0.040437	1.000000	-0.000024	0.000031	0.000016	178.046192	-75.024319	173.713633
07879	9.520044	0.138468	-2.490217	-0.044745	0.058548	0.028357	1.000000	-0.000015	0.000032	0.000030	178.035894	-75.025318	173.720850
07880	9.534576	0.126768	-2.473603	-0.066081	0.049609	0.038002	1.000000	-0.000018	0.000015	0.000023	178.032098	-75.024090	173.724338
07881	9.490318	0.099115	-2.489709	-0.042627	0.018106	-0.000834	1.000000	-0.000018	0.000015	0.000023	178.019388	-75.028124	173.734005
07882	9.507562	0.147432	-2.470649	-0.058415	0.068656	0.011337	1.000000	-0.000026	0.000040	-0.000001	178.004115	-75.029692	173.748444
07883	9.532792	0.096844	-2.490686	-0.052622	0.015869	0.040434	1.000000	-0.000022	0.000012	0.000049	178.001951	-75.030413	173.747173
07884	9.534955	0.125497	-2.472207	-0.067202	0.046886	0.038008	1.000000	-0.000005	-0.000006	0.000008	177.993344	-75.026755	173.757184
07885	9.504050	0.118616	-2.522800	-0.011872	0.031530	0.021153	1.000000	-0.000023	0.000022	0.000032	177.983916	-75.028798	173.761533
07886	9.531965	0.127680	-2.540544	-0.000867	0.038671	0.052784	1.000000	-0.000021	0.000023	0.000019	177.978060	-75.028479	173.766767
07887	9.517128	0.108073	-2.540184	-0.000313	0.018293	0.038181	1.000000	-0.000018	0.000027	0.000025	177.965545	-75.028420	173.778264
07888	9.490053	0.129011	-2.537490	0.007080	0.038289	0.011522	1.000000	-0.000003	0.000032	0.000000	177.953368	-75.029081	173.792215
07889	9.531845	0.096641	-2.522831	-0.022656	0.008474	0.047814	1.000000	-0.000023	0.000032	0.000003	177.929577	-75.027504	173.816601
07890	9.518148	0.138712	-2.554542	0.017066	0.044559	0.043164	1.000000	-0.000013	0.000019	-0.000016	177.909463	-75.026623	173.837586
07891	9.562042	0.135526	-2.521592	-0.025946	0.046224	0.077036	1.000000	-0.000024	0.000031	0.000016	177.893455	-75.029193	173.849480
07892	9.565934	0.162978	-2.467998	-0.074087	0.080669	0.067225	1.000000	-0.000005	0.000043	0.000015	177.887277	-75.031139	173.857022
07893	9.550739	0.206224	-2.533959	-0.000787	0.112852	0.069992	1.000000	-0.000034	0.000030	0.000001	177.861639	-75.032052	173.880036
07894	9.537426	0.185322	-2.499270	-0.033689	0.096316	0.047981	1.000000	0.000005	0.000007	0.000024	177.860898	-75.029927	173.883070
07895	9.554002	0.202698	-2.464536	-0.068865	0.118340	0.055202	1.000000	-0.000015	0.000007	0.000027	177.849028	-75.029220	173.900448
07896	9.526830	0.223492	-2.462236	-0.061474	0.138346	0.028559	1.000000	-0.000021	0.000011	0.000018	177.842480	-75.027496	173.906375
07897	9.509340	0.237274	-2.547301	0.025827	0.139156	0.033761	1.000000	-0.000009	-0.000009	0.000034	177.835678	-75.023937	173.909419
07898	9.523702	0.225264	-2.531305	0.004488	0.130189	0.043386	1.000000	-0.000010	-0.000010	0.000047	177.843242	-75.019946	173.902053
07899	9.514491	0.261921	-2.460526	-0.057238	0.176167	0.016556	1.000000	0.000001	-0.000032	0.000044	177.840457	-75.009021	173.903758
07900	9.543179	0.238448	-2.428640	-0.099344	0.158674	0.035783	1.000000	-0.000035	-0.000016	0.000057	177.849635	-75.004419	173.891768
07901	9.513660	0.229457	-2.445621	-0.077701	0.146789	0.011561	1.000000	0.000011	-0.000056	0.000055	177.854499	-74.996742	173.887872
07902	9.525677	0.187925	-2.448814	-0.085018	0.106353	0.023571	1.000000	-0.000017	-0.000042	0.000064	177.868955	-74.989205	173.872527
07903	9.514860	0.225774	-2.412802	-0.112341	0.148876	0.004153	1.000000	-0.000001	-0.000034	0.000058	177.872890	-74.983135	173.866439
07904	9.539712	0.174417	-2.434198	-0.106876	0.096486	0.033181	1.000000	-0.000017	-0.000054	0.000062	177.886692	-74.974195	173.851751
07905	9.510691	0.195932	-2.467539	-0.066071	0.112609	0.013977	1.000000	-0.000017	-0.000054	0.000062	177.889662	-74.964753	173.851357
07906	9.523291	0.184856	-2.486755	-0.053868	0.100203	0.031003	1.000000	-0.000019	-0.000043	0.000077	177.909424	-74.957099	173.830309
07907	9.518712	0.125435	-2.524486	-0.026176	0.036338	0.035796	1.000000	0.000007	-0.000048	0.000052	177.910911	-74.950264	173.828227
07908	9.507022	0.195230	-2.538681	-0.000506	0.103907	0.028842	1.000000	-0.000022	0.000001	0.000079	177.930472	-74.947704	173.807058
07909	9.529768	0.114439	-2.577997	0.019194	0.019603	0.060250	1.000000	0.000009	-0.000033	0.000072	177.941602	-74.942583	173.797305
07910	9.572491	0.141767	-2.596436	0.028891	0.046196	0.106546	1.000000	0.000011	-0.000007	0.000063	177.958142	-74.938957	173.783172
07911	9.530280	0.142290	-2.594550	0.037287	0.046270	0.065300	1.000000	0.000001	-0.000007	0.000080	177.969908	-74.934260	173.774252
07912	9.543042	0.131001	-2.613067	0.049488	0.033860	0.082328	1.000000	0.000014	-0.000015	0.000066	177.988419	-74.929737	173.758456
07913	9.518368	0.117371	-2.526169	-0.029501	0.032207	0.035801	1.000000	0.000003	-0.000005	0.000067	177.995274	-74.927788	173.747964
07914	9.500727	0.130149	-2.611623	0.057774	0.033455	0.041087	1.000000	0.000007	-0.000035	0.000085	178.021252	-74.921122	173.723615
07915	9.500616	0.128655	-2.612101	0.056962	0.032579	0.041095	1.000000	0.000014	-0.000015	0.000066	178.029740	-74.915494	173.717244
07916	9.474924	0.146895	-2.575968	0.030834	0.056042	0.007052	1.000000	0.000007	-0.000035	0.000085	178.055667	-74.908820	173.692945
07917	9.458088	0.127499	-2.611439	0.064684	0.032298	-0.000140	1.000000	0.000007	-0.000059	0.000081	178.070967	-74.897350	173.674225
07918	9.502313	0.153002	-2.595894	0.040811	0.062287	0.038733	1.000000	-0.000009	-0.000030	0.000093	178.098323	-74.891198	173.646483
07919	9.502817	0.181903	-2.612566	0.059857	0.089435	0.043810	1.000000	0.000016	-0.000037	0.000081	178.114150	-74.885200	173.629466
07920	9.540364	0.120091	-2.652051	0.078092	0.025053	0.089818	1.000000	-0.000004	-0.000025	0.000086	178.138718	-74.879670	173.605208
07921	9.540286	0.118462	-2.652404	0.077812	0.024167	0.089822	1.000000	-0.000004	-0.000012	0.000087	178.155318	-74.877516	173.582961
07922	9.540972	0.147351	-2.668440	0.096734	0.051746	0.094905	1.000000	-0.000004	0.000012	0.000091	178.181764	-74.876186	173.556805
07923	9.529930	0.154137	-2.615292	0.050179	0.066247	0.070438	1.000000	-0.000010	0.000028	0.000084	178.195803	-74.878794	173.534942
07924	9.544577	0.141126	-2.598224	0.028830	0.057241	0.080013	1.000000	-0.000006	0.000068	0.000095	178.222826	-74.883959	173.507878
07925	9.544272	0.108773	-2.580886	0.008682	0.028342	0.074933	1.000000	-0.000006	0.000068	0.000095	178.240777	-74.888969	173.485125
07926	9.531839	0.116874	-2.561392	-0.004662	0.039852	0.057912	1.000000	0.000014	0.000056	0.000090	178.268307	-74.892702	173.459866
07927	9.527578	0.056892	-2.597180	0.022598	-0.023976	0.062648	1.000000	-0.000006	0.000056	0.000093	178.283947	-74.895364	173.446019
07928	9.505491	0.072103	-2.490572	-0.070582	0.006341	0.013679	1.000000	0.000015	0.000058	0.000077	178.306118	-74.899212	173.426520
07929	9.504184	0.072038	-2.524055	-0.037288	0.002069	0.021140	1.000000	0.000015	0.000045	0.000075	178.319663	-74.903840	173.409601
07930	9.504413	0.070587	-2.523234	-0.037860	0.001607	0.021138	1.000000	0.000012	0.000041	0.000070	178.338550	-74.905783	173.393086
07931	9.480502	0.150011	-2.518055	-0.024185	0.080760	-0.002697	1.000000	0.000030	0.000027	0.000079	178.356178	-74.910938	173.369919
07932	9.561131	0.116674	-2.574597	0.004242	0.043317	0.089610	1.000000	0.000026	0.000011	0.000071	178.377614	-74.909431	173.352469
07933	9.508545	0.156141	-2.535682	-0.013853	0.086920	0.028997	1.000000	0.000025	0.000009	0.000084	178.395054	-74.908026	173.336460
07934	9.534950	0.165175	-2.587973	0.030590	0.090534	0.068154	1.000000	0.000050	0.000027	0.000076	178.420907	-74.908394	173.317200
07935	9.525469	0.170383	-2.500264	-0.049455	0.108472	0.036206	1.000000	0.000028	0.000026	0.000092	178.442496	-74.911001	173.295062
07936	9.524051	0.170027	-2.534304	-0.016497	0.104584	0.043678	1.000000	0.000033	0.000019	0.000082	178.469179	-74.910496	173.272969
07937	9.512189	0.208846	-2.531616	-0.009959	0.143678	0.031788	1.000000	0.000010	0.000027	0.000081	178.483571	-74.913380	173.257837
07938	9.500378	0.185224	-2.462314	-0.076322	0.130586	0.002179	1.000000	-0.000021	0.000026	0.000083	178.504104	-74.913581	173.235666
07939	9.498234	0.154370	-2.480155	-0.062559	0.098241	0.004536	1.000000	-0.000005	0.000035	0.000108	178.528443	-74.916874	173.208121
07940	9.513562	0.109193	-2.412673	-0.136934	0.064603	0.001478	1.000000	-0.000021	0.000050	0.000086	178.550321	-74.919870	173.184597
07941	9.506769	0.020448	-2.467157	-0.095210	-0.030649	0.008511	1.000000	-0.000036	0.000031	0.000078	178.558023	-74.921989	173.171433
07942	9.507691	-0.012910	-2.416017	-0.148801	-0.055729	-0.004107	1.000000	-0.000053	0.000036	0.000086	178.576191	-74.923369	173.148008
07943	9.509350	-0.015614	-2.381094	-0.182743	-0.053142	-0.011597	1.000000	-0.000031	0.000013	0.000066	178.580714	-74.923256	173.135839
07944	9.543812	-0.074153	-2.488630	-0.097467	-0.124456	0.049267	1.000000	-0.000003	0.000010	0.000060	178.593661	-74.921658	173.123654
07945	9.503157	-0.074382	-2.452208	-0.121641	-0.120872	0.000541	1.000000	-0.000042	-0.000012	0.000048	178.589040	-74.921317	173.124334
07946	9.545251	-0.077294	-2.454520	-0.131514	-0.122437	0.041762	1.000000	-0.000010	-0.000022	0.000045	178.595310	-74.915926	173.118228
07947	9.554820	-0.084758	-2.542118	-0.052203	-0.142087	0.073729	1.000000	0.000015	-0.000018	0.000003	178.578985	-74.911548	173.133070
07948	9.542689	-0.044518	-2.540523	-0.046034	-0.102533	0.061852	1.000000	0.000016	-0.000052	0.000016	178.576259	-74.902703	173.139365
07949	9.545669	0.014815	-2.538826	-0.040820	-0.043889	0.064663	1.000000	0.000001	-0.000022	0.000015	178.563604	-74.899566	173.147688
07950	9.546419	0.045068	-2.555083	-0.021901	-0.016328	0.069815	1.000000	0.000038	-0.000002	0.000008	178.559370	-74.896427	173.158182
07951	9.520040	0.096687	-2.569450	0.004917	0.031387	0.048427	1.000000	0.000001	-0.000046	0.000011	178.543265	-74.887818	173.180587
07952	9.515958	0.068752	-2.622961	0.051926	-0.003953	0.058249	1.000000	0.000013	-0.000020	0.000016	178.539929	-74.882669	173.187185
07953	9.481528	0.125908	-2.515510	-0.033966	0.066023	-0.002615	1.000000	-0.000002	-0.000014	0.000011	178.524949	-74.881439	173.205015
07954	9.491950	0.149134	-2.618891	0.064757	0.074763	0.034554	1.000000	-0.000031	-0.000001	0.000033	178.523391	-74.878512	173.204517
07955	9.451319	0.149623	-2.582457	0.040359	0.078494	-0.014161	1.000000	0.000008	-0.000002	-0.000004	178.504259	-74.877650	173.220861
07956	9.545357	0.137989	-2.673580	0.100941	0.056947	0.100308	1.000000	-0.000073	0.000010	0.000053	178.506440	-74.876046	173.211603
07957	9.492788	0.116143	-2.568101	0.010563	0.048044	0.021906	1.000000	-0.000030	0.000013	0.000022	178.492651	-74.875741	173.221233
07958	9.505697	0.168429	-2.652649	0.095226	0.088229	0.056778	1.000000	-0.000039	0.000014	0.000039	178.492497	-74.874481	173.218318
07959	9.512941	0.006594	-2.624798	0.043427	-0.068164	0.055398	1.000000	-0.000051	0.000036	0.000041	178.484144	-74.875263	173.219687
07960	9.524992	0.151565	-2.531937	-0.027409	0.088625	0.043810	1.000000	-0.000042	0.000034	0.000037	178.482683	-74.876298	173.217769
07961	9.530127	0.085983	-2.655231	0.080193	0.006081	0.080466	1.000000	-0.000029	0.000050	0.000027	178.471804	-74.880818	173.221077
07962	9.519885	0.061928	-2.551083	-0.019651	-0.003584	0.043259	1.000000	-0.000042	0.000046	0.000039	178.471004	-74.883254	173.218492
07963	9.602520	0.153437	-2.705060	0.120721	0.067113	0.163796	1.000000	-0.000005	0.000101	0.000006	178.452841	-74.895744	173.235019
07964	9.509341	0.132435	-2.562812	0.006036	0.063158	0.036632	1.000000	0.000008	-0.000037	0.000022	178.451511	-74.888581	173.238899
07965	9.459897	0.170231	-2.454999	-0.079493	0.113813	-0.038928	1.000000	0.000027	0.000057	0.000016	178.440442	-74.889772	173.253977
07966	9.491406	0.052785	-2.563916	0.000341	-0.017032	0.019044	1.000000	-0.000024	0.000080	0.000023	178.434759	-74.896009	173.258669
07967	9.557926	0.280280	-2.608048	0.058389	0.203487	0.096379	1.000000	-0.000033	0.000010	0.000048	178.430949	-74.894979	173.261946
07968	9.491744	0.237678	-2.467984	-0.064303	0.178941	-0.004299	1.000000	0.000052	0.000050	0.000004	178.425841	-74.897810	173.274997
07969	9.481781	0.152973	-2.591523	0.044096	0.076965	0.017658	1.000000	0.000022	0.000027	0.000020	178.416350	-74.896666	173.285140
07970	9.492931	0.267367	-2.482795	-0.046241	0.205706	0.000928	1.000000	-0.000051	0.000024	0.000039	178.414903	-74.896570	173.282201
07971	9.493006	0.204033	-2.415344	-0.118959	0.152189	-0.017006	1.000000	0.000013	0.000076	0.000044	178.414444	-74.904521	173.284555
07972	9.542266	0.196859	-2.572102	0.017945	0.124885	0.071309	1.000000	-0.000009	0.000063	0.000058	178.425283	-74.908943	173.273851
07973	9.544685	0.162249	-2.486244	-0.068570	0.102828	0.051058	1.000000	-0.000034	0.000033	0.000064	178.429599	-74.913445	173.261388
07974	9.519324	0.181198	-2.449075	-0.094620	0.126376	0.017033	1.000000	0.000004	0.000030	0.000041	178.434954	-74.914044	173.257869
07975	9.498728	0.072315	-2.469490	-0.084982	0.015216	0.001690	1.000000	-0.000031	0.000037	0.000070	178.442025	-74.917030	173.240688
07976	9.557797	0.086583	-2.435915	-0.129764	0.036407	0.050096	1.000000	-0.000006	0.000055	0.000062	178.454837	-74.920560	173.228306
07977	9.542229	0.098400	-2.485836	-0.076029	0.040778	0.048131	1.000000	-0.000015	0.000021	0.000060	178.458787	-74.920341	173.219870
07978	9.526270	0.047441	-2.469719	-0.094732	-0.007168	0.028174	1.000000	0.000015	0.000009	0.000070	178.478056	-74.918619	173.203247
07979	9.527186	0.076938	-2.485667	-0.075256	0.020028	0.033411	1.000000	-0.000013	-0.000002	0.000043	178.476221	-74.919152	173.199147
07980	9.510207	-0.004275	-2.453953	-0.113417	-0.055949	0.008206	1.000000	-0.000012	-0.000012	0.000060	178.488364	-74.915061	173.186734
07981	9.511066	0.025380	-2.470117	-0.094155	-0.028761	0.013442	1.000000	0.000015	-0.000005	0.000037	178.486270	-74.914075	173.190024
07982	9.535925	0.036814	-2.557428	-0.016267	-0.028665	0.060233	1.000000	-0.000022	-0.000024	0.000044	178.490459	-74.908484	173.184654
07983	9.522157	0.015621	-2.523534	-0.049124	-0.045462	0.037970	1.000000	0.000005	-0.000017	0.000020	178.480590	-74.903268	173.193067
07984	9.523875	0.076274	-2.555893	-0.010770	0.010128	0.048467	1.000000	-0.000017	-0.000019	0.000036	178.482048	-74.898309	173.191122
07985	9.533225	0.006085	-2.576999	-0.004113	-0.062173	0.062506	1.000000	-0.000009	-0.000021	0.000032	178.475471	-74.892642	173.195306
07986	9.524606	0.105873	-2.572581	0.007442	0.036892	0.053724	1.000000	-0.000010	-0.000011	0.000015	178.468845	-74.888446	173.202535
07987	9.521302	0.045921	-2.574994	0.001494	-0.023447	0.050747	1.000000	-0.000018	0.000015	0.000023	178.455963	-74.887607	173.218320
07988	9.492793	0.068381	-2.607328	0.042508	-0.006698	0.031809	1.000000	0.000008	-0.000013	0.000026	178.455833	-74.883253	173.220969
07989	9.553208	0.081692	-2.539952	-0.035679	0.017495	0.072667	1.000000	-0.000031	0.000036	0.000038	178.448665	-74.885677	173.226977
07990	9.505714	0.057300	-2.625042	0.054265	-0.020028	0.048823	1.000000	-0.000000	0.000001	0.000032	178.449945	-74.882987	173.227215
07991	9.523371	0.105034	-2.606160	0.038724	0.030001	0.061284	1.000000	-0.000010	0.000025	0.000021	178.438512	-74.885763	173.238385
07992	9.509855	0.083962	-2.571312	0.005984	0.013513	0.039003	1.000000	-0.000023	0.000034	0.000034	178.438011	-74.886798	173.237793
07993	9.495776	0.094898	-2.586868	0.026406	0.021311	0.029544	1.000000	-0.000014	0.000031	0.000030	178.429626	-74.888948	173.246301
07994	9.498407	0.123540	-2.567633	0.011767	0.052279	0.027276	1.000000	-0.000029	0.000049	0.000027	178.425173	-74.891779	173.249056
07995	9.497637	0.092517	-2.551074	-0.008558	0.023465	0.021997	1.000000	-0.000003	0.000009	0.000028	178.417069	-74.888341	173.257137
07996	9.529068	0.160922	-2.566170	0.007618	0.089855	0.056767	1.000000	-0.000021	0.000047	0.000023	178.411856	-74.890904	173.261652
07997	9.497387	0.123716	-2.600438	0.044076	0.046761	0.034841	1.000000	0.000008	0.000011	0.000029	178.406632	-74.894268	173.268734
07998	9.543030	0.180738	-2.599502	0.039455	0.104519	0.079078	1.000000	-0.000036	0.000029	0.000014	178.396202	-74.894702	173.276860
07999	9.542228	0.149996	-2.583025	0.019276	0.075723	0.073795	1.000000	-0.000013	0.000021	0.000015	178.382403	-74.893355	173.285788
08000	9.515388	0.171087	-2.580347	0.026774	0.095905	0.047341	1.000000	-0.000018	0.000039	0.000027	178.379138	-74.895026	173.288657
08001	9.544084	0.147722	-2.547206	-0.014470	0.077863	0.066247	1.000000	-0.000026	0.000042	0.000031	178.372246	-74.902317	173.284171
08002	9.515811	0.170132	-2.578851	0.026548	0.094638	0.047354	1.000000	-0.000003	0.000033	0.000032	178.372842	-74.903337	173.284780
08003	9.504763	0.177824	-2.525256	-0.020058	0.109269	0.022796	1.000000	-0.000004	0.000056	0.000048	178.373222	-74.908387	173.283395
08004	9.519292	0.165617	-2.508004	-0.041415	0.100155	0.032245	1.000000	-0.000014	0.000056	0.000034	178.373248	-74.911969	173.283270
08005	9.519597	0.165123	-2.506880	-0.041680	0.099330	0.032252	1.000000	-0.000029	0.000062	0.000029	178.362565	-74.918173	173.291517
08006	9.477699	0.166755	-2.503963	-0.032816	0.100116	-0.008948	1.000000	0.000007	0.000046	0.000048	178.371074	-74.920702	173.285123
08007	9.507372	0.173532	-2.486643	-0.055675	0.110092	0.015253	1.000000	-0.000007	0.000052	0.000043	178.368372	-74.923260	173.287123
08008	9.519432	0.132125	-2.487994	-0.062949	0.069527	0.026944	1.000000	0.000007	0.000046	0.000048	178.376873	-74.925786	173.280736
08009	9.522055	0.160345	-2.468795	-0.077709	0.100158	0.024697	1.000000	-0.000016	0.000030	0.000043	178.373319	-74.926011	173.283632
08010	9.534021	0.118994	-2.470464	-0.084982	0.059589	0.036380	1.000000	-0.000013	0.000034	0.000049	178.379992	-74.927167	173.276764
08011	9.517491	0.100476	-2.504747	-0.050320	0.035983	0.029196	1.000000	-0.000007	0.000006	0.000054	178.383659	-74.927333	173.268843
08012	9.546988	0.107146	-2.488060	-0.073042	0.046254	0.053387	1.000000	-0.000001	0.000024	0.000048	178.391553	-74.927330	173.262056
08013	9.531857	0.087162	-2.488041	-0.071832	0.026079	0.038627	1.000000	-0.000002	-0.000000	0.000045	178.392503	-74.927061	173.254869
08014	9.532885	0.116914	-2.503912	-0.052964	0.053630	0.043958	1.000000	-0.000021	0.000012	0.000049	178.398566	-74.925693	173.247598
08015	9.529047	0.088539	-2.556739	-0.006289	0.017981	0.053778	1.000000	-0.000002	-0.000000	0.000045	178.397165	-74.921036	173.251249
08016	9.513832	0.068702	-2.557011	-0.005481	-0.001899	0.039013	1.000000	-0.000017	-0.000007	0.000038	178.399147	-74.917502	173.248755
08017	9.544672	0.074093	-2.506230	-0.061125	0.011416	0.055624	1.000000	-0.000013	-0.000002	0.000043	178.397548	-74.918145	173.247759
08018	9.511363	0.038330	-2.575624	0.008082	-0.034661	0.041249	1.000000	-0.000003	-0.000003	0.000026	178.396051	-74.914984	173.250443
08019	9.515240	0.065249	-2.522731	-0.040078	-0.000580	0.031428	1.000000	-0.000013	-0.000002	0.000043	178.394430	-74.912141	173.247012
