// Start Time: Unknown
// Update Rate: 100.0Hz
// Filter Profile: human (46.1)
// Firmware Version: 4.4.0
PacketCounter	Acc_X	Acc_Y	Acc_Z	FreeAcc_X	FreeAcc_Y	FreeAcc_Z	OriInc_q0	OriInc_q1	OriInc_q2	OriInc_q3	Roll	Pitch	Yaw
02680	2.431480	-0.025088	12.914464	0.000000	-0.000000	3.328702	1.000000	-0.000000	0.000046	-0.000069	-0.112044	-10.665194	-178.448978
02681	2.406528	-0.029061	12.911860	0.025003	0.004555	3.321532	1.000000	0.000001	0.000038	-0.000069	-0.111828	-10.665191	-178.013617
02682	2.436444	-0.048300	12.890872	-0.010023	0.022852	3.306480	1.000000	-0.000008	0.000045	-0.000062	-0.111423	-10.660013	-178.020839
02683	2.406999	-0.028510	12.888047	0.017749	0.003987	3.298220	1.000000	-0.000009	0.000053	-0.000062	-0.111588	-10.653878	-178.027897
02684	2.429786	-0.023969	12.891064	-0.005021	-0.001127	3.305390	1.000000	0.000001	0.000031	-0.000069	-0.109955	-10.650363	-178.035947
02685	2.428692	-0.023530	12.891271	-0.005025	-0.001129	3.305390	1.000000	0.000007	0.000054	-0.000069	-0.107701	-10.644134	-178.043963
02686	2.429011	-0.047381	12.915997	-0.002805	0.023195	3.329792	1.000000	0.000001	0.000038	-0.000069	-0.106146	-10.639746	-178.052019
02687	2.401050	-0.002885	12.864378	0.015525	-0.020353	3.273817	1.000000	-0.000007	0.000045	-0.000077	-0.105375	-10.634559	-178.061013
02688	2.394226	-0.003141	12.913095	0.030001	-0.019440	3.320441	1.000000	-0.000000	0.000046	-0.000069	-0.103899	-10.629298	-178.069075
02689	2.445104	-0.018251	12.919218	-0.020593	-0.005784	3.335872	1.000000	-0.000008	0.000045	-0.000070	-0.103201	-10.623964	-178.077204
02690	2.420078	-0.022478	12.916611	0.002177	-0.000669	3.328702	1.000000	-0.000008	0.000045	-0.000062	-0.102801	-10.618785	-178.084425
02691	2.441347	0.006296	12.895142	-0.022829	-0.030085	3.311469	1.000000	-0.000007	0.000038	-0.000077	-0.101789	-10.614403	-178.093443
02692	2.425111	-0.045827	12.893018	-0.010094	0.022765	3.306480	1.000000	-0.000000	0.000046	-0.000069	-0.100316	-10.609142	-178.101504
02693	2.397250	-0.050157	12.914652	0.019937	0.028368	3.322622	1.000000	-0.000007	0.000045	-0.000085	-0.099137	-10.604056	-178.111425
02694	2.449564	-0.040705	12.872030	-0.040080	0.017226	3.290338	1.000000	-0.000007	0.000038	-0.000077	-0.098232	-10.599741	-178.120423
02695	2.421710	-0.045160	12.893660	-0.010022	0.022766	3.306480	1.000000	-0.000008	0.000053	-0.000070	-0.097844	-10.593898	-178.128515
02696	2.413332	-0.021167	12.917875	0.002234	-0.000646	3.328702	1.000000	0.000001	0.000038	-0.000069	-0.096296	-10.589508	-178.136569
02697	2.423833	-0.068675	12.894336	-0.014980	0.046570	3.307571	1.000000	-0.000007	0.000045	-0.000077	-0.095763	-10.584571	-178.145520
02698	2.394646	-0.048873	12.891420	0.012808	0.027816	3.299310	1.000000	-0.000007	0.000030	-0.000062	-0.095214	-10.581135	-178.152729
02699	2.417431	-0.044354	12.894465	-0.009903	0.022518	3.306481	1.000000	-0.000008	0.000053	-0.000077	-0.095294	-10.575309	-178.161590
02700	2.420718	-0.067959	12.894925	-0.014921	0.046386	3.307572	1.000000	0.000016	0.000032	-0.000053	-0.092381	-10.571639	-178.167750
02701	2.391498	-0.047926	12.892008	0.012973	0.027329	3.299311	1.000000	-0.000008	0.000045	-0.000070	-0.093137	-10.566878	-178.175611
02702	2.421402	-0.066966	12.871090	-0.022053	0.045627	3.284261	1.000000	0.000007	0.000047	-0.000069	-0.090811	-10.561535	-178.183619
02703	2.414597	-0.066985	12.919789	-0.007403	0.046119	3.330887	1.000000	0.000008	0.000039	-0.000061	-0.090502	-10.557773	-178.190333
02704	2.444599	-0.085981	12.898863	-0.042427	0.064417	3.315838	1.000000	-0.000001	0.000046	-0.000054	-0.089467	-10.552528	-178.196609
02705	2.436161	-0.061873	12.923078	-0.029979	0.040405	3.338059	1.000000	0.000007	0.000047	-0.000061	-0.090042	-10.547942	-178.203274
02706	2.437930	-0.061242	12.899042	-0.037215	0.039951	3.314747	1.000000	-0.000000	0.000038	-0.000054	-0.088931	-10.543568	-178.209544
02707	2.433879	-0.061100	12.923512	-0.029710	0.039629	3.338062	1.000000	0.000007	0.000054	-0.000076	-0.089945	-10.538389	-178.217937
02708	2.426525	-0.012107	12.899021	-0.026915	-0.008560	3.312560	1.000000	0.000022	0.000056	-0.000060	-0.086202	-10.532017	-178.224952
02709	2.398407	-0.016196	12.920662	0.003484	-0.003984	3.328701	1.000000	-0.000001	0.000054	-0.000069	-0.089287	-10.527432	-178.232286
02710	2.426604	-0.010922	12.875304	-0.033769	-0.010006	3.289249	1.000000	-0.000000	0.000054	-0.000077	-0.087713	-10.521276	-178.241234
02711	2.420819	0.013355	12.875303	-0.028241	-0.034381	3.288152	1.000000	-0.000008	0.000053	-0.000077	-0.089294	-10.517395	-178.249738
02712	2.397244	-0.015086	12.897169	-0.003249	-0.004951	3.305389	1.000000	-0.000000	0.000046	-0.000069	-0.087850	-10.512129	-178.257791
02713	2.427006	-0.034146	12.876322	-0.037482	0.012317	3.290351	1.000000	-0.000008	0.000061	-0.000085	-0.091739	-10.508557	-178.266450
02714	2.399018	-0.038561	12.897923	-0.007464	0.017865	3.306490	1.000000	0.000001	0.000038	-0.000069	-0.090277	-10.504193	-178.274477
02715	2.421769	-0.033748	12.901009	-0.029660	0.011971	3.313664	1.000000	0.000001	0.000046	-0.000084	-0.091927	-10.501311	-178.283764
02716	2.444419	-0.028937	12.904117	-0.052424	0.006834	3.320837	1.000000	-0.000000	0.000046	-0.000069	-0.090555	-10.496065	-178.291794
02717	2.443342	-0.028690	12.904322	-0.051219	0.006227	3.320842	1.000000	-0.000007	0.000038	-0.000069	-0.092709	-10.496980	-178.298388
02718	2.418423	-0.032783	12.901639	-0.028435	0.011330	3.313667	1.000000	0.000007	0.000047	-0.000069	-0.090462	-10.491707	-178.306371
02719	2.472128	-0.047219	12.883687	-0.085345	0.023871	3.305818	1.000000	-0.000001	0.000054	-0.000069	-0.092047	-10.489358	-178.313815
02720	2.436887	-0.027907	12.929239	-0.043051	0.005999	3.344156	1.000000	-0.000000	0.000038	-0.000054	-0.090997	-10.485034	-178.320066
02721	2.449021	-0.050726	12.856970	-0.068511	0.027777	3.275341	1.000000	0.000008	0.000039	-0.000061	-0.092366	-10.486180	-178.326216
02722	2.464407	-0.022055	12.884055	-0.078991	-0.000782	3.304721	1.000000	0.000007	0.000047	-0.000061	-0.090334	-10.480923	-178.333308
02723	2.431926	-0.002252	12.905378	-0.041888	-0.019791	3.319750	1.000000	0.000007	0.000054	-0.000076	-0.091307	-10.483745	-178.340414
02724	2.431872	0.022800	12.856898	-0.051332	-0.044564	3.272026	1.000000	0.000006	0.000054	-0.000061	-0.089389	-10.477727	-178.347502
02725	2.455969	0.003286	12.884551	-0.069748	-0.026162	3.303634	1.000000	-0.000008	0.000045	-0.000070	-0.092551	-10.481695	-178.354122
02726	2.396783	0.017858	12.927187	-0.004636	-0.038927	3.334765	1.000000	-0.000016	0.000052	-0.000070	-0.092994	-10.475940	-178.362262
02727	2.434094	-0.025129	12.882386	-0.049714	0.002077	3.297570	1.000000	-0.000008	0.000045	-0.000062	-0.096154	-10.480489	-178.368246
02728	2.408908	-0.029474	12.879731	-0.026890	0.007172	3.290381	1.000000	-0.000009	0.000061	-0.000077	-0.095627	-10.473823	-178.377223
02729	2.452191	-0.020792	12.910071	-0.062731	-0.002808	3.328076	1.000000	-0.000016	0.000052	-0.000062	-0.097282	-10.478540	-178.382597
02730	2.407568	-0.053770	12.904776	-0.022131	0.031273	3.314805	1.000000	-0.000010	0.000061	-0.000062	-0.097208	-10.472033	-178.389785
02731	2.406111	-0.053660	12.905049	-0.020699	0.030994	3.314808	1.000000	-0.000008	0.000053	-0.000077	-0.097923	-10.472247	-178.398701
02732	2.636867	-0.060378	12.859436	-0.257274	0.031273	3.311894	1.000000	-0.000009	0.000053	-0.000062	-0.097801	-10.466671	-178.405873
02733	2.404764	-0.077837	12.930093	-0.015218	0.054122	3.339236	1.000000	-0.000017	0.000067	-0.000070	-0.103826	-10.472543	-178.413248
02734	2.517231	0.017464	12.871600	-0.135636	-0.044458	3.301978	1.000000	-0.000004	0.000084	-0.000062	-0.103252	-10.463538	-178.420363
02735	2.383078	-0.130351	12.952658	0.008419	0.106485	3.357582	1.000000	-0.000003	0.000069	-0.000062	-0.106563	-10.470852	-178.425901
02736	2.366271	-0.033840	12.927681	0.021372	0.010523	3.329792	1.000000	-0.000002	0.000069	-0.000069	-0.105640	-10.463666	-178.433887
02737	2.312400	-0.118290	12.871524	0.062640	0.094863	3.264942	1.000000	0.000013	0.000070	-0.000068	-0.111013	-10.467010	-178.443049
02738	2.374821	-0.080651	12.904607	0.006876	0.055961	3.308745	1.000000	-0.000002	0.000054	-0.000054	-0.110515	-10.461741	-178.449188
02739	2.296220	-0.045363	12.871203	0.080525	0.022126	3.261546	1.000000	0.000017	0.000032	-0.000083	-0.111743	-10.469573	-178.457054
02740	2.314505	-0.016097	12.874064	0.063009	-0.006965	3.267630	1.000000	0.000015	0.000047	-0.000068	-0.109042	-10.465097	-178.464854
02741	2.362685	-0.030821	12.904648	0.021591	0.006425	3.306485	1.000000	0.000001	0.000031	-0.000069	-0.110530	-10.469442	-178.470732
02742	2.390218	-0.049939	12.908016	-0.005956	0.025070	3.314836	1.000000	0.000001	0.000031	-0.000069	-0.109361	-10.466887	-178.478636
02743	2.410279	-0.045218	12.935351	-0.018487	0.018661	3.345356	1.000000	0.000009	0.000032	-0.000076	-0.114698	-10.476022	-178.486274
02744	2.428964	-0.016176	12.938146	-0.035950	-0.010450	3.351443	1.000000	0.000003	0.000016	-0.000077	-0.113262	-10.475408	-178.495020
02745	2.434270	-0.015178	12.889792	-0.048244	-0.012476	3.304864	1.000000	0.000002	0.000031	-0.000077	-0.116968	-10.481922	-178.502315
02746	2.427467	-0.015256	12.938428	-0.033342	-0.011759	3.351449	1.000000	0.000002	0.000039	-0.000100	-0.115171	-10.478783	-178.513742
02747	2.432591	-0.014297	12.890110	-0.045897	-0.013487	3.304872	1.000000	-0.000005	0.000023	-0.000077	-0.118286	-10.485140	-178.521001
02748	2.408099	-0.018525	12.887282	-0.022844	-0.008489	3.297642	1.000000	0.000001	0.000031	-0.000069	-0.117286	-10.482942	-178.528850
02749	2.411766	-0.042323	12.887719	-0.025058	0.014564	3.298791	1.000000	-0.000014	0.000037	-0.000078	-0.121202	-10.491007	-178.534866
02750	2.415458	-0.066264	12.888153	-0.029740	0.038293	3.299938	1.000000	-0.000013	0.000030	-0.000085	-0.121514	-10.489102	-178.544598
02751	2.389302	-0.046293	12.860829	-0.006337	0.016564	3.268272	1.000000	0.000002	0.000031	-0.000077	-0.131642	-10.498341	-178.555293
02752	2.433155	-0.037040	12.891138	-0.044141	0.006545	3.306042	1.000000	0.000002	0.000031	-0.000084	-0.130400	-10.496392	-178.564862
02753	2.432258	-0.036558	12.891308	-0.041950	0.005112	3.306050	1.000000	0.000008	0.000039	-0.000061	-0.134922	-10.501442	-178.572042
02754	2.452095	-0.031813	12.918697	-0.056978	0.000199	3.336581	1.000000	0.000002	0.000039	-0.000084	-0.133852	-10.498731	-178.581588
02755	2.477777	-0.026671	12.897643	-0.084338	-0.005917	3.320558	1.000000	-0.000002	0.000046	-0.000039	-0.136100	-10.505370	-178.582352
02756	2.478186	-0.050700	12.922378	-0.081601	0.018161	3.345004	1.000000	-0.000000	0.000046	-0.000069	-0.135561	-10.501935	-178.590117
02757	2.472399	-0.026041	12.922337	-0.072995	-0.007466	3.343864	1.000000	0.000029	0.000049	-0.000052	-0.139382	-10.511935	-178.594456
02758	2.447370	-0.029886	12.919598	-0.049799	-0.002550	3.336610	1.000000	0.000007	0.000047	-0.000053	-0.138509	-10.508569	-178.600354
02759	2.468272	-0.000628	12.898315	-0.071277	-0.032804	3.319439	1.000000	0.000006	0.000054	-0.000053	-0.140855	-10.518025	-178.601836
02760	2.411724	0.014333	12.916570	-0.012952	-0.046212	3.327027	1.000000	0.000006	0.000054	-0.000053	-0.140084	-10.513930	-178.607734
02761	2.434027	0.019187	12.919832	-0.032479	-0.052953	3.334292	1.000000	-0.000003	0.000061	-0.000046	-0.147026	-10.520952	-178.613425
02762	2.385152	0.010182	12.914101	0.013525	-0.042930	3.319755	1.000000	-0.000001	0.000038	-0.000038	-0.147517	-10.518888	-178.617537
02763	2.382470	0.034638	12.889792	0.012292	-0.065846	3.295311	1.000000	-0.000001	0.000046	-0.000054	-0.140525	-10.518620	-178.618447
02764	2.414241	-0.008506	12.893565	-0.019931	-0.023487	3.304923	1.000000	-0.000001	0.000046	-0.000054	-0.140577	-10.515738	-178.624379
02765	2.384499	0.010957	12.890545	0.010943	-0.043725	3.296473	1.000000	-0.000017	0.000060	-0.000070	-0.148141	-10.522494	-178.633042
02766	2.395414	-0.036656	12.867114	-0.005882	0.003350	3.275548	1.000000	-0.000006	0.000038	-0.000077	-0.148415	-10.520666	-178.641664
02767	2.419834	-0.056151	12.894801	-0.023610	0.021029	3.307284	1.000000	-0.000007	0.000038	-0.000070	-0.154530	-10.527887	-178.651218
02768	2.442657	-0.051373	12.897982	-0.045750	0.015619	3.314568	1.000000	-0.000006	0.000038	-0.000077	-0.154891	-10.526124	-178.659811
02769	2.436992	-0.027173	12.897903	-0.039496	-0.008329	3.313391	1.000000	-0.000007	0.000045	-0.000085	-0.154373	-10.526380	-178.669441
02770	2.488111	-0.041837	12.904392	-0.089369	0.004981	3.329146	1.000000	-0.000015	0.000037	-0.000070	-0.155826	-10.524752	-178.677193
02771	2.472492	-0.094377	12.902151	-0.073303	0.057220	3.324245	1.000000	-0.000014	0.000045	-0.000085	-0.158807	-10.534479	-178.684147
02772	2.466635	-0.070289	12.902110	-0.067645	0.033072	3.323065	1.000000	-0.000008	0.000053	-0.000077	-0.159395	-10.531191	-178.692736
02773	2.444690	-0.074317	12.875098	-0.050418	0.038436	3.292509	1.000000	0.000001	0.000039	-0.000077	-0.155001	-10.535166	-178.696889
02774	2.443710	-0.073914	12.875287	-0.049763	0.038162	3.292512	1.000000	0.000001	0.000039	-0.000077	-0.154519	-10.533611	-178.705425
02775	2.439618	-0.073840	12.899719	-0.038753	0.037031	3.315796	1.000000	-0.000000	0.000046	-0.000069	-0.160287	-10.544169	-178.712952
02776	2.438440	-0.073506	12.899944	-0.038066	0.036739	3.315799	1.000000	-0.000000	0.000046	-0.000069	-0.160184	-10.541883	-178.720577
02777	2.468678	-0.092144	12.879247	-0.070576	0.053429	3.301047	1.000000	0.000007	0.000047	-0.000061	-0.165702	-10.547873	-178.729683
02778	2.443510	-0.096263	12.876496	-0.047156	0.058263	3.293744	1.000000	0.000007	0.000062	-0.000076	-0.164768	-10.543818	-178.738133
02779	2.431540	-0.072369	12.924909	-0.024393	0.033760	3.339087	1.000000	0.000008	0.000039	-0.000061	-0.169235	-10.552202	-178.745457
02780	2.425594	-0.047811	12.924872	-0.018645	0.009570	3.337889	1.000000	0.000014	0.000063	-0.000068	-0.167735	-10.548187	-178.752936
02781	2.427025	-0.047050	12.900950	-0.024886	0.008776	3.314630	1.000000	-0.000002	0.000061	-0.000062	-0.168560	-10.546190	-178.759654
02782	2.423826	-0.022419	12.876738	-0.026550	-0.015797	3.290170	1.000000	0.000006	0.000062	-0.000069	-0.167909	-10.542234	-178.767192
02783	2.447621	-0.041546	12.904585	-0.043303	0.001711	3.321961	1.000000	0.000006	0.000062	-0.000069	-0.173249	-10.550723	-178.774372
02784	2.414564	-0.022037	12.925785	-0.007406	-0.016965	3.336692	1.000000	0.000006	0.000062	-0.000069	-0.172672	-10.546896	-178.781886
02785	2.384634	-0.002205	12.922736	0.023676	-0.035994	3.328155	1.000000	0.000007	0.000054	-0.000076	-0.171928	-10.555428	-178.785312
02786	2.390937	-0.025442	12.899063	0.012034	-0.012857	3.306106	1.000000	-0.000001	0.000054	-0.000069	-0.172143	-10.552738	-178.792869
02787	2.361219	-0.005724	12.895966	0.042681	-0.031425	3.297557	1.000000	0.000002	0.000046	-0.000100	-0.169410	-10.560303	-178.797289
02788	2.359814	-0.005128	12.896223	0.043496	-0.031760	3.297554	1.000000	0.000014	0.000063	-0.000068	-0.167954	-10.556664	-178.804756
02789	2.388488	-0.048352	12.924333	0.022305	0.010402	3.330561	1.000000	-0.000015	0.000045	-0.000078	-0.171910	-10.569682	-178.808020
02790	2.398701	0.004030	12.951235	0.017935	-0.042432	3.358726	1.000000	-0.000007	0.000045	-0.000077	-0.172667	-10.568202	-178.816523
02791	2.375188	0.024098	12.899664	0.032361	-0.062552	3.303657	1.000000	-0.000007	0.000045	-0.000077	-0.174895	-10.569871	-178.825819
02792	2.402656	0.005044	12.903193	0.005499	-0.044191	3.312220	1.000000	-0.000005	0.000030	-0.000085	-0.175294	-10.570181	-178.835189
02793	2.425650	0.009854	12.906394	-0.016588	-0.049802	3.319568	1.000000	-0.000014	0.000029	-0.000070	-0.177488	-10.569516	-178.845596
02794	2.440897	0.038302	12.933526	-0.025959	-0.078791	3.348948	1.000000	-0.000006	0.000030	-0.000077	-0.178133	-10.569847	-178.854066
02795	2.457255	-0.033109	12.910329	-0.045502	-0.008871	3.329369	1.000000	-0.000013	0.000029	-0.000085	-0.183817	-10.579426	-178.864682
02796	2.451716	-0.009245	12.910197	-0.039583	-0.033101	3.328147	1.000000	-0.000023	0.000036	-0.000063	-0.186770	-10.579184	-178.871465
02797	2.428520	-0.038102	12.931847	-0.012406	-0.005956	3.345262	1.000000	0.000007	0.000047	-0.000061	-0.194901	-10.582591	-178.886111
02798	2.482523	-0.052076	12.914296	-0.069373	0.006838	3.337971	1.000000	-0.000009	0.000053	-0.000062	-0.196418	-10.580459	-178.892761
02799	2.431998	-0.037021	12.883910	-0.024854	-0.008055	3.298775	1.000000	-0.000001	0.000054	-0.000069	-0.199519	-10.581102	-178.903781
02800	2.432355	-0.060984	12.908663	-0.021496	0.015766	3.323254	1.000000	-0.000001	0.000046	-0.000061	-0.200151	-10.579809	-178.910347
02801	2.434345	-0.060432	12.884650	-0.026112	0.014579	3.300017	1.000000	-0.000001	0.000038	-0.000046	-0.203171	-10.587860	-178.914050
02802	2.423633	-0.012204	12.884308	-0.015152	-0.033557	3.297544	1.000000	0.000006	0.000062	-0.000061	-0.203143	-10.584809	-178.920567
02803	2.423596	-0.036229	12.909134	-0.010702	-0.010629	3.322024	1.000000	-0.000010	0.000068	-0.000062	-0.208974	-10.585648	-178.930673
02804	2.395380	-0.040992	12.930529	0.020397	-0.005544	3.337889	1.000000	0.000008	0.000039	-0.000061	-0.208745	-10.585215	-178.937148
02805	2.419412	-0.011639	12.885102	-0.009492	-0.036305	3.297542	1.000000	-0.000025	0.000051	-0.000055	-0.215208	-10.591300	-178.943320
02806	2.400768	-0.064616	12.907056	0.011603	0.016493	3.315890	1.000000	-0.000001	0.000046	-0.000061	-0.215968	-10.590157	-178.949845
02807	2.415525	-0.035971	12.934287	0.003634	-0.012580	3.345263	1.000000	-0.000001	0.000046	-0.000061	-0.216759	-10.594684	-178.954891
02808	2.398318	-0.064161	12.907513	0.014800	0.015637	3.315888	1.000000	-0.000009	0.000053	-0.000062	-0.218479	-10.592832	-178.961474
02809	2.420700	-0.059216	12.910862	-0.006472	0.009957	3.323275	1.000000	-0.000000	0.000054	-0.000077	-0.219337	-10.592884	-178.970866
02810	2.400505	-0.087592	12.908285	0.012180	0.038527	3.317137	1.000000	-0.000000	0.000038	-0.000054	-0.220272	-10.592721	-178.976477
02811	2.394686	-0.063305	12.908192	0.019356	0.014095	3.315883	1.000000	0.000001	0.000046	-0.000084	-0.221077	-10.596914	-178.984563
02812	2.402990	-0.110920	12.909006	0.010315	0.061369	3.318391	1.000000	-0.000002	0.000046	-0.000039	-0.222551	-10.595932	-178.988395
02813	2.397167	-0.086683	12.908911	0.018106	0.037192	3.317134	1.000000	0.000002	0.000039	-0.000084	-0.222172	-10.603727	-178.992866
02814	2.402488	-0.085648	12.860650	0.004107	0.036040	3.270672	1.000000	0.000001	0.000031	-0.000069	-0.222594	-10.604547	-179.000249
02815	2.393938	-0.061543	12.884699	0.017160	0.011545	3.292646	1.000000	0.000010	0.000024	-0.000069	-0.224470	-10.604092	-179.012744
02816	2.447036	-0.099775	12.915873	-0.029738	0.048846	3.333203	1.000000	0.000001	0.000038	-0.000069	-0.225013	-10.604033	-179.020123
02817	2.415990	-0.055869	12.888125	-0.003289	0.004469	3.300050	1.000000	0.000009	0.000032	-0.000069	-0.229164	-10.605747	-179.032770
02818	2.467321	-0.069590	12.894819	-0.052673	0.017551	3.316128	1.000000	0.000017	0.000040	-0.000083	-0.227605	-10.605510	-179.041803
02819	2.461542	-0.044925	12.894716	-0.044959	-0.007667	3.314873	1.000000	0.000009	0.000039	-0.000076	-0.231246	-10.612822	-179.050571
02820	2.476306	-0.016010	12.921951	-0.054105	-0.036824	3.344246	1.000000	0.000001	0.000046	-0.000084	-0.231536	-10.611963	-179.059710
02821	2.451543	-0.020058	12.919033	-0.029511	-0.033012	3.336834	1.000000	0.000025	0.000033	-0.000075	-0.233252	-10.616471	-179.070790
02822	2.453539	-0.019082	12.895034	-0.036003	-0.033843	3.313610	1.000000	-0.000001	0.000054	-0.000069	-0.234117	-10.614783	-179.078137
02823	2.423629	0.000492	12.891876	-0.007169	-0.053629	3.304916	1.000000	0.000007	0.000054	-0.000069	-0.236785	-10.613502	-179.089469
02824	2.453867	-0.017842	12.871355	-0.041357	-0.035757	3.290388	1.000000	0.000007	0.000054	-0.000069	-0.236824	-10.611713	-179.096749
02825	2.415846	0.025377	12.892133	0.000390	-0.077892	3.303637	1.000000	-0.000001	0.000069	-0.000085	-0.234814	-10.610546	-179.102416
02826	2.395513	-0.002989	12.889571	0.019087	-0.049368	3.297489	1.000000	0.000001	0.000038	-0.000069	-0.235522	-10.610614	-179.109741
02827	2.394421	-0.002602	12.889774	0.021612	-0.049311	3.297485	1.000000	0.000001	0.000046	-0.000084	-0.233519	-10.616432	-179.112775
02828	2.416945	0.002767	12.893130	-0.000025	-0.054963	3.304912	1.000000	0.000015	0.000048	-0.000068	-0.232579	-10.615516	-179.120001
02829	2.410936	0.027202	12.893048	0.005785	-0.079455	3.303627	1.000000	-0.000001	0.000046	-0.000062	-0.234204	-10.613721	-179.129608
02830	2.416218	-0.020678	12.918098	0.004339	-0.031898	3.329411	1.000000	-0.000000	0.000046	-0.000069	-0.234996	-10.612962	-179.136943
02831	2.413370	0.003784	12.893800	0.002949	-0.056066	3.304907	1.000000	-0.000008	0.000045	-0.000062	-0.234550	-10.612758	-179.142090
02832	2.432877	0.008520	12.921352	-0.011149	-0.061388	3.335560	1.000000	0.000001	0.000039	-0.000077	-0.235023	-10.612870	-179.150312
02833	2.431882	0.008849	12.921539	-0.009975	-0.061335	3.335561	1.000000	-0.000000	0.000038	-0.000054	-0.233733	-10.613608	-179.154468
02834	2.457669	0.014206	12.900678	-0.039151	-0.067320	3.319782	1.000000	-0.000007	0.000045	-0.000077	-0.235135	-10.612941	-179.162761
02835	2.459544	0.014661	12.876711	-0.045186	-0.068242	3.296568	1.000000	-0.000009	0.000053	-0.000062	-0.237569	-10.613483	-179.170463
02836	2.452080	0.014114	12.925351	-0.029050	-0.068078	3.343000	1.000000	-0.000007	0.000038	-0.000062	-0.239347	-10.613707	-179.176957
02837	2.454076	0.014385	12.901362	-0.034988	-0.068237	3.319789	1.000000	-0.000023	0.000051	-0.000078	-0.239632	-10.614895	-179.182584
02838	2.413273	-0.019019	12.871411	-0.001164	-0.034870	3.282970	1.000000	-0.000016	0.000052	-0.000070	-0.242205	-10.613495	-179.190050
02839	2.394830	-0.072169	12.893311	0.020293	0.017578	3.301319	1.000000	-0.000022	0.000044	-0.000078	-0.246580	-10.613960	-179.201431
02840	2.420382	-0.067155	12.872508	-0.008882	0.011588	3.285557	1.000000	-0.000017	0.000060	-0.000070	-0.249268	-10.611698	-179.208897
02841	2.414109	-0.043310	12.872469	-0.001848	-0.013545	3.284261	1.000000	-0.000016	0.000052	-0.000070	-0.255439	-10.614582	-179.219263
02842	2.438172	-0.062796	12.900398	-0.020901	0.004964	3.316228	1.000000	-0.000016	0.000052	-0.000070	-0.258093	-10.613241	-179.226702
02843	2.481095	-0.053383	12.931192	-0.056747	-0.005050	3.354361	1.000000	-0.000008	0.000053	-0.000077	-0.257463	-10.615620	-179.232027
02844	2.418196	-0.115735	12.922577	0.002301	0.057656	3.334584	1.000000	-0.000017	0.000060	-0.000070	-0.260197	-10.613448	-179.239478
02845	2.415149	-0.091239	12.898321	0.000605	0.033059	3.310074	1.000000	0.000008	0.000047	-0.000076	-0.259537	-10.611823	-179.249721
02846	2.413854	-0.090724	12.898567	0.001671	0.032548	3.310075	1.000000	0.000006	0.000054	-0.000061	-0.259842	-10.610243	-179.256095
02847	2.388747	-0.095128	12.895654	0.025719	0.037339	3.302609	1.000000	0.000006	0.000054	-0.000061	-0.259570	-10.610083	-179.262408
02848	2.411166	-0.089804	12.899076	0.004126	0.031659	3.310077	1.000000	0.000007	0.000047	-0.000061	-0.259795	-10.609391	-179.268771
02849	2.362653	-0.099122	12.892920	0.050793	0.041846	3.295135	1.000000	0.000001	0.000039	-0.000069	-0.258965	-10.610893	-179.274929
02850	2.404009	-0.064946	12.899198	0.011553	0.007140	3.308768	1.000000	0.000014	0.000055	-0.000068	-0.258191	-10.609250	-179.282137
02851	2.360144	-0.097953	12.893388	0.053444	0.039975	3.295130	1.000000	0.000014	0.000048	-0.000053	-0.261607	-10.610665	-179.291109
02852	2.382853	-0.092592	12.896762	0.031860	0.034286	3.302603	1.000000	0.000001	0.000031	-0.000069	-0.262333	-10.611832	-179.298389
02853	2.400663	-0.063086	12.899830	0.015018	0.004426	3.308766	1.000000	0.000030	0.000049	-0.000060	-0.261407	-10.609704	-179.307911
02854	2.423326	-0.057302	12.903220	-0.006568	-0.001268	3.316244	1.000000	0.000017	0.000032	-0.000068	-0.260437	-10.610676	-179.315069
02855	2.446106	-0.051695	12.906590	-0.027453	-0.007808	3.323726	1.000000	0.000015	0.000040	-0.000060	-0.263611	-10.613815	-179.324038
02856	2.440093	-0.027046	12.906487	-0.021369	-0.032203	3.322407	1.000000	0.000016	0.000048	-0.000076	-0.262633	-10.613065	-179.332094
02857	2.435778	-0.026666	12.930902	-0.012395	-0.032461	3.345608	1.000000	0.000009	0.000039	-0.000084	-0.262354	-10.614588	-179.341457
02858	2.436166	-0.001477	12.882389	-0.021502	-0.057472	3.297884	1.000000	0.000008	0.000047	-0.000076	-0.262241	-10.613932	-179.349569
02859	2.436754	-0.025135	12.907122	-0.017188	-0.034103	3.322408	1.000000	0.000009	0.000039	-0.000076	-0.263233	-10.616958	-179.358025
02860	2.462468	-0.019467	12.886349	-0.046360	-0.040119	3.306701	1.000000	-0.000007	0.000053	-0.000093	-0.264495	-10.615625	-179.368043
02861	2.385273	-0.009858	12.876639	0.029176	-0.048706	3.282894	1.000000	0.000008	0.000039	-0.000069	-0.263256	-10.622422	-179.370221
02862	2.439680	-0.023065	12.859382	-0.027648	-0.036036	3.276018	1.000000	0.000008	0.000047	-0.000076	-0.263158	-10.621845	-179.378328
02863	2.403457	-0.004248	12.904476	0.016596	-0.054150	3.313581	1.000000	0.000000	0.000046	-0.000077	-0.261668	-10.622563	-179.384473
02864	2.402356	-0.003812	12.904681	0.017695	-0.054690	3.313577	1.000000	0.000008	0.000039	-0.000061	-0.261916	-10.622869	-179.390790
02865	2.406174	-0.027261	12.905212	0.014480	-0.031122	3.314907	1.000000	0.000001	0.000046	-0.000084	-0.261367	-10.625456	-179.397372
02866	2.423749	0.002024	12.908325	-0.002052	-0.060695	3.321076	1.000000	0.000007	0.000047	-0.000061	-0.261701	-10.624923	-179.403699
02867	2.451455	-0.016453	12.912040	-0.028271	-0.042869	3.329917	1.000000	0.000009	0.000024	-0.000061	-0.263215	-10.628446	-179.412303
02868	2.416980	0.027015	12.908343	0.005500	-0.085954	3.319731	1.000000	0.000014	0.000048	-0.000053	-0.262935	-10.627829	-179.417672
02869	2.447702	0.008927	12.887902	-0.027860	-0.068132	3.305389	1.000000	0.000008	0.000039	-0.000061	-0.263321	-10.631735	-179.422750
02870	2.439845	0.057553	12.863274	-0.024357	-0.116691	3.279515	1.000000	0.000006	0.000054	-0.000061	-0.263774	-10.630365	-179.429076
02871	2.440357	0.033694	12.888028	-0.020372	-0.093815	3.304040	1.000000	0.000000	0.000038	-0.000061	-0.268216	-10.631947	-179.439858
02872	2.557734	0.058501	12.904364	-0.132474	-0.120252	3.341629	1.000000	-0.000016	0.000045	-0.000063	-0.271192	-10.631728	-179.446338
02873	2.466659	0.014769	12.892028	-0.045759	-0.076150	3.312903	1.000000	-0.000010	0.000053	-0.000047	-0.273425	-10.630699	-179.452273
02874	2.600663	0.092658	12.886842	-0.178119	-0.155775	3.332150	1.000000	-0.000009	0.000061	-0.000077	-0.275282	-10.628647	-179.460496
02875	2.368609	-0.005080	12.879718	0.047377	-0.055595	3.282813	1.000000	-0.000027	0.000082	-0.000063	-0.275273	-10.625666	-179.463430
02876	2.427830	0.057447	12.889131	-0.009411	-0.119398	3.302685	1.000000	-0.000009	0.000068	-0.000078	-0.277196	-10.622753	-179.471670
02877	2.347940	-0.058513	12.902001	0.071052	-0.003029	3.301153	1.000000	-0.000033	0.000066	-0.000071	-0.279814	-10.625311	-179.475057
02878	2.366589	-0.005420	12.856489	0.044268	-0.057059	3.259607	1.000000	-0.000023	0.000059	-0.000086	-0.283136	-10.623490	-179.484299
02879	2.326193	-0.087848	12.899629	0.091684	0.024938	3.294955	1.000000	-0.000016	0.000052	-0.000078	-0.285624	-10.625757	-179.492390
02880	2.400980	-0.096997	12.909930	0.019897	0.032692	3.318914	1.000000	-0.000023	0.000044	-0.000071	-0.289231	-10.625707	-179.499822
02881	2.337133	-0.135581	12.876494	0.076755	0.071773	3.274468	1.000000	-0.000014	0.000037	-0.000078	-0.289369	-10.628596	-179.505802
02882	2.403985	-0.121076	12.910622	0.017642	0.055957	3.320268	1.000000	-0.000015	0.000037	-0.000055	-0.292471	-10.629347	-179.511382
02883	2.381082	-0.150263	12.932062	0.044770	0.084530	3.337264	1.000000	-0.000006	0.000038	-0.000077	-0.294972	-10.633112	-179.519931
02884	2.420952	-0.091742	12.913879	0.003010	0.025602	3.326454	1.000000	0.000010	0.000024	-0.000076	-0.294676	-10.635358	-179.527983
02885	2.453901	-0.134049	12.917929	-0.027430	0.067602	3.336729	1.000000	0.000001	0.000031	-0.000069	-0.295430	-10.641538	-179.533017
02886	2.466722	-0.080901	12.920704	-0.038883	0.014142	3.341557	1.000000	0.000001	0.000039	-0.000069	-0.296397	-10.642170	-179.540254
02887	2.440430	-0.061253	12.893092	-0.017169	-0.005146	3.309467	1.000000	0.000002	0.000031	-0.000077	-0.296055	-10.646273	-179.546360
02888	2.415771	-0.065891	12.890015	0.006616	-0.000520	3.301913	1.000000	-0.000001	0.000046	-0.000062	-0.297335	-10.646057	-179.552715
02889	2.412946	-0.041259	12.865700	0.005249	-0.025477	3.277369	1.000000	0.000008	0.000039	-0.000061	-0.298832	-10.647238	-179.561903
02890	2.411863	-0.040918	12.865904	0.006403	-0.026043	3.277367	1.000000	-0.000007	0.000045	-0.000077	-0.300538	-10.647110	-179.570097
02891	2.435989	-0.059787	12.893938	-0.012570	-0.007242	3.309471	1.000000	0.000007	0.000055	-0.000076	-0.298743	-10.645207	-179.577605
02892	2.409380	-0.039973	12.866372	0.008542	-0.026754	3.277364	1.000000	0.000009	0.000039	-0.000076	-0.298641	-10.645767	-179.585671
02893	2.428494	-0.034917	12.894080	-0.005178	-0.032058	3.308099	1.000000	-0.000008	0.000061	-0.000085	-0.299545	-10.644202	-179.594795
02894	2.432128	-0.058419	12.894673	-0.009035	-0.008770	3.309473	1.000000	0.000008	0.000047	-0.000076	-0.299534	-10.643895	-179.602871
02895	2.422637	-0.034399	12.918758	0.005173	-0.032510	3.331268	1.000000	0.000000	0.000046	-0.000077	-0.298596	-10.645231	-179.608563
02896	2.431387	-0.081734	12.919670	-0.003693	0.014631	3.334022	1.000000	0.000007	0.000055	-0.000069	-0.298892	-10.644068	-179.615759
02897	2.424953	-0.057216	12.919604	0.002983	-0.010092	3.332643	1.000000	0.000015	0.000055	-0.000076	-0.299481	-10.645006	-179.624875
02898	2.394837	-0.037583	12.916250	0.031782	-0.029324	3.323686	1.000000	0.000015	0.000055	-0.000084	-0.298490	-10.643766	-179.633790
02899	2.388476	-0.012941	12.916161	0.038012	-0.053623	3.322300	1.000000	0.000015	0.000048	-0.000068	-0.297309	-10.643637	-179.640291
02900	2.382295	0.011791	12.916035	0.044192	-0.078048	3.320910	1.000000	0.000024	0.000041	-0.000075	-0.295511	-10.644058	-179.648231
02901	2.384462	0.012769	12.892053	0.037455	-0.077913	3.297743	1.000000	-0.000001	0.000046	-0.000062	-0.292448	-10.642998	-179.651165
02902	2.383448	0.013260	12.892240	0.038618	-0.078478	3.297736	1.000000	0.000016	0.000032	-0.000060	-0.291841	-10.644380	-179.657378
02903	2.369331	0.061270	12.915880	0.057233	-0.126836	3.318119	1.000000	0.000009	0.000024	-0.000053	-0.293818	-10.645518	-179.667044
02904	2.400718	0.043168	12.895443	0.023060	-0.109019	3.303918	1.000000	0.000001	0.000023	-0.000054	-0.295078	-10.647948	-179.672466
02905	2.403509	0.043845	12.871348	0.016464	-0.109723	3.280749	1.000000	0.000003	0.000016	-0.000061	-0.295422	-10.651046	-179.679667
02906	2.446840	0.053764	12.902262	-0.019896	-0.120415	3.319083	1.000000	-0.000014	0.000037	-0.000070	-0.298129	-10.651913	-179.687015
02907	2.496678	0.064292	12.884824	-0.071762	-0.131266	3.311102	1.000000	-0.000006	0.000022	-0.000062	-0.298321	-10.654059	-179.693353
02908	2.497763	0.040084	12.909484	-0.067899	-0.107716	3.335658	1.000000	-0.000015	0.000029	-0.000055	-0.301385	-10.655800	-179.698906
02909	2.501772	0.016094	12.910029	-0.071382	-0.084455	3.337056	1.000000	-0.000017	0.000052	-0.000063	-0.304590	-10.656533	-179.704875
02910	2.503731	0.016335	12.886104	-0.077933	-0.085297	3.313898	1.000000	-0.000017	0.000052	-0.000063	-0.307708	-10.655675	-179.711350
02911	2.485465	-0.036921	12.907942	-0.055984	-0.031573	3.332264	1.000000	-0.000016	0.000060	-0.000078	-0.305415	-10.656050	-179.714682
02912	2.460178	-0.042062	12.904943	-0.032204	-0.026942	3.324666	1.000000	-0.000018	0.000067	-0.000070	-0.308462	-10.653460	-179.722079
02913	2.411137	-0.052224	12.898642	0.014275	-0.016662	3.309461	1.000000	-0.000010	0.000068	-0.000070	-0.308660	-10.651185	-179.728143
02914	2.414563	-0.076039	12.899292	0.010427	0.006623	3.310859	1.000000	-0.000010	0.000060	-0.000062	-0.310982	-10.649382	-179.734577
02915	2.389354	-0.080951	12.896262	0.034417	0.011317	3.303250	1.000000	-0.000002	0.000061	-0.000069	-0.311969	-10.648426	-179.742441
02916	2.372655	-0.109373	12.869366	0.045444	0.039537	3.273886	1.000000	-0.000009	0.000053	-0.000062	-0.314210	-10.647501	-179.748862
02917	2.386419	-0.080603	12.896808	0.037763	0.010023	3.303242	1.000000	0.000004	0.000062	-0.000038	-0.316228	-10.649957	-179.750810
02918	2.386795	-0.104587	12.921591	0.041661	0.033564	3.327799	1.000000	-0.000001	0.000046	-0.000054	-0.317761	-10.649846	-179.756262
02919	2.380602	-0.080256	12.921455	0.047333	0.009801	3.326390	1.000000	0.000015	0.000040	-0.000060	-0.314311	-10.648130	-179.762664
02920	2.430214	-0.069239	12.904130	-0.004442	-0.001442	3.318469	1.000000	-0.000000	0.000038	-0.000054	-0.315743	-10.648875	-179.768108
02921	2.425993	-0.069288	12.928481	0.004762	-0.001297	3.341621	1.000000	0.000002	0.000031	-0.000069	-0.314619	-10.651743	-179.773959
02922	2.446980	-0.039588	12.907460	-0.019391	-0.031187	3.324681	1.000000	0.000001	0.000039	-0.000069	-0.315595	-10.652493	-179.781190
02923	2.450889	-0.063053	12.908034	-0.023032	-0.007462	3.326094	1.000000	0.000006	0.000054	-0.000061	-0.314143	-10.652291	-179.786651
02924	2.453026	-0.062159	12.884083	-0.029605	-0.008292	3.302946	1.000000	0.000009	0.000039	-0.000076	-0.314033	-10.652951	-179.794715
02925	2.428315	-0.066967	12.880944	-0.005514	-0.003829	3.295321	1.000000	-0.000015	0.000045	-0.000078	-0.317381	-10.654408	-179.804349
02926	2.450782	-0.061565	12.884513	-0.026935	-0.009608	3.302951	1.000000	0.000008	0.000047	-0.000076	-0.317374	-10.654206	-179.812420
02927	2.397298	-0.047387	12.877679	0.024161	-0.023020	3.286274	1.000000	0.000002	0.000039	-0.000092	-0.315020	-10.653668	-179.821611
02928	2.401335	-0.070764	12.878231	0.020317	0.000262	3.287688	1.000000	0.000001	0.000046	-0.000092	-0.315408	-10.653547	-179.831531
02929	2.420536	-0.065564	12.905968	0.006413	-0.005085	3.318468	1.000000	0.000001	0.000039	-0.000077	-0.315371	-10.653234	-179.841627
02930	2.422706	-0.064788	12.882012	-0.000175	-0.005911	3.295321	1.000000	0.000000	0.000054	-0.000085	-0.316077	-10.652234	-179.850665
02931	2.441811	-0.059709	12.909770	-0.013812	-0.011297	3.326104	1.000000	-0.000006	0.000038	-0.000077	-0.317061	-10.653165	-179.858800
02932	2.440627	-0.059272	12.909996	-0.012636	-0.011870	3.326105	1.000000	0.000008	0.000055	-0.000092	-0.316689	-10.652073	-179.868669
02933	2.430910	-0.035126	12.934056	0.001217	-0.036131	3.347824	1.000000	0.000015	0.000040	-0.000053	-0.316812	-10.652156	-179.875058
02934	2.428091	-0.010180	12.909721	-0.000359	-0.060808	3.323253	1.000000	0.000016	0.000040	-0.000076	-0.315862	-10.652717	-179.883054
02935	2.430243	-0.009260	12.885771	-0.006655	-0.060733	3.300113	1.000000	-0.000001	0.000054	-0.000069	-0.313009	-10.653036	-179.886558
02936	2.425669	-0.009127	12.910178	0.002297	-0.061052	3.323252	1.000000	0.000015	0.000040	-0.000060	-0.312491	-10.653608	-179.892776
02937	2.424654	-0.008606	12.910369	0.003822	-0.061521	3.323250	1.000000	0.000001	0.000039	-0.000069	-0.313011	-10.655892	-179.900411
02938	2.421654	0.016149	12.886063	0.002241	-0.086192	3.298676	1.000000	0.000014	0.000055	-0.000068	-0.312454	-10.654728	-179.907542
02939	2.420432	0.016744	12.886292	0.003076	-0.087034	3.298671	1.000000	0.000008	0.000039	-0.000061	-0.314008	-10.653920	-179.917625
02940	2.412494	0.016289	12.934869	0.019820	-0.087115	3.344943	1.000000	-0.000009	0.000053	-0.000062	-0.316259	-10.653029	-179.924043
02941	2.433119	0.046060	12.913936	-0.004165	-0.116707	3.328024	1.000000	0.000015	0.000040	-0.000060	-0.314453	-10.654434	-179.929124
02942	2.440547	0.023084	12.890328	-0.015793	-0.093679	3.306319	1.000000	-0.000000	0.000046	-0.000069	-0.315529	-10.654325	-179.936362
02943	2.444529	-0.000464	12.890912	-0.019775	-0.070104	3.307756	1.000000	-0.000001	0.000046	-0.000062	-0.315492	-10.653608	-179.943391
02944	2.434595	0.023216	12.914989	-0.005787	-0.094285	3.329451	1.000000	-0.000009	0.000061	-0.000070	-0.317606	-10.651846	-179.950713
02945	2.436521	0.023627	12.891088	-0.012850	-0.094781	3.306314	1.000000	-0.000016	0.000052	-0.000078	-0.318818	-10.649092	-179.960142
02946	2.422012	-0.029230	12.888655	0.000871	-0.042442	3.301528	1.000000	-0.000008	0.000045	-0.000062	-0.320974	-10.649064	-179.966550
02947	2.397245	-0.034447	12.885480	0.025111	-0.037803	3.293857	1.000000	-0.000016	0.000044	-0.000055	-0.324227	-10.651256	-179.972266
02948	2.416324	-0.029688	12.913261	0.011504	-0.043355	3.324656	1.000000	-0.000014	0.000045	-0.000086	-0.326569	-10.651329	-179.981410
02949	2.400044	-0.058300	12.886284	0.022641	-0.014923	3.295295	1.000000	-0.000009	0.000053	-0.000062	-0.328006	-10.651317	-179.987271
02950	2.400585	-0.082426	12.911051	0.026604	0.008587	3.319870	1.000000	-0.000008	0.000045	-0.000070	-0.329947	-10.651307	-179.994567
02951	2.397734	-0.058147	12.886715	0.025017	-0.015714	3.295289	1.000000	-0.000014	0.000037	-0.000070	-0.331031	-10.652367	179.999021
02952	2.401885	-0.081946	12.887269	0.021174	0.007557	3.296736	1.000000	-0.000008	0.000045	-0.000070	-0.332969	-10.652359	179.991725
02953	2.424325	-0.076508	12.890894	-0.000308	0.001639	3.304414	1.000000	-0.000000	0.000046	-0.000069	-0.334600	-10.651909	179.981475
02954	2.475864	-0.089628	12.898235	-0.049308	0.014469	3.321229	1.000000	0.000001	0.000023	-0.000054	-0.335870	-10.654421	179.976065
02955	2.422555	-0.075881	12.891230	0.002336	0.000861	3.304414	1.000000	-0.000000	0.000046	-0.000069	-0.335254	-10.655599	179.970317
02956	2.439875	-0.046598	12.894483	-0.014044	-0.028788	3.310644	1.000000	-0.000007	0.000038	-0.000062	-0.337334	-10.656470	179.963928
02957	2.440597	-0.070531	12.919222	-0.010575	-0.004919	3.335227	1.000000	0.000007	0.000047	-0.000061	-0.336161	-10.654039	179.956348
02958	2.461102	-0.040714	12.898350	-0.034776	-0.034802	3.318333	1.000000	-0.000001	0.000054	-0.000062	-0.337567	-10.653060	179.949997
02959	2.436215	-0.045609	12.895178	-0.011158	-0.029613	3.310645	1.000000	0.000000	0.000046	-0.000077	-0.335979	-10.652359	179.942285
02960	2.413141	-0.074712	12.916535	0.015398	-0.000890	3.327536	1.000000	-0.000001	0.000054	-0.000069	-0.337151	-10.651374	179.935039
02961	2.433759	-0.045046	12.895644	-0.008855	-0.030614	3.310644	1.000000	-0.000007	0.000038	-0.000062	-0.338525	-10.652023	179.928410
02962	2.450755	-0.015727	12.898965	-0.025235	-0.060264	3.316878	1.000000	-0.000001	0.000069	-0.000085	-0.339430	-10.649292	179.919355
02963	2.400570	-0.050514	12.941076	0.031290	-0.026075	3.349192	1.000000	-0.000006	0.000038	-0.000077	-0.340980	-10.648223	179.908803
02964	2.406256	-0.049557	12.892954	0.016799	-0.027114	3.302944	1.000000	-0.000008	0.000053	-0.000077	-0.342789	-10.647320	179.900604
02965	2.413745	-0.072631	12.869371	0.005068	-0.004057	3.281285	1.000000	0.000009	0.000039	-0.000076	-0.342628	-10.647756	179.891516
02966	2.400533	-0.049002	12.917554	0.026928	-0.028034	3.326059	1.000000	0.000007	0.000047	-0.000069	-0.342867	-10.647535	179.884349
02967	2.421122	-0.019171	12.896678	0.002729	-0.057356	3.309172	1.000000	-0.000007	0.000045	-0.000077	-0.342102	-10.647582	179.876589
02968	2.421764	-0.043134	12.921433	0.006724	-0.033865	3.333758	1.000000	-0.000000	0.000046	-0.000069	-0.343188	-10.647455	179.869357
02969	2.424221	-0.042489	12.897449	0.000225	-0.034839	3.310637	1.000000	-0.000006	0.000030	-0.000070	-0.345695	-10.649928	179.861295
02970	2.443581	-0.037267	12.925208	-0.013325	-0.040425	3.341463	1.000000	0.000009	0.000032	-0.000061	-0.345977	-10.651456	179.855046
02971	2.440753	-0.012563	12.900865	-0.014618	-0.065207	3.316870	1.000000	0.000001	0.000046	-0.000085	-0.347188	-10.652927	179.845076
02972	2.444809	-0.035820	12.901462	-0.018461	-0.041947	3.318345	1.000000	0.000015	0.000048	-0.000068	-0.346583	-10.652623	179.837977
02973	2.434982	-0.011808	12.925473	-0.004936	-0.065999	3.339983	1.000000	0.000001	0.000039	-0.000077	-0.346658	-10.651107	179.828563
02974	2.440770	-0.010564	12.877348	-0.019470	-0.067026	3.293750	1.000000	0.000007	0.000047	-0.000069	-0.346910	-10.650886	179.821402
02975	2.437643	0.014105	12.853058	-0.020744	-0.091305	3.269157	1.000000	-0.000000	0.000054	-0.000077	-0.346211	-10.651614	179.814539
02976	2.438186	-0.009767	12.877838	-0.016734	-0.067825	3.293749	1.000000	-0.000000	0.000046	-0.000069	-0.347315	-10.651498	179.807315
02977	2.409874	-0.015213	12.898789	0.015086	-0.063120	3.309137	1.000000	-0.000008	0.000053	-0.000070	-0.350052	-10.651598	179.800118
02978	2.408412	-0.015081	12.899063	0.016260	-0.063709	3.309133	1.000000	-0.000009	0.000061	-0.000078	-0.351980	-10.649841	179.791917
02979	2.430619	-0.009602	12.902780	-0.005135	-0.070090	3.316852	1.000000	-0.000001	0.000046	-0.000054	-0.356069	-10.649731	179.782589
02980	2.382095	-0.020121	12.896110	0.041161	-0.060229	3.301393	1.000000	-0.000017	0.000060	-0.000070	-0.359101	-10.648072	179.775225
02981	2.409610	-0.038514	12.900200	0.015000	-0.041496	3.310609	1.000000	0.000000	0.000046	-0.000077	-0.356849	-10.649002	179.770418
02982	2.376077	-0.020049	12.920745	0.051624	-0.060493	3.324492	1.000000	-0.000001	0.000046	-0.000062	-0.358200	-10.648901	179.764094
02983	2.383770	-0.043291	12.897153	0.039996	-0.036900	3.302869	1.000000	-0.000007	0.000038	-0.000062	-0.357864	-10.650136	179.758902
02984	2.384533	-0.067348	12.921888	0.044028	-0.013433	3.327465	1.000000	-0.000001	0.000046	-0.000054	-0.359435	-10.650039	179.753469
02985	2.381610	-0.042888	12.897554	0.042372	-0.037375	3.302861	1.000000	-0.000000	0.000038	-0.000054	-0.357773	-10.650910	179.749284
02986	2.404284	-0.037197	12.901197	0.020991	-0.043196	3.310595	1.000000	0.000009	0.000032	-0.000061	-0.358063	-10.652459	179.743042
02987	2.399809	-0.037222	12.925547	0.030510	-0.043365	3.333697	1.000000	-0.000001	0.000046	-0.000054	-0.358688	-10.654372	179.739242
02988	2.425955	-0.031127	12.905033	0.001251	-0.049399	3.318332	1.000000	0.000009	0.000024	-0.000061	-0.358885	-10.656804	179.733013
02989	2.428639	-0.030379	12.881021	-0.005394	-0.050182	3.295225	1.000000	-0.000007	0.000038	-0.000070	-0.360688	-10.657957	179.726528
02990	2.432996	-0.054040	12.881579	-0.009237	-0.026926	3.296724	1.000000	-0.000007	0.000038	-0.000070	-0.362559	-10.658841	179.719258
02991	2.405067	-0.059520	12.902423	0.021997	-0.021990	3.312077	1.000000	0.000001	0.000031	-0.000061	-0.363346	-10.658809	179.710435
02992	2.422514	-0.029995	12.905682	0.005642	-0.051663	3.318322	1.000000	0.000002	0.000031	-0.000077	-0.364045	-10.660457	179.702349
02993	2.455857	-0.071913	12.910091	-0.025803	-0.009519	3.329081	1.000000	0.000001	0.000039	-0.000069	-0.363817	-10.661083	179.693418
02994	2.452933	-0.047467	12.885759	-0.027504	-0.034161	3.304477	1.000000	-0.000008	0.000045	-0.000062	-0.366015	-10.661087	179.687029
02995	2.424792	-0.052859	12.906636	0.004256	-0.028765	3.319822	1.000000	0.000009	0.000039	-0.000076	-0.363504	-10.662345	179.680277
02996	2.450751	-0.046702	12.886177	-0.025016	-0.034797	3.304480	1.000000	-0.000001	0.000046	-0.000054	-0.365068	-10.662258	179.674843
02997	2.440825	-0.022962	12.910166	-0.010791	-0.058694	3.326072	1.000000	0.000001	0.000039	-0.000077	-0.364354	-10.663571	179.668487
02998	2.418114	-0.052051	12.931398	0.015820	-0.030001	3.342915	1.000000	0.000008	0.000039	-0.000069	-0.364510	-10.664258	179.661343
02999	2.438707	-0.021945	12.910568	-0.008567	-0.060097	3.326067	1.000000	0.000007	0.000047	-0.000069	-0.365752	-10.663506	179.651235
03000	2.446363	-0.044954	12.887017	-0.020318	-0.037046	3.304482	1.000000	-0.000001	0.000046	-0.000062	-0.367097	-10.663417	179.644911
03001	2.441668	-0.044975	12.911403	-0.011096	-0.037076	3.327579	1.000000	0.000007	0.000047	-0.000061	-0.365958	-10.663808	179.639259
03002	2.438710	-0.020341	12.887073	-0.012811	-0.061712	3.302967	1.000000	0.000001	0.000039	-0.000069	-0.366977	-10.664593	179.632055
03003	2.415923	-0.049577	12.908312	0.013533	-0.032650	3.319807	1.000000	-0.000000	0.000046	-0.000069	-0.366436	-10.663307	179.623731
03004	2.436431	-0.019609	12.887505	-0.010730	-0.062524	3.302965	1.000000	0.000001	0.000046	-0.000085	-0.367089	-10.663211	179.614728
03005	2.437085	-0.043323	12.912275	-0.006958	-0.039034	3.327576	1.000000	0.000013	0.000048	-0.000045	-0.366998	-10.661605	179.608866
03006	2.457667	-0.013273	12.891459	-0.031225	-0.068909	3.310738	1.000000	0.000001	0.000039	-0.000069	-0.368018	-10.662377	179.601663
03007	2.433022	-0.018302	12.888151	-0.007525	-0.063649	3.302962	1.000000	-0.000000	0.000046	-0.000069	-0.366399	-10.662182	179.596803
03008	2.450006	0.011197	12.891509	-0.023871	-0.093327	3.309217	1.000000	-0.000001	0.000046	-0.000062	-0.367734	-10.662085	179.590478
03009	2.448816	0.011456	12.891734	-0.022860	-0.093601	3.309217	1.000000	-0.000001	0.000046	-0.000054	-0.367882	-10.661261	179.584791
03010	2.449196	-0.012453	12.916558	-0.018778	-0.070157	3.333830	1.000000	-0.000002	0.000069	-0.000085	-0.368814	-10.658542	179.575748
03011	2.474783	-0.006354	12.896210	-0.047836	-0.075865	3.318527	1.000000	-0.000001	0.000046	-0.000054	-0.368933	-10.659455	179.571748
03012	2.488046	0.022566	12.923768	-0.056242	-0.105355	3.347875	1.000000	-0.000016	0.000060	-0.000086	-0.371477	-10.657809	179.562590
03013	2.477440	-0.029786	12.897123	-0.050625	-0.053187	3.320058	1.000000	0.000007	0.000047	-0.000061	-0.371869	-10.657093	179.556622
03014	2.450532	-0.010568	12.869336	-0.029832	-0.072567	3.287651	1.000000	-0.000002	0.000069	-0.000077	-0.373033	-10.654380	179.548474
03015	2.436392	0.012633	12.917572	-0.007534	-0.096142	3.332294	1.000000	-0.000009	0.000061	-0.000070	-0.373025	-10.653594	179.542577
03016	2.422098	-0.040257	12.915104	0.006132	-0.043802	3.327562	1.000000	-0.000009	0.000061	-0.000078	-0.374944	-10.651854	179.534377
03017	2.447621	-0.034340	12.894787	-0.022795	-0.049518	3.312273	1.000000	-0.000010	0.000060	-0.000062	-0.375907	-10.651736	179.530570
03018	2.393568	-0.021262	12.887603	0.028468	-0.063453	3.295138	1.000000	-0.000009	0.000061	-0.000078	-0.377824	-10.650005	179.522369
03019	2.402748	-0.068732	12.888689	0.019709	-0.016039	3.298208	1.000000	-0.000010	0.000068	-0.000078	-0.378406	-10.647886	179.516290
03020	2.377744	-0.073874	12.885412	0.043414	-0.011379	3.290402	1.000000	0.000001	0.000046	-0.000085	-0.379047	-10.647800	179.507288
03021	2.362173	-0.026431	12.909001	0.062574	-0.059246	3.310400	1.000000	-0.000008	0.000045	-0.000062	-0.380236	-10.647736	179.499761
03022	2.380823	-0.097091	12.886239	0.040723	0.011502	3.291934	1.000000	0.000008	0.000047	-0.000076	-0.380252	-10.647553	179.491717
03023	2.388761	-0.044125	12.913386	0.037133	-0.041767	3.319736	1.000000	-0.000008	0.000045	-0.000070	-0.381884	-10.646504	179.482893
03024	2.416543	-0.062161	12.917558	0.010758	-0.023772	3.329084	1.000000	0.000007	0.000047	-0.000069	-0.382134	-10.646318	179.475744
03025	2.391825	-0.067240	12.914219	0.034571	-0.019009	3.321270	1.000000	-0.000007	0.000045	-0.000078	-0.383392	-10.646805	179.466394
03026	2.456101	-0.026883	12.924682	-0.026805	-0.059205	3.343161	1.000000	0.000001	0.000023	-0.000054	-0.384671	-10.649336	179.461007
03027	2.428111	-0.032372	12.945437	0.004933	-0.054044	3.358424	1.000000	0.000001	0.000046	-0.000085	-0.383878	-10.649531	179.453746
03028	2.433960	-0.031233	12.897380	-0.009822	-0.055000	3.312267	1.000000	-0.000008	0.000053	-0.000078	-0.385704	-10.648673	179.445562
03029	2.409157	-0.036430	12.894051	0.014147	-0.050276	3.304446	1.000000	-0.000000	0.000046	-0.000069	-0.386515	-10.649765	179.439281
03030	2.411638	-0.035669	12.870107	0.007351	-0.051049	3.281368	1.000000	0.000001	0.000039	-0.000069	-0.387528	-10.650559	179.432083
03031	2.406881	-0.035731	12.894478	0.016689	-0.051245	3.304439	1.000000	-0.000000	0.000054	-0.000077	-0.387508	-10.650426	179.424235
03032	2.411168	-0.059262	12.895093	0.012842	-0.028001	3.305991	1.000000	-0.000007	0.000038	-0.000070	-0.389376	-10.651322	179.416973
03033	2.406528	-0.059507	12.919440	0.022258	-0.028339	3.329061	1.000000	-0.000007	0.000045	-0.000078	-0.390729	-10.652485	179.408315
03034	2.412410	-0.058363	12.871385	0.007476	-0.029286	3.282914	1.000000	0.000000	0.000054	-0.000085	-0.391479	-10.651542	179.399307
03035	2.400389	-0.059257	12.944066	0.032774	-0.028616	3.352126	1.000000	-0.000000	0.000046	-0.000069	-0.389273	-10.652184	179.394100
03036	2.433468	-0.052132	12.875435	-0.012517	-0.034995	3.290745	1.000000	0.000001	0.000046	-0.000085	-0.389916	-10.652116	179.385103
03037	2.419613	-0.028638	12.923559	0.010027	-0.058901	3.335323	1.000000	0.000014	0.000048	-0.000061	-0.388716	-10.653435	179.380391
03038	2.427362	-0.051443	12.900061	-0.001806	-0.035832	3.313813	1.000000	0.000006	0.000055	-0.000061	-0.389292	-10.652409	179.374125
03039	2.393453	-0.033005	12.920464	0.034745	-0.054520	3.327477	1.000000	0.000014	0.000048	-0.000061	-0.387526	-10.651423	179.367320
03040	2.392232	-0.032464	12.920692	0.035927	-0.055117	3.327471	1.000000	0.000006	0.000047	-0.000053	-0.388234	-10.651266	179.361960
03041	2.389135	-0.007907	12.896369	0.034044	-0.079588	3.302833	1.000000	-0.000001	0.000046	-0.000062	-0.388975	-10.650777	179.356606
03042	2.393626	-0.031296	12.896957	0.030197	-0.056345	3.304394	1.000000	0.000009	0.000032	-0.000061	-0.389261	-10.652360	179.350382
03043	2.410639	-0.001595	12.900342	0.013654	-0.085734	3.310668	1.000000	-0.000000	0.000046	-0.000069	-0.388995	-10.651242	179.342947
03044	2.380610	0.017184	12.896527	0.042372	-0.104906	3.301245	1.000000	0.000016	0.000033	-0.000053	-0.388656	-10.652722	179.337682
03045	2.455628	0.010424	12.907929	-0.028697	-0.097538	3.326358	1.000000	0.000000	0.000046	-0.000077	-0.389877	-10.654016	179.329683
03046	2.425613	0.029060	12.904109	0.000021	-0.116711	3.316930	1.000000	0.000001	0.000031	-0.000062	-0.391021	-10.655701	179.323397
03047	2.455734	-0.013065	12.932818	-0.023612	-0.074936	3.350990	1.000000	0.000002	0.000031	-0.000069	-0.392857	-10.656268	179.314182
03048	2.429540	0.005843	12.904811	-0.002905	-0.094275	3.318495	1.000000	-0.000013	0.000029	-0.000078	-0.395257	-10.658145	179.305982
03049	2.430681	-0.018246	12.929502	0.001006	-0.070321	3.343133	1.000000	-0.000006	0.000030	-0.000070	-0.394585	-10.658766	179.300540
03050	2.460517	-0.011550	12.884997	-0.036348	-0.076515	3.304867	1.000000	0.000002	0.000039	-0.000085	-0.395138	-10.659566	179.291563
03051	2.432331	-0.017291	12.905729	-0.004585	-0.071516	3.320067	1.000000	-0.000015	0.000044	-0.000070	-0.397203	-10.659961	179.285090
03052	2.416821	-0.046162	12.878593	0.006052	-0.043171	3.290725	1.000000	-0.000014	0.000045	-0.000086	-0.399562	-10.660093	179.275970
03053	2.444888	-0.064194	12.882798	-0.020192	-0.025157	3.300170	1.000000	0.000002	0.000031	-0.000069	-0.400278	-10.662254	179.269967
03054	2.413179	-0.070326	12.927646	0.019534	-0.020170	3.338420	1.000000	-0.000008	0.000045	-0.000070	-0.402247	-10.662291	179.262700
03055	2.415635	-0.069781	12.903723	0.012363	-0.020842	3.315361	1.000000	-0.000008	0.000045	-0.000062	-0.404071	-10.660897	179.254494
03056	2.441584	-0.063600	12.883427	-0.016987	-0.026872	3.300171	1.000000	-0.000000	0.000046	-0.000069	-0.405190	-10.660828	179.247296
03057	2.440391	-0.063168	12.883655	-0.016002	-0.027116	3.300172	1.000000	0.000007	0.000047	-0.000069	-0.403871	-10.659802	179.239371
03058	2.439492	-0.062808	12.883827	-0.014827	-0.027718	3.300172	1.000000	0.000000	0.000023	-0.000038	-0.405618	-10.662349	179.235786
03059	2.433056	-0.038771	12.883589	-0.008609	-0.051599	3.298583	1.000000	-0.000000	0.000046	-0.000069	-0.404241	-10.662300	179.231358
03060	2.457270	-0.057003	12.911997	-0.026928	-0.033480	3.331103	1.000000	0.000013	0.000048	-0.000038	-0.404567	-10.662034	179.227863
03061	2.448596	-0.008700	12.887270	-0.024046	-0.081826	3.304864	1.000000	-0.000008	0.000045	-0.000070	-0.406177	-10.660668	179.218934
03062	2.449331	-0.032567	12.912043	-0.019863	-0.058438	3.329509	1.000000	0.000007	0.000047	-0.000069	-0.406437	-10.660490	179.211802
03063	2.428164	-0.037199	12.884517	-0.004303	-0.053933	3.298575	1.000000	0.000006	0.000055	-0.000061	-0.407096	-10.659123	179.204239
03064	2.417668	-0.013447	12.908489	0.009940	-0.078222	3.320026	1.000000	0.000000	0.000046	-0.000077	-0.407983	-10.659043	179.196150
03065	2.425670	-0.036273	12.884989	-0.002169	-0.055065	3.298571	1.000000	0.000009	0.000047	-0.000084	-0.407474	-10.657926	179.186918
03066	2.447864	-0.030286	12.888879	-0.023492	-0.060944	3.306455	1.000000	-0.000002	0.000054	-0.000054	-0.409156	-10.656977	179.181496
03067	2.399602	-0.041105	12.881830	0.022630	-0.050817	3.290679	1.000000	0.000001	0.000046	-0.000085	-0.409016	-10.656699	179.173338
03068	2.394485	-0.041212	12.906241	0.031851	-0.051273	3.313723	1.000000	-0.000009	0.000068	-0.000093	-0.410594	-10.654101	179.163359
03069	2.420344	-0.034895	12.885995	0.002247	-0.057103	3.298563	1.000000	0.000002	0.000031	-0.000069	-0.410654	-10.654732	179.155544
03070	2.412160	-0.035500	12.934432	0.019525	-0.057417	3.344654	1.000000	-0.000007	0.000038	-0.000070	-0.412533	-10.655619	179.148300
03071	2.429070	-0.005841	12.937858	0.003443	-0.086691	3.350939	1.000000	0.000002	0.000039	-0.000085	-0.411099	-10.657257	179.141129
03072	2.437329	-0.028851	12.914323	-0.008467	-0.063606	3.329498	1.000000	-0.000007	0.000038	-0.000070	-0.412974	-10.658147	179.133885
03073	2.441844	-0.052361	12.914942	-0.012407	-0.039796	3.331108	1.000000	-0.000000	0.000046	-0.000069	-0.411519	-10.657658	179.125926
03074	2.438814	-0.027762	12.890600	-0.014265	-0.064381	3.306452	1.000000	0.000002	0.000039	-0.000085	-0.412072	-10.658442	179.116960
03075	2.457540	-0.022203	12.918605	-0.027683	-0.069826	3.337397	1.000000	-0.000000	0.000046	-0.000069	-0.411882	-10.657607	179.110662
03076	2.460317	-0.021460	12.894641	-0.034575	-0.070574	3.314353	1.000000	-0.000004	0.000023	-0.000077	-0.413321	-10.660234	179.102552
03077	2.445132	-0.050091	12.867444	-0.023833	-0.041912	3.285021	1.000000	-0.000001	0.000054	-0.000069	-0.413216	-10.660045	179.096798
03078	2.458035	-0.020746	12.895077	-0.032048	-0.071491	3.314355	1.000000	0.000007	0.000047	-0.000069	-0.413474	-10.659860	179.089672
03079	2.433251	-0.025841	12.891656	-0.008538	-0.066553	3.306446	1.000000	0.000007	0.000055	-0.000069	-0.412683	-10.658125	179.085031
03080	2.431844	-0.025364	12.891922	-0.007367	-0.067157	3.306444	1.000000	0.000006	0.000055	-0.000061	-0.413270	-10.657068	179.078786
03081	2.430646	-0.025011	12.892148	-0.005917	-0.067759	3.306441	1.000000	-0.000000	0.000038	-0.000054	-0.414717	-10.659055	179.077585
03082	2.429262	-0.024700	12.892410	-0.004745	-0.068363	3.306439	1.000000	-0.000002	0.000069	-0.000085	-0.415665	-10.656359	179.068568
03083	2.371641	-0.012404	12.909017	0.054196	-0.082035	3.312018	1.000000	-0.000007	0.000038	-0.000062	-0.417544	-10.655899	179.061779
03084	2.436036	-0.047675	12.869178	-0.015826	-0.045822	3.285020	1.000000	-0.000009	0.000053	-0.000062	-0.419845	-10.655047	179.055405
03085	2.425439	-0.024124	12.893131	-0.001422	-0.069680	3.306432	1.000000	0.000006	0.000047	-0.000053	-0.418583	-10.655342	179.050460
03086	2.400786	-0.029504	12.889666	0.022229	-0.064996	3.298507	1.000000	-0.000008	0.000045	-0.000062	-0.420781	-10.655363	179.044100
03087	2.419290	-0.024116	12.917724	0.009019	-0.070934	3.329460	1.000000	-0.000001	0.000054	-0.000069	-0.422791	-10.654458	179.038146
03088	2.400289	-0.053244	12.914675	0.027635	-0.042418	3.323161	1.000000	-0.000006	0.000038	-0.000078	-0.424434	-10.655348	179.030018
03089	2.402707	-0.052521	12.890784	0.020836	-0.042970	3.300123	1.000000	-0.000001	0.000062	-0.000077	-0.424679	-10.654031	179.023845
03090	2.401534	-0.052287	12.891004	0.022007	-0.043577	3.300119	1.000000	-0.000006	0.000030	-0.000062	-0.426686	-10.655797	179.017518
03091	2.424104	-0.046270	12.894870	0.000821	-0.049723	3.308045	1.000000	0.000009	0.000040	-0.000076	-0.427714	-10.657022	179.009355
03092	2.403243	-0.051061	12.867249	0.016368	-0.045169	3.277079	1.000000	-0.000001	0.000046	-0.000054	-0.429308	-10.656948	179.003965
03093	2.421929	-0.045633	12.895281	0.003304	-0.050588	3.308041	1.000000	-0.000006	0.000038	-0.000078	-0.429367	-10.658424	178.995157
03094	2.426515	-0.069077	12.895909	-0.000560	-0.027365	3.309678	1.000000	0.000000	0.000046	-0.000077	-0.430263	-10.658347	178.987087
03095	2.423466	-0.044510	12.871563	-0.002322	-0.051833	3.285007	1.000000	0.000001	0.000039	-0.000069	-0.430828	-10.659728	178.980682
03096	2.438521	-0.039391	12.923713	-0.007406	-0.057485	3.339002	1.000000	0.000001	0.000039	-0.000069	-0.431857	-10.660526	178.973521
03097	2.444857	-0.038234	12.875664	-0.022674	-0.058229	3.292945	1.000000	-0.000008	0.000045	-0.000070	-0.433333	-10.659576	178.964238
03098	2.449459	-0.061776	12.876295	-0.026539	-0.035008	3.294590	1.000000	-0.000000	0.000038	-0.000054	-0.434830	-10.660373	178.958866
03099	2.444687	-0.062126	12.900623	-0.017317	-0.035051	3.317618	1.000000	-0.000015	0.000044	-0.000071	-0.435693	-10.660193	178.952734
03100	2.466780	-0.056324	12.904598	-0.038613	-0.040960	3.325565	1.000000	-0.000002	0.000061	-0.000069	-0.437022	-10.658374	178.945532
03101	2.412813	-0.043637	12.896997	0.012289	-0.054330	3.308021	1.000000	-0.000000	0.000046	-0.000069	-0.436042	-10.657205	178.936099
03102	2.435087	-0.037766	12.900939	-0.009008	-0.060238	3.315968	1.000000	-0.000009	0.000045	-0.000055	-0.438485	-10.657230	178.930644
03103	2.401040	-0.019893	12.921136	0.027435	-0.079263	3.329387	1.000000	0.000007	0.000047	-0.000069	-0.438792	-10.655512	178.922490
03104	2.412977	-0.042262	12.873541	0.007325	-0.056283	3.284987	1.000000	0.000000	0.000046	-0.000077	-0.439688	-10.655424	178.914425
03105	2.425801	-0.012834	12.901190	-0.000804	-0.085700	3.314309	1.000000	0.000007	0.000047	-0.000069	-0.439053	-10.655245	178.909146
03106	2.403117	-0.042227	12.922242	0.025920	-0.057062	3.331024	1.000000	0.000007	0.000047	-0.000061	-0.439561	-10.655056	178.902937
03107	2.429089	-0.035613	12.902076	-0.003467	-0.062888	3.315958	1.000000	0.000001	0.000046	-0.000085	-0.439311	-10.655094	178.894664
03108	2.389286	0.006215	12.921830	0.038369	-0.105745	3.327699	1.000000	0.000014	0.000048	-0.000053	-0.439200	-10.654804	178.889417
03109	2.426776	-0.034698	12.902514	-0.001058	-0.064015	3.315953	1.000000	-0.000007	0.000038	-0.000070	-0.440643	-10.655982	178.883556
03110	2.443423	-0.005030	12.906023	-0.017312	-0.093763	3.322254	1.000000	-0.000001	0.000046	-0.000062	-0.442008	-10.655899	178.877283
03111	2.415054	-0.010870	12.926630	0.014441	-0.088849	3.337303	1.000000	0.000000	0.000046	-0.000077	-0.442423	-10.655740	178.869135
03112	2.450498	-0.027602	12.882788	-0.028163	-0.071164	3.300896	1.000000	-0.000000	0.000046	-0.000069	-0.443557	-10.655656	178.861970
03113	2.416702	-0.009710	12.902900	0.008537	-0.089748	3.314279	1.000000	0.000002	0.000023	-0.000061	-0.442655	-10.657679	178.855551
03114	2.444978	-0.027443	12.907248	-0.017790	-0.071835	3.323912	1.000000	-0.000007	0.000045	-0.000078	-0.444405	-10.657695	178.847425
03115	2.414548	-0.009311	12.903304	0.010951	-0.090790	3.314270	1.000000	-0.000009	0.000053	-0.000062	-0.445899	-10.657138	178.844373
03116	2.422838	-0.032242	12.879842	-0.001066	-0.067685	3.292919	1.000000	0.000009	0.000040	-0.000076	-0.445843	-10.657818	178.836400
03117	2.445179	-0.026110	12.883801	-0.022444	-0.073603	3.300893	1.000000	-0.000007	0.000045	-0.000078	-0.447592	-10.657444	178.828609
03118	2.440251	-0.026334	12.908144	-0.013125	-0.074109	3.323905	1.000000	-0.000001	0.000046	-0.000062	-0.448960	-10.657359	178.822343
03119	2.425141	-0.055122	12.880927	-0.002869	-0.045535	3.294584	1.000000	-0.000008	0.000045	-0.000070	-0.450258	-10.656606	178.812088
03120	2.437882	-0.025785	12.908593	-0.010964	-0.075181	3.323900	1.000000	0.000007	0.000047	-0.000069	-0.450542	-10.656412	178.804998
03121	2.438586	-0.049650	12.933393	-0.006692	-0.051455	3.348587	1.000000	-0.000009	0.000053	-0.000070	-0.450825	-10.655439	178.800905
03122	2.441058	-0.048833	12.909519	-0.013681	-0.052178	3.325575	1.000000	0.000008	0.000047	-0.000076	-0.450872	-10.655244	178.792922
03123	2.443623	-0.047961	12.885630	-0.020863	-0.052553	3.302565	1.000000	-0.000001	0.000046	-0.000054	-0.450953	-10.654299	178.785853
03124	2.415271	-0.054042	12.906199	0.010915	-0.047753	3.317584	1.000000	-0.000014	0.000045	-0.000086	-0.453324	-10.654413	178.776772
03125	2.417962	-0.053326	12.882285	0.003514	-0.048510	3.294573	1.000000	0.000007	0.000039	-0.000053	-0.454179	-10.653338	178.767331
03126	2.403462	-0.030168	12.930304	0.026047	-0.072751	3.338903	1.000000	-0.000001	0.000054	-0.000069	-0.455417	-10.652368	178.760162
03127	2.405944	-0.029406	12.906428	0.019129	-0.072812	3.315894	1.000000	-0.000001	0.000046	-0.000062	-0.453852	-10.652574	178.753443
03128	2.428187	-0.023453	12.910425	-0.002153	-0.078739	3.323884	1.000000	-0.000008	0.000045	-0.000062	-0.456069	-10.652583	178.747112
03129	2.403689	-0.029055	12.906849	0.021266	-0.073817	3.315885	1.000000	-0.000000	0.000039	-0.000054	-0.456577	-10.652489	178.741462
03130	2.431499	-0.046688	12.911331	-0.005054	-0.055916	3.325565	1.000000	-0.000002	0.000069	-0.000085	-0.457547	-10.649773	178.732475
03131	2.401013	-0.028377	12.907348	0.023584	-0.074824	3.315875	1.000000	0.000002	0.000031	-0.000069	-0.457480	-10.651335	178.726778
03132	2.405804	-0.051738	12.907977	0.019709	-0.051611	3.317560	1.000000	-0.000000	0.000046	-0.000069	-0.458611	-10.651234	178.719625
03133	2.399013	-0.027574	12.907722	0.025889	-0.075733	3.315866	1.000000	0.000009	0.000032	-0.000069	-0.457255	-10.652630	178.713916
03134	2.431084	-0.044468	12.888014	-0.008612	-0.057933	3.302556	1.000000	0.000008	0.000040	-0.000069	-0.457430	-10.653294	178.706848
03135	2.429983	-0.044026	12.888223	-0.007407	-0.058227	3.302556	1.000000	-0.000000	0.000046	-0.000069	-0.457124	-10.653338	178.700505
03136	2.428883	-0.043584	12.888432	-0.006245	-0.058843	3.302554	1.000000	0.000008	0.000040	-0.000069	-0.457297	-10.654003	178.693438
03137	2.423990	-0.043590	12.912754	0.003101	-0.059239	3.325552	1.000000	0.000000	0.000046	-0.000077	-0.457639	-10.653862	178.685585
03138	2.430487	-0.042270	12.864734	-0.012116	-0.060044	3.279550	1.000000	0.000001	0.000039	-0.000069	-0.458666	-10.654632	178.678450
03139	2.425494	-0.042288	12.889074	-0.002253	-0.060363	3.302548	1.000000	0.000007	0.000055	-0.000077	-0.457854	-10.655749	178.673701
03140	2.424391	-0.041768	12.889283	-0.001089	-0.060979	3.302545	1.000000	0.000003	0.000031	-0.000085	-0.458311	-10.657394	178.664796
03141	2.419686	-0.041779	12.913567	0.008098	-0.061308	3.325540	1.000000	0.000007	0.000039	-0.000053	-0.458101	-10.657285	178.659911
03142	2.420359	-0.016637	12.865104	-0.002092	-0.085935	3.277841	1.000000	0.000007	0.000047	-0.000069	-0.458379	-10.657083	178.652833
03143	2.426997	-0.064096	12.890343	-0.002863	-0.038809	3.304243	1.000000	-0.000000	0.000046	-0.000069	-0.459523	-10.656770	178.647174
03144	2.433858	-0.010994	12.917567	-0.005846	-0.092314	3.331846	1.000000	0.000001	0.000039	-0.000069	-0.460553	-10.657544	178.640046
03145	2.436474	-0.010235	12.893681	-0.012673	-0.093013	3.308848	1.000000	-0.000002	0.000054	-0.000054	-0.462198	-10.657499	178.636087
03146	2.450755	-0.056882	12.870700	-0.029803	-0.046067	3.289272	1.000000	0.000001	0.000039	-0.000069	-0.463231	-10.658277	178.628962
03147	2.434190	-0.009606	12.894113	-0.010455	-0.093834	3.308845	1.000000	-0.000000	0.000046	-0.000069	-0.462520	-10.657654	178.621536
03148	2.413416	-0.014628	12.866411	0.004930	-0.089213	3.277818	1.000000	-0.000000	0.000046	-0.000069	-0.463654	-10.657559	178.614395
03149	2.410410	-0.038736	12.915311	0.017247	-0.065723	3.325510	1.000000	0.000016	0.000048	-0.000076	-0.462376	-10.656246	178.606107
03150	2.403254	-0.014498	12.915103	0.023455	-0.090169	3.323790	1.000000	-0.000001	0.000054	-0.000069	-0.463615	-10.655277	178.598954
03151	2.438956	-0.031185	12.871385	-0.018864	-0.071956	3.287561	1.000000	-0.000007	0.000038	-0.000062	-0.463451	-10.657954	178.594420
03152	2.400978	-0.013947	12.915526	0.026211	-0.090904	3.323779	1.000000	0.000008	0.000047	-0.000076	-0.463496	-10.657755	178.586457
03153	2.438707	-0.054601	12.896383	-0.013223	-0.049079	3.312265	1.000000	-0.000006	0.000045	-0.000085	-0.464082	-10.658354	178.577278
03154	2.408491	-0.036513	12.892280	0.015413	-0.068195	3.302501	1.000000	-0.000005	0.000030	-0.000078	-0.465626	-10.660110	178.569209
03155	2.427157	-0.030770	12.920387	0.002367	-0.073837	3.333528	1.000000	0.000008	0.000040	-0.000061	-0.465035	-10.660723	178.561772
03156	2.429885	-0.029925	12.896488	-0.004694	-0.074538	3.310539	1.000000	-0.000001	0.000046	-0.000054	-0.466637	-10.660637	178.556423
03157	2.430742	-0.053890	12.921275	-0.000798	-0.051002	3.335246	1.000000	-0.000007	0.000045	-0.000078	-0.467314	-10.658661	178.543142
03158	2.433412	-0.053211	12.897389	-0.007865	-0.051701	3.312259	1.000000	-0.000007	0.000045	-0.000078	-0.469065	-10.658669	178.535045
03159	2.449846	-0.023396	12.900974	-0.024248	-0.081159	3.318583	1.000000	0.000000	0.000039	-0.000062	-0.468939	-10.658692	178.527927
03160	2.431162	-0.052748	12.897815	-0.005705	-0.052625	3.312257	1.000000	-0.000009	0.000053	-0.000070	-0.471027	-10.657830	178.520708
03161	2.453185	-0.046725	12.901916	-0.027198	-0.058483	3.320309	1.000000	-0.000008	0.000053	-0.000078	-0.472490	-10.655929	178.513930
03162	2.422635	-0.028590	12.897855	0.001428	-0.077598	3.310522	1.000000	0.000007	0.000047	-0.000061	-0.473007	-10.655721	178.507763
03163	2.431168	-0.051442	12.874437	-0.010796	-0.054285	3.289270	1.000000	-0.000001	0.000046	-0.000054	-0.473807	-10.655148	178.504671
03164	2.422374	-0.052002	12.922854	0.006848	-0.054760	3.335229	1.000000	0.000009	0.000040	-0.000076	-0.473751	-10.655806	178.496735
03165	2.440478	0.002574	12.877801	-0.021179	-0.108003	3.293860	1.000000	-0.000009	0.000053	-0.000062	-0.473868	-10.653276	178.488175
03166	2.423763	-0.050981	12.899214	0.000556	-0.055570	3.312246	1.000000	-0.000000	0.000046	-0.000069	-0.474999	-10.653167	178.481047
03167	2.416568	-0.026877	12.898997	0.006533	-0.079580	3.310508	1.000000	0.000007	0.000055	-0.000069	-0.473471	-10.651054	178.470733
03168	2.415267	-0.026434	12.899241	0.007691	-0.080200	3.310504	1.000000	0.000000	0.000046	-0.000077	-0.474365	-10.650940	178.462711
03169	2.439505	-0.044416	12.927892	-0.010260	-0.062004	3.343284	1.000000	-0.000007	0.000045	-0.000078	-0.474952	-10.651314	178.458700
03170	2.412896	-0.025813	12.899686	0.010108	-0.081183	3.310496	1.000000	0.000007	0.000047	-0.000061	-0.475462	-10.651098	178.452537
03171	2.417496	-0.048984	12.900398	0.006428	-0.057760	3.312235	1.000000	0.000007	0.000055	-0.000077	-0.474602	-10.650887	178.443752
03172	2.416196	-0.048435	12.900644	0.007587	-0.058381	3.312231	1.000000	0.000002	0.000047	-0.000100	-0.474789	-10.650772	178.433052
03173	2.409086	-0.024343	12.900401	0.014021	-0.082729	3.310483	1.000000	-0.000001	0.000046	-0.000062	-0.475700	-10.651654	178.428431
03174	2.441056	-0.041304	12.880865	-0.020540	-0.064932	3.297328	1.000000	-0.000000	0.000046	-0.000069	-0.476829	-10.651549	178.421308
03175	2.414463	-0.022789	12.852645	-0.000685	-0.083989	3.264528	1.000000	-0.000007	0.000045	-0.000078	-0.478134	-10.649366	178.412149
03176	2.405648	-0.023624	12.901044	0.017001	-0.084482	3.310468	1.000000	-0.000007	0.000038	-0.000062	-0.480248	-10.650234	178.405868
03177	2.433865	-0.041177	12.905594	-0.009618	-0.066389	3.320296	1.000000	-0.000001	0.000046	-0.000062	-0.480622	-10.648704	178.396495
03178	2.426948	-0.017237	12.905311	-0.003417	-0.090835	3.318541	1.000000	-0.000005	0.000030	-0.000078	-0.482162	-10.650434	178.388444
03179	2.455153	-0.034630	12.909870	-0.029545	-0.072479	3.328378	1.000000	0.000006	0.000055	-0.000061	-0.480553	-10.650015	178.381708
03180	2.434400	-0.039817	12.882129	-0.014252	-0.067823	3.297322	1.000000	-0.000014	0.000045	-0.000086	-0.482914	-10.650113	178.372660
03181	2.429437	-0.040037	12.906432	-0.004830	-0.068255	3.320289	1.000000	0.000008	0.000040	-0.000061	-0.482746	-10.650713	178.364811
03182	2.426272	-0.015424	12.882073	-0.006907	-0.092760	3.295561	1.000000	0.000001	0.000046	-0.000077	-0.483641	-10.650597	178.356800
03183	2.454389	-0.032785	12.886661	-0.033325	-0.074605	3.305409	1.000000	-0.000000	0.000046	-0.000069	-0.483472	-10.649908	178.349104
03184	2.425955	-0.038900	12.907090	-0.001482	-0.069831	3.320281	1.000000	-0.000000	0.000046	-0.000069	-0.484602	-10.649792	178.341988
03185	2.428560	-0.038052	12.883237	-0.008847	-0.070119	3.297315	1.000000	-0.000000	0.000054	-0.000077	-0.483889	-10.647717	178.332353
03186	2.421322	-0.014103	12.883005	-0.002650	-0.094564	3.295550	1.000000	-0.000007	0.000045	-0.000078	-0.485633	-10.647704	178.324274
03187	2.422322	-0.038120	12.907775	0.001661	-0.071220	3.320274	1.000000	-0.000007	0.000038	-0.000062	-0.487358	-10.648160	178.320319
03188	2.434637	-0.008845	12.935520	-0.006252	-0.100957	3.349568	1.000000	-0.000008	0.000053	-0.000078	-0.489209	-10.647276	178.312227
03189	2.419783	-0.037765	12.908252	0.003978	-0.071972	3.320269	1.000000	-0.000002	0.000054	-0.000062	-0.488466	-10.646257	178.303648
03190	2.418496	-0.037470	12.908494	0.005133	-0.072595	3.320266	1.000000	-0.000000	0.000046	-0.000069	-0.489592	-10.646135	178.296537
03191	2.417405	-0.037152	12.908699	0.006350	-0.073019	3.320263	1.000000	0.000000	0.000039	-0.000062	-0.489953	-10.647120	178.291763
03192	2.420112	-0.036246	12.884832	-0.000793	-0.073694	3.297298	1.000000	0.000006	0.000055	-0.000069	-0.490333	-10.646020	178.284708
03193	2.442170	-0.029942	12.888989	-0.021999	-0.079567	3.305404	1.000000	-0.000008	0.000045	-0.000070	-0.491873	-10.646149	178.280780
03194	2.433066	-0.030671	12.937418	-0.004241	-0.080093	3.351320	1.000000	0.000000	0.000054	-0.000085	-0.492634	-10.645156	178.271870
03195	2.412349	-0.035832	12.909649	0.011120	-0.075603	3.320245	1.000000	-0.000001	0.000046	-0.000054	-0.495049	-10.645515	178.272078
03196	2.442617	-0.028389	12.865556	-0.026732	-0.081677	3.282439	1.000000	0.000011	0.000025	-0.000076	-0.494778	-10.647897	178.264203
03197	2.420254	-0.058056	12.886414	0.000082	-0.052852	3.299058	1.000000	-0.000001	0.000062	-0.000077	-0.494861	-10.646043	178.254370
03198	2.442210	-0.051720	12.890600	-0.021159	-0.058829	3.307173	1.000000	-0.000000	0.000046	-0.000069	-0.495994	-10.645925	178.247271
03199	2.407757	-0.034236	12.910511	0.015724	-0.077681	3.320228	1.000000	-0.000000	0.000046	-0.000069	-0.496258	-10.645664	178.241584
03200	2.436009	-0.051571	12.915125	-0.010562	-0.059842	3.330126	1.000000	0.000000	0.000039	-0.000062	-0.497522	-10.646418	178.235397
03201	2.415624	-0.056861	12.887288	0.004644	-0.054961	3.299048	1.000000	-0.000007	0.000038	-0.000062	-0.498764	-10.647136	178.230559
03202	2.461116	-0.044573	12.895376	-0.038986	-0.066298	3.315294	1.000000	0.000000	0.000054	-0.000085	-0.499531	-10.646144	178.221660
03203	2.449879	-0.021101	12.919232	-0.024604	-0.090396	3.336462	1.000000	-0.000001	0.000046	-0.000054	-0.499797	-10.645363	178.216516
03204	2.435312	-0.049927	12.891912	-0.014430	-0.061890	3.307168	1.000000	0.000001	0.000046	-0.000085	-0.500457	-10.645239	178.207635
03205	2.434124	-0.049565	12.892138	-0.013358	-0.062207	3.307167	1.000000	-0.000001	0.000046	-0.000062	-0.500460	-10.644724	178.201000
03206	2.433036	-0.049244	12.892345	-0.012205	-0.062834	3.307166	1.000000	0.000001	0.000039	-0.000069	-0.501485	-10.645472	178.193924
03207	2.408619	-0.054899	12.888607	0.011393	-0.058065	3.299031	1.000000	0.000001	0.000046	-0.000077	-0.502211	-10.645593	178.187982
03208	2.424723	-0.024858	12.892293	-0.004790	-0.087870	3.305368	1.000000	-0.000000	0.000046	-0.000069	-0.503345	-10.645472	178.180893
03209	2.452872	-0.042001	12.896956	-0.030843	-0.069623	3.315298	1.000000	0.000014	0.000048	-0.000053	-0.501350	-10.646057	178.181115
03210	2.418249	-0.024386	12.916857	0.006083	-0.088667	3.328311	1.000000	0.000000	0.000054	-0.000085	-0.502114	-10.645064	178.172223
03211	2.423199	-0.047691	12.917549	0.002112	-0.065246	3.330105	1.000000	0.000001	0.000031	-0.000054	-0.502485	-10.646351	178.165003
03212	2.396876	-0.029186	12.889192	0.022365	-0.084364	3.297215	1.000000	0.000008	0.000040	-0.000061	-0.502895	-10.646993	178.158899
03213	2.415042	-0.023254	12.917460	0.009651	-0.090129	3.328299	1.000000	-0.000001	0.000054	-0.000070	-0.503265	-10.646725	178.154484
03214	2.413762	-0.023003	12.917699	0.010806	-0.090758	3.328293	1.000000	-0.000007	0.000045	-0.000078	-0.505011	-10.646717	178.146435
03215	2.439832	-0.016005	12.897801	-0.018574	-0.096842	3.313492	1.000000	0.000014	0.000048	-0.000061	-0.504898	-10.647207	178.142099
03216	2.421468	-0.045264	12.894537	-0.000095	-0.068287	3.307144	1.000000	-0.000006	0.000038	-0.000078	-0.506540	-10.648071	178.134070
03217	2.408361	0.002340	12.893743	0.011218	-0.116099	3.303532	1.000000	0.000001	0.000039	-0.000077	-0.505326	-10.648949	178.128843
03218	2.419495	-0.044564	12.894910	0.002259	-0.069095	3.307140	1.000000	0.000001	0.000039	-0.000069	-0.506351	-10.649705	178.121780
03219	2.408284	-0.021230	12.918725	0.016613	-0.093219	3.328270	1.000000	-0.000009	0.000053	-0.000062	-0.507426	-10.647870	178.116360
03220	2.434308	-0.014581	12.898846	-0.012963	-0.099250	3.313480	1.000000	-0.000014	0.000045	-0.000086	-0.509784	-10.647970	178.107350
03221	2.412045	-0.044677	12.919647	0.013915	-0.070466	3.330070	1.000000	-0.000006	0.000038	-0.000078	-0.510552	-10.649015	178.101038
03222	2.410965	-0.044402	12.919850	0.015070	-0.071096	3.330066	1.000000	-0.000000	0.000046	-0.000069	-0.511683	-10.648898	178.093963
03223	2.437056	-0.037494	12.899968	-0.014631	-0.077008	3.315285	1.000000	-0.000001	0.000046	-0.000062	-0.512539	-10.648224	178.089286
03224	2.431904	-0.037804	12.924273	-0.005115	-0.077610	3.338220	1.000000	-0.000008	0.000045	-0.000070	-0.514522	-10.648217	178.082142
03225	2.438877	-0.036548	12.876294	-0.020451	-0.078074	3.292345	1.000000	0.000001	0.000031	-0.000054	-0.514895	-10.650848	178.077399
03226	2.429719	-0.037190	12.924686	-0.002566	-0.078650	3.338215	1.000000	0.000006	0.000063	-0.000077	-0.515154	-10.648880	178.069474
03227	2.432190	-0.036177	12.900890	-0.009412	-0.079033	3.315278	1.000000	0.000006	0.000055	-0.000061	-0.514509	-10.649327	178.067395
03228	2.430889	-0.035732	12.901136	-0.008257	-0.079664	3.315275	1.000000	0.000001	0.000046	-0.000085	-0.515165	-10.649213	178.058539
03229	2.429772	-0.035193	12.901348	-0.007220	-0.080047	3.315273	1.000000	0.000015	0.000040	-0.000053	-0.513884	-10.649221	178.050495
03230	2.432657	-0.034280	12.877477	-0.014442	-0.080700	3.292338	1.000000	-0.000008	0.000045	-0.000070	-0.515866	-10.649220	178.043356
03231	2.431481	-0.034014	12.877699	-0.013370	-0.081057	3.292337	1.000000	0.000001	0.000046	-0.000077	-0.515558	-10.648698	178.037525
03232	2.426202	-0.034217	12.902023	-0.003840	-0.081665	3.315265	1.000000	-0.000002	0.000054	-0.000062	-0.517034	-10.647715	178.031337
03233	2.411814	-0.063031	12.874669	0.005982	-0.052653	3.285981	1.000000	0.000008	0.000040	-0.000069	-0.515159	-10.647182	178.023150
03234	2.423796	-0.033385	12.902477	-0.001788	-0.082456	3.315260	1.000000	-0.000001	0.000054	-0.000070	-0.516394	-10.646195	178.016069
03235	2.397205	-0.015136	12.874117	0.018183	-0.101480	3.282315	1.000000	-0.000007	0.000038	-0.000062	-0.518285	-10.646088	178.008892
03236	2.427382	-0.056684	12.903454	-0.004767	-0.059846	3.317085	1.000000	-0.000010	0.000068	-0.000078	-0.520351	-10.643467	178.000814
03237	2.419772	-0.032733	12.903234	0.001253	-0.084291	3.315249	1.000000	0.000007	0.000047	-0.000069	-0.520667	-10.642408	177.991443
03238	2.452083	-0.049191	12.883879	-0.033408	-0.066509	3.302339	1.000000	0.000008	0.000040	-0.000061	-0.521080	-10.643046	177.985371
03239	2.423599	-0.055542	12.904170	-0.001577	-0.061268	3.317079	1.000000	-0.000009	0.000053	-0.000070	-0.521078	-10.641782	177.977447
03240	2.420188	-0.031065	12.879834	-0.003760	-0.085728	3.292313	1.000000	0.000007	0.000047	-0.000069	-0.521358	-10.641547	177.970465
03241	2.421099	-0.054642	12.904643	0.000761	-0.062407	3.317073	1.000000	0.000009	0.000047	-0.000084	-0.520607	-10.641440	177.963009
03242	2.424011	-0.053616	12.880776	-0.006487	-0.063052	3.294146	1.000000	0.000001	0.000039	-0.000069	-0.521631	-10.642187	177.955974
03243	2.435956	-0.024169	12.908591	-0.013847	-0.092860	3.323422	1.000000	-0.000009	0.000053	-0.000063	-0.523855	-10.642965	177.954744
03244	2.405244	-0.006442	12.904304	0.014725	-0.111917	3.313377	1.000000	0.000001	0.000046	-0.000085	-0.524513	-10.642843	177.945907
03245	2.437701	-0.022968	12.884947	-0.019759	-0.093942	3.300495	1.000000	0.000002	0.000031	-0.000069	-0.524524	-10.645235	177.942144
03246	2.442876	-0.046323	12.885638	-0.023674	-0.070763	3.302338	1.000000	-0.000008	0.000045	-0.000070	-0.526509	-10.645231	177.935025
03247	2.431515	-0.022998	12.909430	-0.009245	-0.094972	3.323411	1.000000	-0.000000	0.000046	-0.000069	-0.526677	-10.644231	177.926572
03248	2.404908	-0.004672	12.881044	0.010914	-0.114035	3.290433	1.000000	-0.000000	0.000046	-0.000069	-0.527811	-10.644113	177.919528
03249	2.435297	-0.045973	12.910387	-0.012054	-0.072218	3.325255	1.000000	-0.000001	0.000046	-0.000062	-0.528257	-10.643744	177.914245
03250	2.427753	-0.022142	12.910139	-0.005837	-0.096663	3.323400	1.000000	-0.000009	0.000061	-0.000078	-0.530221	-10.641996	177.906202
03251	2.422342	-0.022492	12.934471	0.003480	-0.097046	3.346315	1.000000	-0.000001	0.000046	-0.000054	-0.530786	-10.640769	177.897653
03252	2.412126	-0.050872	12.883018	0.005082	-0.068489	3.294120	1.000000	0.000001	0.000046	-0.000085	-0.531444	-10.640643	177.888826
03253	2.428017	-0.020626	12.886779	-0.011060	-0.097999	3.300475	1.000000	0.000007	0.000047	-0.000061	-0.530516	-10.640355	177.879920
03254	2.422785	-0.020857	12.911075	-0.001489	-0.098629	3.323387	1.000000	-0.000008	0.000045	-0.000070	-0.532499	-10.640345	177.872808
03255	2.423733	-0.044648	12.935881	0.003148	-0.075022	3.348158	1.000000	0.000008	0.000047	-0.000077	-0.530630	-10.640559	177.870182
03256	2.395070	-0.002065	12.882877	0.019926	-0.117888	3.290388	1.000000	0.000001	0.000039	-0.000069	-0.531651	-10.641308	177.863163
03257	2.429528	-0.042738	12.888174	-0.011176	-0.076140	3.302325	1.000000	-0.000000	0.000054	-0.000077	-0.531916	-10.641294	177.853388
03258	2.405075	-0.048571	12.884346	0.012318	-0.071376	3.294099	1.000000	0.000001	0.000039	-0.000069	-0.532939	-10.642046	177.846372
03259	2.431299	-0.041434	12.864537	-0.017386	-0.077269	3.279409	1.000000	0.000001	0.000047	-0.000085	-0.532991	-10.641572	177.837802
03260	2.439232	-0.012105	12.916413	-0.016647	-0.107111	3.331588	1.000000	0.000017	0.000033	-0.000068	-0.532205	-10.642966	177.830954
03261	2.405918	-0.046566	12.860881	0.007240	-0.072940	3.271177	1.000000	-0.000008	0.000053	-0.000078	-0.533184	-10.641999	177.825024
03262	2.423849	-0.040677	12.889250	-0.005517	-0.078975	3.302312	1.000000	-0.000001	0.000046	-0.000062	-0.534556	-10.641881	177.818890
03263	2.412388	-0.017336	12.913027	0.009207	-0.102885	3.323351	1.000000	-0.000001	0.000046	-0.000062	-0.533536	-10.641973	177.811477
03264	2.440668	-0.034393	12.917832	-0.017050	-0.085112	3.333449	1.000000	0.000001	0.000046	-0.000077	-0.534426	-10.641852	177.803555
03265	2.443638	-0.033500	12.893973	-0.024349	-0.085475	3.310541	1.000000	0.000000	0.000039	-0.000062	-0.534488	-10.642522	177.799396
03266	2.418998	-0.039436	12.890165	-0.000861	-0.080707	3.302302	1.000000	-0.000003	0.000069	-0.000070	-0.535946	-10.639793	177.792317
03267	2.413556	-0.039742	12.914490	0.009044	-0.081144	3.325205	1.000000	-0.000006	0.000038	-0.000078	-0.536627	-10.641945	177.787088
03268	2.439714	-0.032827	12.894718	-0.020593	-0.087179	3.310536	1.000000	-0.000009	0.000053	-0.000063	-0.538954	-10.641075	177.780867
03269	2.417235	-0.062894	12.915487	0.006340	-0.058476	3.327073	1.000000	0.000007	0.000055	-0.000077	-0.538518	-10.640219	177.775477
03270	2.413887	-0.038387	12.891127	0.004106	-0.082913	3.302288	1.000000	-0.000007	0.000038	-0.000070	-0.540388	-10.641087	177.768402
03271	2.412807	-0.038111	12.891330	0.005452	-0.083181	3.302286	1.000000	0.000001	0.000046	-0.000077	-0.539614	-10.641762	177.761839
03272	2.430881	-0.032048	12.919684	-0.007271	-0.089233	3.333431	1.000000	0.000001	0.000039	-0.000069	-0.540632	-10.642519	177.754839
03273	2.433870	-0.031205	12.895826	-0.014551	-0.089734	3.310527	1.000000	-0.000001	0.000046	-0.000054	-0.541671	-10.642506	177.751070
03274	2.409534	-0.037158	12.891944	0.008930	-0.084958	3.302272	1.000000	0.000001	0.000039	-0.000069	-0.542690	-10.643264	177.744073
03275	2.408357	-0.036895	12.892165	0.010135	-0.085135	3.302270	1.000000	-0.000008	0.000053	-0.000078	-0.542489	-10.642560	177.735073
03276	2.434327	-0.029974	12.872450	-0.019514	-0.091171	3.287622	1.000000	-0.000009	0.000053	-0.000063	-0.544815	-10.641694	177.728861
03277	2.409995	-0.035883	12.868562	0.004023	-0.086269	3.279363	1.000000	0.000010	0.000032	-0.000076	-0.544071	-10.643431	177.723566
03278	2.424044	-0.030250	12.920973	-0.000212	-0.092341	3.333411	1.000000	-0.000000	0.000046	-0.000070	-0.545198	-10.643320	177.716556
03279	2.422863	-0.030012	12.921195	0.010717	0.004900	3.333730	1.000000	-0.000008	0.000045	-0.000070	-0.114066	-10.670233	-178.108865
03280	2.451188	-0.047098	12.926041	-0.016766	0.020991	3.343770	1.000000	-0.000000	0.000046	-0.000070	-0.114036	-10.670152	-178.108877
03281	2.401339	-0.035059	12.893479	0.027025	0.010789	3.302518	1.000000	0.000007	0.000047	-0.000069	-0.112077	-10.672157	-178.127720
03282	2.446703	-0.022075	12.901896	-0.015490	-0.003489	3.319164	1.000000	0.000001	0.000039	-0.000069	-0.111934	-10.672946	-178.127721
03283	2.418186	-0.028638	12.922074	0.016081	0.003893	3.333725	1.000000	-0.000008	0.000053	-0.000078	-0.113156	-10.672278	-178.106961
03284	2.427379	-0.051335	12.898764	0.001978	0.026189	3.312564	1.000000	0.000008	0.000040	-0.000061	-0.112403	-10.672962	-178.105992
03285	2.424026	-0.026954	12.874400	0.001794	0.001972	3.287954	1.000000	-0.000016	0.000052	-0.000079	-0.112940	-10.673307	-178.127252
03286	2.424942	-0.050939	12.899224	0.004629	0.025845	3.312564	1.000000	-0.000000	0.000046	-0.000070	-0.112908	-10.673227	-178.127265
03287	2.434398	0.002851	12.902510	-0.002325	-0.028219	3.317441	1.000000	-0.000000	0.000046	-0.000070	-0.112959	-10.673168	-178.119660
03288	2.441676	-0.044511	12.927850	-0.006337	0.019022	3.343782	1.000000	0.000001	0.000046	-0.000077	-0.112687	-10.673079	-178.120568
03289	2.419192	-0.025742	12.875312	0.006506	0.000782	3.287952	1.000000	-0.000000	0.000046	-0.000070	-0.112738	-10.672547	-178.114873
03290	2.433087	-0.020218	12.927756	0.002826	-0.004948	3.342051	1.000000	0.000001	0.000039	-0.000069	-0.112594	-10.673337	-178.114875
03291	2.440146	-0.018883	12.879864	-0.012783	-0.006662	3.296292	1.000000	-0.000009	0.000053	-0.000063	-0.113081	-10.673183	-178.126983
03292	2.415673	-0.025124	12.875974	0.010262	0.000077	3.287950	1.000000	-0.000014	0.000045	-0.000086	-0.114267	-10.673314	-178.128936
03293	2.452785	-0.013384	12.932548	-0.015197	-0.012543	3.350395	1.000000	0.000007	0.000040	-0.000053	-0.113131	-10.674225	-178.139128
03294	2.419914	-0.048121	12.876894	0.005854	0.023009	3.289684	1.000000	-0.000006	0.000038	-0.000078	-0.113596	-10.675119	-178.140101
03295	2.418739	-0.047856	12.877116	0.007114	0.022580	3.289684	1.000000	-0.000001	0.000054	-0.000070	-0.114326	-10.674457	-178.115637
03296	2.430220	-0.018234	12.905017	0.001849	-0.007319	3.319171	1.000000	-0.000001	0.000046	-0.000062	-0.114535	-10.674384	-178.114757
03297	2.435547	-0.041476	12.905738	-0.003743	0.015825	3.320911	1.000000	0.000002	0.000031	-0.000069	-0.113969	-10.676399	-178.117682
03298	2.411043	-0.047477	12.901842	0.019290	0.022588	3.312557	1.000000	-0.000003	0.000069	-0.000070	-0.114275	-10.673707	-178.117732
03299	2.426470	-0.017528	12.905724	0.005206	-0.008291	3.319170	1.000000	-0.000016	0.000044	-0.000055	-0.117174	-10.672345	-178.096084
03300	2.404370	-0.047775	12.926371	0.029842	0.022644	3.335428	1.000000	0.000009	0.000040	-0.000076	-0.115940	-10.673010	-178.096905
03301	2.439118	-0.039434	12.858521	-0.016197	0.012964	3.275169	1.000000	-0.000013	0.000029	-0.000071	-0.117041	-10.675278	-178.100977
03302	2.400306	-0.023100	12.902133	0.030730	-0.002004	3.310806	1.000000	0.000007	0.000047	-0.000061	-0.116401	-10.675090	-178.100021
03303	2.409686	-0.045688	12.878821	0.016203	0.020313	3.289680	1.000000	0.000001	0.000039	-0.000069	-0.115967	-10.674454	-178.111060
03304	2.431802	-0.038973	12.883178	-0.004415	0.012954	3.298043	1.000000	0.000001	0.000046	-0.000077	-0.115695	-10.674363	-178.111969
03305	2.426562	-0.039197	12.907437	0.005279	0.013747	3.320913	1.000000	0.000000	0.000039	-0.000062	-0.114537	-10.675090	-178.145099
03306	2.421221	-0.039461	12.931713	0.014994	0.014257	3.343781	1.000000	-0.000001	0.000054	-0.000070	-0.114618	-10.674138	-178.145126
03307	2.428433	-0.038025	12.883816	-0.000699	0.012334	3.298045	1.000000	0.000001	0.000031	-0.000054	-0.115019	-10.676383	-178.131138
03308	2.416926	-0.014672	12.907518	0.015922	-0.010505	3.319160	1.000000	0.000001	0.000047	-0.000085	-0.114505	-10.676284	-178.132942
03309	2.403145	-0.043649	12.880050	0.023404	0.019118	3.289671	1.000000	0.000000	0.000039	-0.000062	-0.113260	-10.676572	-178.171350
03310	2.425157	-0.036983	12.884436	0.002788	0.011763	3.298045	1.000000	-0.000001	0.000054	-0.000070	-0.113342	-10.675619	-178.171377
03311	2.423955	-0.036554	12.884664	0.004100	0.011468	3.298045	1.000000	0.000008	0.000040	-0.000069	-0.112391	-10.676778	-178.163418
03312	2.416588	-0.012605	12.884312	0.012204	-0.012173	3.296289	1.000000	-0.000006	0.000038	-0.000078	-0.112854	-10.677671	-178.164393
03313	2.417813	-0.036452	12.909087	0.015076	0.011817	3.320907	1.000000	0.000001	0.000039	-0.000069	-0.112148	-10.678669	-178.176684
03314	2.416621	-0.036119	12.909311	0.016280	0.011528	3.320906	1.000000	-0.000001	0.000054	-0.000070	-0.112230	-10.677715	-178.176711
03315	2.419610	-0.035278	12.885484	0.008831	0.010687	3.298043	1.000000	-0.000006	0.000038	-0.000078	-0.111551	-10.678084	-178.211406
03316	2.414275	-0.035713	12.909751	0.018565	0.011195	3.320903	1.000000	-0.000009	0.000053	-0.000063	-0.112723	-10.677254	-178.210616
03317	2.432089	-0.029533	12.938203	0.006517	0.004795	3.352151	1.000000	0.000015	0.000041	-0.000060	-0.110376	-10.677928	-178.228005
03318	2.407790	-0.035504	12.934232	0.029532	0.011576	3.343759	1.000000	-0.000008	0.000045	-0.000070	-0.111193	-10.677960	-178.228099
03319	2.419029	-0.033448	12.862333	0.005339	0.009044	3.275182	1.000000	0.000006	0.000055	-0.000069	-0.109801	-10.677859	-178.237708
03320	2.443136	-0.050799	12.891353	-0.013624	0.025829	3.308198	1.000000	-0.000001	0.000046	-0.000062	-0.110010	-10.677783	-178.236831
03321	2.408192	-0.033982	12.910892	0.024785	0.010115	3.320894	1.000000	-0.000007	0.000045	-0.000078	-0.110320	-10.677639	-178.243281
03322	2.434368	-0.026669	12.891258	-0.004360	0.001951	3.306435	1.000000	0.000007	0.000047	-0.000061	-0.109680	-10.677446	-178.242327
03323	2.405794	-0.033250	12.911341	0.027172	0.009415	3.320890	1.000000	-0.000000	0.000046	-0.000070	-0.110234	-10.677271	-178.222441
03324	2.427980	-0.026486	12.915720	0.006578	0.002035	3.329290	1.000000	0.000002	0.000031	-0.000069	-0.109973	-10.678926	-178.222434
03325	2.431269	-0.025530	12.891845	-0.000826	0.001214	3.306436	1.000000	0.000001	0.000039	-0.000069	-0.108618	-10.679492	-178.257081
03326	2.445083	-0.020018	12.944316	-0.004314	-0.004569	3.360547	1.000000	-0.000007	0.000038	-0.000070	-0.109320	-10.680392	-178.257164
03327	2.405916	-0.031374	12.888058	0.023216	0.008025	3.298028	1.000000	0.000006	0.000055	-0.000061	-0.107335	-10.678641	-178.301154
03328	2.461574	-0.040989	12.873211	-0.034637	0.016146	3.293766	1.000000	0.000008	0.000047	-0.000077	-0.106212	-10.678429	-178.301989
03329	2.405722	-0.054556	12.913105	0.027242	0.031641	3.322647	1.000000	0.000000	0.000039	-0.000062	-0.106073	-10.679051	-178.306272
03330	2.425676	-0.023724	12.892902	0.004982	0.000128	3.306435	1.000000	-0.000000	0.000039	-0.000054	-0.106410	-10.679852	-178.304490
03331	2.424582	-0.023377	12.893109	0.006057	-0.000112	3.306434	1.000000	0.000001	0.000047	-0.000085	-0.105642	-10.679200	-178.314494
03332	2.410770	-0.052514	12.865650	0.013588	0.029236	3.276945	1.000000	-0.000009	0.000053	-0.000063	-0.106815	-10.678370	-178.313707
03333	2.428439	-0.046305	12.894147	0.001562	0.022820	3.308210	1.000000	0.000014	0.000048	-0.000061	-0.104585	-10.678060	-178.332457
03334	2.427224	-0.045807	12.894377	0.002761	0.022527	3.308211	1.000000	-0.000000	0.000046	-0.000070	-0.104553	-10.677973	-178.332475
03335	2.392114	-0.028999	12.913893	0.041258	0.006844	3.320854	1.000000	-0.000002	0.000054	-0.000062	-0.104490	-10.677159	-178.339696
03336	2.441483	-0.015343	12.898506	-0.009697	-0.008406	3.314855	1.000000	-0.000007	0.000038	-0.000062	-0.105433	-10.678067	-178.338886
03337	2.419274	-0.045719	12.919122	0.014977	0.022491	3.331055	1.000000	-0.000002	0.000062	-0.000070	-0.105813	-10.676290	-178.331132
03338	2.422116	-0.044890	12.895341	0.007601	0.021404	3.308211	1.000000	-0.000007	0.000045	-0.000078	-0.106386	-10.676311	-178.332123
03339	2.420940	-0.044679	12.895563	0.008919	0.021036	3.308210	1.000000	-0.000001	0.000046	-0.000054	-0.107205	-10.676774	-178.313485
03340	2.419776	-0.044536	12.895782	0.010119	0.020744	3.308210	1.000000	-0.000014	0.000045	-0.000086	-0.108385	-10.676903	-178.315449
03341	2.428833	0.009262	12.899121	0.003341	-0.033377	3.313070	1.000000	0.000007	0.000047	-0.000061	-0.107898	-10.676454	-178.309492
03342	2.421622	-0.043277	12.872192	0.003875	0.019326	3.285368	1.000000	-0.000000	0.000046	-0.000070	-0.107865	-10.676367	-178.309511
03343	2.405604	-0.020555	12.919917	0.029243	-0.002655	3.329259	1.000000	0.000002	0.000039	-0.000077	-0.107266	-10.677399	-178.312671
03344	2.412967	-0.019023	12.872047	0.013268	-0.004547	3.283578	1.000000	-0.000001	0.000046	-0.000062	-0.107475	-10.677320	-178.311796
03345	2.413920	-0.042804	12.896885	0.016077	0.019385	3.308206	1.000000	0.000000	0.000054	-0.000085	-0.106688	-10.676150	-178.324361
03346	2.429601	-0.012437	12.900752	0.002445	-0.011367	3.314856	1.000000	0.000002	0.000023	-0.000054	-0.106794	-10.678689	-178.322556
03347	2.416264	-0.041478	12.873205	0.009893	0.018125	3.285367	1.000000	0.000001	0.000047	-0.000085	-0.105715	-10.678630	-178.338813
03348	2.410811	-0.041550	12.897470	0.019689	0.018635	3.308202	1.000000	0.000014	0.000048	-0.000053	-0.104470	-10.678325	-178.336887
03349	2.432760	-0.034691	12.901941	-0.001046	0.011071	3.316650	1.000000	-0.000008	0.000045	-0.000070	-0.105913	-10.677622	-178.321441
03350	2.425089	-0.010923	12.901603	0.007109	-0.012556	3.314853	1.000000	-0.000000	0.000046	-0.000070	-0.105880	-10.677534	-178.321461
03351	2.407351	-0.040691	12.898119	0.023153	0.017691	3.308198	1.000000	-0.000007	0.000038	-0.000070	-0.106276	-10.678568	-178.327934
03352	2.429418	-0.033946	12.902573	0.002591	0.010261	3.316650	1.000000	-0.000000	0.000046	-0.000070	-0.106243	-10.678479	-178.327954
03353	2.402827	-0.015985	12.873948	0.023887	-0.006896	3.283562	1.000000	-0.000000	0.000046	-0.000070	-0.105596	-10.678341	-178.344912
03354	2.420627	-0.009739	12.902442	0.011938	-0.013521	3.314849	1.000000	0.000001	0.000039	-0.000069	-0.105447	-10.679121	-178.344920
03355	2.426037	-0.032916	12.903212	0.005978	0.009724	3.316649	1.000000	-0.000000	0.000046	-0.000070	-0.104462	-10.678131	-178.378725
03356	2.449898	-0.001430	12.859082	-0.024862	-0.022639	3.277647	1.000000	-0.000008	0.000053	-0.000078	-0.105150	-10.677281	-178.379730
03357	2.400536	-0.038923	12.899395	0.030170	0.016104	3.308186	1.000000	0.000001	0.000031	-0.000062	-0.105947	-10.679074	-178.351450
03358	2.427049	-0.031531	12.879791	0.000998	0.007859	3.293820	1.000000	-0.000006	0.000038	-0.000078	-0.106403	-10.679964	-178.352431
03359	2.421805	-0.031815	12.904009	0.010859	0.008184	3.316647	1.000000	0.000002	0.000039	-0.000077	-0.106882	-10.680910	-178.323602
03360	2.414184	-0.007921	12.903650	0.019044	-0.015432	3.314838	1.000000	-0.000000	0.000046	-0.000070	-0.106849	-10.680821	-178.323623
03361	2.449180	-0.048101	12.909277	-0.015598	0.023720	3.326925	1.000000	-0.000000	0.000046	-0.000070	-0.106945	-10.680159	-178.322040
03362	2.443821	-0.048355	12.933516	-0.005772	0.024237	3.349752	1.000000	0.000001	0.000039	-0.000069	-0.106796	-10.680940	-178.322049
03363	2.434578	-0.076923	12.881974	-0.007284	0.052789	3.297442	1.000000	-0.000008	0.000053	-0.000078	-0.107568	-10.679152	-178.326269
03364	2.464577	-0.041215	12.938242	-0.025320	0.016443	3.358229	1.000000	0.000008	0.000040	-0.000061	-0.106815	-10.679823	-178.325305
03365	2.459696	-0.069026	12.862658	-0.035221	0.044423	3.283099	1.000000	-0.000000	0.000046	-0.000070	-0.105882	-10.679864	-178.350350
03366	2.420290	-0.052957	12.906095	0.011970	0.029603	3.318454	1.000000	-0.000001	0.000046	-0.000062	-0.106093	-10.679783	-178.349477
03367	2.442119	-0.046079	12.910622	-0.008620	0.022206	3.326934	1.000000	0.000005	0.000055	-0.000054	-0.105486	-10.678494	-178.358017
03368	2.417497	-0.052343	12.906621	0.014320	0.029089	3.318453	1.000000	-0.000004	0.000061	-0.000054	-0.106173	-10.676684	-178.356275
03369	2.397146	-0.057907	12.878590	0.028635	0.035366	3.287147	1.000000	0.000013	0.000056	-0.000053	-0.104097	-10.675538	-178.381804
03370	2.405839	-0.003812	12.881981	0.022066	-0.018742	3.291993	1.000000	0.000007	0.000047	-0.000061	-0.103459	-10.675337	-178.380853
03371	2.411079	-0.026868	12.882801	0.016271	0.004300	3.293811	1.000000	0.000006	0.000055	-0.000061	-0.102885	-10.674228	-178.380486
03372	2.398927	-0.003580	12.906497	0.033109	-0.018502	3.314806	1.000000	-0.000000	0.000046	-0.000070	-0.102852	-10.674138	-178.380508
03373	2.378778	-0.009050	12.878420	0.047400	-0.012326	3.283494	1.000000	0.000013	0.000056	-0.000061	-0.101026	-10.672969	-178.391970
03374	2.373250	-0.009045	12.902674	0.057251	-0.011804	3.306306	1.000000	0.000009	0.000040	-0.000076	-0.099783	-10.673619	-178.392796
03375	2.397542	-0.026227	12.931780	0.038506	0.004958	3.339435	1.000000	-0.000008	0.000045	-0.000070	-0.100131	-10.674213	-178.400494
03376	2.394096	-0.001945	12.907394	0.038053	-0.019461	3.314791	1.000000	-0.000007	0.000045	-0.000078	-0.100701	-10.674231	-178.401491
03377	2.401874	-0.049359	12.932775	0.033934	0.027756	3.341255	1.000000	-0.000006	0.000038	-0.000078	-0.100874	-10.675196	-178.408874
03378	2.402935	-0.024423	12.884327	0.024820	0.002526	3.293798	1.000000	-0.000011	0.000037	-0.000102	-0.101444	-10.676175	-178.412622
03379	2.431864	-0.041054	12.889358	-0.002840	0.018322	3.304128	1.000000	-0.000002	0.000023	-0.000093	-0.101325	-10.678202	-178.414937
03380	2.396915	-0.024665	12.908672	0.035751	0.002719	3.316605	1.000000	-0.000023	0.000051	-0.000079	-0.103708	-10.677590	-178.416106
03381	2.425755	-0.041465	12.913722	0.008044	0.018686	3.326940	1.000000	0.000004	0.000016	-0.000069	-0.102540	-10.680179	-178.442232
03382	2.452479	-0.033894	12.894142	-0.021145	0.010390	3.312638	1.000000	-0.000005	0.000038	-0.000086	-0.102749	-10.681056	-178.444111
03383	2.428609	-0.040304	12.889974	0.001788	0.017245	3.304130	1.000000	-0.000011	0.000022	-0.000078	-0.104000	-10.683851	-178.438106
03384	2.484961	-0.049784	12.875308	-0.056131	0.025050	3.300179	1.000000	0.000000	0.000039	-0.000062	-0.104094	-10.684637	-178.437223
03385	2.450060	-0.033307	12.894604	-0.017322	0.009538	3.312644	1.000000	-0.000007	0.000030	-0.000055	-0.104801	-10.687342	-178.436326
03386	2.512803	-0.066129	12.880569	-0.082260	0.040636	3.310544	1.000000	0.000008	0.000048	-0.000077	-0.103676	-10.687119	-178.437165
03387	2.477461	-0.049341	12.899947	-0.043814	0.025077	3.323002	1.000000	0.000006	0.000055	-0.000061	-0.103023	-10.685331	-178.446277
03388	2.476024	-0.048756	12.900225	-0.042614	0.024775	3.323007	1.000000	0.000019	0.000057	-0.000045	-0.101297	-10.684037	-178.443391
03389	2.470166	-0.048750	12.924543	-0.032832	0.025424	3.345815	1.000000	0.000006	0.000063	-0.000077	-0.099838	-10.681629	-178.464773
03390	2.443049	-0.030722	12.895940	-0.011583	0.008207	3.312651	1.000000	0.000010	0.000071	-0.000053	-0.098951	-10.678705	-178.462886
03391	2.395136	-0.043488	12.887603	0.033012	0.022440	3.295603	1.000000	0.000005	0.000063	-0.000061	-0.098025	-10.676623	-178.478034
03392	2.386888	-0.019462	12.887318	0.041225	-0.001163	3.293757	1.000000	0.000013	0.000064	-0.000068	-0.096532	-10.674549	-178.477924
03393	2.378735	0.004521	12.887013	0.049374	-0.024790	3.291909	1.000000	0.000004	0.000055	-0.000046	-0.096614	-10.673182	-178.474484
03394	2.347499	0.021751	12.882362	0.079307	-0.041173	3.281528	1.000000	0.000005	0.000063	-0.000061	-0.096213	-10.671238	-178.473560
03395	2.348388	-0.001993	12.907225	0.081889	-0.017218	3.306169	1.000000	-0.000000	0.000046	-0.000070	-0.095406	-10.669945	-178.507674
03396	2.365856	0.004207	12.935820	0.070078	-0.023903	3.337494	1.000000	-0.000009	0.000053	-0.000063	-0.096581	-10.669111	-178.506897
03397	2.369128	0.004870	12.912000	0.062556	-0.025056	3.314688	1.000000	-0.000008	0.000030	-0.000047	-0.098170	-10.670737	-178.497448
03398	2.381456	-0.042142	12.913357	0.049715	0.021274	3.318381	1.000000	-0.000016	0.000044	-0.000063	-0.100075	-10.670894	-178.496738
03399	2.380404	-0.042169	12.913551	0.050810	0.020934	3.318378	1.000000	-0.000008	0.000038	-0.000055	-0.101479	-10.671349	-178.492730
03400	2.402634	-0.035496	12.918061	0.030309	0.013420	3.326914	1.000000	-0.000013	0.000029	-0.000071	-0.102903	-10.673234	-178.492891
03401	2.397424	-0.036012	12.942237	0.040129	0.013955	3.349707	1.000000	-0.000006	0.000038	-0.000078	-0.103261	-10.673749	-178.499741
03402	2.405361	-0.034630	12.894349	0.023922	0.012037	3.304114	1.000000	-0.000012	0.000022	-0.000071	-0.104567	-10.676503	-178.499889
03403	2.427678	-0.027738	12.898850	0.003441	0.004497	3.312657	1.000000	-0.000003	0.000038	-0.000109	-0.104107	-10.677417	-178.501071
03404	2.403816	-0.034036	12.894639	0.026336	0.011437	3.304110	1.000000	-0.000004	0.000023	-0.000078	-0.104320	-10.680041	-178.502034
03405	2.419460	-0.003630	12.898551	0.013033	-0.019553	3.310798	1.000000	-0.000011	0.000037	-0.000109	-0.105376	-10.681583	-178.478496
03406	2.425358	-0.026787	12.899288	0.007178	0.003449	3.312656	1.000000	-0.000002	0.000023	-0.000093	-0.105099	-10.684187	-178.481249
03407	2.475171	-0.012391	12.884132	-0.043925	-0.012221	3.306970	1.000000	0.000003	0.000031	-0.000077	-0.104756	-10.684857	-178.486994
03408	2.499677	-0.029511	12.913273	-0.062753	0.004336	3.340180	1.000000	-0.000007	0.000038	-0.000070	-0.105453	-10.685752	-178.487088
03409	2.503068	-0.028751	12.889448	-0.070229	0.003326	3.317397	1.000000	-0.000008	0.000038	-0.000055	-0.106177	-10.686843	-178.496073
03410	2.497643	-0.029360	12.913667	-0.060307	0.003841	3.340192	1.000000	-0.000010	0.000045	-0.000047	-0.107727	-10.686898	-178.493496
03411	2.526143	-0.046178	12.918874	-0.087753	0.019796	3.350623	1.000000	-0.000011	0.000053	-0.000047	-0.108521	-10.686500	-178.510813
03412	2.489676	-0.082232	12.886979	-0.058976	0.056479	3.312586	1.000000	0.000004	0.000055	-0.000046	-0.108496	-10.685442	-178.508087
03413	2.460750	-0.089383	12.906902	-0.027354	0.064236	3.326816	1.000000	-0.000006	0.000061	-0.000031	-0.110007	-10.683776	-178.499563
03414	2.459149	-0.089130	12.907209	-0.026160	0.063935	3.326819	1.000000	0.000011	0.000063	-0.000045	-0.109253	-10.681727	-178.496770
03415	2.415665	-0.101387	12.874767	0.009664	0.077272	3.286904	1.000000	0.000010	0.000071	-0.000045	-0.108983	-10.678916	-178.482054
03416	2.421453	-0.071977	12.926920	0.013727	0.048060	3.339171	1.000000	0.000011	0.000071	-0.000061	-0.107858	-10.675977	-178.481063
03417	2.394211	-0.053768	12.898276	0.034979	0.030899	3.305944	1.000000	0.000027	0.000073	-0.000067	-0.104961	-10.672954	-178.473807
03418	2.371635	-0.034741	12.845565	0.047460	0.012953	3.249930	1.000000	0.000023	0.000050	-0.000075	-0.102139	-10.672483	-178.474487
03419	2.354895	-0.011719	12.893212	0.073222	-0.009019	3.293614	1.000000	0.000015	0.000049	-0.000068	-0.100691	-10.672123	-178.466318
03420	2.346763	0.012289	12.892868	0.081523	-0.032588	3.291731	1.000000	-0.000001	0.000062	-0.000085	-0.100405	-10.670268	-178.468161
03421	2.361864	0.043129	12.896886	0.068049	-0.063375	3.298426	1.000000	0.000025	0.000034	-0.000067	-0.097136	-10.671121	-178.485784
03422	2.349815	0.066512	12.920457	0.085100	-0.086118	3.319319	1.000000	-0.000007	0.000038	-0.000070	-0.097828	-10.672016	-178.485881
03423	2.371900	0.073267	12.925033	0.064456	-0.093676	3.327893	1.000000	-0.000015	0.000037	-0.000063	-0.099410	-10.672280	-178.499685
03424	2.382060	0.050444	12.901810	0.049826	-0.071508	3.306987	1.000000	-0.000013	0.000037	-0.000086	-0.100459	-10.673276	-178.501652
03425	2.413224	0.009538	12.931606	0.023952	-0.031790	3.342106	1.000000	-0.000022	0.000036	-0.000072	-0.103257	-10.674482	-178.488720
03426	2.417022	0.009845	12.907713	0.016409	-0.032914	3.319326	1.000000	-0.000033	0.000011	-0.000080	-0.106733	-10.678464	-178.489997
03427	2.439349	-0.084890	12.934172	-0.002268	0.060764	3.349635	1.000000	-0.000017	0.000005	-0.000079	-0.108261	-10.682188	-178.504966
03428	2.454371	-0.107153	12.886862	-0.025692	0.082086	3.305972	1.000000	-0.000021	0.000036	-0.000079	-0.110403	-10.683317	-178.506120
03429	2.457842	-0.106436	12.863035	-0.033211	0.080981	3.283202	1.000000	-0.000005	0.000038	-0.000086	-0.110494	-10.684408	-178.507743
03430	2.475622	-0.100072	12.891618	-0.044913	0.074196	3.314574	1.000000	-0.000005	0.000030	-0.000078	-0.110822	-10.686161	-178.508722
03431	2.485899	-0.122449	12.868389	-0.059542	0.096344	3.293696	1.000000	0.000004	0.000039	-0.000100	-0.109649	-10.687178	-178.509268
03432	2.473738	-0.099041	12.891987	-0.042469	0.073597	3.314586	1.000000	0.000009	0.000040	-0.000077	-0.108403	-10.687816	-178.510097
03433	2.472790	-0.098195	12.892176	-0.041141	0.073349	3.314592	1.000000	0.000026	0.000035	-0.000083	-0.104861	-10.689679	-178.510170
03434	2.485452	-0.042944	12.871626	-0.056099	0.018336	3.296645	1.000000	0.000020	0.000065	-0.000060	-0.102775	-10.687483	-178.509085
03435	2.483693	-0.042155	12.871968	-0.054985	0.018201	3.296650	1.000000	0.000019	0.000072	-0.000060	-0.100146	-10.684037	-178.531391
03436	2.464193	0.004787	12.895050	-0.030763	-0.027819	3.315635	1.000000	0.000014	0.000048	-0.000053	-0.098911	-10.683713	-178.529468
03437	2.451452	0.028167	12.918735	-0.013750	-0.050489	3.336510	1.000000	0.000016	0.000072	-0.000029	-0.097618	-10.680331	-178.538028
03438	2.430994	0.022532	12.890654	0.000324	-0.044293	3.305134	1.000000	0.000009	0.000071	-0.000038	-0.097236	-10.677419	-178.534353
03439	2.424835	0.022282	12.914980	0.010202	-0.043629	3.327900	1.000000	0.000009	0.000063	-0.000030	-0.096382	-10.675005	-178.550888
03440	2.372615	0.008424	12.930432	0.063466	-0.028443	3.333438	1.000000	0.000002	0.000070	-0.000046	-0.096601	-10.672206	-178.548190
03441	2.352233	0.002410	12.902322	0.077589	-0.022235	3.302052	1.000000	-0.000012	0.000068	-0.000055	-0.098301	-10.669905	-178.542036
03442	2.350858	0.002504	12.902572	0.078793	-0.022521	3.302045	1.000000	-0.000000	0.000039	-0.000054	-0.098637	-10.670696	-178.540263
03443	2.337864	-0.026866	12.874964	0.085778	0.007003	3.272557	1.000000	-0.000008	0.000053	-0.000078	-0.099171	-10.670157	-178.540758
03444	2.332169	-0.027360	12.899190	0.095763	0.007553	3.295312	1.000000	-0.000012	0.000045	-0.000102	-0.099843	-10.670262	-178.544532
03445	2.331205	-0.027136	12.899365	0.096977	0.007295	3.295303	1.000000	-0.000004	0.000030	-0.000086	-0.099794	-10.672072	-178.548394
03446	2.367133	-0.066867	12.905175	0.062262	0.046200	3.307729	1.000000	-0.000002	0.000023	-0.000101	-0.099256	-10.674662	-178.552048
03447	2.385034	-0.060333	12.933748	0.050663	0.039353	3.339109	1.000000	-0.000003	0.000031	-0.000093	-0.099325	-10.676578	-178.545551
03448	2.439288	-0.045023	12.894785	-0.008975	0.022674	3.310842	1.000000	-0.000002	0.000023	-0.000101	-0.098787	-10.679168	-178.549205
03449	2.491453	-0.054416	12.904439	-0.058067	0.031032	3.330011	1.000000	-0.000003	0.000031	-0.000101	-0.097909	-10.681350	-178.558200
03450	2.467938	-0.060767	12.900084	-0.035250	0.038086	3.321386	1.000000	0.000005	0.000009	-0.000069	-0.097267	-10.685596	-178.558166
03451	2.483551	-0.030165	12.904033	-0.048526	0.007273	3.328111	1.000000	-0.000006	0.000038	-0.000078	-0.097245	-10.686411	-178.571863
03452	2.498382	-0.051963	12.856833	-0.072091	0.028554	3.284517	1.000000	0.000002	0.000031	-0.000069	-0.096967	-10.688049	-178.571869
03453	2.492925	-0.052185	12.881025	-0.062196	0.029245	3.307278	1.000000	0.000007	0.000047	-0.000061	-0.095718	-10.687338	-178.593392
03454	2.468613	-0.058693	12.876818	-0.039383	0.036298	3.298646	1.000000	-0.000003	0.000054	-0.000047	-0.096545	-10.686399	-178.590752
03455	2.449224	-0.012331	12.899814	-0.015163	-0.009625	3.317573	1.000000	-0.000002	0.000046	-0.000047	-0.096951	-10.685903	-178.601512
03456	2.459126	-0.034958	12.876706	-0.029929	0.012501	3.296738	1.000000	-0.000004	0.000061	-0.000047	-0.097899	-10.684094	-178.598886
03457	2.453073	-0.035381	12.901004	-0.019877	0.013037	3.319493	1.000000	0.000004	0.000063	-0.000054	-0.097747	-10.682327	-178.594771
03458	2.442450	-0.036453	12.949312	-0.001045	0.014412	3.364997	1.000000	-0.000005	0.000069	-0.000055	-0.098569	-10.679638	-178.593053
03459	2.449702	-0.034970	12.901645	-0.017338	0.012440	3.319497	1.000000	-0.000004	0.000061	-0.000055	-0.099253	-10.678436	-178.583038
03460	2.397634	-0.049076	12.916985	0.035893	0.027734	3.324949	1.000000	-0.000002	0.000062	-0.000070	-0.099459	-10.676595	-178.583097
03461	2.407809	-0.019022	12.945111	0.031506	-0.002435	3.354424	1.000000	0.000013	0.000056	-0.000061	-0.098482	-10.675467	-178.571493
03462	2.394689	-0.048061	12.917535	0.038305	0.027069	3.324944	1.000000	0.000006	0.000055	-0.000069	-0.097720	-10.674371	-178.571457
03463	2.352206	-0.008279	12.936027	0.084138	-0.011452	3.335184	1.000000	0.000001	0.000047	-0.000077	-0.097107	-10.673578	-178.590319
03464	2.392172	-0.047113	12.918005	0.040553	0.026541	3.324938	1.000000	0.000009	0.000048	-0.000084	-0.095729	-10.673329	-178.592060
03465	2.370172	-0.028715	12.865114	0.052933	0.008732	3.268858	1.000000	0.000001	0.000039	-0.000070	-0.095435	-10.674363	-178.591432
03466	2.357833	-0.005604	12.888657	0.070148	-0.013967	3.289670	1.000000	0.000001	0.000039	-0.000070	-0.095275	-10.675129	-178.591452
03467	2.391273	-0.021135	12.869956	0.033744	0.000859	3.277510	1.000000	0.000002	0.000031	-0.000069	-0.094506	-10.676838	-178.601970
03468	2.386093	-0.021471	12.894074	0.043778	0.001410	3.300250	1.000000	-0.000004	0.000023	-0.000078	-0.094700	-10.679456	-178.602942
03469	2.412813	-0.013811	12.874722	0.014496	-0.007153	3.286170	1.000000	-0.000014	0.000037	-0.000071	-0.096347	-10.680247	-178.603509
03470	2.464910	-0.023420	12.884488	-0.034680	0.000997	3.305436	1.000000	-0.000005	0.000023	-0.000062	-0.097036	-10.682887	-178.602692
03471	2.464247	-0.023324	12.884615	-0.033537	0.000623	3.305439	1.000000	-0.000013	0.000029	-0.000071	-0.098747	-10.684514	-178.599365
03472	2.493272	-0.039895	12.889907	-0.061125	0.016158	3.316048	1.000000	-0.000015	0.000037	-0.000063	-0.100527	-10.685541	-178.598657
03473	2.503678	-0.062456	12.866739	-0.075990	0.038296	3.295251	1.000000	0.000002	0.000039	-0.000077	-0.099939	-10.686231	-178.604646
03474	2.493608	-0.063483	12.914924	-0.057101	0.039683	3.340736	1.000000	-0.000007	0.000045	-0.000078	-0.100501	-10.686242	-178.605658
03475	2.466774	-0.046109	12.886082	-0.035969	0.022637	3.307389	1.000000	-0.000010	0.000068	-0.000078	-0.101694	-10.683619	-178.600956
03476	2.488174	-0.038881	12.890895	-0.056351	0.014911	3.316071	1.000000	0.000007	0.000055	-0.000077	-0.100686	-10.682510	-178.601816
03477	2.429308	-0.029502	12.905515	0.004132	0.006959	3.319512	1.000000	-0.000002	0.000062	-0.000070	-0.101373	-10.680922	-178.586945
03478	2.416130	-0.058754	12.877954	0.010824	0.036482	3.290037	1.000000	0.000005	0.000063	-0.000069	-0.100736	-10.678955	-178.586923
03479	2.439894	-0.075504	12.907395	-0.007968	0.052916	3.323399	1.000000	0.000004	0.000063	-0.000061	-0.100009	-10.676779	-178.597330
03480	2.401598	-0.035157	12.901888	0.029254	0.013576	3.310825	1.000000	0.000006	0.000055	-0.000061	-0.099496	-10.675691	-178.596401
03481	2.388530	-0.064392	12.874304	0.035872	0.043088	3.281349	1.000000	0.000004	0.000063	-0.000054	-0.099418	-10.673485	-178.597191
03482	2.394265	-0.035136	12.926396	0.040456	0.013825	3.333553	1.000000	-0.000000	0.000039	-0.000054	-0.099753	-10.674271	-178.595423
03483	2.390976	-0.010789	12.901941	0.039913	-0.010540	3.308869	1.000000	0.000001	0.000031	-0.000054	-0.099838	-10.675437	-178.604163
03484	2.396866	-0.033812	12.902771	0.033880	0.012403	3.310815	1.000000	0.000012	0.000048	-0.000038	-0.099100	-10.675124	-178.600451
03485	2.395650	-0.033457	12.902998	0.035131	0.012104	3.310812	1.000000	-0.000002	0.000046	-0.000054	-0.099600	-10.675273	-178.594338
03486	2.387542	-0.009832	12.902577	0.043572	-0.011422	3.308857	1.000000	-0.000002	0.000046	-0.000054	-0.100058	-10.675190	-178.592584
03487	2.409429	-0.002722	12.907312	0.023250	-0.019164	3.317550	1.000000	-0.000007	0.000038	-0.000070	-0.100728	-10.676236	-178.590626
03488	2.408438	-0.002429	12.907497	0.024454	-0.019459	3.317548	1.000000	0.000002	0.000039	-0.000077	-0.100318	-10.676990	-178.591543
03489	2.414485	-0.025563	12.908304	0.018419	0.003498	3.319501	1.000000	-0.000012	0.000029	-0.000086	-0.101130	-10.678916	-178.594669
03490	2.413410	-0.025295	12.908506	0.019620	0.003202	3.319499	1.000000	0.000000	0.000054	-0.000085	-0.100719	-10.677921	-178.596510
03491	2.412417	-0.024891	12.908692	0.020858	0.002911	3.319497	1.000000	-0.000002	0.000023	-0.000093	-0.100396	-10.680680	-178.596948
03492	2.441428	-0.040990	12.914047	-0.006753	0.018370	3.330161	1.000000	-0.000000	0.000046	-0.000070	-0.100358	-10.680575	-178.596985
03493	2.444798	-0.040102	12.890290	-0.014353	0.017308	3.307439	1.000000	-0.000014	0.000045	-0.000086	-0.101091	-10.681076	-178.602321
03494	2.462175	-0.033763	12.919013	-0.025815	0.010392	3.338874	1.000000	-0.000013	0.000037	-0.000086	-0.102122	-10.682070	-178.604303
03495	2.445095	-0.063885	12.915314	-0.010197	0.040800	3.332127	1.000000	-0.000000	0.000046	-0.000070	-0.102064	-10.682611	-178.594519
03496	2.460017	-0.033257	12.919425	-0.023266	0.009792	3.338879	1.000000	-0.000006	0.000038	-0.000078	-0.102498	-10.683490	-178.595522
03497	2.454326	-0.085966	12.892416	-0.024000	0.062564	3.311375	1.000000	0.000006	0.000055	-0.000061	-0.101953	-10.682283	-178.597063
03498	2.457611	-0.032511	12.919885	-0.020889	0.009196	3.338883	1.000000	0.000001	0.000039	-0.000070	-0.101790	-10.683047	-178.597087
03499	2.417264	-0.069498	12.911686	0.016125	0.047114	3.323413	1.000000	0.000002	0.000070	-0.000046	-0.101985	-10.680347	-178.593505
03500	2.447827	-0.060851	12.868576	-0.022012	0.037585	3.286699	1.000000	-0.000000	0.000046	-0.000070	-0.101945	-10.680242	-178.593543
03501	2.416792	-0.043968	12.863579	0.008027	0.021622	3.276008	1.000000	0.000014	0.000041	-0.000045	-0.100607	-10.680884	-178.594056
03502	2.422538	-0.014570	12.915653	0.012788	-0.007658	3.328195	1.000000	-0.000001	0.000046	-0.000062	-0.100815	-10.680789	-178.593199
03503	2.402940	-0.020474	12.887340	0.026532	-0.001356	3.296751	1.000000	0.000007	0.000047	-0.000061	-0.100342	-10.680196	-178.594831
03504	2.401622	-0.020049	12.887586	0.027731	-0.001650	3.296748	1.000000	0.000005	0.000055	-0.000054	-0.100079	-10.679116	-178.593009
03505	2.411704	0.010072	12.915724	0.023535	-0.031808	3.326216	1.000000	0.000007	0.000048	-0.000069	-0.099213	-10.678551	-178.597878
03506	2.428810	-0.035538	12.893325	0.001228	0.013453	3.307451	1.000000	0.000004	0.000063	-0.000062	-0.098825	-10.676591	-178.596964
03507	2.415961	-0.012470	12.916887	0.018664	-0.009174	3.328187	1.000000	-0.000004	0.000038	-0.000093	-0.098708	-10.677540	-178.599323
03508	2.442300	-0.004591	12.897712	-0.010569	-0.017861	3.314209	1.000000	-0.000009	0.000053	-0.000063	-0.099887	-10.676703	-178.598565
03509	2.395150	-0.018380	12.888793	0.033577	-0.003109	3.296734	1.000000	-0.000005	0.000046	-0.000093	-0.099898	-10.676271	-178.609070
03510	2.396399	-0.042206	12.913639	0.036385	0.020678	3.321422	1.000000	-0.000007	0.000045	-0.000078	-0.100454	-10.676280	-178.610089
03511	2.427406	-0.033510	12.870483	-0.001884	0.011130	3.284741	1.000000	0.000002	0.000039	-0.000077	-0.099958	-10.676548	-178.620352
03512	2.391918	-0.017628	12.889394	0.037064	-0.003979	3.296725	1.000000	-0.000014	0.000037	-0.000071	-0.101484	-10.677564	-178.620547
03513	2.427893	-0.057184	12.895477	0.002066	0.034555	3.309434	1.000000	0.000002	0.000039	-0.000077	-0.101327	-10.678086	-178.619996
03514	2.422313	-0.057493	12.919636	0.012187	0.035130	3.332141	1.000000	0.000001	0.000039	-0.000070	-0.101163	-10.678848	-178.620022
03515	2.430499	-0.055796	12.871883	-0.004610	0.033013	3.286729	1.000000	-0.000006	0.000038	-0.000078	-0.101906	-10.679102	-178.624962
03516	2.420360	-0.057026	12.920004	0.014443	0.034461	3.332141	1.000000	-0.000007	0.000038	-0.000063	-0.102837	-10.680002	-178.624178
03517	2.474398	-0.041283	12.881444	-0.045299	0.017438	3.304233	1.000000	0.000008	0.000040	-0.000061	-0.101649	-10.680380	-178.635758
03518	2.452782	-0.071888	12.901693	-0.020985	0.048750	3.320178	1.000000	0.000007	0.000048	-0.000061	-0.101015	-10.680154	-178.634818
03519	2.444553	-0.048111	12.901263	-0.012524	0.025230	3.318190	1.000000	-0.000000	0.000047	-0.000070	-0.101038	-10.679771	-178.638116
03520	2.436218	-0.024321	12.900850	-0.003998	0.001726	3.316200	1.000000	0.000006	0.000055	-0.000069	-0.100279	-10.678665	-178.638085
03521	2.464668	-0.040246	12.906402	-0.031607	0.017045	3.326952	1.000000	-0.000002	0.000062	-0.000078	-0.100389	-10.676922	-178.634609
03522	2.414985	-0.029828	12.872829	0.010988	0.007771	3.284739	1.000000	0.000007	0.000048	-0.000061	-0.099754	-10.676696	-178.633669
03523	2.425060	0.000214	12.900966	0.006921	-0.022356	3.314204	1.000000	-0.000002	0.000046	-0.000054	-0.099994	-10.676417	-178.639184
03524	2.419491	-0.052331	12.873971	0.005997	0.030424	3.286734	1.000000	0.000021	0.000057	-0.000060	-0.097795	-10.675066	-178.638088
03525	2.399396	-0.005903	12.896869	0.030781	-0.015389	3.305437	1.000000	-0.000016	0.000052	-0.000079	-0.099293	-10.674153	-178.642687
03526	2.421044	0.001267	12.901720	0.010488	-0.023244	3.314201	1.000000	-0.000001	0.000046	-0.000062	-0.099503	-10.674054	-178.641833
03527	2.403982	-0.028865	12.897994	0.025743	0.007184	3.307431	1.000000	-0.000001	0.000046	-0.000062	-0.099847	-10.673540	-178.645255
03528	2.402788	-0.028561	12.898217	0.026941	0.006889	3.307429	1.000000	-0.000000	0.000047	-0.000070	-0.099807	-10.673430	-178.645296
03529	2.404034	-0.052329	12.923072	0.029756	0.030615	3.332125	1.000000	-0.000001	0.000046	-0.000062	-0.100262	-10.673396	-178.639170
03530	2.405114	-0.027230	12.874682	0.020397	0.005367	3.284729	1.000000	0.000001	0.000039	-0.000070	-0.100097	-10.674155	-178.639197
03531	2.417884	-0.021217	12.927402	0.017981	-0.000733	3.338891	1.000000	0.000002	0.000031	-0.000070	-0.099746	-10.675585	-178.643412
03532	2.405577	-0.050702	12.899686	0.024345	0.028859	3.309425	1.000000	-0.000009	0.000053	-0.000063	-0.100928	-10.674746	-178.642658
03533	2.427306	-0.043429	12.904536	0.004170	0.021042	3.318203	1.000000	0.000001	0.000039	-0.000070	-0.100505	-10.676006	-178.639070
03534	2.430931	-0.042325	12.880764	-0.003597	0.019861	3.295512	1.000000	0.000002	0.000039	-0.000077	-0.100089	-10.676754	-178.639994
03535	2.425305	-0.042617	12.904915	0.006531	0.020517	3.318203	1.000000	0.000002	0.000039	-0.000077	-0.099346	-10.677345	-178.648972
03536	2.451835	-0.034410	12.885778	-0.022717	0.011746	3.304298	1.000000	0.000002	0.000039	-0.000077	-0.098929	-10.678092	-178.649896
03537	2.455467	-0.033329	12.862009	-0.030571	0.010521	3.281611	1.000000	0.000000	0.000039	-0.000062	-0.099189	-10.678504	-178.651780
03538	2.445009	-0.034390	12.910157	-0.011430	0.011987	3.326991	1.000000	0.000000	0.000054	-0.000085	-0.098775	-10.677502	-178.653627
03539	2.448458	-0.033348	12.886423	-0.019207	0.010785	3.304304	1.000000	-0.000006	0.000038	-0.000078	-0.099272	-10.678366	-178.653656
03540	2.442907	-0.033616	12.910557	-0.009033	0.011369	3.326993	1.000000	0.000016	0.000033	-0.000053	-0.097791	-10.679757	-178.651709
03541	2.423553	-0.039667	12.882162	0.004741	0.017890	3.295514	1.000000	-0.000016	0.000052	-0.000079	-0.098863	-10.679405	-178.654230
03542	2.445185	-0.032443	12.887047	-0.015529	0.009985	3.304310	1.000000	-0.000001	0.000046	-0.000062	-0.099072	-10.679305	-178.653378
03543	2.439349	-0.032851	12.911232	-0.005331	0.010546	3.326996	1.000000	-0.000000	0.000047	-0.000070	-0.099145	-10.679271	-178.650429
03544	2.424456	-0.038248	12.858911	-0.000638	0.016083	3.272830	1.000000	-0.000003	0.000054	-0.000055	-0.099732	-10.678314	-178.648696
03545	2.413777	-0.039437	12.907086	0.018557	0.017631	3.318196	1.000000	-0.000001	0.000054	-0.000070	-0.099519	-10.677459	-178.651599
03546	2.423713	-0.009428	12.935244	0.014685	-0.012572	3.347656	1.000000	-0.000000	0.000039	-0.000054	-0.099852	-10.678240	-178.649838
03547	2.374292	0.000632	12.901515	0.057228	-0.021680	3.305339	1.000000	-0.000008	0.000053	-0.000078	-0.100483	-10.677430	-178.650799
03548	2.395921	0.007800	12.906407	0.036975	-0.029597	3.314140	1.000000	-0.000015	0.000044	-0.000071	-0.102131	-10.677578	-178.651015
03549	2.406639	-0.014816	12.883327	0.021653	-0.007600	3.293484	1.000000	-0.000008	0.000038	-0.000055	-0.103241	-10.677961	-178.658612
03550	2.403461	-0.039368	12.932100	0.033437	0.017062	3.340866	1.000000	0.000002	0.000039	-0.000077	-0.102822	-10.678705	-178.659537
03551	2.437137	-0.054514	12.913677	-0.003272	0.031395	3.329027	1.000000	-0.000005	0.000038	-0.000086	-0.103088	-10.679353	-178.663325
03552	2.466271	-0.070425	12.919191	-0.030938	0.046633	3.339872	1.000000	-0.000004	0.000030	-0.000086	-0.103136	-10.681084	-178.665218
03553	2.440034	-0.053087	12.890059	-0.009893	0.029896	3.306353	1.000000	0.000002	0.000039	-0.000085	-0.102493	-10.681761	-178.667429
03554	2.489930	-0.086442	12.948824	-0.048420	0.062442	3.373405	1.000000	0.000005	0.000024	-0.000085	-0.101568	-10.684231	-178.669222
03555	2.502911	-0.083647	12.877164	-0.074389	0.059495	3.305386	1.000000	0.000008	0.000056	-0.000092	-0.099921	-10.682385	-178.684679
03556	2.448715	-0.074026	12.867389	-0.022890	0.051300	3.285718	1.000000	0.000001	0.000047	-0.000085	-0.099379	-10.682248	-178.686515
03557	2.440430	-0.049999	12.866924	-0.014257	0.027832	3.283685	1.000000	0.000024	0.000042	-0.000067	-0.096661	-10.682705	-178.685298
03558	2.427341	-0.026583	12.890433	0.003374	0.005259	3.304321	1.000000	0.000014	0.000056	-0.000068	-0.095059	-10.681462	-178.685185
03559	2.416260	0.021410	12.865381	0.010437	-0.042269	3.277572	1.000000	0.000012	0.000056	-0.000045	-0.094210	-10.680336	-178.681322
03560	2.421893	-0.001571	12.866355	0.004206	-0.019400	3.279610	1.000000	0.000001	0.000062	-0.000031	-0.094835	-10.678414	-178.676831
03561	2.408550	0.021231	12.889899	0.021760	-0.042013	3.300238	1.000000	0.000003	0.000055	-0.000031	-0.095528	-10.676937	-178.675972
03562	2.395314	0.043923	12.913419	0.039421	-0.064576	3.320862	1.000000	-0.000006	0.000053	-0.000024	-0.097120	-10.676025	-178.670659
03563	2.413065	-0.002218	12.891083	0.016639	-0.019485	3.302276	1.000000	-0.000020	0.000044	-0.000025	-0.100451	-10.675852	-178.668957
03564	2.409446	-0.027448	12.939933	0.028445	0.005176	3.349653	1.000000	-0.000028	0.000066	-0.000049	-0.104078	-10.673557	-178.666619
03565	2.429497	-0.097600	12.942271	0.007364	0.074299	3.355789	1.000000	-0.000002	0.000046	-0.000047	-0.105085	-10.673738	-178.656120
03566	2.402873	-0.080437	12.913177	0.028406	0.057615	3.322239	1.000000	-0.000001	0.000054	-0.000078	-0.104919	-10.672743	-178.657076
03567	2.415825	-0.126675	12.914821	0.014753	0.103755	3.326334	1.000000	0.000001	0.000054	-0.000093	-0.103724	-10.671986	-178.663022
03568	2.384587	-0.109839	12.909657	0.044817	0.087980	3.315443	1.000000	0.000013	0.000041	-0.000115	-0.101201	-10.672538	-178.668340
03569	2.387453	-0.055879	12.937100	0.048621	0.034670	3.342846	1.000000	0.000013	0.000033	-0.000107	-0.098482	-10.674359	-178.671208
03570	2.361990	-0.090475	12.856740	0.058086	0.070194	3.259215	1.000000	0.000013	0.000048	-0.000123	-0.095835	-10.674031	-178.677437
03571	2.357718	-0.013088	12.883468	0.069207	-0.006308	3.284562	1.000000	0.000022	0.000019	-0.000099	-0.092380	-10.676734	-178.688732
03572	2.315955	-0.025805	12.850246	0.104196	0.007878	3.244196	1.000000	0.000012	0.000041	-0.000107	-0.090108	-10.677297	-178.693156
03573	2.470420	0.024772	12.907304	-0.035539	-0.045411	3.328802	1.000000	0.000028	0.000020	-0.000075	-0.087038	-10.679924	-178.695093
03574	2.430105	0.088957	12.876655	0.000448	-0.108381	3.291122	1.000000	0.000002	0.000024	-0.000054	-0.087114	-10.682439	-178.693307
03575	2.416463	0.034559	12.897381	0.017184	-0.053754	3.309040	1.000000	-0.000006	0.000015	-0.000039	-0.088321	-10.686049	-178.689816
03576	2.560174	0.054442	12.926466	-0.117533	-0.077111	3.364233	1.000000	-0.000009	0.000030	-0.000032	-0.090125	-10.687863	-178.685444
03577	2.487066	-0.020452	12.885231	-0.054695	-0.001220	3.310274	1.000000	-0.000018	0.000036	-0.000033	-0.092906	-10.688967	-178.680637
03578	2.632801	-0.024796	12.939076	-0.187835	-0.000572	3.390216	1.000000	-0.000011	0.000045	-0.000032	-0.094967	-10.689043	-178.676294
