// Start Time: Unknown
// Update Rate: 100.0Hz
// Filter Profile: human (46.1)
// Firmware Version: 4.4.0
PacketCounter	Acc_X	Acc_Y	Acc_Z	FreeAcc_X	FreeAcc_Y	FreeAcc_Z	OriInc_q0	OriInc_q1	OriInc_q2	OriInc_q3	Roll	Pitch	Yaw
50492	9.832393	-0.649559	0.735591	-0.045738	0.071047	0.068194	1.000000	0.000031	0.000017	0.000049	-46.261731	-84.204426	46.141543
50493	9.893560	-0.677359	0.706147	-0.011696	0.048552	0.129018	1.000000	0.000031	0.000017	0.000049	-46.282264	-84.199074	46.165796
50494	9.840886	-0.663560	0.705316	-0.014078	0.059977	0.075539	1.000000	0.000053	0.000021	0.000038	-46.315048	-84.191116	46.200049
50495	9.865411	-0.655395	0.728278	-0.034806	0.070801	0.100942	1.000000	0.000051	0.000019	0.000049	-46.331890	-84.185592	46.222842
50496	9.851312	-0.624852	0.731537	-0.038601	0.101510	0.084896	1.000000	0.000051	0.000019	0.000049	-46.362599	-84.178423	46.256879
50497	9.903769	-0.600966	0.717765	-0.020653	0.129931	0.134357	1.000000	0.000028	0.000031	0.000040	-46.364445	-84.172657	46.262001
50498	9.931656	-0.625188	0.697188	0.002544	0.108390	0.162430	1.000000	0.000047	0.000029	0.000033	-46.358682	-84.167484	46.260842
50499	9.903617	-0.602104	0.718911	-0.020613	0.129926	0.134357	1.000000	0.000042	0.000015	0.000022	-46.358285	-84.164446	46.265296
50500	9.931544	-0.665470	0.713878	-0.012931	0.068960	0.166447	1.000000	-0.000014	0.000042	0.000030	-46.335298	-84.159676	46.240929
50501	9.906810	-0.635899	0.676491	0.023315	0.097265	0.137031	1.000000	0.000027	0.000029	0.000050	-46.347491	-84.153207	46.256260
50502	9.884078	-0.632164	0.726503	-0.027591	0.100087	0.117653	1.000000	0.000035	0.000021	0.000027	-46.339005	-84.149779	46.250399
50503	9.840108	-0.669814	0.710246	-0.013930	0.059886	0.075540	1.000000	0.000026	0.000025	0.000043	-46.348922	-84.144210	46.263325
50504	9.850638	-0.669494	0.751771	-0.053938	0.060977	0.088920	1.000000	0.000020	0.000034	0.000038	-46.309388	-84.142102	46.228879
50505	9.831258	-0.658879	0.742432	-0.045484	0.070733	0.068198	1.000000	0.000032	0.000015	0.000031	-46.317070	-84.138347	46.240293
50506	9.869772	-0.642643	0.747013	-0.046718	0.089670	0.105639	1.000000	0.000019	0.000030	0.000031	-46.281475	-84.135686	46.207258
50507	9.839766	-0.711735	0.728110	-0.029236	0.019140	0.079557	1.000000	0.000056	0.000031	0.000042	-46.282052	-84.129764	46.214327
50508	9.858959	-0.684388	0.723079	-0.021906	0.048156	0.096274	1.000000	0.000003	0.000038	0.000034	-46.252472	-84.124394	46.182692
50509	9.892155	-0.688389	0.715117	-0.011021	0.047192	0.129025	1.000000	0.000052	0.000017	0.000031	-46.256604	-84.120470	46.192788
50510	9.878104	-0.618286	0.702819	0.000945	0.116006	0.108991	1.000000	0.000028	0.000031	0.000040	-46.222321	-84.116376	46.160694
50511	9.919958	-0.674165	0.679362	0.027922	0.064122	0.153090	1.000000	0.000031	0.000017	0.000049	-46.242535	-84.111023	46.184633
50512	9.905890	-0.682740	0.698144	0.008862	0.054182	0.141065	1.000000	0.000024	0.000017	0.000029	-46.192088	-84.110908	46.137722
50513	9.863881	-0.628277	0.722554	-0.018117	0.106071	0.096973	1.000000	0.000044	0.000023	0.000036	-46.196246	-84.106071	46.146996
50514	9.869086	-0.648118	0.751335	-0.045859	0.086395	0.105672	1.000000	0.000034	0.000023	0.000045	-46.162753	-84.105003	46.116863
50515	9.900322	-0.705175	0.686869	0.021182	0.032476	0.136379	1.000000	0.000012	0.000015	0.000048	-46.186513	-84.099822	46.142117
50516	9.830341	-0.627336	0.732463	-0.028577	0.104397	0.064252	1.000000	0.000037	0.000029	0.000041	-46.115546	-84.098925	46.076880
50517	9.840822	-0.666288	0.789461	-0.084159	0.067284	0.081622	1.000000	0.000002	0.000013	0.000039	-46.134804	-84.094631	46.096523
50518	9.872064	-0.723193	0.724959	-0.017086	0.012456	0.112320	1.000000	0.000025	0.000021	0.000036	-46.106186	-84.093626	46.066336
50519	9.844057	-0.660983	0.731049	-0.024723	0.073149	0.080281	1.000000	0.000028	0.000031	0.000040	-46.108263	-84.087859	46.071690
50520	9.835274	-0.649470	0.762695	-0.055730	0.083690	0.072959	1.000000	0.000007	0.000027	0.000050	-46.050824	-84.084380	46.012951
50521	9.899771	-0.710052	0.689782	0.022200	0.028766	0.136389	1.000000	0.000031	0.000017	0.000049	-46.071093	-84.079026	46.036942
50522	9.880407	-0.699524	0.680430	0.031330	0.036930	0.115677	1.000000	0.000039	0.000032	0.000031	-45.975493	-84.077926	45.945088
50523	9.901606	-0.619573	0.731655	-0.017742	0.119238	0.134496	1.000000	0.000036	0.000031	0.000059	-45.992404	-84.070581	45.966253
50524	9.899532	-0.673367	0.675854	0.038634	0.064844	0.132424	1.000000	0.000031	0.000017	0.000049	-45.947901	-84.070308	45.922266
50525	9.937993	-0.696584	0.696082	0.021731	0.045292	0.173851	1.000000	0.000018	0.000026	0.000023	-45.943487	-84.066330	45.919882
50526	9.882011	-0.649789	0.738975	-0.024208	0.086948	0.117786	1.000000	0.000047	0.000029	0.000033	-45.866557	-84.065977	45.845426
50527	9.885359	-0.643696	0.680244	0.035195	0.093702	0.116431	1.000000	0.000036	0.000025	0.000034	-45.868858	-84.061125	45.851851
50528	9.890525	-0.663513	0.709060	0.007922	0.073172	0.125123	1.000000	0.000034	0.000023	0.000045	-45.783659	-84.061659	45.769844
50529	9.862494	-0.640501	0.730702	-0.015239	0.094760	0.097093	1.000000	0.000026	0.000024	0.000025	-45.781394	-84.057689	45.770601
50530	9.890374	-0.664773	0.709978	0.007844	0.071420	0.125136	1.000000	0.000022	0.000015	0.000040	-45.732630	-84.060801	45.720629
50531	9.857008	-0.662074	0.718930	-0.003053	0.072439	0.092389	1.000000	0.000017	0.000027	0.000041	-45.740761	-84.055224	45.730789
50532	9.870934	-0.655023	0.701156	0.016927	0.079602	0.104439	1.000000	0.000020	0.000034	0.000038	-45.653351	-84.053520	45.640784
50533	9.870826	-0.655952	0.701798	0.016931	0.079605	0.104438	1.000000	0.000017	0.000029	0.000059	-45.673950	-84.046329	45.663395
50534	9.898660	-0.680655	0.681304	0.040503	0.055995	0.132470	1.000000	0.000010	0.000033	0.000046	-45.587810	-84.046441	45.575456
50535	9.879303	-0.670225	0.672024	0.048961	0.065789	0.111763	1.000000	0.000017	0.000027	0.000041	-45.595750	-84.040828	45.585421
50536	9.903697	-0.701315	0.710738	0.012380	0.035318	0.141146	1.000000	0.000025	0.000021	0.000036	-45.534899	-84.046277	45.524101
50537	9.903726	-0.662789	0.695561	0.027923	0.074450	0.137216	1.000000	0.000026	0.000025	0.000043	-45.545323	-84.040705	45.537531
50538	9.879057	-0.672386	0.673482	0.048355	0.061679	0.111793	1.000000	0.000024	0.000017	0.000029	-45.484964	-84.046277	45.475871
50539	9.889535	-0.671899	0.714948	0.008298	0.063704	0.125188	1.000000	0.000056	0.000031	0.000042	-45.486361	-84.040353	45.483758
50540	9.859496	-0.701896	0.680408	0.040939	0.030595	0.095020	1.000000	0.000044	0.000025	0.000054	-45.448425	-84.042486	45.444708
50541	9.870095	-0.662239	0.706166	0.016428	0.071754	0.104499	1.000000	0.000035	0.000021	0.000027	-45.448918	-84.038527	45.449172
50542	9.870021	-0.662810	0.706659	0.015967	0.069930	0.104513	1.000000	0.000044	0.000023	0.000036	-45.401221	-84.043103	45.401030
50543	9.883980	-0.655687	0.688779	0.035311	0.078682	0.116561	1.000000	0.000044	0.000023	0.000036	-45.406480	-84.038271	45.411365
50544	9.875189	-0.644002	0.720469	0.003589	0.088654	0.109273	1.000000	0.000041	0.000039	0.000045	-45.338123	-84.039574	45.342623
50545	9.861042	-0.652598	0.739547	-0.015765	0.079920	0.097223	1.000000	0.000026	0.000025	0.000043	-45.349145	-84.034007	45.356617
50546	9.855746	-0.634422	0.711800	0.012624	0.096074	0.088600	1.000000	0.000027	0.000029	0.000050	-45.244961	-84.035055	45.255633
50547	9.908171	-0.650105	0.713836	0.015066	0.085186	0.142038	1.000000	0.000017	0.000027	0.000041	-45.253398	-84.029470	45.266098
50548	9.913417	-0.630701	0.727168	0.002994	0.103377	0.146816	1.000000	0.000032	0.000042	0.000043	-45.150726	-84.031648	45.165963
50549	9.874673	-0.648310	0.723664	0.004351	0.083882	0.109314	1.000000	0.000005	0.000021	0.000054	-45.174959	-84.025587	45.190860
50550	9.902516	-0.672900	0.703052	0.027280	0.059773	0.137316	1.000000	0.000044	0.000023	0.000036	-45.092891	-84.031679	45.112322
50551	9.883201	-0.662223	0.693689	0.035737	0.069589	0.116627	1.000000	0.000019	0.000030	0.000031	-45.090985	-84.026819	45.112632
50552	9.874419	-0.650365	0.725293	0.002869	0.078996	0.109355	1.000000	0.000027	0.000028	0.000032	-45.046615	-84.037189	45.068338
50553	9.912788	-0.673628	0.745778	-0.014067	0.059332	0.150726	1.000000	0.000028	0.000031	0.000040	-45.049935	-84.031532	45.074998
50554	9.868882	-0.671902	0.713950	0.014329	0.056395	0.104602	1.000000	0.000047	0.000029	0.000033	-44.998866	-84.037943	45.023510
50555	9.860097	-0.660085	0.745471	-0.017292	0.068240	0.097308	1.000000	0.000005	0.000020	0.000036	-45.011471	-84.033596	45.036815
50556	9.854652	-0.680997	0.733401	-0.005219	0.045580	0.092548	1.000000	0.000020	0.000034	0.000038	-44.937189	-84.037078	44.961384
50557	9.849210	-0.701830	0.721341	0.007001	0.024996	0.087775	1.000000	0.000052	0.000017	0.000031	-44.942717	-84.033313	44.972941
50558	9.854481	-0.682404	0.734397	-0.005353	0.043178	0.092559	1.000000	0.000024	0.000023	0.000054	-44.873910	-84.037359	44.908062
50559	9.893025	-0.666649	0.739111	-0.006739	0.062610	0.130083	1.000000	0.000037	0.000029	0.000042	-44.879751	-84.031805	44.918276
50560	9.873505	-0.695296	0.745486	-0.014026	0.031421	0.113243	1.000000	0.000036	0.000025	0.000034	-44.815125	-84.035470	44.854245
50561	9.887703	-0.648958	0.711866	0.020868	0.079243	0.121488	1.000000	0.000025	0.000021	0.000036	-44.824235	-84.031018	44.866352
50562	9.887609	-0.649751	0.712445	0.020815	0.077500	0.121502	1.000000	0.000038	0.000033	0.000049	-44.765994	-84.031711	44.808289
50563	9.906719	-0.661857	0.723125	0.012320	0.067637	0.142177	1.000000	0.000040	0.000035	0.000038	-44.764094	-84.025945	44.811034
50564	9.882279	-0.632276	0.685310	0.048400	0.094519	0.112915	1.000000	0.000019	0.000009	0.000043	-44.737598	-84.028753	44.779986
50565	9.906534	-0.663531	0.724131	0.012083	0.066106	0.142187	1.000000	0.000022	0.000041	0.000052	-44.744173	-84.021356	44.789209
50566	9.873147	-0.660680	0.733242	0.001275	0.065368	0.109454	1.000000	0.000026	0.000024	0.000025	-44.665455	-84.024734	44.711229
50567	9.882012	-0.634523	0.687088	0.048423	0.092607	0.112933	1.000000	0.000029	0.000031	0.000040	-44.669281	-84.019147	44.718434
50568	9.872974	-0.661989	0.734379	0.000532	0.063378	0.109467	1.000000	0.000025	0.000021	0.000036	-44.628573	-84.025534	44.678019
50569	9.859051	-0.631224	0.737495	-0.003273	0.093790	0.093594	1.000000	0.000034	0.000023	0.000045	-44.642784	-84.020239	44.696333
50570	9.881495	-0.676064	0.704554	0.031362	0.050033	0.116760	1.000000	0.000032	0.000042	0.000043	-44.612875	-84.022245	44.662200
50571	9.853244	-0.692136	0.741849	-0.007388	0.032638	0.092598	1.000000	0.000020	0.000007	0.000025	-44.625963	-84.019833	44.677694
50572	9.867512	-0.645772	0.708135	0.027760	0.079173	0.100901	1.000000	0.000020	0.000034	0.000038	-44.569047	-84.018396	44.615070
50573	9.900440	-0.689450	0.716124	0.023010	0.038874	0.137431	1.000000	0.000027	0.000029	0.000050	-44.583947	-84.012137	44.633152
50574	9.895225	-0.671275	0.688407	0.050630	0.055987	0.128857	1.000000	0.000029	0.000031	0.000040	-44.539665	-84.013030	44.586219
50575	9.895140	-0.672024	0.688902	0.050594	0.055985	0.128857	1.000000	0.000022	0.000015	0.000040	-44.557643	-84.008766	44.606818
50576	9.880964	-0.680529	0.707705	0.029856	0.045633	0.116786	1.000000	0.000034	0.000023	0.000045	-44.560149	-84.015772	44.608931
50577	9.886252	-0.661038	0.720838	0.017572	0.066207	0.121590	1.000000	0.000027	0.000028	0.000032	-44.563154	-84.011138	44.615095
50578	9.894880	-0.674224	0.690483	0.048483	0.052457	0.128887	1.000000	0.000029	0.000031	0.000040	-44.519947	-84.015706	44.573966
50579	9.889691	-0.655999	0.662703	0.076256	0.070994	0.120320	1.000000	0.000034	0.000023	0.000045	-44.535508	-84.010477	44.593570
50580	9.856044	-0.692232	0.687284	0.049486	0.031134	0.091339	1.000000	0.000023	0.000014	0.000022	-44.474371	-84.016697	44.535586
50581	9.866727	-0.652478	0.712915	0.024966	0.072267	0.100961	1.000000	0.000027	0.000029	0.000050	-44.489879	-84.010589	44.554344
50582	9.847150	-0.681202	0.719245	0.018354	0.041917	0.084061	1.000000	0.000025	0.000021	0.000036	-44.435217	-84.008242	44.494447
50583	9.886036	-0.626133	0.708142	0.032566	0.100397	0.117875	1.000000	0.000026	0.000025	0.000043	-44.447719	-84.002954	44.510054
50584	9.861071	-0.675034	0.701950	0.036962	0.049350	0.096163	1.000000	0.000029	0.000031	0.000040	-44.430988	-84.005065	44.490337
50585	9.860981	-0.675719	0.702554	0.036913	0.049339	0.096163	1.000000	0.000036	0.000025	0.000034	-44.435756	-84.000474	44.499304
50586	9.899566	-0.659819	0.707376	0.034824	0.067289	0.133740	1.000000	0.000048	0.000033	0.000040	-44.408871	-84.003331	44.472712
50587	9.899494	-0.660417	0.707824	0.034771	0.067275	0.133740	1.000000	0.000020	0.000007	0.000025	-44.422196	-84.000972	44.488456
50588	9.894037	-0.681257	0.695643	0.046461	0.045633	0.128930	1.000000	0.000037	0.000029	0.000042	-44.407431	-84.001726	44.470185
50589	9.899322	-0.661904	0.708845	0.034186	0.066202	0.133749	1.000000	0.000027	0.000029	0.000050	-44.423004	-83.995557	44.488955
50590	9.899220	-0.662769	0.709465	0.033148	0.065355	0.133758	1.000000	0.000037	0.000029	0.000042	-44.436880	-83.997535	44.496751
50591	9.871221	-0.639649	0.731074	0.010008	0.087156	0.105827	1.000000	0.000029	0.000031	0.000040	-44.442736	-83.992036	44.505891
50592	9.884910	-0.671978	0.729090	0.012050	0.054753	0.121668	1.000000	0.000026	0.000025	0.000043	-44.442893	-84.001395	44.511212
50593	9.865642	-0.661474	0.719608	0.020468	0.064623	0.101024	1.000000	0.000034	0.000023	0.000045	-44.459124	-83.996262	44.531499
50594	9.860151	-0.682435	0.707692	0.031974	0.042812	0.096211	1.000000	0.000023	0.000040	0.000034	-44.432169	-83.998215	44.502425
50595	9.879575	-0.655199	0.702552	0.039024	0.072032	0.113145	1.000000	0.000044	0.000023	0.000036	-44.440533	-83.993792	44.515961
50596	9.865372	-0.663528	0.721419	0.018259	0.061915	0.101046	1.000000	0.000025	0.000021	0.000036	-44.446983	-84.000986	44.523494
50597	9.889852	-0.655245	0.744578	-0.002561	0.072593	0.126509	1.000000	0.000030	0.000034	0.000029	-44.443558	-83.996365	44.523565
50598	9.854750	-0.666204	0.681674	0.058193	0.058460	0.087707	1.000000	0.000025	0.000027	0.000061	-44.413854	-83.995096	44.495986
50599	9.892987	-0.689697	0.702227	0.041091	0.038664	0.128983	1.000000	0.000026	0.000024	0.000025	-44.415493	-83.991583	44.500733
50600	9.874117	-0.639753	0.676812	0.063934	0.086491	0.104670	1.000000	0.000022	0.000015	0.000040	-44.437067	-83.997334	44.520619
50601	9.892827	-0.691055	0.703140	0.039680	0.037469	0.128994	1.000000	0.000029	0.000031	0.000040	-44.444106	-83.992082	44.531029
50602	9.884378	-0.639995	0.718806	0.022487	0.087427	0.118026	1.000000	0.000033	0.000019	0.000038	-44.462231	-83.997159	44.547199
50603	9.883913	-0.679905	0.735221	0.006724	0.048298	0.121707	1.000000	0.000040	0.000035	0.000038	-44.464115	-83.991750	44.553700
50604	9.870060	-0.649118	0.738367	0.001671	0.077637	0.105911	1.000000	0.000015	0.000021	0.000045	-44.489473	-83.996632	44.576666
50605	9.884120	-0.642178	0.720410	0.020888	0.086260	0.118039	1.000000	0.000052	0.000017	0.000031	-44.499163	-83.993328	44.592393
50606	9.850351	-0.678416	0.745127	-0.007083	0.047054	0.088959	1.000000	0.000018	0.000031	0.000048	-44.515906	-83.998582	44.609576
50607	9.878534	-0.663918	0.708967	0.031465	0.064307	0.113225	1.000000	0.000036	0.000025	0.000034	-44.524054	-83.994409	44.621946
50608	9.869715	-0.651932	0.740488	-0.001967	0.075580	0.105927	1.000000	0.000019	0.000030	0.000031	-44.570612	-84.000028	44.661371
50609	9.873357	-0.646237	0.681718	0.057297	0.082149	0.104747	1.000000	0.000026	0.000025	0.000043	-44.587777	-83.995205	44.681587
50610	9.897422	-0.677434	0.720604	0.019730	0.052425	0.133871	1.000000	0.000032	0.000017	0.000049	-44.604055	-84.000024	44.699492
50611	9.878187	-0.666846	0.711054	0.028084	0.062311	0.113248	1.000000	0.000028	0.000028	0.000033	-44.611216	-83.995927	44.709860
50612	9.878107	-0.667487	0.711572	0.027549	0.060876	0.113258	1.000000	0.000025	0.000021	0.000036	-44.584379	-83.999338	44.685413
50613	9.902575	-0.659336	0.734705	0.006631	0.071533	0.138712	1.000000	0.000037	0.000029	0.000042	-44.596030	-83.994402	44.701425
50614	9.858785	-0.657544	0.702684	0.034558	0.069696	0.092650	1.000000	0.000028	0.000028	0.000033	-44.608328	-83.999447	44.713407
50615	9.877840	-0.669607	0.713276	0.025838	0.059772	0.113270	1.000000	0.000026	0.000025	0.000043	-44.626021	-83.994753	44.734203
50616	9.877752	-0.670317	0.713834	0.024108	0.059163	0.113278	1.000000	0.000028	0.000028	0.000033	-44.671704	-83.999512	44.774527
50617	9.877671	-0.670957	0.714352	0.023905	0.059149	0.113278	1.000000	0.000025	0.000021	0.000036	-44.687826	-83.995749	44.793569
50618	9.868845	-0.658961	0.745846	-0.008936	0.069947	0.105964	1.000000	0.000039	0.000032	0.000031	-44.688237	-84.000787	44.794774
50619	9.891660	-0.664709	0.697038	0.041738	0.066586	0.125445	1.000000	0.000012	0.000015	0.000048	-44.720498	-83.996598	44.828575
50620	9.852856	-0.682045	0.693288	0.042712	0.046356	0.087850	1.000000	0.000037	0.000029	0.000042	-44.706752	-83.996476	44.814076
50621	9.872348	-0.654905	0.688039	0.049630	0.075539	0.104841	1.000000	0.000008	0.000026	0.000032	-44.718732	-83.992720	44.827020
50622	9.858092	-0.663316	0.706961	0.029905	0.066021	0.092690	1.000000	0.000035	0.000027	0.000052	-44.714553	-83.991570	44.821358
50623	9.891296	-0.667902	0.699153	0.040484	0.064711	0.125462	1.000000	0.000025	0.000021	0.000036	-44.730941	-83.987851	44.840671
50624	9.877044	-0.676253	0.718021	0.019235	0.055362	0.113310	1.000000	0.000026	0.000025	0.000043	-44.788708	-83.993194	44.894531
50625	9.896540	-0.649256	0.712715	0.026137	0.084545	0.130308	1.000000	0.000034	0.000023	0.000045	-44.810485	-83.988656	44.920325
50626	9.871446	-0.697989	0.706448	0.030627	0.034317	0.108481	1.000000	0.000015	0.000020	0.000027	-44.820415	-83.989072	44.921608
50627	9.882204	-0.658255	0.732084	0.005993	0.075485	0.118147	1.000000	0.000047	0.000031	0.000051	-44.839255	-83.983419	44.945810
50628	9.882099	-0.659107	0.732735	0.005344	0.073578	0.118162	1.000000	0.000037	0.000029	0.000042	-44.794756	-83.988124	44.913809
50629	9.890755	-0.672395	0.702486	0.036650	0.061582	0.125497	1.000000	0.000030	0.000034	0.000029	-44.796165	-83.984068	44.918703
50630	9.848622	-0.656723	0.742208	-0.006906	0.073470	0.085397	1.000000	0.000020	0.000013	0.000050	-44.816383	-83.989788	44.943352
50631	9.896006	-0.653783	0.715980	0.022960	0.080738	0.130348	1.000000	0.000037	0.000029	0.000042	-44.830314	-83.985138	44.961652
50632	9.881740	-0.662092	0.734893	0.003280	0.071061	0.118181	1.000000	0.000025	0.000021	0.000036	-44.810638	-83.986287	44.942136
50633	9.876228	-0.682962	0.722870	0.015244	0.050451	0.113343	1.000000	0.000028	0.000028	0.000033	-44.819804	-83.982517	44.954568
50634	9.895738	-0.655833	0.717811	0.021855	0.078358	0.130369	1.000000	0.000044	0.000046	0.000042	-44.782248	-83.982783	44.921304
50635	9.851976	-0.654200	0.685739	0.050943	0.077586	0.084334	1.000000	0.000029	0.000011	0.000052	-44.819258	-83.978813	44.961912
50636	9.871020	-0.666193	0.696207	0.040737	0.067314	0.104941	1.000000	0.000028	0.000026	0.000015	-44.859386	-83.983717	44.994165
50637	9.870942	-0.666872	0.696662	0.040481	0.067288	0.104942	1.000000	0.000021	0.000017	0.000058	-44.897295	-83.978849	45.034773
50638	9.914514	-0.670173	0.729775	0.009554	0.067433	0.150979	1.000000	0.000027	0.000024	0.000025	-44.935073	-83.983824	45.067759
50639	9.870776	-0.668261	0.697675	0.038633	0.066667	0.104954	1.000000	0.000029	0.000031	0.000040	-44.947762	-83.979241	45.083807
50640	9.856497	-0.676538	0.716601	0.018514	0.056535	0.092777	1.000000	0.000025	0.000021	0.000036	-44.926792	-83.984149	45.069145
50641	9.909347	-0.653242	0.702914	0.036122	0.084349	0.142590	1.000000	0.000033	0.000019	0.000038	-44.946954	-83.980749	45.093295
50642	9.861779	-0.657707	0.729964	0.006215	0.075827	0.097627	1.000000	0.000014	0.000017	0.000038	-44.904625	-83.980722	45.053361
50643	9.870456	-0.671070	0.699503	0.037482	0.063799	0.104977	1.000000	0.000044	0.000023	0.000036	-44.918737	-83.977121	45.072750
50644	9.856176	-0.679248	0.718450	0.016456	0.054643	0.092791	1.000000	0.000047	0.000029	0.000033	-44.961410	-83.981385	45.113444
50645	9.861540	-0.659547	0.731536	0.003976	0.075195	0.097633	1.000000	0.000035	0.000021	0.000027	-44.971542	-83.978697	45.127710
50646	9.875120	-0.691852	0.729532	0.006752	0.044153	0.113383	1.000000	0.000023	0.000019	0.000047	-45.003187	-83.978986	45.154601
50647	9.861377	-0.661019	0.732405	0.002854	0.074638	0.097637	1.000000	0.000025	0.000021	0.000036	-45.021517	-83.975594	45.175917
50648	9.875492	-0.654215	0.714531	0.021263	0.082220	0.109847	1.000000	0.000026	0.000025	0.000043	-45.029550	-83.977920	45.184771
50649	9.889603	-0.647486	0.696698	0.040302	0.090772	0.122050	1.000000	0.000026	0.000025	0.000043	-45.050318	-83.973658	45.208672
50650	9.894410	-0.667189	0.725603	0.011376	0.072265	0.130433	1.000000	0.000014	0.000017	0.000038	-45.105377	-83.973321	45.250629
50651	9.869791	-0.676732	0.703427	0.031871	0.061582	0.105011	1.000000	0.000044	0.000023	0.000036	-45.120970	-83.969766	45.271396
50652	9.875143	-0.657302	0.716515	0.019176	0.081635	0.109856	1.000000	0.000027	0.000029	0.000050	-45.133481	-83.967560	45.279674
50653	9.894125	-0.669647	0.727223	0.010288	0.071689	0.130438	1.000000	0.000027	0.000029	0.000050	-45.157174	-83.962369	45.306549
50654	9.874940	-0.659040	0.717724	0.016184	0.080252	0.109872	1.000000	0.000028	0.000028	0.000033	-45.210859	-83.974153	45.367123
50655	9.879734	-0.678617	0.746690	-0.012054	0.061721	0.118237	1.000000	0.000033	0.000019	0.000038	-45.232737	-83.970891	45.392933
50656	9.888986	-0.652873	0.700418	0.034005	0.088282	0.122096	1.000000	0.000020	0.000034	0.000038	-45.260676	-83.972080	45.415354
50657	9.869805	-0.642213	0.690991	0.042288	0.098191	0.101521	1.000000	0.000029	0.000031	0.000040	-45.275211	-83.967707	45.433225
50658	9.874585	-0.661845	0.720016	0.013444	0.078648	0.109889	1.000000	0.000025	0.000021	0.000036	-45.279385	-83.971076	45.439284
50659	9.869049	-0.682697	0.708049	0.025310	0.058032	0.105051	1.000000	0.000011	0.000032	0.000029	-45.287196	-83.967594	45.448345
50660	9.868963	-0.683237	0.708726	0.024533	0.056726	0.105061	1.000000	0.000030	0.000034	0.000029	-45.259643	-83.971066	45.427357
50661	9.855245	-0.652421	0.711668	0.020617	0.087220	0.089330	1.000000	0.000021	0.000017	0.000058	-45.299834	-83.966486	45.470247
50662	9.902083	-0.688692	0.701488	0.033198	0.053803	0.137872	1.000000	0.000038	0.000028	0.000024	-45.300545	-83.975573	45.480438
50663	9.854478	-0.692844	0.728691	0.002839	0.046566	0.092846	1.000000	0.000028	0.000028	0.000033	-45.312864	-83.972244	45.496058
50664	9.893757	-0.638041	0.717553	0.016368	0.104158	0.126995	1.000000	0.000026	0.000025	0.000043	-45.323765	-83.972510	45.505657
50665	9.893059	-0.677955	0.733995	0.000290	0.065024	0.130489	1.000000	0.000033	0.000019	0.000038	-45.346197	-83.969413	45.532094
50666	9.868446	-0.687489	0.711807	0.018645	0.053145	0.105093	1.000000	0.000025	0.000021	0.000036	-45.403972	-83.979876	45.594115
50667	9.854749	-0.656609	0.714679	0.014704	0.083631	0.089372	1.000000	0.000034	0.000023	0.000045	-45.429248	-83.975973	45.623558
50668	9.882494	-0.681550	0.694492	0.036571	0.060989	0.117341	1.000000	0.000037	0.000029	0.000042	-45.448778	-83.977157	45.641835
50669	9.898162	-0.660819	0.748495	-0.016129	0.083611	0.135342	1.000000	0.000032	0.000017	0.000049	-45.482054	-83.973476	45.678996
50670	9.882316	-0.683183	0.695428	0.037309	0.060573	0.117341	1.000000	0.000016	0.000024	0.000034	-45.430387	-83.965802	45.620139
50671	9.874100	-0.631924	0.710853	0.021191	0.111655	0.106465	1.000000	0.000028	0.000028	0.000033	-45.443059	-83.962516	45.636101
50672	9.867913	-0.691916	0.714906	0.017236	0.051094	0.105107	1.000000	0.000028	0.000028	0.000033	-45.425661	-83.962934	45.618308
50673	9.854228	-0.660992	0.717826	0.013317	0.081587	0.089391	1.000000	0.000034	0.000023	0.000045	-45.450557	-83.958978	45.647347
50674	9.887435	-0.665697	0.710176	0.022199	0.079284	0.122205	1.000000	0.000029	0.000031	0.000040	-45.489333	-83.964300	45.686688
50675	9.897645	-0.664887	0.751713	-0.018302	0.081328	0.135357	1.000000	0.000026	0.000020	0.000018	-45.497732	-83.962874	45.698124
50676	9.868221	-0.655466	0.701105	0.028568	0.088745	0.101659	1.000000	0.000027	0.000029	0.000050	-45.569238	-83.965966	45.764706
50677	9.882365	-0.648816	0.683398	0.047498	0.097256	0.113914	1.000000	0.000020	0.000034	0.000038	-45.582803	-83.961861	45.780708
50678	9.867358	-0.696174	0.718425	0.011132	0.048682	0.105127	1.000000	0.000029	0.000031	0.000040	-45.601184	-83.965246	45.800698
50679	9.853685	-0.665229	0.721346	0.007196	0.079178	0.089417	1.000000	0.000025	0.000021	0.000036	-45.622707	-83.962299	45.825241
50680	9.886901	-0.669882	0.713670	0.016690	0.077076	0.122233	1.000000	0.000037	0.000029	0.000042	-45.646998	-83.964182	45.849867
50681	9.867756	-0.659302	0.704047	0.024945	0.086984	0.101685	1.000000	0.000023	0.000019	0.000047	-45.678787	-83.960559	45.884531
50682	9.877921	-0.658761	0.745744	-0.016455	0.088410	0.114817	1.000000	0.000035	0.000048	0.000040	-45.692443	-83.961349	45.897051
50683	9.906334	-0.644554	0.709692	0.021751	0.105459	0.139347	1.000000	0.000022	0.000015	0.000040	-45.722225	-83.958650	45.929567
50684	9.867469	-0.661594	0.705916	0.021399	0.086020	0.101701	1.000000	0.000020	0.000034	0.000038	-45.788673	-83.961576	45.988688
50685	9.886417	-0.673782	0.716692	0.012332	0.076032	0.122248	1.000000	0.000054	0.000025	0.000046	-45.812401	-83.957643	46.018751
50686	9.848229	-0.651862	0.696933	0.028725	0.094059	0.081178	1.000000	0.000016	0.000025	0.000052	-45.793966	-83.962864	46.012997
50687	9.886218	-0.675466	0.717849	0.010997	0.074099	0.122264	1.000000	0.000030	0.000034	0.000029	-45.800662	-83.959646	46.023289
50688	9.886127	-0.676141	0.718471	0.009801	0.073444	0.122270	1.000000	0.000026	0.000025	0.000043	-45.833537	-83.961616	46.053860
50689	9.872483	-0.645236	0.721287	0.005850	0.103942	0.106570	1.000000	0.000033	0.000019	0.000038	-45.858312	-83.958835	46.082656
50690	9.881179	-0.658739	0.691013	0.036493	0.090547	0.114024	1.000000	0.000048	0.000033	0.000040	-45.839043	-83.961886	46.072499
50691	9.885850	-0.678377	0.720170	0.008112	0.071992	0.122282	1.000000	0.000018	0.000028	0.000041	-45.861446	-83.958210	46.097128
50692	9.886478	-0.640108	0.704617	0.022981	0.109521	0.118886	1.000000	0.000032	0.000017	0.000049	-45.856813	-83.962915	46.102805
50693	9.871393	-0.687578	0.739405	-0.012498	0.061826	0.110010	1.000000	0.000015	0.000021	0.000045	-45.886840	-83.959484	46.134831
50694	9.891075	-0.660608	0.733917	-0.007633	0.089828	0.127146	1.000000	0.000041	0.000013	0.000033	-45.942611	-83.969381	46.196255
50695	9.866477	-0.670136	0.711689	0.012796	0.079141	0.101773	1.000000	0.000026	0.000025	0.000043	-45.967469	-83.965831	46.224391
50696	9.890900	-0.662095	0.734938	-0.009706	0.089367	0.127148	1.000000	0.000029	0.000031	0.000040	-46.020232	-83.968276	46.272011
50697	9.866283	-0.671660	0.712947	0.010717	0.078681	0.101780	1.000000	0.000029	0.000031	0.000040	-46.037695	-83.964550	46.293004
50698	9.866186	-0.672428	0.713560	0.010657	0.077172	0.101792	1.000000	0.000018	0.000028	0.000041	-45.989608	-83.965481	46.253720
50699	9.904895	-0.656867	0.718438	0.008620	0.096252	0.139460	1.000000	0.000028	0.000028	0.000033	-46.004459	-83.962674	46.272010
50700	9.885029	-0.685217	0.724944	0.000984	0.066509	0.122324	1.000000	0.000020	0.000034	0.000038	-46.002800	-83.961676	46.268721
50701	9.899211	-0.678694	0.707123	0.019822	0.074973	0.134625	1.000000	0.000022	0.000017	0.000058	-46.045488	-83.957655	46.314284
50702	9.871309	-0.655315	0.728235	-0.003170	0.096864	0.106643	1.000000	0.000036	0.000025	0.000035	-46.050800	-83.954131	46.313147
50703	9.880019	-0.668789	0.697907	0.027867	0.084741	0.114103	1.000000	0.000025	0.000021	0.000036	-46.073515	-83.951488	46.338984
50704	9.860916	-0.658104	0.688223	0.035353	0.093627	0.093593	1.000000	0.000026	0.000025	0.000043	-46.089773	-83.955245	46.359342
50705	9.879845	-0.670252	0.698961	0.026219	0.083585	0.114117	1.000000	0.000028	0.000028	0.000033	-46.104757	-83.952439	46.377742
50706	9.889972	-0.669645	0.740567	-0.015876	0.085478	0.127174	1.000000	0.000027	0.000029	0.000050	-46.187036	-83.954508	46.452696
50707	9.885170	-0.651453	0.712522	0.011637	0.103911	0.118966	1.000000	0.000042	0.000015	0.000022	-46.202730	-83.953559	46.473470
50708	9.870801	-0.659617	0.731230	-0.009592	0.095380	0.106653	1.000000	0.000022	0.000017	0.000058	-46.308871	-83.955317	46.569841
50709	9.865993	-0.641604	0.703195	0.017916	0.113813	0.098452	1.000000	0.000047	0.000029	0.000033	-46.321702	-83.952382	46.588254
50710	9.850821	-0.688722	0.738217	-0.017461	0.065579	0.089503	1.000000	0.000028	0.000028	0.000033	-46.310072	-83.951382	46.574971
50711	9.865037	-0.681961	0.720372	0.001350	0.074040	0.101821	1.000000	0.000033	0.000019	0.000038	-46.336211	-83.948815	46.605150
50712	9.884762	-0.654989	0.714935	0.007753	0.102934	0.118980	1.000000	0.000025	0.000021	0.000036	-46.363672	-83.947811	46.626135
50713	9.870375	-0.663133	0.733794	-0.011999	0.094362	0.106660	1.000000	0.000018	0.000028	0.000041	-46.387616	-83.944303	46.652258
50714	9.912379	-0.680748	0.695502	0.028250	0.080136	0.146990	1.000000	0.000032	0.000038	0.000036	-46.427323	-83.948353	46.691759
50715	9.865484	-0.645845	0.706445	0.013723	0.112103	0.098478	1.000000	0.000029	0.000011	0.000052	-46.471711	-83.945287	46.739736
50716	9.859070	-0.706084	0.710492	0.010052	0.051347	0.096999	1.000000	0.000037	0.000029	0.000042	-46.437000	-83.944291	46.710418
50717	9.870000	-0.666077	0.736167	-0.014802	0.092475	0.106674	1.000000	0.000007	0.000043	0.000012	-46.428855	-83.942031	46.703058
50718	9.864401	-0.686848	0.724423	-0.004589	0.070994	0.101842	1.000000	0.000046	0.000027	0.000044	-46.480888	-83.947879	46.758829
50719	9.884131	-0.659897	0.719133	0.002008	0.100038	0.119012	1.000000	0.000028	0.000028	0.000033	-46.497563	-83.945181	46.778828
50720	9.884043	-0.660623	0.719675	0.001343	0.098778	0.119025	1.000000	0.000034	0.000023	0.000045	-46.488229	-83.947516	46.776477
50721	9.883124	-0.700483	0.736242	-0.014947	0.059630	0.122356	1.000000	0.000025	0.000021	0.000036	-46.512569	-83.945032	46.803893
50722	9.870388	-0.630354	0.723028	-0.003350	0.128246	0.103372	1.000000	0.000032	0.000038	0.000036	-46.496575	-83.946320	46.792063
50723	9.892578	-0.675569	0.690654	0.031091	0.085523	0.126538	1.000000	0.000028	0.000028	0.000033	-46.513051	-83.943664	46.811908
50724	9.883674	-0.663407	0.722183	-0.002187	0.096993	0.119042	1.000000	0.000033	0.000042	0.000043	-46.559229	-83.946589	46.856251
50725	9.863739	-0.691792	0.728726	-0.009765	0.067824	0.101861	1.000000	0.000025	0.000021	0.000036	-46.583877	-83.944157	46.883983
50726	9.878831	-0.645973	0.694787	0.024117	0.114583	0.110901	1.000000	0.000036	0.000025	0.000035	-46.602371	-83.947514	46.904628
50727	9.888939	-0.645148	0.736251	-0.016577	0.116615	0.123888	1.000000	0.000032	0.000015	0.000031	-46.627301	-83.946020	46.933494
50728	9.878682	-0.647231	0.695734	0.022959	0.113917	0.110911	1.000000	0.000029	0.000032	0.000040	-46.633164	-83.945346	46.937558
50729	9.877725	-0.687104	0.712438	0.006642	0.074767	0.114220	1.000000	0.000026	0.000025	0.000043	-46.660073	-83.942031	46.967681
50730	9.864176	-0.656124	0.715183	0.001554	0.104912	0.098566	1.000000	0.000017	0.000024	0.000034	-46.715144	-83.945652	47.017671
50731	9.877545	-0.688515	0.713573	0.004489	0.074266	0.114225	1.000000	0.000040	0.000035	0.000038	-46.729027	-83.941991	47.036288
50732	9.845023	-0.646101	0.706055	0.010577	0.113858	0.078084	1.000000	0.000019	0.000009	0.000043	-46.683044	-83.938602	46.992441
50733	9.897232	-0.662332	0.708623	0.011859	0.102314	0.131427	1.000000	0.000031	0.000034	0.000029	-46.692132	-83.935813	47.005157
50734	9.882798	-0.670406	0.727688	-0.008308	0.093000	0.119077	1.000000	0.000030	0.000035	0.000047	-46.701533	-83.936135	47.015644
50735	9.863725	-0.659689	0.718118	-0.000074	0.102915	0.098587	1.000000	0.000028	0.000028	0.000033	-46.718465	-83.933549	47.035931
50736	9.877974	-0.653041	0.700336	0.019094	0.111013	0.110952	1.000000	0.000026	0.000025	0.000043	-46.717155	-83.930031	47.030735
50737	9.896851	-0.665288	0.711168	0.009844	0.100955	0.131443	1.000000	0.000029	0.000032	0.000040	-46.736093	-83.926519	47.053146
50738	9.896757	-0.666123	0.711688	0.008621	0.100106	0.131453	1.000000	0.000032	0.000017	0.000049	-46.772820	-83.929515	47.091856
50739	9.877708	-0.655497	0.701804	0.016859	0.110024	0.110967	1.000000	0.000022	0.000015	0.000040	-46.805373	-83.927305	47.127197
50740	9.868810	-0.643154	0.733233	-0.014746	0.121341	0.103448	1.000000	0.000036	0.000046	0.000022	-46.758496	-83.925816	47.081356
50741	9.863183	-0.664187	0.721413	-0.003067	0.100674	0.098610	1.000000	0.000038	0.000012	0.000062	-46.807311	-83.921991	47.134921
50742	9.877448	-0.657705	0.703396	0.015284	0.108140	0.110991	1.000000	0.000032	0.000015	0.000031	-46.812836	-83.926130	47.144378
50743	9.863022	-0.665742	0.722172	-0.004485	0.099574	0.098620	1.000000	0.000026	0.000025	0.000043	-46.839493	-83.922840	47.174250
50744	9.896246	-0.670633	0.714559	0.005233	0.097838	0.131478	1.000000	0.000033	0.000019	0.000038	-46.872356	-83.922263	47.202072
50745	9.877198	-0.659890	0.704855	0.013478	0.107757	0.110997	1.000000	0.000029	0.000032	0.000040	-46.891363	-83.918780	47.224544
50746	9.857220	-0.688180	0.711356	0.005466	0.077890	0.093791	1.000000	0.000036	0.000025	0.000035	-46.901508	-83.920942	47.235252
50747	9.887165	-0.659910	0.746919	-0.028176	0.109015	0.123948	1.000000	0.000012	0.000015	0.000049	-46.941668	-83.918019	47.277063
50748	9.876939	-0.662104	0.706404	0.011033	0.106829	0.111010	1.000000	0.000031	0.000034	0.000029	-46.971429	-83.917179	47.299419
50749	9.852370	-0.671435	0.684268	0.031462	0.096154	0.085697	1.000000	0.000052	0.000017	0.000031	-46.993393	-83.915541	47.327497
50750	9.886928	-0.661818	0.748371	-0.028927	0.108509	0.123951	1.000000	0.000014	0.000017	0.000038	-46.961692	-83.909664	47.289515
50751	9.876707	-0.664032	0.707839	0.010766	0.106310	0.111016	1.000000	0.000037	0.000029	0.000042	-46.982938	-83.906156	47.315161
50752	9.876612	-0.664828	0.708420	0.010447	0.105312	0.111027	1.000000	0.000026	0.000025	0.000043	-46.967685	-83.906033	47.302261
50753	9.890893	-0.658150	0.690604	0.029196	0.113717	0.123412	1.000000	0.000027	0.000024	0.000026	-46.982471	-83.904339	47.320203
50754	9.862097	-0.673415	0.727674	-0.009404	0.096529	0.098647	1.000000	0.000031	0.000013	0.000042	-46.994583	-83.901208	47.326764
50755	9.890737	-0.659519	0.691530	0.028606	0.113405	0.123418	1.000000	0.000040	0.000035	0.000038	-47.007867	-83.897499	47.344713
50756	9.880845	-0.686459	0.739148	-0.019264	0.085456	0.119130	1.000000	0.000027	0.000029	0.000051	-47.004768	-83.897557	47.344282
50757	9.871595	-0.649618	0.682609	0.036291	0.122318	0.102960	1.000000	0.000031	0.000034	0.000029	-47.013698	-83.894760	47.356767
50758	9.876084	-0.668966	0.711871	0.008042	0.103237	0.111051	1.000000	0.000019	0.000030	0.000031	-46.996972	-83.893352	47.337155
50759	9.881550	-0.649327	0.724835	-0.004637	0.123768	0.115893	1.000000	0.000025	0.000021	0.000036	-47.021331	-83.890914	47.364508
50760	9.875922	-0.670252	0.712909	0.006061	0.102705	0.111058	1.000000	0.000036	0.000025	0.000035	-47.065411	-83.893820	47.405837
50761	9.875839	-0.670871	0.713474	0.005550	0.102636	0.111059	1.000000	0.000028	0.000028	0.000033	-47.082271	-83.891215	47.425953
50762	9.871178	-0.652793	0.685591	0.032042	0.120422	0.102998	1.000000	0.000033	0.000042	0.000043	-47.115171	-83.893284	47.458460
50763	9.856707	-0.660877	0.704520	0.012273	0.111889	0.090601	1.000000	0.000022	0.000015	0.000040	-47.147759	-83.891066	47.493744
50764	9.900039	-0.664315	0.738013	-0.018447	0.112199	0.136374	1.000000	0.000020	0.000034	0.000038	-47.175140	-83.890391	47.515005
50765	9.881013	-0.653649	0.728269	-0.010176	0.122127	0.115909	1.000000	0.000032	0.000017	0.000049	-47.212110	-83.887268	47.555767
50766	9.850889	-0.683464	0.693620	0.022464	0.090611	0.085774	1.000000	0.000028	0.000028	0.000033	-47.220312	-83.885621	47.558501
50767	9.885376	-0.673989	0.757943	-0.039231	0.103309	0.123971	1.000000	0.000036	0.000027	0.000053	-47.251532	-83.881396	47.593906
50768	9.875180	-0.676275	0.717490	-0.000071	0.100651	0.111081	1.000000	0.000028	0.000028	0.000033	-47.274705	-83.882807	47.614017
50769	9.886204	-0.636460	0.742872	-0.024925	0.141800	0.120753	1.000000	0.000035	0.000023	0.000045	-47.304058	-83.879497	47.647408
50770	9.880552	-0.657554	0.731001	-0.013410	0.120496	0.115925	1.000000	0.000046	0.000027	0.000044	-47.310278	-83.879244	47.654888
50771	9.855980	-0.667036	0.708881	0.007034	0.109821	0.090629	1.000000	0.000028	0.000028	0.000033	-47.327661	-83.876663	47.675462
50772	9.874815	-0.679264	0.719684	-0.001774	0.099333	0.111094	1.000000	0.000015	0.000021	0.000045	-47.324431	-83.873353	47.667289
50773	9.875748	-0.641134	0.704008	0.013598	0.138323	0.107885	1.000000	0.000027	0.000029	0.000051	-47.353356	-83.869115	47.699387
50774	9.889011	-0.673699	0.702468	0.016421	0.107360	0.123512	1.000000	0.000036	0.000025	0.000035	-47.363540	-83.867869	47.705723
50775	9.874534	-0.681644	0.721283	-0.003351	0.098851	0.111099	1.000000	0.000033	0.000019	0.000038	-47.390806	-83.865447	47.736855
50776	9.869934	-0.663533	0.693160	0.023658	0.116389	0.103069	1.000000	0.000028	0.000028	0.000033	-47.398895	-83.868529	47.746494
50777	9.879927	-0.662753	0.734742	-0.017087	0.118491	0.115943	1.000000	0.000035	0.000023	0.000045	-47.428155	-83.865213	47.779760
50778	9.869762	-0.665026	0.694181	0.022488	0.116145	0.103075	1.000000	0.000025	0.000021	0.000036	-47.455069	-83.863826	47.799380
50779	9.894154	-0.656988	0.717407	0.000990	0.126696	0.128366	1.000000	0.000018	0.000028	0.000041	-47.479938	-83.860491	47.826260
50780	9.874097	-0.685263	0.723836	-0.007074	0.096375	0.111121	1.000000	0.000025	0.000021	0.000036	-47.479113	-83.864985	47.830770
50781	9.893970	-0.658474	0.718582	-0.000514	0.125359	0.128383	1.000000	0.000033	0.000042	0.000043	-47.492642	-83.860417	47.848007
50782	9.854997	-0.675194	0.714796	0.000835	0.105246	0.090681	1.000000	0.000032	0.000015	0.000031	-47.475981	-83.862667	47.835014
50783	9.880459	-0.628151	0.721765	-0.004765	0.154836	0.112785	1.000000	0.000027	0.000029	0.000051	-47.504821	-83.858459	47.867015
50784	9.873717	-0.688243	0.726185	-0.008718	0.094298	0.111140	1.000000	0.000028	0.000028	0.000033	-47.480125	-83.858134	47.843142
50785	9.893608	-0.661391	0.720888	-0.002157	0.123273	0.128409	1.000000	0.000029	0.000032	0.000040	-47.499160	-83.854661	47.865484
50786	9.869046	-0.670898	0.698682	0.017652	0.111772	0.103135	1.000000	0.000014	0.000017	0.000038	-47.525788	-83.858528	47.891775
50787	9.899007	-0.642568	0.734365	-0.016021	0.142913	0.133258	1.000000	0.000040	0.000035	0.000038	-47.539398	-83.854902	47.909958
50788	9.887757	-0.683829	0.710282	0.008072	0.100809	0.123591	1.000000	0.000021	0.000034	0.000038	-47.514943	-83.853762	47.885581
50789	9.878835	-0.671478	0.741466	-0.023857	0.112913	0.115995	1.000000	0.000030	0.000009	0.000035	-47.547723	-83.852484	47.921829
50790	9.888691	-0.646287	0.694916	0.023258	0.139263	0.120433	1.000000	0.000027	0.000029	0.000051	-47.547695	-83.848981	47.918430
50791	9.907485	-0.658653	0.705877	0.013902	0.129181	0.140878	1.000000	0.000029	0.000032	0.000040	-47.566572	-83.845517	47.940608
50792	9.878551	-0.673805	0.743144	-0.025247	0.110762	0.116015	1.000000	0.000028	0.000028	0.000033	-47.534981	-83.849854	47.917412
50793	9.873995	-0.655807	0.714992	0.002300	0.129124	0.108018	1.000000	0.000023	0.000019	0.000047	-47.569117	-83.846765	47.954321
50794	9.892791	-0.668155	0.725839	-0.007133	0.118409	0.128466	1.000000	0.000037	0.000029	0.000042	-47.570925	-83.846324	47.955981
50795	9.873812	-0.657304	0.716148	0.001176	0.128342	0.108028	1.000000	0.000011	0.000032	0.000029	-47.583228	-83.843794	47.969504
50796	9.882567	-0.671016	0.686069	0.031171	0.115421	0.115645	1.000000	0.000037	0.000029	0.000042	-47.616098	-83.846610	48.002645
50797	9.863655	-0.684613	0.764393	-0.048071	0.100665	0.103574	1.000000	0.000048	0.000029	0.000033	-47.629774	-83.843937	48.021754
50798	9.898008	-0.650574	0.740754	-0.021936	0.137435	0.133324	1.000000	0.000018	0.000028	0.000041	-47.618619	-83.841992	48.007913
50799	9.873446	-0.660143	0.718576	-0.001467	0.126758	0.108049	1.000000	0.000026	0.000025	0.000043	-47.645042	-83.838745	48.037371
50800	9.873355	-0.660819	0.719197	-0.001988	0.125725	0.108062	1.000000	0.000031	0.000034	0.000029	-47.619584	-83.840142	48.014533
50801	9.867678	-0.681774	0.707426	0.009640	0.105031	0.103220	1.000000	0.000026	0.000025	0.000043	-47.645911	-83.836904	48.043903
50802	9.873168	-0.662264	0.720433	-0.002461	0.124634	0.108075	1.000000	0.000021	0.000034	0.000038	-47.605617	-83.835208	48.004769
50803	9.873072	-0.663047	0.721031	-0.002986	0.124549	0.108076	1.000000	0.000035	0.000023	0.000045	-47.633955	-83.831971	48.037142
50804	9.872981	-0.663932	0.721471	-0.003626	0.123670	0.108087	1.000000	0.000032	0.000017	0.000049	-47.646243	-83.832781	48.050658
50805	9.891771	-0.676061	0.732399	-0.013001	0.113562	0.128516	1.000000	0.000024	0.000038	0.000016	-47.643184	-83.830849	48.050230
50806	9.872819	-0.665023	0.722673	-0.004598	0.122878	0.108096	1.000000	0.000025	0.000021	0.000036	-47.642295	-83.830911	48.047708
50807	9.887176	-0.658546	0.704899	0.014111	0.131204	0.120560	1.000000	0.000037	0.000029	0.000042	-47.662842	-83.827508	48.072563
50808	9.872642	-0.666477	0.723758	-0.005793	0.122729	0.108098	1.000000	0.000025	0.000021	0.000036	-47.694733	-83.825720	48.095429
50809	9.862545	-0.668638	0.683285	0.033923	0.120460	0.095294	1.000000	0.000031	0.000034	0.000029	-47.703575	-83.823043	48.107706
50810	9.881338	-0.680717	0.694165	0.024213	0.109694	0.115730	1.000000	0.000032	0.000015	0.000031	-47.717945	-83.825754	48.121666
50811	9.853528	-0.656831	0.715050	0.001160	0.131837	0.087684	1.000000	0.000030	0.000035	0.000047	-47.738270	-83.821434	48.145416
50812	9.877883	-0.648905	0.738474	-0.020029	0.141731	0.112962	1.000000	0.000037	0.000029	0.000042	-47.723357	-83.819366	48.129878
50813	9.877790	-0.649557	0.739141	-0.020556	0.141645	0.112962	1.000000	0.000031	0.000034	0.000029	-47.732130	-83.816694	48.142075
50814	9.905409	-0.674876	0.719549	0.001242	0.118978	0.141014	1.000000	0.000022	0.000038	0.000045	-47.746188	-83.814656	48.150827
50815	9.877591	-0.650997	0.740541	-0.021801	0.141131	0.112966	1.000000	0.000036	0.000025	0.000035	-47.764919	-83.812156	48.173670
50816	9.861914	-0.673506	0.687606	0.030928	0.117608	0.095338	1.000000	0.000025	0.000021	0.000036	-47.732436	-83.809215	48.139131
50817	9.886276	-0.665575	0.710888	0.009393	0.128116	0.120606	1.000000	0.000027	0.000029	0.000051	-47.760151	-83.805046	48.169962
50818	9.877329	-0.653237	0.742057	-0.022426	0.139115	0.112993	1.000000	0.000032	0.000015	0.000031	-47.740501	-83.808181	48.154945
50819	9.866040	-0.694608	0.717721	0.001343	0.097793	0.103298	1.000000	0.000024	0.000023	0.000054	-47.775734	-83.804195	48.193026
50820	9.887242	-0.628794	0.695997	0.024086	0.165110	0.117544	1.000000	0.000029	0.000026	0.000015	-47.748973	-83.805293	48.164838
50821	9.867091	-0.656862	0.702514	0.016477	0.136009	0.100219	1.000000	0.000027	0.000029	0.000051	-47.776455	-83.801134	48.195442
50822	9.881465	-0.650488	0.684784	0.035282	0.143670	0.112711	1.000000	0.000036	0.000025	0.000035	-47.768569	-83.801065	48.186914
50823	9.871288	-0.677108	0.732308	-0.012576	0.116769	0.108163	1.000000	0.000035	0.000023	0.000046	-47.796335	-83.797819	48.218643
50824	9.866834	-0.659134	0.703996	0.015122	0.134146	0.100247	1.000000	0.000021	0.000011	0.000033	-47.787404	-83.800251	48.210861
50825	9.885601	-0.671355	0.714832	0.005725	0.124023	0.120661	1.000000	0.000029	0.000032	0.000040	-47.805173	-83.796840	48.231894
50826	9.885505	-0.672140	0.715432	0.005415	0.123443	0.120668	1.000000	0.000026	0.000025	0.000043	-47.805417	-83.794930	48.228597
50827	9.866564	-0.661360	0.705694	0.013774	0.133381	0.100259	1.000000	0.000040	0.000035	0.000038	-47.817696	-83.791345	48.245392
50828	9.857608	-0.648921	0.736975	-0.018212	0.144400	0.092638	1.000000	0.000025	0.000021	0.000036	-47.804998	-83.794220	48.236175
50829	9.918549	-0.678587	0.709345	0.014104	0.120390	0.153585	1.000000	0.000031	0.000034	0.000029	-47.813100	-83.791561	48.247682
50830	9.866304	-0.663371	0.707438	0.012112	0.130736	0.100296	1.000000	0.000023	0.000019	0.000047	-47.801886	-83.793880	48.241101
50831	9.885049	-0.675774	0.718301	0.002708	0.120600	0.120704	1.000000	0.000026	0.000025	0.000043	-47.827009	-83.790664	48.269222
50832	9.871733	-0.644762	0.720811	-0.001368	0.150202	0.105167	1.000000	0.000026	0.000025	0.000043	-47.830306	-83.792718	48.274250
50833	9.884864	-0.677311	0.719399	0.001367	0.119446	0.120718	1.000000	0.000028	0.000028	0.000033	-47.845885	-83.790259	48.292973
50834	9.874810	-0.679585	0.678956	0.041275	0.115931	0.107975	1.000000	0.000029	0.000032	0.000040	-47.812838	-83.791471	48.264911
50835	9.865848	-0.667285	0.710116	0.009386	0.128060	0.100334	1.000000	0.000012	0.000015	0.000049	-47.850826	-83.788621	48.304370
50836	9.858169	-0.615894	0.724955	-0.006262	0.178322	0.089663	1.000000	0.000031	0.000034	0.000029	-47.815650	-83.788887	48.270849
50837	9.893383	-0.693265	0.690917	0.031095	0.104660	0.128394	1.000000	0.000052	0.000017	0.000032	-47.835750	-83.787361	48.296928
50838	9.865606	-0.669273	0.711606	0.008748	0.125804	0.100364	1.000000	0.000015	0.000021	0.000045	-47.803392	-83.786287	48.265931
50839	9.889967	-0.661308	0.734818	-0.012803	0.136262	0.125623	1.000000	0.000025	0.000021	0.000036	-47.826095	-83.784014	48.291523
50840	9.865432	-0.670761	0.712615	0.007938	0.124536	0.100380	1.000000	0.000029	0.000032	0.000040	-47.796890	-83.784334	48.265462
50841	9.898652	-0.675945	0.705362	0.017753	0.122749	0.133285	1.000000	0.000038	0.000029	0.000042	-47.815886	-83.780986	48.288757
50842	9.870877	-0.651915	0.726085	-0.004731	0.145086	0.105243	1.000000	0.000041	0.000013	0.000033	-47.828091	-83.777112	48.291704
50843	9.865179	-0.672809	0.714176	0.006896	0.124359	0.100383	1.000000	0.000028	0.000028	0.000033	-47.843001	-83.774652	48.309756
50844	9.879598	-0.666329	0.696391	0.025302	0.131993	0.112904	1.000000	0.000025	0.000021	0.000036	-47.856082	-83.776272	48.320402
50845	9.870641	-0.653766	0.727630	-0.006573	0.144133	0.105255	1.000000	0.000031	0.000034	0.000029	-47.863383	-83.773650	48.331118
50846	9.864923	-0.674735	0.715898	0.004867	0.122769	0.100404	1.000000	0.000026	0.000025	0.000044	-47.873110	-83.773953	48.338737
50847	9.879338	-0.668318	0.698171	0.023574	0.131022	0.112921	1.000000	0.000020	0.000030	0.000031	-47.885816	-83.771506	48.353584
50848	9.864753	-0.676102	0.716947	0.004300	0.121918	0.100415	1.000000	0.000022	0.000015	0.000040	-47.875730	-83.770372	48.340999
50849	9.894745	-0.647769	0.752506	-0.029389	0.152994	0.130531	1.000000	0.000036	0.000025	0.000035	-47.892755	-83.767920	48.362127
50850	9.889021	-0.668716	0.740825	-0.017462	0.131189	0.125684	1.000000	0.000032	0.000038	0.000036	-47.851641	-83.767853	48.324458
50851	9.864502	-0.677949	0.718660	0.003068	0.120507	0.100433	1.000000	0.000026	0.000020	0.000018	-47.862610	-83.767235	48.338278
50852	9.864429	-0.678546	0.719094	0.003198	0.119495	0.100445	1.000000	0.000015	0.000021	0.000045	-47.834935	-83.765643	48.310278
50853	9.873214	-0.692585	0.688950	0.034045	0.107117	0.108102	1.000000	0.000054	0.000025	0.000046	-47.857895	-83.762284	48.339457
50854	9.869873	-0.659948	0.732446	-0.010379	0.139228	0.105322	1.000000	0.000015	0.000021	0.000045	-47.881579	-83.763767	48.359977
50855	9.884299	-0.653729	0.714573	0.008330	0.147464	0.117848	1.000000	0.000023	0.000019	0.000047	-47.913129	-83.760752	48.394222
50856	9.873979	-0.680244	0.762100	-0.039356	0.119533	0.113196	1.000000	0.000028	0.000028	0.000033	-47.883554	-83.762185	48.367239
50857	9.884141	-0.655071	0.715532	0.007485	0.146175	0.117867	1.000000	0.000033	0.000015	0.000031	-47.905908	-83.760837	48.393284
50858	9.865269	-0.644080	0.705579	0.015509	0.155325	0.097501	1.000000	0.000020	0.000030	0.000031	-47.905893	-83.763321	48.391887
50859	9.863809	-0.683797	0.722615	-0.001003	0.116175	0.100485	1.000000	0.000047	0.000031	0.000051	-47.928356	-83.759074	48.419717
50860	9.889507	-0.636972	0.729647	-0.006790	0.164747	0.122768	1.000000	0.000038	0.000029	0.000042	-47.924490	-83.760497	48.417552
50861	9.882416	-0.696905	0.734163	-0.011173	0.104976	0.120875	1.000000	0.000013	0.000014	0.000031	-47.949989	-83.759340	48.444489
50862	9.879432	-0.639997	0.689603	0.032629	0.161395	0.110075	1.000000	0.000033	0.000042	0.000044	-47.922198	-83.758159	48.418048
50863	9.869073	-0.666497	0.737284	-0.015236	0.134514	0.105381	1.000000	0.000034	0.000019	0.000038	-47.946241	-83.755925	48.445918
50864	9.883521	-0.660088	0.719472	0.004082	0.142134	0.117928	1.000000	0.000036	0.000025	0.000035	-47.917662	-83.753805	48.415862
50865	9.892325	-0.673930	0.689405	0.034919	0.129730	0.125597	1.000000	0.000028	0.000028	0.000033	-47.931741	-83.751395	48.433054
50866	9.864571	-0.649819	0.710048	0.011568	0.151154	0.097571	1.000000	0.000022	0.000015	0.000040	-47.950388	-83.754407	48.450635
50867	9.883265	-0.662215	0.721031	0.002130	0.140960	0.117945	1.000000	0.000030	0.000036	0.000047	-47.968116	-83.750180	48.471749
50868	9.892068	-0.676013	0.691047	0.033431	0.127665	0.125629	1.000000	0.000029	0.000026	0.000015	-47.921367	-83.751498	48.425602
50869	9.888745	-0.643121	0.734556	-0.010550	0.160436	0.122835	1.000000	0.000044	0.000025	0.000055	-47.950988	-83.747440	48.460298
50870	9.877354	-0.684586	0.710381	0.012037	0.118532	0.113098	1.000000	0.000034	0.000019	0.000038	-48.002900	-83.752033	48.509148
50871	9.869792	-0.633067	0.725089	-0.003796	0.169711	0.102478	1.000000	0.000028	0.000028	0.000033	-48.017003	-83.749654	48.526348
50872	9.882841	-0.665590	0.723734	-0.000506	0.137882	0.117989	1.000000	0.000025	0.000021	0.000036	-47.978954	-83.749482	48.489972
50873	9.877099	-0.686606	0.711967	0.011110	0.117128	0.113116	1.000000	0.000029	0.000032	0.000040	-47.994681	-83.746189	48.508937
50874	9.897202	-0.659887	0.706685	0.018120	0.144927	0.130558	1.000000	0.000031	0.000034	0.000029	-47.947910	-83.746391	48.464432
50875	9.876913	-0.687910	0.713292	0.010527	0.115841	0.113132	1.000000	0.000018	0.000028	0.000042	-47.968857	-83.743270	48.487354
50876	9.891363	-0.681642	0.695599	0.029006	0.123806	0.125692	1.000000	0.000038	0.000029	0.000042	-47.988526	-83.741884	48.501036
50877	9.872492	-0.670810	0.685798	0.037438	0.133743	0.105333	1.000000	0.000021	0.000034	0.000038	-48.001922	-83.738593	48.516666
50878	9.863517	-0.658204	0.716934	0.005713	0.145142	0.097666	1.000000	0.000033	0.000015	0.000031	-47.992578	-83.740191	48.506818
50879	9.877991	-0.651866	0.699064	0.024415	0.153329	0.110227	1.000000	0.000035	0.000023	0.000046	-48.017920	-83.737069	48.536077
50880	9.876445	-0.691669	0.716126	0.007303	0.113505	0.113162	1.000000	0.000030	0.000036	0.000047	-48.034933	-83.737990	48.551099
50881	9.883454	-0.633205	0.712622	0.010707	0.173009	0.115122	1.000000	0.000017	0.000024	0.000034	-48.054074	-83.735796	48.572039
50882	9.881910	-0.672931	0.729635	-0.006395	0.133308	0.118049	1.000000	0.000019	0.000032	0.000049	-48.080315	-83.736315	48.593609
50883	9.896374	-0.666738	0.711836	0.012299	0.141488	0.130617	1.000000	0.000022	0.000015	0.000040	-48.109316	-83.734293	48.625100
50884	9.858765	-0.644329	0.691365	0.029076	0.160565	0.089926	1.000000	0.000038	0.000029	0.000042	-48.119311	-83.737494	48.636783
50885	9.890526	-0.688588	0.700630	0.022765	0.119647	0.125759	1.000000	0.000038	0.000029	0.000042	-48.137164	-83.734242	48.658813
50886	9.862787	-0.664387	0.721261	0.000175	0.141123	0.097726	1.000000	0.000024	0.000017	0.000029	-48.118428	-83.735256	48.638475
50887	9.896035	-0.669536	0.713915	0.009907	0.139216	0.130652	1.000000	0.000037	0.000025	0.000035	-48.134391	-83.732920	48.658471
50888	9.877193	-0.658727	0.703897	0.017874	0.148090	0.110320	1.000000	0.000032	0.000017	0.000049	-48.149277	-83.736461	48.675869
50889	9.877102	-0.659602	0.704354	0.017357	0.147947	0.110323	1.000000	0.000026	0.000025	0.000044	-48.172366	-83.733393	48.701866
50890	9.881191	-0.679005	0.733729	-0.018696	-0.013297	0.118920	1.000000	0.000029	0.000032	0.000040	-42.938862	-84.356564	42.551936
50891	9.876917	-0.661067	0.705575	0.009223	0.004015	0.111436	1.000000	0.000028	0.000028	0.000033	-42.932600	-84.356872	42.545535
50892	9.858066	-0.650379	0.695646	0.017853	0.013503	0.091245	1.000000	0.000034	0.000025	0.000064	-42.951889	-84.354924	42.562169
50893	9.901147	-0.654164	0.729348	-0.012790	0.013080	0.136798	1.000000	0.000013	0.000014	0.000031	-42.956658	-84.356567	42.565098
50894	9.882319	-0.643227	0.719359	-0.004181	0.022575	0.116609	1.000000	0.000049	0.000033	0.000041	-42.949437	-84.355814	42.555005
50895	9.889618	-0.696178	0.705927	0.009653	-0.029879	0.126455	1.000000	0.000029	0.000032	0.000040	-42.946006	-84.355229	42.551577
50896	9.861877	-0.671924	0.726712	-0.012692	-0.007447	0.098720	1.000000	0.000031	0.000034	0.000029	-42.924084	-84.354778	42.528784
50897	9.876357	-0.665663	0.709087	0.006078	-0.000375	0.111439	1.000000	0.000027	0.000029	0.000051	-42.931691	-84.353536	42.536248
50898	9.852772	-0.660309	0.758462	-0.044772	0.004038	0.091169	1.000000	0.000032	0.000017	0.000049	-42.940505	-84.353037	42.550221
50899	9.886021	-0.665532	0.751077	-0.035167	0.000878	0.124074	1.000000	0.000026	0.000020	0.000018	-42.928593	-84.355130	42.537889
50900	9.876110	-0.667759	0.710545	0.004541	-0.002596	0.111440	1.000000	0.000021	0.000034	0.000038	-42.921644	-84.354585	42.535928
50901	9.867100	-0.655292	0.741789	-0.027112	0.009648	0.103889	1.000000	0.000027	0.000029	0.000051	-42.929253	-84.353343	42.543395
50902	9.861315	-0.676467	0.730108	-0.015841	-0.011843	0.098711	1.000000	0.000038	0.000029	0.000042	-42.925376	-84.352625	42.539361
50903	9.885640	-0.668492	0.753460	-0.037338	-0.002046	0.124066	1.000000	0.000025	0.000021	0.000036	-42.927327	-84.353168	42.540887
50904	9.875726	-0.670940	0.712881	0.002381	-0.005509	0.111440	1.000000	0.000018	0.000028	0.000042	-42.928773	-84.352760	42.534227
50905	9.875629	-0.671712	0.713498	0.001825	-0.006230	0.111439	1.000000	0.000029	0.000032	0.000040	-42.925352	-84.352174	42.530811
50906	9.856821	-0.660787	0.703443	0.010538	0.003265	0.091264	1.000000	0.000021	0.000011	0.000033	-42.928149	-84.353530	42.528189
50907	9.899876	-0.664448	0.737265	-0.020139	0.002825	0.136794	1.000000	0.000030	0.000036	0.000047	-42.927556	-84.352051	42.527744
50908	9.875360	-0.674056	0.715013	0.000171	-0.008419	0.111438	1.000000	0.000032	0.000017	0.000049	-42.945874	-84.352299	42.548748
50909	9.880968	-0.654457	0.727734	-0.012146	0.011616	0.116621	1.000000	0.000035	0.000021	0.000028	-42.939372	-84.353528	42.542951
50910	9.880895	-0.655047	0.728196	-0.012733	0.010890	0.116621	1.000000	0.000025	0.000021	0.000036	-42.942298	-84.354222	42.544001
50911	9.880807	-0.655762	0.728756	-0.013289	0.010169	0.116621	1.000000	0.000029	0.000032	0.000040	-42.938878	-84.353636	42.540587
50912	9.875020	-0.676858	0.717061	-0.002105	-0.011324	0.111435	1.000000	0.000026	0.000025	0.000044	-42.943780	-84.353410	42.548992
50913	9.880631	-0.657230	0.729812	-0.014420	0.008713	0.116621	1.000000	0.000024	0.000017	0.000029	-42.942914	-84.354846	42.547561
50914	9.856132	-0.666656	0.707538	0.005988	-0.002528	0.091268	1.000000	0.000039	0.000033	0.000049	-42.943994	-84.353355	42.543373
50915	9.899160	-0.670338	0.741527	-0.024711	-0.002980	0.136783	1.000000	0.000028	0.000028	0.000033	-42.937751	-84.353661	42.536996
50916	9.861638	-0.647769	0.721110	-0.006815	0.016785	0.096458	1.000000	0.000021	0.000034	0.000038	-42.929128	-84.352829	42.516011
50917	9.889166	-0.673651	0.701602	0.014501	-0.007199	0.124183	1.000000	0.000022	0.000017	0.000058	-42.953141	-84.352055	42.539307
50918	9.855757	-0.669762	0.709830	0.003855	-0.005431	0.091268	1.000000	0.000038	0.000027	0.000024	-42.936541	-84.352952	42.519465
50919	9.855672	-0.670347	0.710457	0.003299	-0.006151	0.091268	1.000000	0.000029	0.000032	0.000040	-42.933125	-84.352364	42.516058
50920	9.888896	-0.675758	0.703376	0.012819	-0.009389	0.124183	1.000000	0.000029	0.000032	0.000040	-42.931068	-84.351987	42.516517
50921	9.888805	-0.676438	0.703999	0.012261	-0.010112	0.124183	1.000000	0.000028	0.000028	0.000033	-42.924830	-84.352293	42.510145
50922	9.875700	-0.645253	0.706409	0.009161	0.020176	0.109224	1.000000	0.000030	0.000036	0.000047	-42.924582	-84.350867	42.502486
50923	9.894302	-0.657718	0.717606	-0.000607	0.009205	0.129379	1.000000	0.000018	0.000028	0.000042	-42.926794	-84.350485	42.503436
50924	9.869808	-0.667074	0.695419	0.019764	-0.002040	0.104031	1.000000	0.000031	0.000034	0.000029	-42.913051	-84.350670	42.487065
50925	9.873811	-0.686161	0.724827	-0.009332	-0.020736	0.111415	1.000000	0.000035	0.000021	0.000028	-42.906564	-84.351897	42.481287
50926	9.894048	-0.659670	0.719315	-0.002230	0.007013	0.129380	1.000000	0.000025	0.000023	0.000054	-42.918638	-84.350662	42.494022
50927	9.879321	-0.667506	0.738168	-0.022110	-0.001430	0.116610	1.000000	0.000029	0.000032	0.000040	-42.915231	-84.350073	42.490626
50928	9.860525	-0.656627	0.728281	-0.013392	0.008088	0.096463	1.000000	0.000029	0.000032	0.000040	-42.909001	-84.349317	42.482112
50929	9.889681	-0.643448	0.692474	0.024698	0.022799	0.122009	1.000000	0.000024	0.000040	0.000034	-42.894827	-84.348462	42.467255
50930	9.887942	-0.683079	0.709683	0.007380	-0.016678	0.124179	1.000000	0.000035	0.000023	0.000046	-42.899306	-84.347962	42.470050
50931	9.874868	-0.651865	0.711951	0.004320	0.013626	0.109239	1.000000	0.000028	0.000028	0.000033	-42.893077	-84.348266	42.463691
50932	9.869070	-0.672845	0.700312	0.015530	-0.007879	0.104036	1.000000	0.000021	0.000034	0.000038	-42.885050	-84.347520	42.447759
50933	9.893364	-0.665004	0.723803	-0.005983	0.001915	0.129381	1.000000	0.000028	0.000029	0.000051	-42.892671	-84.346273	42.455245
50934	9.874580	-0.654172	0.713827	0.002742	0.011440	0.109242	1.000000	0.000037	0.000025	0.000035	-42.886716	-84.346443	42.441502
50935	9.874493	-0.654918	0.714352	0.002185	0.010720	0.109243	1.000000	0.000035	0.000023	0.000046	-42.894086	-84.346118	42.449579
50936	9.874407	-0.655700	0.714815	0.001532	0.010006	0.109244	1.000000	0.000034	0.000019	0.000039	-42.902775	-84.347074	42.456085
50937	9.874319	-0.656431	0.715358	0.000976	0.009285	0.109245	1.000000	0.000029	0.000032	0.000040	-42.899376	-84.346483	42.452700
50938	9.874224	-0.657217	0.715957	0.000375	0.008557	0.109245	1.000000	0.000026	0.000025	0.000044	-42.905626	-84.346344	42.462892
50939	9.898545	-0.649112	0.739275	-0.021141	0.018351	0.134588	1.000000	0.000026	0.000020	0.000019	-42.893751	-84.348434	42.450602
50940	9.868354	-0.678757	0.704686	0.010999	-0.013675	0.104036	1.000000	0.000028	0.000029	0.000051	-42.899903	-84.347142	42.456022
50941	9.873981	-0.659141	0.717532	-0.001273	0.006381	0.109247	1.000000	0.000019	0.000026	0.000024	-42.888270	-84.348309	42.443135
50942	9.883645	-0.658017	0.759162	-0.042082	0.008492	0.121794	1.000000	0.000035	0.000023	0.000046	-42.894198	-84.347890	42.439711
50943	9.873812	-0.660532	0.718577	-0.002356	0.004933	0.109247	1.000000	0.000037	0.000025	0.000035	-42.890559	-84.348222	42.436928
50944	9.907046	-0.665962	0.711491	0.007049	0.001624	0.142172	1.000000	0.000029	0.000032	0.000040	-42.891340	-84.348084	42.446605
50945	9.854959	-0.650277	0.709209	0.005678	0.013757	0.089123	1.000000	0.000037	0.000025	0.000035	-42.887705	-84.348416	42.443826
50946	9.901153	-0.687627	0.700355	0.017641	-0.020615	0.136957	1.000000	0.000017	0.000024	0.000034	-42.886463	-84.348988	42.447118
50947	9.879179	-0.643091	0.733063	-0.016401	0.022812	0.114464	1.000000	0.000025	0.000023	0.000054	-42.902282	-84.347974	42.462515
50948	9.888033	-0.657161	0.703052	0.014107	0.008971	0.122052	1.000000	0.000029	0.000026	0.000015	-42.880272	-84.349729	42.435503
50949	9.873298	-0.664573	0.721906	-0.005770	0.000580	0.109247	1.000000	0.000038	0.000029	0.000042	-42.879470	-84.349167	42.435700
50950	9.893584	-0.638138	0.716529	0.001296	0.028297	0.127274	1.000000	0.000038	0.000029	0.000042	-42.878021	-84.348606	42.432744
50951	9.873109	-0.666043	0.723140	-0.006876	-0.000868	0.109246	1.000000	0.000028	0.000028	0.000033	-42.871803	-84.348907	42.426400
50952	9.869021	-0.648226	0.694845	0.021116	0.016338	0.101941	1.000000	0.000026	0.000025	0.000044	-42.877714	-84.348731	42.434498
50953	9.878652	-0.647275	0.736478	-0.019728	0.018464	0.114467	1.000000	0.000035	0.000023	0.000046	-42.885107	-84.348404	42.442601
50954	9.868848	-0.649894	0.695736	0.019986	0.014884	0.101946	1.000000	0.000011	0.000011	0.000042	-42.901075	-84.349504	42.460597
50955	9.900348	-0.694271	0.705164	0.012590	-0.027170	0.136949	1.000000	0.000041	0.000035	0.000039	-42.892086	-84.348705	42.452901
50956	9.878388	-0.649671	0.737912	-0.021480	0.016285	0.114467	1.000000	0.000032	0.000017	0.000049	-42.909961	-84.348895	42.476262
50957	9.866823	-0.691262	0.713901	0.001367	-0.025995	0.104017	1.000000	0.000028	0.000029	0.000051	-42.917588	-84.347644	42.483760
50958	9.868478	-0.653199	0.697893	0.017722	0.011981	0.101954	1.000000	0.000028	0.000028	0.000033	-42.909894	-84.347907	42.474315
50959	9.878102	-0.652118	0.739569	-0.023126	0.014112	0.114467	1.000000	0.000026	0.000025	0.000044	-42.914699	-84.347549	42.478848
50960	9.872278	-0.673157	0.727876	-0.011990	-0.007400	0.109239	1.000000	0.000028	0.000028	0.000033	-42.908255	-84.347916	42.473114
50961	9.872188	-0.673887	0.728420	-0.012547	-0.008121	0.109238	1.000000	0.000035	0.000023	0.000046	-42.915655	-84.347587	42.481227
50962	9.901454	-0.660904	0.692422	0.025570	0.006427	0.134892	1.000000	0.000037	0.000025	0.000035	-42.909522	-84.347795	42.474375
50963	9.857335	-0.682116	0.747774	-0.032933	-0.017218	0.096405	1.000000	0.000028	0.000028	0.000033	-42.903315	-84.348096	42.468045
50964	9.877670	-0.655575	0.742281	-0.025879	0.010475	0.114465	1.000000	0.000025	0.000021	0.000036	-42.905256	-84.348709	42.471728
50965	9.892257	-0.649541	0.724557	-0.007121	0.017392	0.127297	1.000000	0.000028	0.000029	0.000051	-42.912886	-84.347456	42.479231
50966	9.886421	-0.670654	0.712911	0.004050	-0.004131	0.122065	1.000000	0.000028	0.000028	0.000033	-42.904523	-84.347675	42.471816
50967	9.882373	-0.652770	0.684739	0.032097	0.013069	0.114804	1.000000	0.000024	0.000040	0.000034	-42.890358	-84.346816	42.456980
50968	9.877291	-0.658489	0.744741	-0.028031	0.007568	0.114462	1.000000	0.000034	0.000019	0.000039	-42.892887	-84.347265	42.454130
50969	9.867512	-0.661072	0.704101	0.011710	0.003980	0.101970	1.000000	0.000026	0.000025	0.000044	-42.897697	-84.346906	42.458670
50970	9.886061	-0.673489	0.715218	0.001924	-0.007057	0.122064	1.000000	0.000025	0.000021	0.000036	-42.895918	-84.347255	42.459209
50971	9.869149	-0.623639	0.688481	0.027588	0.041213	0.099959	1.000000	0.000028	0.000028	0.000033	-42.889717	-84.347554	42.452885
50972	9.867265	-0.663120	0.705637	0.010111	0.001785	0.101972	1.000000	0.000025	0.000021	0.000036	-42.891375	-84.348098	42.446638
50973	9.891549	-0.655283	0.729039	-0.011432	0.011560	0.127301	1.000000	0.000028	0.000029	0.000051	-42.899009	-84.346844	42.454147
50974	9.891455	-0.656122	0.729560	-0.011875	0.010812	0.127302	1.000000	0.000034	0.000019	0.000039	-42.897910	-84.347035	42.448013
50975	9.872746	-0.645117	0.719436	-0.003125	0.020383	0.107215	1.000000	0.000028	0.000028	0.000033	-42.891709	-84.347335	42.441692
50976	9.885535	-0.677829	0.718386	-0.001323	-0.011431	0.122060	1.000000	0.000027	0.000025	0.000044	-42.896538	-84.347069	42.448498
50977	9.875770	-0.680413	0.677761	0.038419	-0.015040	0.109584	1.000000	0.000025	0.000021	0.000036	-42.898527	-84.347603	42.450076
50978	9.870663	-0.686061	0.737662	-0.021784	-0.020480	0.109204	1.000000	0.000028	0.000028	0.000033	-42.893412	-84.348033	42.441301
50979	9.896780	-0.639279	0.744456	-0.026378	0.027984	0.132546	1.000000	0.000018	0.000028	0.000042	-42.895623	-84.347643	42.442260
50980	9.887023	-0.641851	0.703846	0.013329	0.024366	0.120077	1.000000	0.000025	0.000021	0.000036	-42.899066	-84.348355	42.444717
50981	9.866470	-0.669829	0.710403	0.005132	-0.004745	0.101975	1.000000	0.000028	0.000029	0.000051	-42.906703	-84.347099	42.452230
50982	9.866383	-0.670598	0.710884	0.004575	-0.005475	0.101975	1.000000	0.000033	0.000015	0.000031	-42.908055	-84.348598	42.453486
50983	9.884918	-0.682933	0.722027	-0.005304	-0.016495	0.122051	1.000000	0.000029	0.000032	0.000040	-42.904682	-84.348003	42.450137
50984	9.866207	-0.672069	0.711942	0.003508	-0.006938	0.101974	1.000000	0.000015	0.000022	0.000045	-42.912281	-84.347729	42.457590
50985	9.886580	-0.645697	0.706537	0.010594	0.020724	0.120089	1.000000	0.000032	0.000038	0.000037	-42.900721	-84.346898	42.446349
50986	9.884644	-0.685020	0.723808	-0.006902	-0.018698	0.122046	1.000000	0.000026	0.000020	0.000019	-42.886933	-84.348924	42.433206
50987	9.871718	-0.653604	0.725856	-0.009800	0.011677	0.107225	1.000000	0.000035	0.000023	0.000046	-42.894360	-84.348591	42.441351
50988	9.884461	-0.686475	0.724927	-0.008030	-0.020150	0.122043	1.000000	0.000050	0.000037	0.000048	-42.890874	-84.347009	42.442409
50989	9.865753	-0.675576	0.714908	0.000742	-0.010566	0.101972	1.000000	0.000025	0.000021	0.000037	-42.892870	-84.347541	42.443996
50990	9.880392	-0.669457	0.697114	0.019483	-0.003714	0.114844	1.000000	0.000025	0.000021	0.000037	-42.894939	-84.348156	42.447761
50991	9.880311	-0.670106	0.697634	0.018926	-0.004436	0.114845	1.000000	0.000028	0.000028	0.000033	-42.888749	-84.348454	42.441453
50992	9.884102	-0.689267	0.727163	-0.010205	-0.023066	0.122034	1.000000	0.000029	0.000032	0.000040	-42.881564	-84.347637	42.432747
50993	9.885891	-0.651244	0.711082	0.006220	0.014890	0.120103	1.000000	0.000027	0.000025	0.000044	-42.886385	-84.347275	42.437303
50994	9.880045	-0.672248	0.699334	0.017313	-0.006633	0.114847	1.000000	0.000016	0.000020	0.000027	-42.883096	-84.348756	42.434549
50995	9.891492	-0.632287	0.724356	-0.006568	0.034233	0.125364	1.000000	0.000031	0.000036	0.000047	-42.882556	-84.347264	42.434181
50996	9.885644	-0.653297	0.712620	0.004495	0.012716	0.120107	1.000000	0.000040	0.000009	0.000026	-42.885758	-84.349827	42.439230
50997	9.865074	-0.681040	0.719078	-0.003710	-0.016367	0.101963	1.000000	0.000038	0.000029	0.000042	-42.885007	-84.349259	42.439491
50998	9.866880	-0.642985	0.703047	0.012760	0.021569	0.100052	1.000000	0.000021	0.000034	0.000038	-42.876848	-84.348563	42.433867
50999	9.898201	-0.687465	0.712776	0.005169	-0.020579	0.134905	1.000000	0.000027	0.000025	0.000044	-42.881673	-84.348200	42.438429
51000	9.864777	-0.683363	0.720943	-0.005340	-0.018554	0.101959	1.000000	0.000038	0.000029	0.000042	-42.880225	-84.347621	42.434009
51001	9.870453	-0.663830	0.733743	-0.017553	0.001523	0.107221	1.000000	0.000027	0.000025	0.000044	-42.885050	-84.347257	42.438571
51002	9.885084	-0.657910	0.716136	0.001188	0.008351	0.120113	1.000000	0.000031	0.000036	0.000047	-42.884524	-84.345830	42.439077
51003	9.884985	-0.658858	0.716635	0.000631	0.007630	0.120113	1.000000	0.000029	0.000011	0.000053	-42.908331	-84.345964	42.463021
51004	9.860531	-0.668394	0.694189	0.021099	-0.003583	0.094798	1.000000	0.000038	0.000029	0.000042	-42.906298	-84.345387	42.465459
51005	9.884801	-0.660409	0.717745	-0.000468	0.006171	0.120114	1.000000	0.000031	0.000034	0.000029	-42.891937	-84.345449	42.451278
51006	9.878931	-0.681411	0.706173	0.010658	-0.015359	0.114847	1.000000	0.000018	0.000028	0.000042	-42.892410	-84.344959	42.445383
51007	9.878833	-0.682185	0.706792	0.010100	-0.016081	0.114846	1.000000	0.000029	0.000032	0.000040	-42.889054	-84.344360	42.442058
51008	9.917848	-0.667477	0.712046	0.007870	0.001201	0.153063	1.000000	0.000037	0.000025	0.000035	-42.883456	-84.344588	42.435030
51009	9.860075	-0.671918	0.697260	0.018384	-0.007215	0.094801	1.000000	0.000027	0.000025	0.000044	-42.888281	-84.344224	42.439594
51010	9.878564	-0.684355	0.708460	0.008471	-0.018270	0.114844	1.000000	0.000017	0.000024	0.000034	-42.886797	-84.344717	42.436575
51011	9.850945	-0.659619	0.728768	-0.013667	0.004598	0.087167	1.000000	0.000039	0.000027	0.000024	-42.872237	-84.345703	42.423036
51012	9.884185	-0.665162	0.721822	-0.004280	0.001077	0.120115	1.000000	0.000038	0.000029	0.000042	-42.870683	-84.345130	42.422389
51013	9.865530	-0.654104	0.711681	0.004535	0.010683	0.100077	1.000000	0.000036	0.000021	0.000028	-42.864305	-84.346350	42.416738
51014	9.884013	-0.666535	0.722915	-0.005369	-0.000379	0.120115	1.000000	0.000028	0.000029	0.000051	-42.870350	-84.345032	42.422544
51015	9.883908	-0.667393	0.723557	-0.005927	-0.001101	0.120114	1.000000	0.000029	0.000032	0.000040	-42.866998	-84.344432	42.419225
51016	9.880007	-0.649629	0.695243	0.022187	0.016031	0.112995	1.000000	0.000028	0.000028	0.000033	-42.861158	-84.344779	42.410439
51017	9.844619	-0.684065	0.720105	-0.005337	-0.020538	0.081885	1.000000	0.000028	0.000028	0.000033	-42.854985	-84.345074	42.404155
51018	9.898404	-0.662662	0.707084	0.011667	0.004253	0.133032	1.000000	0.000027	0.000025	0.000044	-42.860723	-84.344821	42.410345
51019	9.883547	-0.670214	0.725880	-0.008193	-0.003988	0.120112	1.000000	0.000018	0.000028	0.000042	-42.862932	-84.344426	42.411312
51020	9.873861	-0.672901	0.685341	0.031520	-0.007657	0.107724	1.000000	0.000038	0.000029	0.000042	-42.864524	-84.344051	42.414151
51021	9.879565	-0.653296	0.698083	0.019328	0.012424	0.113006	1.000000	0.000025	0.000021	0.000037	-42.866536	-84.344580	42.415760
51022	9.849946	-0.667517	0.735059	-0.019862	-0.003319	0.087157	1.000000	0.000027	0.000025	0.000044	-42.872652	-84.344335	42.420057
51023	9.897944	-0.666587	0.709825	0.008794	0.000646	0.133036	1.000000	0.000027	0.000025	0.000044	-42.877487	-84.343969	42.424633
51024	9.864524	-0.662449	0.717878	-0.001629	0.002739	0.100083	1.000000	0.000035	0.000023	0.000046	-42.882642	-84.343496	42.425939
51025	9.893971	-0.649801	0.681985	0.036417	0.017026	0.125944	1.000000	0.000029	0.000032	0.000040	-42.879297	-84.342895	42.422630
51026	9.879112	-0.657260	0.700766	0.016567	0.008791	0.113015	1.000000	0.000034	0.000019	0.000039	-42.883208	-84.343457	42.427266
51027	9.897577	-0.669727	0.711977	0.006611	-0.002269	0.133037	1.000000	0.000018	0.000028	0.000042	-42.885416	-84.343061	42.428233
51028	9.878935	-0.658881	0.701740	0.015411	0.007350	0.113018	1.000000	0.000032	0.000017	0.000049	-42.902803	-84.343126	42.447618
51029	9.882619	-0.678073	0.731202	-0.013848	-0.011208	0.120100	1.000000	0.000048	0.000029	0.000034	-42.893719	-84.343244	42.440688
51030	9.882526	-0.678768	0.731809	-0.014399	-0.011943	0.120099	1.000000	0.000018	0.000028	0.000042	-42.895114	-84.342870	42.445004
51031	9.872860	-0.681458	0.691283	0.025372	-0.015634	0.107732	1.000000	0.000030	0.000032	0.000040	-42.891773	-84.342269	42.441700
51032	9.902920	-0.653171	0.727006	-0.007861	0.014908	0.138328	1.000000	0.000028	0.000028	0.000033	-42.886160	-84.342664	42.439014
51033	9.878490	-0.662410	0.704678	0.012613	0.003725	0.113024	1.000000	0.000028	0.000028	0.000033	-42.880005	-84.342958	42.432752
51034	9.896931	-0.674855	0.716112	0.002682	-0.007356	0.133036	1.000000	0.000042	0.000039	0.000046	-42.871976	-84.341154	42.423044
51035	9.865557	-0.631976	0.707424	0.009325	0.033423	0.098309	1.000000	0.000012	0.000016	0.000049	-42.890534	-84.341224	42.439774
51036	9.881971	-0.683131	0.735237	-0.017770	-0.016277	0.120087	1.000000	0.000023	0.000013	0.000022	-42.888603	-84.343671	42.434192
51037	9.883954	-0.645101	0.718828	-0.001234	0.021639	0.118322	1.000000	0.000005	0.000022	0.000054	-42.907351	-84.342816	42.450273
51038	9.868492	-0.668305	0.666012	0.050182	-0.002888	0.100678	1.000000	0.000046	0.000027	0.000044	-42.907810	-84.342228	42.452781
51039	9.902292	-0.658538	0.730705	-0.011743	0.009834	0.138330	1.000000	0.000030	0.000032	0.000040	-42.904473	-84.341625	42.449483
51040	9.863066	-0.674585	0.726565	-0.010544	-0.008826	0.100074	1.000000	0.000034	0.000019	0.000039	-42.908158	-84.342126	42.448237
51041	9.883595	-0.648289	0.720893	-0.003417	0.018736	0.118328	1.000000	0.000023	0.000015	0.000040	-42.918364	-84.342886	42.457748
51042	9.877695	-0.669389	0.709211	0.007621	-0.002799	0.113030	1.000000	0.000030	0.000032	0.000040	-42.915645	-84.342365	42.454716
51043	9.877598	-0.670164	0.709829	0.007063	-0.003520	0.113030	1.000000	0.000018	0.000028	0.000042	-42.917851	-84.341966	42.455685
51044	9.864816	-0.638695	0.711704	0.004329	0.026918	0.098332	1.000000	0.000023	0.000013	0.000022	-42.913875	-84.344295	42.448955
51045	9.892253	-0.664678	0.692497	0.025247	0.002491	0.125993	1.000000	0.000038	0.000029	0.000042	-42.913174	-84.343720	42.449280
51046	9.858842	-0.660403	0.700467	0.014817	0.004662	0.093034	1.000000	0.000023	0.000015	0.000040	-42.923627	-84.344525	42.456633
51047	9.877285	-0.672816	0.711668	0.004826	-0.006414	0.113030	1.000000	0.000028	0.000028	0.000033	-42.917480	-84.344817	42.450382
51048	9.868211	-0.659865	0.742635	-0.026607	0.006213	0.105366	1.000000	0.000027	0.000025	0.000044	-42.920733	-84.344394	42.452440
51049	9.882920	-0.653979	0.725006	-0.007867	0.012945	0.118334	1.000000	0.000030	0.000032	0.000040	-42.917397	-84.343790	42.449146
51050	9.897648	-0.648010	0.707217	0.010894	0.019662	0.131306	1.000000	0.000030	0.000009	0.000035	-42.926136	-84.345421	42.454960
51051	9.882760	-0.655358	0.725932	-0.008959	0.011494	0.118335	1.000000	0.000041	0.000035	0.000039	-42.917259	-84.344612	42.447404
51052	9.864140	-0.644462	0.715866	-0.000066	0.021123	0.098347	1.000000	0.000028	0.000029	0.000051	-42.924276	-84.343359	42.454932
51053	9.901084	-0.668538	0.737956	-0.019514	-0.000317	0.138323	1.000000	0.000029	0.000026	0.000015	-42.904331	-84.345211	42.434889
51054	9.872963	-0.659354	0.686647	0.029767	0.006284	0.106018	1.000000	0.000019	0.000032	0.000049	-42.906498	-84.343767	42.432040
51055	9.882390	-0.658190	0.728402	-0.011130	0.008584	0.118336	1.000000	0.000037	0.000025	0.000035	-42.902995	-84.344087	42.429419
51056	9.857966	-0.667536	0.706018	0.009327	-0.002591	0.093041	1.000000	0.000027	0.000025	0.000044	-42.909193	-84.343845	42.435573
51057	9.897032	-0.653040	0.711200	0.007018	0.014576	0.131318	1.000000	0.000034	0.000019	0.000039	-42.913871	-84.344398	42.440839
51058	9.876304	-0.680706	0.717764	-0.001232	-0.014409	0.113022	1.000000	0.000028	0.000028	0.000033	-42.906738	-84.344705	42.435823
51059	9.882040	-0.661016	0.730598	-0.013382	0.005689	0.118335	1.000000	0.000041	0.000035	0.000039	-42.897873	-84.343895	42.428282
51060	9.872427	-0.663693	0.690168	0.026409	0.001931	0.106029	1.000000	0.000021	0.000034	0.000038	-42.891214	-84.343274	42.420779
51061	9.881858	-0.662416	0.731782	-0.014491	0.004238	0.118334	1.000000	0.000030	0.000009	0.000035	-42.901260	-84.344956	42.430973
51062	9.890767	-0.676953	0.701769	0.015884	-0.009903	0.126008	1.000000	0.000016	0.000026	0.000052	-42.911476	-84.343761	42.438327
51063	9.881685	-0.663966	0.732718	-0.015555	0.002776	0.118333	1.000000	0.000039	0.000027	0.000024	-42.896992	-84.344744	42.424877
51064	9.863102	-0.652813	0.722573	-0.006633	0.012411	0.098360	1.000000	0.000030	0.000032	0.000040	-42.892519	-84.344131	42.421450
51065	9.890493	-0.679018	0.703626	0.014222	-0.012084	0.126008	1.000000	0.000030	0.000032	0.000040	-42.889192	-84.343525	42.418169
51066	9.871908	-0.667944	0.693492	0.023126	-0.002444	0.106037	1.000000	0.000020	0.000030	0.000031	-42.880221	-84.343850	42.410455
51067	9.862833	-0.654899	0.724348	-0.008307	0.010244	0.098361	1.000000	0.000023	0.000015	0.000040	-42.890437	-84.344606	42.419979
51068	9.877586	-0.648915	0.706646	0.010412	0.016925	0.111361	1.000000	0.000031	0.000034	0.000029	-42.876283	-84.344761	42.410102
51069	9.880668	-0.683508	0.664697	0.052315	-0.018029	0.113719	1.000000	0.000036	0.000021	0.000028	-42.869977	-84.345976	42.404535
51070	9.853591	-0.643123	0.756294	-0.040862	0.021475	0.090682	1.000000	0.000033	0.000021	0.000057	-42.887817	-84.345008	42.425889
51071	9.880983	-0.669472	0.737160	-0.020020	-0.003034	0.118325	1.000000	0.000026	0.000021	0.000037	-42.889858	-84.345532	42.427537
51072	9.856567	-0.678833	0.714719	0.000486	-0.014211	0.093036	1.000000	0.000027	0.000025	0.000044	-42.894040	-84.345199	42.434421
51073	9.880798	-0.671069	0.738181	-0.021133	-0.004489	0.118322	1.000000	0.000035	0.000023	0.000046	-42.901546	-84.344854	42.442664
51074	9.895552	-0.665223	0.720443	-0.002376	0.002178	0.131331	1.000000	0.000026	0.000021	0.000037	-42.901959	-84.345315	42.440733
51075	9.876983	-0.654215	0.710170	0.006548	0.011837	0.111372	1.000000	0.000018	0.000028	0.000042	-42.904162	-84.344912	42.441704
51076	9.876888	-0.655035	0.710736	0.005971	0.011107	0.111373	1.000000	0.000055	0.000025	0.000047	-42.909167	-84.344508	42.454526
51077	9.891642	-0.649283	0.693021	0.024702	0.017781	0.124389	1.000000	0.000015	0.000022	0.000045	-42.919547	-84.344337	42.463379
51078	9.843382	-0.651452	0.719241	-0.004955	0.012647	0.078404	1.000000	0.000031	0.000034	0.000029	-42.905365	-84.344488	42.452969
51079	9.895092	-0.669048	0.723220	-0.005201	-0.001451	0.131330	1.000000	0.000035	0.000023	0.000046	-42.912876	-84.344142	42.461218
51080	9.870678	-0.678383	0.700820	0.015276	-0.012609	0.106045	1.000000	0.000028	0.000028	0.000033	-42.908037	-84.344583	42.459393
51081	9.876446	-0.658641	0.713549	0.003140	0.007491	0.111378	1.000000	0.000028	0.000028	0.000033	-42.901910	-84.344873	42.453170
51082	9.876374	-0.659243	0.713984	0.002590	0.006761	0.111379	1.000000	0.000013	0.000014	0.000031	-42.905989	-84.346503	42.454982
51083	9.867291	-0.646135	0.744866	-0.028827	0.019477	0.103690	1.000000	0.000041	0.000035	0.000039	-42.897150	-84.345691	42.447475
51084	9.870339	-0.680962	0.703087	0.013071	-0.015521	0.106044	1.000000	0.000021	0.000034	0.000038	-42.889689	-84.345045	42.440818
51085	9.876098	-0.661434	0.715769	0.000938	0.004580	0.111380	1.000000	0.000032	0.000017	0.000050	-42.905386	-84.344931	42.456958
51086	9.855292	-0.689297	0.722240	-0.007322	-0.024352	0.093013	1.000000	0.000024	0.000019	0.000047	-42.917790	-84.344799	42.468538
51087	9.875923	-0.663146	0.716603	-0.000170	0.003129	0.111381	1.000000	0.000026	0.000021	0.000037	-42.919845	-84.345321	42.470202
51088	9.860980	-0.670396	0.735321	-0.020022	-0.004963	0.098348	1.000000	0.000037	0.000025	0.000035	-42.916989	-84.345679	42.465000
51089	9.890632	-0.657820	0.699355	0.017986	0.009061	0.124416	1.000000	0.000024	0.000017	0.000029	-42.916237	-84.347097	42.463712
51090	9.873440	-0.703651	0.734838	-0.019884	-0.039652	0.112934	1.000000	0.000024	0.000017	0.000029	-42.859110	-84.359895	42.398336
51091	9.872028	-0.647234	0.689483	0.025577	0.015971	0.104486	1.000000	0.000041	0.000035	0.000039	-42.850097	-84.359112	42.390668
51092	9.871925	-0.648073	0.690168	0.024989	0.015248	0.104489	1.000000	0.000028	0.000030	0.000051	-42.859001	-84.357978	42.399868
51093	9.875419	-0.667241	0.719739	-0.004365	-0.003239	0.111380	1.000000	0.000026	0.000021	0.000037	-42.860887	-84.358529	42.401376
51094	9.845158	-0.696892	0.685091	0.027741	-0.035223	0.080752	1.000000	0.000034	0.000019	0.000039	-42.864284	-84.359044	42.404199
51095	9.908583	-0.673825	0.713249	0.004299	-0.007748	0.144356	1.000000	0.000017	0.000024	0.000035	-42.863500	-84.359566	42.402052
51096	9.847714	-0.643816	0.740677	-0.027335	0.018456	0.083750	1.000000	0.000027	0.000026	0.000044	-42.867902	-84.359199	42.403237
51097	9.889941	-0.663665	0.703586	0.012706	0.001196	0.124428	1.000000	0.000031	0.000036	0.000047	-42.867239	-84.357722	42.402787
51098	9.856534	-0.659059	0.711571	0.002390	0.003529	0.091450	1.000000	0.000018	0.000022	0.000017	-42.852722	-84.359806	42.383496
51099	9.874903	-0.671332	0.723003	-0.007696	-0.007602	0.111375	1.000000	0.000041	0.000035	0.000039	-42.843720	-84.359021	42.375842
51100	9.889685	-0.665591	0.705360	0.011015	-0.000990	0.124430	1.000000	0.000032	0.000017	0.000050	-42.859551	-84.358988	42.395510
51101	9.886043	-0.647982	0.676742	0.039265	0.016029	0.117565	1.000000	0.000036	0.000021	0.000028	-42.853098	-84.360230	42.389816
51102	9.874634	-0.673535	0.724636	-0.009377	-0.009788	0.111372	1.000000	0.000014	0.000040	0.000043	-42.846632	-84.358684	42.380780
51103	9.889411	-0.667811	0.707103	0.009343	-0.003179	0.124431	1.000000	0.000027	0.000026	0.000044	-42.851346	-84.358337	42.385265
51104	9.856002	-0.663400	0.714896	-0.000968	-0.000827	0.091451	1.000000	0.000031	0.000013	0.000042	-42.864480	-84.359175	42.396657
51105	9.889249	-0.669364	0.707904	0.008215	-0.004634	0.124431	1.000000	0.000026	0.000021	0.000037	-42.866374	-84.359724	42.398175
51106	9.870724	-0.658325	0.697609	0.017184	0.005049	0.104516	1.000000	0.000038	0.000029	0.000042	-42.865842	-84.359225	42.401987
51107	9.870629	-0.659116	0.698210	0.016625	0.004322	0.104517	1.000000	0.000018	0.000028	0.000042	-42.867880	-84.358849	42.402812
51108	9.867000	-0.641569	0.669640	0.044880	0.021333	0.097674	1.000000	0.000042	0.000017	0.000041	-42.875499	-84.359481	42.409961
51109	9.888903	-0.672292	0.709963	0.005956	-0.007546	0.124431	1.000000	0.000036	0.000021	0.000028	-42.869060	-84.360723	42.404282
51110	9.855480	-0.667820	0.717972	-0.004371	-0.005175	0.091449	1.000000	0.000032	0.000040	0.000055	-42.872823	-84.358493	42.413001
51111	9.879692	-0.660026	0.741540	-0.026024	0.004514	0.116720	1.000000	0.000024	0.000017	0.000029	-42.871902	-84.359939	42.411559
51112	9.870197	-0.662724	0.700886	0.013798	0.000687	0.104522	1.000000	0.000030	0.000032	0.000040	-42.867845	-84.359334	42.406004
51113	9.864622	-0.667925	0.760828	-0.046407	-0.004255	0.103641	1.000000	0.000026	0.000022	0.000037	-42.869744	-84.359882	42.407529
51114	9.870021	-0.664195	0.701973	0.012670	-0.000765	0.104524	1.000000	0.000047	0.000027	0.000045	-42.872106	-84.359393	42.410618
51115	9.860915	-0.651072	0.732882	-0.018706	0.012032	0.096811	1.000000	0.000029	0.000028	0.000033	-42.865811	-84.359709	42.404248
51116	9.890637	-0.638672	0.696992	0.019310	0.025915	0.122974	1.000000	0.000026	0.000022	0.000037	-42.866522	-84.360190	42.402731
51117	9.888191	-0.678030	0.714399	0.001458	-0.013375	0.124427	1.000000	0.000026	0.000022	0.000037	-42.868423	-84.360738	42.404259
51118	9.863786	-0.687363	0.692091	0.021963	-0.024508	0.099157	1.000000	0.000034	0.000042	0.000044	-42.861161	-84.359152	42.399388
51119	9.893879	-0.659159	0.727859	-0.011236	0.006010	0.129795	1.000000	0.000017	0.000024	0.000035	-42.860379	-84.359671	42.397248
51120	9.887893	-0.680299	0.716367	-0.000269	-0.015553	0.124424	1.000000	0.000031	0.000036	0.000047	-42.860174	-84.358244	42.398546
51121	9.850966	-0.657479	0.695302	0.018300	0.004572	0.084630	1.000000	0.000029	0.000028	0.000033	-42.853885	-84.358559	42.392183
51122	9.908504	-0.654899	0.711504	0.006359	0.011114	0.142885	1.000000	0.000027	0.000026	0.000044	-42.857679	-84.358186	42.397682
51123	9.869186	-0.670847	0.707371	0.007631	-0.007316	0.104526	1.000000	0.000031	0.000036	0.000047	-42.857033	-84.356706	42.397256
51124	9.869095	-0.671545	0.707977	0.007057	-0.008042	0.104526	1.000000	0.000036	0.000021	0.000028	-42.851206	-84.358012	42.394204
51125	9.869017	-0.672065	0.708564	0.006498	-0.008769	0.104526	1.000000	0.000031	0.000034	0.000030	-42.836729	-84.358094	42.379953
51126	9.893236	-0.664140	0.732065	-0.015162	0.000903	0.129791	1.000000	0.000023	0.000015	0.000040	-42.846326	-84.358868	42.390305
51127	9.872334	-0.691764	0.738660	-0.023459	-0.027946	0.111314	1.000000	0.000030	0.000032	0.000040	-42.842863	-84.358285	42.386916
51128	9.889575	-0.647344	0.704034	0.012582	0.017163	0.123003	1.000000	0.000034	0.000019	0.000039	-42.846646	-84.358802	42.388516
51129	9.868677	-0.674888	0.710616	0.004284	-0.011684	0.104524	1.000000	0.000037	0.000025	0.000035	-42.843051	-84.359144	42.385832
51130	9.877943	-0.673609	0.752547	-0.036693	-0.009278	0.116683	1.000000	0.000035	0.000046	0.000051	-42.838929	-84.356661	42.383176
51131	9.874374	-0.655997	0.724117	-0.008402	0.007710	0.109903	1.000000	0.000043	0.000015	0.000023	-42.832383	-84.358826	42.378232
51132	9.874297	-0.656752	0.724479	-0.008973	0.006987	0.109903	1.000000	0.000022	0.000017	0.000058	-42.856929	-84.358084	42.401582
51133	9.901625	-0.683258	0.705607	0.011679	-0.017741	0.137511	1.000000	0.000032	0.000034	0.000030	-42.842458	-84.358166	42.387338
51134	9.855734	-0.646363	0.714611	-0.000515	0.015976	0.090024	1.000000	0.000022	0.000011	0.000033	-42.850364	-84.359884	42.393981
51135	9.868148	-0.679252	0.713797	0.000864	-0.016027	0.104519	1.000000	0.000027	0.000026	0.000044	-42.855095	-84.359532	42.398490
51136	9.879865	-0.639221	0.738570	-0.022726	0.024916	0.115287	1.000000	0.000020	0.000030	0.000031	-42.845054	-84.359775	42.388252
51137	9.797180	-0.578741	0.726039	-0.015705	0.079528	0.028057	1.000000	0.000044	0.000041	0.000035	-42.827908	-84.358754	42.372765
51138	9.800894	-0.686199	0.659277	0.051020	-0.028566	0.034121	1.000000	0.000109	0.000052	0.000005	-42.769707	-84.359247	42.324620
51139	9.973192	-0.935055	0.647453	0.073693	-0.265070	0.221374	1.000000	-0.000163	-0.000020	0.000115	-42.892974	-84.357207	42.426430
51140	10.126778	-0.406587	0.961049	-0.226430	0.276029	0.361451	1.000000	0.000080	-0.000062	-0.000012	-42.913391	-84.368599	42.451581
51141	9.361037	-0.670803	0.599006	0.077529	-0.043579	-0.408971	1.000000	0.000252	0.000085	-0.000042	-42.771872	-84.369989	42.335081
51142	10.040045	-0.689413	0.694435	0.033744	-0.016225	0.274861	1.000000	-0.000204	0.000194	0.000121	-42.736590	-84.349458	42.271336
51143	10.109913	-0.719992	0.710441	0.023632	-0.041051	0.347589	1.000000	0.000124	-0.000041	0.000036	-42.775707	-84.355329	42.321546
51144	10.079377	-0.661130	0.771069	-0.040427	0.016671	0.317642	1.000000	-0.000068	-0.000074	0.000080	-42.900755	-84.360619	42.438458
51145	9.770141	-0.616137	0.794523	-0.087541	0.041584	0.008573	1.000000	0.000093	-0.000026	0.000024	-42.921131	-84.366136	42.466288
51146	9.710301	-0.747468	0.699261	0.002121	-0.094573	-0.049047	1.000000	0.000025	0.000044	0.000042	-42.909566	-84.364419	42.456050
51147	9.812008	-0.652514	0.686720	0.022955	0.006605	0.044913	1.000000	0.000040	0.000052	0.000019	-42.870492	-84.363807	42.418106
51148	9.939567	-0.679056	0.717988	0.001373	-0.011048	0.175881	1.000000	-0.000031	0.000052	0.000061	-42.875111	-84.359847	42.414010
51149	9.886503	-0.516992	0.765888	-0.049074	0.147840	0.115683	1.000000	0.000105	0.000027	0.000040	-42.865872	-84.359688	42.413478
51150	9.742215	-0.698622	0.649761	0.055793	-0.044427	-0.024126	1.000000	0.000059	0.000072	0.000017	-42.808304	-84.357565	42.361029
51151	10.036370	-0.752189	0.644550	0.082407	-0.078186	0.271809	1.000000	-0.000057	0.000018	0.000081	-42.860022	-84.355016	42.403146
51152	9.935391	-0.575221	0.788698	-0.068081	0.093462	0.169875	1.000000	0.000047	0.000002	0.000022	-42.861434	-84.358320	42.404873
51153	9.902355	-0.659082	0.699316	0.017788	0.006205	0.136168	1.000000	0.000078	0.000004	0.000014	-42.851924	-84.362161	42.400910
51154	9.775841	-0.779635	0.618739	0.088106	-0.123520	0.012521	1.000000	0.000027	0.000026	0.000044	-42.857254	-84.361827	42.403693
51155	9.843968	-0.590699	0.710175	0.003257	0.070582	0.074273	1.000000	0.000005	0.000065	0.000046	-42.835063	-84.357970	42.378689
51156	9.917010	-0.654860	0.683369	0.035349	0.011246	0.149318	1.000000	0.000038	0.000029	0.000042	-42.834773	-84.357456	42.380582
51157	9.853672	-0.663008	0.727676	-0.013369	-0.000695	0.090028	1.000000	0.000032	0.000034	0.000030	-42.820323	-84.357535	42.366366
51158	9.926153	-0.654131	0.725767	-0.006172	0.012952	0.161425	1.000000	0.000004	0.000018	0.000047	-42.836424	-84.357607	42.378366
51159	9.847579	-0.684809	0.716573	-0.002990	-0.022986	0.084621	1.000000	0.000056	0.000023	0.000029	-42.827270	-84.358668	42.372252
51160	9.859937	-0.717488	0.715953	-0.001683	-0.055017	0.099059	1.000000	0.000056	0.000023	0.000029	-42.818217	-84.359740	42.365780
51161	9.865764	-0.697925	0.728586	-0.013745	-0.034896	0.104461	1.000000	-0.000010	0.000031	0.000057	-42.834155	-84.357939	42.377259
51162	9.904337	-0.610864	0.759336	-0.041043	0.054971	0.139244	1.000000	0.000068	0.000030	0.000035	-42.822158	-84.357914	42.371928
51163	9.871499	-0.679082	0.741817	-0.026363	-0.015504	0.109863	1.000000	0.000023	0.000015	0.000040	-42.832273	-84.358688	42.381377
51164	9.919703	-0.678812	0.716902	0.001960	-0.012280	0.156018	1.000000	0.000021	0.000034	0.000038	-42.825863	-84.358063	42.373917
51165	9.831249	-0.638517	0.692004	0.020704	0.021645	0.063502	1.000000	0.000059	0.000029	0.000025	-42.808533	-84.358892	42.359929
51166	9.986181	-0.690963	0.703455	0.020058	-0.020266	0.222016	1.000000	0.000007	0.000004	0.000056	-42.843662	-84.359484	42.395233
51167	9.786163	-0.659292	0.747352	-0.038191	-0.001411	0.024015	1.000000	0.000043	0.000037	0.000028	-42.823736	-84.359359	42.376827
51168	9.749677	-0.724949	0.629779	0.076554	-0.071036	-0.016388	1.000000	0.000157	0.000052	0.000009	-42.761483	-84.359419	42.327506
51169	10.048885	-0.701886	0.591000	0.137654	-0.028188	0.277024	1.000000	-0.000129	0.000057	0.000108	-42.813867	-84.351457	42.362015
51170	10.056448	-0.376760	0.876280	-0.144951	0.299977	0.283399	1.000000	0.000129	-0.000035	0.000004	-42.821040	-84.359378	42.382440
51171	9.719700	-0.829363	0.571167	0.132334	-0.177438	-0.043468	1.000000	0.000016	0.000065	0.000037	-42.790557	-84.356212	42.350287
51172	10.006249	-0.579657	0.797627	-0.071545	0.093209	0.241338	1.000000	-0.000071	-0.000021	0.000055	-42.852523	-84.358871	42.402925
51173	9.703225	-0.602121	0.737261	-0.033644	0.049824	-0.063069	1.000000	0.000131	0.000055	-0.000005	-42.780346	-84.359810	42.342110
51174	9.780099	-0.757082	0.714607	-0.005749	-0.100317	0.022152	1.000000	-0.000013	0.000045	0.000048	-42.776143	-84.357438	42.329363
51175	9.840129	-0.716563	0.714252	-0.000431	-0.055442	0.079162	1.000000	-0.000012	0.000051	0.000073	-42.789639	-84.352679	42.338164
51176	9.993933	-0.623450	0.776755	-0.050737	0.048577	0.230509	1.000000	0.000040	0.000031	0.000032	-42.775778	-84.352628	42.320586
51177	9.894173	-0.696851	0.702225	0.015853	-0.032165	0.130757	1.000000	0.000050	0.000010	0.000036	-42.783020	-84.354151	42.330271
51178	9.978791	-0.631421	0.795553	-0.071107	0.039935	0.217329	1.000000	-0.000023	0.000002	0.000064	-42.828320	-84.354140	42.368358
51179	9.839294	-0.646718	0.740998	-0.027404	0.014684	0.075592	1.000000	0.000078	0.000002	-0.000004	-42.805078	-84.359546	42.350672
51180	9.778810	-0.704689	0.671505	0.037309	-0.048498	0.014260	1.000000	0.000033	0.000058	0.000024	-42.765615	-84.357984	42.311992
51181	9.842702	-0.755110	0.675152	0.038477	-0.094338	0.081474	1.000000	0.000020	0.000038	0.000074	-42.787137	-84.354235	42.332611
51182	9.984155	-0.630069	0.738526	-0.013710	0.040977	0.218458	1.000000	0.000005	0.000022	0.000054	-42.806615	-84.353447	42.350539
51183	9.911489	-0.640130	0.741386	-0.021955	0.026019	0.147025	1.000000	0.000104	0.000021	0.000015	-42.780916	-84.355747	42.333417
51184	9.850994	-0.698403	0.671741	0.042745	-0.037161	0.085691	1.000000	0.000026	0.000022	0.000037	-42.782805	-84.356297	42.335565
51185	9.926340	-0.635104	0.724087	-0.003822	0.031723	0.160219	1.000000	0.000011	0.000014	0.000060	-42.812209	-84.355705	42.363017
51186	9.862242	-0.586587	0.721808	-0.006093	0.076138	0.093022	1.000000	0.000055	0.000025	0.000047	-42.817601	-84.355254	42.373132
51187	9.874994	-0.692350	0.696089	0.019897	-0.028970	0.110929	1.000000	0.000009	0.000024	0.000014	-42.800281	-84.357305	42.353485
51188	9.856814	-0.664924	0.756920	-0.042146	-0.002293	0.095393	1.000000	-0.000007	0.000014	0.000048	-42.822976	-84.357638	42.372102
51189	9.874385	-0.620763	0.722093	-0.005990	0.042633	0.107413	1.000000	0.000049	0.000029	0.000034	-42.813991	-84.357770	42.365330
51190	9.832821	-0.747837	0.709797	0.002633	-0.087160	0.073659	1.000000	0.000029	0.000028	0.000033	-42.807474	-84.358071	42.358528
51191	9.862301	-0.662940	0.699153	0.015845	-0.000531	0.096553	1.000000	-0.000012	0.000027	0.000050	-42.820535	-84.357163	42.366985
51192	9.916685	-0.626352	0.757850	-0.038536	0.040337	0.152461	1.000000	0.000030	0.000032	0.000040	-42.818689	-84.356676	42.367328
51193	9.865400	-0.682671	0.729568	-0.014243	-0.019612	0.103150	1.000000	0.000040	0.000031	0.000032	-42.806993	-84.356780	42.356860
51194	9.910979	-0.721157	0.721797	-0.003485	-0.055029	0.150521	1.000000	-0.000007	0.000014	0.000048	-42.829025	-84.357113	42.377785
51195	9.889488	-0.675686	0.753503	-0.036545	-0.010699	0.128381	1.000000	0.000029	0.000028	0.000033	-42.822792	-84.357420	42.371494
51196	9.856091	-0.670606	0.761304	-0.046646	-0.008077	0.095369	1.000000	0.000069	0.000028	0.000017	-42.796492	-84.358900	42.349181
51197	9.849882	-0.707622	0.678369	0.035393	-0.046595	0.085680	1.000000	0.000053	0.000017	0.000032	-42.795610	-84.360189	42.351046
51198	9.870958	-0.665466	0.744078	-0.028508	-0.002380	0.108577	1.000000	0.000005	0.000022	0.000054	-42.814062	-84.359293	42.363841
51199	9.879508	-0.607440	0.739501	-0.023047	0.056238	0.112877	1.000000	0.000018	0.000028	0.000042	-42.816104	-84.358904	42.364688
51200	9.904092	-0.672532	0.737979	-0.020076	-0.007198	0.141583	1.000000	0.000047	0.000025	0.000027	-42.803968	-84.359932	42.355847
51201	9.879746	-0.681677	0.715555	0.000531	-0.018286	0.116348	1.000000	0.000030	0.000032	0.000040	-42.800552	-84.359339	42.352524
51202	9.873285	-0.629835	0.729250	-0.013242	0.033196	0.107442	1.000000	0.000018	0.000028	0.000042	-42.802126	-84.358934	42.353546
51203	9.852203	-0.657286	0.735926	-0.021584	0.004487	0.088778	1.000000	0.000046	0.000023	0.000038	-42.801350	-84.359296	42.354684
51204	9.870237	-0.686102	0.676122	0.039275	-0.023706	0.104336	1.000000	0.000021	0.000034	0.000038	-42.795099	-84.358675	42.348039
51205	9.876104	-0.666608	0.688729	0.027255	-0.003576	0.109782	1.000000	0.000005	0.000022	0.000054	-42.813597	-84.357821	42.363904
51206	9.912217	-0.618108	0.736251	-0.017412	0.047771	0.145906	1.000000	0.000025	0.000018	0.000030	-42.813491	-84.359320	42.365552
51207	9.900214	-0.659430	0.712560	0.004948	0.005326	0.135014	1.000000	0.000025	0.000018	0.000030	-42.812628	-84.360757	42.364182
51208	9.860853	-0.674940	0.708043	0.006314	-0.012875	0.096555	1.000000	0.000023	0.000015	0.000040	-42.822789	-84.361541	42.374716
51209	9.879052	-0.687614	0.719447	-0.003961	-0.024106	0.116335	1.000000	0.000016	0.000022	0.000045	-42.833020	-84.361381	42.383453
51210	9.899972	-0.661650	0.713858	0.003275	0.003129	0.135016	1.000000	0.000049	0.000029	0.000034	-42.823276	-84.361512	42.378589
51211	9.860593	-0.677103	0.709592	0.004648	-0.015063	0.096553	1.000000	0.000029	0.000028	0.000033	-42.817047	-84.361818	42.372306
51212	9.884750	-0.669365	0.733239	-0.017083	-0.005435	0.121780	1.000000	0.000028	0.000030	0.000051	-42.824455	-84.360523	42.378068
51213	9.890624	-0.649870	0.745841	-0.029096	0.014698	0.127231	1.000000	-0.000001	0.000027	0.000041	-42.829214	-84.360308	42.379363
51214	9.857078	-0.661255	0.682122	0.031941	0.000376	0.090015	1.000000	0.000047	0.000025	0.000027	-42.817679	-84.361350	42.370107
51215	9.875273	-0.673798	0.693627	0.021656	-0.010861	0.109790	1.000000	0.000024	0.000019	0.000048	-42.830646	-84.361217	42.382566
51216	9.860134	-0.680969	0.712270	0.001860	-0.018690	0.096547	1.000000	0.000027	0.000026	0.000044	-42.835140	-84.360836	42.386559
51217	9.884288	-0.673235	0.735922	-0.019880	-0.009067	0.121772	1.000000	0.000030	0.000032	0.000040	-42.831733	-84.360241	42.383250
51218	9.874996	-0.676222	0.695210	0.019997	-0.013046	0.109791	1.000000	0.000023	0.000015	0.000040	-42.841367	-84.360942	42.389407
51219	9.905145	-0.648124	0.730705	-0.013192	0.017437	0.140474	1.000000	0.000035	0.000023	0.000046	-42.848885	-84.360604	42.397706
51220	9.874814	-0.677830	0.696235	0.018909	-0.014512	0.109791	1.000000	0.000021	0.000034	0.000038	-42.841018	-84.359890	42.387747
51221	9.880694	-0.658290	0.708919	0.006904	0.005623	0.115250	1.000000	0.000028	0.000030	0.000051	-42.848611	-84.358625	42.395285
51222	9.877383	-0.640999	0.680370	0.035306	0.022505	0.108740	1.000000	0.000030	0.000032	0.000040	-42.846351	-84.358086	42.393686
51223	9.874497	-0.680369	0.698246	0.017209	-0.016687	0.109791	1.000000	0.000031	0.000036	0.000048	-42.845760	-84.356590	42.393344
51224	9.859339	-0.687424	0.717055	-0.002590	-0.024497	0.096535	1.000000	0.000037	0.000025	0.000035	-42.842200	-84.356924	42.391139
51225	9.880304	-0.661383	0.711480	0.004649	0.002721	0.115253	1.000000	0.000029	0.000028	0.000033	-42.835989	-84.357229	42.384877
51226	9.880232	-0.661987	0.711917	0.004135	0.001980	0.115253	1.000000	0.000013	0.000014	0.000031	-42.838194	-84.358726	42.382692
51227	9.880151	-0.662671	0.712403	0.003576	0.001253	0.115254	1.000000	0.000058	0.000031	0.000043	-42.834836	-84.357981	42.382692
51228	9.858994	-0.690054	0.719273	-0.004783	-0.027410	0.096526	1.000000	0.000005	0.000039	0.000034	-42.823221	-84.357290	42.367360
51229	9.855706	-0.672664	0.690736	0.023649	-0.010544	0.090033	1.000000	0.000055	0.000025	0.000047	-42.828049	-84.356776	42.375244
51230	9.898115	-0.676825	0.725288	-0.007870	-0.011443	0.135007	1.000000	0.000023	0.000015	0.000040	-42.839068	-84.357586	42.386457
51231	9.882966	-0.683799	0.743889	-0.027669	-0.019237	0.121739	1.000000	0.000037	0.000025	0.000035	-42.835602	-84.357917	42.383927
51232	9.894771	-0.660009	0.697112	0.019996	0.004694	0.128523	1.000000	0.000020	0.000030	0.000031	-42.827202	-84.358207	42.374167
51233	9.879619	-0.666927	0.715791	0.000199	-0.003096	0.115254	1.000000	0.000034	0.000019	0.000039	-42.831920	-84.358768	42.379518
51234	9.882697	-0.685925	0.745505	-0.029359	-0.021409	0.121730	1.000000	0.000037	0.000027	0.000053	-42.842235	-84.357530	42.391185
51235	9.888497	-0.682824	0.686713	0.029748	-0.018360	0.123055	1.000000	0.000019	0.000028	0.000042	-42.844275	-84.357136	42.392040
51236	9.870273	-0.655159	0.747480	-0.032150	0.008540	0.107451	1.000000	0.000023	0.000013	0.000022	-42.841031	-84.359465	42.387207
51237	9.879269	-0.669985	0.717776	-0.002043	-0.005999	0.115252	1.000000	0.000028	0.000030	0.000051	-42.848630	-84.358198	42.394755
51238	9.860932	-0.658899	0.707322	0.007172	0.003800	0.095509	1.000000	0.000029	0.000028	0.000033	-42.842028	-84.358488	42.388605
51239	9.894167	-0.665159	0.700791	0.016080	-0.000406	0.128531	1.000000	0.000037	0.000025	0.000035	-42.838571	-84.358818	42.386087
51240	9.866772	-0.639804	0.720395	-0.005381	0.023223	0.100987	1.000000	0.000026	0.000022	0.000037	-42.841244	-84.359376	42.388591
51241	9.869844	-0.658597	0.750113	-0.034947	0.004921	0.107444	1.000000	0.000037	0.000025	0.000035	-42.837789	-84.359706	42.386075
51242	9.899929	-0.646776	0.714310	0.002949	0.018288	0.134011	1.000000	0.000026	0.000022	0.000037	-42.840600	-84.360279	42.389306
51243	9.866522	-0.641838	0.722004	-0.007067	0.021052	0.100991	1.000000	0.000041	0.000035	0.000039	-42.831776	-84.359479	42.381874
51244	9.863292	-0.624492	0.693264	0.021379	0.037910	0.094545	1.000000	0.000020	0.000009	0.000044	-42.850998	-84.360470	42.398266
51245	9.884577	-0.655172	0.734167	-0.017971	0.009078	0.120726	1.000000	0.000011	0.000051	0.000027	-42.822984	-84.359332	42.368010
51246	9.893571	-0.669893	0.704679	0.012132	-0.005487	0.128535	1.000000	0.000041	0.000013	0.000034	-42.827270	-84.360790	42.373051
51247	9.884403	-0.656509	0.735313	-0.019081	0.007624	0.120725	1.000000	0.000020	0.000032	0.000049	-42.832124	-84.359493	42.376872
51248	9.878296	-0.677704	0.723891	-0.008201	-0.013978	0.115241	1.000000	0.000017	0.000024	0.000035	-42.830299	-84.359927	42.371962
51249	9.884226	-0.657983	0.736367	-0.020178	0.006168	0.120724	1.000000	0.000026	0.000022	0.000037	-42.832284	-84.360459	42.373598
51250	9.878123	-0.679070	0.724967	-0.009321	-0.015435	0.115238	1.000000	0.000013	0.000036	0.000036	-42.823249	-84.359827	42.364268
51251	9.884043	-0.659329	0.737625	-0.021297	0.004711	0.120722	1.000000	0.000029	0.000028	0.000033	-42.817052	-84.360129	42.358026
51252	9.911257	-0.686167	0.719043	-0.001011	-0.020405	0.148259	1.000000	0.000032	0.000017	0.000050	-42.833193	-84.360042	42.375484
51253	9.886924	-0.695430	0.696634	0.019635	-0.031465	0.123047	1.000000	0.000028	0.000046	0.000031	-42.810692	-84.358956	42.352714
51254	9.874630	-0.663809	0.698216	0.017445	-0.000775	0.108813	1.000000	0.000043	0.000017	0.000041	-42.818776	-84.359583	42.363805
51255	9.874542	-0.664565	0.698743	0.016886	-0.001502	0.108814	1.000000	0.000030	0.000032	0.000040	-42.815397	-84.358984	42.360532
51256	9.859342	-0.671573	0.717493	-0.002918	-0.009240	0.095508	1.000000	0.000027	0.000026	0.000044	-42.820959	-84.358673	42.367846
51257	9.913701	-0.651299	0.704802	0.013769	0.014385	0.147333	1.000000	0.000028	0.000024	0.000026	-42.811955	-84.359875	42.358648
51258	9.874277	-0.666753	0.700413	0.015183	-0.003676	0.108816	1.000000	0.000037	0.000027	0.000053	-42.822965	-84.358654	42.370762
51259	9.883301	-0.665298	0.742190	-0.025819	-0.001085	0.120713	1.000000	0.000046	0.000023	0.000038	-42.822294	-84.359008	42.372019
51260	9.874105	-0.668156	0.701488	0.014056	-0.005128	0.108817	1.000000	0.000019	0.000026	0.000024	-42.810988	-84.360212	42.360402
51261	9.880041	-0.648299	0.714183	0.002089	0.015019	0.114312	1.000000	0.000044	0.000041	0.000035	-42.794013	-84.359178	42.345130
51262	9.873918	-0.669417	0.702923	0.012917	-0.006576	0.108818	1.000000	0.000019	0.000028	0.000042	-42.797158	-84.358850	42.348839
51263	9.873823	-0.670217	0.703500	0.012358	-0.007303	0.108818	1.000000	0.000019	0.000028	0.000042	-42.799205	-84.358452	42.349706
51264	9.882836	-0.668728	0.745288	-0.028647	-0.004707	0.120704	1.000000	0.000027	0.000026	0.000044	-42.803980	-84.358085	42.354706
51265	9.891846	-0.683623	0.715621	0.001425	-0.019311	0.128525	1.000000	0.000025	0.000018	0.000030	-42.803161	-84.359516	42.353390
51266	9.870489	-0.654308	0.675751	0.039709	0.008066	0.102436	1.000000	0.000019	0.000028	0.000042	-42.805833	-84.359162	42.356284
51267	9.909854	-0.697051	0.727869	-0.009527	-0.031319	0.148226	1.000000	0.000031	0.000036	0.000048	-42.805279	-84.357660	42.355993
51268	9.864262	-0.659879	0.736470	-0.021108	0.002958	0.100993	1.000000	0.000038	0.000029	0.000043	-42.806231	-84.357175	42.360029
51269	9.879301	-0.654308	0.718913	-0.002442	0.009221	0.114319	1.000000	0.000019	0.000026	0.000024	-42.794476	-84.358349	42.347097
51270	9.873201	-0.675145	0.707496	0.008399	-0.012384	0.108817	1.000000	0.000039	0.000027	0.000025	-42.779991	-84.359371	42.335252
51271	9.882212	-0.673460	0.749294	-0.032609	-0.009779	0.120688	1.000000	0.000027	0.000026	0.000044	-42.784807	-84.359000	42.339875
51272	9.860873	-0.644250	0.709410	0.005716	0.017603	0.094623	1.000000	0.000034	0.000019	0.000039	-42.789426	-84.359494	42.342668
51273	9.863852	-0.663014	0.739150	-0.023892	-0.000663	0.100987	1.000000	0.000037	0.000025	0.000035	-42.786014	-84.359820	42.340202
51274	9.869810	-0.659814	0.680299	0.035197	0.002263	0.102456	1.000000	0.000017	0.000024	0.000035	-42.786648	-84.360395	42.340992
51275	9.878802	-0.658301	0.722117	-0.005812	0.004873	0.114321	1.000000	0.000048	0.000031	0.000052	-42.791639	-84.358946	42.348217
51276	9.863563	-0.665312	0.740943	-0.025564	-0.002831	0.100982	1.000000	0.000022	0.000034	0.000038	-42.784200	-84.358213	42.337316
51277	9.884643	-0.639450	0.735360	-0.018295	0.024293	0.119830	1.000000	0.000026	0.000022	0.000037	-42.786203	-84.358741	42.338975
51278	9.887617	-0.674850	0.693776	0.023160	-0.011215	0.122153	1.000000	0.000027	0.000026	0.000044	-42.791031	-84.358325	42.341806
51279	9.878431	-0.661374	0.724387	-0.008013	0.001969	0.114320	1.000000	0.000026	0.000022	0.000037	-42.793036	-84.358853	42.343467
51280	9.884384	-0.641733	0.736859	-0.019973	0.022133	0.119832	1.000000	0.000027	0.000026	0.000044	-42.798769	-84.358481	42.347887
51281	9.878248	-0.662967	0.725429	-0.009142	0.000528	0.114320	1.000000	0.000027	0.000026	0.000044	-42.803589	-84.358107	42.352516
51282	9.878150	-0.663760	0.726033	-0.009680	-0.000203	0.114319	1.000000	0.000030	0.000032	0.000040	-42.799194	-84.357433	42.346694
51283	9.899264	-0.637825	0.720286	-0.002405	0.026908	0.133183	1.000000	0.000020	0.000007	0.000026	-42.803754	-84.359993	42.350302
51284	9.871955	-0.685512	0.714882	0.000590	-0.022537	0.108803	1.000000	0.000028	0.000030	0.000051	-42.811278	-84.358718	42.358069
51285	9.841562	-0.642036	0.705246	0.008344	0.018757	0.074956	1.000000	0.000032	0.000034	0.000030	-42.796932	-84.358787	42.343993
51286	9.892960	-0.660296	0.710028	0.007305	0.003840	0.127671	1.000000	0.000029	0.000028	0.000033	-42.790679	-84.359086	42.338075
51287	9.859564	-0.655180	0.717545	-0.002621	0.006735	0.094638	1.000000	0.000026	0.000022	0.000037	-42.792689	-84.359614	42.339743
51288	9.862491	-0.673985	0.747335	-0.032256	-0.011506	0.100956	1.000000	0.000019	0.000028	0.000042	-42.794976	-84.359222	42.341047
51289	9.892706	-0.662500	0.711509	0.005622	0.001658	0.127673	1.000000	0.000031	0.000013	0.000043	-42.807942	-84.360005	42.354351
51290	9.907768	-0.657065	0.693985	0.024273	0.007874	0.141034	1.000000	0.000036	0.000044	0.000033	-42.788622	-84.358967	42.336498
51291	9.892509	-0.664032	0.712824	0.004495	0.000204	0.127673	1.000000	0.000025	0.000024	0.000055	-42.804438	-84.357920	42.351970
51292	9.840948	-0.647272	0.709020	0.004425	0.013692	0.074967	1.000000	0.000020	0.000009	0.000044	-42.823519	-84.358963	42.371809
51293	9.877202	-0.671738	0.731567	-0.015857	-0.008186	0.114308	1.000000	0.000023	0.000013	0.000022	-42.819918	-84.361293	42.367563
51294	9.886232	-0.686617	0.701914	0.014194	-0.022865	0.122150	1.000000	0.000019	0.000028	0.000042	-42.821090	-84.360839	42.366645
51295	9.892205	-0.666868	0.714397	0.002256	-0.002710	0.127674	1.000000	0.000036	0.000021	0.000028	-42.814897	-84.362065	42.361251
51296	9.858802	-0.661811	0.721921	-0.007646	0.000207	0.094637	1.000000	0.000028	0.000030	0.000051	-42.822152	-84.360784	42.369056
51297	9.925325	-0.674299	0.708568	0.010486	-0.007823	0.160710	1.000000	0.000019	0.000028	0.000042	-42.824203	-84.360382	42.369933
51298	9.858609	-0.663403	0.723100	-0.008760	-0.001234	0.094636	1.000000	0.000029	0.000028	0.000033	-42.818284	-84.360635	42.362005
51299	9.861512	-0.682138	0.752843	-0.038407	-0.019463	0.100922	1.000000	0.000023	0.000016	0.000040	-42.828487	-84.361390	42.371562
51300	9.882718	-0.672916	0.675869	0.039917	-0.009719	0.115860	1.000000	0.000032	0.000034	0.000030	-42.814825	-84.361460	42.357542
51301	9.852289	-0.685981	0.712666	0.000928	-0.024285	0.089104	1.000000	0.000022	0.000018	0.000059	-42.838828	-84.360639	42.380897
51302	9.891577	-0.672221	0.718058	-0.001650	-0.007791	0.127671	1.000000	0.000045	0.000019	0.000031	-42.834875	-84.361817	42.376553
51303	9.873361	-0.660908	0.707342	0.007671	0.002066	0.108014	1.000000	0.000026	0.000022	0.000037	-42.836901	-84.362342	42.378240
51304	9.897483	-0.653048	0.731041	-0.014141	0.011639	0.133202	1.000000	0.000032	0.000034	0.000030	-42.822636	-84.362426	42.365040
51305	9.888360	-0.656106	0.690424	0.025764	0.007522	0.121400	1.000000	0.000027	0.000026	0.000044	-42.827472	-84.362049	42.369689
51306	9.873100	-0.662974	0.709051	0.005987	-0.000109	0.108016	1.000000	0.000026	0.000022	0.000037	-42.829908	-84.362571	42.371453
51307	9.897208	-0.655126	0.732899	-0.015824	0.009463	0.133202	1.000000	0.000048	0.000047	0.000032	-42.804807	-84.361306	42.348378
51308	9.897122	-0.655705	0.733546	-0.016387	0.008732	0.133202	1.000000	0.000013	0.000014	0.000031	-42.809344	-84.362963	42.352564
51309	9.869879	-0.646934	0.681587	0.033411	0.015198	0.101759	1.000000	0.000028	0.000030	0.000051	-42.816994	-84.361684	42.360180
51310	9.890871	-0.677747	0.722581	-0.006154	-0.013614	0.127663	1.000000	0.000034	0.000019	0.000039	-42.822060	-84.362298	42.368265
51311	9.854535	-0.654494	0.700677	0.013074	0.006842	0.088370	1.000000	0.000036	0.000021	0.000028	-42.815888	-84.363522	42.362895
51312	9.878661	-0.646566	0.724340	-0.008719	0.016407	0.113556	1.000000	0.000020	0.000030	0.000031	-42.805917	-84.363722	42.350486
51313	9.872503	-0.667537	0.713059	0.002082	-0.005208	0.108016	1.000000	0.000032	0.000034	0.000030	-42.791581	-84.363788	42.336428
51314	9.872410	-0.668171	0.713763	0.001535	-0.005935	0.108015	1.000000	0.000022	0.000034	0.000038	-42.784908	-84.363107	42.327870
51315	9.887493	-0.662973	0.696243	0.020186	0.000227	0.121416	1.000000	0.000025	0.000024	0.000055	-42.800745	-84.362056	42.343367
51316	9.872203	-0.669976	0.714929	0.000425	-0.007396	0.108015	1.000000	0.000039	0.000029	0.000043	-42.799521	-84.361470	42.343858
51317	9.905431	-0.676452	0.708578	0.009170	-0.011834	0.141056	1.000000	0.000019	0.000026	0.000024	-42.787768	-84.362641	42.330939
51318	9.881041	-0.668838	0.757300	-0.041172	-0.005433	0.119789	1.000000	0.000027	0.000026	0.000044	-42.793185	-84.362275	42.336254
51319	9.887138	-0.665858	0.698541	0.017948	-0.002689	0.121420	1.000000	0.000040	0.000031	0.000032	-42.781651	-84.362367	42.325984
51320	9.868926	-0.654547	0.688081	0.027314	0.007180	0.101787	1.000000	0.000033	0.000038	0.000037	-42.769461	-84.361470	42.312745
51321	9.871745	-0.673242	0.718180	-0.002364	-0.011023	0.108011	1.000000	0.000033	0.000038	0.000037	-42.757955	-84.360632	42.301671
51322	9.886857	-0.667768	0.700690	0.016279	-0.004876	0.121422	1.000000	0.000036	0.000021	0.000028	-42.751917	-84.361878	42.297201
51323	9.853464	-0.662580	0.708098	0.006429	-0.001874	0.088379	1.000000	0.000036	0.000023	0.000046	-42.759560	-84.361525	42.305646
51324	9.871478	-0.675317	0.719899	-0.004047	-0.013202	0.108008	1.000000	0.000022	0.000034	0.000038	-42.753432	-84.360896	42.299038
51325	9.877459	-0.655662	0.732498	-0.015955	0.006963	0.113558	1.000000	0.000039	0.000029	0.000043	-42.752901	-84.360314	42.299618
51326	9.877355	-0.656558	0.733107	-0.016510	0.006240	0.113558	1.000000	0.000037	0.000027	0.000054	-42.763332	-84.359035	42.310304
51327	9.871173	-0.677781	0.721761	-0.005723	-0.015378	0.108004	1.000000	0.000029	0.000028	0.000033	-42.757192	-84.359328	42.304138
51328	9.852974	-0.666468	0.711260	0.003653	-0.005502	0.088379	1.000000	0.000025	0.000040	0.000035	-42.742268	-84.358431	42.288284
51329	9.889079	-0.691102	0.734358	-0.016757	-0.027441	0.127622	1.000000	0.000027	0.000026	0.000044	-42.747118	-84.358051	42.292953
51330	9.868003	-0.661795	0.694367	0.021741	-0.000090	0.101803	1.000000	0.000019	0.000026	0.000024	-42.735654	-84.359199	42.279519
51331	9.879928	-0.694904	0.694168	0.022594	-0.032319	0.115867	1.000000	0.000025	0.000024	0.000055	-42.751496	-84.358146	42.295024
51332	9.858711	-0.648830	0.725448	-0.009933	0.012504	0.093936	1.000000	0.000030	0.000026	0.000015	-42.732337	-84.360044	42.276378
51333	9.876730	-0.661303	0.737247	-0.020424	0.001170	0.113552	1.000000	0.000039	0.000029	0.000043	-42.731818	-84.359461	42.276972
51334	9.907071	-0.649976	0.701551	0.017419	0.014139	0.140413	1.000000	0.000034	0.000019	0.000039	-42.736828	-84.360031	42.283473
51335	9.858458	-0.650885	0.727040	-0.011610	0.010330	0.093936	1.000000	0.000027	0.000026	0.000044	-42.741684	-84.359650	42.288148
51336	9.900800	-0.672010	0.690654	0.027644	-0.008219	0.134855	1.000000	0.000027	0.000026	0.000044	-42.746078	-84.359256	42.292363
51337	9.876355	-0.664424	0.739465	-0.022658	-0.001737	0.113547	1.000000	0.000033	0.000038	0.000037	-42.734592	-84.358416	42.281314
51338	9.891483	-0.659079	0.721981	-0.004004	0.004377	0.126983	1.000000	0.000026	0.000022	0.000037	-42.736173	-84.358895	42.281663
51339	9.891405	-0.659810	0.722380	-0.004564	0.003649	0.126983	1.000000	0.000023	0.000016	0.000041	-42.746384	-84.359645	42.291233
51340	9.867136	-0.669050	0.699718	0.016155	-0.007362	0.101811	1.000000	0.000039	0.000029	0.000043	-42.745723	-84.359080	42.292532
51341	9.885121	-0.681764	0.711611	0.005649	-0.018705	0.121417	1.000000	0.000022	0.000034	0.000038	-42.739608	-84.358443	42.285561
51342	9.857824	-0.656017	0.731012	-0.015508	0.005249	0.093935	1.000000	0.000028	0.000024	0.000026	-42.731153	-84.359693	42.278511
51343	9.872959	-0.650643	0.713589	0.003134	0.011354	0.107379	1.000000	0.000034	0.000042	0.000044	-42.722493	-84.357950	42.270443
51344	9.888090	-0.645361	0.696191	0.021770	0.017455	0.120827	1.000000	0.000037	0.000025	0.000036	-42.719354	-84.358291	42.269080
51345	9.857539	-0.658153	0.732930	-0.017186	0.003076	0.093933	1.000000	0.000036	0.000023	0.000046	-42.727020	-84.357936	42.277553
51346	9.896861	-0.644420	0.738519	-0.019840	0.019446	0.132551	1.000000	0.000029	0.000028	0.000033	-42.721112	-84.358282	42.273434
51347	9.857369	-0.659582	0.733934	-0.018312	0.001623	0.093931	1.000000	0.000023	0.000016	0.000041	-42.731325	-84.359032	42.283008
51348	9.890596	-0.666186	0.727589	-0.009619	-0.002902	0.126980	1.000000	0.000032	0.000034	0.000030	-42.716703	-84.359036	42.267240
51349	9.863485	-0.657432	0.675756	0.040266	0.003539	0.095671	1.000000	0.000028	0.000030	0.000051	-42.724386	-84.357751	42.274899
51350	9.866231	-0.676163	0.705604	0.010551	-0.014630	0.101811	1.000000	0.000025	0.000018	0.000030	-42.723467	-84.359166	42.273381
51351	9.872257	-0.656438	0.717975	-0.001333	0.005542	0.107385	1.000000	0.000027	0.000026	0.000044	-42.728333	-84.358783	42.278069
51352	9.863229	-0.659725	0.677258	0.038626	0.001345	0.095678	1.000000	0.000027	0.000026	0.000044	-42.731645	-84.358300	42.279337
51353	9.856823	-0.664081	0.737206	-0.021615	-0.002726	0.093924	1.000000	0.000039	0.000029	0.000043	-42.731150	-84.357714	42.279960
51354	9.883931	-0.691192	0.719007	-0.001623	-0.028172	0.121396	1.000000	0.000018	0.000024	0.000035	-42.730275	-84.358200	42.277799
51355	9.883837	-0.691880	0.719634	-0.002185	-0.028899	0.121394	1.000000	0.000042	0.000035	0.000039	-42.721615	-84.357385	42.270567
51356	9.871784	-0.660215	0.721017	-0.004105	0.001903	0.107385	1.000000	0.000022	0.000034	0.000038	-42.716029	-84.356803	42.265697
51357	9.871688	-0.661048	0.721559	-0.004664	0.001177	0.107385	1.000000	0.000033	0.000017	0.000050	-42.731871	-84.356675	42.282040
51358	9.880732	-0.676351	0.692034	0.025297	-0.013646	0.115273	1.000000	0.000019	0.000028	0.000042	-42.733921	-84.356209	42.281418
51359	9.877610	-0.642241	0.734626	-0.017090	0.020632	0.112967	1.000000	0.000033	0.000038	0.000037	-42.722460	-84.355367	42.270401
51360	9.901912	-0.651421	0.687087	0.032050	0.012588	0.134328	1.000000	0.000023	0.000016	0.000041	-42.732719	-84.356152	42.281309
51361	9.859381	-0.631773	0.724410	-0.008230	0.029811	0.093389	1.000000	0.000039	0.000029	0.000043	-42.732234	-84.355564	42.281945
51362	9.874023	-0.682839	0.753693	-0.036630	-0.019882	0.113486	1.000000	0.000018	0.000024	0.000035	-42.731074	-84.356079	42.280495
51363	9.871139	-0.665652	0.724833	-0.008012	-0.003183	0.107383	1.000000	0.000036	0.000023	0.000046	-42.738756	-84.355720	42.288988
51364	9.886297	-0.660431	0.707427	0.010627	0.002868	0.120860	1.000000	0.000045	0.000041	0.000036	-42.721395	-84.354681	42.274002
51365	9.883422	-0.643229	0.678608	0.039247	0.019561	0.114767	1.000000	0.000020	0.000009	0.000044	-42.739777	-84.355657	42.291437
51366	9.910296	-0.653438	0.731583	-0.011795	0.011675	0.146022	1.000000	0.000041	0.000031	0.000032	-42.728367	-84.355755	42.281636
51367	9.886036	-0.662552	0.709085	0.008947	0.000684	0.120862	1.000000	0.000030	0.000032	0.000041	-42.725075	-84.355141	42.278481
51368	9.870680	-0.669205	0.727807	-0.010817	-0.006814	0.107378	1.000000	0.000029	0.000028	0.000033	-42.719765	-84.355464	42.273573
51369	9.843398	-0.643546	0.747144	-0.031880	0.017229	0.079914	1.000000	0.000020	0.000032	0.000049	-42.724638	-84.354149	42.277442
51370	9.897647	-0.697292	0.710500	0.008561	-0.033028	0.134839	1.000000	0.000026	0.000044	0.000042	-42.713788	-84.352357	42.265415
51371	9.885630	-0.665765	0.711738	0.006691	-0.002211	0.120864	1.000000	0.000013	0.000016	0.000049	-42.732165	-84.352402	42.282014
51372	9.870265	-0.672624	0.730277	-0.013067	-0.009700	0.107373	1.000000	0.000056	0.000025	0.000047	-42.737946	-84.351878	42.291024
51373	9.885443	-0.667338	0.712853	0.005563	-0.003659	0.120864	1.000000	0.000015	0.000038	0.000025	-42.718062	-84.351885	42.269462
51374	9.867326	-0.655942	0.702190	0.015002	0.006261	0.101303	1.000000	0.000026	0.000022	0.000037	-42.720456	-84.352413	42.271797
51375	9.869995	-0.674637	0.732068	-0.014750	-0.011873	0.107368	1.000000	0.000027	0.000026	0.000044	-42.725333	-84.352026	42.276503
51376	9.869904	-0.675361	0.732631	-0.015326	-0.012596	0.107367	1.000000	0.000029	0.000028	0.000033	-42.720068	-84.352376	42.272696
51377	9.891229	-0.649611	0.727014	-0.008000	0.014342	0.126462	1.000000	0.000029	0.000028	0.000033	-42.713975	-84.352664	42.266588
51378	9.885009	-0.670831	0.715592	0.002725	-0.007287	0.120863	1.000000	0.000041	0.000015	0.000052	-42.733454	-84.352620	42.288917
51379	9.891050	-0.651297	0.727942	-0.009135	0.012890	0.126463	1.000000	0.000019	0.000028	0.000042	-42.735514	-84.352206	42.289821
51380	9.860674	-0.680814	0.693400	0.022919	-0.019000	0.095708	1.000000	0.000036	0.000021	0.000028	-42.729170	-84.353434	42.284761
51381	9.882016	-0.654982	0.687783	0.030248	0.007928	0.114815	1.000000	0.000032	0.000034	0.000030	-42.714920	-84.353493	42.270808
51382	9.890806	-0.653081	0.729654	-0.010818	0.010718	0.126463	1.000000	0.000018	0.000024	0.000035	-42.715047	-84.353962	42.268684
51383	9.881854	-0.656243	0.688907	0.029123	0.006484	0.114819	1.000000	0.000038	0.000025	0.000036	-42.711779	-84.354275	42.266388
51384	9.884504	-0.674834	0.718799	-0.000645	-0.011632	0.120860	1.000000	0.000026	0.000022	0.000037	-42.714418	-84.354768	42.267861
51385	9.875265	-0.661100	0.749271	-0.031683	0.001806	0.112952	1.000000	0.000027	0.000026	0.000044	-42.719304	-84.354380	42.272578
51386	9.872454	-0.643970	0.720339	-0.003069	0.018493	0.106918	1.000000	0.000015	0.000018	0.000038	-42.728850	-84.355179	42.281709
51387	9.866224	-0.665121	0.709022	0.007666	-0.003139	0.101313	1.000000	0.000042	0.000035	0.000039	-42.720242	-84.354360	42.274539
51388	9.866132	-0.665825	0.709628	0.007138	-0.003871	0.101313	1.000000	0.000026	0.000022	0.000037	-42.720875	-84.354762	42.272642
51389	9.881337	-0.660618	0.692123	0.025763	0.002135	0.114831	1.000000	0.000022	0.000034	0.000038	-42.714779	-84.354119	42.265702
51390	9.905400	-0.652859	0.715953	0.003878	0.011659	0.139981	1.000000	0.000029	0.000028	0.000033	-42.709013	-84.354418	42.260134
51391	9.865859	-0.667895	0.711477	0.005457	-0.006047	0.101313	1.000000	0.000030	0.000032	0.000041	-42.705746	-84.353800	42.257009
51392	9.883775	-0.680632	0.723334	-0.005142	-0.017430	0.120850	1.000000	0.000034	0.000019	0.000039	-42.710970	-84.354353	42.263112
51393	9.889835	-0.661008	0.735651	-0.016989	0.002752	0.126460	1.000000	0.000016	0.000022	0.000046	-42.721194	-84.354166	42.271871
51394	9.865597	-0.670224	0.712920	0.003772	-0.008227	0.101312	1.000000	0.000026	0.000022	0.000037	-42.723187	-84.354711	42.274391
51395	9.865515	-0.670879	0.713442	0.003214	-0.008952	0.101311	1.000000	0.000029	0.000028	0.000033	-42.717108	-84.354997	42.268301
51396	9.865427	-0.671659	0.713926	0.002677	-0.009683	0.101311	1.000000	0.000033	0.000017	0.000050	-42.731910	-84.354785	42.282273
51397	9.895946	-0.660769	0.678181	0.040478	0.003021	0.128371	1.000000	0.000016	0.000022	0.000046	-42.742133	-84.354597	42.291033
51398	9.849939	-0.679229	0.732930	-0.017611	-0.017849	0.087778	1.000000	0.000038	0.000025	0.000036	-42.738414	-84.354867	42.287509
51399	9.898467	-0.680092	0.708611	0.010142	-0.015817	0.134370	1.000000	0.000018	0.000024	0.000035	-42.737667	-84.355355	42.285454
51400	9.873914	-0.672218	0.757147	-0.040057	-0.009045	0.112918	1.000000	0.000036	0.000023	0.000046	-42.745680	-84.354966	42.293666
51401	9.880288	-0.669672	0.698378	0.019071	-0.006601	0.114844	1.000000	0.000030	0.000032	0.000041	-42.742415	-84.354347	42.290546
51402	9.895513	-0.664566	0.680782	0.037701	-0.000622	0.128382	1.000000	0.000031	0.000013	0.000043	-42.755153	-84.355054	42.302411
51403	9.880124	-0.671241	0.699183	0.017963	-0.008054	0.114845	1.000000	0.000023	0.000016	0.000041	-42.765403	-84.355794	42.312029
51404	9.864728	-0.677783	0.717786	-0.001773	-0.015482	0.101304	1.000000	0.000032	0.000034	0.000030	-42.751039	-84.355845	42.297936
51405	9.895266	-0.666686	0.682297	0.036024	-0.002813	0.128388	1.000000	0.000039	0.000029	0.000043	-42.750609	-84.355252	42.298638
51406	9.852704	-0.646897	0.719613	-0.004115	0.014650	0.087406	1.000000	0.000029	0.000030	0.000051	-42.758698	-84.354005	42.307691
51407	9.897730	-0.686275	0.712927	0.005654	-0.021638	0.134363	1.000000	0.000038	0.000025	0.000036	-42.755464	-84.354316	42.305435
51408	9.852519	-0.648449	0.720741	-0.005231	0.013216	0.087408	1.000000	0.000027	0.000026	0.000044	-42.761060	-84.353879	42.309597
51409	9.885725	-0.655381	0.714605	0.003324	0.008506	0.120472	1.000000	0.000030	0.000032	0.000041	-42.757799	-84.353260	42.306484
51410	9.870295	-0.662097	0.733371	-0.016392	0.001092	0.106922	1.000000	0.000040	0.000033	0.000050	-42.759392	-84.351683	42.307972
51411	9.867559	-0.644854	0.704517	0.012294	0.017726	0.100962	1.000000	0.000027	0.000019	0.000019	-42.747716	-84.353776	42.295980
51412	9.891626	-0.637167	0.728117	-0.009603	0.027237	0.126103	1.000000	0.000022	0.000018	0.000059	-42.771793	-84.352946	42.319797
51413	9.861215	-0.666943	0.693597	0.022442	-0.004642	0.095336	1.000000	0.000022	0.000034	0.000038	-42.765696	-84.352301	42.312863
51414	9.851967	-0.653116	0.724074	-0.008546	0.008864	0.087411	1.000000	0.000043	0.000017	0.000042	-42.772891	-84.352844	42.321454
