// Start Time: Unknown
// Update Rate: 100.0Hz
// Filter Profile: human (46.1)
// Firmware Version: 4.4.0
PacketCounter	Acc_X	Acc_Y	Acc_Z	FreeAcc_X	FreeAcc_Y	FreeAcc_Z	OriInc_q0	OriInc_q1	OriInc_q2	OriInc_q3	Roll	Pitch	Yaw
20754	9.586685	-0.577536	-2.306862	0.000000	-0.000000	0.064544	1.000000	-0.000014	0.000017	0.000039	-165.953513	-76.068079	155.671295
20755	9.573850	-0.536724	-2.273272	-0.030520	0.035801	0.041866	1.000000	0.000001	0.000023	0.000022	-166.211441	-76.043884	156.006865
20756	9.607673	-0.556454	-2.289515	-0.025259	0.017517	0.079631	1.000000	-0.000033	0.000049	0.000047	-166.188973	-76.048028	155.979775
20757	9.574950	-0.560612	-2.314933	0.006616	0.006474	0.054064	1.000000	-0.000040	0.000050	0.000036	-166.171008	-76.052892	155.956040
20758	9.553504	-0.560630	-2.287246	-0.014345	0.009269	0.026771	1.000000	-0.000013	0.000032	0.000027	-166.156998	-76.055718	155.940096
20759	9.573651	-0.516163	-2.227010	-0.067537	0.065141	0.029670	1.000000	-0.000016	0.000042	0.000024	-166.143556	-76.059768	155.924397
20760	9.607919	-0.547153	-2.264689	-0.043736	0.032189	0.073533	1.000000	-0.000005	0.000047	0.000033	-166.123998	-76.064106	155.903660
20761	9.575192	-0.551320	-2.290154	-0.011870	0.021091	0.047965	1.000000	0.000002	0.000044	0.000035	-166.103716	-76.068376	155.882947
20762	9.574130	-0.517992	-2.224524	-0.067488	0.065096	0.029670	1.000000	-0.000002	0.000037	0.000036	-166.083643	-76.071516	155.862015
20763	9.574282	-0.518558	-2.223740	-0.067393	0.065000	0.029671	1.000000	-0.000005	0.000045	0.000025	-166.069273	-76.076582	155.846564
20764	9.605611	-0.501466	-2.286659	-0.009770	0.074900	0.073785	1.000000	-0.000012	0.000055	0.000049	-166.042757	-76.081348	155.817842
20765	9.595807	-0.508973	-2.227386	-0.064819	0.076675	0.050868	1.000000	-0.000010	0.000020	0.000021	-166.035142	-76.084246	155.808661
20766	9.605065	-0.479851	-2.242067	-0.046697	0.104037	0.061592	1.000000	-0.000040	0.000050	0.000036	-166.017830	-76.088811	155.786097
20767	9.604427	-0.457637	-2.197968	-0.083528	0.133018	0.049404	1.000000	-0.000016	0.000042	0.000024	-166.009612	-76.094980	155.775467
20768	9.607563	-0.506072	-2.171725	-0.117350	0.090166	0.049151	1.000000	-0.000043	0.000054	0.000008	-166.004971	-76.100747	155.765648
20769	9.617338	-0.487952	-2.207648	-0.080239	0.102282	0.065981	1.000000	-0.000025	0.000056	0.000019	-166.001328	-76.110137	155.758424
20770	9.595929	-0.487873	-2.179691	-0.101204	0.105080	0.038691	1.000000	-0.000036	0.000057	0.000035	-165.983212	-76.115456	155.735500
20771	9.616943	-0.466041	-2.162339	-0.116673	0.130820	0.053810	1.000000	-0.000036	0.000052	0.000018	-165.984450	-76.126109	155.731867
20772	9.586792	-0.506775	-2.140721	-0.137222	0.091591	0.021888	1.000000	-0.000025	0.000058	0.000028	-165.968407	-76.131747	155.712354
20773	9.606932	-0.462440	-2.080217	-0.189486	0.146419	0.024841	1.000000	0.000009	0.000038	0.000028	-165.964233	-76.142655	155.708254
20774	9.598333	-0.503622	-2.085843	-0.189069	0.104390	0.020203	1.000000	-0.000026	0.000035	0.000006	-165.960693	-76.146352	155.701517
20775	9.607611	-0.474434	-2.100502	-0.169532	0.130398	0.030972	1.000000	0.000005	0.000034	0.000038	-165.955027	-76.159768	155.695299
20776	9.574793	-0.478564	-2.126528	-0.137726	0.119357	0.005387	1.000000	0.000007	0.000003	0.000028	-165.941528	-76.159317	155.682169
20777	9.604727	-0.427377	-2.125487	-0.133880	0.171579	0.031284	1.000000	0.000003	-0.000004	0.000029	-165.947486	-76.171826	155.687523
20778	9.584250	-0.461478	-2.163755	-0.099229	0.130375	0.022240	1.000000	-0.000002	-0.000027	0.000033	-165.935754	-76.167913	155.675154
20779	9.593263	-0.432528	-2.179595	-0.079026	0.155724	0.033018	1.000000	0.000015	-0.000029	0.000028	-165.948635	-76.179698	155.688621
20780	9.593482	-0.444533	-2.201943	-0.060481	0.141051	0.039090	1.000000	0.000003	-0.000047	0.000039	-165.935936	-76.173400	155.675924
20781	9.593295	-0.445114	-2.202640	-0.058408	0.138685	0.039136	1.000000	-0.000009	-0.000025	0.000023	-165.961227	-76.186572	155.698929
20782	9.581869	-0.449408	-2.256659	-0.005628	0.124836	0.040793	1.000000	-0.000014	-0.000051	0.000019	-165.959914	-76.180402	155.695906
20783	9.603272	-0.450434	-2.284425	0.017506	0.119304	0.068091	1.000000	-0.000010	-0.000038	0.000044	-165.984089	-76.192770	155.717546
20784	9.573112	-0.502843	-2.286056	0.015470	0.065434	0.042203	1.000000	-0.000009	-0.000023	0.000031	-165.973553	-76.189297	155.705605
20785	9.582563	-0.485103	-2.323386	0.054122	0.075346	0.059007	1.000000	-0.000023	-0.000016	0.000028	-166.006925	-76.203715	155.734323
20786	9.561669	-0.507778	-2.339915	0.070219	0.048829	0.043845	1.000000	-0.000015	-0.000001	0.000034	-165.993213	-76.202636	155.718430
20787	9.594892	-0.516386	-2.335253	0.058240	0.042391	0.075529	1.000000	-0.000001	-0.000006	0.000047	-166.021817	-76.213887	155.744348
20788	9.561632	-0.509249	-2.339748	0.071470	0.046066	0.043850	1.000000	0.000005	0.000032	0.000029	-166.004352	-76.216589	155.726910
20789	9.582963	-0.499158	-2.344445	0.075180	0.054946	0.065070	1.000000	0.000001	0.000029	0.000048	-166.032514	-76.232193	155.754391
20790	9.573475	-0.518093	-2.306979	0.038488	0.042288	0.048283	1.000000	0.000012	0.000026	0.000023	-166.017954	-76.234442	155.740768
20791	9.552348	-0.529615	-2.301114	0.036976	0.027633	0.027071	1.000000	0.000022	0.000033	0.000041	-166.046802	-76.248792	155.770656
20792	9.586148	-0.549590	-2.317320	0.042301	0.009255	0.064781	1.000000	0.000015	0.000035	0.000030	-166.027380	-76.251788	155.752493
20793	9.573812	-0.520280	-2.305089	0.040271	0.036812	0.048297	1.000000	0.000011	0.000030	0.000040	-166.055004	-76.264795	155.779209
20794	9.564782	-0.550580	-2.288938	0.022127	0.009478	0.037533	1.000000	0.000010	0.000057	0.000033	-166.032400	-76.270184	155.757103
20795	9.573757	-0.510268	-2.281707	0.022356	0.048975	0.042285	1.000000	-0.000009	0.000039	0.000026	-166.067243	-76.283165	155.788729
20796	9.564331	-0.528944	-2.243920	-0.014339	0.036329	0.025496	1.000000	-0.000001	0.000052	0.000024	-166.050722	-76.288247	155.771643
20797	9.585754	-0.518616	-2.248282	-0.011102	0.045778	0.046734	1.000000	-0.000016	0.000044	0.000032	-166.077728	-76.302013	155.792903
20798	9.552646	-0.511271	-2.252219	0.002116	0.049495	0.015053	1.000000	-0.000016	0.000044	0.000032	-166.059725	-76.306052	155.772559
20799	9.573599	-0.489376	-2.235273	-0.013613	0.073493	0.030287	1.000000	-0.000016	0.000019	0.000002	-166.110931	-76.315961	155.822924
20800	9.574493	-0.512234	-2.278177	0.023489	0.044113	0.042306	1.000000	-0.000021	0.000019	0.000029	-166.098130	-76.317268	155.807360
20801	9.586166	-0.519928	-2.246218	-0.010298	0.040939	0.046756	1.000000	-0.000020	0.000015	0.000012	-166.141503	-76.326472	155.848167
20802	9.573779	-0.490090	-2.234345	-0.013179	0.071157	0.030305	1.000000	-0.000021	0.000017	0.000020	-166.132867	-76.327762	155.836885
20803	9.562607	-0.494332	-2.287425	0.039810	0.055074	0.031880	1.000000	-0.000018	0.000007	0.000023	-166.171768	-76.334274	155.872706
20804	9.550153	-0.464527	-2.275838	0.036924	0.085295	0.015436	1.000000	-0.000032	-0.000005	0.000014	-166.169536	-76.333269	155.866592
20805	9.595038	-0.480315	-2.239306	-0.010337	0.078385	0.051576	1.000000	0.000004	0.000017	0.000042	-166.198484	-76.340489	155.894894
20806	9.550590	-0.476905	-2.297143	0.055642	0.068285	0.021453	1.000000	-0.000018	0.000007	0.000023	-166.189404	-76.340541	155.883448
20807	9.593094	-0.455654	-2.307515	0.060928	0.089522	0.063950	1.000000	-0.000007	0.000010	0.000024	-166.226944	-76.348384	155.918131
20808	9.559866	-0.448166	-2.312042	0.074126	0.093278	0.032272	1.000000	-0.000003	0.000016	0.000023	-166.215122	-76.349525	155.905612
20809	9.581587	-0.449137	-2.338567	0.094977	0.088001	0.059530	1.000000	-0.000010	0.000022	0.000030	-166.255011	-76.355852	155.942281
20810	9.602514	-0.427522	-2.321718	0.078878	0.114469	0.074784	1.000000	-0.000006	0.000029	0.000029	-166.239545	-76.358182	155.925671
20811	9.571720	-0.457107	-2.279054	0.039153	0.087750	0.036761	1.000000	-0.000027	0.000024	0.000035	-166.281792	-76.362447	155.960766
20812	9.582289	-0.462077	-2.358700	0.112939	0.070969	0.065544	1.000000	0.000005	0.000032	0.000029	-166.264339	-76.365087	155.943343
20813	9.593651	-0.458795	-2.304573	0.059681	0.082443	0.064019	1.000000	-0.000019	0.000056	0.000038	-166.300869	-76.373405	155.973844
20814	9.593409	-0.448029	-2.282112	0.041117	0.097141	0.058034	1.000000	-0.000013	0.000032	0.000027	-166.286618	-76.376175	155.957652
20815	9.583887	-0.466783	-2.244532	0.004192	0.082051	0.041243	1.000000	-0.000037	0.000040	0.000039	-166.326619	-76.384252	155.993680
20816	9.593712	-0.449230	-2.280604	0.040873	0.094656	0.058059	1.000000	-0.000005	0.000049	0.000042	-166.302566	-76.388544	155.968350
20817	9.584689	-0.479527	-2.264225	0.022189	0.064976	0.047242	1.000000	-0.000004	0.000066	0.000038	-166.337126	-76.397581	155.999490
20818	9.596485	-0.487735	-2.231489	-0.012054	0.064127	0.051677	1.000000	0.000002	0.000046	0.000044	-166.311798	-76.401434	155.973634
20819	9.575412	-0.499272	-2.225295	-0.014982	0.050044	0.030432	1.000000	-0.000001	0.000054	0.000032	-166.348375	-76.409588	156.008308
20820	9.566335	-0.529795	-2.209007	-0.033135	0.022742	0.019583	1.000000	0.000002	0.000052	0.000069	-166.310507	-76.413449	155.969526
20821	9.586873	-0.497442	-2.170186	-0.068137	0.061719	0.028900	1.000000	0.000011	0.000030	0.000040	-166.340361	-76.418970	155.998104
20822	9.566597	-0.531782	-2.207393	-0.033508	0.020565	0.019587	1.000000	0.000006	0.000054	0.000051	-166.310072	-76.423584	155.967604
20823	9.599966	-0.540695	-2.201842	-0.046903	0.014637	0.051257	1.000000	-0.000003	0.000023	0.000049	-166.335161	-76.428864	155.991744
20824	9.588012	-0.522701	-2.211558	-0.031236	0.030191	0.040855	1.000000	-0.000007	0.000012	0.000032	-166.319870	-76.429251	155.975194
20825	9.620866	-0.519901	-2.184863	-0.062929	0.039101	0.066559	1.000000	-0.000014	0.000015	0.000031	-166.349464	-76.435232	156.003551
20826	9.597334	-0.494274	-2.226391	-0.013031	0.055510	0.051728	1.000000	-0.000011	0.000005	0.000033	-166.334912	-76.434873	155.987328
20827	9.609746	-0.524848	-2.237843	-0.010234	0.023359	0.068101	1.000000	-0.000007	0.000010	0.000024	-166.366991	-76.439359	156.019571
20828	9.566785	-0.535673	-2.205637	-0.033719	0.014599	0.019597	1.000000	-0.000022	0.000004	0.000041	-166.350264	-76.438677	155.999845
20829	9.600470	-0.555524	-2.222253	-0.028247	-0.005650	0.057227	1.000000	-0.000021	0.000019	0.000029	-166.374613	-76.444787	156.020574
20830	9.588514	-0.537065	-2.232124	-0.012581	0.009910	0.046833	1.000000	-0.000028	0.000002	0.000013	-166.371668	-76.444547	156.014259
20831	9.597429	-0.496474	-2.225491	-0.012583	0.050365	0.051756	1.000000	-0.000023	0.000029	0.000026	-166.389901	-76.452940	156.027848
20832	9.597515	-0.496849	-2.225039	-0.012588	0.050361	0.051756	1.000000	-0.000010	0.000020	0.000021	-166.379246	-76.454567	156.015801
20833	9.588278	-0.526784	-2.209436	-0.030879	0.021591	0.040878	1.000000	-0.000003	0.000016	0.000023	-166.402355	-76.458444	156.035770
20834	9.576761	-0.519760	-2.240864	0.003344	0.022444	0.036447	1.000000	-0.000007	0.000010	0.000024	-166.391199	-76.458861	156.023517
20835	9.610055	-0.528160	-2.235733	-0.010427	0.017260	0.068113	1.000000	0.000001	0.000023	0.000022	-166.414336	-76.460993	156.042399
20836	9.585728	-0.479792	-2.233901	0.002365	0.063103	0.041383	1.000000	-0.000000	0.000006	0.000026	-166.401969	-76.460924	156.029623
20837	9.543175	-0.501798	-2.223391	-0.002748	0.038180	-0.001164	1.000000	0.000007	0.000001	0.000019	-166.428228	-76.462979	156.064373
20838	9.586155	-0.491987	-2.255328	0.020697	0.046898	0.047348	1.000000	0.000004	0.000013	0.000025	-166.415249	-76.463626	156.051503
20839	9.585773	-0.480972	-2.233455	0.002087	0.060281	0.041401	1.000000	-0.000003	0.000012	0.000006	-166.442250	-76.467651	156.079029
20840	9.595945	-0.474460	-2.291815	0.057302	0.058144	0.064206	1.000000	0.000006	0.000005	0.000036	-166.424589	-76.467094	156.061673
20841	9.595518	-0.463677	-2.270092	0.038619	0.071493	0.058263	1.000000	-0.000000	0.000004	0.000017	-166.448413	-76.469644	156.089193
20842	9.595962	-0.475329	-2.291563	0.057143	0.056780	0.064215	1.000000	-0.000014	0.000013	0.000022	-166.438764	-76.470384	156.077736
20843	9.571641	-0.426969	-2.289782	0.070270	0.101300	0.037517	1.000000	-0.000007	0.000012	0.000032	-166.450374	-76.475839	156.091592
20844	9.583217	-0.434898	-2.257874	0.036013	0.100423	0.041946	1.000000	-0.000014	0.000013	0.000022	-166.440710	-76.476609	156.080186
20845	9.583655	-0.446746	-2.279336	0.054192	0.084411	0.047908	1.000000	0.000006	0.000005	0.000036	-166.456122	-76.477232	156.094874
20846	9.562426	-0.458156	-2.273784	0.051708	0.072700	0.026623	1.000000	-0.000024	0.000031	0.000034	-166.439854	-76.479628	156.075510
20847	9.584205	-0.459228	-2.300204	0.072104	0.068289	0.053870	1.000000	-0.000014	0.000015	0.000031	-166.463917	-76.480593	156.103113
20848	9.562567	-0.459328	-2.272956	0.051057	0.071287	0.026637	1.000000	0.000001	0.000027	0.000039	-166.443258	-76.482389	156.082140
20849	9.563063	-0.471467	-2.294115	0.069217	0.055235	0.032595	1.000000	-0.000003	0.000023	0.000049	-166.453344	-76.484699	156.095290
20850	9.575082	-0.491037	-2.283631	0.053505	0.039641	0.042963	1.000000	-0.000010	0.000024	0.000038	-166.434705	-76.486165	156.075148
20851	9.584080	-0.450880	-2.276734	0.052189	0.080373	0.047952	1.000000	-0.000006	0.000031	0.000037	-166.452288	-76.486847	156.092519
20852	9.587628	-0.522551	-2.294186	0.055466	0.008081	0.059284	1.000000	0.000008	0.000024	0.000041	-166.430470	-76.488146	156.071143
20853	9.563355	-0.474568	-2.292259	0.067792	0.052697	0.032618	1.000000	-0.000007	0.000016	0.000050	-166.440123	-76.489182	156.083524
20854	9.575339	-0.494323	-2.281844	0.052071	0.037097	0.042981	1.000000	0.000014	0.000022	0.000051	-166.412888	-76.490037	156.057402
20855	9.565614	-0.513334	-2.244598	0.015509	0.023338	0.026110	1.000000	-0.000014	0.000015	0.000031	-166.424266	-76.494378	156.065698
20856	9.554165	-0.506468	-2.275848	0.049699	0.024213	0.021692	1.000000	-0.000006	0.000031	0.000037	-166.404921	-76.496593	156.045347
20857	9.587906	-0.526480	-2.292125	0.054590	0.004455	0.059291	1.000000	-0.000010	0.000024	0.000038	-166.416381	-76.498620	156.057832
20858	9.587128	-0.504556	-2.248404	0.017428	0.033855	0.047408	1.000000	-0.000010	0.000024	0.000038	-166.397792	-76.500079	156.037823
20859	9.553984	-0.497133	-2.252755	0.029688	0.036646	0.015763	1.000000	-0.000006	0.000029	0.000029	-166.417360	-76.499959	156.061813
20860	9.597516	-0.498729	-2.305918	0.071642	0.030599	0.070239	1.000000	-0.000017	0.000025	0.000028	-166.404332	-76.501813	156.046766
20861	9.554581	-0.509494	-2.273426	0.046702	0.020914	0.021714	1.000000	-0.000010	0.000024	0.000038	-166.423613	-76.497822	156.065754
20862	9.587452	-0.506745	-2.246529	0.014840	0.031691	0.047419	1.000000	-0.000010	0.000020	0.000021	-166.413681	-76.499152	156.054679
20863	9.587971	-0.518620	-2.267639	0.033035	0.016048	0.053365	1.000000	-0.000013	0.000036	0.000044	-166.415771	-76.502288	156.054833
20864	9.554850	-0.511364	-2.271877	0.046209	0.019954	0.021719	1.000000	-0.000017	0.000030	0.000045	-166.394441	-76.504079	156.031204
20865	9.588162	-0.520106	-2.266491	0.032271	0.014982	0.053370	1.000000	-0.000017	0.000028	0.000036	-166.407711	-76.504956	156.054014
20866	9.566551	-0.520085	-2.239044	0.011209	0.017987	0.026127	1.000000	-0.000009	0.000039	0.000026	-166.393418	-76.508233	156.038680
20867	9.566664	-0.520524	-2.238460	0.010029	0.017087	0.026130	1.000000	0.000001	0.000023	0.000022	-166.413186	-76.505993	156.060400
20868	9.609749	-0.510785	-2.270146	0.033370	0.025729	0.074677	1.000000	-0.000025	0.000012	0.000030	-166.401977	-76.506195	156.046388
20869	9.554845	-0.502747	-2.247852	0.024791	0.031814	0.015793	1.000000	-0.000010	0.000024	0.000038	-166.410946	-76.505475	156.058738
20870	9.587699	-0.499907	-2.220996	-0.007102	0.042563	0.041491	1.000000	-0.000020	0.000015	0.000012	-166.407487	-76.506400	156.053214
20871	9.587792	-0.500168	-2.220534	-0.008413	0.041673	0.041494	1.000000	-0.000019	0.000036	0.000025	-166.427763	-76.504784	156.077883
20872	9.555121	-0.503801	-2.246442	0.023306	0.030898	0.015799	1.000000	-0.000023	0.000029	0.000026	-166.416554	-76.506849	156.064087
20873	9.588434	-0.512199	-2.241095	0.008480	0.026077	0.047443	1.000000	-0.000017	0.000023	0.000019	-166.443161	-76.502580	156.097082
20874	9.585980	-0.464202	-2.266034	0.042114	0.068966	0.048087	1.000000	-0.000014	0.000013	0.000022	-166.434595	-76.502922	156.087191
20875	9.576230	-0.482761	-2.228766	0.004422	0.055600	0.031170	1.000000	-0.000013	0.000030	0.000018	-166.452350	-76.502001	156.105829
20876	9.585731	-0.453607	-2.243474	0.022378	0.082873	0.042149	1.000000	-0.000017	0.000025	0.000028	-166.440164	-76.503502	156.091868
20877	9.564893	-0.476224	-2.259652	0.037418	0.055656	0.026799	1.000000	0.000006	0.000005	0.000036	-166.453019	-76.499160	156.115601
20878	9.597700	-0.473585	-2.232917	0.005458	0.066373	0.052484	1.000000	-0.000021	0.000019	0.000029	-166.441698	-76.499860	156.102107
20879	9.597329	-0.462848	-2.210895	-0.014326	0.080263	0.046540	1.000000	0.000008	0.000022	0.000032	-166.453845	-76.496795	156.117183
20880	9.564636	-0.466694	-2.236896	0.017369	0.069510	0.020859	1.000000	0.000005	0.000032	0.000030	-166.437910	-76.498826	156.101948
20881	9.564734	-0.467281	-2.236353	0.016056	0.068588	0.020868	1.000000	0.000001	0.000025	0.000031	-166.455258	-76.496015	156.132670
20882	9.576693	-0.486784	-2.225897	0.000242	0.052936	0.031186	1.000000	0.000004	0.000017	0.000042	-166.435520	-76.496038	156.113458
20883	9.565268	-0.480113	-2.257242	0.032790	0.053155	0.026830	1.000000	-0.000014	0.000020	0.000048	-166.446532	-76.489528	156.113876
20884	9.598539	-0.488979	-2.251935	0.019348	0.049171	0.058456	1.000000	0.000018	0.000025	0.000033	-166.428407	-76.490525	156.098004
20885	9.555949	-0.510961	-2.241297	0.013547	0.025023	0.015835	1.000000	-0.000018	0.000007	0.000023	-166.448027	-76.487164	156.124695
20886	9.598635	-0.490111	-2.251282	0.018147	0.048331	0.058463	1.000000	0.000012	0.000030	0.000040	-166.427043	-76.488569	156.105100
20887	9.565061	-0.471484	-2.234072	0.011343	0.066169	0.020891	1.000000	-0.000014	0.000018	0.000039	-166.442391	-76.483341	156.124786
20888	9.586852	-0.472733	-2.260572	0.032111	0.063129	0.048164	1.000000	0.000004	0.000015	0.000033	-166.427257	-76.483158	156.110311
20889	9.599202	-0.503457	-2.271903	0.034291	0.032056	0.064432	1.000000	-0.000007	0.000012	0.000032	-166.436257	-76.481502	156.120488
20890	9.566033	-0.496035	-2.276485	0.047381	0.036010	0.032813	1.000000	-0.000003	0.000021	0.000040	-166.418222	-76.481743	156.102229
20891	9.586945	-0.474700	-2.259767	0.028433	0.061462	0.048186	1.000000	-0.000011	0.000005	0.000033	-166.451642	-76.468870	156.146990
20892	9.577533	-0.504761	-2.244314	0.010178	0.034134	0.037165	1.000000	0.000008	0.000019	0.000024	-166.440361	-76.469269	156.137033
20893	9.566148	-0.498131	-2.275545	0.044136	0.034258	0.032834	1.000000	0.000025	0.000027	0.000061	-166.428548	-76.471274	156.145513
20894	9.566196	-0.499016	-2.275146	0.043915	0.034231	0.032835	1.000000	0.000004	0.000013	0.000025	-166.418058	-76.470933	156.136014
20895	9.576131	-0.481614	-2.311608	0.079318	0.046164	0.049835	1.000000	0.000007	0.000028	0.000058	-166.415407	-76.467709	156.134596
20896	9.588539	-0.512624	-2.322581	0.082011	0.015817	0.066091	1.000000	0.000016	0.000035	0.000030	-166.398585	-76.469588	156.119976
20897	9.610906	-0.525222	-2.370158	0.120595	-0.002590	0.099350	1.000000	0.000017	0.000053	0.000035	-166.400524	-76.471291	156.127476
20898	9.588929	-0.514050	-2.320652	0.080835	0.015062	0.066102	1.000000	0.000010	0.000057	0.000033	-166.380588	-76.475536	156.109027
20899	9.600598	-0.522302	-2.287801	0.045065	0.013412	0.070434	1.000000	0.000003	0.000062	0.000040	-166.385256	-76.474812	156.117198
20900	9.588579	-0.493106	-2.274823	0.041891	0.043706	0.054184	1.000000	0.000050	0.000081	0.000043	-166.353740	-76.481448	156.091564
20901	9.567064	-0.493367	-2.246748	0.020255	0.046156	0.026899	1.000000	0.000006	0.000050	0.000034	-166.351357	-76.483678	156.084100
20902	9.543610	-0.456239	-2.265656	0.051326	0.077438	0.006335	1.000000	-0.000002	0.000078	0.000017	-166.337965	-76.490679	156.070908
20903	9.579447	-0.513270	-2.234193	0.003826	0.029968	0.037183	1.000000	0.000006	0.000052	0.000043	-166.328176	-76.493746	156.053348
20904	9.555947	-0.476419	-2.253268	0.034902	0.061250	0.016623	1.000000	-0.000008	0.000059	0.000039	-166.307302	-76.498044	156.031763
20905	9.567556	-0.484685	-2.220525	-0.000737	0.059713	0.020939	1.000000	-0.000005	0.000049	0.000042	-166.309653	-76.496200	156.029187
20906	9.589951	-0.497415	-2.268091	0.038509	0.041995	0.054206	1.000000	-0.000002	0.000039	0.000045	-166.287848	-76.498051	156.007255
20907	9.567832	-0.486302	-2.218980	-0.002245	0.059015	0.020943	1.000000	0.000005	0.000034	0.000038	-166.293841	-76.495692	156.018425
20908	9.589282	-0.476339	-2.223500	-0.000168	0.070637	0.042270	1.000000	-0.000006	0.000031	0.000037	-166.277106	-76.496745	156.001288
20909	9.556621	-0.480367	-2.249570	0.030019	0.059345	0.016651	1.000000	0.000014	0.000022	0.000051	-166.280999	-76.490150	156.010171
20910	9.599398	-0.459760	-2.259315	0.034414	0.082615	0.059309	1.000000	-0.000013	0.000032	0.000027	-166.269861	-76.491575	155.998006
20911	9.579053	-0.493775	-2.296889	0.067969	0.041053	0.049942	1.000000	-0.000010	0.000028	0.000055	-166.268075	-76.487792	155.989294
20912	9.578697	-0.483359	-2.274661	0.049104	0.055696	0.043967	1.000000	0.000005	0.000034	0.000038	-166.249551	-76.489044	155.971556
20913	9.590194	-0.491721	-2.242274	0.012939	0.054020	0.048262	1.000000	0.000005	0.000036	0.000047	-166.258418	-76.483181	155.991287
20914	9.590308	-0.492557	-2.241604	0.012637	0.053992	0.048262	1.000000	0.000005	0.000034	0.000038	-166.240068	-76.484358	155.973764
20915	9.600415	-0.475195	-2.277711	0.048189	0.065945	0.065322	1.000000	0.000009	0.000042	0.000046	-166.239228	-76.484137	155.986856
20916	9.579225	-0.486783	-2.271702	0.045560	0.054271	0.043992	1.000000	0.000013	0.000049	0.000045	-166.215238	-76.486799	155.964518
20917	9.579407	-0.487797	-2.270717	0.043833	0.053613	0.044003	1.000000	-0.000005	0.000054	0.000059	-166.214937	-76.483525	155.969982
20918	9.591417	-0.507528	-2.259636	0.027851	0.037911	0.054258	1.000000	0.000006	0.000050	0.000034	-166.196535	-76.486565	155.952630
20919	9.568005	-0.470551	-2.278711	0.058205	0.068743	0.033761	1.000000	0.000014	0.000063	0.000033	-166.194092	-76.488666	155.940861
20920	9.570042	-0.508260	-2.230686	0.005654	0.040393	0.026943	1.000000	0.000006	0.000050	0.000034	-166.175699	-76.491678	155.923465
20921	9.612930	-0.487743	-2.240018	0.010489	0.063106	0.069615	1.000000	0.000009	0.000042	0.000046	-166.159414	-76.497633	155.908069
20922	9.570359	-0.509862	-2.228963	0.005546	0.039794	0.026946	1.000000	0.000002	0.000044	0.000035	-166.141691	-76.499930	155.890895
20923	9.591873	-0.500007	-2.233243	0.006205	0.050843	0.048285	1.000000	0.000009	0.000042	0.000046	-166.144971	-76.495965	155.895285
20924	9.603836	-0.519761	-2.222263	-0.009789	0.035140	0.058530	1.000000	0.000013	0.000049	0.000045	-166.121143	-76.498511	155.873085
20925	9.592641	-0.513081	-2.253175	0.022098	0.035592	0.054281	1.000000	-0.000013	0.000036	0.000044	-166.134956	-76.490057	155.883914
20926	9.603169	-0.498746	-2.177478	-0.049656	0.063871	0.046545	1.000000	-0.000002	0.000037	0.000036	-166.118293	-76.491442	155.867333
20927	9.582369	-0.521502	-2.193372	-0.034434	0.037044	0.031198	1.000000	0.000001	0.000029	0.000048	-166.115496	-76.489011	155.866015
20928	9.603802	-0.511693	-2.197998	-0.032485	0.048651	0.052535	1.000000	-0.000003	0.000021	0.000040	-166.099159	-76.488418	155.849597
20929	9.593015	-0.516181	-2.250878	0.018299	0.034415	0.054293	1.000000	-0.000006	0.000031	0.000037	-166.113453	-76.481323	155.869332
20930	9.604433	-0.524458	-2.218577	-0.016316	0.033364	0.058528	1.000000	-0.000017	0.000030	0.000045	-166.095564	-76.481536	155.849724
20931	9.561288	-0.535146	-2.186278	-0.041205	0.024136	0.009845	1.000000	-0.000021	0.000021	0.000037	-166.109770	-76.475076	155.868412
20932	9.583143	-0.536299	-2.212829	-0.020713	0.021085	0.037185	1.000000	-0.000022	0.000000	0.000024	-166.105699	-76.472530	155.862458
20933	9.594969	-0.555604	-2.202455	-0.037529	0.004910	0.047409	1.000000	-0.000023	0.000031	0.000034	-166.111831	-76.470111	155.861946
20934	9.571456	-0.518486	-2.222252	-0.006568	0.036241	0.026959	1.000000	-0.000007	0.000012	0.000032	-166.100844	-76.468593	155.850582
20935	9.605120	-0.538520	-2.238604	-0.002591	0.017112	0.064528	1.000000	-0.000021	0.000019	0.000029	-166.109794	-76.464456	155.851856
20936	9.583336	-0.538350	-2.211497	-0.023839	0.020105	0.037180	1.000000	-0.000010	0.000022	0.000030	-166.099334	-76.464095	155.840655
20937	9.583392	-0.538908	-2.211116	-0.024478	0.019640	0.037180	1.000000	-0.000003	0.000018	0.000032	-166.100109	-76.462988	155.837407
20938	9.626667	-0.529531	-2.242582	-0.001738	0.028216	0.085873	1.000000	-0.000003	0.000018	0.000032	-166.088425	-76.462174	155.825729
20939	9.583986	-0.551140	-2.231982	-0.005206	0.004558	0.043186	1.000000	0.000005	0.000025	0.000004	-166.080882	-76.471649	155.815988
20940	9.581891	-0.503150	-2.256847	0.028049	0.047522	0.044092	1.000000	-0.000003	0.000018	0.000032	-166.069029	-76.470909	155.804097
20941	9.605063	-0.530196	-2.214480	-0.022079	0.030374	0.058526	1.000000	-0.000002	0.000037	0.000036	-166.060284	-76.474060	155.792619
20942	9.592898	-0.500472	-2.202501	-0.025355	0.060684	0.042304	1.000000	0.000004	0.000009	0.000008	-166.059782	-76.472896	155.793219
20943	9.568937	-0.451763	-2.200759	-0.012978	0.106173	0.015870	1.000000	0.000001	0.000023	0.000022	-166.062899	-76.474066	155.803602
20944	9.569950	-0.474818	-2.243624	0.023805	0.076829	0.027880	1.000000	0.000008	0.000019	0.000024	-166.053237	-76.473656	155.795264
20945	9.569544	-0.464011	-2.221608	0.004731	0.090970	0.021880	1.000000	0.000008	0.000019	0.000024	-166.055877	-76.473754	155.798653
20946	9.570072	-0.475768	-2.242901	0.022934	0.076283	0.027887	1.000000	-0.000003	0.000016	0.000023	-166.048251	-76.473030	155.791163
20947	9.591495	-0.465652	-2.247717	0.024453	0.087486	0.049239	1.000000	-0.000007	0.000012	0.000032	-166.050020	-76.470410	155.785049
20948	9.591056	-0.454830	-2.225846	0.005497	0.102115	0.043232	1.000000	-0.000014	0.000013	0.000022	-166.044425	-76.469359	155.778347
20949	9.580312	-0.458978	-2.278800	0.057600	0.088058	0.045046	1.000000	-0.000013	0.000032	0.000027	-166.046818	-76.469294	155.775544
20950	9.592143	-0.478408	-2.268299	0.041539	0.072345	0.055256	1.000000	-0.000018	0.000011	0.000040	-166.033596	-76.467469	155.760465
20951	9.613118	-0.457181	-2.251350	0.025276	0.097993	0.070601	1.000000	-0.000006	0.000031	0.000037	-166.027382	-76.471716	155.762025
20952	9.570883	-0.490403	-2.262380	0.038944	0.060056	0.033913	1.000000	-0.000014	0.000018	0.000039	-166.013386	-76.470670	155.746683
20953	9.570918	-0.491140	-2.262071	0.039170	0.059671	0.033915	1.000000	-0.000025	0.000017	0.000047	-165.998926	-76.473296	155.718275
20954	9.581782	-0.488149	-2.208318	-0.014032	0.073275	0.032105	1.000000	-0.000010	0.000024	0.000038	-165.984070	-76.473030	155.702457
20955	9.571506	-0.503906	-2.282899	0.055639	0.044433	0.039937	1.000000	-0.000021	0.000023	0.000046	-165.992948	-76.466434	155.713351
20956	9.582836	-0.512214	-2.250785	0.021002	0.043373	0.044129	1.000000	-0.000014	0.000018	0.000039	-165.978998	-76.465359	155.698008
20957	9.604244	-0.502311	-2.255644	0.022670	0.054415	0.065484	1.000000	0.000006	0.000005	0.000036	-165.980139	-76.463186	155.705603
20958	9.583359	-0.524987	-2.271868	0.038606	0.028106	0.050146	1.000000	0.000012	0.000030	0.000040	-165.961428	-76.463479	155.688397
20959	9.572847	-0.532383	-2.212955	-0.018819	0.029532	0.026966	1.000000	-0.000010	0.000018	0.000012	-165.991681	-76.454027	155.722464
20960	9.594278	-0.522121	-2.217799	-0.016966	0.041119	0.048318	1.000000	-0.000000	0.000006	0.000026	-165.983884	-76.451989	155.715118
20961	9.561607	-0.525644	-2.244352	0.014367	0.030022	0.022791	1.000000	-0.000000	0.000006	0.000026	-165.989907	-76.449631	155.721604
20962	9.583007	-0.515533	-2.249300	0.016216	0.041608	0.044145	1.000000	-0.000000	0.000006	0.000026	-165.982144	-76.447585	155.714301
20963	9.604417	-0.505390	-2.254216	0.016170	0.052617	0.065507	1.000000	-0.000007	0.000010	0.000024	-166.008054	-76.437347	155.752159
20964	9.582075	-0.493800	-2.205786	-0.023644	0.070260	0.032108	1.000000	-0.000022	0.000000	0.000024	-166.004500	-76.434609	155.746701
20965	9.582056	-0.494179	-2.205784	-0.025869	0.069831	0.032106	1.000000	0.000007	0.000001	0.000019	-166.027493	-76.423277	155.764674
20966	9.571265	-0.498500	-2.258992	0.026540	0.056194	0.033977	1.000000	0.000004	0.000017	0.000042	-166.010907	-76.421827	155.748762
20967	9.571691	-0.510285	-2.280705	0.044191	0.040946	0.040010	1.000000	-0.000016	-0.000024	0.000012	-166.032915	-76.415390	155.781610
20968	9.571142	-0.499288	-2.259341	0.025179	0.055556	0.033984	1.000000	-0.000015	-0.000003	0.000026	-166.028334	-76.412117	155.775910
20969	9.582371	-0.507298	-2.227676	-0.010519	0.054015	0.038135	1.000000	-0.000015	-0.000003	0.000026	-166.044129	-76.404542	155.791054
20970	9.571505	-0.511398	-2.281235	0.041881	0.040393	0.040022	1.000000	-0.000030	-0.000013	0.000026	-166.042410	-76.400168	155.786554
20971	9.538264	-0.503541	-2.286602	0.054752	0.043954	0.008496	1.000000	-0.000016	-0.000020	0.000030	-166.050920	-76.395293	155.794684
20972	9.571318	-0.512181	-2.281845	0.040851	0.039826	0.040029	1.000000	-0.000043	-0.000006	0.000022	-166.051705	-76.391804	155.791189
20973	9.570786	-0.501253	-2.260412	0.021211	0.053944	0.034003	1.000000	-0.000012	-0.000013	0.000029	-166.064130	-76.385195	155.810765
20974	9.571170	-0.512849	-2.282317	0.039348	0.039265	0.040037	1.000000	-0.000036	-0.000011	0.000015	-166.067915	-76.381245	155.811182
20975	9.592981	-0.513818	-2.309194	0.059543	0.035616	0.067437	1.000000	-0.000015	-0.000003	0.000026	-166.078546	-76.378580	155.837721
20976	9.571528	-0.524802	-2.304239	0.056888	0.023964	0.046079	1.000000	-0.000026	-0.000006	0.000025	-166.076196	-76.374938	155.833149
20977	9.582301	-0.521395	-2.250958	0.004061	0.037075	0.044176	1.000000	-0.000022	-0.000002	0.000015	-166.081606	-76.375489	155.832695
20978	9.592886	-0.514763	-2.309379	0.058674	0.035090	0.067444	1.000000	-0.000018	0.000007	0.000023	-166.077685	-76.373374	155.827441
20979	9.559751	-0.506710	-2.314347	0.071760	0.038695	0.035924	1.000000	-0.000028	0.000002	0.000013	-166.089658	-76.372343	155.832864
20980	9.581181	-0.496314	-2.319274	0.073526	0.050265	0.057290	1.000000	-0.000003	0.000014	0.000014	-166.087151	-76.371299	155.830827
20981	9.559804	-0.507213	-2.314018	0.070350	0.038121	0.035936	1.000000	-0.000018	0.000007	0.000023	-166.100027	-76.367621	155.853658
20982	9.579867	-0.463029	-2.253951	0.016346	0.093588	0.039192	1.000000	-0.000020	0.000015	0.000012	-166.100819	-76.366698	155.852985
20983	9.558957	-0.485255	-2.270293	0.031974	0.066810	0.023871	1.000000	-0.000007	0.000012	0.000033	-166.105133	-76.364451	155.865614
20984	9.601856	-0.464490	-2.279993	0.035921	0.089985	0.066603	1.000000	-0.000019	0.000033	0.000016	-166.101495	-76.365471	155.860550
20985	9.568334	-0.445269	-2.263001	0.029714	0.108217	0.029053	1.000000	-0.000000	0.000006	0.000026	-166.111590	-76.360938	155.877646
20986	9.580094	-0.464585	-2.252665	0.013591	0.092446	0.039207	1.000000	-0.000010	0.000020	0.000021	-166.106303	-76.360298	155.872021
20987	9.601541	-0.454264	-2.257517	0.015890	0.103448	0.060579	1.000000	-0.000000	0.000002	0.000009	-166.114536	-76.362433	155.889368
20988	9.568865	-0.457447	-2.284170	0.047518	0.092902	0.035103	1.000000	-0.000011	0.000001	0.000016	-166.113705	-76.359874	155.888242
20989	9.590310	-0.447339	-2.288995	0.048075	0.104038	0.056483	1.000000	-0.000010	0.000024	0.000038	-166.121618	-76.353881	155.888616
20990	9.589894	-0.436588	-2.267061	0.029029	0.118618	0.050442	1.000000	-0.000018	0.000007	0.000023	-166.117938	-76.351723	155.883738
20991	9.556315	-0.417441	-2.250309	0.023798	0.136938	0.012891	1.000000	-0.000018	0.000009	0.000032	-166.115440	-76.352217	155.879780
20992	9.601668	-0.456466	-2.256535	0.012775	0.102409	0.060594	1.000000	-0.000027	0.000025	0.000035	-166.105094	-76.351712	155.866876
20993	9.568626	-0.448671	-2.261091	0.025777	0.106027	0.029088	1.000000	-0.000034	0.000028	0.000034	-166.106819	-76.352554	155.865018
20994	9.570262	-0.486458	-2.213696	-0.026791	0.077535	0.021960	1.000000	-0.000028	0.000029	0.000053	-166.088136	-76.352046	155.843512
20995	9.568798	-0.450077	-2.260086	0.024378	0.105354	0.029099	1.000000	-0.000027	0.000025	0.000035	-166.095904	-76.350349	155.855814
20996	9.571315	-0.510259	-2.256154	0.009000	0.047609	0.034054	1.000000	-0.000060	0.000018	0.000041	-166.087463	-76.348907	155.841092
20997	9.603568	-0.496710	-2.207456	-0.042342	0.072108	0.053472	1.000000	-0.000021	0.000023	0.000046	-166.086475	-76.348183	155.837390
20998	9.583141	-0.530537	-2.245235	-0.007782	0.031215	0.044194	1.000000	-0.000034	0.000030	0.000042	-166.073297	-76.348108	155.820828
20999	9.606177	-0.557840	-2.202829	-0.057653	0.013811	0.058420	1.000000	-0.000006	0.000033	0.000046	-166.060785	-76.352160	155.807968
21000	9.606755	-0.569928	-2.223766	-0.039509	-0.000860	0.064464	1.000000	-0.000009	0.000043	0.000043	-166.042796	-76.353475	155.789472
21001	9.585477	-0.581234	-2.217900	-0.042448	-0.012958	0.043088	1.000000	0.000002	0.000044	0.000035	-166.040327	-76.354462	155.783826
21002	9.595378	-0.552286	-2.232158	-0.025056	0.014329	0.054328	1.000000	0.000006	0.000046	0.000017	-166.032097	-76.356840	155.777138
21003	9.595546	-0.552631	-2.231348	-0.025581	0.013872	0.054327	1.000000	0.000020	0.000037	0.000013	-166.035475	-76.358903	155.780820
21004	9.584408	-0.545630	-2.262557	0.008235	0.014940	0.050247	1.000000	0.000021	0.000017	0.000045	-166.016284	-76.357235	155.764583
21005	9.583535	-0.523492	-2.218905	-0.028122	0.043632	0.038152	1.000000	0.000012	0.000017	-0.000011	-166.021980	-76.365261	155.777230
21006	9.571936	-0.504747	-2.228569	-0.012892	0.059322	0.028022	1.000000	0.000012	0.000026	0.000023	-166.012760	-76.365294	155.770179
21007	9.571095	-0.482555	-2.184778	-0.051356	0.088020	0.015924	1.000000	-0.000006	0.000024	0.000012	-166.030488	-76.362177	155.788070
21008	9.602799	-0.454140	-2.226232	-0.013214	0.112283	0.054598	1.000000	0.000004	0.000013	0.000025	-166.022890	-76.360679	155.781760
21009	9.559927	-0.475586	-2.216153	-0.017398	0.088536	0.011852	1.000000	-0.000008	-0.000011	0.000010	-166.031230	-76.361301	155.795036
21010	9.580851	-0.454024	-2.199646	-0.034278	0.114693	0.027178	1.000000	-0.000022	0.000000	0.000024	-166.028399	-76.358461	155.790647
21011	9.559396	-0.464927	-2.194646	-0.037342	0.102590	0.005804	1.000000	-0.000004	-0.000002	0.000018	-166.041601	-76.354062	155.800321
21012	9.570046	-0.458384	-2.253122	0.017230	0.100641	0.029163	1.000000	-0.000033	-0.000001	0.000032	-166.036648	-76.350897	155.792471
21013	9.591444	-0.448354	-2.258190	0.018675	0.111761	0.050547	1.000000	-0.000015	-0.000001	0.000034	-166.040567	-76.347181	155.794411
21014	9.582097	-0.489795	-2.264836	0.018994	0.069749	0.045342	1.000000	-0.000012	-0.000009	0.000046	-166.027770	-76.342670	155.780850
21015	9.570811	-0.482815	-2.296725	0.051629	0.070346	0.041290	1.000000	-0.000026	-0.000004	0.000033	-166.044452	-76.333846	155.791028
21016	9.582901	-0.513599	-2.308378	0.054091	0.039926	0.057463	1.000000	-0.000026	-0.000002	0.000042	-166.034223	-76.330187	155.778519
21017	9.560522	-0.502313	-2.259971	0.013319	0.056960	0.023976	1.000000	-0.000018	0.000011	0.000040	-166.044911	-76.324136	155.792279
21018	9.616016	-0.523183	-2.303037	0.038657	0.035102	0.088966	1.000000	-0.000014	0.000013	0.000022	-166.040789	-76.322714	155.787520
21019	9.571261	-0.496446	-2.317930	0.067105	0.054488	0.047374	1.000000	-0.000007	0.000014	0.000041	-166.040710	-76.320350	155.784276
21020	9.583010	-0.515993	-2.307393	0.050965	0.038680	0.057485	1.000000	0.000016	0.000032	0.000022	-166.031071	-76.321039	155.777321
21021	9.604553	-0.505829	-2.311900	0.052516	0.049787	0.078872	1.000000	0.000001	0.000021	0.000013	-166.039049	-76.320960	155.777547
21022	9.570649	-0.475125	-2.273059	0.028410	0.083130	0.035264	1.000000	-0.000004	0.000041	0.000008	-166.037283	-76.322986	155.776307
21023	9.550291	-0.508502	-2.310642	0.063205	0.041764	0.026009	1.000000	0.000016	0.000032	0.000022	-166.036514	-76.326022	155.783597
21024	9.583046	-0.506115	-2.283345	0.030610	0.052155	0.051436	1.000000	0.000012	0.000026	0.000023	-166.027661	-76.325967	155.776978
21025	9.592000	-0.454621	-2.254573	0.010174	0.108259	0.050599	1.000000	0.000016	0.000032	0.000022	-166.033336	-76.324414	155.782611
21026	9.592097	-0.455198	-2.254045	0.009707	0.108200	0.050600	1.000000	0.000008	0.000021	0.000033	-166.021134	-76.323586	155.772048
21027	9.592179	-0.455858	-2.253561	0.008490	0.107730	0.050606	1.000000	0.000012	0.000028	0.000032	-166.025053	-76.320446	155.773340
21028	9.592285	-0.456484	-2.252982	0.008019	0.107671	0.050607	1.000000	0.000005	0.000032	0.000030	-166.013361	-76.320793	155.762963
21029	9.570903	-0.467496	-2.247603	0.005622	0.095525	0.029228	1.000000	-0.000018	0.000007	0.000023	-166.019325	-76.320910	155.772711
21030	9.570919	-0.467972	-2.247434	0.005155	0.095465	0.029229	1.000000	-0.000007	0.000012	0.000033	-166.009960	-76.319011	155.763321
21031	9.571450	-0.479957	-2.268668	0.021837	0.080292	0.035305	1.000000	-0.000006	0.000033	0.000046	-166.017813	-76.312567	155.771935
21032	9.571509	-0.480810	-2.268240	0.021361	0.080231	0.035306	1.000000	-0.000018	0.000013	0.000049	-166.002243	-76.310310	155.754876
21033	9.571545	-0.481548	-2.267930	0.021334	0.079600	0.035311	1.000000	-0.000021	0.000021	0.000037	-165.999509	-76.313099	155.759322
21034	9.604690	-0.490656	-2.262507	0.007299	0.075354	0.066788	1.000000	-0.000025	0.000017	0.000047	-165.985170	-76.311306	155.742766
21035	9.573926	-0.542493	-2.263828	0.006147	0.021196	0.040170	1.000000	-0.000035	0.000010	0.000029	-165.987294	-76.313969	155.747535
21036	9.583773	-0.513506	-2.278636	0.023470	0.048479	0.051474	1.000000	-0.000027	0.000025	0.000036	-165.977558	-76.313403	155.735431
21037	9.595486	-0.533114	-2.268109	0.006169	0.032027	0.061562	1.000000	-0.000021	0.000023	0.000046	-165.988042	-76.307748	155.750547
21038	9.595572	-0.533738	-2.267596	0.005694	0.031961	0.061563	1.000000	-0.000013	0.000032	0.000027	-165.979791	-76.308215	155.741762
21039	9.574234	-0.544802	-2.261969	0.002888	0.019863	0.040174	1.000000	-0.000013	0.000034	0.000036	-165.979843	-76.308569	155.741126
21040	9.574335	-0.545342	-2.261413	0.002413	0.019797	0.040174	1.000000	-0.000017	0.000026	0.000028	-165.972392	-76.308280	155.732688
21041	9.562791	-0.526745	-2.271024	0.017111	0.034978	0.030100	1.000000	-0.000023	0.000027	0.000017	-165.987218	-76.307051	155.753188
21042	9.595517	-0.524290	-2.243754	-0.015542	0.045312	0.055492	1.000000	-0.000006	0.000029	0.000029	-165.977813	-76.307057	155.744026
21043	9.583986	-0.505743	-2.253312	-0.000306	0.060372	0.045422	1.000000	0.000005	0.000027	0.000013	-165.988686	-76.309249	155.773019
21044	9.584090	-0.506056	-2.252796	-0.000784	0.060302	0.045423	1.000000	-0.000006	0.000026	0.000020	-165.983478	-76.309268	155.768246
21045	9.605615	-0.495968	-2.257417	0.001059	0.071331	0.066820	1.000000	0.000004	0.000013	0.000025	-165.984831	-76.310043	155.775837
21046	9.583795	-0.495823	-2.230151	-0.020114	0.074278	0.039349	1.000000	0.000006	0.000050	0.000035	-165.968970	-76.312318	155.761505
21047	9.593298	-0.455638	-2.222845	-0.020829	0.115550	0.044606	1.000000	-0.000006	0.000026	0.000020	-165.970611	-76.317273	155.784171
21048	9.605515	-0.486281	-2.233821	-0.018353	0.085100	0.060750	1.000000	-0.000002	0.000035	0.000028	-165.960458	-76.318076	155.774824
21049	9.593522	-0.456576	-2.221684	-0.022536	0.114984	0.044608	1.000000	-0.000017	0.000026	0.000028	-165.970177	-76.314785	155.783283
21050	9.605716	-0.487269	-2.232738	-0.020065	0.084533	0.060751	1.000000	-0.000006	0.000029	0.000029	-165.960855	-76.314816	155.774304
21051	9.593720	-0.457614	-2.220615	-0.023485	0.114419	0.044613	1.000000	-0.000023	0.000031	0.000035	-165.960157	-76.315934	155.762773
21052	9.605897	-0.488390	-2.231714	-0.021018	0.083966	0.060754	1.000000	-0.000003	0.000018	0.000032	-165.950395	-76.314768	155.753648
21053	9.561753	-0.472778	-2.268109	0.026441	0.088801	0.025319	1.000000	-0.000013	0.000032	0.000027	-165.953252	-76.316941	155.761155
21054	9.584106	-0.488700	-2.204176	-0.042586	0.086302	0.033279	1.000000	-0.000007	0.000012	0.000033	-165.944289	-76.315029	155.752395
21055	9.593941	-0.459872	-2.219195	-0.025100	0.112984	0.044625	1.000000	-0.000008	-0.000005	0.000036	-165.946646	-76.313948	155.767944
21056	9.605994	-0.490585	-2.230815	-0.022621	0.082527	0.060763	1.000000	-0.000022	0.000000	0.000024	-165.944658	-76.310998	155.764668
21057	9.572904	-0.482579	-2.235860	-0.009612	0.086130	0.029311	1.000000	-0.000018	0.000009	0.000032	-165.951174	-76.309570	155.772805
21058	9.572890	-0.483138	-2.235800	-0.010087	0.086052	0.029312	1.000000	-0.000015	-0.000001	0.000034	-165.943830	-76.306167	155.764819
21059	9.594362	-0.473280	-2.240638	-0.008437	0.097155	0.050716	1.000000	-0.000014	0.000018	0.000039	-165.940153	-76.305893	155.753446
21060	9.573386	-0.495454	-2.257138	0.007637	0.070933	0.035398	1.000000	-0.000000	0.000002	0.000009	-165.942505	-76.303568	155.757185
21061	9.594821	-0.485401	-2.262178	0.010051	0.081925	0.056803	1.000000	-0.000002	-0.000008	0.000038	-165.935420	-76.304877	155.754564
21062	9.584164	-0.489599	-2.315440	0.062473	0.068499	0.058917	1.000000	0.000001	0.000025	0.000031	-165.924931	-76.304510	155.745214
21063	9.595343	-0.497935	-2.283359	0.027507	0.066754	0.062892	1.000000	-0.000000	0.000008	0.000034	-165.926796	-76.302052	155.744743
21064	9.562302	-0.490145	-2.288170	0.040634	0.070918	0.031443	1.000000	-0.000010	0.000024	0.000038	-165.914181	-76.301369	155.731911
21065	9.595932	-0.510583	-2.304229	0.044482	0.051412	0.068985	1.000000	0.000001	0.000027	0.000039	-165.920254	-76.298783	155.745610
21066	9.583951	-0.481018	-2.292131	0.041048	0.081716	0.052859	1.000000	-0.000006	0.000029	0.000029	-165.911088	-76.298843	155.736840
21067	9.573228	-0.488500	-2.233188	-0.014073	0.082888	0.029334	1.000000	-0.000006	0.000029	0.000029	-165.910515	-76.301787	155.738103
21068	9.584665	-0.493565	-2.312521	0.059022	0.066461	0.058952	1.000000	0.000002	0.000048	0.000053	-165.887303	-76.303342	155.715802
21069	9.574425	-0.512458	-2.275140	0.021702	0.053015	0.041510	1.000000	-0.000010	0.000020	0.000021	-165.901007	-76.301266	155.730419
21070	9.607123	-0.510217	-2.247805	-0.011002	0.063248	0.066869	1.000000	-0.000002	0.000037	0.000037	-165.886954	-76.302072	155.717110
21071	9.552197	-0.501615	-2.225706	-0.018363	0.069985	0.007935	1.000000	0.000001	0.000025	0.000031	-165.885038	-76.303635	155.710078
21072	9.574213	-0.502922	-2.251975	0.001829	0.066886	0.035429	1.000000	0.000004	0.000013	0.000025	-165.878428	-76.302065	155.705080
21073	9.574732	-0.514712	-2.273338	0.020783	0.051757	0.041518	1.000000	-0.000003	0.000018	0.000032	-165.871241	-76.306425	155.706214
21074	9.553284	-0.525783	-2.268085	0.018269	0.040115	0.020112	1.000000	-0.000007	0.000012	0.000033	-165.862454	-76.304569	155.697698
21075	9.586404	-0.534700	-2.262639	0.003557	0.035269	0.051557	1.000000	0.000001	0.000021	0.000013	-165.878018	-76.302071	155.714390
21076	9.574395	-0.504846	-2.250770	0.000122	0.065571	0.035438	1.000000	-0.000025	0.000013	0.000030	-165.872524	-76.300344	155.707199
21077	9.583869	-0.464730	-2.243837	-0.001985	0.106900	0.040733	1.000000	-0.000010	0.000024	0.000038	-165.879111	-76.297155	155.713925
21078	9.574959	-0.517192	-2.271818	0.017085	0.050302	0.041533	1.000000	-0.000018	0.000007	0.000023	-165.876613	-76.294973	155.710631
21079	9.562924	-0.487336	-2.260076	0.013523	0.080186	0.025420	1.000000	-0.000014	0.000013	0.000022	-165.884026	-76.293821	155.708940
21080	9.563465	-0.498907	-2.281403	0.031665	0.065529	0.031513	1.000000	-0.000016	0.000023	0.000019	-165.881200	-76.293586	155.705443
21081	9.606541	-0.478305	-2.290840	0.035854	0.088048	0.074340	1.000000	-0.000023	0.000029	0.000026	-165.880556	-76.298217	155.709099
21082	9.596708	-0.508161	-2.275355	0.017688	0.060584	0.062954	1.000000	-0.000003	0.000016	0.000023	-165.875266	-76.297107	155.704661
21083	9.573644	-0.470738	-2.295080	0.049588	0.091632	0.042910	1.000000	-0.000013	0.000034	0.000036	-165.864094	-76.304551	155.698077
21084	9.584845	-0.479014	-2.262753	0.014840	0.090280	0.046845	1.000000	-0.000017	0.000026	0.000028	-165.857061	-76.304361	155.690257
21085	9.596520	-0.498450	-2.252113	-0.001095	0.073972	0.056871	1.000000	-0.000013	0.000032	0.000027	-165.856179	-76.306799	155.679638
21086	9.573517	-0.460889	-2.271650	0.029753	0.105534	0.036831	1.000000	-0.000026	0.000039	0.000023	-165.850804	-76.308261	155.672385
21087	9.618269	-0.489006	-2.255754	-0.000331	0.084791	0.078291	1.000000	0.000001	0.000029	0.000048	-165.847747	-76.307511	155.673050
21088	9.563830	-0.491731	-2.255289	0.010803	0.077432	0.025445	1.000000	-0.000009	0.000041	0.000035	-165.835007	-76.308817	155.660280
21089	9.596546	-0.489585	-2.227745	-0.021964	0.087062	0.050789	1.000000	-0.000002	0.000035	0.000028	-165.838027	-76.310863	155.673358
21090	9.564094	-0.492799	-2.253933	0.009825	0.076693	0.025452	1.000000	-0.000013	0.000032	0.000027	-165.830266	-76.311429	155.665262
21091	9.606706	-0.461166	-2.241613	-0.004994	0.113663	0.062198	1.000000	0.000001	0.000025	0.000031	-165.830664	-76.313881	155.678308
21092	9.574246	-0.464458	-2.267848	0.026799	0.103303	0.036863	1.000000	-0.000019	0.000038	0.000034	-165.819976	-76.314898	155.666416
21093	9.575436	-0.502287	-2.220627	-0.024970	0.073999	0.029383	1.000000	0.000006	0.000005	0.000036	-165.814448	-76.316955	155.667849
21094	9.618999	-0.493255	-2.251710	-0.002773	0.082436	0.078310	1.000000	-0.000015	0.000044	0.000033	-165.802955	-76.318744	155.655614
21095	9.585560	-0.473867	-2.234687	-0.008077	0.100647	0.040796	1.000000	-0.000014	0.000011	0.000013	-165.814499	-76.319561	155.667800
21096	9.586101	-0.485548	-2.256027	0.010091	0.085996	0.046889	1.000000	-0.000010	0.000024	0.000038	-165.802157	-76.318961	155.655338
21097	9.564660	-0.496644	-2.250688	0.007882	0.073744	0.025476	1.000000	-0.000003	0.000018	0.000032	-165.803753	-76.320868	155.665744
21098	9.597756	-0.505889	-2.245178	-0.006216	0.069339	0.056903	1.000000	0.000004	0.000017	0.000042	-165.788982	-76.319383	155.652393
21099	9.564253	-0.486790	-2.228372	-0.011748	0.087643	0.019389	1.000000	-0.000014	0.000016	0.000031	-165.792630	-76.318713	155.651691
21100	9.598335	-0.518344	-2.266175	0.011418	0.054135	0.063001	1.000000	-0.000027	0.000025	0.000036	-165.783566	-76.318269	155.640550
21101	9.585879	-0.477526	-2.232539	-0.011671	0.098501	0.040814	1.000000	0.000014	0.000018	0.000035	-165.792026	-76.312905	155.652147
21102	9.574877	-0.470363	-2.263963	0.022144	0.099701	0.036912	1.000000	-0.000021	0.000019	0.000029	-165.785975	-76.312000	155.644899
21103	9.610055	-0.539186	-2.254881	-0.006747	0.037005	0.073007	1.000000	0.000001	0.000027	0.000039	-165.784014	-76.312252	155.640502
21104	9.566006	-0.523552	-2.291463	0.040717	0.042518	0.037689	1.000000	-0.000007	0.000012	0.000033	-165.775543	-76.310451	155.632343
21105	9.575066	-0.472206	-2.262777	0.020722	0.098406	0.036928	1.000000	-0.000006	0.000029	0.000029	-165.776934	-76.312296	155.635640
21106	9.610221	-0.540987	-2.253744	-0.008053	0.036197	0.073009	1.000000	-0.000007	0.000012	0.000033	-165.768479	-76.310500	155.627493
21107	9.587173	-0.503588	-2.273736	0.022520	0.067141	0.053029	1.000000	-0.000007	0.000012	0.000033	-165.777385	-76.309010	155.647741
21108	9.599253	-0.534297	-2.284937	0.025046	0.036636	0.069120	1.000000	-0.000006	0.000026	0.000020	-165.772778	-76.309173	155.643753
21109	9.566281	-0.526282	-2.289689	0.035875	0.040240	0.037717	1.000000	0.000014	0.000018	0.000035	-165.798160	-76.296886	155.668617
21110	9.565385	-0.504243	-2.245909	-0.001871	0.069223	0.025512	1.000000	-0.000012	0.000028	0.000010	-165.799086	-76.297452	155.669549
21111	9.586984	-0.494170	-2.250396	-0.000442	0.080342	0.046942	1.000000	-0.000003	0.000018	0.000032	-165.797820	-76.296613	155.658980
21112	9.576013	-0.486832	-2.281800	0.033363	0.081548	0.043067	1.000000	0.000001	0.000021	0.000014	-165.796304	-76.296281	155.658938
21113	9.575601	-0.476077	-2.259703	0.014686	0.095442	0.036968	1.000000	-0.000010	0.000024	0.000038	-165.792121	-76.299299	155.659961
21114	9.575188	-0.465403	-2.237586	-0.004424	0.109879	0.030865	1.000000	0.000001	0.000023	0.000022	-165.786446	-76.298972	155.655638
21115	9.608802	-0.485802	-2.253586	-0.000135	0.090437	0.068383	1.000000	0.000001	0.000027	0.000039	-165.784855	-76.298606	155.646732
21116	9.564802	-0.470137	-2.290123	0.047345	0.095977	0.033107	1.000000	-0.000003	0.000018	0.000032	-165.775839	-76.297517	155.638468
21117	9.608465	-0.475776	-2.230999	-0.019270	0.104187	0.062285	1.000000	-0.000012	0.000032	0.000027	-165.776752	-76.301893	155.641197
21118	9.554442	-0.489337	-2.252650	0.010588	0.082342	0.015555	1.000000	-0.000004	-0.000000	0.000027	-165.772276	-76.298879	155.637472
21119	9.587993	-0.509740	-2.268904	0.015091	0.062879	0.053071	1.000000	-0.000010	0.000024	0.000038	-165.770776	-76.299454	155.632202
21120	9.576048	-0.480063	-2.256962	0.011634	0.093177	0.036994	1.000000	-0.000003	0.000016	0.000023	-165.765949	-76.298393	155.628257
21121	9.576595	-0.491821	-2.278285	0.029892	0.077855	0.043108	1.000000	-0.000021	0.000021	0.000037	-165.769982	-76.299740	155.648479
21122	9.576184	-0.481165	-2.256149	0.010780	0.092282	0.037003	1.000000	-0.000006	0.000029	0.000029	-165.761449	-76.299877	155.640425
21123	9.588262	-0.511882	-2.267283	0.013291	0.061206	0.053084	1.000000	-0.000003	0.000016	0.000023	-165.769208	-76.300084	155.644306
21124	9.576793	-0.493317	-2.277131	0.028465	0.076964	0.043119	1.000000	-0.000025	0.000013	0.000030	-165.764314	-76.298421	155.637781
21125	9.598357	-0.483492	-2.281754	0.030307	0.087796	0.064559	1.000000	0.000014	0.000018	0.000035	-165.761500	-76.300464	155.636768
21126	9.576883	-0.494503	-2.276493	0.027872	0.076161	0.043127	1.000000	-0.000021	0.000019	0.000029	-165.755822	-76.299564	155.629922
21127	9.576948	-0.495078	-2.276094	0.027243	0.075530	0.043133	1.000000	-0.000010	0.000024	0.000038	-165.757133	-76.299373	155.632517
21128	9.598571	-0.485307	-2.280470	0.028730	0.086935	0.064572	1.000000	0.000005	0.000032	0.000030	-165.746648	-76.299826	155.623730
21129	9.576637	-0.485037	-2.253397	0.007667	0.089266	0.037034	1.000000	0.000008	0.000019	0.000024	-165.752600	-76.300529	155.634756
21130	9.576719	-0.485549	-2.252937	0.007195	0.089149	0.037035	1.000000	-0.000006	0.000029	0.000029	-165.744160	-76.300685	155.626812
21131	9.609833	-0.494681	-2.247248	-0.006537	0.084157	0.068436	1.000000	-0.000010	0.000022	0.000030	-165.743577	-76.303625	155.628855
21132	9.598919	-0.487506	-2.278537	0.027277	0.085386	0.064589	1.000000	-0.000006	0.000031	0.000038	-165.730971	-76.303784	155.616608
21133	9.599036	-0.488035	-2.277929	0.026798	0.084722	0.064596	1.000000	-0.000002	0.000033	0.000019	-165.738195	-76.305988	155.625526
21134	9.577634	-0.498971	-2.272359	0.024377	0.073088	0.043159	1.000000	-0.000002	0.000037	0.000037	-165.724811	-76.306900	155.612953
21135	9.577248	-0.488401	-2.250073	0.004982	0.086877	0.037057	1.000000	-0.000017	0.000028	0.000037	-165.730971	-76.306846	155.628969
21136	9.566786	-0.507123	-2.212910	-0.031719	0.073883	0.019458	1.000000	0.000001	0.000023	0.000022	-165.725543	-76.306578	155.624939
21137	9.610439	-0.498140	-2.243893	-0.009321	0.081656	0.068455	1.000000	0.000001	0.000027	0.000039	-165.721790	-76.309565	155.628701
21138	9.566948	-0.508409	-2.211914	-0.032321	0.073033	0.019462	1.000000	-0.000017	0.000028	0.000037	-165.711283	-76.309437	155.617372
21139	9.588573	-0.498553	-2.216312	-0.031106	0.083837	0.040908	1.000000	-0.000017	0.000026	0.000028	-165.720585	-76.309382	155.628909
21140	9.611210	-0.511137	-2.264008	0.007659	0.066175	0.074573	1.000000	0.000005	0.000032	0.000030	-165.710240	-76.309865	155.620302
21141	9.577775	-0.491814	-2.247084	0.001590	0.084389	0.037080	1.000000	-0.000021	0.000019	0.000029	-165.724074	-76.306941	155.637365
21142	9.567755	-0.521712	-2.231780	-0.016451	0.056857	0.025578	1.000000	0.000004	0.000013	0.000025	-165.718335	-76.305474	155.633350
21143	9.589323	-0.511861	-2.236432	-0.015387	0.067676	0.047025	1.000000	-0.000007	0.000012	0.000033	-165.727253	-76.302897	155.634230
21144	9.589836	-0.523565	-2.257938	0.002787	0.053026	0.053140	1.000000	-0.000018	0.000007	0.000023	-165.725603	-76.300823	155.631886
21145	9.599936	-0.494623	-2.272710	0.019804	0.079804	0.064654	1.000000	-0.000003	0.000018	0.000032	-165.728906	-76.300590	155.637546
21146	9.577944	-0.494384	-2.245798	-0.001247	0.082693	0.037094	1.000000	-0.000003	0.000018	0.000032	-165.720292	-76.299558	155.629755
21147	9.589984	-0.525165	-2.256941	0.000599	0.051546	0.053148	1.000000	-0.000017	0.000026	0.000028	-165.734484	-76.297212	155.647284
21148	9.588161	-0.466021	-2.259974	0.014670	0.109245	0.048618	1.000000	-0.000003	0.000018	0.000032	-165.725930	-76.296169	155.639561
21149	9.566658	-0.476954	-2.254791	0.012607	0.097068	0.027177	1.000000	0.000004	0.000013	0.000025	-165.729104	-76.297808	155.646763
21150	9.589241	-0.489677	-2.302734	0.051353	0.079404	0.060862	1.000000	0.000004	0.000017	0.000042	-165.715176	-76.296316	155.634290
21151	9.578205	-0.497287	-2.244045	-0.003904	0.080280	0.037113	1.000000	-0.000021	0.000019	0.000029	-165.723069	-76.297335	155.640977
21152	9.567321	-0.489973	-2.275396	0.029909	0.081537	0.033306	1.000000	-0.000006	0.000029	0.000029	-165.714974	-76.297508	155.633423
21153	9.566921	-0.479194	-2.253200	0.010321	0.095270	0.027197	1.000000	-0.000006	0.000026	0.000020	-165.730235	-76.296925	155.661783
21154	9.566982	-0.479672	-2.252838	0.009845	0.095137	0.027199	1.000000	-0.000007	0.000012	0.000033	-165.722578	-76.295144	155.654537
21155	9.578985	-0.510557	-2.264072	0.012475	0.063984	0.043245	1.000000	0.000008	0.000021	0.000033	-165.724597	-76.296275	155.656243
21156	9.567610	-0.492033	-2.273734	0.027633	0.079763	0.033327	1.000000	-0.000006	0.000026	0.000020	-165.720749	-76.296459	155.653094
21157	9.577276	-0.451989	-2.266640	0.026024	0.121027	0.038751	1.000000	0.000004	0.000017	0.000042	-165.718904	-76.296114	155.650502
21158	9.567732	-0.493385	-2.272927	0.026662	0.078968	0.033336	1.000000	-0.000010	0.000024	0.000038	-165.707551	-76.295530	155.639121
21159	9.589383	-0.483421	-2.277312	0.028657	0.089780	0.054796	1.000000	-0.000012	0.000028	0.000010	-165.715616	-76.300520	155.648607
21160	9.589477	-0.483751	-2.276843	0.028183	0.089644	0.054799	1.000000	-0.000010	0.000022	0.000030	-165.708428	-76.299963	155.641523
21161	9.578937	-0.502552	-2.239741	-0.008864	0.076031	0.037144	1.000000	-0.000010	0.000024	0.000038	-165.713771	-76.298771	155.650125
21162	9.567560	-0.484121	-2.249431	0.006294	0.091812	0.027234	1.000000	-0.000010	0.000022	0.000030	-165.706626	-76.298210	155.643084
21163	9.589684	-0.485532	-2.275593	0.026318	0.088127	0.054817	1.000000	-0.000003	0.000018	0.000032	-165.710744	-76.298081	155.637615
21164	9.589252	-0.474839	-2.253503	0.007187	0.102499	0.048699	1.000000	-0.000016	0.000026	0.000028	-165.704845	-76.297971	155.631052
21165	9.589812	-0.486588	-2.274830	0.025231	0.087299	0.054828	1.000000	-0.000007	0.000012	0.000033	-165.710981	-76.296830	155.638552
21166	9.568328	-0.497599	-2.269498	0.022861	0.075669	0.033372	1.000000	-0.000002	0.000037	0.000037	-165.698118	-76.297759	155.626548
21167	9.589472	-0.476540	-2.252208	0.005678	0.100894	0.048716	1.000000	-0.000014	0.000013	0.000022	-165.709450	-76.298386	155.649108
21168	9.568484	-0.498653	-2.268609	0.021971	0.074758	0.033381	1.000000	-0.000006	0.000031	0.000038	-165.697419	-76.298571	155.637496
21169	9.580005	-0.518392	-2.257968	0.005798	0.058066	0.043288	1.000000	-0.000010	0.000024	0.000038	-165.700810	-76.299152	155.641406
21170	9.568632	-0.499988	-2.267690	0.020955	0.073851	0.033390	1.000000	-0.000003	0.000018	0.000032	-165.692565	-76.298152	155.634025
21171	9.579619	-0.508460	-2.235486	-0.014760	0.071698	0.037169	1.000000	-0.000010	0.000024	0.000038	-165.704226	-76.293902	155.639152
21172	9.601747	-0.510013	-2.261633	0.005302	0.068530	0.064757	1.000000	-0.000014	0.000018	0.000039	-165.693909	-76.292575	155.628351
21173	9.568329	-0.490631	-2.244745	-0.000556	0.086780	0.027281	1.000000	-0.000002	0.000033	0.000019	-165.706813	-76.292339	155.641493
21174	9.591812	-0.540529	-2.245515	-0.013646	0.040265	0.053191	1.000000	-0.000013	0.000036	0.000044	-165.691983	-76.292944	155.626190
21175	9.569039	-0.502920	-2.265323	0.016500	0.071426	0.033416	1.000000	-0.000014	0.000011	0.000013	-165.713212	-76.289526	155.641518
21176	9.601595	-0.500847	-2.237978	-0.016399	0.081334	0.058642	1.000000	-0.000006	0.000031	0.000038	-165.701382	-76.289682	155.630096
21177	9.569209	-0.503892	-2.264390	0.014910	0.070521	0.033425	1.000000	-0.000006	0.000026	0.000020	-165.717896	-76.288029	155.650585
21178	9.590857	-0.494019	-2.268813	0.016296	0.081851	0.054893	1.000000	-0.000003	0.000018	0.000032	-165.709873	-76.286988	155.643411
21179	9.569336	-0.504882	-2.263633	0.013650	0.069671	0.033433	1.000000	-0.000003	0.000016	0.000023	-165.721392	-76.285714	155.652106
21180	9.569405	-0.505327	-2.263240	0.013164	0.069520	0.033435	1.000000	-0.000016	0.000026	0.000028	-165.715845	-76.285571	155.645889
21181	9.590046	-0.473075	-2.224251	-0.023077	0.109221	0.042647	1.000000	0.000001	0.000025	0.000031	-165.724190	-76.285227	155.662399
21182	9.569056	-0.495282	-2.240618	-0.006770	0.083091	0.027311	1.000000	-0.000010	0.000024	0.000038	-165.713304	-76.284621	155.651475
21183	9.581063	-0.526250	-2.251652	-0.004632	0.051935	0.043323	1.000000	-0.000006	0.000031	0.000038	-165.718261	-76.283983	155.655952
21184	9.591299	-0.497374	-2.266211	0.012374	0.079196	0.054920	1.000000	-0.000014	0.000013	0.000022	-165.716550	-76.282645	155.654010
21185	9.569280	-0.496948	-2.239295	-0.008702	0.081442	0.027323	1.000000	-0.000006	0.000029	0.000029	-165.723743	-76.283983	155.667722
21186	9.581282	-0.527834	-2.250350	-0.006162	0.050844	0.043327	1.000000	-0.000010	0.000024	0.000039	-165.712934	-76.283375	155.656878
21187	9.601695	-0.469689	-2.279866	0.028572	0.104951	0.066539	1.000000	-0.000021	0.000021	0.000038	-165.714383	-76.285154	155.656043
21188	9.569465	-0.498894	-2.238072	-0.009917	0.080407	0.027330	1.000000	0.000010	0.000011	0.000036	-165.704098	-76.283213	155.648123
21189	9.591594	-0.500364	-2.264304	0.009481	0.076592	0.054944	1.000000	-0.000021	0.000019	0.000029	-165.719990	-76.280482	155.659208
21190	9.569599	-0.499852	-2.237284	-0.011519	0.079465	0.027336	1.000000	0.000009	0.000034	0.000012	-165.718111	-76.281703	155.659815
21191	9.591266	-0.489962	-2.241662	-0.010579	0.090202	0.048816	1.000000	-0.000025	0.000015	0.000038	-165.727151	-76.279240	155.671541
21192	9.591321	-0.490573	-2.241293	-0.011071	0.090042	0.048817	1.000000	0.000001	0.000025	0.000031	-165.718600	-76.278936	155.664297
21193	9.602603	-0.484194	-2.299202	0.043645	0.087734	0.072714	1.000000	-0.000003	0.000018	0.000032	-165.719539	-76.281396	155.662009
21194	9.570366	-0.513391	-2.257354	0.005173	0.063191	0.033485	1.000000	-0.000003	0.000021	0.000040	-165.707642	-76.280344	155.650829
21195	9.580090	-0.473408	-2.250315	0.003003	0.104346	0.038976	1.000000	0.000004	0.000013	0.000025	-165.721176	-76.277710	155.669942
21196	9.580170	-0.473820	-2.249890	0.002510	0.104184	0.038978	1.000000	-0.000030	0.000033	0.000024	-165.718368	-76.278466	155.664960
21197	9.591639	-0.493469	-2.239294	-0.013781	0.087444	0.048837	1.000000	0.000004	0.000017	0.000042	-165.720738	-76.277627	155.676111
21198	9.592211	-0.505392	-2.260570	0.004391	0.072789	0.054977	1.000000	0.000001	0.000025	0.000031	-165.712284	-76.277330	155.668966
21199	9.580372	-0.475671	-2.248637	0.001526	0.102444	0.038996	1.000000	-0.000014	0.000016	0.000031	-165.714125	-76.281025	155.669943
21200	9.580443	-0.476199	-2.248224	0.001036	0.102279	0.038998	1.000000	-0.000006	0.000029	0.000029	-165.706896	-76.281196	155.663277
21201	9.591911	-0.495720	-2.237634	-0.014588	0.085586	0.048852	1.000000	-0.000010	0.000020	0.000021	-165.712169	-76.284659	155.673517
21202	9.581610	-0.499578	-2.290799	0.037886	0.072407	0.051283	1.000000	0.000004	0.000015	0.000034	-165.703316	-76.283192	155.666279
21203	9.560079	-0.510542	-2.285573	0.035190	0.060186	0.029809	1.000000	-0.000017	0.000028	0.000037	-165.711246	-76.282496	155.674043
21204	9.591600	-0.486165	-2.214707	-0.035103	0.098970	0.042720	1.000000	-0.000006	0.000026	0.000020	-165.708233	-76.282687	155.671718
21205	9.581339	-0.490036	-2.267727	0.016938	0.085220	0.045164	1.000000	-0.000010	0.000024	0.000039	-165.715012	-76.281109	155.668961
21206	9.581914	-0.501957	-2.289005	0.035113	0.070563	0.051306	1.000000	0.000014	0.000018	0.000035	-165.704220	-76.279931	155.660983
21207	9.559869	-0.501658	-2.262088	0.014372	0.072865	0.023688	1.000000	-0.000016	0.000026	0.000028	-165.709422	-76.282415	155.662576
21208	9.592908	-0.510869	-2.256379	0.000073	0.068179	0.055010	1.000000	-0.000003	0.000016	0.000023	-165.706059	-76.281409	155.660187
21209	9.592427	-0.500256	-2.234408	-0.019034	0.081902	0.048876	1.000000	-0.000007	0.000014	0.000041	-165.707992	-76.281319	155.661942
21210	9.581627	-0.493062	-2.265854	0.014773	0.083211	0.045184	1.000000	0.000001	0.000025	0.000031	-165.699683	-76.281055	155.654925
21211	9.549250	-0.496045	-2.292428	0.046276	0.072531	0.020016	1.000000	0.000008	0.000019	0.000024	-165.711413	-76.279007	155.662464
21212	9.592594	-0.501962	-2.233308	-0.020993	0.080847	0.048880	1.000000	-0.000025	0.000013	0.000030	-165.708010	-76.277392	155.657462
21213	9.581796	-0.494664	-2.264791	0.013202	0.081586	0.045200	1.000000	-0.000010	0.000024	0.000039	-165.706431	-76.280208	155.650267
21214	9.593234	-0.514394	-2.254188	-0.002922	0.065442	0.055029	1.000000	0.000001	0.000025	0.000031	-165.698178	-76.279948	155.643281
21215	9.581416	-0.484581	-2.242278	-0.006088	0.095112	0.039068	1.000000	-0.000014	0.000013	0.000022	-165.707126	-76.282047	155.654894
21216	9.581988	-0.496233	-2.263633	0.012088	0.080446	0.045211	1.000000	-0.000010	0.000022	0.000030	-165.700917	-76.281500	155.648746
21217	9.549126	-0.487978	-2.268418	0.025467	0.084203	0.013905	1.000000	-0.000002	0.000035	0.000028	-165.706096	-76.284135	155.654537
21218	9.581166	-0.474797	-2.219136	-0.026175	0.108472	0.032936	1.000000	-0.000006	0.000026	0.000020	-165.703271	-76.284352	155.652359
21219	9.582787	-0.508828	-2.283828	0.029234	0.064221	0.051369	1.000000	-0.000025	0.000013	0.000030	-165.714530	-76.283719	155.664524
21220	9.570978	-0.478945	-2.271920	0.025711	0.094509	0.035411	1.000000	-0.000006	0.000026	0.000020	-165.711738	-76.283939	155.662379
21221	9.582937	-0.509769	-2.282990	0.028017	0.063323	0.051378	1.000000	-0.000010	0.000024	0.000039	-165.716004	-76.283335	155.654401
21222	9.570617	-0.468796	-2.249344	0.005836	0.108103	0.029279	1.000000	-0.000010	0.000020	0.000021	-165.714055	-76.282804	155.652626
21223	9.583043	-0.510809	-2.282310	0.026815	0.062272	0.051388	1.000000	-0.000000	0.000008	0.000035	-165.724107	-76.281119	155.667844
21224	9.570713	-0.469854	-2.248713	0.004629	0.107049	0.029291	1.000000	0.000005	0.000029	0.000021	-165.719365	-76.281634	155.664957
21225	9.582150	-0.489428	-2.238084	-0.011223	0.090240	0.039109	1.000000	-0.000010	0.000022	0.000030	-165.724979	-76.284119	155.672822
21226	9.593027	-0.497846	-2.205912	-0.046011	0.088561	0.042774	1.000000	-0.000014	0.000016	0.000031	-165.719739	-76.282838	155.667189
21227	9.549807	-0.492869	-2.264494	0.019207	0.079311	0.013960	1.000000	0.000004	0.000013	0.000025	-165.740591	-76.277135	155.694904
21228	9.582847	-0.502202	-2.258675	0.004874	0.074573	0.045263	1.000000	-0.000019	0.000038	0.000034	-165.732078	-76.278228	155.685264
21229	9.571605	-0.483617	-2.268287	0.019937	0.089741	0.035469	1.000000	-0.000021	0.000019	0.000029	-165.743068	-76.278589	155.704141
21230	9.571677	-0.484145	-2.267874	0.019444	0.089556	0.035472	1.000000	0.000001	0.000025	0.000031	-165.735096	-76.278340	155.697446
21231	9.582591	-0.492570	-2.235507	-0.015175	0.087257	0.039131	1.000000	-0.000012	0.000032	0.000027	-165.741382	-76.281343	155.699872
21232	9.604825	-0.494066	-2.261455	0.004787	0.084015	0.066780	1.000000	-0.000010	0.000024	0.000039	-165.731293	-76.280794	155.689713
21233	9.582760	-0.493795	-2.234511	-0.016311	0.086247	0.039138	1.000000	0.000001	0.000025	0.000031	-165.739069	-76.281282	155.700251
21234	9.550376	-0.496725	-2.261247	0.015716	0.076148	0.013991	1.000000	-0.000000	0.000006	0.000026	-165.735721	-76.279103	155.698159
21235	9.583344	-0.506205	-2.255671	0.001742	0.070786	0.045292	1.000000	0.000004	0.000017	0.000042	-165.733055	-76.281032	155.692416
21236	9.593180	-0.466218	-2.248497	-0.000009	0.112496	0.050859	1.000000	-0.000006	0.000026	0.000020	-165.730544	-76.281264	155.690557
21237	9.561409	-0.480143	-2.296608	0.050950	0.087287	0.031869	1.000000	-0.000026	0.000039	0.000023	-165.739077	-76.285739	155.697464
21238	9.605270	-0.497218	-2.258873	0.002305	0.081003	0.066806	1.000000	-0.000010	0.000020	0.000021	-165.737398	-76.285231	155.695983
21239	9.572410	-0.489003	-2.263732	0.015524	0.084768	0.035521	1.000000	-0.000006	0.000033	0.000046	-165.737783	-76.286167	155.696738
21240	9.583321	-0.497605	-2.231257	-0.019268	0.083055	0.039160	1.000000	-0.000002	0.000035	0.000028	-165.730350	-76.287146	155.690276
21241	9.572634	-0.490262	-2.262511	0.014708	0.083752	0.035531	1.000000	0.000001	0.000025	0.000031	-165.735021	-76.289307	155.693840
21242	9.584052	-0.509899	-2.251826	-0.001413	0.067557	0.045315	1.000000	-0.000012	0.000032	0.000027	-165.729642	-76.289996	155.688223
21243	9.572830	-0.491370	-2.261440	0.013828	0.082727	0.035541	1.000000	-0.000010	0.000024	0.000039	-165.732942	-76.291569	155.694371
21244	9.584734	-0.522323	-2.272582	0.016381	0.052049	0.051470	1.000000	-0.000003	0.000019	0.000032	-165.725961	-76.290611	155.688210
21245	9.572437	-0.481277	-2.238939	-0.005696	0.096223	0.029403	1.000000	-0.000034	0.000026	0.000025	-165.736729	-76.292770	155.691258
21246	9.595206	-0.493750	-2.286666	0.032923	0.078482	0.063211	1.000000	-0.000010	0.000020	0.000021	-165.735163	-76.292282	155.689883
21247	9.584433	-0.512495	-2.249615	-0.003473	0.064762	0.045333	1.000000	0.000001	0.000027	0.000040	-165.734643	-76.294329	155.691510
21248	9.562853	-0.523522	-2.244452	-0.005726	0.053153	0.023823	1.000000	-0.000007	0.000014	0.000041	-165.724346	-76.292624	155.681427
21249	9.573768	-0.505903	-2.280673	0.030369	0.065357	0.041715	1.000000	-0.000006	0.000026	0.000020	-165.728839	-76.296920	155.684092
21250	9.551705	-0.505416	-2.253694	0.009448	0.068227	0.014057	1.000000	-0.000006	0.000029	0.000029	-165.722316	-76.297187	155.678056
21251	9.573409	-0.495682	-2.258049	0.010922	0.078823	0.035577	1.000000	-0.000014	0.000016	0.000031	-165.729191	-76.298477	155.682988
21252	9.573485	-0.496245	-2.257603	0.010436	0.078623	0.035579	1.000000	0.000005	0.000032	0.000030	-165.720658	-76.299046	155.676150
21253	9.595205	-0.486515	-2.261890	0.010829	0.089239	0.057101	1.000000	-0.000021	0.000019	0.000029	-165.739119	-76.295002	155.690369
21254	9.562318	-0.478135	-2.266972	0.024214	0.093645	0.025826	1.000000	0.000004	0.000013	0.000025	-165.735221	-76.293622	155.688134
21255	9.594811	-0.476282	-2.239410	-0.008915	0.102731	0.050961	1.000000	-0.000008	0.000039	0.000026	-165.743231	-76.295943	155.690805
21256	9.595453	-0.487975	-2.260525	0.009265	0.088049	0.057114	1.000000	-0.000010	0.000022	0.000030	-165.737630	-76.295459	155.685213
21257	9.606793	-0.507658	-2.250060	-0.006471	0.071228	0.066879	1.000000	-0.000007	0.000012	0.000033	-165.741246	-76.297258	155.686106
21258	9.573413	-0.488127	-2.233278	-0.011749	0.090116	0.029455	1.000000	-0.000008	0.000039	0.000026	-165.735256	-76.298732	155.680274
21259	9.584367	-0.470559	-2.269439	0.024041	0.102168	0.047376	1.000000	-0.000011	0.000008	0.000042	-165.738825	-76.299149	155.686096
21260	9.606464	-0.498290	-2.227084	-0.026383	0.084406	0.060737	1.000000	0.000005	0.000032	0.000030	-165.730420	-76.299726	155.679369
21261	9.563791	-0.530397	-2.238836	-0.011393	0.046272	0.023853	1.000000	-0.000031	0.000014	0.000019	-165.744608	-76.301899	155.700903
21262	9.585126	-0.483307	-2.289855	0.041545	0.086426	0.053542	1.000000	-0.000002	0.000037	0.000037	-165.733267	-76.302927	155.690356
21263	9.595987	-0.491820	-2.257423	0.006878	0.083992	0.057151	1.000000	-0.000016	0.000026	0.000028	-165.742880	-76.305213	155.699518
21264	9.563140	-0.483353	-2.262393	0.020277	0.088413	0.025883	1.000000	-0.000010	0.000020	0.000021	-165.741547	-76.304773	155.698344
21265	9.584856	-0.473637	-2.266730	0.021621	0.098898	0.047415	1.000000	-0.000010	0.000024	0.000039	-165.746581	-76.306529	155.709961
21266	9.596207	-0.493377	-2.256149	0.005508	0.082659	0.057163	1.000000	-0.000010	0.000022	0.000030	-165.741102	-76.306085	155.704520
21267	9.585006	-0.474730	-2.265869	0.020777	0.097831	0.047427	1.000000	0.000001	0.000023	0.000022	-165.750898	-76.308238	155.720993
21268	9.574689	-0.504547	-2.250644	0.002933	0.070198	0.035648	1.000000	-0.000025	0.000013	0.000030	-165.748291	-76.306757	155.716762
21269	9.585118	-0.475705	-2.265189	0.019740	0.096761	0.047440	1.000000	0.000001	0.000025	0.000031	-165.755966	-76.307801	155.723987
21270	9.575332	-0.517026	-2.271596	0.020577	0.054659	0.041806	1.000000	-0.000007	0.000016	0.000050	-165.741783	-76.306143	155.709877
21271	9.595955	-0.485138	-2.232598	-0.016179	0.094113	0.051038	1.000000	-0.000010	0.000022	0.000030	-165.757500	-76.303863	155.725587
21272	9.574925	-0.507177	-2.249048	0.000285	0.068045	0.035663	1.000000	-0.000006	0.000031	0.000038	-165.747143	-76.304158	155.715596
21273	9.597184	-0.508744	-2.275049	0.020234	0.064155	0.063349	1.000000	-0.000014	0.000016	0.000031	-165.755563	-76.304540	155.722748
21274	9.575049	-0.508318	-2.248265	-0.000658	0.067022	0.035670	1.000000	-0.000010	0.000022	0.000030	-165.750223	-76.304102	155.717443
21275	9.564414	-0.501016	-2.279576	0.033070	0.067752	0.032099	1.000000	0.000005	0.000034	0.000039	-165.752833	-76.305691	155.718454
21276	9.596893	-0.499348	-2.251911	0.000001	0.077343	0.057208	1.000000	-0.000016	0.000026	0.000028	-165.748745	-76.305708	155.713644
21277	9.575292	-0.510107	-2.246823	-0.002034	0.065139	0.035683	1.000000	-0.000007	0.000012	0.000033	-165.754890	-76.306437	155.717646
21278	9.585767	-0.481552	-2.261202	0.014826	0.092338	0.047491	1.000000	-0.000002	0.000041	0.000054	-165.735439	-76.307469	155.698732
21279	9.596579	-0.490085	-2.228829	-0.019769	0.089928	0.051071	1.000000	-0.000020	0.000015	0.000012	-165.752509	-76.309243	155.708167
21280	9.575505	-0.511895	-2.245510	-0.003297	0.063862	0.035691	1.000000	0.000004	0.000015	0.000034	-165.744805	-76.307914	155.701995
21281	9.575555	-0.512491	-2.245159	-0.003713	0.063018	0.035696	1.000000	-0.000010	0.000022	0.000030	-165.752866	-76.309332	155.706531
21282	9.585499	-0.472504	-2.237900	-0.005530	0.104681	0.041361	1.000000	0.000001	0.000025	0.000031	-165.745596	-76.309208	155.700491
21283	9.564986	-0.505694	-2.276141	0.029565	0.063540	0.032138	1.000000	-0.000003	0.000019	0.000032	-165.753403	-76.309426	155.699955
21284	9.586190	-0.484886	-2.258698	0.012120	0.089160	0.047524	1.000000	0.000005	0.000032	0.000030	-165.745349	-76.310052	155.693579
21285	9.564049	-0.484564	-2.231872	-0.009123	0.091448	0.019842	1.000000	-0.000018	0.000011	0.000040	-165.754654	-76.307538	155.695114
21286	9.553938	-0.488551	-2.285021	0.043372	0.078322	0.022440	1.000000	0.000012	0.000030	0.000041	-165.741238	-76.307697	155.683988
21287	9.608573	-0.487829	-2.283940	0.030589	0.084211	0.075235	1.000000	-0.000024	0.000011	0.000021	-165.756997	-76.307178	155.698202
21288	9.564742	-0.497518	-2.252528	0.008005	0.075723	0.026006	1.000000	-0.000003	0.000019	0.000032	-165.750640	-76.306308	155.692592
21289	9.586469	-0.487868	-2.256871	0.008704	0.086252	0.047553	1.000000	-0.000010	0.000022	0.000030	-165.764564	-76.304546	155.701990
21290	9.553643	-0.479427	-2.261854	0.022142	0.090706	0.016312	1.000000	-0.000016	0.000026	0.000028	-165.760694	-76.304577	155.697352
21291	9.587176	-0.500080	-2.277641	0.025742	0.070697	0.053721	1.000000	0.000001	0.000025	0.000031	-165.774335	-76.302414	155.705042
21292	9.607839	-0.467917	-2.238547	-0.010390	0.110779	0.062951	1.000000	-0.000027	0.000021	0.000018	-165.776729	-76.302155	155.705588
21293	9.586810	-0.489657	-2.255033	0.006086	0.084082	0.047574	1.000000	-0.000012	0.000032	0.000027	-165.786296	-76.304436	155.714460
21294	9.565240	-0.500396	-2.249772	0.003894	0.072492	0.026033	1.000000	0.000001	0.000025	0.000031	-165.779248	-76.304305	155.708605
21295	9.608624	-0.480448	-2.258927	0.006936	0.094344	0.069128	1.000000	-0.000000	0.000004	0.000017	-165.793832	-76.304510	155.727883
21296	9.576318	-0.483114	-2.285747	0.039055	0.084334	0.044050	1.000000	-0.000006	0.000029	0.000029	-165.788032	-76.304839	155.722521
21297	9.587098	-0.491583	-2.253388	0.004727	0.081859	0.047594	1.000000	-0.000016	0.000026	0.000028	-165.794403	-76.308957	155.726459
21298	9.587713	-0.503295	-2.274670	0.022912	0.067155	0.053753	1.000000	-0.000003	0.000019	0.000032	-165.788212	-76.308096	155.721006
21299	9.565546	-0.502912	-2.247909	0.001808	0.069393	0.026056	1.000000	-0.000003	0.000019	0.000032	-165.799012	-76.307478	155.732199
21300	9.587272	-0.493308	-2.252270	0.003013	0.080512	0.047605	1.000000	-0.000003	0.000019	0.000032	-165.792859	-76.306617	155.726787
21301	9.575561	-0.463499	-2.240378	-0.000407	0.110175	0.031771	1.000000	-0.000020	0.000019	0.000029	-165.803022	-76.307979	155.732740
21302	9.587342	-0.494317	-2.251751	0.002141	0.079413	0.047615	1.000000	-0.000004	-0.000000	0.000027	-165.801480	-76.305185	155.731912
21303	9.576688	-0.487084	-2.283357	0.035746	0.080117	0.044098	1.000000	0.000008	0.000026	0.000050	-165.801633	-76.304963	155.729002
21304	9.575677	-0.465453	-2.239476	-0.002090	0.108825	0.031786	1.000000	-0.000016	0.000026	0.000028	-165.797987	-76.305014	155.724586
21305	9.587532	-0.496291	-2.250508	0.000192	0.077444	0.047630	1.000000	-0.000006	0.000029	0.000029	-165.808798	-76.305411	155.732684
21306	9.588162	-0.507919	-2.271746	0.018374	0.062733	0.053791	1.000000	-0.000010	0.000020	0.000021	-165.808147	-76.305018	155.732147
21307	9.554247	-0.476954	-2.233428	-0.005742	0.095496	0.010254	1.000000	-0.000010	0.000020	0.000021	-165.824653	-76.304969	155.749708
21308	9.587746	-0.497586	-2.249312	-0.001516	0.076067	0.047641	1.000000	-0.000003	0.000019	0.000032	-165.818637	-76.304113	155.744428
21309	9.610035	-0.499223	-2.275310	0.018928	0.072015	0.075361	1.000000	-0.000010	0.000024	0.000039	-165.819051	-76.308474	155.752150
21310	9.587882	-0.498715	-2.248482	-0.001917	0.074901	0.047650	1.000000	0.000001	0.000021	0.000014	-165.820600	-76.308398	155.755170
21311	9.566796	-0.520512	-2.265166	0.014054	0.048204	0.032259	1.000000	-0.000007	0.000012	0.000033	-165.835350	-76.305527	155.776912
21312	9.587816	-0.462454	-2.294478	0.048177	0.102778	0.056043	1.000000	-0.000006	0.000031	0.000038	-165.825622	-76.305871	155.767502
21313	9.588063	-0.500325	-2.247353	-0.003593	0.072896	0.047664	1.000000	-0.000014	0.000014	0.000022	-165.836567	-76.308023	155.775928
21314	9.588664	-0.511950	-2.268721	0.014595	0.058186	0.053825	1.000000	-0.000010	0.000022	0.000030	-165.831852	-76.307638	155.771206
21315	9.588738	-0.512578	-2.268269	0.014070	0.057343	0.053831	1.000000	-0.000027	0.000027	0.000044	-165.835833	-76.308624	155.769763
21316	9.587736	-0.490889	-2.224322	-0.023774	0.086030	0.041514	1.000000	0.000005	0.000032	0.000030	-165.828296	-76.309282	155.763878
21317	9.566709	-0.512778	-2.240719	-0.006950	0.059389	0.026119	1.000000	-0.000012	0.000032	0.000027	-165.834374	-76.313127	155.765217
21318	9.599512	-0.484956	-2.281548	0.030208	0.083412	0.065744	1.000000	-0.000007	0.000012	0.000033	-165.829295	-76.311552	155.760410
21319	9.576771	-0.473428	-2.233118	-0.009314	0.100126	0.031874	1.000000	-0.000010	0.000024	0.000039	-165.834962	-76.312651	155.766811
21320	9.600182	-0.497391	-2.302473	0.047893	0.067809	0.071916	1.000000	-0.000010	0.000022	0.000030	-165.830322	-76.312280	155.762149
21321	9.598610	-0.464350	-2.236946	-0.008805	0.110364	0.053447	1.000000	0.000001	0.000023	0.000022	-165.843064	-76.312640	155.769503
21322	9.577529	-0.486179	-2.253594	0.007718	0.084320	0.038046	1.000000	-0.000014	0.000016	0.000031	-165.839270	-76.311523	155.765220
21323	9.577590	-0.486660	-2.253231	0.007040	0.083397	0.038054	1.000000	0.000001	0.000023	0.000022	-165.853752	-76.312130	155.789127
21324	9.599376	-0.477055	-2.257406	0.008207	0.094471	0.059622	1.000000	-0.000006	0.000031	0.000038	-165.844183	-76.312499	155.779858
21325	9.577761	-0.487805	-2.252254	0.005817	0.082248	0.038064	1.000000	-0.000020	0.000019	0.000029	-165.858526	-76.312172	155.802717
21326	9.578910	-0.510632	-2.295356	0.042688	0.053076	0.050389	1.000000	0.000004	0.000013	0.000025	-165.855728	-76.310905	155.801543
21327	9.577859	-0.488799	-2.251624	0.004848	0.081091	0.038075	1.000000	-0.000010	0.000022	0.000030	-165.865729	-76.312178	155.813075
21328	9.599636	-0.479131	-2.255861	0.006006	0.092157	0.059645	1.000000	-0.000016	0.000026	0.000028	-165.862448	-76.312268	155.809025
21329	9.578003	-0.489876	-2.250777	0.004665	0.079947	0.038084	1.000000	-0.000014	0.000018	0.000040	-165.860795	-76.316927	155.808543
21330	9.578052	-0.490454	-2.250441	0.004177	0.079692	0.038086	1.000000	-0.000020	0.000019	0.000029	-165.858332	-76.316285	155.804856
21331	9.578089	-0.490968	-2.250173	0.003684	0.078827	0.038093	1.000000	0.000010	0.000009	0.000027	-165.868182	-76.315968	155.810643
21332	9.600418	-0.492543	-2.276105	0.023523	0.075427	0.065827	1.000000	-0.000019	0.000038	0.000034	-165.861157	-76.317268	155.802415
21333	9.600492	-0.493007	-2.275692	0.022919	0.074571	0.065835	1.000000	-0.000018	0.000007	0.000023	-165.877108	-76.316222	155.812714
21334	9.589389	-0.474401	-2.285449	0.038062	0.090405	0.056208	1.000000	-0.000013	0.000036	0.000045	-165.864702	-76.317061	155.799716
21335	9.578397	-0.493239	-2.248363	0.001528	0.076592	0.038112	1.000000	-0.000010	0.000022	0.000030	-165.874951	-76.317681	155.806418
21336	9.579030	-0.504905	-2.269620	0.019720	0.061872	0.044275	1.000000	-0.000016	0.000026	0.000028	-165.871762	-76.317794	155.802444
21337	9.578555	-0.494234	-2.247472	0.000788	0.075477	0.038120	1.000000	-0.000010	0.000022	0.000030	-165.878445	-76.320096	155.803133
21338	9.578061	-0.483630	-2.225387	-0.018380	0.089680	0.031962	1.000000	-0.000003	0.000019	0.000032	-165.872827	-76.319305	155.798228
21339	9.600958	-0.496247	-2.273021	0.020980	0.071171	0.065864	1.000000	0.000005	0.000027	0.000013	-165.879554	-76.326062	155.809155
21340	9.568161	-0.487573	-2.278139	0.034488	0.075700	0.034669	1.000000	-0.000025	0.000013	0.000030	-165.878016	-76.324703	155.805907
21341	9.578850	-0.496128	-2.245797	-0.000551	0.073184	0.038138	1.000000	0.000009	0.000038	0.000029	-165.886387	-76.326331	155.810320
21342	9.568350	-0.488635	-2.277119	0.033277	0.074557	0.034682	1.000000	-0.000020	0.000019	0.000029	-165.884069	-76.325719	155.806748
21343	9.579576	-0.508524	-2.266504	0.016078	0.057622	0.044307	1.000000	0.000001	0.000029	0.000048	-165.893138	-76.321276	155.810391
21344	9.633685	-0.496992	-2.243413	-0.015463	0.078325	0.090919	1.000000	-0.000006	0.000029	0.000029	-165.888025	-76.321690	155.805681
21345	9.556931	-0.497550	-2.217392	-0.023818	0.074138	0.010411	1.000000	0.000001	0.000023	0.000022	-165.898344	-76.323419	155.816596
21346	9.600989	-0.488994	-2.247971	-0.002369	0.082006	0.059736	1.000000	-0.000010	0.000024	0.000039	-165.889877	-76.323082	155.807932
21347	9.589919	-0.470447	-2.257666	0.011987	0.097200	0.050138	1.000000	0.000001	0.000025	0.000031	-165.905920	-76.320388	155.826057
21348	9.579976	-0.511550	-2.264131	0.012913	0.055073	0.044326	1.000000	-0.000003	0.000019	0.000032	-165.900469	-76.319598	155.821300
21349	9.590609	-0.482860	-2.278549	0.029616	0.081585	0.056314	1.000000	-0.000010	0.000024	0.000039	-165.906642	-76.320422	155.830882
21350	9.579547	-0.501562	-2.241610	-0.006812	0.068379	0.038170	1.000000	-0.000010	0.000020	0.000021	-165.906635	-76.320098	155.830950
21351	9.601893	-0.503122	-2.267555	0.013180	0.064358	0.065924	1.000000	-0.000010	0.000024	0.000039	-165.909534	-76.322107	155.830816
21352	9.590256	-0.473405	-2.255611	0.009645	0.094657	0.050165	1.000000	-0.000003	0.000019	0.000032	-165.904133	-76.321325	155.826098
21353	9.601455	-0.493171	-2.245064	-0.017661	0.005754	0.060059	1.000000	-0.000010	0.000022	0.000030	-167.655964	-76.428408	157.342132
21354	9.569230	-0.495798	-2.271866	0.014514	-0.004271	0.035009	1.000000	-0.000010	0.000022	0.000030	-167.656453	-76.428380	157.342377
21355	9.591015	-0.486162	-2.276135	0.015618	0.006388	0.056681	1.000000	-0.000020	0.000019	0.000029	-167.659081	-76.428078	157.349877
21356	9.579952	-0.504866	-2.239137	-0.020853	-0.006766	0.038385	1.000000	0.000005	0.000032	0.000030	-167.656839	-76.429097	157.349064
21357	9.569497	-0.497358	-2.270400	0.012982	-0.005673	0.035010	1.000000	-0.000012	0.000032	0.000027	-167.657857	-76.430470	157.338518
21358	9.590783	-0.476483	-2.252724	-0.004543	0.019554	0.050604	1.000000	-0.000001	0.000033	0.000020	-167.661124	-76.431917	157.342597
21359	9.579724	-0.495187	-2.215664	-0.040991	0.006398	0.032300	1.000000	-0.000010	0.000024	0.000039	-167.657393	-76.432055	157.337286
21360	9.590399	-0.466503	-2.230007	-0.024192	0.033187	0.044524	1.000000	0.000001	0.000025	0.000031	-167.655870	-76.432325	157.336731
21361	9.570430	-0.510632	-2.290084	0.029566	-0.022106	0.041093	1.000000	-0.000003	0.000016	0.000023	-167.659303	-76.431992	157.332602
21362	9.568824	-0.477593	-2.224509	-0.026826	0.021138	0.022849	1.000000	-0.000012	0.000032	0.000027	-167.660352	-76.433165	157.333117
21363	9.569482	-0.489253	-2.245705	-0.008721	0.006101	0.028930	1.000000	-0.000010	0.000022	0.000030	-167.660998	-76.433170	157.330512
21364	9.580122	-0.460485	-2.260258	0.008077	0.032888	0.041164	1.000000	-0.000011	0.000006	0.000034	-167.661641	-76.431194	157.330740
21365	9.580655	-0.509555	-2.235063	-0.025460	-0.010964	0.038371	1.000000	-0.000020	0.000019	0.000029	-167.664238	-76.430936	157.334603
21366	9.591926	-0.491967	-2.271044	0.009957	0.001256	0.056690	1.000000	-0.000002	0.000037	0.000037	-167.659050	-76.432428	157.329960
21367	9.547993	-0.501607	-2.239553	-0.012387	-0.006873	0.007250	1.000000	-0.000003	0.000016	0.000023	-167.662500	-76.432086	157.324224
21368	9.580973	-0.473837	-2.280304	0.024642	0.016454	0.047255	1.000000	0.000001	0.000025	0.000031	-167.660973	-76.432356	157.323665
21369	9.570421	-0.503682	-2.265105	0.006825	-0.011263	0.035012	1.000000	-0.000003	0.000016	0.000023	-167.664422	-76.431998	157.323764
21370	9.592220	-0.494084	-2.269343	0.007912	-0.000615	0.056692	1.000000	0.000001	0.000025	0.000031	-167.662894	-76.432268	157.323205
21371	9.559466	-0.485679	-2.274361	0.021509	0.003937	0.025580	1.000000	-0.000017	0.000030	0.000045	-167.656275	-76.432868	157.304614
21372	9.602930	-0.503607	-2.236426	-0.027444	-0.003111	0.060038	1.000000	0.000019	0.000024	0.000034	-167.651448	-76.432983	157.302719
21373	9.592458	-0.496150	-2.267886	0.006359	-0.002019	0.056693	1.000000	-0.000020	0.000019	0.000029	-167.654123	-76.432660	157.303831
21374	9.603058	-0.504623	-2.235647	-0.028494	-0.004043	0.060035	1.000000	-0.000010	0.000020	0.000021	-167.658829	-76.432610	157.308428
21375	9.592598	-0.497047	-2.267096	0.005305	-0.002948	0.056694	1.000000	0.000001	0.000025	0.000031	-167.657512	-76.432854	157.307267
21376	9.570360	-0.496593	-2.240346	-0.015439	0.000060	0.028924	1.000000	-0.000003	0.000019	0.000032	-167.656704	-76.432375	157.306967
21377	9.592702	-0.498245	-2.266392	0.004261	-0.003879	0.056694	1.000000	-0.000007	0.000012	0.000033	-167.656766	-76.431182	157.304142
21378	9.592205	-0.487618	-2.244270	-0.014880	0.010232	0.050608	1.000000	-0.000012	0.000032	0.000027	-167.657806	-76.432355	157.304649
21379	9.581659	-0.517310	-2.228971	-0.032708	-0.017477	0.038340	1.000000	0.000001	0.000021	0.000014	-167.664843	-76.432620	157.314573
21380	9.581833	-0.480287	-2.275335	0.018407	0.010870	0.047277	1.000000	-0.000025	0.000013	0.000030	-167.668055	-76.431548	157.315868
21381	9.592438	-0.488934	-2.242989	-0.016488	0.008836	0.050606	1.000000	-0.000002	0.000037	0.000037	-167.663266	-76.432823	157.318587
21382	9.571934	-0.521881	-2.281241	0.018638	-0.031861	0.041093	1.000000	-0.000010	0.000020	0.000021	-167.667970	-76.432773	157.323181
21383	9.581517	-0.470609	-2.252242	-0.001769	0.024043	0.041193	1.000000	-0.000010	0.000020	0.000021	-167.672580	-76.433003	157.303237
21384	9.604309	-0.520699	-2.253307	-0.015110	-0.023273	0.066104	1.000000	-0.000007	0.000012	0.000033	-167.672492	-76.431776	157.303195
21385	9.592142	-0.479726	-2.219679	-0.037140	0.021550	0.044516	1.000000	-0.000006	0.000029	0.000029	-167.672348	-76.432548	157.302321
21386	9.560529	-0.493472	-2.268205	0.013691	-0.003015	0.025594	1.000000	-0.000003	0.000019	0.000032	-167.671535	-76.432069	157.302015
21387	9.604517	-0.522400	-2.252027	-0.016661	-0.024675	0.066098	1.000000	-0.000006	0.000029	0.000029	-167.671337	-76.432881	157.299128
21388	9.559540	-0.472289	-2.223895	-0.024568	0.025210	0.013417	1.000000	-0.000003	0.000019	0.000032	-167.670524	-76.432402	157.298821
21389	9.593577	-0.504339	-2.261336	-0.001959	-0.009467	0.056691	1.000000	0.000001	0.000025	0.000031	-167.668919	-76.432865	157.295191
21390	9.593676	-0.504707	-2.260832	-0.002483	-0.009928	0.056690	1.000000	-0.000012	0.000028	0.000010	-167.678410	-76.433993	157.304418
21391	9.560356	-0.484742	-2.244281	-0.007498	0.009239	0.019506	1.000000	-0.000014	0.000016	0.000031	-167.679754	-76.433178	157.317810
21392	9.582725	-0.486373	-2.270281	0.012179	0.005294	0.047291	1.000000	-0.000003	0.000019	0.000032	-167.678938	-76.432699	157.317502
21393	9.615038	-0.484847	-2.242642	-0.021073	0.014334	0.072292	1.000000	-0.000010	0.000020	0.000021	-167.683640	-76.432792	157.315778
21394	9.571614	-0.505434	-2.233001	-0.024756	-0.008298	0.028901	1.000000	-0.000016	0.000026	0.000028	-167.685398	-76.433217	157.316543
21395	9.593438	-0.495898	-2.237174	-0.023691	0.002318	0.050595	1.000000	-0.000021	0.000021	0.000038	-167.683746	-76.432979	157.309065
21396	9.571769	-0.506597	-2.232070	-0.025791	-0.009226	0.028898	1.000000	0.000005	0.000032	0.000030	-167.681478	-76.433996	157.308229
21397	9.583114	-0.488965	-2.268080	0.009610	0.002962	0.047295	1.000000	-0.000020	0.000019	0.000029	-167.684007	-76.433770	157.305026
21398	9.604933	-0.479299	-2.272320	0.010661	0.013582	0.068993	1.000000	-0.000010	0.000020	0.000021	-167.688705	-76.433720	157.309615
21399	9.560335	-0.477719	-2.219313	-0.030242	0.020102	0.013413	1.000000	-0.000003	0.000021	0.000041	-167.683759	-76.433273	157.313746
21400	9.583293	-0.490543	-2.266983	0.008040	0.001577	0.047296	1.000000	-0.000003	0.000016	0.000023	-167.687168	-76.432771	157.317797
21401	9.594430	-0.510266	-2.256380	-0.008224	-0.015042	0.056681	1.000000	-0.000006	0.000029	0.000029	-167.687195	-76.433339	157.332898
21402	9.594144	-0.462277	-2.280881	0.024241	0.027894	0.059615	1.000000	-0.000003	0.000019	0.000032	-167.686375	-76.432859	157.332585
21403	9.582940	-0.480890	-2.244002	-0.012183	0.014755	0.041204	1.000000	-0.000016	0.000024	0.000019	-167.692488	-76.433262	157.344974
21404	9.583035	-0.481390	-2.243492	-0.012706	0.014294	0.041204	1.000000	-0.000006	0.000031	0.000038	-167.688000	-76.434006	157.340570
21405	9.550944	-0.484072	-2.270010	0.019493	0.004369	0.016219	1.000000	0.000007	0.000050	0.000035	-167.681762	-76.436718	157.355523
21406	9.594341	-0.502154	-2.231902	-0.029512	-0.002803	0.050580	1.000000	-0.000007	0.000016	0.000050	-167.673206	-76.435535	157.346743
21407	9.583326	-0.483591	-2.241771	-0.014343	0.012901	0.041204	1.000000	-0.000003	0.000016	0.000023	-167.676808	-76.434985	157.359643
21408	9.562208	-0.505325	-2.258496	0.002217	-0.013186	0.025595	1.000000	0.000001	0.000025	0.000031	-167.675259	-76.435253	157.359064
21409	9.584017	-0.495823	-2.262768	0.003252	-0.002583	0.047299	1.000000	-0.000018	0.000009	0.000032	-167.677257	-76.433802	157.353177
21410	9.573597	-0.488291	-2.294338	0.037063	-0.001424	0.044026	1.000000	0.000001	0.000025	0.000031	-167.675707	-76.434071	157.352597
21411	9.584164	-0.496922	-2.261905	0.002198	-0.003510	0.047299	1.000000	-0.000012	0.000032	0.000027	-167.676912	-76.435202	157.363194
21412	9.584243	-0.497337	-2.261479	0.001676	-0.003971	0.047299	1.000000	-0.000014	0.000014	0.000022	-167.682333	-76.434405	157.368044
21413	9.584292	-0.497751	-2.261181	0.001183	-0.004443	0.047299	1.000000	-0.000020	0.000019	0.000029	-167.684759	-76.434267	157.359663
21414	9.573865	-0.490061	-2.292839	0.034993	-0.003278	0.044033	1.000000	-0.000018	0.000007	0.000023	-167.690904	-76.432721	157.364775
21415	9.584386	-0.498730	-2.260565	0.000148	-0.005374	0.047298	1.000000	0.000005	0.000034	0.000039	-167.684457	-76.433833	157.358507
21416	9.583342	-0.477136	-2.216491	-0.037634	0.023271	0.035103	1.000000	-0.000012	0.000034	0.000036	-167.681247	-76.435029	157.354633
21417	9.573554	-0.480794	-2.269597	0.014834	0.009873	0.037940	1.000000	-0.000003	0.000019	0.000032	-167.680403	-76.434707	157.342990
21418	9.573632	-0.481360	-2.269150	0.014311	0.009413	0.037941	1.000000	-0.000006	0.000029	0.000029	-167.680135	-76.435428	157.342942
21419	9.584749	-0.501147	-2.258491	-0.001899	-0.007238	0.047297	1.000000	-0.000010	0.000022	0.000030	-167.680611	-76.435530	157.335658
21420	9.584251	-0.490451	-2.236319	-0.021047	0.006859	0.041198	1.000000	-0.000005	0.000027	0.000021	-167.684574	-76.436228	157.339975
21421	9.573896	-0.482827	-2.267721	0.012729	0.008025	0.037944	1.000000	0.000001	0.000025	0.000031	-167.683327	-76.436317	157.359908
21422	9.596002	-0.522105	-2.246968	-0.019201	-0.024810	0.056646	1.000000	-0.000007	0.000016	0.000050	-167.674762	-76.435135	157.351120
21423	9.585031	-0.503462	-2.256778	-0.004044	-0.009087	0.047295	1.000000	-0.000016	0.000024	0.000019	-167.681017	-76.435403	157.367385
21424	9.574093	-0.484654	-2.266500	0.011134	0.006644	0.037947	1.000000	0.000001	0.000025	0.000031	-167.679459	-76.435671	157.366798
21425	9.585200	-0.504363	-2.255860	-0.005060	-0.010019	0.047293	1.000000	-0.000016	0.000024	0.000019	-167.685370	-76.436255	157.362664
21426	9.573704	-0.474377	-2.243773	-0.008512	0.020260	0.031848	1.000000	-0.000001	0.000035	0.000028	-167.684370	-76.437724	157.362347
21427	9.574382	-0.486172	-2.264956	0.009591	0.005245	0.037950	1.000000	-0.000003	0.000021	0.000041	-167.679472	-76.437243	157.356332
21428	9.586011	-0.517209	-2.276232	0.011998	-0.025957	0.053392	1.000000	-0.000000	0.000006	0.000026	-167.682314	-76.435540	157.360103
21429	9.573886	-0.476141	-2.242622	-0.010064	0.018866	0.031850	1.000000	-0.000012	0.000032	0.000027	-167.683330	-76.436832	157.354281
21430	9.584971	-0.496102	-2.231985	-0.026292	0.002212	0.041187	1.000000	-0.000007	0.000016	0.000050	-167.674761	-76.435650	157.345488
21431	9.585607	-0.507846	-2.253347	-0.008161	-0.012808	0.047288	1.000000	0.000001	0.000021	0.000014	-167.681634	-76.436032	157.342114
21432	9.575242	-0.500125	-2.284902	0.025653	-0.011632	0.044055	1.000000	-0.000014	0.000016	0.000031	-167.682817	-76.435257	157.342591
21433	9.575307	-0.500621	-2.284520	0.025108	-0.012088	0.044056	1.000000	-0.000016	0.000026	0.000028	-167.684814	-76.435553	157.355490
21434	9.563452	-0.508054	-2.225856	-0.029893	-0.010694	0.019462	1.000000	-0.000005	0.000027	0.000021	-167.688770	-76.436252	157.359801
21435	9.607081	-0.488552	-2.234593	-0.027447	0.010931	0.062900	1.000000	-0.000007	0.000014	0.000042	-167.684841	-76.434771	157.374753
21436	9.553740	-0.512200	-2.278706	0.021991	-0.024504	0.022338	1.000000	-0.000005	0.000027	0.000021	-167.688797	-76.435469	157.379064
21437	9.585803	-0.462141	-2.275864	0.021583	0.027858	0.050350	1.000000	-0.000020	0.000019	0.000029	-167.691133	-76.435372	157.370910
21438	9.564327	-0.521324	-2.245853	-0.013353	-0.027095	0.025558	1.000000	-0.000002	0.000037	0.000037	-167.685892	-76.436863	157.366218
21439	9.564207	-0.473404	-2.270245	0.019076	0.015878	0.028632	1.000000	-0.000003	0.000019	0.000032	-167.684923	-76.436614	157.348997
21440	9.597639	-0.494402	-2.285960	0.022982	-0.004291	0.065783	1.000000	-0.000021	0.000021	0.000038	-167.683156	-76.436316	157.345641
21441	9.574753	-0.482730	-2.237508	-0.016309	0.013301	0.031850	1.000000	-0.000006	0.000029	0.000029	-167.682994	-76.437031	157.349746
21442	9.597798	-0.495552	-2.285045	0.021932	-0.005217	0.065785	1.000000	-0.000003	0.000019	0.000032	-167.682156	-76.436551	157.349415
21443	9.574890	-0.483946	-2.236657	-0.017335	0.012373	0.031850	1.000000	-0.000010	0.000024	0.000039	-167.678369	-76.436657	157.339177
21444	9.575541	-0.495734	-2.257971	0.000773	-0.002637	0.037955	1.000000	-0.000003	0.000019	0.000032	-167.677530	-76.436177	157.338845
21445	9.598010	-0.497387	-2.283757	0.020363	-0.006611	0.065788	1.000000	-0.000012	0.000032	0.000027	-167.678731	-76.437272	157.347382
21446	9.575720	-0.496685	-2.257002	-0.000287	-0.003561	0.037955	1.000000	-0.000010	0.000020	0.000021	-167.683412	-76.437223	157.351956
21447	9.575796	-0.497169	-2.256575	-0.000807	-0.004027	0.037955	1.000000	0.000001	0.000025	0.000031	-167.681928	-76.437512	157.355174
21448	9.597683	-0.487720	-2.260607	0.000162	0.006545	0.059682	1.000000	-0.000006	0.000029	0.000029	-167.681643	-76.438233	157.355111
21449	9.586787	-0.468975	-2.270314	0.015325	0.022293	0.050375	1.000000	-0.000010	0.000022	0.000030	-167.682286	-76.438129	157.359587
21450	9.609396	-0.519121	-2.271327	0.002031	-0.025137	0.075096	1.000000	-0.000014	0.000014	0.000022	-167.687697	-76.437332	157.364427
21451	9.576072	-0.499200	-2.254955	-0.002916	-0.005877	0.037954	1.000000	-0.000003	0.000019	0.000032	-167.686996	-76.436827	157.369379
21452	9.565768	-0.491658	-2.286380	0.030900	-0.004662	0.034759	1.000000	0.000005	0.000031	0.000030	-167.684691	-76.437842	157.368509
21453	9.576250	-0.500404	-2.253931	-0.003920	-0.006809	0.037953	1.000000	0.000001	0.000025	0.000031	-167.682958	-76.438351	157.355189
21454	9.576894	-0.512141	-2.275297	0.014191	-0.021814	0.044061	1.000000	-0.000007	0.000012	0.000033	-167.682846	-76.437123	157.355121
21455	9.576955	-0.512790	-2.274894	0.013675	-0.022280	0.044061	1.000000	-0.000006	0.000031	0.000038	-167.678372	-76.437912	157.349174
21456	9.586685	-0.461758	-2.245704	-0.006929	0.033588	0.044278	1.000000	-0.000010	0.000020	0.000021	-167.683050	-76.437863	157.353745
21457	9.577110	-0.513772	-2.274021	0.012654	-0.023211	0.044060	1.000000	-0.000010	0.000022	0.000030	-167.683432	-76.437989	157.349036
21458	9.598395	-0.493199	-2.256389	-0.005022	0.001896	0.059683	1.000000	0.000001	0.000025	0.000031	-167.681855	-76.438256	157.348430
21459	9.576048	-0.492583	-2.229806	-0.025623	0.004952	0.031838	1.000000	-0.000007	0.000010	0.000024	-167.685881	-76.437190	157.343559
21460	9.576696	-0.504168	-2.251193	-0.007515	-0.010057	0.037948	1.000000	-0.000016	0.000026	0.000028	-167.687609	-76.437618	157.344296
21461	9.599746	-0.516969	-2.298811	0.030712	-0.028599	0.071904	1.000000	-0.000007	0.000012	0.000033	-167.687487	-76.436482	157.341253
21462	9.598032	-0.484098	-2.233239	-0.025701	0.014582	0.053571	1.000000	-0.000012	0.000032	0.000027	-167.688482	-76.437657	157.341721
21463	9.565939	-0.486442	-2.260172	0.006632	0.004771	0.028660	1.000000	-0.000014	0.000016	0.000031	-167.689799	-76.436832	157.343949
21464	9.588389	-0.488143	-2.286099	0.026211	0.000781	0.056510	1.000000	-0.000003	0.000019	0.000032	-167.688950	-76.436351	157.343608
21465	9.543648	-0.486468	-2.233192	-0.014504	0.007377	0.000811	1.000000	0.000001	0.000025	0.000031	-167.687407	-76.436668	157.339260
21466	9.609159	-0.457084	-2.246289	-0.010619	0.039962	0.066026	1.000000	0.000001	0.000025	0.000031	-167.685825	-76.436935	157.338650
21467	9.523692	-0.482546	-2.317769	0.071816	-0.004774	0.000591	1.000000	-0.000027	0.000027	0.000044	-167.680878	-76.437420	157.313675
21468	9.660496	-0.488159	-2.064038	-0.201936	0.045254	0.075736	1.000000	0.000019	0.000024	0.000034	-167.675988	-76.437525	157.311718
21469	9.518389	-0.662055	-2.472881	0.188301	-0.207390	0.039963	1.000000	0.000041	-0.000001	0.000025	-167.675076	-76.435201	157.301896
21470	9.577807	-0.423830	-2.318548	0.071787	0.057631	0.050436	1.000000	-0.000282	0.000067	0.000059	-167.688823	-76.439455	157.283728
21471	9.655278	-0.341093	-1.891929	-0.338169	0.218331	0.023882	1.000000	0.000243	0.000011	0.000018	-167.666983	-76.438534	157.291462
21472	9.521645	-0.671061	-2.604575	0.312772	-0.238091	0.073735	1.000000	0.000027	0.000035	0.000024	-167.664858	-76.440111	157.293332
21473	9.620178	-0.469606	-2.210590	-0.048520	0.035039	0.069189	1.000000	-0.000152	0.000047	0.000038	-167.675330	-76.442763	157.287695
21474	9.596689	-0.446734	-2.140234	-0.106376	0.067234	0.029100	1.000000	0.000103	0.000026	0.000029	-167.662922	-76.443216	157.288013
21475	9.560332	-0.600944	-2.391390	0.113649	-0.129889	0.058991	1.000000	-0.000020	0.000017	0.000020	-167.669771	-76.442808	157.297141
21476	9.575572	-0.420203	-2.181452	-0.057382	0.084190	0.016682	1.000000	-0.000086	0.000033	0.000034	-167.676247	-76.443929	157.294510
21477	9.607238	-0.407801	-2.131718	-0.109377	0.107621	0.035459	1.000000	0.000079	0.000031	0.000024	-167.668357	-76.445147	157.289530
21478	9.526653	-0.570821	-2.352149	0.089116	-0.096955	0.015752	1.000000	0.000004	0.000013	0.000025	-167.670454	-76.444190	157.293019
21479	9.598292	-0.471630	-2.181338	-0.071727	0.035805	0.041320	1.000000	-0.000034	0.000029	0.000034	-167.671273	-76.444853	157.287311
21480	9.598318	-0.472247	-2.181094	-0.072251	0.035342	0.041318	1.000000	0.000002	-0.000002	0.000038	-167.669313	-76.441970	157.286428
21481	9.546706	-0.480628	-2.315680	0.066077	-0.000246	0.022383	1.000000	-0.000007	0.000012	0.000033	-167.669086	-76.440935	157.274290
21482	9.598322	-0.473478	-2.180805	-0.073259	0.034423	0.041314	1.000000	-0.000018	0.000009	0.000032	-167.670986	-76.439417	157.275021
21483	9.566159	-0.475838	-2.208152	-0.040943	0.024618	0.016427	1.000000	-0.000015	-0.000001	0.000035	-167.672662	-76.436456	157.293350
21484	9.567957	-0.509754	-2.273222	0.014406	-0.019500	0.034779	1.000000	-0.000025	0.000013	0.000030	-167.675847	-76.435392	157.294617
21485	9.611633	-0.490344	-2.282009	0.016750	0.002036	0.078278	1.000000	-0.000007	0.000012	0.000033	-167.675962	-76.434019	157.306363
21486	9.589222	-0.489665	-2.255611	-0.003844	0.005127	0.050411	1.000000	-0.000018	0.000007	0.000023	-167.682096	-76.432478	157.311463
21487	9.578371	-0.568164	-2.215704	-0.054386	-0.066029	0.034649	1.000000	0.000018	0.000026	0.000043	-167.672950	-76.432701	157.302986
21488	9.566866	-0.441403	-2.253616	0.007932	0.051215	0.025801	1.000000	0.000017	0.000008	0.000038	-167.668232	-76.430856	157.301022
21489	9.557194	-0.639393	-2.207428	-0.071114	-0.135958	0.015739	1.000000	-0.000003	0.000019	0.000032	-167.667476	-76.430359	157.301038
21490	9.622101	-0.355949	-2.323428	0.078406	0.128417	0.091211	1.000000	0.000011	0.000007	0.000018	-167.672515	-76.428925	157.308352
21491	9.526876	-0.626945	-2.324502	0.049512	-0.146361	0.012477	1.000000	0.000028	0.000006	0.000021	-167.674326	-76.427331	157.315561
21492	9.625186	-0.509493	-2.381754	0.104749	-0.032170	0.115280	1.000000	-0.000121	0.000035	0.000028	-167.687415	-76.428784	157.315622
21493	9.624201	-0.355082	-1.911651	-0.316938	0.198569	-0.001170	1.000000	0.000080	0.000026	0.000007	-167.688190	-76.429727	157.330075
21494	9.573775	-0.566597	-2.490736	0.209684	-0.111544	0.093147	1.000000	0.000066	-0.000008	0.000022	-167.686983	-76.426579	157.337446
21495	9.600558	-0.465151	-2.267514	0.008602	0.028184	0.062930	1.000000	-0.000054	0.000040	0.000028	-167.691604	-76.428645	157.334666
21496	9.578842	-0.475645	-2.262408	0.006650	0.016738	0.041176	1.000000	0.000047	0.000024	0.000030	-167.685603	-76.428854	157.334908
21497	9.569269	-0.430495	-2.340390	0.091897	0.046937	0.047485	1.000000	-0.000047	0.000034	0.000021	-167.693540	-76.430102	157.357456
21498	9.546342	-0.467138	-2.266920	0.019842	0.021088	0.010191	1.000000	-0.000001	0.000035	0.000028	-167.692494	-76.431570	157.357099
21499	9.591348	-0.421486	-2.343711	0.092263	0.057002	0.069257	1.000000	-0.000021	0.000021	0.000038	-167.690802	-76.431267	157.355853
21500	9.556197	-0.513799	-2.187347	-0.067020	-0.010496	0.003869	1.000000	-0.000019	0.000034	0.000017	-167.697301	-76.432876	157.361215
21501	9.569074	-0.469813	-2.291602	0.038323	0.016152	0.038080	1.000000	0.000014	0.000018	0.000035	-167.693228	-76.432238	157.364080
21502	9.579435	-0.527410	-2.234154	-0.029375	-0.029518	0.037868	1.000000	-0.000015	0.000049	0.000051	-167.682040	-76.434683	157.351678
21503	9.569898	-0.482544	-2.312086	0.055906	0.000697	0.044209	1.000000	0.000004	0.000015	0.000034	-167.680013	-76.433716	157.352918
21504	9.602046	-0.530078	-2.259303	-0.010377	-0.034001	0.065747	1.000000	-0.000023	0.000034	0.000044	-167.674531	-76.434646	157.345428
21505	9.579688	-0.529461	-2.232580	-0.030951	-0.030910	0.037859	1.000000	-0.000027	0.000023	0.000027	-167.678377	-76.434757	157.347215
21506	9.579806	-0.481336	-2.257115	0.001351	0.012122	0.041185	1.000000	-0.000014	0.000016	0.000031	-167.679534	-76.433985	157.347666
21507	9.578555	-0.508308	-2.188529	-0.069244	-0.002767	0.025603	1.000000	0.000010	0.000011	0.000036	-167.676019	-76.432737	157.339018
21508	9.581083	-0.504889	-2.300017	0.037601	-0.017876	0.053437	1.000000	-0.000003	0.000019	0.000032	-167.675151	-76.432257	157.338658
21509	9.568893	-0.512281	-2.241884	-0.017309	-0.016504	0.028634	1.000000	-0.000012	-0.000017	0.000011	-167.688742	-76.428257	157.354735
21510	9.569545	-0.475312	-2.288499	0.033627	0.011997	0.038103	1.000000	0.000004	0.000017	0.000043	-167.682349	-76.427344	157.349463
21511	9.581667	-0.517584	-2.321482	0.054655	-0.033788	0.059566	1.000000	-0.000035	0.000012	0.000038	-167.683473	-76.425938	157.351662
21512	9.592072	-0.477740	-2.314132	0.052602	0.007517	0.066000	1.000000	-0.000010	0.000022	0.000030	-167.683889	-76.425913	157.351838
21513	9.601824	-0.475489	-2.259994	-0.000917	0.019852	0.062954	1.000000	-0.000017	0.000030	0.000046	-167.677254	-76.426331	157.347201
21514	9.580097	-0.486141	-2.254850	-0.002836	0.008422	0.041188	1.000000	-0.000008	0.000041	0.000035	-167.673244	-76.428275	157.342996
21515	9.613576	-0.507455	-2.270050	0.000994	-0.011877	0.078286	1.000000	0.000009	0.000042	0.000047	-167.661564	-76.430251	157.323842
21516	9.559743	-0.519831	-2.292305	0.032028	-0.032538	0.031676	1.000000	0.000016	0.000032	0.000023	-167.661429	-76.431532	157.326492
21517	9.590816	-0.496573	-2.220496	-0.038724	0.005291	0.044260	1.000000	-0.000007	0.000062	0.000049	-167.648834	-76.435451	157.316615
21518	9.601842	-0.516615	-2.209450	-0.054955	-0.011441	0.053455	1.000000	0.000012	0.000026	0.000024	-167.649436	-76.435985	157.319538
21519	9.591715	-0.508964	-2.240693	-0.021139	-0.010167	0.050385	1.000000	0.000014	0.000044	0.000029	-167.645719	-76.438450	157.320961
21520	9.580858	-0.538878	-2.225294	-0.038756	-0.037863	0.037807	1.000000	-0.000006	0.000031	0.000038	-167.641150	-76.439194	157.316481
21521	9.590714	-0.488025	-2.195987	-0.059491	0.017957	0.038123	1.000000	0.000001	0.000025	0.000031	-167.639759	-76.439313	157.326342
21522	9.590769	-0.488578	-2.195623	-0.060014	0.017494	0.038120	1.000000	0.000004	0.000013	0.000025	-167.641841	-76.438356	157.329815
21523	9.558074	-0.479612	-2.201171	-0.046212	0.022345	0.007157	1.000000	0.000011	0.000007	0.000019	-167.646931	-76.436927	157.339281
21524	9.579294	-0.459065	-2.183919	-0.063997	0.047366	0.022798	1.000000	-0.000019	-0.000007	0.000035	-167.649018	-76.433462	157.340015
21525	9.570249	-0.473697	-2.259266	0.007086	0.019614	0.032002	1.000000	-0.000007	0.000012	0.000033	-167.649089	-76.432122	157.350080
21526	9.581105	-0.493749	-2.248909	-0.009138	0.002869	0.041188	1.000000	-0.000005	0.000004	0.000044	-167.644170	-76.429715	157.345351
21527	9.570218	-0.475038	-2.259118	0.006065	0.018686	0.032005	1.000000	-0.000015	-0.000003	0.000026	-167.649682	-76.427102	157.344340
21528	9.592635	-0.476757	-2.285420	0.025557	0.014659	0.059912	1.000000	-0.000019	-0.000007	0.000035	-167.651766	-76.423637	157.345071
21529	9.592589	-0.477384	-2.285484	0.025026	0.014197	0.059914	1.000000	-0.000005	0.000002	0.000036	-167.651205	-76.421177	157.349179
21530	9.570735	-0.487891	-2.280862	0.023134	0.002782	0.038140	1.000000	-0.000014	0.000016	0.000031	-167.652354	-76.420407	157.349623
21531	9.604072	-0.509095	-2.296631	0.026938	-0.017543	0.075227	1.000000	-0.000011	0.000008	0.000042	-167.648646	-76.418572	157.334321
21532	9.593254	-0.490552	-2.306540	0.042119	-0.001720	0.066053	1.000000	0.000008	0.000023	0.000042	-167.641506	-76.418403	157.328767
21533	9.559284	-0.508237	-2.243252	-0.014113	-0.011325	0.019406	1.000000	0.000007	0.000050	0.000035	-167.634682	-76.421463	157.316101
21534	9.572263	-0.512892	-2.322421	0.058361	-0.028124	0.050411	1.000000	-0.000010	0.000020	0.000021	-167.639325	-76.421417	157.320640
21535	9.580747	-0.488421	-2.224832	-0.032416	0.013224	0.035049	1.000000	0.000029	0.000029	0.000044	-167.628093	-76.421912	157.308126
21536	9.571658	-0.551898	-2.274676	0.005909	-0.058046	0.040838	1.000000	0.000027	0.000037	0.000033	-167.621676	-76.423502	157.305574
21537	9.572604	-0.515121	-2.320521	0.056800	-0.029518	0.050416	1.000000	-0.000008	0.000041	0.000035	-167.617705	-76.425425	157.298028
21538	9.592572	-0.521066	-2.234232	-0.031057	-0.018973	0.050345	1.000000	0.000005	0.000031	0.000030	-167.615339	-76.426436	157.297100
21539	9.571033	-0.483079	-2.253953	-0.000158	0.013137	0.032015	1.000000	0.000038	0.000040	0.000034	-167.606911	-76.428335	157.292524
21540	9.560705	-0.524155	-2.260434	0.000891	-0.029080	0.025531	1.000000	-0.000003	0.000019	0.000032	-167.606030	-76.427855	157.292151
21541	9.571225	-0.484440	-2.252845	-0.001207	0.012214	0.032016	1.000000	-0.000001	0.000037	0.000037	-167.600787	-76.429325	157.292983
21542	9.582767	-0.515452	-2.263808	0.001203	-0.019062	0.047312	1.000000	-0.000010	0.000020	0.000021	-167.605431	-76.429281	157.297522
21543	9.571382	-0.485508	-2.251950	-0.002246	0.011289	0.032017	1.000000	-0.000014	0.000018	0.000040	-167.602354	-76.428568	157.292672
21544	9.570800	-0.475114	-2.229931	-0.021409	0.025351	0.025882	1.000000	-0.000007	0.000014	0.000042	-167.597975	-76.427363	157.288200
21545	9.593911	-0.488074	-2.277663	0.016682	0.006785	0.059940	1.000000	-0.000011	0.000003	0.000025	-167.602982	-76.425274	157.300148
21546	9.582240	-0.506738	-2.241170	-0.019537	-0.006391	0.041171	1.000000	-0.000000	0.000008	0.000035	-167.601559	-76.423592	157.299514
21547	9.572039	-0.499104	-2.272950	0.014274	-0.005073	0.038156	1.000000	-0.000018	0.000009	0.000032	-167.603603	-76.421991	157.306571
21548	9.595144	-0.512197	-2.320674	0.052384	-0.023634	0.072218	1.000000	-0.000011	0.000010	0.000051	-167.595731	-76.420060	157.298005
21549	9.573291	-0.522774	-2.315969	0.050523	-0.035034	0.050432	1.000000	-0.000020	0.000019	0.000029	-167.598171	-76.419776	157.296579
21550	9.583136	-0.471700	-2.287069	0.029758	0.020776	0.050799	1.000000	-0.000026	-0.000006	0.000025	-167.605786	-76.416749	157.302226
21551	9.562488	-0.504418	-2.325919	0.065171	-0.019645	0.041290	1.000000	0.000008	0.000023	0.000042	-167.598785	-76.416491	157.302665
21552	9.583553	-0.532784	-2.283372	0.014597	-0.038200	0.053440	1.000000	-0.000014	0.000018	0.000040	-167.595691	-76.415743	157.298729
21553	9.562014	-0.494728	-2.303315	0.045499	-0.006058	0.035156	1.000000	-0.000012	0.000034	0.000036	-167.592292	-76.417049	157.287254
21554	9.605609	-0.524162	-2.286791	0.014902	-0.028199	0.075228	1.000000	-0.000010	0.000022	0.000030	-167.592688	-76.417025	157.287410
21555	9.594888	-0.505253	-2.296546	0.030103	-0.012362	0.066089	1.000000	-0.000005	0.000027	0.000021	-167.596477	-76.417845	157.286560
21556	9.572516	-0.504426	-2.269765	0.009605	-0.009232	0.038159	1.000000	-0.000008	0.000039	0.000027	-167.596665	-76.419770	157.286693
21557	9.594536	-0.495027	-2.273527	0.010467	0.001222	0.059951	1.000000	-0.000012	0.000032	0.000027	-167.597291	-76.421249	157.271246
21558	9.562602	-0.496886	-2.300408	0.042961	-0.008385	0.035165	1.000000	-0.000025	0.000035	0.000006	-167.609271	-76.423300	157.281483
21559	9.594230	-0.484503	-2.250356	-0.009185	0.014817	0.053811	1.000000	0.000007	0.000050	0.000036	-167.602270	-76.426458	157.262383
21560	9.561087	-0.464429	-2.233619	-0.013962	0.034261	0.016746	1.000000	-0.000001	0.000033	0.000020	-167.605413	-76.427905	157.266354
21561	9.572623	-0.495403	-2.244508	-0.011543	0.002968	0.032017	1.000000	0.000005	0.000031	0.000030	-167.602949	-76.429030	157.260208
21562	9.594623	-0.486144	-2.248324	-0.010735	0.013428	0.053811	1.000000	0.000005	0.000031	0.000030	-167.600565	-76.430041	157.259263
21563	9.583938	-0.467432	-2.257947	0.004451	0.029268	0.044686	1.000000	-0.000006	0.000031	0.000038	-167.596045	-76.430747	157.255622
21564	9.583370	-0.456749	-2.235908	-0.014708	0.043334	0.038545	1.000000	-0.000000	0.000002	0.000009	-167.607343	-76.429002	157.268115
21565	9.582763	-0.446180	-2.214009	-0.033842	0.057400	0.032404	1.000000	-0.000007	0.000016	0.000050	-167.598636	-76.427921	157.250745
21566	9.562156	-0.479142	-2.252673	0.001576	0.016964	0.022893	1.000000	-0.000021	0.000024	0.000047	-167.592573	-76.427651	157.242958
21567	9.594883	-0.489388	-2.246512	-0.013328	0.011112	0.053811	1.000000	0.000004	0.000015	0.000034	-167.590388	-76.426781	157.236241
21568	9.584763	-0.481853	-2.278119	0.020502	0.012423	0.050837	1.000000	-0.000003	0.000021	0.000041	-167.585251	-76.426321	157.231476
21569	9.573706	-0.511781	-2.263088	0.002939	-0.015258	0.038155	1.000000	-0.000021	0.000021	0.000038	-167.583465	-76.426053	157.227707
21570	9.563605	-0.504070	-2.294666	0.036770	-0.013943	0.035184	1.000000	-0.000020	0.000019	0.000029	-167.585885	-76.425742	157.228674
21571	9.583366	-0.509972	-2.208659	-0.051089	-0.003429	0.034978	1.000000	-0.000010	0.000022	0.000030	-167.586318	-76.425736	157.229190
21572	9.213689	-1.080488	-0.858005	-1.371997	-0.368029	-0.605198	1.000000	0.000128	-0.000051	0.000042	-167.573011	-76.417251	157.231458
21573	10.428667	-0.333218	-2.881955	0.440411	0.134395	1.002199	1.000000	-0.000349	-0.000172	0.000076	-167.611575	-76.393903	157.269385
21574	8.028171	0.122775	-2.285555	0.467499	0.468980	-1.490918	0.999998	0.001912	-0.000546	-0.000042	-167.482887	-76.332125	157.363302
21575	10.579672	-0.890052	-0.545060	-1.944654	-0.002513	0.638966	0.999998	-0.002138	0.000324	0.000076	-167.675411	-76.364761	157.310223
21576	9.580343	-0.818493	-4.368125	1.950764	-0.664425	0.545230	0.999998	0.001808	-0.000233	-0.000086	-167.547099	-76.339021	157.392227
21577	10.150365	-0.199088	-1.928403	-0.399848	0.406151	0.505425	1.000000	-0.000313	0.000053	0.000029	-167.579715	-76.342478	157.389698
21578	9.479924	-0.205623	-3.095775	0.864482	0.143876	0.123460	1.000000	-0.000154	0.000035	0.000059	-167.582027	-76.343194	157.374805
21579	9.453916	-0.618189	-2.799848	0.512301	-0.215529	0.050828	1.000000	-0.000495	0.000197	0.000049	-167.612421	-76.361725	157.387898
21580	9.423550	-0.207520	-1.636934	-0.518959	0.378378	-0.267352	1.000000	0.000466	0.000063	0.000042	-167.548485	-76.365993	157.377939
21581	9.570512	-1.054520	-2.514761	0.137864	-0.585005	0.120565	1.000000	0.000007	0.000096	0.000034	-167.537644	-76.374106	157.368536
21582	9.446288	-0.212483	-2.069183	-0.106492	0.303401	-0.145442	1.000000	-0.000276	0.000229	0.000012	-167.555642	-76.397646	157.355420
21583	9.700197	-0.374075	-2.113613	-0.146015	0.159702	0.119799	1.000000	0.000320	0.000074	0.000016	-167.519431	-76.403732	157.356747
21584	9.439319	-0.985608	-2.876923	0.531582	-0.591567	0.072469	1.000000	-0.000347	0.000028	0.000029	-167.558407	-76.404373	157.356768
21585	9.654402	-0.058142	-1.232398	-0.922582	0.611708	-0.142924	1.000000	0.000139	0.000070	0.000034	-167.535113	-76.409549	157.350087
21586	9.570521	-0.856637	-2.882632	0.533632	-0.454492	0.194657	1.000000	-0.000042	0.000088	0.000028	-167.533549	-76.416955	157.344370
21587	9.512418	-0.666689	-1.938087	-0.324717	-0.116423	-0.088092	1.000000	-0.000146	-0.000002	0.000041	-167.546932	-76.414010	157.341795
21588	9.704344	-0.215316	-2.274830	0.037993	0.288178	0.152804	1.000000	0.000117	-0.000060	0.000015	-167.548350	-76.405171	157.357980
21589	9.561967	-0.699636	-2.168135	-0.122615	-0.182475	0.014478	1.000000	-0.000069	0.000028	0.000019	-167.559997	-76.406136	157.362749
21590	9.533193	-0.480936	-2.363457	0.110612	-0.003068	0.020255	1.000000	0.000087	-0.000006	0.000006	-167.563158	-76.403500	157.377181
21591	9.585866	-0.676855	-2.673256	0.359800	-0.242801	0.152495	1.000000	-0.000170	-0.000005	0.000001	-167.598058	-76.401110	157.393952
21592	9.552793	-0.424298	-1.870832	-0.357302	0.135271	-0.076675	1.000000	0.000138	-0.000032	-0.000007	-167.604168	-76.395951	157.417434
21593	9.585724	-0.508810	-2.704936	0.419452	-0.083959	0.151182	1.000000	-0.000075	0.000028	-0.000000	-167.625529	-76.397325	157.431446
21594	9.551185	-0.512232	-2.209632	-0.048800	-0.008696	0.004009	1.000000	-0.000009	0.000016	0.000004	-167.638620	-76.397239	157.444706
21595	9.616494	-0.195471	-2.260288	0.043182	0.299439	0.063169	1.000000	0.000043	0.000011	0.000004	-167.645978	-76.396620	157.458252
21596	9.525284	-0.733694	-2.425665	0.123136	-0.265299	0.039604	1.000000	-0.000108	0.000024	0.000014	-167.664987	-76.397162	157.466008
21597	9.593100	-0.231456	-2.186861	-0.029124	0.273032	0.025408	1.000000	-0.000055	0.000017	0.000006	-167.682523	-76.397133	157.478948
21598	9.649005	-0.421809	-2.197279	-0.066173	0.089234	0.091701	1.000000	0.000071	0.000017	0.000026	-167.676074	-76.396675	157.481587
21599	9.534160	-0.492605	-2.383673	0.124590	-0.021685	0.026458	1.000000	-0.000108	0.000030	0.000040	-167.682422	-76.397286	157.476277
21600	9.597303	-0.359327	-2.312698	0.067228	0.126581	0.064831	1.000000	-0.000016	0.000028	0.000037	-167.679860	-76.397745	157.472594
21601	9.502404	-0.493525	-1.999769	-0.236861	0.038670	-0.092567	1.000000	0.000002	0.000000	0.000046	-167.673702	-76.394880	157.467384
21602	9.560763	-0.454768	-2.567254	0.301531	-0.011961	0.092601	1.000000	0.000073	0.000014	0.000055	-167.654007	-76.393285	157.456648
21603	9.525061	-0.328778	-2.056348	-0.157342	0.193902	-0.065837	1.000000	-0.000187	0.000056	0.000058	-167.658540	-76.396321	157.440116
21604	9.635435	-0.521168	-2.475583	0.185938	-0.054792	0.147441	1.000000	0.000097	0.000034	0.000045	-167.638810	-76.397223	157.432096
21605	9.560424	-0.552694	-2.104412	-0.158832	-0.030259	-0.009137	1.000000	-0.000052	0.000063	0.000051	-167.630593	-76.401235	157.418339
21606	9.672245	-0.599365	-2.598069	0.282383	-0.148162	0.215265	1.000000	-0.000015	0.000049	0.000051	-167.619338	-76.403683	157.405880
21607	9.668400	-0.412346	-2.062047	-0.195601	0.124770	0.079037	1.000000	-0.000047	0.000090	0.000064	-167.601647	-76.410423	157.383037
21608	9.648086	-0.675082	-2.476040	0.158821	-0.203682	0.167562	1.000000	0.000127	0.000050	0.000037	-167.580560	-76.413361	157.377159
21609	9.564850	-0.503663	-2.235823	-0.020996	-0.002894	0.022885	1.000000	-0.000104	0.000109	0.000032	-167.582341	-76.422979	157.367622
21610	9.583624	-0.547003	-2.101915	-0.160179	-0.021712	0.012636	1.000000	0.000054	0.000066	0.000030	-167.570812	-76.427827	157.363045
21611	9.565344	-0.445172	-2.235989	-0.008057	0.054274	0.020452	1.000000	0.000059	0.000070	0.000021	-167.562818	-76.433395	157.362611
21612	9.520274	-0.610928	-2.151275	-0.108975	-0.098740	-0.034384	1.000000	-0.000083	0.000067	0.000026	-167.568843	-76.438457	157.359915
21613	9.553346	-0.452825	-2.175640	-0.063355	0.055096	-0.004638	1.000000	0.000020	0.000039	0.000022	-167.567922	-76.440477	157.362254
21614	9.581220	-0.493434	-1.989117	-0.255548	0.048880	-0.018192	1.000000	0.000014	0.000018	0.000035	-167.563688	-76.439825	157.360487
21615	9.585553	-0.512181	-2.144282	-0.111486	0.005067	0.022487	1.000000	0.000016	-0.000015	0.000015	-167.571922	-76.435973	157.371679
21616	9.596028	-0.472402	-2.137549	-0.113731	0.046331	0.029108	1.000000	0.000035	-0.000024	0.000030	-167.572012	-76.430755	157.376839
21617	9.600305	-0.551000	-2.290242	0.016358	-0.055573	0.072216	1.000000	-0.000062	-0.000043	0.000046	-167.577732	-76.423042	157.376286
21618	9.594372	-0.451401	-2.095569	-0.152089	0.074379	0.016783	1.000000	-0.000019	-0.000036	0.000033	-167.583757	-76.416414	157.381176
21619	9.619305	-0.497783	-2.209164	-0.058083	0.012325	0.069403	1.000000	-0.000021	-0.000026	0.000030	-167.590334	-76.411009	157.386323
21620	9.578963	-0.524977	-2.334411	0.064849	-0.038710	0.060301	1.000000	-0.000004	-0.000027	0.000033	-167.593562	-76.405412	157.390097
21621	9.610256	-0.512920	-2.285324	0.012547	-0.015703	0.078845	1.000000	-0.000040	0.000006	0.000038	-167.595288	-76.403371	157.388070
21622	9.557621	-0.606716	-2.348922	0.067278	-0.123087	0.047027	1.000000	-0.000013	-0.000013	0.000029	-167.600330	-76.399435	157.392634
21623	9.577007	-0.552960	-2.266430	-0.006647	-0.054730	0.044213	1.000000	-0.000053	0.000015	0.000043	-167.600373	-76.398327	157.387298
21624	9.566978	-0.545157	-2.298095	0.027189	-0.053306	0.041343	1.000000	-0.000009	0.000020	0.000021	-167.604981	-76.398286	157.391805
21625	9.601620	-0.588467	-2.356810	0.068177	-0.102750	0.090683	1.000000	-0.000032	0.000043	0.000022	-167.609734	-76.400858	157.393793
21626	9.588570	-0.524855	-2.279415	0.008715	-0.028882	0.057012	1.000000	-0.000008	0.000037	0.000018	-167.614127	-76.402763	157.398274
21627	9.629559	-0.509657	-2.175559	-0.096615	0.006709	0.072243	1.000000	0.000011	0.000050	0.000009	-167.619209	-76.406432	157.405718
21628	9.577695	-0.554574	-2.263127	-0.009242	-0.057043	0.044198	1.000000	0.000038	0.000034	0.000008	-167.623407	-76.408235	157.415410
21629	9.579014	-0.517451	-2.309062	0.041511	-0.028377	0.054151	1.000000	-0.000001	0.000033	0.000020	-167.626489	-76.409696	157.419320
21630	9.565300	-0.442513	-2.210030	-0.036613	0.059979	0.014321	1.000000	-0.000003	0.000037	-0.000009	-167.642863	-76.412281	157.436659
21631	9.554761	-0.483067	-2.216775	-0.035383	0.017794	0.007666	1.000000	0.000041	-0.000001	0.000026	-167.641935	-76.409765	157.441446
21632	9.523344	-0.436513	-2.269050	0.029846	0.051995	-0.013217	1.000000	0.000019	0.000020	0.000017	-167.645429	-76.409814	157.448148
21633	9.555379	-0.435466	-2.241183	-0.003817	0.060490	0.011473	1.000000	-0.000000	0.000006	0.000026	-167.648201	-76.408123	157.451828
21634	9.546520	-0.390255	-2.319668	0.081282	0.091062	0.018604	1.000000	0.000006	0.000003	0.000028	-167.649699	-76.405961	157.454995
21635	9.554765	-0.425323	-2.219178	-0.023518	0.074052	0.005314	1.000000	0.000008	0.000017	0.000016	-167.655230	-76.405738	157.462513
21636	9.579824	-0.411836	-2.335194	0.084410	0.070121	0.055632	1.000000	0.000002	-0.000006	0.000020	-167.661714	-76.402809	157.470334
21637	9.590488	-0.431886	-2.324916	0.068191	0.053271	0.064647	1.000000	-0.000040	0.000010	0.000056	-167.654958	-76.400807	157.459560
21638	9.601185	-0.452038	-2.314470	0.051971	0.036421	0.073659	1.000000	-0.000007	0.000012	0.000033	-167.654787	-76.399584	157.459430
21639	9.612487	-0.423436	-2.328809	0.068347	0.063192	0.086499	1.000000	-0.000031	0.000019	0.000037	-167.655027	-76.399025	157.456862
21640	9.579993	-0.474123	-2.331105	0.068383	0.010165	0.057993	1.000000	-0.000034	0.000031	0.000043	-167.651524	-76.399680	157.450143
21641	9.568206	-0.492913	-2.294143	0.032304	-0.003049	0.038991	1.000000	-0.000012	0.000037	0.000045	-167.644001	-76.400914	157.441831
21642	9.546402	-0.503581	-2.288993	0.030584	-0.014353	0.017152	1.000000	-0.000026	0.000048	0.000058	-167.630513	-76.403100	157.425791
21643	9.568533	-0.554486	-2.289370	0.017334	-0.062085	0.041314	1.000000	-0.000019	0.000042	0.000052	-167.620030	-76.404811	157.413633
21644	9.556763	-0.513683	-2.255244	-0.004812	-0.017186	0.019982	1.000000	0.000000	0.000056	0.000042	-167.610186	-76.408268	157.404405
21645	9.579512	-0.575354	-2.277462	0.000599	-0.079405	0.050304	1.000000	-0.000009	0.000020	0.000021	-167.614838	-76.408230	157.408951
21646	9.557634	-0.525979	-2.275715	0.012810	-0.032594	0.026148	1.000000	-0.000012	0.000037	0.000045	-167.607247	-76.409454	157.400572
21647	9.589687	-0.525259	-2.247597	-0.020876	-0.024132	0.050814	1.000000	0.000004	0.000015	0.000034	-167.605072	-76.408518	157.399649
21648	9.579073	-0.566194	-2.254397	-0.019621	-0.066312	0.044125	1.000000	-0.000003	0.000019	0.000032	-167.604148	-76.408039	157.399234
21649	9.589777	-0.526583	-2.246903	-0.021919	-0.025060	0.050810	1.000000	-0.000003	0.000021	0.000041	-167.599003	-76.407583	157.394456
21650	9.600466	-0.546677	-2.236357	-0.038135	-0.041923	0.059794	1.000000	0.000010	0.000009	0.000027	-167.599750	-76.406164	157.397339
21651	9.579172	-0.508284	-2.256672	-0.007265	-0.009587	0.041820	1.000000	0.000004	0.000011	0.000017	-167.606037	-76.405186	157.405145
