// Start Time: Unknown
// Update Rate: 100.0Hz
// Filter Profile: human (46.1)
// Firmware Version: 4.4.0
PacketCounter	Acc_X	Acc_Y	Acc_Z	FreeAcc_X	FreeAcc_Y	FreeAcc_Z	OriInc_q0	OriInc_q1	OriInc_q2	OriInc_q3	Roll	Pitch	Yaw
35453	9.532683	-0.200325	2.425321	-0.000000	0.000000	0.025725	1.000000	0.000031	0.000021	0.000033	-4.716457	-75.680290	-1.501198
35454	9.544621	-0.171755	2.440482	-0.011188	0.005750	0.040489	1.000000	0.000030	0.000027	0.000009	-4.148834	-75.688088	-2.445517
35455	9.558071	-0.153065	2.433403	0.001541	0.023471	0.051442	1.000000	0.000025	0.000020	0.000021	-4.154880	-75.685630	-2.436314
35456	9.566144	-0.193892	2.425825	0.006697	-0.017966	0.058126	1.000000	0.000031	0.000021	0.000004	-4.152834	-75.682996	-2.434894
35457	9.544260	-0.172039	2.441872	-0.011146	0.005754	0.040489	1.000000	0.000030	0.000034	0.000013	-4.154188	-75.678992	-2.429940
35458	9.529055	-0.181046	2.472101	-0.044518	0.000490	0.033376	1.000000	0.000025	0.000013	0.000017	-4.158516	-75.677333	-2.422479
35459	9.580882	-0.185385	2.397397	0.040072	-0.012698	0.065239	1.000000	0.000036	0.000021	0.000016	-4.160993	-75.674759	-2.415613
35460	9.556005	-0.143744	2.457761	-0.019056	0.035939	0.055283	1.000000	0.000025	0.000020	0.000021	-4.167200	-75.672284	-2.406255
35461	9.545334	-0.182712	2.421313	0.009502	-0.006692	0.036648	1.000000	0.000030	0.000027	0.000009	-4.166786	-75.669086	-2.403092
35462	9.557260	-0.154081	2.436521	0.001596	0.023473	0.051442	1.000000	0.000025	0.000027	0.000026	-4.174346	-75.665768	-2.392348
35463	9.563786	-0.185072	2.451279	-0.013933	-0.005512	0.061967	1.000000	0.000028	0.000024	0.000015	-4.177152	-75.662939	-2.386175
35464	9.524715	-0.171432	2.416064	0.012328	0.004538	0.015169	1.000000	0.000028	0.000024	0.000015	-4.179422	-75.660001	-2.380522
35465	9.556905	-0.154708	2.437875	0.001614	0.023450	0.051442	1.000000	0.000034	0.000018	0.000023	-4.185111	-75.657796	-2.370654
35466	9.556778	-0.155062	2.438351	0.001619	0.023402	0.051442	1.000000	0.000033	0.000031	0.000031	-4.193191	-75.653939	-2.358318
35467	9.563317	-0.185907	2.453045	-0.013911	-0.005584	0.061967	1.000000	0.000014	0.000012	-0.000007	-4.188169	-75.652649	-2.361874
35468	9.578317	-0.177085	2.423669	0.019480	-0.000383	0.069079	1.000000	0.000036	0.000028	0.000021	-4.190878	-75.649152	-2.354708
35469	9.563095	-0.186071	2.453898	-0.013893	-0.005649	0.061967	1.000000	0.000019	0.000019	0.000009	-4.192255	-75.646873	-2.351010
35470	9.544264	-0.184330	2.425405	0.009561	-0.006896	0.036648	1.000000	0.000036	0.000028	0.000021	-4.195161	-75.643420	-2.343653
35471	9.557735	-0.165647	2.418299	0.022290	0.010825	0.047601	1.000000	0.000028	0.000017	0.000011	-4.196199	-75.641396	-2.339270
35472	9.542543	-0.174542	2.448397	-0.011113	0.005500	0.040489	1.000000	0.000028	0.000017	0.000011	-4.195818	-75.639532	-2.336263
35473	9.576253	-0.167720	2.447987	-0.001183	0.011956	0.072921	1.000000	0.000028	0.000024	0.000015	-4.198611	-75.636702	-2.330105
35474	9.542335	-0.174762	2.449191	-0.011130	0.005419	0.040489	1.000000	0.000028	0.000017	0.000011	-4.197722	-75.634757	-2.327578
35475	9.563973	-0.196784	2.434136	0.006714	-0.018302	0.058126	1.000000	0.000019	0.000026	0.000014	-4.200848	-75.631673	-2.322110
35476	9.521862	-0.163181	2.443389	-0.008336	0.016624	0.019011	1.000000	0.000036	0.000028	0.000021	-4.203642	-75.628309	-2.314843
35477	9.557115	-0.166330	2.420702	0.022238	0.010624	0.047602	1.000000	0.000020	0.000006	0.000001	-4.201504	-75.627645	-2.314701
35478	9.557028	-0.166575	2.421027	0.022227	0.010526	0.047602	1.000000	0.000031	0.000027	0.000038	-4.211593	-75.624229	-2.300518
35479	9.555402	-0.156941	2.443619	0.001583	0.022981	0.051443	1.000000	0.000034	0.000011	0.000018	-4.215503	-75.622826	-2.292450
35480	9.541726	-0.175997	2.451475	-0.011195	0.005116	0.040489	1.000000	0.000025	0.000020	0.000021	-4.218087	-75.620612	-2.286612
35481	9.556733	-0.167411	2.422135	0.022179	0.010382	0.047602	1.000000	0.000028	0.000024	0.000015	-4.220865	-75.617775	-2.280467
35482	9.539973	-0.166418	2.474538	-0.031938	0.017420	0.044331	1.000000	0.000025	0.000020	0.000021	-4.223251	-75.615866	-2.275004
35483	9.576734	-0.179742	2.429722	0.019278	-0.001035	0.069080	1.000000	0.000036	0.000021	0.000016	-4.225703	-75.613289	-2.268170
35484	9.556412	-0.167956	2.423363	0.022032	0.010047	0.047603	1.000000	0.000019	0.000019	0.000009	-4.222717	-75.611235	-2.268598
35485	9.531120	-0.206416	2.519917	-0.080887	-0.017015	0.047739	1.000000	0.000019	0.000033	0.000018	-4.227582	-75.607340	-2.261372
35486	9.538026	-0.195003	2.166706	0.262367	-0.045415	-0.033338	1.000000	0.000057	0.000000	-0.000000	-4.217295	-75.607084	-2.264972
35487	9.483986	-0.094167	3.033521	-0.570890	0.150965	0.127554	1.000000	0.000217	0.000327	-0.000000	-4.181741	-75.569701	-2.276012
35488	10.044764	-0.342716	2.245351	0.301126	-0.188495	0.479549	1.000000	-0.000315	-0.000240	0.000111	-4.267968	-75.593141	-2.223778
35489	9.297083	-0.124612	2.307850	0.077123	0.042988	-0.233040	1.000000	0.000417	0.000036	-0.000059	-4.192614	-75.589491	-2.252202
35490	9.193751	0.036656	2.280492	0.093565	0.199891	-0.342823	1.000000	-0.000168	-0.000223	-0.000040	-4.200600	-75.615649	-2.263946
35491	9.677429	-0.348767	2.273377	0.178799	-0.187887	0.130916	1.000000	-0.000097	0.000290	0.000064	-4.230535	-75.582016	-2.244503
35492	9.522385	-0.047010	2.826505	-0.357280	0.174469	0.112485	1.000000	0.000271	-0.000079	-0.000050	-4.177616	-75.595013	-2.266829
35493	9.757544	-0.325568	2.163897	0.308877	-0.178176	0.180859	1.000000	-0.000153	0.000148	0.000105	-4.236830	-75.577261	-2.223799
35494	9.484714	-0.044103	2.769597	-0.310850	0.172030	0.061835	1.000000	0.000183	-0.000107	-0.000029	-4.204319	-75.592341	-2.235460
35495	9.634239	-0.253945	2.042348	0.402685	-0.119009	0.029971	1.000000	-0.000046	0.000066	0.000028	-4.219962	-75.584620	-2.224761
35496	9.484149	-0.124373	2.806399	-0.355039	0.096204	0.071903	1.000000	0.000056	0.000034	0.000022	-4.218547	-75.582819	-2.219502
35497	9.621521	-0.174533	2.221819	0.237137	-0.019508	0.060711	1.000000	-0.000020	0.000059	0.000032	-4.233176	-75.575835	-2.206752
35498	9.490924	-0.184717	2.593819	-0.153993	0.012872	0.026814	1.000000	0.000057	0.000014	0.000008	-4.224340	-75.575812	-2.209257
35499	9.518631	-0.176076	2.350875	0.088326	-0.005806	-0.006866	1.000000	-0.000011	0.000056	0.000005	-4.225871	-75.569336	-2.209025
35500	9.508730	-0.196038	2.521244	-0.079436	-0.007005	0.026250	1.000000	0.000070	0.000039	0.000010	-4.215634	-75.565360	-2.211142
35501	9.612628	-0.205107	2.372258	0.089740	-0.033396	0.089995	1.000000	-0.000045	0.000052	0.000019	-4.227787	-75.559211	-2.203991
35502	9.578432	-0.102891	2.565612	-0.093403	0.089768	0.103085	1.000000	0.000093	-0.000016	0.000001	-4.213383	-75.561826	-2.206784
35503	9.538269	-0.188116	2.359959	0.085283	-0.017498	0.014611	1.000000	0.000047	0.000029	0.000016	-4.214014	-75.558295	-2.200511
35504	9.469825	-0.173020	2.590280	-0.151506	0.023471	0.005335	1.000000	0.000006	0.000001	0.000012	-4.212829	-75.558506	-2.200836
35505	9.582447	-0.142640	2.396679	0.066574	0.031330	0.065688	1.000000	0.000047	0.000036	0.000020	-4.215202	-75.554160	-2.192802
35506	9.575700	-0.182791	2.522208	-0.059918	0.005168	0.091118	1.000000	0.000008	0.000011	0.000010	-4.211654	-75.553462	-2.195643
35507	9.592403	-0.113567	2.331020	0.136004	0.052843	0.058455	1.000000	0.000043	0.000009	0.000020	-4.215225	-75.552287	-2.186909
35508	9.508433	-0.116546	2.487710	-0.036064	0.067582	0.016184	1.000000	0.000055	-0.000004	0.000006	-4.202640	-75.553106	-2.192318
35509	9.574850	-0.202144	2.316084	0.136216	-0.036874	0.039365	1.000000	0.000009	-0.000009	0.000026	-4.213323	-75.553882	-2.180204
35510	9.559344	-0.101816	2.538196	-0.070526	0.087286	0.077777	1.000000	0.000030	0.000027	0.000009	-4.203853	-75.552321	-2.185713
35511	9.569640	-0.181921	2.280211	0.172101	-0.020715	0.025016	1.000000	0.000008	0.000025	0.000019	-4.210484	-75.549323	-2.177977
35512	9.514692	-0.148112	2.503262	-0.052138	0.037811	0.026696	1.000000	0.000018	0.000040	0.000022	-4.207352	-75.546006	-2.178802
35513	9.572833	-0.193120	2.340119	0.115030	-0.025205	0.043211	1.000000	0.000017	0.000016	0.000016	-4.211917	-75.544054	-2.172137
35514	9.554777	-0.172447	2.518033	-0.058299	0.014875	0.069639	1.000000	0.000021	0.000050	0.000021	-4.207496	-75.541331	-2.173903
35515	9.552740	-0.172227	2.437497	0.019173	0.006505	0.047612	1.000000	0.000021	-0.000008	0.000021	-4.214656	-75.542002	-2.164093
35516	9.577856	-0.204875	2.481272	-0.020139	-0.021607	0.083430	1.000000	0.000035	0.000048	0.000005	-4.204059	-75.538271	-2.172579
35517	9.554003	-0.182624	2.416417	0.039496	-0.006248	0.043772	1.000000	0.000013	0.000025	0.000031	-4.215357	-75.535090	-2.159391
35518	9.583082	-0.145877	2.482560	-0.012826	0.037271	0.087731	1.000000	0.000017	0.000009	0.000011	-4.211341	-75.535707	-2.162042
35519	9.567492	-0.164243	2.409372	0.051919	0.011187	0.054741	1.000000	0.000054	0.000010	0.000015	-4.211446	-75.534429	-2.155591
35520	9.524965	-0.210700	2.454591	-0.007327	-0.029846	0.025677	1.000000	0.000016	0.000022	0.000020	-4.209358	-75.534101	-2.155332
35521	9.553696	-0.183588	2.417560	0.038771	-0.006868	0.043775	1.000000	0.000011	0.000008	0.000028	-4.220391	-75.532919	-2.142676
35522	9.528698	-0.141520	2.477857	-0.020800	0.041581	0.033821	1.000000	0.000067	0.000049	-0.000003	-4.204849	-75.529980	-2.152555
35523	9.558057	-0.213774	2.352209	0.100253	-0.044420	0.032261	1.000000	0.000008	0.000018	0.000014	-4.209857	-75.527824	-2.146551
35524	9.551726	-0.173767	2.441361	0.017413	0.005159	0.047616	1.000000	0.000008	0.000025	0.000019	-4.210618	-75.526308	-2.144608
35525	9.563683	-0.145064	2.456435	0.009495	0.035332	0.062424	1.000000	0.000048	0.000023	0.000012	-4.209634	-75.523615	-2.140064
35526	9.558017	-0.204656	2.456777	0.001225	-0.024066	0.058115	1.000000	0.000030	0.000034	0.000013	-4.204794	-75.523361	-2.141606
35527	9.557864	-0.204793	2.457361	0.001219	-0.024060	0.058115	1.000000	0.000019	0.000026	0.000014	-4.208011	-75.520308	-2.136144
35528	9.581893	-0.147240	2.487065	-0.014707	0.036047	0.087733	1.000000	0.000028	0.000024	0.000015	-4.205393	-75.517906	-2.134439
35529	9.551074	-0.174403	2.443865	0.016669	0.004708	0.047617	1.000000	0.000045	0.000019	0.000018	-4.207590	-75.515591	-2.126917
35530	9.557538	-0.205251	2.458592	0.001078	-0.024502	0.058114	1.000000	0.000025	0.000013	0.000017	-4.206667	-75.514160	-2.124471
35531	9.552440	-0.184783	2.422426	0.037265	-0.007961	0.043780	1.000000	0.000047	0.000029	0.000016	-4.207401	-75.510637	-2.118177
35532	9.584575	-0.167861	2.444380	0.026449	0.010741	0.080059	1.000000	0.000048	0.000023	0.000012	-4.201891	-75.508366	-2.117491
35533	9.533615	-0.182880	2.394207	0.060649	-0.009319	0.018473	1.000000	0.000066	0.000005	0.000006	-4.196744	-75.507753	-2.115089
35534	9.536944	-0.193400	2.453330	0.003376	-0.013563	0.036645	1.000000	0.000027	0.000030	0.000019	-4.197067	-75.506673	-2.110895
35535	9.545480	-0.154122	2.409651	0.052291	0.020690	0.033286	1.000000	0.000031	0.000021	0.000005	-4.194976	-75.504242	-2.109497
35536	9.548768	-0.164608	2.468914	-0.004834	0.016443	0.051455	1.000000	0.000022	0.000030	0.000008	-4.190791	-75.502461	-2.110456
35537	9.563827	-0.155890	2.439748	0.028543	0.021704	0.058593	1.000000	0.000033	0.000031	0.000003	-4.187232	-75.498846	-2.110286
35538	9.555001	-0.195386	2.484512	-0.020183	-0.012575	0.061950	1.000000	0.000016	0.000029	0.000024	-4.194738	-75.494190	-2.104206
35539	9.548329	-0.164786	2.470601	-0.004624	0.016421	0.051455	1.000000	0.000007	0.000025	-0.000010	-4.188773	-75.491367	-2.109588
35540	9.582065	-0.157732	2.470243	0.005520	0.022783	0.083898	1.000000	0.000031	0.000014	0.000000	-4.183496	-75.488362	-2.113721
35541	9.568327	-0.176671	2.478165	-0.007178	0.005079	0.072924	1.000000	0.000031	0.000021	0.000033	-4.194194	-75.485549	-2.099159
35542	9.548061	-0.165157	2.471611	-0.004590	0.016216	0.051456	1.000000	-0.000003	0.000010	0.000015	-4.197355	-75.485577	-2.096482
35543	9.556695	-0.125951	2.427619	0.044352	0.050467	0.048099	1.000000	0.000028	0.000010	0.000006	-4.196816	-75.484190	-2.093821
35544	9.542990	-0.144805	2.435411	0.031211	0.032519	0.037126	1.000000	0.000034	0.000011	0.000018	-4.194782	-75.485150	-2.090319
35545	9.515650	-0.182557	2.450717	0.005787	-0.002896	0.015176	1.000000	0.000023	0.000003	0.000019	-4.200600	-75.484507	-2.081711
35546	9.541343	-0.135139	2.457861	0.010139	0.044819	0.040964	1.000000	0.000034	0.000011	0.000018	-4.200357	-75.485736	-2.078514
35547	9.542890	-0.145433	2.435768	0.030808	0.032370	0.037128	1.000000	0.000049	-0.000004	0.000023	-4.205191	-75.485875	-2.067834
35548	9.563023	-0.157586	2.442788	0.027912	0.021018	0.058596	1.000000	0.000025	0.000020	0.000021	-4.209522	-75.483831	-2.064672
35549	9.562938	-0.157906	2.443099	0.027941	0.021028	0.058596	1.000000	0.000014	0.000012	0.000022	-4.217479	-75.482119	-2.054980
35550	9.584612	-0.180227	2.428062	0.044422	-0.002816	0.076234	1.000000	0.000042	0.000015	0.000024	-4.219291	-75.488019	-2.050529
35551	9.562784	-0.158536	2.443662	0.026612	0.020935	0.058600	1.000000	0.000031	0.000014	0.000029	-4.228357	-75.486107	-2.037696
35552	9.550596	-0.187860	2.429448	0.034505	-0.009324	0.043789	1.000000	0.000022	0.000023	0.000032	-4.237161	-75.483283	-2.029948
35553	9.562615	-0.159442	2.444266	0.026607	0.020858	0.058600	1.000000	0.000011	0.000002	0.000024	-4.246677	-75.482811	-2.019000
35554	9.561016	-0.149689	2.466523	0.005237	0.033069	0.062435	1.000000	0.000031	0.000007	0.000025	-4.247365	-75.485978	-2.013212
35555	9.547066	-0.178489	2.371202	0.090642	-0.005476	0.025640	1.000000	0.000025	0.000013	0.000017	-4.251882	-75.484256	-2.005790
35556	9.551958	-0.199107	2.408014	0.054360	-0.022260	0.039959	1.000000	0.000020	0.000006	0.000001	-4.243724	-75.484032	-2.010965
35557	9.547220	-0.168929	2.474603	-0.007553	0.015132	0.051456	1.000000	0.000003	0.000004	0.000023	-4.253541	-75.483317	-2.000719
35558	9.545359	-0.168876	2.393878	0.069159	0.006663	0.029478	1.000000	0.000045	0.000019	0.000018	-4.253293	-75.485468	-1.998291
35559	9.565439	-0.180889	2.401103	0.066342	-0.004604	0.050944	1.000000	0.000028	0.000017	0.000011	-4.254645	-75.483390	-1.993842
35560	9.553238	-0.209884	2.386954	0.073381	-0.034885	0.036138	1.000000	0.000019	0.000026	0.000014	-4.254403	-75.485410	-1.993057
35561	9.545012	-0.169236	2.395234	0.068295	0.006579	0.029484	1.000000	0.000030	0.000034	0.000013	-4.256036	-75.481391	-1.988089
35562	9.551344	-0.199937	2.410379	0.052032	-0.022568	0.039971	1.000000	0.000041	0.000035	0.000008	-4.249495	-75.481382	-1.989314
35563	9.549619	-0.190063	2.433115	0.031387	-0.010091	0.043798	1.000000	0.000048	0.000023	0.000040	-4.261425	-75.478441	-1.971593
35564	9.581753	-0.173284	2.455044	0.019997	0.008801	0.080076	1.000000	0.000025	0.000027	-0.000003	-4.256107	-75.479160	-1.977508
35565	9.549321	-0.190348	2.434264	0.030741	-0.010067	0.043800	1.000000	0.000035	0.000042	0.000029	-4.264081	-75.474180	-1.965373
35566	9.569306	-0.202480	2.441840	0.027300	-0.021431	0.065267	1.000000	0.000022	0.000030	0.000008	-4.261575	-75.474243	-1.966048
35567	9.562655	-0.171963	2.427965	0.042853	0.007573	0.054788	1.000000	0.000019	0.000033	0.000018	-4.266760	-75.470380	-1.958791
35568	9.547259	-0.180784	2.458266	0.009286	0.002477	0.047628	1.000000	0.000028	0.000024	0.000015	-4.272808	-75.468713	-1.956183
35569	9.562400	-0.172390	2.428941	0.042651	0.007736	0.054788	1.000000	0.000025	0.000020	0.000021	-4.279209	-75.466259	-1.946978
35570	9.547038	-0.181289	2.459085	0.008056	0.002471	0.047629	1.000000	0.000025	0.000020	0.000021	-4.283545	-75.470974	-1.940462
35571	9.513065	-0.188209	2.460309	-0.001844	-0.003928	0.015177	1.000000	0.000024	0.000033	0.000001	-4.280719	-75.467231	-1.940880
35572	9.548380	-0.191381	2.437869	0.027687	-0.010157	0.043809	1.000000	0.000048	0.000009	0.000003	-4.271003	-75.471962	-1.941674
35573	9.541790	-0.160758	2.423790	0.043230	0.018848	0.033334	1.000000	0.000019	0.000033	0.000018	-4.276234	-75.468187	-1.934411
35574	9.558639	-0.152605	2.475538	-0.002139	0.032602	0.062438	1.000000	0.000028	0.000024	0.000015	-4.280487	-75.472669	-1.930990
35575	9.560114	-0.162864	2.453804	0.018469	0.020159	0.058620	1.000000	0.000019	0.000019	0.000009	-4.282321	-75.470578	-1.927202
35576	9.526158	-0.169738	2.454958	0.007504	0.013873	0.026167	1.000000	0.000030	0.000027	0.000009	-4.284227	-75.473784	-1.927275
35577	9.524448	-0.159499	2.477591	-0.013178	0.026367	0.029982	1.000000	0.000042	0.000022	-0.000000	-4.279094	-75.471529	-1.928035
35578	9.559793	-0.162881	2.455054	0.016415	0.020104	0.058624	1.000000	0.000023	0.000010	0.000023	-4.280704	-75.475584	-1.919956
35579	9.537961	-0.141154	2.470613	-0.001427	0.043877	0.040974	1.000000	0.000042	0.000022	0.000028	-4.288213	-75.473103	-1.907619
35580	9.561217	-0.173342	2.433525	0.036020	0.007661	0.054815	1.000000	0.000043	0.000008	-0.000009	-4.278374	-75.477994	-1.915526
35581	9.561134	-0.173312	2.433851	0.035962	0.007687	0.054815	1.000000	0.000007	0.000025	0.000019	-4.285497	-75.475353	-1.907703
35582	9.551379	-0.122648	2.464027	0.009525	0.061834	0.051967	1.000000	0.000042	0.000015	0.000024	-4.295623	-75.477754	-1.901787
35583	9.559380	-0.163635	2.456611	0.014522	0.020414	0.058626	1.000000	0.000026	0.000007	0.000013	-4.298751	-75.477272	-1.896029
35584	9.540750	-0.162061	2.427795	0.037102	0.019285	0.033358	1.000000	0.000034	0.000018	0.000023	-4.305258	-75.480439	-1.890751
35585	9.560797	-0.174194	2.435113	0.034173	0.008039	0.054821	1.000000	0.000028	0.000024	0.000015	-4.308694	-75.478012	-1.884473
35586	9.554199	-0.143732	2.421100	0.048783	0.037214	0.044358	1.000000	0.000036	0.000028	0.000021	-4.316926	-75.480390	-1.880891
35587	9.546903	-0.193490	2.443482	0.020389	-0.009419	0.043828	1.000000	0.000009	-0.000002	0.000030	-4.330108	-75.480832	-1.866843
35588	9.575820	-0.166350	2.406324	0.066143	0.013554	0.062019	1.000000	0.000042	0.000022	-0.000000	-4.325725	-75.480300	-1.872575
35589	9.558891	-0.164849	2.458431	0.012066	0.020859	0.058629	1.000000	0.000020	-0.000001	0.000025	-4.335450	-75.480629	-1.860791
35590	9.560416	-0.175378	2.436523	0.032006	0.007915	0.054828	1.000000	0.000033	0.000024	0.000027	-4.331261	-75.481563	-1.851047
35591	9.553859	-0.145009	2.422366	0.047514	0.036925	0.044365	1.000000	0.000025	0.000013	0.000017	-4.336217	-75.480378	-1.843521
35592	9.561813	-0.185998	2.415117	0.052272	-0.004671	0.051028	1.000000	0.000028	0.000024	0.000015	-4.335387	-75.479188	-1.841441
35593	9.573802	-0.157333	2.430076	0.044278	0.025537	0.065829	1.000000	0.000025	0.000020	0.000021	-4.342060	-75.477185	-1.832177
35594	9.581743	-0.198433	2.422862	0.048590	-0.015579	0.072495	1.000000	0.000025	0.000020	0.000021	-4.355590	-75.479030	-1.829090
35595	9.555034	-0.156178	2.401817	0.066975	0.024711	0.040571	1.000000	0.000042	0.000022	0.000028	-4.363467	-75.476749	-1.816653
35596	9.559778	-0.176720	2.438929	0.030763	0.008308	0.054832	1.000000	0.000042	0.000022	-0.000000	-4.359912	-75.474115	-1.822824
35597	9.561222	-0.187028	2.417376	0.051317	-0.004133	0.051034	1.000000	0.000007	0.000038	0.000027	-4.370858	-75.469974	-1.811427
35598	9.561052	-0.187385	2.418019	0.050874	-0.004259	0.051036	1.000000	0.000036	0.000028	0.000021	-4.371732	-75.469124	-1.806315
35599	9.591565	-0.160447	2.462141	0.019385	0.027171	0.091094	1.000000	0.000019	0.000026	0.000014	-4.375723	-75.466497	-1.800679
35600	9.545478	-0.196400	2.448809	0.016576	-0.009022	0.043835	1.000000	0.000025	0.000027	0.000026	-4.392173	-75.468270	-1.795404
35601	9.574336	-0.169445	2.412006	0.062589	0.013914	0.062042	1.000000	0.000027	0.000030	0.000019	-4.397691	-75.465116	-1.787295
35602	9.538750	-0.166358	2.435352	0.029835	0.019682	0.033382	1.000000	0.000033	0.000024	0.000027	-4.395989	-75.475321	-1.776707
35603	9.565178	-0.209056	2.457407	0.011236	-0.020513	0.065300	1.000000	0.000024	0.000033	0.000001	-4.393649	-75.472117	-1.777024
35604	9.538466	-0.166684	2.436439	0.027999	0.019853	0.033387	1.000000	0.000031	0.000021	0.000033	-4.405860	-75.479634	-1.765009
35605	9.577017	-0.180614	2.472930	0.001471	0.009841	0.080095	1.000000	0.000030	0.000027	0.000009	-4.406436	-75.477137	-1.761635
35606	9.524504	-0.185738	2.445021	0.012613	0.002526	0.022384	1.000000	0.000028	0.000024	0.000015	-4.414729	-75.489261	-1.759892
35607	9.538092	-0.167180	2.437868	0.025198	0.020266	0.033394	1.000000	0.000028	0.000024	0.000015	-4.418586	-75.487261	-1.753512
35608	9.556527	-0.169029	2.467324	0.000529	0.021937	0.058634	1.000000	0.000037	0.000015	0.000012	-4.429013	-75.492276	-1.753983
35609	9.558019	-0.179258	2.445628	0.021005	0.009497	0.054857	1.000000	0.000022	0.000030	0.000008	-4.430127	-75.489706	-1.751251
35610	9.556294	-0.169301	2.468206	-0.000406	0.022311	0.058633	1.000000	0.000022	0.000016	0.000028	-4.446063	-75.492236	-1.744050
35611	9.549742	-0.138926	2.454128	0.015079	0.051329	0.048182	1.000000	0.000030	0.000034	0.000013	-4.448671	-75.489135	-1.738853
35612	9.557630	-0.179946	2.447097	0.018953	0.009902	0.054860	1.000000	0.000025	0.000020	0.000021	-4.454553	-75.493157	-1.733178
35613	9.569651	-0.151121	2.461941	0.010898	0.040155	0.069644	1.000000	0.000031	0.000014	0.000000	-4.452045	-75.492535	-1.733176
35614	9.549457	-0.139285	2.455217	0.012613	0.051889	0.048183	1.000000	0.000023	0.000010	0.000023	-4.469564	-75.498380	-1.728405
35615	9.547761	-0.129337	2.477669	-0.008182	0.064474	0.051951	1.000000	0.000028	0.000024	0.000015	-4.473819	-75.496549	-1.721910
35616	9.555698	-0.170324	2.470441	-0.005147	0.023059	0.058630	1.000000	0.000043	0.000009	0.000020	-4.477085	-75.506717	-1.715989
35617	9.557247	-0.180703	2.448537	0.015287	0.010620	0.054866	1.000000	0.000025	0.000013	0.000017	-4.482854	-75.506154	-1.708232
35618	9.557174	-0.181081	2.448794	0.014320	0.010600	0.054867	1.000000	0.000020	0.000013	0.000034	-4.494077	-75.510042	-1.697781
35619	9.570833	-0.162742	2.441388	0.026862	0.028350	0.065884	1.000000	0.000043	0.000009	0.000020	-4.499234	-75.510021	-1.688609
35620	9.550628	-0.151039	2.434709	0.030153	0.038881	0.044426	1.000000	0.000025	0.000020	0.000021	-4.487954	-75.505173	-1.681363
35621	9.550538	-0.151210	2.435050	0.029967	0.038948	0.044426	1.000000	0.000037	0.000015	0.000012	-4.490072	-75.504491	-1.675936
35622	9.550456	-0.151447	2.435355	0.030629	0.038764	0.044425	1.000000	0.000022	0.000016	0.000028	-4.495370	-75.498430	-1.669185
35623	9.551962	-0.161938	2.413625	0.051078	0.026320	0.040662	1.000000	0.000028	0.000024	0.000015	-4.499508	-75.496621	-1.662736
35624	9.570358	-0.163823	2.443179	0.026916	0.027688	0.065886	1.000000	0.000028	0.000024	0.000015	-4.504881	-75.497409	-1.662648
35625	9.550120	-0.152111	2.436634	0.029662	0.039026	0.044427	1.000000	0.000025	0.000020	0.000021	-4.512278	-75.495974	-1.653195
35626	9.551602	-0.162580	2.415006	0.048364	0.026828	0.040674	1.000000	0.000027	0.000030	0.000019	-4.523055	-75.503649	-1.651007
35627	9.551491	-0.162803	2.415433	0.048171	0.026901	0.040675	1.000000	0.000025	0.000013	0.000017	-4.528838	-75.503114	-1.643256
35628	9.591695	-0.186819	2.429542	0.040532	0.004066	0.083601	1.000000	0.000043	0.000002	0.000015	-4.522451	-75.513063	-1.639600
35629	9.551341	-0.163338	2.415989	0.046194	0.026674	0.040685	1.000000	0.000013	0.000039	0.000039	-4.538542	-75.509460	-1.622663
35630	9.557586	-0.194344	2.431137	0.029850	-0.002257	0.051123	1.000000	0.000028	0.000017	0.000011	-4.539424	-75.511358	-1.623102
35631	9.571206	-0.175877	2.423939	0.042375	0.015489	0.062147	1.000000	0.000025	0.000027	0.000026	-4.548604	-75.509289	-1.611904
35632	9.569453	-0.165861	2.446583	0.020716	0.028744	0.065898	1.000000	0.000030	0.000027	0.000009	-4.564845	-75.512326	-1.617639
35633	9.555588	-0.184636	2.454710	0.007759	0.011157	0.054874	1.000000	0.000028	0.000024	0.000015	-4.569303	-75.510744	-1.611106
35634	9.572442	-0.186530	2.403296	0.059377	0.003972	0.058418	1.000000	0.000036	0.000021	0.000016	-4.575154	-75.521959	-1.607903
35635	9.550617	-0.164547	2.418765	0.041481	0.027852	0.040703	1.000000	0.000025	0.000013	0.000017	-4.581170	-75.521655	-1.600086
35636	9.535150	-0.173325	2.448923	0.006195	0.023064	0.033418	1.000000	0.000042	0.000029	0.000033	-4.596794	-75.529435	-1.590993
35637	9.555126	-0.185634	2.456434	0.002987	0.011891	0.054876	1.000000	0.000007	0.000025	0.000019	-4.605231	-75.527893	-1.582841
35638	9.568737	-0.167290	2.449282	0.014865	0.029664	0.065906	1.000000	0.000033	0.000025	0.000027	-4.614580	-75.529928	-1.577908
35639	9.558107	-0.206598	2.413178	0.043091	-0.012990	0.047409	1.000000	0.000039	0.000025	0.000010	-4.615710	-75.528451	-1.573611
35640	9.516137	-0.172576	2.421776	0.028228	0.021915	0.008227	1.000000	0.000028	0.000024	0.000015	-4.614573	-75.526623	-1.571345
35641	9.569991	-0.177923	2.428580	0.034791	0.017144	0.062174	1.000000	0.000036	0.000021	0.000016	-4.618902	-75.525493	-1.564055
35642	9.534395	-0.174506	2.451780	0.005409	0.022852	0.033419	1.000000	0.000039	0.000025	0.000010	-4.608577	-75.516522	-1.562773
35643	9.552758	-0.176203	2.481378	-0.018404	0.024217	0.058611	1.000000	0.000013	0.000025	0.000002	-4.608856	-75.515011	-1.562359
35644	9.568022	-0.167868	2.452036	0.015784	0.029286	0.065906	1.000000	0.000042	0.000015	0.000024	-4.613463	-75.508155	-1.559167
35645	9.567927	-0.168139	2.452387	0.015557	0.029374	0.065906	1.000000	0.000025	0.000020	0.000021	-4.621261	-75.506993	-1.549616
35646	9.532314	-0.164902	2.475615	-0.015004	0.035806	0.037153	1.000000	0.000027	0.000031	0.000019	-4.632235	-75.504387	-1.549250
35647	9.547572	-0.156607	2.446315	0.018131	0.041008	0.044447	1.000000	0.000037	0.000015	0.000012	-4.634895	-75.503920	-1.543681
35648	9.549088	-0.166982	2.424631	0.038436	0.029058	0.040712	1.000000	0.000036	0.000028	0.000021	-4.653142	-75.502421	-1.543244
35649	9.548981	-0.167196	2.425037	0.038213	0.029155	0.040712	1.000000	0.000025	0.000013	0.000017	-4.659468	-75.502055	-1.535349
35650	9.567367	-0.169152	2.454501	0.013502	0.030763	0.065904	1.000000	0.000016	0.000022	0.000020	-4.672249	-75.506017	-1.533080
35651	9.547179	-0.157447	2.447794	0.016251	0.042121	0.044446	1.000000	0.000043	0.000009	0.000020	-4.678041	-75.506196	-1.523736
35652	9.582589	-0.161192	2.425354	0.046873	0.036483	0.073202	1.000000	0.000025	0.000020	0.000021	-4.696840	-75.502442	-1.524517
35653	9.547000	-0.157862	2.448463	0.016270	0.042767	0.044443	1.000000	0.000019	0.000019	0.000009	-4.700481	-75.501469	-1.520268
35654	9.546902	-0.157966	2.448839	0.016018	0.042873	0.044443	1.000000	0.000045	0.000019	0.000018	-4.704928	-75.500637	-1.518731
35655	9.546800	-0.158170	2.449224	0.015796	0.042982	0.044443	1.000000	0.000025	0.000020	0.000021	-4.713211	-75.499455	-1.509048
35656	9.582202	-0.161941	2.426832	0.043540	0.037491	0.073213	1.000000	0.000025	0.000013	0.000017	-4.732221	-75.513302	-1.504593
35657	9.546636	-0.158626	2.449834	0.012933	0.043796	0.044443	1.000000	0.000016	0.000016	0.000016	-4.739262	-75.512791	-1.497293
35658	9.582068	-0.162325	2.427336	0.040869	0.037608	0.073224	1.000000	0.000025	0.000007	0.000013	-4.740333	-75.526099	-1.494716
35659	9.577271	-0.142216	2.390900	0.076974	0.054031	0.059086	1.000000	0.000025	0.000027	0.000026	-4.750475	-75.524309	-1.483266
35660	9.549628	-0.179872	2.406642	0.050514	0.018957	0.037021	1.000000	0.000025	0.000020	0.000021	-4.760959	-75.527233	-1.482545
35661	9.547877	-0.169776	2.429202	0.029665	0.031663	0.040734	1.000000	0.000030	0.000027	0.000009	-4.763033	-75.525567	-1.478799
35662	9.563158	-0.161518	2.399905	0.062541	0.036596	0.048061	1.000000	0.000034	0.000018	0.000023	-4.765706	-75.526142	-1.476621
35663	9.566119	-0.171827	2.459176	0.005320	0.033010	0.065905	1.000000	0.000028	0.000024	0.000015	-4.770990	-75.524835	-1.469879
35664	9.527425	-0.158379	2.423525	0.031389	0.042817	0.019279	1.000000	0.000036	0.000028	0.000021	-4.772519	-75.524573	-1.468142
35665	9.579610	-0.153479	2.452582	0.017289	0.050670	0.076943	1.000000	0.000030	0.000027	0.000009	-4.774588	-75.522915	-1.464406
35666	9.545606	-0.160311	2.453734	0.005496	0.044593	0.044447	1.000000	0.000036	0.000028	0.000021	-4.784769	-75.531463	-1.459441
35667	9.580987	-0.164093	2.431481	0.035559	0.038507	0.073241	1.000000	0.000008	0.000018	0.000014	-4.792247	-75.530901	-1.452831
35668	9.533240	-0.189833	2.440154	0.012324	0.014590	0.029705	1.000000	0.000013	0.000026	0.000031	-4.805421	-75.531814	-1.443948
35669	9.565341	-0.173120	2.462112	0.001217	0.033700	0.065904	1.000000	0.000048	0.000023	0.000012	-4.806995	-75.530752	-1.438750
35670	9.566854	-0.183464	2.440500	0.022511	0.021272	0.062202	1.000000	0.000019	0.000026	0.000014	-4.814527	-75.523507	-1.442024
35671	9.548267	-0.181878	2.411887	0.045846	0.020037	0.037042	1.000000	0.000030	0.000027	0.000009	-4.816763	-75.521886	-1.438250
35672	9.552828	-0.202266	2.449123	0.008398	0.003848	0.051164	1.000000	0.000019	0.000019	0.000009	-4.819265	-75.525785	-1.440535
35673	9.564840	-0.173502	2.464029	0.000330	0.034211	0.065902	1.000000	0.000036	0.000028	0.000021	-4.826138	-75.523988	-1.431324
35674	9.567946	-0.194247	2.420526	0.040525	0.008887	0.058511	1.000000	0.000030	0.000041	0.000018	-4.825962	-75.524714	-1.431901
35675	9.546107	-0.172241	2.435972	0.022705	0.032866	0.040749	1.000000	0.000031	0.000001	0.000020	-4.834181	-75.526098	-1.421821
35676	9.566126	-0.184220	2.443293	0.019165	0.021523	0.062208	1.000000	0.000025	0.000027	-0.000003	-4.826406	-75.526016	-1.431968
35677	9.559699	-0.153678	2.429047	0.034710	0.050515	0.051793	1.000000	0.000025	0.000020	0.000021	-4.835091	-75.525162	-1.422196
35678	9.530375	-0.181026	2.466887	-0.011217	0.028087	0.033400	1.000000	0.000024	0.000027	0.000026	-4.847579	-75.520593	-1.418767
35679	9.579534	-0.166223	2.437052	0.031620	0.039602	0.073250	1.000000	0.000027	0.000024	0.000015	-4.853103	-75.519355	-1.411987
35680	9.543911	-0.162687	2.460163	0.001057	0.046210	0.044441	1.000000	0.000031	0.000021	0.000005	-4.859419	-75.518487	-1.417804
35681	9.543804	-0.162724	2.460575	0.000784	0.046344	0.044440	1.000000	0.000036	0.000021	0.000017	-4.864727	-75.517495	-1.410283
35682	9.545315	-0.173117	2.439013	0.019616	0.033712	0.040752	1.000000	0.000039	0.000032	0.000015	-4.864374	-75.523862	-1.404892
35683	9.545199	-0.173264	2.439455	0.019332	0.033846	0.040752	1.000000	0.000025	0.000013	0.000017	-4.871516	-75.523846	-1.396796
35684	9.579009	-0.166837	2.439075	0.029266	0.039978	0.073256	1.000000	0.000031	0.000007	0.000025	-4.872932	-75.521594	-1.390435
35685	9.565142	-0.185697	2.447033	0.016193	0.022494	0.062211	1.000000	0.000002	0.000024	0.000007	-4.877725	-75.520438	-1.387519
35686	9.557080	-0.144876	2.454850	0.009434	0.063944	0.055487	1.000000	0.000048	0.000023	0.000012	-4.874723	-75.529615	-1.385767
35687	9.566563	-0.196177	2.425833	0.034432	0.009971	0.058533	1.000000	0.000025	0.000020	0.000021	-4.883533	-75.528826	-1.375977
35688	9.556882	-0.145259	2.455596	0.007770	0.064292	0.055486	1.000000	0.000025	0.000013	0.000017	-4.892007	-75.535258	-1.376345
35689	9.543015	-0.164032	2.463548	-0.005321	0.046813	0.044436	1.000000	0.000028	0.000017	0.000011	-4.895956	-75.534971	-1.371256
35690	9.564668	-0.186329	2.448835	0.010655	0.022732	0.062218	1.000000	0.000045	0.000012	0.000014	-4.890451	-75.542299	-1.368503
35691	9.573754	-0.147770	2.404610	0.059566	0.056698	0.059191	1.000000	0.000008	0.000012	0.000039	-4.909246	-75.542406	-1.350408
35692	9.538147	-0.144405	2.427596	0.028362	0.063148	0.030358	1.000000	0.000042	0.000022	-0.000000	-4.907715	-75.545338	-1.359028
35693	9.558119	-0.156398	2.435083	0.024982	0.052049	0.051815	1.000000	0.000025	0.000020	0.000021	-4.916595	-75.544656	-1.349225
35694	9.559664	-0.166908	2.413415	0.045125	0.039411	0.048145	1.000000	0.000036	0.000021	0.000017	-4.918855	-75.544526	-1.351356
35695	9.571686	-0.138136	2.428294	0.037051	0.069796	0.062870	1.000000	0.000019	0.000026	0.000014	-4.924822	-75.543236	-1.345288
35696	9.577866	-0.168909	2.443417	0.020450	0.041042	0.073274	1.000000	0.000025	0.000013	0.000017	-4.930714	-75.545805	-1.340840
35697	9.545571	-0.186022	2.422220	0.030980	0.022161	0.037095	1.000000	0.000028	0.000017	0.000011	-4.934729	-75.545598	-1.335748
35698	9.557623	-0.157265	2.436976	0.022947	0.052482	0.051817	1.000000	0.000033	0.000018	0.000023	-4.941868	-75.544951	-1.330690
35699	9.537433	-0.145632	2.430327	0.025719	0.063853	0.030361	1.000000	0.000024	0.000027	0.000026	-4.952510	-75.543458	-1.319177
35700	9.579134	-0.179859	2.422818	0.039459	0.028488	0.069612	1.000000	0.000025	0.000013	-0.000012	-4.937582	-75.545845	-1.328802
35701	9.545181	-0.186502	2.423717	0.029431	0.022251	0.037100	1.000000	0.000025	0.000020	0.000021	-4.946509	-75.545179	-1.319006
35702	9.545058	-0.186832	2.424176	0.028731	0.022018	0.037103	1.000000	0.000024	0.000027	0.000026	-4.948211	-75.545896	-1.311071
35703	9.578782	-0.180470	2.424163	0.038127	0.028529	0.069617	1.000000	0.000027	0.000031	0.000019	-4.955576	-75.544070	-1.302594
35704	9.563166	-0.189026	2.454489	0.003997	0.023966	0.062220	1.000000	0.000027	0.000031	0.000019	-4.968831	-75.544966	-1.299756
35705	9.556775	-0.158702	2.440206	0.019573	0.052940	0.051822	1.000000	0.000033	0.000018	0.000023	-4.977518	-75.544576	-1.289228
35706	9.561268	-0.179108	2.477454	-0.017959	0.036980	0.065876	1.000000	0.000039	0.000025	0.000010	-4.981205	-75.547967	-1.290862
35707	9.524350	-0.176023	2.419512	0.029025	0.034270	0.015652	1.000000	0.000031	0.000014	0.000029	-4.993166	-75.547955	-1.277312
35708	9.561078	-0.179456	2.478162	-0.018160	0.037170	0.065875	1.000000	0.000013	0.000019	-0.000003	-4.990892	-75.545175	-1.283875
35709	9.558058	-0.169479	2.419592	0.038534	0.040825	0.048168	1.000000	0.000036	0.000015	0.000012	-4.994741	-75.545255	-1.278049
35710	9.576350	-0.171435	2.449175	0.014360	0.042553	0.073278	1.000000	0.000030	0.000028	0.000038	-5.013676	-75.544842	-1.271556
35711	9.537732	-0.158243	2.413471	0.040801	0.052485	0.026712	1.000000	0.000027	0.000031	0.000019	-5.021239	-75.543037	-1.263050
35712	9.568151	-0.131212	2.457529	0.006915	0.084149	0.066536	1.000000	0.000025	0.000020	0.000021	-5.024959	-75.555035	-1.254543
35713	9.562156	-0.190826	2.458282	-0.001592	0.025213	0.062218	1.000000	0.000039	0.000018	0.000006	-5.025640	-75.554845	-1.251722
35714	9.557458	-0.170621	2.421880	0.035525	0.041504	0.048176	1.000000	0.000019	0.000026	0.000014	-5.032239	-75.547991	-1.253925
35715	9.555707	-0.160370	2.444276	0.014652	0.054322	0.051823	1.000000	0.000037	0.000008	0.000008	-5.034506	-75.548931	-1.249783
35716	9.557299	-0.170825	2.422493	0.034778	0.041752	0.048178	1.000000	0.000025	0.000020	0.000021	-5.042696	-75.548935	-1.251040
35717	9.541732	-0.179183	2.452556	0.001092	0.036986	0.040760	1.000000	0.000031	0.000014	0.000000	-5.042055	-75.549270	-1.250640
35718	9.555451	-0.160751	2.445250	0.012917	0.054296	0.051826	1.000000	0.000022	0.000023	0.000032	-5.045753	-75.552019	-1.242135
35719	9.555346	-0.161039	2.445643	0.012589	0.054443	0.051825	1.000000	0.000028	0.000017	0.000011	-5.049987	-75.551909	-1.237038
35720	9.541450	-0.179785	2.453611	-0.000792	0.036853	0.040761	1.000000	0.000025	0.000013	0.000017	-5.053881	-75.553536	-1.236224
35721	9.570670	-0.153137	2.416520	0.045054	0.059499	0.059251	1.000000	0.000033	0.000018	0.000023	-5.062749	-75.553217	-1.225687
35722	9.576819	-0.183879	2.431654	0.028930	0.030533	0.069642	1.000000	0.000028	0.000017	0.000011	-5.060005	-75.552209	-1.226810
35723	9.555019	-0.161623	2.446881	0.011184	0.054583	0.051826	1.000000	0.000019	0.000013	0.000005	-5.062849	-75.552661	-1.224152
35724	9.550348	-0.141504	2.410429	0.045692	0.070783	0.037807	1.000000	0.000036	0.000028	0.000021	-5.067634	-75.560824	-1.218235
35725	9.554835	-0.161891	2.447580	0.008864	0.054806	0.051827	1.000000	0.000043	0.000002	0.000016	-5.072867	-75.562442	-1.210365
35726	9.556436	-0.172258	2.425794	0.029748	0.042075	0.048193	1.000000	0.000013	0.000025	0.000002	-5.070314	-75.557553	-1.218740
35727	9.576386	-0.184240	2.433332	0.026280	0.031003	0.069648	1.000000	0.000028	0.000017	0.000011	-5.074578	-75.557469	-1.213660
35728	9.552882	-0.151814	2.470719	-0.012900	0.067674	0.055458	1.000000	0.000033	0.000025	0.000027	-5.083042	-75.561608	-1.203390
35729	9.560661	-0.192965	2.463923	-0.008656	0.026334	0.062211	1.000000	0.000036	0.000021	0.000017	-5.088721	-75.560986	-1.195881
35730	9.549770	-0.142395	2.412666	0.042673	0.071149	0.037818	1.000000	0.000025	0.000020	0.000021	-5.091614	-75.565027	-1.189308
35731	9.569721	-0.154722	2.420176	0.039189	0.060078	0.059273	1.000000	0.000013	0.000019	0.000026	-5.104324	-75.564627	-1.177236
35732	9.542008	-0.192183	2.435737	0.012506	0.025075	0.037129	1.000000	0.000043	0.000002	0.000016	-5.109657	-75.570414	-1.175838
35733	9.575772	-0.185790	2.435627	0.021830	0.031589	0.069657	1.000000	0.000035	0.000042	0.000029	-5.120401	-75.567383	-1.163250
35734	9.533830	-0.151695	2.444053	0.006711	0.066821	0.030372	1.000000	0.000013	0.000025	0.000002	-5.120713	-75.569689	-1.172648
35735	9.572138	-0.165403	2.480818	-0.020479	0.057238	0.076901	1.000000	0.000025	0.000020	0.000021	-5.129965	-75.569228	-1.162858
35736	9.569164	-0.155757	2.422312	0.035989	0.060893	0.059280	1.000000	0.000036	0.000021	0.000017	-5.138258	-75.570087	-1.164288
35737	9.555222	-0.174492	2.430413	0.022813	0.043472	0.048205	1.000000	0.000036	0.000021	0.000017	-5.144040	-75.569533	-1.156777
35738	9.535067	-0.162742	2.423677	0.025848	0.054621	0.026751	1.000000	0.000025	0.000020	0.000021	-5.148372	-75.567751	-1.155631
35739	9.575076	-0.186818	2.438286	0.019178	0.032346	0.069660	1.000000	0.000019	0.000013	0.000005	-5.151372	-75.568320	-1.152983
35740	9.574967	-0.187033	2.438695	0.018641	0.032010	0.069662	1.000000	0.000041	0.000029	0.000033	-5.151880	-75.567739	-1.144331
35741	9.548582	-0.144969	2.417210	0.037444	0.072165	0.037832	1.000000	0.000030	0.000021	0.000033	-5.165774	-75.567058	-1.129115
35742	9.559190	-0.195978	2.469388	-0.014426	0.026953	0.062203	1.000000	0.000030	0.000027	0.000009	-5.157428	-75.560037	-1.132411
35743	9.539047	-0.184115	2.462617	-0.011607	0.038321	0.040748	1.000000	0.000034	0.000011	0.000019	-5.164701	-75.560609	-1.123618
35744	9.554475	-0.176060	2.433235	0.021980	0.043399	0.048207	1.000000	0.000027	0.000024	0.000015	-5.172557	-75.556476	-1.128008
35745	9.552673	-0.165853	2.455740	0.001115	0.056266	0.051823	1.000000	0.000027	0.000024	0.000015	-5.178593	-75.555604	-1.121280
35746	9.572594	-0.178050	2.463346	-0.002475	0.044961	0.073278	1.000000	0.000016	0.000022	0.000020	-5.182386	-75.555305	-1.123182
35747	9.532396	-0.154435	2.449470	0.003526	0.067541	0.030369	1.000000	0.000042	0.000022	0.000029	-5.192760	-75.554466	-1.110286
35748	9.533966	-0.165116	2.427845	0.023715	0.054800	0.026756	1.000000	0.000025	0.000020	0.000021	-5.197954	-75.553914	-1.106003
35749	9.553888	-0.177139	2.435459	0.020204	0.043740	0.048210	1.000000	0.000024	0.000027	-0.000003	-5.196139	-75.552909	-1.107754
35750	9.552113	-0.166850	2.457853	-0.000446	0.056095	0.051824	1.000000	0.000022	0.000010	0.000023	-5.194932	-75.552236	-1.104430
35751	9.565896	-0.148539	2.450396	0.012054	0.073812	0.062902	1.000000	0.000025	0.000013	0.000017	-5.202496	-75.552520	-1.096408
35752	9.553641	-0.177663	2.436387	0.019307	0.043115	0.048214	1.000000	0.000036	0.000021	0.000017	-5.194929	-75.552329	-1.089566
35753	9.551872	-0.167454	2.458747	-0.001556	0.055983	0.051825	1.000000	0.000034	0.000011	0.000019	-5.202167	-75.552866	-1.080826
35754	9.553458	-0.177933	2.437089	0.017456	0.043271	0.048217	1.000000	0.000030	0.000027	0.000009	-5.201062	-75.558487	-1.082304
35755	9.567204	-0.159470	2.429800	0.029946	0.060986	0.059300	1.000000	0.000025	0.000013	0.000017	-5.208592	-75.558806	-1.074306
35756	9.553234	-0.178277	2.437938	0.015472	0.043329	0.048220	1.000000	0.000018	0.000033	0.000018	-5.210266	-75.564412	-1.068295
35757	9.566961	-0.159958	2.430723	0.027954	0.061043	0.059305	1.000000	0.000042	0.000015	0.000024	-5.218905	-75.564455	-1.057139
35758	9.551331	-0.168326	2.460788	-0.004722	0.056241	0.051822	1.000000	0.000019	0.000019	0.000009	-5.221370	-75.558234	-1.064241
35759	9.566770	-0.160320	2.431451	0.028292	0.061228	0.059303	1.000000	0.000025	0.000020	0.000021	-5.230583	-75.557738	-1.054572
35760	9.532772	-0.167144	2.432394	0.018688	0.054978	0.026766	1.000000	0.000027	0.000024	0.000015	-5.235628	-75.554645	-1.055375
35761	9.546532	-0.148752	2.425066	0.031187	0.072688	0.037850	1.000000	0.000025	0.000013	0.000017	-5.243196	-75.554954	-1.047395
35762	9.566470	-0.160804	2.432599	0.027329	0.061416	0.059305	1.000000	0.000022	0.000023	0.000003	-5.239502	-75.556215	-1.053776
35763	9.566359	-0.160852	2.433033	0.026986	0.061568	0.059305	1.000000	0.000036	0.000021	0.000017	-5.245227	-75.555615	-1.046402
35764	9.566252	-0.161067	2.433441	0.025622	0.061900	0.059306	1.000000	0.000025	0.000020	0.000021	-5.258448	-75.561182	-1.048376
35765	9.564440	-0.150835	2.455934	0.004760	0.074794	0.062901	1.000000	0.000030	0.000027	0.000009	-5.261265	-75.560013	-1.044759
35766	9.567706	-0.171937	2.412315	0.044267	0.049285	0.055718	1.000000	0.000028	0.000017	0.000040	-5.273722	-75.566482	-1.031188
35767	9.565899	-0.161945	2.434767	0.023400	0.062180	0.059310	1.000000	0.000019	0.000026	0.000014	-5.280057	-75.565442	-1.025297
35768	9.571966	-0.192665	2.450012	0.007154	0.033051	0.069674	1.000000	0.000034	0.000011	0.000019	-5.275200	-75.565065	-1.022610
35769	9.550172	-0.170354	2.465144	-0.010507	0.057153	0.051813	1.000000	0.000039	0.000018	0.000006	-5.276041	-75.564994	-1.019962
35770	9.571802	-0.192793	2.450643	0.006219	0.033239	0.069674	1.000000	0.000016	0.000016	0.000016	-5.281109	-75.566439	-1.022732
35771	9.563848	-0.152140	2.458155	0.001411	0.074896	0.062902	1.000000	0.000042	0.000022	0.000029	-5.291496	-75.565679	-1.009940
35772	9.551533	-0.181397	2.444365	0.008113	0.044244	0.048225	1.000000	0.000018	0.000033	0.000018	-5.287316	-75.567286	-1.008087
35773	9.553122	-0.192085	2.422735	0.028268	0.031650	0.044639	1.000000	0.000031	0.000007	0.000025	-5.297852	-75.568279	-0.996392
35774	9.551342	-0.181831	2.445079	0.008026	0.044153	0.048225	1.000000	0.000013	0.000025	0.000002	-5.290524	-75.563774	-1.004964
35775	9.545076	-0.151425	2.430626	0.023735	0.073058	0.037868	1.000000	0.000025	0.000020	0.000021	-5.299740	-75.563325	-0.995374
35776	9.549408	-0.171714	2.468007	-0.013452	0.056701	0.051812	1.000000	0.000030	0.000027	0.000009	-5.290651	-75.563621	-0.997330
35777	9.552678	-0.192600	2.424443	0.027216	0.031355	0.044643	1.000000	0.000036	0.000021	0.000017	-5.296320	-75.563082	-0.990040
35778	9.552553	-0.192857	2.424918	0.028254	0.031578	0.044639	1.000000	0.000024	0.000027	0.000026	-5.309674	-75.553745	-0.994305
35779	9.578475	-0.145597	2.432014	0.033107	0.079571	0.070412	1.000000	0.000036	0.000021	0.000017	-5.315379	-75.553162	-0.987023
35780	9.535014	-0.191052	2.477659	-0.026064	0.039420	0.040716	1.000000	0.000018	0.000033	0.000018	-5.313349	-75.549805	-0.989540
35781	9.564335	-0.164421	2.440740	0.019804	0.061898	0.059320	1.000000	0.000013	0.000019	-0.000003	-5.313293	-75.549754	-0.990880
35782	9.548652	-0.172587	2.470868	-0.014177	0.057269	0.051807	1.000000	0.000027	0.000024	0.000015	-5.319182	-75.550592	-0.995289
35783	9.585843	-0.186944	2.426744	0.036109	0.038229	0.077189	1.000000	0.000028	0.000017	0.000011	-5.323501	-75.550576	-0.990450
35784	9.564034	-0.164636	2.441906	0.017559	0.062330	0.059321	1.000000	0.000019	0.000019	0.000009	-5.327413	-75.555804	-0.997828
35785	9.563949	-0.164783	2.442226	0.017209	0.062482	0.059321	1.000000	0.000025	0.000013	0.000017	-5.334994	-75.556160	-0.989970
35786	9.549984	-0.183405	2.450261	0.004111	0.044678	0.048225	1.000000	0.000030	0.000021	0.000005	-5.326310	-75.555105	-0.996377
35787	9.563745	-0.164910	2.443016	0.016623	0.062364	0.059323	1.000000	0.000019	0.000026	0.000014	-5.332564	-75.554035	-0.990628
35788	9.551432	-0.194073	2.429232	0.023621	0.031816	0.044651	1.000000	0.000036	0.000028	0.000021	-5.330623	-75.554275	-0.988367
35789	9.577367	-0.146715	2.436308	0.028496	0.079806	0.070424	1.000000	0.000019	0.000019	0.000009	-5.335195	-75.554033	-0.984310
35790	9.565108	-0.175828	2.422317	0.034841	0.049254	0.055756	1.000000	0.000025	0.000013	0.000017	-5.333107	-75.559818	-0.983899
35791	9.531144	-0.182603	2.423062	0.024869	0.043071	0.023206	1.000000	0.000025	0.000013	0.000017	-5.340623	-75.560199	-0.976089
35792	9.563256	-0.165746	2.444873	0.013089	0.062167	0.059329	1.000000	0.000036	0.000015	0.000012	-5.340761	-75.563690	-0.980791
35793	9.563183	-0.165877	2.445151	0.012732	0.062317	0.059329	1.000000	0.000025	0.000013	0.000017	-5.348285	-75.564085	-0.972991
35794	9.544794	-0.164568	2.416244	0.037109	0.060318	0.034312	1.000000	0.000025	0.000020	0.000021	-5.344499	-75.557793	-0.973140
35795	9.562975	-0.166354	2.445931	0.013015	0.062042	0.059330	1.000000	0.000019	0.000026	0.000014	-5.350675	-75.556738	-0.967459
35796	9.542830	-0.154571	2.439232	0.014884	0.073255	0.037884	1.000000	0.000036	0.000028	0.000021	-5.354428	-75.561401	-0.967255
35797	9.574893	-0.137739	2.461229	0.003647	0.092513	0.074002	1.000000	0.000019	0.000019	0.000009	-5.358951	-75.561194	-0.963258
35798	9.562584	-0.166971	2.447420	0.011513	0.061910	0.059333	1.000000	0.000033	0.000031	0.000031	-5.361079	-75.555852	-0.959942
35799	9.548550	-0.185809	2.455664	-0.001707	0.044531	0.048227	1.000000	0.000027	0.000024	0.000015	-5.366964	-75.555056	-0.953547
35800	9.562319	-0.167426	2.448423	0.011346	0.061899	0.059333	1.000000	0.000027	0.000024	0.000015	-5.365959	-75.551104	-0.957550
35801	9.542194	-0.155599	2.441650	0.014254	0.073246	0.037885	1.000000	0.000027	0.000024	0.000015	-5.371834	-75.550291	-0.951173
35802	9.577660	-0.159683	2.419725	0.043710	0.066641	0.066877	1.000000	0.000018	0.000033	0.000018	-5.372895	-75.550096	-0.951963
35803	9.548038	-0.186553	2.457595	-0.002871	0.044533	0.048226	1.000000	0.000025	0.000013	0.000017	-5.380342	-75.550457	-0.944249
35804	9.529644	-0.185219	2.428758	0.020640	0.042548	0.023218	1.000000	0.000036	0.000028	0.000021	-5.374984	-75.548345	-0.943156
35805	9.541699	-0.156504	2.443527	0.012672	0.073005	0.037889	1.000000	0.000025	0.000020	0.000021	-5.384051	-75.547878	-0.933794
35806	9.547722	-0.187159	2.458779	-0.005552	0.044044	0.048228	1.000000	0.000028	0.000010	0.000007	-5.376927	-75.558812	-0.937363
35807	9.561558	-0.168722	2.451305	0.006957	0.061710	0.059338	1.000000	0.000025	0.000013	0.000017	-5.384320	-75.559213	-0.929685
35808	9.561486	-0.168927	2.451569	0.006194	0.061632	0.059339	1.000000	0.000025	0.000013	0.000017	-5.386410	-75.561997	-0.935197
35809	9.561415	-0.169132	2.451834	0.005833	0.061776	0.059339	1.000000	0.000025	0.000013	0.000017	-5.393803	-75.562407	-0.927531
35810	9.544756	-0.178214	2.400947	0.048760	0.047138	0.030791	1.000000	0.000027	0.000024	0.000015	-5.390176	-75.567200	-0.927359
35811	9.562909	-0.179920	2.430684	0.024632	0.048878	0.055789	1.000000	0.000019	0.000026	0.000014	-5.396233	-75.566215	-0.921812
35812	9.561086	-0.169589	2.453084	0.003804	0.061542	0.059341	1.000000	0.000036	0.000015	0.000012	-5.393651	-75.566406	-0.923558
35813	9.542719	-0.168223	2.424175	0.027205	0.060084	0.034346	1.000000	0.000025	0.000020	0.000021	-5.402675	-75.566016	-0.914252
35814	9.526992	-0.176417	2.454284	-0.006639	0.054852	0.026782	1.000000	0.000030	0.000021	0.000005	-5.388102	-75.566383	-0.919946
35815	9.542497	-0.168320	2.425043	0.026352	0.059711	0.034350	1.000000	0.000030	0.000027	0.000009	-5.390594	-75.565304	-0.916717
35816	9.542394	-0.168434	2.425442	0.025400	0.059685	0.034353	1.000000	0.000025	0.000013	0.000017	-5.393884	-75.569186	-0.918183
35817	9.558855	-0.159764	2.477023	-0.019221	0.074231	0.062888	1.000000	0.000025	0.000020	0.000021	-5.402865	-75.568811	-0.908914
35818	9.556125	-0.150406	2.418386	0.037097	0.077262	0.045476	1.000000	0.000025	0.000013	0.000017	-5.405106	-75.571871	-0.912983
35819	9.542073	-0.169154	2.426652	0.023856	0.059891	0.034356	1.000000	0.000046	0.000043	0.000025	-5.412036	-75.568851	-0.903270
35820	9.541927	-0.169305	2.427218	0.024039	0.059467	0.034358	1.000000	0.000036	0.000015	0.000012	-5.402820	-75.565916	-0.906584
35821	9.575706	-0.162928	2.427233	0.033254	0.065917	0.066923	1.000000	0.000018	0.000033	0.000018	-5.410440	-75.564116	-0.899462
35822	9.541672	-0.169559	2.428201	0.022355	0.059576	0.034361	1.000000	0.000030	0.000021	0.000005	-5.407029	-75.569446	-0.906626
35823	9.539852	-0.159105	2.450562	0.001507	0.072525	0.037900	1.000000	0.000028	0.000017	0.000011	-5.411076	-75.569567	-0.902106
35824	9.555421	-0.151078	2.421122	0.034977	0.076714	0.045488	1.000000	0.000028	0.000010	0.000007	-5.398417	-75.567554	-0.906013
35825	9.553617	-0.140755	2.443412	0.014131	0.089660	0.049028	1.000000	0.000025	0.000020	0.000021	-5.407316	-75.567182	-0.896821
35826	9.581295	-0.193925	2.444095	0.016773	0.036693	0.077246	1.000000	0.000036	0.000021	0.000017	-5.404411	-75.555042	-0.903548
35827	9.555113	-0.151692	2.422301	0.035887	0.076731	0.045485	1.000000	0.000024	0.000027	0.000026	-5.414942	-75.553794	-0.892715
35828	9.539315	-0.160055	2.452589	0.000878	0.072101	0.037904	1.000000	0.000018	0.000033	0.000018	-5.420269	-75.559576	-0.896546
35829	9.576584	-0.174637	2.408514	0.051039	0.052906	0.063395	1.000000	0.000043	0.000002	0.000016	-5.425323	-75.561331	-0.889223
35830	9.554779	-0.152281	2.423580	0.033014	0.077040	0.045493	1.000000	0.000030	0.000034	0.000013	-5.428988	-75.562410	-0.898340
35831	9.558966	-0.172443	2.461133	-0.004019	0.061309	0.059342	1.000000	0.000027	0.000024	0.000015	-5.434658	-75.561683	-0.892224
35832	9.576205	-0.175081	2.409992	0.049483	0.053073	0.063402	1.000000	0.000018	0.000033	0.000018	-5.437265	-75.559640	-0.894736
35833	9.552639	-0.142304	2.447143	0.011494	0.090063	0.049028	1.000000	0.000036	0.000015	0.000012	-5.441016	-75.559986	-0.889550
35834	9.540347	-0.171495	2.433266	0.017470	0.059547	0.034371	1.000000	0.000033	0.000025	0.000027	-5.443228	-75.566253	-0.887070
35835	9.538483	-0.161283	2.455744	-0.003368	0.072516	0.037900	1.000000	0.000019	0.000026	0.000014	-5.449147	-75.565302	-0.881740
35836	9.573966	-0.165556	2.433908	0.027098	0.065751	0.066942	1.000000	0.000024	0.000034	0.000030	-5.453017	-75.558602	-0.880128
35837	9.553849	-0.153939	2.427142	0.030053	0.077081	0.045502	1.000000	0.000025	0.000020	0.000021	-5.461897	-75.558225	-0.871042
35838	9.539843	-0.172584	2.435163	0.019669	0.059499	0.034367	1.000000	0.000028	0.000010	0.000007	-5.460111	-75.542421	-0.884808
35839	9.607557	-0.159563	2.434676	0.038468	0.072229	0.099505	1.000000	0.000030	0.000027	0.000009	-5.462509	-75.541283	-0.881796
35840	9.553573	-0.154200	2.428208	0.031920	0.076782	0.045498	1.000000	0.000025	0.000013	0.000017	-5.458570	-75.541247	-0.883963
35841	9.561261	-0.195359	2.421613	0.035805	0.035393	0.052278	1.000000	0.000027	0.000024	0.000015	-5.464179	-75.540450	-0.877951
35842	9.573309	-0.166580	2.436421	0.027478	0.065524	0.066943	1.000000	0.000018	0.000033	0.000018	-5.463765	-75.540941	-0.878928
35843	9.525338	-0.191688	2.445090	0.004651	0.041879	0.023242	1.000000	0.000030	0.000021	0.000005	-5.464474	-75.540632	-0.877620
35844	9.553078	-0.154768	2.430119	0.029158	0.076735	0.045507	1.000000	0.000036	0.000028	0.000021	-5.465346	-75.544753	-0.879969
35845	9.534726	-0.153421	2.401301	0.052590	0.075213	0.020540	1.000000	0.000019	0.000019	0.000009	-5.469551	-75.544558	-0.876409
35846	9.538911	-0.173647	2.438737	0.014974	0.058847	0.034379	1.000000	0.000033	0.000025	0.000027	-5.463793	-75.546761	-0.872564
35847	9.557047	-0.175248	2.468379	-0.009181	0.060635	0.059343	1.000000	0.000039	0.000011	0.000002	-5.462537	-75.547561	-0.872208
35848	9.552681	-0.155206	2.431652	0.027114	0.075964	0.045519	1.000000	0.000028	0.000017	0.000011	-5.451640	-75.547774	-0.880976
35849	9.538636	-0.173824	2.439799	0.013855	0.058611	0.034383	1.000000	0.000019	0.000026	0.000014	-5.457404	-75.546766	-0.875805
35850	9.574193	-0.177895	2.417764	0.042710	0.051981	0.063439	1.000000	0.000028	0.000010	0.000007	-5.454719	-75.552316	-0.879991
35851	9.552396	-0.155575	2.432748	0.025231	0.076156	0.045522	1.000000	0.000042	0.000022	0.000029	-5.464589	-75.551599	-0.867883
35852	9.552299	-0.155776	2.433114	0.007209	0.013748	0.045837	1.000000	0.000036	0.000015	0.000012	-3.990624	-75.645288	-2.564469
35853	9.538243	-0.174324	2.441299	-0.006191	-0.003726	0.034564	1.000000	0.000013	0.000032	0.000006	-3.987450	-75.644079	-2.569519
35854	9.570285	-0.157555	2.463309	-0.017475	0.015102	0.070760	1.000000	0.000031	0.000014	0.000029	-3.992798	-75.644566	-2.576982
35855	9.571943	-0.168397	2.441656	0.002483	0.002042	0.067198	1.000000	0.000033	0.000018	0.000023	-3.995231	-75.644850	-2.573815
35856	9.537928	-0.175109	2.442476	-0.007486	-0.004126	0.034563	1.000000	0.000027	0.000024	0.000015	-3.994421	-75.644552	-2.578979
35857	9.539572	-0.185801	2.420892	0.012471	-0.017191	0.031002	1.000000	0.000016	0.000016	0.000016	-3.995676	-75.645136	-2.579038
35858	9.551650	-0.157038	2.435580	0.004606	0.012951	0.045839	1.000000	0.000027	0.000031	0.000019	-3.996657	-75.644013	-2.585988
35859	9.531575	-0.145266	2.428684	0.007620	0.024136	0.024481	1.000000	0.000025	0.000013	0.000017	-3.997631	-75.644854	-2.585312
35860	9.585358	-0.151018	2.435932	0.013225	0.018714	0.078477	1.000000	0.000025	0.000020	0.000021	-4.000087	-75.645028	-2.584303
35861	9.553108	-0.168191	2.414714	0.023658	-0.000384	0.042283	1.000000	0.000036	0.000015	0.000012	-3.997555	-75.645763	-2.585900
35862	9.537337	-0.176299	2.444693	-0.010156	-0.004910	0.034560	1.000000	0.000025	0.000013	0.000017	-3.998198	-75.646665	-2.581395
35863	9.551207	-0.157954	2.437259	0.002380	0.012298	0.045841	1.000000	0.000028	0.000017	0.000011	-3.995946	-75.647143	-2.583727
35864	9.537154	-0.176552	2.445393	-0.011051	-0.005173	0.034559	1.000000	0.000027	0.000024	0.000015	-3.995133	-75.646917	-2.579836
35865	9.566706	-0.150208	2.408336	0.034849	0.016418	0.053570	1.000000	0.000036	0.000015	0.000012	-3.992601	-75.647651	-2.581433
35866	9.549181	-0.147792	2.460278	-0.019333	0.024846	0.049395	1.000000	0.000025	0.000013	0.000017	-3.993247	-75.648449	-2.586227
35867	9.536874	-0.177078	2.446445	-0.012359	-0.005561	0.034557	1.000000	0.000024	0.000027	0.000026	-3.997705	-75.647663	-2.582036
35868	9.566424	-0.150851	2.409418	0.033504	0.016015	0.053575	1.000000	0.000036	0.000015	0.000012	-3.994816	-75.648592	-2.563325
35869	9.556625	-0.189563	2.454546	-0.016732	-0.017142	0.055911	1.000000	0.000030	0.000021	0.000033	-4.002222	-75.648423	-2.555389
35870	9.548711	-0.148907	2.462034	-0.021120	0.024316	0.049393	1.000000	0.000029	0.000041	0.000017	-4.001667	-75.646093	-2.562953
35871	9.553799	-0.180754	2.396812	0.039606	-0.014667	0.038743	1.000000	0.000024	0.000027	0.000026	-4.006125	-75.645306	-2.558763
35872	9.550160	-0.159974	2.441227	-0.001615	0.011102	0.045843	1.000000	0.000027	0.000024	0.000015	-4.005341	-75.645023	-2.566562
35873	9.569974	-0.172171	2.449102	-0.005527	-0.000336	0.067197	1.000000	0.000027	0.000031	0.000019	-4.006572	-75.643874	-2.565381
35874	9.551645	-0.170889	2.420306	0.017871	-0.002118	0.042295	1.000000	0.000036	0.000022	0.000017	-4.005469	-75.643928	-2.557274
35875	9.569748	-0.172536	2.449957	-0.006429	-0.000601	0.067196	1.000000	0.000025	0.000013	0.000017	-4.006448	-75.644768	-2.556595
35876	9.549678	-0.160766	2.443058	-0.003412	0.010577	0.045843	1.000000	0.000018	0.000033	0.000018	-4.007701	-75.643486	-2.559014
35877	9.549496	-0.160888	2.443764	-0.003850	0.010451	0.045843	1.000000	0.000024	0.000040	0.000005	-4.002758	-75.641357	-2.564586
35878	9.569305	-0.173086	2.451648	-0.007774	-0.001002	0.067195	1.000000	0.000031	0.000014	0.000029	-4.008097	-75.642033	-2.557144
35879	9.551017	-0.171899	2.422712	0.015651	-0.002776	0.042299	1.000000	0.000027	0.000024	0.000015	-4.007590	-75.641698	-2.557717
35880	9.569113	-0.173542	2.452368	-0.008669	-0.001264	0.067195	1.000000	0.000034	0.000011	0.000019	-4.008010	-75.642881	-2.556840
35881	9.564799	-0.153883	2.415669	0.027739	0.014278	0.053596	1.000000	0.000033	0.000025	0.000027	-4.012191	-75.642350	-2.551914
35882	9.536768	-0.191091	2.431506	0.001349	-0.020501	0.031004	1.000000	0.000034	0.000011	0.000019	-4.012550	-75.643383	-2.553850
35883	9.568809	-0.174389	2.453494	-0.009977	-0.001655	0.067193	1.000000	0.000007	0.000032	0.000023	-4.017561	-75.642083	-2.551137
35884	9.548710	-0.162700	2.446713	-0.006937	0.009518	0.045842	1.000000	0.000036	0.000028	0.000021	-4.018190	-75.641244	-2.540937
35885	9.568527	-0.174960	2.454552	-0.010866	-0.001921	0.067192	1.000000	0.000025	0.000020	0.000021	-4.020910	-75.641270	-2.538502
35886	9.550211	-0.173769	2.425751	0.012573	-0.003716	0.042303	1.000000	0.000018	0.000033	0.000018	-4.022086	-75.639828	-2.536842
35887	9.548301	-0.163359	2.448266	-0.008245	0.009128	0.045841	1.000000	0.000039	0.000025	0.000010	-4.018078	-75.639387	-2.539685
35888	9.534209	-0.181968	2.456453	-0.021676	-0.008327	0.034539	1.000000	0.000025	0.000020	0.000021	-4.020496	-75.639480	-2.530190
35889	9.543898	-0.143836	2.411976	0.027722	0.024524	0.032257	1.000000	0.000025	0.000013	0.000017	-4.021480	-75.640320	-2.529507
35890	9.563756	-0.156083	2.419656	0.023779	0.013070	0.053608	1.000000	0.000033	0.000018	0.000023	-4.023614	-75.640647	-2.522662
35891	9.547909	-0.164202	2.449736	-0.010019	0.008599	0.045840	1.000000	0.000036	0.000022	0.000017	-4.022833	-75.640568	-2.522496
35892	9.563551	-0.156409	2.420444	0.022932	0.012797	0.053610	1.000000	0.000019	0.000019	0.000009	-4.020537	-75.640631	-2.534727
35893	9.547687	-0.164372	2.450591	-0.010866	0.008335	0.045839	1.000000	0.000030	0.000027	0.000009	-4.016805	-75.639934	-2.538308
35894	9.563332	-0.156582	2.421299	0.022039	0.012532	0.053613	1.000000	0.000025	0.000013	0.000017	-4.017458	-75.640855	-2.529351
35895	9.547480	-0.164674	2.451376	-0.011758	0.008069	0.045839	1.000000	0.000019	0.000026	0.000014	-4.017228	-75.640263	-2.530663
35896	9.563113	-0.157004	2.422136	0.021163	0.012263	0.053615	1.000000	0.000025	0.000020	0.000021	-4.019644	-75.640291	-2.531710
35897	9.561220	-0.146782	2.444540	0.000350	0.025114	0.057147	1.000000	0.000024	0.000027	0.000026	-4.024103	-75.639502	-2.527523
35898	9.534898	-0.194572	2.438551	-0.005692	-0.022617	0.030997	1.000000	0.000025	0.000020	0.000021	-4.026526	-75.639562	-2.530292
35899	9.562785	-0.157818	2.423377	0.019843	0.011867	0.053618	1.000000	0.000019	0.000013	0.000005	-4.022823	-75.640598	-2.535108
35900	9.546939	-0.165959	2.453397	-0.013949	0.007410	0.045836	1.000000	0.000030	0.000021	0.000033	-4.029934	-75.640397	-2.538115
35901	9.548580	-0.176875	2.431940	0.005982	-0.005704	0.042308	1.000000	0.000036	0.000028	0.000021	-4.030892	-75.639502	-2.536196
35902	9.562469	-0.158711	2.424565	0.018523	0.011457	0.053621	1.000000	0.000022	0.000010	0.000023	-4.034801	-75.640770	-2.529423
35903	9.548391	-0.177406	2.432645	0.005093	-0.005969	0.042308	1.000000	0.000027	0.000024	0.000015	-4.034297	-75.640433	-2.529996
35904	9.562268	-0.159185	2.425326	0.017634	0.011192	0.053623	1.000000	0.000025	0.000020	0.000021	-4.036692	-75.640520	-2.521752
35905	9.546401	-0.167255	2.455400	-0.016164	0.006757	0.045833	1.000000	0.000019	0.000019	0.000009	-4.034726	-75.640742	-2.524816
35906	9.567980	-0.189986	2.441324	0.000222	-0.017688	0.063653	1.000000	0.000036	0.000028	0.000021	-4.035372	-75.639971	-2.513459
35907	9.540223	-0.137287	2.441177	-0.000549	0.035107	0.035805	1.000000	0.000013	0.000019	0.000026	-4.041597	-75.640100	-2.508755
35908	9.561821	-0.160229	2.427019	0.015870	0.010658	0.053627	1.000000	0.000025	0.000020	0.000021	-4.043986	-75.640055	-2.510625
35909	9.547750	-0.178730	2.435064	0.002440	-0.006765	0.042309	1.000000	0.000048	0.000009	0.000003	-4.036240	-75.641499	-2.516223
35910	9.565826	-0.180129	2.464685	-0.021890	-0.005227	0.067173	1.000000	0.000019	0.000019	0.000009	-4.033937	-75.641681	-2.520952
35911	9.543432	-0.158990	2.398622	0.038459	0.008583	0.028766	1.000000	0.000033	0.000018	0.000023	-4.036390	-75.641961	-2.517773
35912	9.545678	-0.168554	2.458122	-0.019213	0.005827	0.045828	1.000000	0.000027	0.000031	0.000019	-4.037273	-75.640686	-2.526032
35913	9.547341	-0.179350	2.436619	0.000711	-0.007299	0.042309	1.000000	0.000025	0.000013	0.000017	-4.038263	-75.641523	-2.525345
35914	9.575254	-0.142726	2.421441	0.026261	0.027139	0.064954	1.000000	0.000025	0.000020	0.000021	-4.040738	-75.641600	-2.531920
35915	9.582864	-0.183752	2.415021	0.029639	-0.014598	0.071456	1.000000	0.000042	0.000015	-0.000004	-4.030038	-75.642427	-2.541268
35916	9.561061	-0.161278	2.429944	0.012375	0.009586	0.053633	1.000000	0.000013	0.000026	0.000031	-4.037715	-75.641797	-2.539369
35917	9.559155	-0.150957	2.452349	-0.008420	0.022471	0.057149	1.000000	0.000047	0.000023	0.000012	-4.033442	-75.641611	-2.541464
35918	9.560807	-0.161628	2.430918	0.011517	0.009315	0.053634	1.000000	0.000010	0.000029	0.000012	-4.033111	-75.640655	-2.547827
35919	9.544909	-0.169776	2.461021	-0.022281	0.004924	0.045823	1.000000	0.000030	0.000014	0.000029	-4.038794	-75.641294	-2.541638
35920	9.580521	-0.174290	2.439092	0.007084	-0.002267	0.074975	1.000000	0.000025	0.000020	0.000021	-4.041198	-75.641336	-2.540261
35921	9.546483	-0.180930	2.439863	-0.002808	-0.008356	0.042307	1.000000	0.000027	0.000024	0.000015	-4.040696	-75.640998	-2.540833
35922	9.558625	-0.152156	2.454342	-0.010600	0.021801	0.057149	1.000000	0.000031	0.000008	0.000025	-4.044330	-75.642493	-2.534903
35923	9.530502	-0.189127	2.470258	-0.037052	-0.012878	0.034489	1.000000	0.000024	0.000033	0.000001	-4.037642	-75.641178	-2.542237
35924	9.538482	-0.140337	2.447797	-0.007919	0.032854	0.035810	1.000000	0.000042	0.000016	0.000024	-4.039517	-75.641723	-2.539363
35925	9.540138	-0.151285	2.426354	0.011996	0.019707	0.032300	1.000000	0.000024	0.000034	0.000030	-4.045713	-75.640115	-2.533428
35926	9.536445	-0.130434	2.470662	-0.029155	0.045616	0.039320	1.000000	0.000025	0.000013	0.000017	-4.046418	-75.641035	-2.533753
35927	9.558048	-0.153317	2.456517	-0.012805	0.021151	0.057148	1.000000	0.000041	0.000022	0.000029	-4.050340	-75.640754	-2.528079
35928	9.565649	-0.194759	2.450067	-0.009475	-0.020604	0.063642	1.000000	0.000019	0.000006	0.000030	-4.057430	-75.642347	-2.516463
35929	9.581388	-0.187280	2.420601	0.023443	-0.016483	0.071469	1.000000	0.000016	0.000016	0.000016	-4.058695	-75.642927	-2.516517
35930	9.559591	-0.164856	2.435480	0.006217	0.007719	0.053640	1.000000	0.000027	0.000024	0.000015	-4.057860	-75.642615	-2.517626
35931	9.581155	-0.187489	2.421506	0.022557	-0.016752	0.071471	1.000000	0.000041	0.000029	0.000004	-4.050632	-75.641814	-2.523473
35932	9.576975	-0.167638	2.384697	0.059056	-0.001341	0.057968	1.000000	0.000043	0.000002	0.000016	-4.048996	-75.643911	-2.526141
35933	9.573310	-0.146615	2.428882	0.017925	0.024592	0.064979	1.000000	0.000018	0.000033	0.000018	-4.050497	-75.642501	-2.525710
35934	9.566837	-0.206162	2.430429	0.008225	-0.034431	0.060134	1.000000	0.000039	0.000018	0.000006	-4.044440	-75.642916	-2.529389
35935	9.582535	-0.198398	2.401184	0.041142	-0.030324	0.067971	1.000000	0.000019	0.000026	0.000014	-4.044209	-75.642321	-2.530705
35936	9.524990	-0.171741	2.438412	-0.005863	0.000974	0.020967	1.000000	0.000019	0.000026	0.000014	-4.043722	-75.641822	-2.531117
35937	9.574612	-0.157517	2.408876	0.036492	0.011026	0.061482	1.000000	0.000042	0.000022	-0.000000	-4.034763	-75.641835	-2.538710
35938	9.538727	-0.153160	2.431776	0.006255	0.017977	0.032308	1.000000	0.000043	0.000046	0.000006	-4.027511	-75.639165	-2.542136
35939	9.580130	-0.188062	2.425514	0.018997	-0.017820	0.071477	1.000000	0.000012	0.000033	0.000035	-4.037203	-75.637659	-2.533939
35940	9.536620	-0.142936	2.454891	-0.014986	0.030747	0.035809	1.000000	0.000025	0.000013	-0.000012	-4.024995	-75.638891	-2.534737
35941	9.558200	-0.165620	2.440880	0.001340	0.006269	0.053643	1.000000	0.000024	0.000034	0.000030	-4.031192	-75.637282	-2.528803
35942	9.559855	-0.176606	2.419493	0.021236	-0.006905	0.050146	1.000000	0.000025	0.000020	0.000021	-4.033613	-75.637355	-2.524974
35943	9.577825	-0.178361	2.449363	-0.003133	-0.005314	0.074976	1.000000	0.000007	0.000032	0.000023	-4.038612	-75.636048	-2.522280
35944	9.559585	-0.177227	2.420514	0.020336	-0.007168	0.050147	1.000000	0.000036	0.000022	0.000017	-4.037597	-75.636090	-2.519097
35945	9.545437	-0.195713	2.428740	0.006885	-0.024556	0.038800	1.000000	0.000039	0.000025	0.000010	-4.033606	-75.635648	-2.521928
35946	9.561144	-0.188006	2.399543	0.039799	-0.020476	0.046654	1.000000	0.000027	0.000024	0.000015	-4.032828	-75.635305	-2.527007
35947	9.549784	-0.125909	2.450413	-0.005055	0.047098	0.047156	1.000000	0.000025	0.000013	0.000017	-4.033827	-75.636141	-2.526315
35948	9.559129	-0.177804	2.422272	0.018562	-0.007699	0.050150	1.000000	0.000018	0.000033	0.000018	-4.035092	-75.634828	-2.526703
35949	9.539063	-0.165891	2.415476	0.021720	0.003493	0.028820	1.000000	0.000041	0.000036	0.000008	-4.029607	-75.633211	-2.530794
35950	9.557002	-0.167357	2.445448	-0.002651	0.005080	0.053644	1.000000	0.000019	0.000026	0.000014	-4.029089	-75.632594	-2.536988
35951	9.555087	-0.156783	2.467791	-0.023427	0.018003	0.057134	1.000000	0.000039	0.000018	0.000006	-4.023368	-75.632966	-2.541564
35952	9.535077	-0.144735	2.460771	-0.020255	0.029182	0.035804	1.000000	0.000030	0.000027	0.000009	-4.019310	-75.632215	-2.544332
35953	9.540798	-0.175254	2.476529	-0.037314	0.000487	0.045778	1.000000	0.000019	0.000026	0.000014	-4.019082	-75.631618	-2.545647
35954	9.534848	-0.145085	2.461640	-0.021120	0.028923	0.035803	1.000000	0.000022	0.000010	0.000023	-4.023018	-75.632782	-2.547034
35955	9.568680	-0.138813	2.461720	-0.012142	0.034729	0.068487	1.000000	0.000041	0.000029	0.000004	-4.015804	-75.631979	-2.552869
35956	9.554516	-0.157544	2.469951	-0.025609	0.017344	0.057130	1.000000	0.000007	0.000019	0.000043	-4.029917	-75.632047	-2.542673
35957	9.536330	-0.156588	2.440940	-0.002103	0.015481	0.032314	1.000000	0.000019	0.000019	0.000009	-4.027957	-75.632267	-2.545735
35958	9.570161	-0.150402	2.441031	0.006879	0.021266	0.065001	1.000000	0.000025	0.000020	0.000021	-4.030336	-75.632252	-2.549183
35959	9.534343	-0.146378	2.463516	-0.023299	0.028277	0.035800	1.000000	0.000042	0.000009	0.000020	-4.030808	-75.633599	-2.546993
35960	9.536091	-0.157202	2.441836	-0.003419	0.015077	0.032315	1.000000	0.000025	0.000013	0.000017	-4.031489	-75.634499	-2.544950
35961	9.569943	-0.151147	2.441839	0.005552	0.020875	0.065003	1.000000	0.000022	0.000017	0.000028	-4.037451	-75.634877	-2.539503
35962	9.554011	-0.159138	2.471801	-0.028260	0.016556	0.057124	1.000000	0.000045	0.000012	0.000014	-4.034369	-75.635962	-2.535157
35963	9.557548	-0.180553	2.428301	0.011959	-0.009696	0.050159	1.000000	0.000008	0.000018	0.000014	-4.035901	-75.636285	-2.535960
35964	9.557459	-0.180802	2.428633	0.011518	-0.009837	0.050159	1.000000	0.000042	0.000016	0.000024	-4.037758	-75.636825	-2.534459
35965	9.575424	-0.182580	2.458424	-0.012873	-0.008216	0.074966	1.000000	0.000013	0.000026	0.000031	-4.045717	-75.636131	-2.528014
35966	9.569504	-0.152581	2.443469	0.003349	0.020200	0.065005	1.000000	0.000039	0.000005	0.000026	-4.049055	-75.637787	-2.522322
35967	9.557207	-0.181799	2.429550	0.010208	-0.010233	0.050160	1.000000	0.000036	0.000015	0.000012	-4.046567	-75.638519	-2.523886
35968	9.551315	-0.151484	2.414519	0.026417	0.018185	0.040203	1.000000	0.000017	0.000009	0.000011	-4.045802	-75.639972	-2.524718
35969	9.557093	-0.182138	2.429974	0.009319	-0.010498	0.050161	1.000000	0.000022	0.000010	0.000023	-4.050037	-75.641165	-2.521012
35970	9.553002	-0.162754	2.393071	0.045864	0.004842	0.036728	1.000000	0.000022	0.000017	0.000028	-4.055672	-75.641557	-2.518054
35971	9.572768	-0.175183	2.400990	0.041791	-0.006606	0.058054	1.000000	0.000024	0.000027	0.000026	-4.060138	-75.640759	-2.513869
35972	9.536889	-0.171238	2.423673	0.011627	0.000414	0.028838	1.000000	0.000007	0.000025	0.000019	-4.063078	-75.640302	-2.517028
35973	9.556670	-0.183355	2.431545	0.007551	-0.011031	0.050162	1.000000	0.000031	0.000014	0.000000	-4.055894	-75.641235	-2.524095
35974	9.568839	-0.154289	2.445966	-0.000185	0.019139	0.065008	1.000000	0.000028	0.000017	0.000011	-4.053375	-75.641759	-2.524013
35975	9.570549	-0.165130	2.424459	0.019697	0.005933	0.061535	1.000000	0.000016	0.000023	0.000020	-4.056375	-75.641521	-2.522322
35976	9.554583	-0.173115	2.454484	-0.014110	0.001645	0.053635	1.000000	0.000025	0.000013	0.000017	-4.057065	-75.642440	-2.518351
35977	9.554474	-0.173331	2.454894	-0.014549	0.001520	0.053634	1.000000	0.000036	0.000028	0.000021	-4.058039	-75.641539	-2.516425
35978	9.552176	-0.164375	2.396253	0.042334	0.003764	0.036745	1.000000	0.000036	0.000015	0.000012	-4.055220	-75.642243	-2.519442
35979	9.540164	-0.191948	2.463621	-0.028458	-0.015969	0.042257	1.000000	0.000012	0.000039	0.000010	-4.053751	-75.640215	-2.522779
35980	9.571781	-0.176706	2.404811	0.037806	-0.007831	0.058069	1.000000	0.000042	0.000016	0.000024	-4.055686	-75.640758	-2.528512
35981	9.526504	-0.120931	2.455776	-0.016273	0.053948	0.025837	1.000000	0.000042	0.000016	0.000024	-4.057901	-75.641288	-2.524568
35982	9.532239	-0.151563	2.471332	-0.033418	0.025267	0.035779	1.000000	0.000033	0.000011	0.000019	-4.058322	-75.642467	-2.519650
35983	9.564274	-0.134898	2.493264	-0.044785	0.044135	0.071944	1.000000	0.000030	0.000021	0.000033	-4.065759	-75.642283	-2.511703
35984	9.553760	-0.175080	2.457545	-0.017650	0.000596	0.053629	1.000000	0.000019	0.000006	0.000030	-4.072915	-75.643918	-2.505312
35985	9.550089	-0.154048	2.501449	-0.058715	0.026656	0.060561	1.000000	0.000025	0.000007	0.000013	-4.072197	-75.645568	-2.506355
35986	9.589427	-0.179865	2.435699	0.011160	-0.006863	0.082863	1.000000	0.000033	0.000011	0.000019	-4.072593	-75.646688	-2.498737
35987	9.575294	-0.198335	2.443722	-0.002320	-0.024209	0.071481	1.000000	0.000019	0.000013	0.000005	-4.068902	-75.647723	-2.503544
35988	9.549915	-0.154625	2.502077	-0.060025	0.026255	0.060554	1.000000	-0.000009	0.000010	0.000032	-4.080030	-75.648802	-2.498945
35989	9.565746	-0.147014	2.472619	-0.027110	0.030252	0.068472	1.000000	0.000071	0.000012	-0.000006	-4.065340	-75.650044	-2.509026
35990	9.562529	-0.229237	2.349299	0.081272	-0.065683	0.036312	1.000000	0.000025	0.000007	0.000013	-4.064246	-75.651715	-2.508488
35991	9.569283	-0.168403	2.429227	0.012630	0.003791	0.061547	1.000000	-0.000012	0.000012	0.000013	-4.067799	-75.652698	-2.509531
35992	9.529471	-0.144208	2.414504	0.019520	0.026294	0.018914	1.000000	0.000056	0.000020	-0.000016	-4.050094	-75.653119	-2.524889
35993	9.542417	-0.216895	2.342803	0.083607	-0.054767	0.015004	1.000000	0.000044	0.000032	-0.000002	-4.039643	-75.651958	-2.533743
35994	9.545117	-0.136251	2.385828	0.052003	0.030131	0.026844	1.000000	-0.000024	0.000018	0.000022	-4.048172	-75.652239	-2.540724
35995	9.539537	-0.104535	2.451927	-0.009350	0.069321	0.037223	1.000000	0.000047	0.000030	0.000016	-4.045659	-75.651235	-2.541055
35996	9.574140	-0.200271	2.365995	0.071333	-0.036204	0.051176	1.000000	0.000035	0.000035	-0.000004	-4.035117	-75.649845	-2.551443
35997	9.568227	-0.169948	2.351177	0.087619	-0.007808	0.041253	1.000000	-0.000004	0.000017	0.000019	-4.040139	-75.650268	-2.549992
35998	9.559009	-0.116825	2.460966	-0.014372	0.057600	0.058540	1.000000	0.000027	0.000024	0.000015	-4.039397	-75.650099	-2.545991
35999	9.550554	-0.165674	2.484698	-0.044584	0.011743	0.057071	1.000000	0.000049	0.000040	0.000014	-4.035385	-75.647920	-2.547588
36000	9.573587	-0.200924	2.368177	0.069522	-0.036734	0.051187	1.000000	0.000024	0.000027	0.000026	-4.039550	-75.647255	-2.538638
36001	9.546295	-0.146498	2.448633	-0.008451	0.026897	0.043692	1.000000	0.000016	0.000023	0.000020	-4.042550	-75.647015	-2.536948
36002	9.566029	-0.158791	2.456643	-0.012620	0.015440	0.065006	1.000000	0.000044	0.000026	0.000022	-4.043037	-75.646624	-2.524259
36003	9.573196	-0.201683	2.369692	0.068161	-0.037120	0.051195	1.000000	0.000047	0.000030	0.000016	-4.040529	-75.645620	-2.524587
36004	9.539387	-0.206503	2.451512	-0.019310	-0.032344	0.038761	1.000000	0.000018	0.000033	0.000018	-4.041738	-75.644388	-2.514622
36005	9.543883	-0.136617	2.472728	-0.030589	0.039481	0.047143	1.000000	0.000035	0.000028	0.000021	-4.042720	-75.643486	-2.512692
36006	9.549218	-0.168775	2.407712	0.029887	0.000016	0.036791	1.000000	0.000050	0.000033	0.000010	-4.036678	-75.642138	-2.519993
36007	9.554838	-0.199224	2.423632	0.012713	-0.028637	0.046706	1.000000	0.000019	0.000026	0.000014	-4.036448	-75.641540	-2.521314
36008	9.541596	-0.126192	2.496339	-0.052242	0.052194	0.050589	1.000000	0.000038	0.000032	0.000015	-4.033945	-75.640471	-2.514540
36009	9.545109	-0.147565	2.453189	-0.012069	0.025849	0.043691	1.000000	0.000041	0.000029	0.000004	-4.026740	-75.639669	-2.520371
36010	9.544953	-0.147381	2.453805	-0.012512	0.025712	0.043691	1.000000	0.000035	0.000035	-0.000004	-4.016272	-75.638286	-2.531167
36011	9.548733	-0.166929	2.491603	-0.049993	0.010176	0.057047	1.000000	0.000013	0.000025	0.000002	-4.011343	-75.637889	-2.537993
36012	9.523001	-0.124638	2.469138	-0.030019	0.049883	0.025826	1.000000	0.000024	0.000020	0.000021	-4.013761	-75.638029	-2.528116
36013	9.544554	-0.147644	2.455343	-0.013848	0.025322	0.043690	1.000000	0.000018	0.000033	0.000018	-4.015262	-75.636614	-2.527693
36014	9.548391	-0.167547	2.492871	-0.051350	0.009767	0.057040	1.000000	0.000014	-0.000001	0.000013	-4.015919	-75.639284	-2.523342
36015	9.536842	-0.106976	2.462282	-0.018301	0.066693	0.037229	1.000000	0.000025	0.000013	0.000017	-4.016934	-75.640117	-2.522641
36016	9.530277	-0.166608	2.463811	-0.028231	0.007718	0.032283	1.000000	0.000033	0.000011	0.000019	-4.017337	-75.641252	-2.524050
36017	9.546182	-0.159251	2.434239	0.004678	0.011674	0.040247	1.000000	0.000028	-0.000003	0.000027	-4.022828	-75.643875	-2.518316
36018	9.564207	-0.161025	2.463585	-0.019761	0.013326	0.064998	1.000000	0.000026	-0.000006	0.000033	-4.031177	-75.646828	-2.513456
36019	9.532088	-0.178282	2.441982	-0.009240	-0.005789	0.028839	1.000000	0.000037	0.000008	0.000008	-4.026975	-75.648376	-2.516752
36020	9.547959	-0.171017	2.412539	0.023658	-0.001856	0.036808	1.000000	0.000024	0.000014	0.000046	-4.040559	-75.648964	-2.503403
36021	9.551825	-0.191014	2.449923	-0.013838	-0.017378	0.050146	1.000000	0.000037	0.000001	0.000004	-4.034629	-75.651329	-2.508440
36022	9.567727	-0.183430	2.420389	0.019064	-0.013449	0.058117	1.000000	0.000033	0.000011	0.000019	-4.035051	-75.652443	-2.505474
36023	9.567649	-0.183667	2.420680	0.018624	-0.013577	0.058118	1.000000	0.000033	0.000018	0.000023	-4.037541	-75.652715	-2.502272
36024	9.547720	-0.171872	2.413423	0.021897	-0.002394	0.036812	1.000000	0.000025	0.000013	0.000017	-4.038230	-75.653560	-2.505165
36025	9.551558	-0.191640	2.450914	-0.015605	-0.017907	0.050142	1.000000	0.000019	0.000013	0.000005	-4.034539	-75.654595	-2.509975
36026	9.547550	-0.172096	2.414081	0.021017	-0.002663	0.036813	1.000000	0.000035	0.000028	0.000021	-4.035209	-75.653711	-2.509128
36027	9.569113	-0.195087	2.400248	0.037150	-0.027246	0.054685	1.000000	0.000008	0.000018	0.000014	-4.036737	-75.654031	-2.509939
36028	9.569048	-0.195268	2.400492	0.036702	-0.027386	0.054687	1.000000	0.000025	0.000007	0.000013	-4.035706	-75.655726	-2.508928
36029	9.561401	-0.154383	2.407237	0.032746	0.014128	0.048233	1.000000	0.000024	0.000020	0.000021	-4.038454	-75.655741	-2.506482
36030	9.581130	-0.166650	2.415244	0.028595	0.002659	0.069539	1.000000	0.000027	0.000024	0.000015	-4.037648	-75.655326	-2.510725
36031	9.547062	-0.173102	2.415940	0.018828	-0.003326	0.036818	1.000000	0.000027	0.000024	0.000015	-4.037162	-75.654983	-2.511292
36032	9.566780	-0.185301	2.423986	0.014654	-0.014789	0.058123	1.000000	0.000027	0.000024	0.000015	-4.036421	-75.654674	-2.513360
36033	9.564792	-0.174710	2.446408	-0.006076	-0.001777	0.061554	1.000000	0.000030	0.000034	0.000013	-4.034429	-75.653156	-2.515198
36034	9.548511	-0.184286	2.395606	0.037772	-0.016861	0.033390	1.000000	0.000016	0.000016	0.000016	-4.035469	-75.653878	-2.506390
36035	9.544679	-0.162965	2.439879	-0.003246	0.009287	0.040250	1.000000	0.000041	0.000042	0.000013	-4.031720	-75.651442	-2.508740
36036	9.552084	-0.204332	2.434041	-0.000198	-0.032497	0.046702	1.000000	0.000030	0.000021	0.000033	-4.038846	-75.651334	-2.499053
36037	9.576499	-0.146375	2.462596	-0.015107	0.028014	0.076403	1.000000	0.000024	0.000027	-0.000003	-4.030419	-75.650837	-2.508144
36038	9.564080	-0.175491	2.449133	-0.008312	-0.002442	0.061552	1.000000	0.000044	0.000033	0.000027	-4.032612	-75.649369	-2.507551
36039	9.544075	-0.163650	2.442197	-0.005012	0.008759	0.040250	1.000000	0.000030	0.000034	0.000013	-4.030622	-75.647851	-2.509388
36040	9.543903	-0.163757	2.442862	-0.005449	0.008623	0.040250	1.000000	0.000030	0.000034	0.000013	-4.028380	-75.646334	-2.517535
36041	9.543738	-0.163930	2.443493	-0.005887	0.008497	0.040249	1.000000	0.000027	0.000031	0.000019	-4.029624	-75.645173	-2.516360
36042	9.561583	-0.165353	2.473463	-0.030354	0.010182	0.064974	1.000000	0.000047	0.000023	0.000012	-4.025114	-75.644979	-2.518388
36043	9.541631	-0.153291	2.466333	-0.027045	0.021384	0.043672	1.000000	0.000013	0.000025	0.000002	-4.020177	-75.644583	-2.525222
36044	9.557487	-0.145839	2.437118	0.005857	0.025267	0.051678	1.000000	0.000024	0.000020	0.000021	-4.022653	-75.644624	-2.523630
36045	9.541388	-0.153677	2.467249	-0.027924	0.021124	0.043670	1.000000	0.000035	0.000028	0.000021	-4.023645	-75.643719	-2.521696
36046	9.543099	-0.164544	2.445948	-0.008072	0.007834	0.040248	1.000000	0.000030	0.000028	0.000009	-4.019663	-75.642969	-2.528579
36047	9.560972	-0.165857	2.475790	-0.032545	0.009540	0.064968	1.000000	0.000019	0.000013	0.000005	-4.015979	-75.644003	-2.533384
36048	9.542931	-0.164664	2.446595	-0.008935	0.007568	0.040248	1.000000	0.000025	0.000014	0.000017	-4.016633	-75.644760	-2.538687
36049	9.541024	-0.154157	2.468626	-0.029650	0.020604	0.043666	1.000000	0.000014	0.000005	0.000018	-4.019412	-75.646509	-2.537471
36050	9.540954	-0.154437	2.468878	-0.030077	0.020469	0.043665	1.000000	0.000024	0.000020	0.000021	-4.021866	-75.646474	-2.540384
36051	9.544575	-0.176181	2.425524	0.010034	-0.005984	0.036829	1.000000	0.000025	0.000014	0.000017	-4.022889	-75.647305	-2.539678
36052	9.535077	-0.124573	2.454114	-0.014132	0.048692	0.033801	1.000000	0.000024	0.000020	0.000021	-4.025323	-75.647382	-2.532029
36053	9.556682	-0.147429	2.440177	0.001941	0.024076	0.051682	1.000000	0.000048	0.000009	0.000003	-4.017651	-75.648827	-2.537566
36054	9.548188	-0.196293	2.463645	-0.028400	-0.021705	0.050106	1.000000	0.000019	0.000013	0.000034	-4.026578	-75.649524	-2.531974
36055	9.542404	-0.166433	2.448529	-0.011998	0.006654	0.040245	1.000000	0.000013	0.000019	0.000026	-4.032814	-75.649638	-2.527276
36056	9.556451	-0.148364	2.441024	0.000634	0.023670	0.051683	1.000000	0.000045	0.000012	0.000014	-4.029752	-75.650626	-2.528391
36057	9.581770	-0.192909	2.383396	0.057238	-0.027295	0.062741	1.000000	0.000030	0.000014	0.000029	-4.035488	-75.651252	-2.522171
36058	9.558175	-0.159699	2.419672	0.020041	0.010228	0.048272	1.000000	0.000005	0.000008	0.000016	-4.038164	-75.652683	-2.526654
36059	9.561923	-0.179613	2.457244	-0.017518	-0.005202	0.061539	1.000000	0.000041	0.000023	0.000029	-4.042143	-75.652390	-2.520945
36060	9.559835	-0.170951	2.398581	0.039410	-0.003208	0.044863	1.000000	0.000047	0.000023	0.000012	-4.037673	-75.652333	-2.517712
36061	9.531493	-0.207524	2.414504	0.012823	-0.037640	0.021979	1.000000	0.000020	0.000006	0.000001	-4.032261	-75.654184	-2.524258
36062	9.577633	-0.172282	2.428682	0.014482	-0.001627	0.069570	1.000000	0.000027	0.000031	0.000019	-4.033212	-75.653032	-2.523764
36063	9.555831	-0.149730	2.443367	-0.002443	0.022750	0.051685	1.000000	0.000033	0.000018	0.000023	-4.035715	-75.653300	-2.520554
36064	9.586825	-0.224663	2.401234	0.037268	-0.056729	0.072605	1.000000	0.000033	0.000011	0.000019	-4.036195	-75.654413	-2.522152
36065	9.561236	-0.182450	2.378524	0.057475	-0.017058	0.041464	1.000000	0.000019	0.000026	0.000014	-4.035962	-75.653811	-2.523480
36066	9.577221	-0.173015	2.430255	0.012714	-0.002158	0.069573	1.000000	0.000039	0.000018	0.000006	-4.030054	-75.654200	-2.530621
36067	9.545025	-0.190074	2.409009	0.023249	-0.021288	0.033427	1.000000	0.000036	0.000022	0.000017	-4.029324	-75.654111	-2.530424
36068	9.577000	-0.173036	2.431122	0.011804	-0.002418	0.069574	1.000000	0.000024	0.000027	-0.000003	-4.020692	-75.653792	-2.532648
36069	9.557065	-0.161146	2.423954	0.015157	0.008781	0.048282	1.000000	0.000030	0.000021	0.000033	-4.028159	-75.653599	-2.524685
36070	9.540924	-0.169038	2.454114	-0.018633	0.004690	0.040236	1.000000	0.000027	0.000031	0.000019	-4.029221	-75.652490	-2.527021
36071	9.560587	-0.181219	2.462319	-0.022867	-0.006761	0.061527	1.000000	0.000030	0.000028	0.000009	-4.025506	-75.651788	-2.530599
36072	9.554799	-0.151031	2.447321	-0.006415	0.021572	0.051686	1.000000	0.000024	0.000020	0.000021	-4.028024	-75.651742	-2.538737
36073	9.556530	-0.162001	2.426005	0.013406	0.008252	0.048285	1.000000	0.000038	0.000032	0.000015	-4.025788	-75.650478	-2.539813
36074	9.554492	-0.151351	2.448499	-0.007306	0.021312	0.051686	1.000000	0.000046	0.000037	0.000020	-4.024818	-75.648736	-2.534806
36075	9.558175	-0.171129	2.486207	-0.044890	0.005919	0.064923	1.000000	0.000014	0.000005	0.000018	-4.027603	-75.650484	-2.533586
36076	9.554299	-0.151716	2.449231	-0.008230	0.021053	0.051686	1.000000	0.000030	0.000028	0.000009	-4.023701	-75.650035	-2.524399
36077	9.541879	-0.180814	2.435768	-0.001489	-0.009403	0.036832	1.000000	0.000030	0.000028	0.000009	-4.019989	-75.649333	-2.527976
36078	9.520091	-0.158029	2.450375	-0.018363	0.014982	0.018940	1.000000	0.000028	0.000017	0.000011	-4.017509	-75.649711	-2.535810
36079	9.537902	-0.159376	2.480329	-0.042866	0.016727	0.043625	1.000000	0.000038	0.000032	0.000015	-4.015276	-75.648446	-2.536884
36080	9.551930	-0.141169	2.472980	-0.030228	0.033724	0.055082	1.000000	0.000028	0.000017	0.000011	-4.012767	-75.648964	-2.538000
36081	9.553696	-0.152072	2.451559	-0.010409	0.020401	0.051685	1.000000	0.000027	0.000024	0.000015	-4.012290	-75.648618	-2.538564
36082	9.539464	-0.170574	2.459675	-0.023947	0.003131	0.040225	1.000000	0.000014	0.000005	0.000018	-4.014782	-75.650452	-2.534665
36083	9.547899	-0.122158	2.436624	0.005599	0.048597	0.041857	1.000000	0.000036	0.000022	0.000017	-4.014058	-75.650362	-2.534465
36084	9.559120	-0.182965	2.467882	-0.028637	-0.008457	0.061511	1.000000	0.000025	0.000007	0.000013	-4.013091	-75.651989	-2.536742
36085	9.531723	-0.130093	2.466825	-0.028608	0.044406	0.033789	1.000000	0.000030	0.000021	0.000033	-4.020562	-75.651795	-2.528778
36086	9.573125	-0.165373	2.460593	-0.016425	0.008412	0.072971	1.000000	0.000014	0.000005	0.000018	-4.023087	-75.653517	-2.532340
36087	9.535361	-0.152262	2.423572	0.011032	0.017735	0.027006	1.000000	0.000025	0.000007	0.000013	-4.022393	-75.655163	-2.533367
36088	9.567400	-0.135397	2.445400	-0.000374	0.036600	0.063148	1.000000	0.000033	0.000011	0.000019	-4.022852	-75.656163	-2.535798
36089	9.535244	-0.152726	2.424006	0.010174	0.017467	0.027007	1.000000	0.000030	0.000014	0.000029	-4.028600	-75.656785	-2.529570
36090	9.555005	-0.165175	2.431792	0.005908	0.006003	0.048294	1.000000	0.000028	-0.000003	0.000027	-4.033907	-75.659408	-2.526270
36091	9.570972	-0.158076	2.402386	0.038810	0.009784	0.056373	1.000000	0.000024	0.000027	0.000026	-4.038390	-75.658600	-2.522083
36092	9.540684	-0.184079	2.440202	-0.008058	-0.011384	0.036826	1.000000	0.000025	0.000007	0.000013	-4.037359	-75.660212	-2.529033
36093	9.554781	-0.165910	2.432624	0.004599	0.005609	0.048295	1.000000	0.000019	0.000019	0.000009	-4.035400	-75.660427	-2.532102
36094	9.574480	-0.178149	2.440662	0.000322	-0.005858	0.069579	1.000000	0.000033	0.000018	0.000023	-4.037588	-75.660701	-2.530943
36095	9.542307	-0.195417	2.419326	0.010867	-0.024994	0.033439	1.000000	0.000025	0.000014	0.000017	-4.038622	-75.661529	-2.530231
36096	9.556378	-0.177328	2.411857	0.023510	-0.008019	0.044911	1.000000	0.000027	0.000024	0.000015	-4.037766	-75.661265	-2.525134
36097	9.590226	-0.171338	2.412128	0.032327	-0.002358	0.077667	1.000000	0.000024	0.000020	0.000021	-4.040525	-75.661274	-2.522684
36098	9.556176	-0.177805	2.412623	0.022613	-0.008282	0.044913	1.000000	0.000025	0.000014	0.000017	-4.041289	-75.662214	-2.516953
36099	9.556055	-0.177965	2.413091	0.022174	-0.008410	0.044913	1.000000	0.000030	0.000034	0.000013	-4.039298	-75.660693	-2.518797
36100	9.557792	-0.188978	2.391815	0.041960	-0.021768	0.041533	1.000000	0.000024	0.000020	0.000021	-4.041790	-75.660811	-2.512654
36101	9.536005	-0.166268	2.406410	0.025123	0.002654	0.023633	1.000000	0.000030	0.000028	0.000009	-4.038075	-75.660109	-2.516234
36102	9.553771	-0.167645	2.436466	0.000591	0.004411	0.048296	1.000000	0.000027	0.000031	0.000019	-4.039047	-75.658974	-2.516803
36103	9.553640	-0.167663	2.436981	0.000152	0.004285	0.048296	1.000000	0.000042	0.000022	-0.000000	-4.030128	-75.658990	-2.524367
36104	9.573306	-0.179630	2.445152	-0.004127	-0.007180	0.069578	1.000000	0.000030	0.000028	0.000009	-4.026152	-75.658224	-2.533124
36105	9.553388	-0.167664	2.437966	-0.000714	0.004021	0.048296	1.000000	0.000027	0.000024	0.000015	-4.025676	-75.657877	-2.533688
36106	9.571195	-0.169011	2.467841	-0.025248	0.005788	0.072954	1.000000	0.000036	0.000015	0.000012	-4.022985	-75.658619	-2.536147
36107	9.555077	-0.178699	2.416902	0.018643	-0.009473	0.044920	1.000000	0.000036	0.000022	0.000017	-4.022266	-75.658529	-2.535944
36108	9.585153	-0.150933	2.460841	-0.013027	0.022634	0.084433	1.000000	0.000030	0.000028	0.000009	-4.018308	-75.657834	-2.541677
36109	9.518946	-0.174509	2.439941	-0.011715	-0.002279	0.015535	1.000000	0.000029	0.000035	0.000042	-4.029236	-75.655999	-2.530236
36110	9.556491	-0.188091	2.477657	-0.040152	-0.011837	0.061467	1.000000	0.000039	0.000018	0.000006	-4.023325	-75.656621	-2.526371
36111	9.552678	-0.168702	2.440675	-0.003393	0.003237	0.048296	1.000000	0.000033	0.000018	0.000023	-4.025844	-75.656886	-2.523153
36112	9.550707	-0.158043	2.462800	-0.024057	0.016339	0.051669	1.000000	0.000036	0.000015	0.000012	-4.023178	-75.657559	-2.529656
36113	9.538304	-0.187246	2.449246	-0.017364	-0.014126	0.036811	1.000000	0.000019	0.000026	0.000014	-4.022945	-75.656955	-2.530988
36114	9.530753	-0.146206	2.455754	-0.021050	0.027409	0.030389	1.000000	0.000025	-0.000000	0.000009	-4.020311	-75.659337	-2.537688
36115	9.564647	-0.140215	2.455878	-0.012250	0.033055	0.063153	1.000000	0.000024	0.000027	0.000026	-4.024797	-75.658527	-2.533501
36116	9.550372	-0.158720	2.464056	-0.025786	0.015821	0.051665	1.000000	0.000025	0.000007	0.000013	-4.023838	-75.660130	-2.536857
36117	9.555904	-0.189227	2.479834	-0.043205	-0.012728	0.061453	1.000000	0.000042	0.000016	0.000024	-4.026118	-75.660651	-2.532869
36118	9.552118	-0.169891	2.442786	-0.006425	0.002312	0.048295	1.000000	0.000011	0.000015	0.000004	-4.022386	-75.661378	-2.539460
36119	9.550183	-0.159193	2.464759	-0.027092	0.015435	0.051663	1.000000	0.000022	0.000003	0.000019	-4.024938	-75.663379	-2.537466
36120	9.552035	-0.170229	2.443087	-0.007304	0.002048	0.048294	1.000000	0.000016	0.000009	0.000011	-4.024189	-75.664777	-2.537380
36121	9.551975	-0.170403	2.443309	-0.007743	0.001922	0.048294	1.000000	0.000025	0.000014	0.000017	-4.025228	-75.665604	-2.536666
36122	9.564213	-0.141588	2.457487	-0.015300	0.032126	0.063152	1.000000	0.000022	0.000010	0.000024	-4.029230	-75.666781	-2.530118
36123	9.566052	-0.152838	2.435857	0.004489	0.018750	0.059786	1.000000	0.000019	0.000006	0.000030	-4.036749	-75.668318	-2.523369
36124	9.573464	-0.194260	2.429839	0.007299	-0.023063	0.066203	1.000000	0.000036	0.000015	0.000012	-4.034003	-75.668946	-2.528717
36125	9.553612	-0.182510	2.422404	0.010745	-0.011861	0.044929	1.000000	0.000019	0.000013	0.000034	-4.043248	-75.669664	-2.520231
36126	9.547974	-0.152448	2.407047	0.027298	0.016420	0.035151	1.000000	0.000011	0.000008	-0.000001	-4.037828	-75.671295	-2.524612
36127	9.555374	-0.193711	2.401080	0.030084	-0.025380	0.041567	1.000000	0.000033	0.000018	0.000023	-4.040353	-75.671559	-2.521389
36128	9.567599	-0.164865	2.415331	0.022537	0.004823	0.056427	1.000000	0.000025	0.000014	0.000017	-4.041130	-75.672361	-2.524028
36129	9.574974	-0.206273	2.409446	0.025314	-0.036978	0.062843	1.000000	0.000024	0.000020	0.000021	-4.043895	-75.672368	-2.521576
36130	9.567409	-0.165309	2.416053	0.021653	0.004558	0.056429	1.000000	0.000019	0.000019	0.000009	-4.041676	-75.672614	-2.521691
36131	9.554977	-0.194488	2.402599	0.028322	-0.025914	0.041571	1.000000	0.000047	0.000030	0.000016	-4.039206	-75.671604	-2.521997
36132	9.552933	-0.183704	2.424990	0.007656	-0.012787	0.044931	1.000000	0.000013	0.000032	0.000006	-4.035784	-75.670424	-2.523423
36133	9.567001	-0.165636	2.417646	0.020330	0.004169	0.056432	1.000000	0.000024	0.000020	0.000021	-4.038550	-75.670430	-2.520970
36134	9.532885	-0.171946	2.418340	0.010651	-0.001717	0.023659	1.000000	0.000032	0.000038	0.000007	-4.033120	-75.668703	-2.522261
36135	9.554363	-0.194913	2.405005	0.026533	-0.026436	0.041575	1.000000	0.000021	0.000037	0.000012	-4.031368	-75.666923	-2.524878
36136	9.566508	-0.165995	2.419570	0.018963	0.003775	0.056435	1.000000	0.000035	0.000028	0.000021	-4.032193	-75.666143	-2.517459
36137	9.550270	-0.173575	2.449742	-0.014809	-0.000170	0.048286	1.000000	0.000018	0.000026	0.000014	-4.031958	-75.665538	-2.518794
36138	9.550136	-0.173746	2.450251	-0.015250	-0.000300	0.048285	1.000000	0.000018	0.000026	0.000014	-4.031596	-75.664948	-2.519254
36139	9.550002	-0.173917	2.450760	-0.015689	-0.000426	0.048285	1.000000	0.000018	0.000026	0.000014	-4.031362	-75.664343	-2.520589
36140	9.551760	-0.184977	2.429510	0.004090	-0.013827	0.044931	1.000000	0.000035	0.000028	0.000021	-4.032156	-75.663437	-2.517440
36141	9.601570	-0.169410	2.481177	-0.031490	0.006998	0.105682	1.000000	0.000024	0.000020	0.000021	-4.034923	-75.663443	-2.514987
36142	9.547702	-0.163529	2.474067	-0.037233	0.012451	0.051634	1.000000	0.000044	0.000032	-0.000002	-4.024325	-75.662333	-2.524288
36143	9.563671	-0.156110	2.444980	-0.004339	0.016133	0.059791	1.000000	0.000027	0.000024	0.000015	-4.023854	-75.661984	-2.524851
36144	9.543764	-0.144178	2.437802	-0.000878	0.027333	0.038523	1.000000	0.000029	0.000034	0.000013	-4.021749	-75.660538	-2.524229
36145	9.561432	-0.145524	2.468059	-0.025446	0.029147	0.063140	1.000000	0.000029	0.000041	0.000017	-4.021486	-75.658195	-2.524338
36146	9.548943	-0.174758	2.454827	-0.018796	-0.001332	0.048279	1.000000	0.000047	0.000030	0.000016	-4.018821	-75.657256	-2.523753
36147	9.529042	-0.162817	2.447621	-0.015317	0.009874	0.027011	1.000000	0.000018	0.000026	0.000014	-4.018589	-75.656651	-2.525087
36148	9.542977	-0.142382	2.521104	-0.080320	0.038232	0.058318	1.000000	0.000036	0.000015	0.000012	-4.015956	-75.657384	-2.526312
36149	9.528791	-0.163159	2.448577	-0.016193	0.009615	0.027010	1.000000	0.000035	0.000042	0.000029	-4.020416	-75.654833	-2.520900
36150	9.542875	-0.145199	2.441216	-0.003521	0.026547	0.038524	1.000000	0.000016	0.000009	0.000011	-4.019655	-75.656257	-2.519653
36151	9.544521	-0.153954	2.500667	-0.061426	0.024573	0.054964	1.000000	0.000024	0.000020	0.000021	-4.022424	-75.656263	-2.517201
36152	9.548257	-0.175921	2.457407	-0.021424	-0.002115	0.048274	1.000000	0.000016	0.000009	0.000011	-4.021762	-75.657571	-2.521428
36153	9.582176	-0.169931	2.457511	-0.012672	0.003496	0.081056	1.000000	0.000033	0.000011	0.000019	-4.022573	-75.658652	-2.519935
36154	9.542610	-0.146065	2.442202	-0.005266	0.026025	0.038525	1.000000	0.000022	0.000010	0.000024	-4.026647	-75.659899	-2.514365
36155	9.565958	-0.177735	2.487458	-0.046894	-0.000549	0.072877	1.000000	0.000025	-0.000000	0.000009	-4.024251	-75.662363	-2.517111
36156	9.542562	-0.146343	2.442372	-0.006139	0.025767	0.038525	1.000000	0.000025	0.000007	0.000013	-4.023426	-75.664012	-2.520000
36157	9.566058	-0.180385	2.406860	0.029908	-0.012259	0.053109	1.000000	0.000024	0.000020	0.000021	-4.026196	-75.664017	-2.517547
36158	9.576372	-0.140753	2.442883	0.002176	0.031237	0.071311	1.000000	0.000030	0.000015	0.000029	-4.031746	-75.664616	-2.513036
36159	9.548064	-0.179827	2.377882	0.053177	-0.014481	0.028509	1.000000	0.000025	0.000007	0.000013	-4.031073	-75.666260	-2.514048
36160	9.585589	-0.193286	2.415432	0.024623	-0.023991	0.074375	1.000000	0.000033	0.000018	0.000023	-4.033382	-75.666706	-2.504074
36161	9.549621	-0.188790	2.437611	-0.005208	-0.016560	0.044927	1.000000	0.000025	0.000014	0.000017	-4.034431	-75.667531	-2.503353
36162	9.563781	-0.170778	2.429994	0.007462	0.000361	0.056451	1.000000	0.000033	0.000011	0.000019	-4.034921	-75.668682	-2.497833
36163	9.560070	-0.151671	2.392969	0.044293	0.015339	0.043379	1.000000	0.000024	0.000027	0.000026	-4.039414	-75.667867	-2.493646
36164	9.563521	-0.171482	2.430968	0.006567	0.000097	0.056452	1.000000	0.000024	0.000034	0.000030	-4.045374	-75.666323	-2.484844
36165	9.551063	-0.200860	2.417588	0.013214	-0.030378	0.041590	1.000000	0.000019	0.000019	0.000009	-4.043418	-75.666537	-2.487914
36166	9.563287	-0.171940	2.431857	0.005680	-0.000166	0.056452	1.000000	0.000033	0.000018	0.000023	-4.045728	-75.666851	-2.483966
36167	9.531101	-0.189228	2.410638	0.016273	-0.019308	0.020330	1.000000	0.000035	0.000029	0.000021	-4.046746	-75.665938	-2.482021
36168	9.545201	-0.171213	2.403284	0.028966	-0.002389	0.031860	1.000000	0.000027	0.000024	0.000015	-4.046093	-75.665529	-2.487292
36169	9.564818	-0.183453	2.411553	0.024575	-0.013850	0.053122	1.000000	0.000018	0.000026	0.000014	-4.045857	-75.664923	-2.488630
36170	9.564716	-0.183644	2.411943	0.024137	-0.013987	0.053122	1.000000	0.000025	0.000014	0.000017	-4.046694	-75.665737	-2.487904
36171	9.582397	-0.185048	2.442047	-0.000461	-0.012150	0.077713	1.000000	0.000046	0.000043	0.000025	-4.047680	-75.663086	-2.484737
36172	9.544428	-0.169544	2.486264	-0.050467	0.008596	0.051579	1.000000	0.000019	0.000019	0.000009	-4.045503	-75.663267	-2.492027
36173	9.578519	-0.166014	2.405758	0.035949	0.002668	0.064659	1.000000	0.000018	0.000033	0.000018	-4.046988	-75.661840	-2.491634
36174	9.576469	-0.155210	2.428042	0.015302	0.015836	0.067988	1.000000	0.000030	0.000021	0.000005	-4.041407	-75.662003	-2.495693
36175	9.560181	-0.162600	2.458171	-0.018464	0.011964	0.059781	1.000000	0.000027	0.000031	0.000019	-4.042660	-75.660833	-2.494523
36176	9.547718	-0.191908	2.444814	-0.011826	-0.018521	0.044917	1.000000	0.000027	0.000024	0.000015	-4.042001	-75.660434	-2.497930
36177	9.540157	-0.150857	2.451477	-0.015367	0.023038	0.038522	1.000000	0.000029	0.000034	0.000013	-4.040015	-75.658910	-2.499776
36178	9.561657	-0.173906	2.438117	0.000401	-0.001736	0.056454	1.000000	0.000030	0.000028	0.000009	-4.036081	-75.658340	-2.499967
36179	9.559612	-0.163081	2.460354	-0.020235	0.011445	0.059778	1.000000	0.000036	0.000022	0.000017	-4.035383	-75.658246	-2.499751
36180	9.525534	-0.169409	2.460794	-0.029836	0.005606	0.026981	1.000000	0.000041	0.000016	0.000025	-4.037584	-75.658779	-2.496561
36181	9.559361	-0.163614	2.461291	-0.021115	0.011191	0.059776	1.000000	0.000035	0.000042	0.000029	-4.042043	-75.656225	-2.491154
36182	9.525233	-0.169867	2.461926	-0.030727	0.005350	0.026978	1.000000	0.000022	0.000016	-0.000001	-4.034982	-75.656994	-2.496291
36183	9.575302	-0.156441	2.432561	0.011317	0.014663	0.067995	1.000000	0.000027	0.000017	0.000011	-4.032799	-75.657464	-2.498581
36184	9.544800	-0.182056	2.470359	-0.035576	-0.006239	0.048231	1.000000	0.000025	0.000014	0.000017	-4.033659	-75.658265	-2.500290
36185	9.539244	-0.151921	2.454960	-0.018903	0.022009	0.038518	1.000000	0.000036	0.000015	0.000012	-4.031244	-75.658991	-2.501803
36186	9.546591	-0.193203	2.449106	-0.016269	-0.019814	0.044909	1.000000	0.000025	0.000007	0.000013	-4.030319	-75.660675	-2.501931
36187	9.573079	-0.146148	2.455443	-0.010633	0.027451	0.071316	1.000000	0.000024	0.000027	0.000026	-4.034813	-75.659859	-2.497746
36188	9.558768	-0.164609	2.463529	-0.024200	0.010279	0.059770	1.000000	0.000031	-0.000006	0.000017	-4.035200	-75.662899	-2.497446
36189	9.540943	-0.163468	2.434052	-0.000463	0.008168	0.035199	1.000000	0.000031	0.000014	0.000000	-4.028057	-75.663835	-2.504484
36190	9.553209	-0.134454	2.448160	-0.007968	0.038389	0.050063	1.000000	0.000022	0.000010	0.000024	-4.032170	-75.665078	-2.499113
36191	9.555077	-0.145651	2.426624	0.011785	0.024942	0.046747	1.000000	0.000033	0.000011	0.000019	-4.032997	-75.666158	-2.497609
36192	9.574755	-0.157890	2.434619	0.007353	0.013472	0.068001	1.000000	0.000025	0.000007	0.000013	-4.032116	-75.667823	-2.497407
36193	9.540702	-0.164210	2.434948	-0.002231	0.007647	0.035199	1.000000	0.000024	0.000020	0.000021	-4.034892	-75.667827	-2.494951
36194	9.571036	-0.139061	2.397845	0.043814	0.028245	0.054987	1.000000	0.000024	0.000020	0.000021	-4.037457	-75.667712	-2.497453
36195	9.558279	-0.165968	2.465333	-0.027267	0.009379	0.059763	1.000000	0.000041	0.000023	0.000029	-4.041493	-75.667408	-2.491709
36196	9.544212	-0.187021	2.392745	0.036846	-0.019409	0.028575	1.000000	0.000007	0.000025	0.000018	-4.044467	-75.666897	-2.492055
36197	9.578093	-0.181110	2.393077	0.045548	-0.013844	0.061381	1.000000	0.000036	0.000015	0.000012	-4.042055	-75.667623	-2.493566
36198	9.559881	-0.177704	2.444801	-0.008397	-0.004345	0.056449	1.000000	0.000030	0.000021	0.000034	-4.049363	-75.667393	-2.487318
36199	9.561707	-0.188926	2.423438	0.011346	-0.017804	0.053139	1.000000	0.000027	0.000017	0.000011	-4.047180	-75.667862	-2.489608
36200	9.558065	-0.169832	2.386425	0.048224	-0.002911	0.040136	1.000000	0.000024	0.000027	0.000026	-4.051549	-75.667099	-2.483357
36201	9.575740	-0.171128	2.416441	0.023599	-0.001040	0.064696	1.000000	0.000039	0.000018	0.000006	-4.045897	-75.667472	-2.487884
36202	9.561363	-0.189358	2.424760	0.009990	-0.018195	0.053140	1.000000	0.000018	0.000026	0.000014	-4.045485	-75.667024	-2.485233
36203	9.555770	-0.159229	2.409594	0.026699	0.010034	0.043449	1.000000	0.000047	0.000030	0.000016	-4.043042	-75.666012	-2.485522
36204	9.561097	-0.189572	2.425791	0.009116	-0.018457	0.053140	1.000000	0.000019	0.000019	0.000009	-4.040928	-75.666179	-2.490578
36205	9.562912	-0.200575	2.404512	0.028856	-0.031922	0.049835	1.000000	0.000030	0.000028	0.000009	-4.037223	-75.665475	-2.494155
36206	9.553485	-0.148656	2.432702	0.005190	0.022976	0.046758	1.000000	0.000021	0.000017	0.000028	-4.043081	-75.665956	-2.485109
36207	9.541025	-0.178111	2.419313	0.011789	-0.007509	0.031893	1.000000	0.000027	0.000031	0.000019	-4.044336	-75.664785	-2.483941
36208	9.558670	-0.179342	2.449411	-0.012853	-0.005640	0.056444	1.000000	0.000022	0.000023	0.000003	-4.038890	-75.664695	-2.489167
36209	9.572831	-0.161294	2.441952	-0.000149	0.011251	0.068006	1.000000	0.000024	0.000020	0.000021	-4.041669	-75.664697	-2.486710
36210	9.558413	-0.179672	2.450391	-0.013736	-0.005899	0.056443	1.000000	0.000021	0.000037	0.000012	-4.039732	-75.662937	-2.490500
36211	9.558284	-0.179836	2.450880	-0.014176	-0.006024	0.056442	1.000000	0.000025	0.000014	0.000017	-4.040794	-75.663760	-2.489771
36212	9.558154	-0.180023	2.451373	-0.014602	-0.006157	0.056441	1.000000	0.000046	0.000037	0.000020	-4.039903	-75.661842	-2.489843
36213	9.538281	-0.168284	2.444135	-0.011017	0.005052	0.035195	1.000000	0.000013	0.000026	0.000030	-4.047867	-75.661120	-2.483425
36214	9.555948	-0.169601	2.474105	-0.035657	0.006929	0.059738	1.000000	0.000031	0.000014	0.000000	-4.040487	-75.662068	-2.489965
36215	9.538083	-0.168483	2.444894	-0.011896	0.004790	0.035194	1.000000	0.000027	0.000024	0.000015	-4.040026	-75.661716	-2.490525
36216	9.557717	-0.180701	2.453027	-0.016369	-0.006675	0.056438	1.000000	0.000034	0.000004	0.000015	-4.039009	-75.663652	-2.490394
36217	9.536012	-0.157754	2.467120	-0.032951	0.017885	0.038489	1.000000	0.000027	0.000017	0.000011	-4.036831	-75.664121	-2.492682
36218	9.550208	-0.139562	2.459558	-0.020262	0.034764	0.050059	1.000000	0.000022	0.000016	-0.000001	-4.029789	-75.664924	-2.497833
36219	9.539711	-0.179759	2.424368	0.006496	-0.009075	0.031897	1.000000	0.000041	0.000023	0.000029	-4.033836	-75.664618	-2.492084
36220	9.553903	-0.161848	2.416814	0.019219	0.007799	0.043469	1.000000	0.000008	0.000011	0.000010	-4.033477	-75.665672	-2.493998
36221	9.539543	-0.180131	2.425002	0.005631	-0.009335	0.031897	1.000000	0.000019	0.000019	0.000009	-4.031525	-75.665885	-2.497068
36222	9.569576	-0.152159	2.468697	-0.026058	0.022910	0.071299	1.000000	0.000036	0.000008	0.000008	-4.027154	-75.667555	-2.498684
36223	9.551765	-0.151203	2.439291	-0.002288	0.020764	0.046764	1.000000	0.000022	0.000010	0.000024	-4.031460	-75.668731	-2.494937
36224	9.569480	-0.152554	2.469046	-0.026936	0.022650	0.071298	1.000000	0.000025	0.000007	0.000013	-4.030576	-75.670377	-2.496396
36225	9.553599	-0.162509	2.417970	0.017004	0.007143	0.043473	1.000000	0.000027	0.000017	0.000011	-4.028397	-75.670846	-2.498684
36226	9.551595	-0.151642	2.439930	-0.003603	0.020368	0.046764	1.000000	0.000025	0.000007	0.000013	-4.027563	-75.672501	-2.500831
36227	9.567746	-0.144695	2.410606	0.029278	0.023880	0.055053	1.000000	0.000041	0.000023	0.000029	-4.031614	-75.672194	-2.495078
36228	9.558785	-0.193343	2.434590	-0.001509	-0.021592	0.053138	1.000000	0.000008	0.000011	0.000010	-4.031200	-75.673296	-2.498506
36229	9.553304	-0.163213	2.419089	0.015253	0.006616	0.043477	1.000000	0.000036	0.000015	0.000013	-4.028797	-75.674022	-2.500011
36230	9.572931	-0.175435	2.427238	0.010780	-0.004854	0.064718	1.000000	0.000025	0.000014	0.000017	-4.029716	-75.674752	-2.500954
36231	9.537336	-0.173464	2.368371	0.058772	-0.009045	0.015665	1.000000	0.000033	0.000018	0.000023	-4.032275	-75.675009	-2.497712
36232	9.587066	-0.157836	2.419916	0.023048	0.011881	0.076300	1.000000	0.000030	0.000008	0.000025	-4.036198	-75.676478	-2.491511
36233	9.537173	-0.174057	2.368986	0.057890	-0.009309	0.015670	1.000000	0.000035	0.000029	0.000021	-4.037231	-75.675561	-2.489560
36234	9.586875	-0.158306	2.420643	0.022161	0.011620	0.076302	1.000000	0.000016	0.000009	0.000012	-4.036691	-75.676991	-2.491092
36235	9.535016	-0.163347	2.391531	0.036844	0.003799	0.018959	1.000000	0.000058	0.000038	0.000016	-4.032507	-75.675060	-2.491882
36236	9.570419	-0.165512	2.451106	-0.012033	0.007733	0.068002	1.000000	0.000037	0.000001	0.000004	-4.026418	-75.677407	-2.496243
36237	9.540172	-0.193628	2.408278	0.018753	-0.024795	0.028614	1.000000	0.000056	0.000058	0.000028	-4.027389	-75.673012	-2.491848
36238	9.586779	-0.161604	2.341834	0.098133	-0.000718	0.056812	1.000000	-0.000043	0.000013	0.000021	-4.037775	-75.673755	-2.492658
36239	9.556741	-0.092069	2.524027	-0.076730	0.089174	0.071474	1.000000	0.000080	0.000047	0.000010	-4.028379	-75.670809	-2.496186
36240	9.563287	-0.228282	2.374585	0.053721	-0.063292	0.043292	1.000000	0.000045	0.000012	0.000014	-4.025601	-75.671695	-2.499945
36241	9.589369	-0.178535	2.461824	-0.018255	-0.004251	0.089237	1.000000	-0.000021	0.000029	0.000020	-4.032741	-75.670765	-2.498395
36242	9.531663	-0.150732	2.497825	-0.064023	0.028062	0.041731	1.000000	0.000039	0.000018	0.000006	-4.026878	-75.671122	-2.502864
36243	9.557056	-0.195779	2.441173	-0.008069	-0.023543	0.053130	1.000000	0.000040	0.000043	0.000013	-4.023146	-75.668677	-2.505220
36244	9.538655	-0.192081	2.493229	-0.061977	-0.013894	0.048093	1.000000	0.000018	0.000033	0.000018	-4.024405	-75.667223	-2.505595
36245	9.538938	-0.194969	2.413057	0.015283	-0.025854	0.028617	1.000000	0.000006	0.000045	0.000002	-4.019847	-75.664573	-2.512817
36246	9.530932	-0.151255	2.500580	-0.065744	0.027559	0.041721	1.000000	0.000012	0.000026	0.000030	-4.027614	-75.663724	-2.510847
36247	9.549010	-0.155305	2.449795	-0.012714	0.017639	0.046762	1.000000	0.000041	0.000029	0.000004	-4.020453	-75.662920	-2.516652
36248	9.541920	-0.214672	2.452256	-0.023403	-0.041172	0.041532	1.000000	0.000044	0.000019	0.000018	-4.019472	-75.662996	-2.518535
36249	9.552754	-0.177550	2.407041	0.026724	-0.009400	0.040214	1.000000	-0.000006	-0.000000	0.000017	-4.024258	-75.665395	-2.517578
36250	9.540922	-0.111693	2.537587	-0.094597	0.070830	0.059853	1.000000	0.000058	0.000031	0.000011	-4.018275	-75.664243	-2.521155
36251	9.557933	-0.207849	2.423615	0.008596	-0.037970	0.049852	1.000000	0.000047	0.000016	0.000008	-4.012419	-75.664870	-2.524883
36252	9.551979	-0.174975	2.489015	-0.052287	0.002083	0.059667	1.000000	0.000013	0.000012	0.000022	-4.016808	-75.665792	-2.520182
36253	9.541160	-0.114740	2.457667	-0.018206	0.058577	0.040397	1.000000	0.000036	0.000015	0.000013	-4.014415	-75.666515	-2.521680
36254	9.568110	-0.168104	2.459930	-0.019852	0.005405	0.067991	1.000000	0.000053	0.000010	0.000016	-4.011415	-75.667766	-2.522833
36255	9.552327	-0.178142	2.408689	0.024092	-0.010184	0.040220	1.000000	0.000023	-0.000004	0.000015	-4.012295	-75.670581	-2.522536
36256	9.582371	-0.150276	2.452202	-0.007555	0.022116	0.079591	1.000000	0.000025	0.000014	0.000017	-4.013175	-75.671373	-2.522570
36257	9.548301	-0.156381	2.452491	-0.017068	0.016356	0.046758	1.000000	0.000047	0.000016	0.000008	-4.007318	-75.672000	-2.526300
36258	9.554120	-0.189521	2.387625	0.042955	-0.023991	0.036955	1.000000	0.000005	0.000008	0.000016	-4.010158	-75.673278	-2.529310
36259	9.544795	-0.137559	2.415338	0.019508	0.030993	0.033863	1.000000	0.000014	0.000006	0.000018	-4.012976	-75.675014	-2.528072
36260	9.565860	-0.158107	2.482685	-0.042536	0.018039	0.071252	1.000000	0.000041	0.000016	0.000025	-4.015169	-75.675222	-2.531515
36261	9.568218	-0.172111	2.380533	0.054862	-0.007429	0.048565	1.000000	0.000013	0.000032	0.000006	-4.011908	-75.674001	-2.536668
36262	9.547927	-0.157346	2.453883	-0.019187	0.015707	0.046755	1.000000	0.000022	0.000003	0.000019	-4.014317	-75.676100	-2.533813
36263	9.583835	-0.162490	2.432375	0.009582	0.007795	0.076326	1.000000	0.000036	0.000015	0.000013	-4.011924	-75.676822	-2.535311
36264	9.551718	-0.179542	2.410997	0.020176	-0.011375	0.040228	1.000000	0.000039	0.000018	0.000006	-4.006134	-75.677400	-2.536836
36265	9.599937	-0.155572	2.403467	0.041981	0.011082	0.084674	1.000000	0.000013	0.000019	0.000026	-4.012387	-75.677493	-2.532145
36266	9.561946	-0.139848	2.447104	-0.007803	0.032153	0.058361	1.000000	0.000025	0.000007	0.000013	-4.011589	-75.679172	-2.531984
36267	9.563827	-0.150964	2.425725	0.011895	0.018611	0.055100	1.000000	0.000064	0.000025	0.000019	-4.008730	-75.678668	-2.530683
36268	9.553305	-0.191323	2.390740	0.038534	-0.025312	0.036970	1.000000	0.000007	0.000025	0.000018	-4.011772	-75.678235	-2.526836
36269	9.577906	-0.133340	2.418747	0.024182	0.035307	0.066714	1.000000	0.000024	0.000021	0.000022	-4.014561	-75.678232	-2.524376
36270	9.547182	-0.158602	2.456700	-0.022759	0.014675	0.046749	1.000000	0.000033	0.000024	-0.000002	-4.005671	-75.678055	-2.532110
36271	9.533270	-0.179621	2.384230	0.041324	-0.014371	0.015748	1.000000	0.000027	0.000031	0.000019	-4.006932	-75.676877	-2.530942
36272	9.580897	-0.152879	2.457797	-0.014584	0.020041	0.079587	1.000000	0.000007	0.000025	0.000018	-4.010082	-75.676403	-2.530667
36273	9.548741	-0.170172	2.436562	-0.003948	0.000876	0.043490	1.000000	0.000027	0.000024	0.000015	-4.009627	-75.676047	-2.531226
36274	9.582633	-0.164267	2.436986	0.004677	0.006360	0.076331	1.000000	0.000027	0.000017	0.000011	-4.007322	-75.676466	-2.533846
36275	9.552424	-0.192664	2.394151	0.035445	-0.026230	0.036980	1.000000	0.000023	0.000041	0.000034	-4.015260	-75.673997	-2.526208
36276	9.566039	-0.171959	2.467702	-0.029511	0.002573	0.067968	1.000000	0.000036	0.000015	0.000013	-4.012679	-75.674696	-2.528519
36277	9.512266	-0.165930	2.460154	-0.034872	0.008171	0.013900	1.000000	0.000030	0.000028	0.000009	-4.008981	-75.673988	-2.532096
36278	9.553445	-0.201235	2.454828	-0.023453	-0.028063	0.053094	1.000000	0.000036	0.000022	0.000017	-4.008049	-75.673929	-2.532874
36279	9.547988	-0.171191	2.439441	-0.006575	0.000095	0.043489	1.000000	0.000018	0.000026	0.000014	-4.007813	-75.673316	-2.534222
36280	9.545897	-0.160209	2.461585	-0.027140	0.013390	0.046740	1.000000	0.000030	0.000021	0.000005	-4.002169	-75.673423	-2.541650
36281	9.562110	-0.153245	2.432344	0.005734	0.016778	0.055109	1.000000	0.000041	0.000016	0.000025	-4.004526	-75.673932	-2.537609
36282	9.531375	-0.178597	2.470208	-0.041203	-0.003812	0.035115	1.000000	0.000019	0.000020	0.000009	-4.002403	-75.674147	-2.537490
36283	9.527915	-0.159557	2.433061	-0.004190	0.010910	0.022265	1.000000	0.000036	0.000022	0.000017	-4.001734	-75.674047	-2.537258
36284	9.531173	-0.178816	2.470971	-0.042073	-0.004065	0.035112	1.000000	0.000036	0.000015	0.000013	-3.999175	-75.674725	-2.541879
36285	9.563716	-0.164863	2.412076	0.024111	0.002819	0.051863	1.000000	0.000041	0.000016	0.000025	-4.001534	-75.675233	-2.537837
36286	9.581330	-0.166120	2.441979	-0.000596	0.004784	0.076333	1.000000	0.000008	0.000011	0.000010	-4.001101	-75.676357	-2.541775
36287	9.559623	-0.143167	2.455973	-0.017010	0.029433	0.058358	1.000000	0.000016	0.000016	0.000016	-4.002393	-75.676918	-2.541830
36288	9.547172	-0.172395	2.442548	-0.010491	-0.001081	0.043485	1.000000	0.000039	0.000018	0.000006	-3.996553	-75.677141	-2.550861
36289	10.092025	0.032202	0.129343	2.369023	-0.064070	-0.001961	1.000000	-0.000230	-0.000435	-0.000004	-4.031151	-75.729424	-2.545606
36290	12.607192	-1.983844	7.513443	-4.196816	-1.270067	4.332762	0.999940	0.000425	0.010898	0.000667	-3.939412	-74.481005	-2.593780
36291	3.984876	1.076209	-1.847471	2.916766	0.805027	-6.452008	0.999929	-0.002629	-0.011437	-0.002186	-3.621106	-75.807821	-3.238083
36292	10.634979	0.934310	0.289795	2.458101	0.825306	0.547624	0.999976	0.006118	0.002770	0.001394	-3.462921	-75.484160	-2.669963
36293	12.937746	0.357612	7.538985	-3.952082	1.029507	4.598075	0.999988	-0.004699	0.001517	-0.000158	-3.885925	-75.314333	-2.792510
36294	6.102275	-1.310941	0.262036	1.135839	-1.341449	-3.818079	0.999997	-0.001859	-0.001136	0.000699	-4.438003	-75.441491	-2.432631
36295	11.011316	-1.293434	2.921958	-0.205564	-1.063663	1.601611	0.999995	0.002887	-0.001281	-0.000032	-4.132383	-75.590638	-2.409919
36296	8.931044	1.106510	2.386956	0.047907	1.263369	-0.588425	0.999998	0.001671	0.000382	-0.000818	-3.562576	-75.556347	-2.795143
36297	9.915090	0.090476	3.195554	-0.596813	0.326860	0.582778	0.999999	-0.001523	-0.000255	0.000353	-3.897826	-75.585396	-2.632496
36298	9.281366	-0.471267	1.903695	0.423919	-0.360433	-0.342720	1.000000	0.000076	0.000006	0.000031	-3.899163	-75.587366	-2.618056
36299	10.234677	-0.131830	2.758449	-0.120414	0.060816	0.787163	1.000000	0.000276	0.000343	0.000020	-3.862554	-75.550566	-2.626521
36300	9.221410	0.148747	2.467127	-0.060032	0.318142	-0.271281	1.000000	0.000026	-0.000149	0.000048	-3.882052	-75.570317	-2.594441
36301	9.710086	-0.533022	2.254048	0.190808	-0.385433	0.160560	1.000000	-0.000629	0.000139	0.000149	-4.012836	-75.555738	-2.537130
36302	9.079724	-0.248679	2.519094	-0.187879	-0.065645	-0.388810	1.000000	0.000595	0.000084	-0.000058	-3.912780	-75.549586	-2.565315
36303	9.603349	0.067573	2.380043	0.110676	0.225215	0.078243	1.000000	-0.000035	-0.000106	-0.000003	-3.915096	-75.564279	-2.570317
36304	9.307927	-0.250469	2.624385	-0.233940	-0.059898	-0.141632	1.000000	-0.000021	0.000081	0.000043	-3.930773	-75.557736	-2.551712
36305	9.688138	-0.114889	2.343863	0.145795	0.038917	0.154465	1.000000	0.000160	-0.000023	-0.000034	-3.894760	-75.563179	-2.573222
36306	9.564106	-0.223365	3.077192	-0.602028	0.013014	0.218690	1.000000	0.000055	0.000143	0.000015	-3.887181	-75.549592	-2.571550
36307	9.825898	-0.101552	2.323905	0.201007	0.047594	0.282680	1.000000	0.000014	-0.000144	0.000028	-3.899122	-75.568318	-2.560793
36308	9.633848	-0.213156	2.774056	-0.294210	-0.010753	0.210544	1.000000	0.000036	-0.000005	0.000029	-3.904302	-75.571568	-2.548450
36309	9.613896	-0.088545	2.267497	0.200819	0.056882	0.063183	1.000000	0.000142	-0.000069	-0.000002	-3.885684	-75.581949	-2.554176
36310	9.525270	-0.283697	2.413044	0.015780	-0.119750	0.016832	1.000000	-0.000146	-0.000030	0.000024	-3.910439	-75.588120	-2.542154
36311	9.531966	-0.023635	2.417732	0.040980	0.139510	0.020075	1.000000	0.000110	0.000010	0.000017	-3.901619	-75.589371	-2.541574
36312	9.497152	-0.223033	2.351360	0.073821	-0.065540	-0.026739	1.000000	-0.000020	-0.000005	0.000028	-3.912945	-75.592671	-2.528609
36313	9.520487	-0.056949	2.322855	0.124704	0.096844	-0.014032	1.000000	-0.000039	-0.000023	0.000047	-3.935784	-75.597499	-2.512982
36314	9.484396	-0.248841	2.197364	0.215154	-0.106799	-0.076856	1.000000	0.000000	0.000045	0.000019	-3.939245	-75.595181	-2.505809
36315	9.460198	-0.121374	2.598466	-0.162127	0.064969	-0.002917	1.000000	-0.000057	0.000066	0.000031	-3.954029	-75.589935	-2.500610
36316	9.551575	-0.233066	2.059335	0.367549	-0.106514	-0.046351	1.000000	0.000052	0.000024	0.000024	-3.954495	-75.589862	-2.492205
36317	9.566222	-0.131444	2.697100	-0.231155	0.065252	0.124442	1.000000	-0.000022	0.000036	0.000024	-3.963295	-75.588110	-2.488991
36318	9.600291	-0.219586	2.333417	0.118097	-0.062978	0.068645	1.000000	0.000096	0.000063	0.000026	-3.958498	-75.583639	-2.479382
36319	9.581058	-0.217296	2.606767	-0.148840	-0.030481	0.117874	1.000000	0.000077	0.000044	0.000017	-3.952447	-75.581047	-2.479809
36320	9.581514	-0.215708	2.385968	0.063701	-0.053293	0.063440	1.000000	-0.000028	-0.000016	0.000018	-3.960447	-75.585808	-2.470325
36321	9.567246	-0.238389	2.534845	-0.085254	-0.059716	0.086991	1.000000	0.000188	0.000097	-0.000005	-3.930262	-75.577325	-2.482510
36322	9.608920	-0.171172	2.311684	0.146698	-0.018279	0.070767	1.000000	-0.000053	-0.000101	0.000022	-3.945870	-75.591569	-2.470338
36323	9.556083	-0.174776	2.583206	-0.129230	0.008630	0.087083	1.000000	0.000137	0.000033	0.000003	-3.927157	-75.590283	-2.476720
36324	9.535750	-0.152470	2.295166	0.145149	-0.001437	-0.004502	1.000000	0.000026	-0.000001	-0.000020	-3.911819	-75.593409	-2.488406
36325	9.561557	-0.102003	2.382166	0.073189	0.057776	0.041235	1.000000	-0.000010	0.000030	0.000015	-3.915470	-75.592386	-2.489118
36326	9.586233	-0.144860	2.406876	0.051135	0.018027	0.071995	1.000000	-0.000017	0.000044	0.000040	-3.930615	-75.589979	-2.473563
36327	9.527084	-0.109072	2.383853	0.063266	0.051936	0.008376	1.000000	-0.000009	0.000074	0.000005	-3.928409	-75.584000	-2.480199
36328	9.547523	-0.129479	2.452470	0.000952	0.039063	0.045560	1.000000	-0.000017	0.000063	0.000024	-3.935672	-75.579482	-2.471499
36329	9.548246	-0.138138	2.513320	-0.057099	0.037542	0.061531	1.000000	-0.000025	0.000104	0.000037	-3.948651	-75.569837	-2.464368
36330	9.514707	-0.147823	2.433922	0.011136	0.019782	0.009480	1.000000	0.000013	0.000070	0.000021	-3.950517	-75.564673	-2.457371
36331	9.547484	-0.139033	2.516163	-0.058070	0.037284	0.061526	1.000000	0.000011	0.000053	0.000018	-3.952413	-75.560991	-2.457349
36332	9.533989	-0.165672	2.584107	-0.129341	0.018829	0.065821	1.000000	0.000023	0.000028	0.000055	-3.969567	-75.560115	-2.437827
36333	9.523515	-0.206318	2.549335	-0.102698	-0.025103	0.047731	1.000000	0.000086	0.000034	0.000014	-3.961619	-75.558607	-2.439156
36334	9.572898	-0.185819	2.460502	-0.003316	-0.014771	0.073097	1.000000	-0.000041	-0.000055	0.000037	-3.980806	-75.567404	-2.423000
36335	9.457806	-0.133517	2.670270	-0.229155	0.061079	0.012893	1.000000	0.000235	-0.000004	-0.000023	-3.940318	-75.570575	-2.440227
36336	9.449217	-0.275539	2.329813	0.080635	-0.118008	-0.077636	1.000000	-0.000025	0.000032	0.000030	-3.952075	-75.569507	-2.429355
36337	9.588466	-0.079410	2.655519	-0.176861	0.111417	0.134828	1.000000	0.000025	-0.000000	0.000009	-3.949765	-75.571981	-2.432031
36338	9.603692	-0.164711	2.564142	-0.094125	0.015784	0.128326	1.000000	0.000149	0.000085	-0.000007	-3.923324	-75.565255	-2.438362
36339	9.540406	-0.096620	2.302987	0.148530	0.055256	0.000942	1.000000	-0.000073	-0.000073	0.000013	-3.936568	-75.575994	-2.436652
36340	9.538844	-0.090782	2.463528	-0.007463	0.079240	0.039238	1.000000	-0.000018	-0.000059	0.000023	-3.947067	-75.585421	-2.424614
36341	9.547445	-0.144890	2.657124	-0.198138	0.046678	0.096580	1.000000	0.000069	0.000039	0.000011	-3.939538	-75.583401	-2.427538
36342	9.525254	-0.213145	2.388004	0.048544	-0.050367	0.009409	1.000000	-0.000055	0.000069	0.000024	-3.950860	-75.578067	-2.421402
36343	9.632284	-0.125837	2.408212	0.065256	0.038321	0.116587	1.000000	-0.000096	-0.000030	0.000042	-3.977996	-75.583705	-2.407988
36344	9.558368	-0.109648	2.612664	-0.148885	0.078042	0.095500	1.000000	0.000090	-0.000003	0.000012	-3.969275	-75.586655	-2.404094
36345	9.583940	-0.251022	2.412595	0.034552	-0.084806	0.073016	1.000000	0.000035	0.000036	0.000025	-3.972050	-75.584921	-2.400410
36346	9.585851	-0.162253	2.394501	0.061888	0.001967	0.068844	1.000000	-0.000057	-0.000019	0.000044	-3.995025	-75.589296	-2.389563
36347	9.561249	-0.125191	2.510453	-0.052335	0.052160	0.073164	1.000000	0.000099	0.000002	0.000017	-3.987998	-75.591477	-2.388438
36348	9.508611	-0.222727	2.418075	0.012510	-0.054633	0.000938	1.000000	0.000098	0.000009	0.000022	-3.982473	-75.593129	-2.381306
36349	9.509519	-0.226365	2.337264	0.089819	-0.066838	-0.018175	1.000000	0.000002	-0.000002	0.000047	-3.999922	-75.595457	-2.366346
36350	9.533301	-0.165140	2.445614	-0.002320	0.005848	0.030690	1.000000	0.000073	0.000002	0.000008	-3.991614	-75.597881	-2.365558
36351	9.563062	-0.232649	2.345775	0.093631	-0.072883	0.035910	1.000000	0.000087	0.000020	0.000006	-3.980254	-75.598023	-2.370318
36352	9.538201	-0.190320	2.321991	0.114710	-0.033382	0.005198	1.000000	0.000016	0.000009	0.000012	-3.979683	-75.599950	-2.363507
36353	9.601157	-0.153128	2.446596	0.014150	0.016602	0.096451	1.000000	0.000022	0.000003	0.000019	-3.982310	-75.601955	-2.361466
36354	9.590777	-0.193613	2.411466	0.040778	-0.027354	0.078382	1.000000	0.000027	0.000017	0.000011	-3.980040	-75.602494	-2.363374
36355	9.565893	-0.251982	2.384637	0.054248	-0.088225	0.048630	1.000000	-0.000010	0.000043	-0.000005	-3.974195	-75.600166	-2.373909
36356	9.581212	-0.141272	2.439856	0.017005	0.027556	0.075256	1.000000	-0.000009	0.000016	0.000007	-3.974210	-75.600980	-2.375204
36357	9.584210	-0.160511	2.478016	-0.020950	0.012612	0.087960	1.000000	0.000001	0.000038	0.000015	-3.976114	-75.599043	-2.376424
36358	9.570601	-0.182032	2.405638	0.043147	-0.016529	0.057191	1.000000	0.000027	0.000024	0.000015	-3.975562	-75.599005	-2.376017
36359	9.554006	-0.189253	2.435676	0.009418	-0.020118	0.048695	1.000000	-0.000013	0.000026	0.000022	-3.982427	-75.598337	-2.373744
36360	9.593020	-0.113216	2.455698	0.008165	0.057403	0.090138	1.000000	0.000035	0.000029	0.000021	-3.983233	-75.597807	-2.368951
36361	9.548514	-0.159520	2.420876	0.025868	0.007885	0.039189	1.000000	0.000060	0.000041	0.000010	-3.975912	-75.595534	-2.372674
36362	9.498831	-0.175618	2.370070	0.060938	-0.013366	-0.021264	1.000000	0.000038	0.000032	0.000015	-3.973702	-75.594470	-2.370394
36363	9.526532	-0.136356	2.435725	0.009070	0.032439	0.021184	1.000000	0.000046	0.000030	0.000016	-3.971343	-75.593466	-2.370623
36364	9.524282	-0.125260	2.458109	-0.011575	0.045769	0.024370	1.000000	0.000085	0.000048	0.000023	-3.966713	-75.590797	-2.361154
36365	9.533290	-0.177838	2.431933	0.010823	-0.009538	0.027502	1.000000	0.000056	0.000059	0.000028	-3.967734	-75.586404	-2.356740
36366	9.548509	-0.167873	2.484253	-0.034138	0.005893	0.055064	1.000000	0.000029	0.000041	0.000017	-3.967330	-75.584302	-2.354421
36367	9.510149	-0.151637	2.528165	-0.083739	0.027128	0.028542	1.000000	0.000048	0.000047	0.000018	-3.965153	-75.581300	-2.354226
36368	9.567648	-0.180275	2.494065	-0.039303	-0.005721	0.076254	1.000000	0.000037	0.000039	0.000019	-3.964477	-75.579436	-2.349671
36369	9.534506	-0.194154	2.553746	-0.106310	-0.012746	0.059225	1.000000	0.000010	0.000022	0.000008	-3.962771	-75.579405	-2.353514
36370	9.556056	-0.117116	2.543807	-0.083171	0.062663	0.076298	1.000000	-0.000007	0.000014	0.000025	-3.970658	-75.580380	-2.347386
36371	9.563183	-0.158534	2.538556	-0.080904	0.020816	0.082609	1.000000	0.000025	0.000020	-0.000007	-3.960594	-75.580728	-2.358134
36372	9.533242	-0.187079	2.495306	-0.050075	-0.011795	0.043356	1.000000	0.000002	-0.000001	0.000047	-3.977798	-75.583325	-2.343593
36373	9.560067	-0.140343	2.500957	-0.044303	0.035360	0.069931	1.000000	-0.000002	-0.000010	0.000002	-3.975943	-75.587036	-2.349075
36374	9.542574	-0.139512	2.471111	-0.020407	0.033118	0.045561	1.000000	0.000014	-0.000001	0.000014	-3.976949	-75.589774	-2.345655
36375	9.510584	-0.156784	2.449425	-0.009643	0.013975	0.009491	1.000000	0.000024	0.000014	0.000017	-3.978056	-75.590607	-2.344900
36376	9.558981	-0.133019	2.441892	0.011916	0.036298	0.054085	1.000000	0.000025	0.000007	0.000013	-3.977193	-75.592708	-2.344192
36377	9.542460	-0.140071	2.471517	-0.021804	0.032733	0.045559	1.000000	0.000031	0.000001	0.000021	-3.979623	-75.594973	-2.341345
36378	9.544406	-0.151482	2.450339	-0.002164	0.019131	0.042383	1.000000	0.000046	0.000044	0.000025	-3.980462	-75.592511	-2.333443
36379	9.544281	-0.151936	2.450797	-0.002605	0.019004	0.042383	1.000000	0.000041	0.000003	0.000045	-3.992345	-75.594342	-2.319571
36380	9.563802	-0.164265	2.459132	-0.007318	0.007519	0.063572	1.000000	0.000059	0.000017	0.000003	-3.983061	-75.594962	-2.324099
36381	9.549271	-0.182406	2.467408	-0.020926	-0.009510	0.051866	1.000000	0.000046	0.000017	0.000037	-3.990190	-75.595267	-2.314519
