// Start Time: Unknown
// Update Rate: 100.0Hz
// Filter Profile: human (46.1)
// Firmware Version: 4.4.0
PacketCounter	Acc_X	Acc_Y	Acc_Z	FreeAcc_X	FreeAcc_Y	FreeAcc_Z	OriInc_q0	OriInc_q1	OriInc_q2	OriInc_q3	Roll	Pitch	Yaw
03410	9.895377	-0.185227	0.526174	0.000000	0.000000	0.098400	1.000000	0.000026	0.000035	0.000029	-19.378446	-86.775962	17.041929
03411	9.882323	-0.145889	0.552150	0.007260	0.032024	0.086069	1.000000	0.000040	0.000039	0.000014	-17.711716	-86.605487	15.138517
03412	9.862703	-0.183596	0.554361	0.002865	-0.005607	0.067287	1.000000	-0.000003	0.000020	0.000015	-17.727521	-86.602740	15.154025
03413	9.909416	-0.176223	0.566522	-0.005833	0.002873	0.114472	1.000000	0.000036	0.000028	0.000039	-17.719588	-86.599714	15.156434
03414	9.879483	-0.161095	0.574015	-0.013595	0.018620	0.084742	1.000000	0.000035	0.000043	0.000045	-17.772691	-86.593396	15.213666
03415	9.892439	-0.201428	0.549458	0.010555	-0.022134	0.097016	1.000000	0.000021	0.000023	0.000019	-17.778850	-86.590442	15.223452
03416	9.914713	-0.150671	0.528328	0.035722	0.028247	0.117131	1.000000	0.000022	0.000033	0.000015	-17.784425	-86.586282	15.231530
03417	9.909228	-0.178388	0.569124	-0.005851	0.002483	0.114472	1.000000	0.000031	0.000031	0.000034	-17.801398	-86.582158	15.254486
03418	9.902677	-0.158987	0.582452	-0.017926	0.022795	0.108335	1.000000	0.000028	0.000040	0.000017	-17.804777	-86.577175	15.261035
03419	9.909126	-0.179155	0.570656	-0.005854	0.002376	0.114472	1.000000	0.000028	0.000040	0.000017	-17.798266	-86.572367	15.258484
03420	9.884658	-0.136421	0.537955	0.027935	0.043630	0.087403	1.000000	0.000007	0.000029	0.000031	-17.836292	-86.568123	15.297359
03421	9.911763	-0.166650	0.551848	0.014904	0.015016	0.115802	1.000000	0.000036	0.000028	0.000039	-17.877209	-86.563954	15.343085
03422	9.902490	-0.160765	0.585126	-0.017947	0.022575	0.108336	1.000000	0.000018	0.000032	0.000001	-17.858094	-86.560465	15.325995
03423	9.881800	-0.151504	0.559951	0.007127	0.030779	0.086073	1.000000	0.000035	0.000043	0.000045	-17.912090	-86.554190	15.383157
03424	9.914353	-0.154482	0.533947	0.035666	0.027783	0.117133	1.000000	0.000020	0.000038	0.000024	-17.931441	-86.549161	15.404851
03425	9.881698	-0.152571	0.561447	0.007057	0.029917	0.086076	1.000000	0.000027	0.000030	0.000020	-17.868971	-86.546888	15.352379
03426	9.911528	-0.168977	0.555358	0.014822	0.014167	0.115804	1.000000	0.000026	0.000035	0.000029	-17.898756	-86.542053	15.385148
03427	9.914223	-0.156009	0.535913	0.035515	0.026721	0.117136	1.000000	0.000036	0.000028	0.000039	-17.932769	-86.538369	15.423566
03428	9.904929	-0.150436	0.569299	0.002663	0.034277	0.109670	1.000000	0.000018	0.000043	0.000034	-17.965925	-86.532470	15.458906
03429	9.904875	-0.151034	0.570079	0.002537	0.033868	0.109671	1.000000	0.000026	0.000035	0.000029	-17.961026	-86.528955	15.458468
03430	9.914067	-0.158043	0.538207	0.035389	0.026312	0.117138	1.000000	0.000022	0.000045	0.000048	-18.018280	-86.522378	15.518386
03431	9.881392	-0.156296	0.565791	0.006695	0.029103	0.086079	1.000000	0.000022	0.000033	0.000015	-18.008656	-86.519401	15.510079
03432	9.890604	-0.162973	0.533735	0.039547	0.021547	0.093545	1.000000	0.000020	0.000028	0.000028	-18.040189	-86.515383	15.543931
03433	9.908421	-0.186856	0.580358	-0.006595	0.000215	0.114472	1.000000	0.000031	0.000031	0.000034	-18.052084	-86.512877	15.559404
03434	9.934504	-0.169914	0.566742	0.009865	0.017528	0.139400	1.000000	0.000020	0.000028	0.000028	-18.083503	-86.508856	15.593141
03435	9.887714	-0.178288	0.555676	0.018113	0.007920	0.092214	1.000000	0.000007	0.000040	0.000027	-18.072791	-86.506474	15.584309
03436	9.890422	-0.165362	0.536352	0.038886	0.020675	0.093550	1.000000	0.000029	0.000036	0.000044	-18.126025	-86.500955	15.641010
03437	9.910980	-0.175834	0.562956	0.013707	0.012074	0.115808	1.000000	0.000036	0.000028	0.000039	-18.141272	-86.497619	15.660337
03438	9.887559	-0.180306	0.557783	0.018021	0.007517	0.092214	1.000000	0.000015	0.000042	0.000019	-18.149706	-86.492393	15.670477
03439	9.894003	-0.200738	0.545948	0.029634	-0.013281	0.098346	1.000000	0.000018	0.000033	0.000037	-18.162148	-86.490841	15.685778
03440	9.910825	-0.177704	0.565095	0.013240	0.011586	0.115809	1.000000	0.000029	0.000036	0.000044	-18.214982	-86.485312	15.742080
03441	9.896670	-0.188605	0.527275	0.050057	-0.000725	0.099686	1.000000	0.000026	0.000035	0.000029	-18.235083	-86.482728	15.762711
03442	9.884574	-0.196462	0.580717	-0.003569	-0.005920	0.090877	1.000000	0.000026	0.000035	0.000029	-18.263928	-86.477885	15.794537
03443	9.887310	-0.183313	0.561211	0.017203	0.006667	0.092216	1.000000	0.000021	0.000023	0.000019	-18.266255	-86.475003	15.796902
03444	9.890047	-0.170271	0.541710	0.037976	0.019422	0.093556	1.000000	0.000042	0.000035	0.000041	-18.313311	-86.469713	15.848879
03445	9.896480	-0.190757	0.530055	0.049958	-0.001659	0.099687	1.000000	0.000026	0.000056	0.000022	-18.249547	-86.464556	15.792742
03446	9.887153	-0.184878	0.563464	0.017108	0.005898	0.092217	1.000000	0.000027	0.000019	0.000024	-18.276822	-86.461585	15.823148
03447	9.913269	-0.167874	0.549809	0.033218	0.022768	0.117154	1.000000	0.000026	0.000035	0.000029	-18.274754	-86.459345	15.824970
03448	9.889851	-0.172417	0.544599	0.037538	0.018215	0.093560	1.000000	0.000018	0.000033	0.000037	-18.318831	-86.454437	15.871220
03449	9.903887	-0.162707	0.583871	-0.000336	0.029767	0.109685	1.000000	0.000028	0.000040	0.000017	-18.289176	-86.454243	15.846644
03450	9.889754	-0.173398	0.546052	0.036834	0.017657	0.093563	1.000000	0.000031	0.000032	0.000034	-18.327578	-86.449586	15.888698
03451	9.880423	-0.167508	0.579340	0.003316	0.024963	0.086092	1.000000	0.000035	0.000032	0.000012	-18.321364	-86.449768	15.883978
03452	9.913040	-0.170291	0.553187	0.031843	0.021952	0.117160	1.000000	0.000020	0.000028	0.000028	-18.351823	-86.445735	15.916768
03453	9.889626	-0.174610	0.547976	0.035524	0.016745	0.093570	1.000000	0.000028	0.000040	0.000017	-18.311565	-86.445369	15.881909
03454	9.906455	-0.151320	0.567115	0.019121	0.041604	0.111035	1.000000	0.000036	0.000028	0.000039	-18.360059	-86.440912	15.934696
03455	9.912903	-0.171737	0.555180	0.030589	0.020560	0.117167	1.000000	0.000022	0.000033	0.000015	-18.314564	-86.441269	15.894685
03456	9.903560	-0.165778	0.588542	-0.002263	0.028112	0.109689	1.000000	0.000020	0.000038	0.000024	-18.332403	-86.436251	15.914917
03457	9.889444	-0.176549	0.550627	0.034068	0.015218	0.093577	1.000000	0.000025	0.000024	0.000033	-18.323457	-86.438380	15.912030
03458	9.903469	-0.166955	0.589734	-0.003118	0.027310	0.109691	1.000000	0.000031	0.000032	0.000034	-18.361471	-86.433771	15.953739
03459	9.882868	-0.157781	0.564355	0.021417	0.035205	0.087453	1.000000	0.000027	0.000030	0.000020	-18.362412	-86.433421	15.954110
03460	9.885640	-0.144527	0.544893	0.042184	0.047956	0.088808	1.000000	0.000022	0.000033	0.000015	-18.366811	-86.429288	15.961060
03461	9.915455	-0.161055	0.538870	0.049352	0.031454	0.118534	1.000000	0.000036	0.000028	0.000040	-18.364663	-86.429170	15.964553
03462	9.882729	-0.159407	0.566325	0.020829	0.034465	0.087457	1.000000	0.000035	0.000044	0.000045	-18.413746	-86.422834	16.017826
03463	9.882686	-0.159996	0.566920	0.019601	0.033647	0.087462	1.000000	0.000015	0.000016	0.000017	-18.391366	-86.428691	15.998554
03464	9.908839	-0.142937	0.553227	0.036023	0.050936	0.112416	1.000000	0.000038	0.000034	0.000027	-18.413806	-86.424169	16.025515
03465	9.882602	-0.160953	0.568115	0.019008	0.032810	0.087466	1.000000	0.000013	0.000036	0.000032	-18.387728	-86.423581	16.003044
03466	9.908750	-0.144165	0.554501	0.035431	0.050095	0.112423	1.000000	0.000031	0.000021	0.000038	-18.437726	-86.420005	16.056731
03467	9.915192	-0.164782	0.542567	0.046928	0.029134	0.118552	1.000000	0.000037	0.000039	0.000036	-18.431482	-86.418727	16.052304
03468	9.905827	-0.158935	0.575934	0.014071	0.036687	0.111063	1.000000	0.000009	0.000035	0.000018	-18.441153	-86.414385	16.063084
03469	9.921583	-0.185700	0.531476	0.057522	0.008109	0.124686	1.000000	0.000013	0.000036	0.000032	-18.450930	-86.418614	16.070864
03470	9.888857	-0.183760	0.558750	0.028991	0.011133	0.093599	1.000000	0.000027	0.000019	0.000024	-18.478164	-86.415782	16.101257
03471	9.891650	-0.170914	0.539191	0.048432	0.023124	0.094976	1.000000	0.000022	0.000034	0.000052	-18.511765	-86.418848	16.136820
03472	9.885120	-0.151799	0.552310	0.036325	0.043439	0.088852	1.000000	0.000025	0.000024	0.000033	-18.552609	-86.415193	16.180659
03473	9.914926	-0.168517	0.546276	0.043256	0.026949	0.118575	1.000000	0.000018	0.000033	0.000037	-18.554265	-86.415817	16.183161
03474	9.912035	-0.182715	0.567058	0.022448	0.014192	0.117200	1.000000	0.000026	0.000035	0.000029	-18.582751	-86.411149	16.214665
03475	9.891469	-0.173497	0.541686	0.046792	0.021984	0.094987	1.000000	0.000027	0.000030	0.000020	-18.579892	-86.412133	16.208207
03476	9.888574	-0.187657	0.562456	0.025984	0.009235	0.093609	1.000000	0.000029	0.000037	0.000044	-18.632138	-86.406750	16.263899
03477	9.888528	-0.188200	0.563086	0.024460	0.008533	0.093614	1.000000	0.000016	0.000026	0.000014	-18.616322	-86.413065	16.249031
03478	9.918332	-0.204660	0.557105	0.032129	-0.007256	0.123332	1.000000	0.000026	0.000035	0.000029	-18.645551	-86.408449	16.281224
03479	9.888432	-0.189216	0.564439	0.022972	0.008048	0.093618	1.000000	0.000037	0.000039	0.000036	-18.675951	-86.411778	16.311843
03480	9.891233	-0.176149	0.545128	0.043687	0.020805	0.095003	1.000000	0.000028	0.000040	0.000017	-18.680136	-86.407090	16.319145
03481	9.884698	-0.156653	0.558469	0.030915	0.040539	0.088882	1.000000	0.000031	0.000042	0.000031	-18.671772	-86.406276	16.313726
03482	9.900473	-0.183449	0.514057	0.075758	0.012649	0.102521	1.000000	0.000027	0.000030	0.000020	-18.688218	-86.402587	16.333262
03483	9.891097	-0.177435	0.547165	0.041169	0.019725	0.095016	1.000000	0.000040	0.000018	0.000021	-18.711770	-86.410459	16.358122
03484	9.887444	-0.144308	0.540099	0.049810	0.052806	0.090282	1.000000	0.000009	0.000035	0.000018	-18.724204	-86.406432	16.371516
03485	9.888141	-0.191942	0.568587	0.019345	0.006485	0.093627	1.000000	0.000035	0.000044	0.000045	-18.754277	-86.406266	16.402458
03486	9.917190	-0.161504	0.534998	0.056459	0.036515	0.120009	1.000000	0.000029	0.000025	0.000011	-18.758327	-86.403553	16.409716
03487	9.914282	-0.175420	0.555711	0.034783	0.023270	0.118618	1.000000	0.000026	0.000035	0.000030	-18.765625	-86.404471	16.417018
03488	9.914237	-0.175965	0.556342	0.034707	0.023283	0.118618	1.000000	0.000020	0.000028	0.000028	-18.798560	-86.400813	16.452154
03489	9.893708	-0.166789	0.530839	0.059080	0.030835	0.096431	1.000000	0.000033	0.000027	0.000025	-18.783316	-86.402333	16.441949
03490	9.881436	-0.174437	0.584181	0.005396	0.025681	0.087504	1.000000	0.000026	0.000035	0.000030	-18.813716	-86.397847	16.475238
03491	9.907619	-0.157633	0.570796	0.021085	0.042482	0.112499	1.000000	0.000019	0.000043	0.000034	-18.822307	-86.396652	16.482715
03492	9.907563	-0.158340	0.571585	0.021012	0.042496	0.112499	1.000000	0.000042	0.000035	0.000041	-18.870576	-86.391683	16.535799
03493	9.884147	-0.162769	0.566410	0.023921	0.037398	0.088914	1.000000	0.000015	0.000042	0.000019	-18.865475	-86.395538	16.531186
03494	9.910349	-0.145683	0.552924	0.040243	0.054676	0.113912	1.000000	0.000016	0.000026	0.000014	-18.875270	-86.392623	16.542697
03495	9.893427	-0.169945	0.535060	0.055483	0.029434	0.096456	1.000000	0.000031	0.000032	0.000035	-18.910024	-86.395157	16.575235
03496	9.916741	-0.166643	0.541713	0.051021	0.033972	0.120047	1.000000	0.000020	0.000038	0.000024	-18.931243	-86.390554	16.598631
03497	9.877486	-0.144607	0.581581	0.009227	0.056906	0.082794	1.000000	0.000038	0.000034	0.000027	-18.946813	-86.393882	16.614461
03498	9.860564	-0.168960	0.563650	0.025551	0.032079	0.065333	1.000000	0.000019	0.000017	0.000032	-18.993183	-86.391332	16.662926
03499	9.942878	-0.150867	0.529205	0.064968	0.050412	0.145068	1.000000	0.000038	0.000023	0.000030	-19.023834	-86.394198	16.691308
03500	9.890329	-0.186020	0.558087	0.032059	0.015926	0.095057	1.000000	0.000035	0.000032	0.000013	-19.027502	-86.390789	16.698709
03501	9.860448	-0.170429	0.565235	0.022700	0.031260	0.065343	1.000000	0.000024	0.000030	0.000042	-19.083408	-86.396289	16.754053
03502	9.913606	-0.183433	0.565104	0.025861	0.019992	0.118652	1.000000	0.000025	0.000014	0.000037	-19.141008	-86.394005	16.814315
03503	9.952102	-0.159560	0.498826	0.094273	0.042028	0.152651	1.000000	0.000026	0.000045	0.000026	-19.168092	-86.397520	16.838455
03504	9.867817	-0.142043	0.618111	-0.028373	0.063429	0.075246	1.000000	0.000026	0.000035	0.000030	-19.201583	-86.393292	16.874620
03505	9.836903	-0.176704	0.561765	0.023226	0.025612	0.041767	1.000000	0.000044	0.000030	0.000032	-19.212702	-86.401658	16.896066
03506	9.965946	-0.151122	0.539458	0.054720	0.053355	0.168700	1.000000	-0.000026	0.000030	0.000044	-19.280150	-86.397574	16.960334
03507	9.932116	-0.199520	0.503390	0.086061	0.002936	0.133805	1.000000	0.000061	0.000052	0.000036	-19.282091	-86.400279	16.970893
03508	9.833831	-0.192236	0.584015	0.000624	0.012217	0.040338	1.000000	-0.000016	0.000022	0.000018	-19.307977	-86.398119	16.994772
03509	9.892805	-0.178018	0.543864	0.043472	0.025823	0.096526	1.000000	0.000061	0.000041	0.000040	-19.349069	-86.404047	17.042162
03510	9.924876	-0.134192	0.490041	0.101226	0.068568	0.124434	1.000000	-0.000034	0.000016	0.000019	-19.383202	-86.402571	17.072150
03511	9.922548	-0.195160	0.538628	0.049585	0.009442	0.126257	1.000000	0.000069	0.000054	0.000029	-19.377070	-86.404092	17.073081
03512	9.840098	-0.214328	0.574272	0.009008	-0.009199	0.046475	1.000000	-0.000006	0.000031	0.000033	-19.424437	-86.400530	17.119590
03513	9.913045	-0.189848	0.572772	0.015314	0.016158	0.118681	1.000000	0.000057	0.000039	0.000026	-19.391484	-86.403851	17.100238
03514	9.901963	-0.187129	0.514750	0.073113	0.016808	0.104128	1.000000	-0.000017	0.000027	0.000027	-19.430676	-86.400998	17.137334
03515	9.856837	-0.192005	0.594699	-0.010989	0.014429	0.063923	1.000000	0.000046	0.000036	0.000019	-19.465670	-86.408723	17.173057
03516	9.925230	-0.184352	0.522095	0.066370	0.021003	0.127730	1.000000	0.000016	0.000038	0.000047	-19.528879	-86.404019	17.238064
03517	9.832762	-0.150027	0.562447	0.021208	0.055282	0.037112	1.000000	0.000041	0.000039	0.000014	-19.525230	-86.408550	17.237950
03518	9.922211	-0.198818	0.543469	0.043827	0.007819	0.126285	1.000000	-0.000011	0.000008	0.000026	-19.575205	-86.407918	17.286566
03519	9.885880	-0.163163	0.562879	0.022621	0.043270	0.090428	1.000000	0.000070	0.000038	0.000023	-19.562930	-86.412811	17.286191
03520	9.908175	-0.210161	0.506105	0.079254	-0.004982	0.110313	1.000000	0.000005	0.000034	0.000040	-19.618654	-86.408887	17.342445
03521	9.902675	-0.140494	0.582635	0.004727	0.068007	0.107873	1.000000	0.000058	0.000024	0.000020	-19.654683	-86.412405	17.376810
03522	9.941872	-0.163579	0.544118	0.044890	0.044595	0.145206	1.000000	0.000007	0.000029	0.000031	-19.697985	-86.409395	17.420745
03523	9.912005	-0.148027	0.551188	0.035487	0.059841	0.115491	1.000000	0.000044	0.000030	0.000032	-19.727513	-86.415877	17.456803
03524	9.924897	-0.188450	0.526934	0.059280	0.019189	0.127779	1.000000	0.000009	0.000035	0.000018	-19.745361	-86.412853	17.475493
03525	9.890128	-0.149635	0.637912	-0.052377	0.062188	0.098788	1.000000	0.000035	0.000044	0.000045	-19.812896	-86.413368	17.539388
03526	9.921281	-0.156234	0.520683	0.066548	0.052120	0.123117	1.000000	0.000027	0.000020	0.000024	-19.848856	-86.411768	17.578215
03527	9.911825	-0.150333	0.553789	0.032076	0.059437	0.115505	1.000000	0.000018	0.000033	0.000037	-19.912409	-86.416530	17.638747
03528	9.891937	-0.188229	0.556077	0.027470	0.021895	0.096593	1.000000	0.000033	0.000027	0.000025	-19.946522	-86.414167	17.676364
03529	9.888386	-0.155158	0.549008	0.036715	0.054471	0.091925	1.000000	0.000009	0.000035	0.000018	-19.897468	-86.407832	17.625695
03530	9.921122	-0.158245	0.523112	0.064817	0.051392	0.123132	1.000000	0.000039	0.000034	0.000027	-19.928531	-86.404552	17.660928
03531	9.888290	-0.156226	0.550443	0.034865	0.054508	0.091932	1.000000	0.000011	0.000041	0.000042	-20.019566	-86.407277	17.742433
03532	9.894715	-0.176666	0.538582	0.046606	0.034204	0.098081	1.000000	0.000036	0.000017	0.000007	-20.028226	-86.406666	17.754837
03533	9.888206	-0.157226	0.551654	0.034370	0.054209	0.091935	1.000000	0.000009	0.000046	0.000051	-20.062122	-86.401460	17.784448
03534	9.901084	-0.197827	0.527498	0.058128	0.013562	0.104232	1.000000	0.000016	0.000026	0.000014	-20.078796	-86.399486	17.802568
03535	9.871220	-0.182237	0.534578	0.049770	0.029246	0.074508	1.000000	0.000017	0.000038	0.000047	-20.142473	-86.398168	17.860037
03536	9.917876	-0.175336	0.547314	0.040619	0.038303	0.121669	1.000000	0.000026	0.000035	0.000030	-20.180028	-86.394618	17.900136
03537	9.888009	-0.159754	0.554460	0.031699	0.053829	0.091946	1.000000	0.000013	0.000036	0.000032	-20.222215	-86.397487	17.939666
03538	9.897400	-0.166866	0.522562	0.064218	0.046248	0.099587	1.000000	0.000044	0.000030	0.000032	-20.265020	-86.394382	17.987101
03539	9.887914	-0.160882	0.555820	0.029556	0.053742	0.091953	1.000000	0.000020	0.000038	0.000025	-20.322779	-86.399888	18.040237
03540	9.944012	-0.160423	0.536025	0.053159	0.055171	0.146759	1.000000	0.000029	0.000037	0.000044	-20.384407	-86.395684	18.104819
03541	9.864463	-0.165889	0.551191	0.031526	0.049164	0.068383	1.000000	0.000016	0.000026	0.000014	-20.442517	-86.404723	18.157950
03542	9.917583	-0.178662	0.551532	0.034307	0.037883	0.121695	1.000000	0.000050	0.000048	0.000030	-20.471613	-86.399956	18.192285
03543	9.911068	-0.159189	0.564767	0.021585	0.057371	0.115546	1.000000	0.000001	0.000033	0.000026	-20.439096	-86.400927	18.165082
03544	9.890658	-0.150019	0.539280	0.046523	0.065635	0.093471	1.000000	0.000039	0.000034	0.000027	-20.472887	-86.397816	18.202826
03545	9.884632	-0.177438	0.580206	0.004506	0.039517	0.090469	1.000000	0.000014	0.000031	0.000023	-20.442230	-86.397172	18.175219
03546	9.917389	-0.180843	0.554313	0.032530	0.036432	0.121706	1.000000	0.000035	0.000033	0.000049	-20.513952	-86.393206	18.250568
03547	9.887522	-0.165379	0.561447	0.021410	0.051686	0.091985	1.000000	0.000007	0.000040	0.000027	-20.586262	-86.408771	18.326887
03548	9.893928	-0.186031	0.549779	0.033069	0.031385	0.098144	1.000000	0.000042	0.000035	0.000041	-20.643471	-86.405080	18.388578
03549	9.887424	-0.166576	0.562830	0.019789	0.051252	0.091991	1.000000	0.000003	0.000028	0.000017	-20.648716	-86.409403	18.392903
03550	9.893841	-0.187114	0.550973	0.031440	0.030950	0.098151	1.000000	0.000036	0.000028	0.000040	-20.708712	-86.406564	18.456712
03551	9.926615	-0.190352	0.524993	0.060092	0.027473	0.129403	1.000000	0.000016	0.000026	0.000014	-20.674640	-86.401862	18.418906
03552	9.893764	-0.188059	0.552035	0.031447	0.030668	0.098152	1.000000	0.000025	0.000025	0.000033	-20.726767	-86.399612	18.473514
03553	9.920083	-0.171377	0.538450	0.045395	0.047261	0.123260	1.000000	0.000020	0.000028	0.000028	-20.769892	-86.409650	18.521442
03554	9.887226	-0.169135	0.565526	0.016740	0.050455	0.092001	1.000000	0.000033	0.000027	0.000025	-20.806994	-86.407598	18.561881
03555	9.920001	-0.172350	0.539657	0.043785	0.046694	0.123270	1.000000	0.000020	0.000038	0.000025	-20.804725	-86.410517	18.563148
03556	9.910487	-0.166272	0.572863	0.010645	0.054382	0.115580	1.000000	0.000033	0.000027	0.000025	-20.841826	-86.408505	18.603608
03557	9.863740	-0.174372	0.561422	0.018205	0.044769	0.068438	1.000000	0.000026	0.000035	0.000030	-20.853662	-86.412457	18.620019
03558	9.910393	-0.167311	0.574178	0.008864	0.053801	0.115585	1.000000	0.000039	0.000034	0.000027	-20.888081	-86.409666	18.658488
03559	9.896474	-0.178216	0.536186	0.044203	0.041590	0.099717	1.000000	0.000025	0.000025	0.000033	-20.977912	-86.416446	18.743446
03560	9.916759	-0.188399	0.562987	0.018542	0.033425	0.121753	1.000000	0.000033	0.000037	0.000022	-21.002853	-86.413561	18.771752
03561	9.892957	-0.145647	0.529739	0.052676	0.073876	0.095097	1.000000	0.000027	0.000030	0.000020	-20.939895	-86.410699	18.716022
03562	9.907191	-0.182599	0.596817	-0.014552	0.040283	0.114051	1.000000	0.000027	0.000030	0.000020	-20.966867	-86.408599	18.745733
03563	9.889849	-0.159944	0.551141	0.029414	0.060450	0.093570	1.000000	0.000026	0.000035	0.000030	-20.987382	-86.416627	18.773667
03564	9.889803	-0.160397	0.551838	0.029027	0.060489	0.093571	1.000000	0.000009	0.000035	0.000018	-21.009390	-86.414212	18.796345
03565	9.889747	-0.160907	0.552688	0.027450	0.060119	0.093578	1.000000	0.000025	0.000051	0.000035	-21.049117	-86.416734	18.835593
03566	9.896152	-0.181486	0.540997	0.039038	0.039805	0.099746	1.000000	0.000027	0.000020	0.000024	-21.089616	-86.415754	18.878830
03567	9.913004	-0.158277	0.560036	0.020790	0.064433	0.117155	1.000000	0.000024	0.000040	0.000039	-21.161533	-86.419936	18.948208
03568	9.896059	-0.182676	0.542313	0.036872	0.039630	0.099755	1.000000	0.000014	0.000031	0.000023	-21.194717	-86.417779	18.982663
03569	9.889561	-0.163202	0.555336	0.022986	0.059600	0.093592	1.000000	0.000031	0.000032	0.000035	-21.253772	-86.424163	19.042873
03570	9.912858	-0.160121	0.562106	0.018050	0.064134	0.117162	1.000000	0.000024	0.000040	0.000039	-21.307564	-86.420476	19.099077
03571	9.892502	-0.151108	0.536660	0.041516	0.072130	0.095163	1.000000	0.000026	0.000035	0.000030	-21.369504	-86.426024	19.158624
03572	9.895862	-0.185126	0.545055	0.032270	0.039114	0.099773	1.000000	0.000020	0.000028	0.000028	-21.414001	-86.424136	19.204998
03573	9.912717	-0.161966	0.564062	0.014308	0.063174	0.117174	1.000000	0.000036	0.000028	0.000040	-21.434416	-86.428961	19.233926
03574	9.898816	-0.173135	0.526201	0.051154	0.051077	0.101353	1.000000	0.000035	0.000044	0.000046	-21.496077	-86.424698	19.299319
03575	9.903107	-0.156697	0.598059	-0.019950	0.069887	0.109433	1.000000	0.000011	0.000030	0.000009	-21.435556	-86.428733	19.247272
03576	9.905177	-0.194089	0.515175	0.061639	0.029782	0.107541	1.000000	0.000031	0.000032	0.000035	-21.486997	-86.426249	19.301993
03577	9.889173	-0.168156	0.560735	0.016538	0.057014	0.093620	1.000000	0.000018	0.000033	0.000037	-21.469273	-86.424561	19.289698
03578	9.898633	-0.175391	0.528888	0.048860	0.049399	0.101373	1.000000	0.000026	0.000035	0.000030	-21.509878	-86.421915	19.332978
03579	9.898589	-0.175894	0.529554	0.046975	0.049032	0.101384	1.000000	0.000014	0.000031	0.000023	-21.553102	-86.428648	19.374952
03580	9.865690	-0.173521	0.556602	0.018294	0.052233	0.070059	1.000000	0.000033	0.000027	0.000026	-21.591882	-86.427136	19.417199
03581	9.918787	-0.186533	0.556978	0.020794	0.040637	0.123371	1.000000	0.000026	0.000035	0.000030	-21.611286	-86.424730	19.433165
03582	9.892004	-0.157545	0.543924	0.033693	0.069256	0.095213	1.000000	0.000035	0.000044	0.000046	-21.672414	-86.420510	19.498076
03583	9.888885	-0.171537	0.564783	0.011974	0.055985	0.093633	1.000000	0.000016	0.000026	0.000014	-21.655642	-86.423302	19.483165
03584	9.888838	-0.171957	0.565470	0.011521	0.056019	0.093633	1.000000	0.000032	0.000042	0.000031	-21.693774	-86.419879	19.524615
03585	9.928103	-0.195402	0.527355	0.050556	0.031934	0.131152	1.000000	0.000020	0.000028	0.000028	-21.708340	-86.423072	19.541282
03586	9.905644	-0.149309	0.585211	-0.006603	0.080344	0.111024	1.000000	0.000031	0.000032	0.000035	-21.759690	-86.420640	19.595928
03587	9.895143	-0.193700	0.555043	0.021970	0.034921	0.099817	1.000000	0.000014	0.000031	0.000023	-21.754354	-86.416231	19.586101
03588	9.891737	-0.160722	0.547844	0.030340	0.068022	0.095233	1.000000	0.000020	0.000028	0.000028	-21.798135	-86.414427	19.631843
03589	9.915314	-0.204274	0.582560	-0.003743	0.026169	0.121791	1.000000	0.000028	0.000041	0.000017	-21.744548	-86.410074	19.580769
03590	9.894738	-0.148096	0.528977	0.050755	0.080194	0.096833	1.000000	0.000027	0.000020	0.000024	-21.785742	-86.409311	19.624733
03591	9.894961	-0.195674	0.557585	0.018715	0.034270	0.099826	1.000000	0.000022	0.000045	0.000048	-21.897429	-86.416067	19.733535
03592	9.891548	-0.162954	0.550589	0.027081	0.067372	0.095247	1.000000	0.000026	0.000035	0.000030	-21.938630	-86.413481	19.777349
03593	9.891501	-0.163562	0.551260	0.024499	0.067055	0.095255	1.000000	0.000031	0.000032	0.000035	-22.026883	-86.423389	19.865966
03594	9.891453	-0.164171	0.551932	0.024022	0.067094	0.095256	1.000000	0.000026	0.000035	0.000030	-22.068741	-86.420892	19.910427
03595	9.888304	-0.178207	0.572835	0.002291	0.054041	0.093650	1.000000	0.000037	0.000039	0.000036	-22.098725	-86.421040	19.941130
03596	9.880649	-0.162276	0.494653	0.080702	0.067328	0.081109	1.000000	0.000009	0.000035	0.000018	-22.122931	-86.419093	19.965982
03597	9.888204	-0.179140	0.574260	0.000351	0.054085	0.093650	1.000000	0.000039	0.000034	0.000027	-22.188652	-86.422330	20.027424
03598	9.937955	-0.158695	0.566814	0.011526	0.075780	0.142389	1.000000	0.000027	0.000020	0.000024	-22.232076	-86.421763	20.073527
03599	9.867877	-0.170553	0.549221	0.024300	0.062333	0.071707	1.000000	0.000030	0.000047	0.000041	-22.294265	-86.420067	20.130152
03600	9.914507	-0.163688	0.562216	0.014677	0.071340	0.118829	1.000000	0.000039	0.000034	0.000027	-22.332045	-86.417857	20.171910
03601	9.891121	-0.167919	0.556736	0.017464	0.067007	0.095271	1.000000	0.000033	0.000027	0.000026	-22.424270	-86.423375	20.257151
03602	9.911308	-0.178095	0.583617	-0.008402	0.058855	0.117208	1.000000	0.000026	0.000035	0.000030	-22.467831	-86.420940	20.303163
03603	9.884588	-0.148857	0.570424	0.003995	0.087039	0.089082	1.000000	0.000033	0.000037	0.000022	-22.474454	-86.422434	20.310871
03604	9.917442	-0.152234	0.544670	0.031657	0.083886	0.120462	1.000000	0.000020	0.000028	0.000028	-22.521158	-86.420834	20.359351
03605	9.907843	-0.146224	0.577742	-0.002500	0.091193	0.112644	1.000000	0.000036	0.000028	0.000040	-22.577854	-86.424566	20.417470
03606	9.897323	-0.190896	0.547702	0.025452	0.046019	0.101477	1.000000	0.000035	0.000044	0.000046	-22.641325	-86.420543	20.484528
03607	9.910858	-0.134286	0.559057	0.015729	0.103729	0.114280	1.000000	0.000014	0.000031	0.000023	-22.706935	-86.427837	20.546690
03608	9.917252	-0.154900	0.547359	0.027146	0.083410	0.120479	1.000000	0.000031	0.000032	0.000035	-22.761721	-86.425631	20.604533
03609	9.900305	-0.179220	0.529550	0.042874	0.057947	0.103128	1.000000	0.000027	0.000030	0.000021	-22.745064	-86.427077	20.591223
03610	9.890696	-0.173069	0.562671	0.009620	0.065695	0.095290	1.000000	0.000031	0.000032	0.000035	-22.799712	-86.424877	20.648940
03611	9.913992	-0.169963	0.569389	0.004224	0.069227	0.118854	1.000000	0.000007	0.000029	0.000031	-22.773968	-86.426658	20.629672
03612	9.870401	-0.164577	0.537570	0.033682	0.073006	0.073385	1.000000	0.000033	0.000027	0.000026	-22.815952	-86.425421	20.674930
03613	9.923478	-0.177789	0.538016	0.036445	0.060994	0.126701	1.000000	0.000036	0.000028	0.000040	-22.807562	-86.421748	20.670014
03614	9.887372	-0.189046	0.585305	-0.013007	0.051576	0.093655	1.000000	0.000035	0.000044	0.000046	-22.870537	-86.417764	20.736619
03615	9.940283	-0.155412	0.557855	0.018700	0.085866	0.144062	1.000000	0.000021	0.000023	0.000019	-22.905223	-86.418354	20.764577
03616	9.899995	-0.183404	0.533899	0.039305	0.056587	0.103151	1.000000	0.000026	0.000035	0.000030	-22.948924	-86.415998	20.810723
03617	9.890367	-0.177388	0.567103	0.005868	0.063708	0.095306	1.000000	0.000042	0.000036	0.000042	-22.961981	-86.415402	20.828362
03618	9.916805	-0.160931	0.553684	0.021550	0.080912	0.120513	1.000000	0.000020	0.000028	0.000028	-23.008668	-86.413867	20.876831
03619	9.890267	-0.178686	0.568428	0.002704	0.063732	0.095307	1.000000	0.000024	0.000040	0.000039	-23.129333	-86.422332	20.992737
03620	9.893375	-0.165632	0.548892	0.022970	0.076461	0.096965	1.000000	0.000025	0.000023	-0.000003	-23.126729	-86.422780	20.992403
03621	9.899771	-0.185945	0.537168	0.033925	0.055834	0.103175	1.000000	0.000026	0.000035	0.000030	-23.160143	-86.423503	21.023499
03622	9.902869	-0.173281	0.517789	0.054189	0.068562	0.104838	1.000000	0.000035	0.000044	0.000046	-23.224036	-86.419577	21.090938
03623	9.893235	-0.167274	0.550926	0.020805	0.075687	0.096976	1.000000	0.000014	0.000021	0.000027	-23.223997	-86.420940	21.092194
03624	9.873015	-0.158203	0.525158	0.045682	0.083939	0.075089	1.000000	0.000031	0.000032	0.000035	-23.278756	-86.418785	21.149999
03625	9.893142	-0.168435	0.552234	0.019487	0.075320	0.096982	1.000000	0.000026	0.000046	0.000026	-23.276946	-86.417900	21.148454
03626	9.922862	-0.185279	0.546782	0.026256	0.059464	0.126742	1.000000	0.000033	0.000027	0.000026	-23.319545	-86.416700	21.194258
03627	9.889888	-0.182796	0.573691	-0.004753	0.061995	0.095317	1.000000	0.000020	0.000028	0.000028	-23.381187	-86.429661	21.261461
03628	9.942850	-0.149305	0.546242	0.027047	0.096336	0.145773	1.000000	0.000029	0.000037	0.000044	-23.448498	-86.426640	21.331674
03629	9.886524	-0.150730	0.567189	0.002353	0.094541	0.090789	1.000000	0.000026	0.000035	0.000030	-23.463035	-86.429366	21.348831
03630	9.916243	-0.167759	0.561660	0.009085	0.078679	0.120551	1.000000	0.000036	0.000028	0.000040	-23.528678	-86.427443	21.418185
03631	9.892857	-0.172084	0.556203	0.011863	0.074172	0.097002	1.000000	0.000020	0.000039	0.000025	-23.600507	-86.432370	21.484151
03632	9.895984	-0.159279	0.536729	0.032098	0.086894	0.098688	1.000000	0.000031	0.000032	0.000035	-23.656254	-86.430358	21.542937
03633	9.892759	-0.173256	0.557584	0.010405	0.073670	0.097008	1.000000	0.000026	0.000035	0.000030	-23.660162	-86.431278	21.548866
03634	9.925653	-0.176787	0.531985	0.037912	0.070476	0.128462	1.000000	0.000020	0.000039	0.000025	-23.694903	-86.429036	21.585378
03635	9.886226	-0.154159	0.571456	-0.002821	0.093721	0.090797	1.000000	0.000026	0.000046	0.000026	-23.694906	-86.427895	21.584662
03636	9.886169	-0.154792	0.572271	-0.003390	0.093773	0.090796	1.000000	0.000042	0.000036	0.000042	-23.757702	-86.425193	21.651804
03637	9.892570	-0.175289	0.560298	0.007624	0.073143	0.097014	1.000000	0.000018	-0.000005	0.000002	-23.773372	-86.430944	21.663618
03638	9.895726	-0.162281	0.540578	0.027856	0.085861	0.098710	1.000000	0.000025	0.000051	0.000036	-23.816962	-86.426925	21.709460
03639	9.892477	-0.176342	0.561601	0.005769	0.072448	0.097021	1.000000	0.000018	0.000033	0.000038	-23.832909	-86.430208	21.730039
03640	9.915764	-0.173329	0.568398	0.000547	0.076967	0.120568	1.000000	0.000031	0.000032	0.000035	-23.888655	-86.428231	21.788826
03641	9.892383	-0.177551	0.562879	0.004519	0.071751	0.097026	1.000000	0.000027	0.000030	0.000021	-23.856151	-86.429332	21.761477
03642	9.892338	-0.178069	0.563503	0.003943	0.071799	0.097026	1.000000	0.000031	0.000032	0.000035	-23.911653	-86.427358	21.820039
03643	9.892298	-0.178621	0.564023	0.002759	0.071412	0.097029	1.000000	0.000027	0.000020	0.000024	-23.942369	-86.431399	21.850479
03644	9.909178	-0.155408	0.582866	-0.014375	0.096315	0.114357	1.000000	0.000031	0.000021	0.000039	-24.011882	-86.430373	21.923009
03645	9.918761	-0.162901	0.550907	0.017505	0.088361	0.122288	1.000000	0.000036	0.000029	0.000040	-24.063181	-86.430470	21.972362
03646	9.885743	-0.160562	0.578016	-0.011124	0.091672	0.090810	1.000000	0.000025	0.000051	0.000036	-24.106479	-86.426491	22.017925
03647	9.918654	-0.164089	0.552478	0.015954	0.088333	0.122291	1.000000	0.000016	0.000026	0.000014	-24.136162	-86.428486	22.040946
03648	9.895277	-0.168197	0.546943	0.020028	0.083918	0.098746	1.000000	0.000026	0.000035	0.000030	-24.181654	-86.426409	22.088800
03649	9.915350	-0.178365	0.574027	-0.005921	0.075129	0.120580	1.000000	0.000020	0.000039	0.000025	-24.157300	-86.425095	22.066089
03650	9.895178	-0.169230	0.548422	0.018962	0.083372	0.098753	1.000000	0.000026	0.000035	0.000030	-24.202580	-86.423011	22.113739
03651	9.908830	-0.159278	0.587706	-0.018783	0.095149	0.114360	1.000000	0.000014	0.000032	0.000023	-24.193240	-86.421628	22.102572
03652	9.918425	-0.166535	0.555847	0.013334	0.087462	0.122302	1.000000	0.000020	0.000028	0.000028	-24.241816	-86.420349	22.152840
03653	9.895048	-0.170874	0.550258	0.017185	0.082403	0.098764	1.000000	0.000037	0.000029	0.000040	-24.260708	-86.421131	22.175397
03654	9.915100	-0.181276	0.577419	-0.008868	0.074261	0.120585	1.000000	0.000012	0.000052	0.000038	-24.308508	-86.416874	22.223966
03655	9.888519	-0.152169	0.564085	0.004330	0.102409	0.092546	1.000000	0.000038	0.000023	0.000031	-24.314035	-86.416008	22.230650
03656	9.918226	-0.169113	0.558613	0.010971	0.086526	0.122313	1.000000	0.000020	0.000039	0.000025	-24.348440	-86.413791	22.266784
03657	9.901258	-0.193383	0.540961	0.026342	0.060938	0.105001	1.000000	0.000020	0.000039	0.000025	-24.337360	-86.416529	22.259613
03658	9.891558	-0.187121	0.574153	-0.006934	0.068726	0.097046	1.000000	0.000026	0.000035	0.000030	-24.382155	-86.414446	22.306790
03659	9.894750	-0.174245	0.554546	0.013776	0.080794	0.098782	1.000000	0.000021	0.000023	0.000019	-24.347173	-86.412929	22.273017
03660	9.904349	-0.181653	0.522844	0.045890	0.073096	0.106741	1.000000	0.000041	0.000051	0.000048	-24.407033	-86.408331	22.337081
03661	9.880958	-0.186066	0.517541	0.049275	0.068675	0.083203	1.000000	0.000026	0.000035	0.000030	-24.477478	-86.410100	22.400568
03662	9.884940	-0.169283	0.589149	-0.021364	0.088683	0.090820	1.000000	0.000040	0.000018	0.000022	-24.519688	-86.410170	22.446727
03663	9.894560	-0.176486	0.557207	0.010762	0.080671	0.098787	1.000000	0.000014	0.000032	0.000023	-24.530691	-86.409400	22.453478
03664	9.894518	-0.176898	0.557825	0.010180	0.080721	0.098787	1.000000	0.000027	0.000030	0.000021	-24.563815	-86.408271	22.489096
03665	9.904139	-0.184200	0.525935	0.042283	0.072540	0.106761	1.000000	0.000025	0.000025	0.000034	-24.582279	-86.408167	22.507055
03666	9.891267	-0.144475	0.551052	0.017949	0.113393	0.094306	1.000000	0.000033	0.000037	0.000022	-24.611864	-86.406218	22.539800
03667	9.920966	-0.161374	0.545704	0.024138	0.096721	0.124086	1.000000	0.000039	0.000034	0.000027	-24.600016	-86.408349	22.533836
03668	9.887926	-0.158768	0.572590	-0.004447	0.100064	0.092570	1.000000	0.000020	0.000028	0.000028	-24.648201	-86.407073	22.583689
03669	9.894294	-0.179446	0.560985	0.006418	0.079244	0.098802	1.000000	0.000026	0.000035	0.000030	-24.668540	-86.408317	22.603666
03670	9.897484	-0.166868	0.541726	0.026643	0.091936	0.100553	1.000000	0.000047	0.000058	0.000049	-24.724870	-86.402912	22.664821
03671	9.897426	-0.167491	0.542588	0.025788	0.091809	0.100557	1.000000	0.000003	0.000028	0.000017	-24.751273	-86.404123	22.683633
03672	9.897381	-0.167996	0.543257	0.025200	0.091858	0.100558	1.000000	0.000037	0.000039	0.000037	-24.803034	-86.401325	22.739011
03673	9.897334	-0.168529	0.543954	0.024199	0.091126	0.100567	1.000000	0.000027	0.000030	0.000021	-24.784276	-86.404163	22.724698
03674	9.900564	-0.155582	0.524288	0.044421	0.103815	0.102326	1.000000	0.000021	0.000023	0.000019	-24.820871	-86.403886	22.763107
03675	9.897262	-0.169265	0.545026	0.023334	0.090882	0.100571	1.000000	0.000027	0.000030	0.000021	-24.814447	-86.401893	22.753856
03676	9.897222	-0.169725	0.545612	0.022747	0.090930	0.100572	1.000000	0.000020	0.000028	0.000028	-24.862647	-86.400620	22.803689
03677	9.890768	-0.150239	0.558412	0.010130	0.110757	0.094347	1.000000	0.000037	0.000029	0.000040	-24.880794	-86.401033	22.824769
03678	9.893858	-0.184507	0.566988	0.000592	0.077758	0.098816	1.000000	0.000011	0.000031	0.000045	-24.955670	-86.398617	22.900282
03679	9.890669	-0.151799	0.559748	0.009241	0.110505	0.094351	1.000000	0.000032	0.000042	0.000032	-24.957528	-86.395000	22.899885
03680	9.897029	-0.172502	0.548230	0.020516	0.090144	0.100584	1.000000	0.000020	0.000028	0.000028	-25.005503	-86.393710	22.949481
03681	9.917028	-0.182794	0.575321	-0.005736	0.081667	0.122359	1.000000	0.000024	0.000040	0.000039	-25.037812	-86.392222	22.978964
03682	9.900208	-0.160454	0.529504	0.040014	0.102526	0.102358	1.000000	0.000020	0.000039	0.000025	-25.071805	-86.390011	23.014598
03683	9.920204	-0.170586	0.556641	0.014813	0.094022	0.124130	1.000000	0.000039	0.000034	0.000027	-25.047648	-86.384205	22.988770
03684	9.896832	-0.174765	0.551065	0.018936	0.089614	0.100592	1.000000	0.000020	0.000028	0.000028	-25.095369	-86.382878	23.038081
03685	9.890381	-0.155304	0.563865	0.005275	0.109572	0.094364	1.000000	0.000024	0.000030	0.000043	-25.167084	-86.388387	23.110045
03686	9.896746	-0.175988	0.552214	0.016540	0.089208	0.100600	1.000000	0.000016	0.000026	0.000014	-25.193113	-86.387974	23.137187
03687	9.906400	-0.183387	0.520430	0.048296	0.081237	0.108619	1.000000	0.000030	0.000037	0.000044	-25.252283	-86.387285	23.192465
03688	9.896644	-0.177309	0.553617	0.015038	0.089074	0.100604	1.000000	0.000037	0.000039	0.000037	-25.303554	-86.384455	23.247281
03689	9.896596	-0.177842	0.554315	0.015125	0.088709	0.100607	1.000000	0.000027	0.000030	0.000021	-25.277392	-86.380695	23.218750
03690	9.893443	-0.145012	0.546992	0.023516	0.121800	0.096150	1.000000	0.000030	0.000037	0.000044	-25.343469	-86.377667	23.287523
03691	9.922925	-0.208944	0.569861	0.000095	0.059827	0.128604	1.000000	0.000020	0.000028	0.000028	-25.364270	-86.378170	23.305517
03692	9.866718	-0.163214	0.562349	0.006079	0.104423	0.070837	1.000000	0.000032	0.000042	0.000032	-25.404847	-86.375211	23.348978
03693	9.916641	-0.143122	0.555050	0.016526	0.125630	0.119698	1.000000	0.000015	0.000005	0.000021	-25.440710	-86.379396	23.381404
03694	9.873045	-0.184495	0.551125	0.016397	0.083731	0.077081	1.000000	0.000035	0.000044	0.000046	-25.503136	-86.375549	23.447173
03695	9.922949	-0.164587	0.544179	0.026342	0.104645	0.125949	1.000000	0.000020	0.000039	0.000025	-25.511892	-86.379358	23.457675
03696	9.889864	-0.161872	0.571044	-0.002186	0.108040	0.094382	1.000000	0.000020	0.000028	0.000028	-25.559860	-86.378057	23.507173
03697	9.896219	-0.182580	0.559481	0.007880	0.087139	0.100629	1.000000	0.000026	0.000035	0.000030	-25.603052	-86.383466	23.550907
03698	9.892851	-0.196432	0.580403	-0.013540	0.074570	0.098832	1.000000	0.000026	0.000035	0.000030	-25.647549	-86.381380	23.597603
03699	9.896127	-0.183735	0.560725	0.006147	0.086709	0.100634	1.000000	0.000019	0.000018	0.000032	-25.685400	-86.385120	23.634768
03700	9.876078	-0.174693	0.534893	0.031105	0.094921	0.078903	1.000000	0.000032	0.000043	0.000032	-25.726231	-86.382231	23.678467
03701	9.889626	-0.164628	0.574359	-0.006855	0.106395	0.094398	1.000000	0.000028	0.000041	0.000017	-25.673959	-86.381993	23.630405
03702	9.916226	-0.148275	0.561081	0.008631	0.123509	0.119735	1.000000	0.000024	0.000030	0.000043	-25.743713	-86.379836	23.702166
03703	9.899256	-0.172628	0.543299	0.024609	0.097989	0.102455	1.000000	0.000022	0.000034	0.000016	-25.707726	-86.380231	23.667582
03704	9.886153	-0.179496	0.596578	-0.029468	0.093224	0.092593	1.000000	0.000031	0.000032	0.000035	-25.762264	-86.378250	23.724968
03705	9.896093	-0.140322	0.536691	0.032396	0.130713	0.098026	1.000000	0.000019	0.000044	0.000034	-25.774404	-86.376110	23.733876
03706	9.889372	-0.167534	0.577881	-0.009852	0.105530	0.094404	1.000000	0.000031	0.000032	0.000035	-25.828863	-86.374122	23.791170
03707	9.875737	-0.178658	0.539850	0.027197	0.093034	0.078933	1.000000	0.000020	0.000028	0.000029	-25.844441	-86.372214	23.801512
03708	9.899012	-0.175593	0.546794	0.021857	0.097529	0.102465	1.000000	0.000032	0.000043	0.000032	-25.884705	-86.369305	23.844628
03709	9.902300	-0.162901	0.527358	0.041439	0.110023	0.104286	1.000000	0.000026	0.000035	0.000030	-25.940301	-86.371081	23.894563
03710	9.872541	-0.146777	0.533920	0.033766	0.126048	0.074509	1.000000	0.000016	0.000027	0.000014	-25.966593	-86.370714	23.921861
03711	9.898871	-0.177223	0.548813	0.019772	0.096919	0.102476	1.000000	0.000022	0.000035	0.000052	-25.984672	-86.367022	23.939300
03712	9.892424	-0.157889	0.561666	0.007355	0.117394	0.096228	1.000000	0.000031	0.000032	0.000035	-26.039027	-86.365011	23.996439
03713	9.922096	-0.174957	0.556358	0.013309	0.101133	0.126012	1.000000	0.000027	0.000030	0.000021	-26.064096	-86.367449	24.018214
03714	9.875407	-0.182681	0.544531	0.022212	0.092281	0.078952	1.000000	0.000026	0.000035	0.000030	-26.108173	-86.365356	24.064421
03715	9.921996	-0.176095	0.557781	0.011603	0.101289	0.126012	1.000000	0.000024	0.000041	0.000039	-26.188302	-86.364856	24.135195
03716	9.892229	-0.160095	0.564462	0.003946	0.117321	0.096231	1.000000	0.000009	0.000035	0.000018	-26.215623	-86.363403	24.162660
03717	9.898565	-0.180786	0.553148	0.014980	0.096714	0.102486	1.000000	0.000025	0.000051	0.000036	-26.245363	-86.360901	24.186867
03718	9.892130	-0.161153	0.565885	0.002572	0.117201	0.096233	1.000000	0.000015	0.000006	0.000021	-26.300410	-86.362330	24.242758
03719	9.892096	-0.161778	0.566314	0.001981	0.116343	0.096243	1.000000	0.000030	0.000037	0.000045	-26.289813	-86.361389	24.236946
03720	9.918729	-0.145610	0.553073	0.017450	0.133437	0.121605	1.000000	0.000026	0.000035	0.000030	-26.333937	-86.359293	24.283150
03721	9.875063	-0.186847	0.549331	0.016600	0.090941	0.078976	1.000000	0.000026	0.000035	0.000030	-26.354945	-86.362601	24.304893
03722	9.898334	-0.183847	0.556264	0.011228	0.095438	0.102504	1.000000	0.000031	0.000032	0.000035	-26.409501	-86.360607	24.362163
03723	9.888530	-0.177465	0.589217	-0.021881	0.102949	0.094412	1.000000	0.000009	0.000025	0.000022	-26.414492	-86.360324	24.361526
03724	9.891857	-0.164811	0.569599	-0.001651	0.115589	0.096252	1.000000	0.000042	0.000036	0.000042	-26.475529	-86.357590	24.426571
03725	9.898192	-0.185702	0.558167	0.009527	0.094810	0.102511	1.000000	0.000013	0.000037	0.000033	-26.492800	-86.356268	24.438910
03726	9.895123	-0.153020	0.550913	0.017963	0.127887	0.098100	1.000000	0.000036	0.000044	0.000046	-26.554389	-86.352440	24.503689
03727	9.915013	-0.163149	0.578131	-0.008645	0.119533	0.119783	1.000000	0.000024	0.000029	0.000006	-26.559588	-86.355052	24.503749
03728	9.891656	-0.167045	0.572426	-0.004480	0.115134	0.096256	1.000000	0.000033	0.000027	0.000026	-26.603085	-86.354047	24.550070
03729	9.901385	-0.174555	0.540641	0.028020	0.106642	0.104370	1.000000	0.000031	0.000032	0.000035	-26.582976	-86.351161	24.530741
03730	9.901341	-0.175079	0.541269	0.027415	0.106691	0.104371	1.000000	0.000027	0.000030	0.000021	-26.615845	-86.350061	24.565798
03731	9.891524	-0.168550	0.574267	-0.004975	0.113898	0.096270	1.000000	0.000015	0.000032	0.000023	-26.563389	-86.345946	24.511880
03732	9.891474	-0.169165	0.574945	-0.005576	0.113945	0.096269	1.000000	0.000042	0.000036	0.000042	-26.623773	-86.343170	24.576232
03733	9.894814	-0.156597	0.555433	0.014527	0.126270	0.098126	1.000000	0.000026	0.000035	0.000030	-26.648209	-86.342572	24.595828
03734	9.891372	-0.170502	0.576307	-0.006916	0.113739	0.096271	1.000000	0.000037	0.000029	0.000040	-26.712428	-86.340603	24.663320
03735	9.891331	-0.171011	0.576862	-0.008306	0.113142	0.096277	1.000000	0.000016	0.000027	0.000014	-26.715275	-86.345950	24.665984
03736	9.901071	-0.178462	0.545089	0.023712	0.105319	0.104395	1.000000	0.000018	0.000033	0.000038	-26.773684	-86.343645	24.725555
03737	9.901025	-0.178970	0.545761	0.022728	0.104326	0.104408	1.000000	0.000022	0.000034	0.000016	-26.724126	-86.346941	24.681669
03738	9.911101	-0.182089	0.605403	-0.036128	0.104105	0.117945	1.000000	0.000032	0.000043	0.000032	-26.763641	-86.344033	24.723877
03739	9.894542	-0.159830	0.559344	0.009615	0.124670	0.098152	1.000000	0.000025	0.000025	0.000034	-26.811138	-86.344012	24.764670
03740	9.904293	-0.167386	0.527509	0.041627	0.116839	0.106281	1.000000	0.000020	0.000028	0.000029	-26.858480	-86.342723	24.813330
03741	9.894458	-0.160945	0.560505	0.007109	0.124235	0.098160	1.000000	0.000039	0.000034	0.000028	-26.903994	-86.349010	24.859762
03742	9.904204	-0.168611	0.528795	0.039113	0.116401	0.106296	1.000000	0.000011	0.000031	0.000046	-26.977288	-86.346543	24.933363
03743	9.897787	-0.148942	0.541425	0.026511	0.136327	0.100043	1.000000	0.000023	0.000018	0.000010	-26.964898	-86.349863	24.919369
03744	9.890917	-0.175783	0.582499	-0.015792	0.111230	0.096289	1.000000	0.000032	0.000043	0.000032	-27.004572	-86.346981	24.961695
03745	9.897697	-0.149955	0.542782	0.025452	0.135582	0.100056	1.000000	0.000031	0.000032	0.000035	-26.983547	-86.346136	24.943338
03746	9.894230	-0.163799	0.563693	0.003994	0.123054	0.098176	1.000000	0.000026	0.000035	0.000030	-27.026900	-86.344063	24.988674
03747	9.897607	-0.151049	0.544119	0.023884	0.134976	0.100068	1.000000	0.000027	0.000030	0.000021	-27.015995	-86.346503	24.978451
03748	9.917459	-0.161149	0.571231	-0.002379	0.126888	0.121706	1.000000	0.000020	0.000028	0.000029	-27.063233	-86.345251	25.026998
03749	9.877162	-0.189087	0.547165	0.017584	0.096570	0.080939	1.000000	0.000026	0.000035	0.000030	-27.052402	-86.349866	25.022185
03750	9.930599	-0.156041	0.519989	0.049040	0.130620	0.131761	1.000000	0.000026	0.000035	0.000030	-27.095615	-86.347827	25.067399
03751	9.897428	-0.153209	0.546765	0.020659	0.133870	0.100090	1.000000	0.000026	0.000035	0.000030	-27.119130	-86.346254	25.084261
03752	9.900327	-0.187256	0.555560	0.010955	0.100886	0.104464	1.000000	0.000031	0.000032	0.000035	-27.172721	-86.344280	25.140461
03753	9.897339	-0.154480	0.548017	0.018755	0.133384	0.100100	1.000000	0.000025	0.000025	0.000034	-27.210367	-86.348047	25.176984
03754	9.920614	-0.151492	0.554849	0.013320	0.137859	0.123621	1.000000	0.000020	0.000028	0.000029	-27.257605	-86.346824	25.225514
03755	9.903629	-0.175985	0.537093	0.029519	0.112168	0.106378	1.000000	0.000030	0.000037	0.000045	-27.243982	-86.344597	25.214173
03756	9.893755	-0.169708	0.570248	-0.003705	0.120100	0.098213	1.000000	0.000032	0.000043	0.000032	-27.282980	-86.341746	25.255816
03757	9.860567	-0.166862	0.597080	-0.032954	0.123352	0.066524	1.000000	0.000026	0.000035	0.000030	-27.339108	-86.344856	25.306176
03758	9.916965	-0.167378	0.577981	-0.010617	0.124359	0.121732	1.000000	0.000037	0.000029	0.000041	-27.403041	-86.342970	25.373325
03759	9.899976	-0.191788	0.560247	0.005387	0.098659	0.104491	1.000000	0.000021	0.000039	0.000025	-27.364826	-86.342664	25.336430
03760	9.916866	-0.168375	0.579388	-0.011810	0.123590	0.121741	1.000000	0.000022	0.000034	0.000016	-27.386643	-86.341583	25.359727
03761	9.903328	-0.179402	0.541499	0.025149	0.110436	0.106409	1.000000	0.000032	0.000043	0.000032	-27.349821	-86.340014	25.325387
03762	9.893450	-0.172957	0.574558	-0.008072	0.118375	0.098231	1.000000	0.000020	0.000028	0.000029	-27.396556	-86.338799	25.373403
03763	9.877004	-0.150755	0.528383	0.038638	0.138345	0.078545	1.000000	0.000018	0.000034	0.000038	-27.362083	-86.334209	25.337713
03764	9.923034	-0.191006	0.570084	-0.001587	0.101665	0.128024	1.000000	0.000043	0.000036	0.000042	-27.421176	-86.331494	25.400706
03765	9.896754	-0.161731	0.556415	0.011844	0.129444	0.100163	1.000000	0.000015	0.000042	0.000020	-27.369672	-86.330772	25.349649
03766	9.903075	-0.182430	0.545092	0.022972	0.109008	0.106430	1.000000	0.000026	0.000036	0.000030	-27.411830	-86.328728	25.393765
03767	9.879727	-0.186448	0.539294	0.026320	0.103907	0.082924	1.000000	0.000016	0.000016	0.000018	-27.427833	-86.335615	25.409185
03768	9.929785	-0.166605	0.532098	0.036883	0.125344	0.131882	1.000000	0.000025	0.000025	0.000034	-27.484439	-86.334472	25.467708
03769	9.906423	-0.170804	0.526533	0.040604	0.120116	0.108379	1.000000	0.000038	0.000050	0.000033	-27.470266	-86.335457	25.456889
03770	9.926210	-0.181022	0.553882	0.014290	0.112017	0.129971	1.000000	0.000020	0.000028	0.000029	-27.516417	-86.334256	25.504326
03771	9.896482	-0.164945	0.560307	0.006457	0.127368	0.100195	1.000000	0.000013	0.000037	0.000033	-27.516729	-86.335378	25.503323
03772	9.863272	-0.162180	0.587050	-0.021917	0.130885	0.068479	1.000000	0.000043	0.000036	0.000042	-27.575473	-86.332699	25.565970
03773	9.926064	-0.182693	0.555943	0.011939	0.110647	0.129989	1.000000	0.000031	0.000031	-0.000001	-27.518348	-86.335552	25.509462
03774	9.896340	-0.166179	0.562435	0.004420	0.126715	0.100205	1.000000	0.000015	0.000042	0.000020	-27.539566	-86.333417	25.531366
03775	9.896285	-0.166714	0.563251	0.004246	0.126006	0.100214	1.000000	0.000037	0.000039	0.000037	-27.510667	-86.330169	25.503389
03776	9.866559	-0.150670	0.569642	-0.003265	0.142074	0.070429	1.000000	0.000038	0.000024	0.000031	-27.562403	-86.329317	25.558515
03777	9.906059	-0.174913	0.531998	0.035473	0.117712	0.108427	1.000000	0.000027	0.000020	0.000025	-27.579714	-86.330883	25.571203
03778	9.899648	-0.155203	0.544708	0.023120	0.138206	0.102159	1.000000	0.000032	0.000043	0.000032	-27.617370	-86.328063	25.611469
03779	9.896106	-0.169099	0.565688	0.001767	0.124943	0.100228	1.000000	0.000024	0.000030	0.000043	-27.618861	-86.327131	25.612533
03780	9.905920	-0.176842	0.533947	0.033728	0.117030	0.108441	1.000000	0.000020	0.000028	0.000029	-27.664389	-86.325930	25.659318
03781	9.889639	-0.150127	0.579135	-0.012100	0.144522	0.093970	1.000000	0.000038	0.000050	0.000034	-27.656506	-86.329310	25.656335
03782	9.886008	-0.168371	0.508858	0.057294	0.124252	0.086894	1.000000	0.000014	0.000021	0.000027	-27.706058	-86.328943	25.706478
03783	9.872610	-0.174988	0.561919	0.003252	0.118928	0.076733	1.000000	0.000033	0.000027	0.000026	-27.686595	-86.329806	25.687554
03784	9.899374	-0.158866	0.548613	0.018625	0.135901	0.102201	1.000000	0.000018	0.000034	0.000038	-27.742585	-86.327607	25.744643
03785	9.899322	-0.159579	0.549344	0.017438	0.135291	0.102211	1.000000	0.000037	0.000039	0.000037	-27.761687	-86.329416	25.763582
03786	9.905638	-0.180444	0.537955	0.028530	0.114828	0.108483	1.000000	0.000020	0.000028	0.000029	-27.807045	-86.328249	25.810196
03787	9.928901	-0.177459	0.544940	0.022151	0.118525	0.132009	1.000000	0.000026	0.000036	0.000030	-27.823699	-86.332749	25.827265
03788	9.895677	-0.174584	0.571494	-0.006192	0.122065	0.100262	1.000000	0.000031	0.000022	0.000039	-27.889868	-86.331728	25.895956
03789	9.895630	-0.175142	0.572135	-0.007078	0.121646	0.100267	1.000000	0.000015	0.000042	0.000020	-27.885837	-86.332132	25.886013
03790	9.899093	-0.162542	0.552593	0.013148	0.134192	0.102233	1.000000	0.000037	0.000029	0.000041	-27.947912	-86.330301	25.951267
03791	9.899054	-0.163104	0.553118	0.013179	0.133437	0.102243	1.000000	0.000022	0.000023	0.000019	-27.894147	-86.328687	25.896334
03792	9.882068	-0.187441	0.535278	0.029132	0.108551	0.085004	1.000000	0.000018	0.000034	0.000038	-27.949841	-86.326504	25.953094
03793	9.898964	-0.164302	0.554379	0.011631	0.132817	0.102253	1.000000	0.000026	0.000036	0.000030	-27.950453	-86.327705	25.952073
03794	9.898914	-0.164825	0.555124	0.010999	0.132828	0.102254	1.000000	0.000021	0.000039	0.000025	-27.981051	-86.325679	25.983935
03795	9.895345	-0.178516	0.576011	-0.010545	0.119644	0.100288	1.000000	0.000038	0.000024	0.000031	-27.980389	-86.326867	25.982988
03796	9.898821	-0.165971	0.556434	0.009685	0.132180	0.102264	1.000000	0.000019	0.000044	0.000034	-28.021408	-86.323816	26.025098
03797	9.908654	-0.173683	0.524920	0.040687	0.123479	0.110530	1.000000	0.000026	0.000036	0.000030	-28.038736	-86.328638	26.042760
03798	9.898724	-0.167005	0.557853	0.007485	0.131449	0.102275	1.000000	0.000016	0.000027	0.000014	-28.062843	-86.328472	26.067609
03799	9.871840	-0.184190	0.572411	-0.009594	0.113768	0.076790	1.000000	0.000012	0.000039	0.000037	-28.070334	-86.330139	26.073547
03800	9.895091	-0.181277	0.579504	-0.015116	0.118185	0.100299	1.000000	0.000026	0.000034	0.000028	-28.107999	-86.328518	26.113147
03801	9.902113	-0.155570	0.539720	0.025825	0.142567	0.104285	1.000000	0.000025	0.000039	0.000037	-28.108155	-86.328390	26.111501
03802	9.898522	-0.169280	0.560747	0.004323	0.130051	0.102296	1.000000	0.000034	0.000037	0.000022	-28.133903	-86.326714	26.139973
03803	9.898471	-0.169846	0.561463	0.003662	0.129081	0.102309	1.000000	0.000031	0.000034	0.000038	-28.109998	-86.327125	26.119389
03804	9.898427	-0.170492	0.562041	0.003024	0.129084	0.102309	1.000000	0.000038	0.000023	0.000031	-28.160076	-86.326419	26.172796
03805	9.918131	-0.180671	0.589438	-0.024187	0.120304	0.123828	1.000000	0.000020	0.000053	0.000028	-28.161801	-86.328799	26.172596
03806	9.898320	-0.171696	0.563559	0.000932	0.128419	0.102318	1.000000	0.000018	0.000022	0.000039	-28.229154	-86.327776	26.240979
03807	9.878524	-0.162652	0.537523	0.026624	0.136201	0.080814	1.000000	0.000034	0.000037	0.000022	-28.206304	-86.324106	26.211059
03808	9.898226	-0.172780	0.564889	0.000222	0.128095	0.102322	1.000000	0.000013	0.000036	0.000031	-28.248924	-86.322107	26.254084
03809	9.868520	-0.156645	0.571217	-0.018580	0.011821	0.073567	1.000000	0.000019	0.000031	0.000033	-16.875182	-86.656225	14.354191
03810	9.905247	-0.147726	0.525643	0.029294	0.019299	0.107535	1.000000	0.000019	0.000031	0.000033	-16.881947	-86.656413	14.360197
03811	9.904432	-0.194896	0.554868	-0.001900	-0.026494	0.109153	1.000000	0.000032	0.000043	0.000032	-16.879344	-86.655403	14.353177
03812	9.878285	-0.165551	0.541028	0.011808	0.001803	0.081780	1.000000	0.000026	0.000034	0.000027	-16.873647	-86.655396	14.347521
03813	9.927634	-0.192460	0.562650	-0.008111	-0.023446	0.132709	1.000000	0.000032	0.000029	0.000029	-16.871241	-86.655557	14.344358
03814	9.901491	-0.163213	0.548787	0.005603	0.004851	0.105341	1.000000	0.000006	0.000047	0.000039	-16.881859	-86.653805	14.352671
03815	9.901442	-0.163877	0.549485	0.004932	0.004310	0.105341	1.000000	0.000038	0.000023	0.000031	-16.886527	-86.654758	14.357965
03816	9.901404	-0.164486	0.549977	0.004242	0.003770	0.105342	1.000000	0.000025	0.000025	0.000034	-16.898683	-86.655478	14.370056
03817	9.901367	-0.165031	0.550487	0.003533	0.003234	0.105342	1.000000	0.000021	0.000025	0.000023	-16.891668	-86.656647	14.359446
03818	9.878019	-0.169057	0.544783	0.007742	-0.001435	0.081784	1.000000	0.000032	0.000043	0.000032	-16.888198	-86.655566	14.356658
03819	9.897695	-0.179140	0.572152	-0.018813	-0.010114	0.103127	1.000000	0.000028	0.000029	0.000018	-16.867154	-86.656297	14.332491
03820	9.877925	-0.170182	0.546127	0.006390	-0.002514	0.081785	1.000000	-0.000003	0.000034	0.000051	-16.908054	-86.655468	14.370181
03821	9.911107	-0.174323	0.520964	0.033236	-0.007361	0.113575	1.000000	0.000050	0.000039	0.000003	-16.850786	-86.655831	14.317400
03822	9.901136	-0.167554	0.553864	0.000094	0.000535	0.105343	1.000000	0.000018	0.000022	0.000039	-16.875368	-86.656749	14.341118
03823	9.894740	-0.147948	0.566526	-0.012041	0.020703	0.099333	1.000000	0.000032	0.000043	0.000032	-16.871966	-86.655605	14.332376
03824	9.877737	-0.172342	0.548849	0.003631	-0.004666	0.081786	1.000000	0.000019	0.000031	0.000033	-16.878663	-86.655796	14.338317
03825	9.900988	-0.169394	0.555943	-0.001979	-0.001081	0.105343	1.000000	0.000021	0.000039	0.000026	-16.867907	-86.655328	14.329338
03826	9.894587	-0.149704	0.568740	-0.014121	0.019086	0.099333	1.000000	0.000025	0.000039	0.000037	-16.876847	-86.654445	14.338162
03827	9.900888	-0.170558	0.557376	-0.003332	-0.002166	0.105343	1.000000	0.000021	0.000025	0.000023	-16.867725	-86.655367	14.332402
03828	9.867601	-0.167422	0.583884	-0.031555	0.001626	0.073541	1.000000	0.000038	0.000037	0.000033	-16.869635	-86.654821	14.335690
03829	9.900790	-0.171637	0.558773	-0.004700	-0.003248	0.105342	1.000000	0.000021	0.000039	0.000026	-16.857953	-86.654218	14.325674
03830	9.920428	-0.181884	0.586302	-0.031302	-0.011927	0.126659	1.000000	0.000006	0.000047	0.000039	-16.868460	-86.652468	14.333880
03831	9.877387	-0.176326	0.553870	-0.001114	-0.008450	0.081784	1.000000	0.000040	0.000018	0.000021	-16.857038	-86.654139	14.327174
03832	9.904252	-0.160157	0.540531	0.014275	0.007380	0.107584	1.000000	0.000026	0.000034	0.000027	-16.851254	-86.654135	14.321435
03833	9.900599	-0.173789	0.561485	-0.007501	-0.005404	0.105339	1.000000	0.000026	0.000034	0.000027	-16.848620	-86.654616	14.321421
03834	9.880864	-0.164680	0.535485	0.017728	0.002197	0.084030	1.000000	0.000026	0.000034	0.000027	-16.842827	-86.654613	14.315675
03835	9.900500	-0.174748	0.562935	-0.008841	-0.006486	0.105337	1.000000	0.000028	0.000043	0.000021	-16.817912	-86.653661	14.290065
03836	9.900448	-0.175193	0.563704	-0.009532	-0.007026	0.105336	1.000000	0.000026	0.000034	0.000027	-16.812111	-86.653658	14.284311
03837	9.896787	-0.188832	0.584608	-0.031213	-0.019816	0.103081	1.000000	0.000032	0.000029	0.000029	-16.811503	-86.654147	14.286209
03838	9.913929	-0.170442	0.512542	0.042530	-0.004327	0.115853	1.000000	0.000006	0.000047	0.000039	-16.821976	-86.652399	14.294383
03839	9.880619	-0.167395	0.539144	0.014312	-0.000504	0.084036	1.000000	0.000032	0.000029	0.000029	-16.822198	-86.653042	14.301150
03840	9.903877	-0.164395	0.546105	0.008693	0.003062	0.107592	1.000000	0.000021	0.000025	0.000023	-16.814125	-86.654113	14.292485
03841	9.903835	-0.164978	0.546700	0.008007	0.002521	0.107593	1.000000	0.000031	0.000034	0.000038	-16.828225	-86.653743	14.311329
03842	9.876866	-0.182084	0.561238	-0.008748	-0.014370	0.081773	1.000000	0.000022	0.000034	0.000016	-16.802282	-86.654086	14.284903
03843	9.903735	-0.166086	0.548167	0.006642	0.001437	0.107594	1.000000	0.000023	0.000044	0.000046	-16.825191	-86.652246	14.311135
03844	9.907319	-0.153657	0.528536	0.026951	0.013141	0.109864	1.000000	0.000027	0.000020	0.000025	-16.822534	-86.653849	14.308579
03845	9.876723	-0.184009	0.563123	-0.010834	-0.015982	0.081768	1.000000	0.000030	0.000025	0.000045	-16.856216	-86.654417	14.342312
03846	9.899971	-0.181150	0.570161	-0.016463	-0.012422	0.105322	1.000000	0.000009	0.000036	0.000020	-16.837261	-86.654425	14.321381
03847	9.907199	-0.155355	0.530288	0.024870	0.011523	0.109872	1.000000	0.000040	0.000032	0.000024	-16.823977	-86.654629	14.308027
03848	9.886562	-0.192768	0.532788	0.019549	-0.026079	0.090043	1.000000	0.000019	0.000031	0.000033	-16.830560	-86.654824	14.313858
03849	9.907112	-0.156559	0.531563	0.023483	0.010442	0.109876	1.000000	0.000031	0.000034	0.000038	-16.845346	-86.654516	14.329467
03850	9.903419	-0.170263	0.552575	0.001792	-0.002337	0.107596	1.000000	0.000021	0.000039	0.000026	-16.834048	-86.653984	14.317526
03851	9.903377	-0.170683	0.553206	0.001131	-0.002879	0.107596	1.000000	0.000034	0.000023	0.000020	-16.818083	-86.655229	14.302713
03852	9.883682	-0.161683	0.527173	0.026392	0.004723	0.086328	1.000000	0.000023	0.000044	0.000046	-16.841563	-86.653475	14.325922
03853	9.899628	-0.184895	0.574901	-0.021213	-0.016192	0.105307	1.000000	0.000024	0.000029	0.000007	-16.799876	-86.654463	14.279944
03854	9.903232	-0.172154	0.555337	-0.000899	-0.004500	0.107596	1.000000	0.000032	0.000042	0.000031	-16.796243	-86.653392	14.277003
03855	9.883542	-0.163142	0.529350	0.024363	0.003103	0.086334	1.000000	0.000019	0.000031	0.000033	-16.803247	-86.653614	14.283934
03856	9.879837	-0.176892	0.550329	0.002669	-0.009667	0.084041	1.000000	0.000025	0.000039	0.000037	-16.812031	-86.652738	14.292608
03857	9.903075	-0.174014	0.557553	-0.002985	-0.006111	0.107594	1.000000	0.000021	0.000039	0.000026	-16.801602	-86.652250	14.278349
03858	9.906686	-0.161426	0.538004	0.017332	0.005574	0.109893	1.000000	0.000027	0.000034	0.000027	-16.795707	-86.652251	14.272506
03859	9.932604	-0.191875	0.553449	0.002085	-0.023835	0.137145	1.000000	0.000027	0.000034	0.000027	-16.790210	-86.652230	14.262793
03860	9.883301	-0.165972	0.532955	0.020914	0.000409	0.086342	1.000000	0.000038	0.000037	0.000033	-16.791980	-86.651692	14.265947
03861	9.879583	-0.179604	0.554004	-0.000765	-0.012351	0.084038	1.000000	0.000021	0.000039	0.000026	-16.780104	-86.651052	14.255195
03862	9.916122	-0.165760	0.599722	-0.043790	0.003796	0.122839	1.000000	0.000036	0.000018	0.000010	-16.750274	-86.653339	14.226430
03863	9.873175	-0.160164	0.566997	-0.013575	0.007316	0.078040	1.000000	0.000017	0.000027	0.000049	-16.790708	-86.653555	14.267870
03864	9.929712	-0.161356	0.548283	0.008217	0.006417	0.133454	1.000000	0.000018	0.000036	0.000042	-16.811876	-86.652876	14.288129
03865	9.873074	-0.161695	0.568319	-0.014980	0.006245	0.078038	1.000000	0.000027	0.000034	0.000027	-16.807195	-86.653030	14.285491
03866	9.906329	-0.166006	0.543160	0.011773	0.001260	0.109903	1.000000	0.000032	0.000029	0.000029	-16.806702	-86.653566	14.285743
03867	9.879323	-0.182987	0.557519	-0.004956	-0.015573	0.084033	1.000000	0.000034	0.000023	0.000020	-16.791539	-86.654959	14.273843
03868	9.896226	-0.159792	0.576708	-0.022011	0.008708	0.101588	1.000000	0.000011	0.000055	0.000043	-16.804040	-86.652145	14.284693
03869	9.882895	-0.171137	0.538816	0.014703	-0.004439	0.086353	1.000000	0.000021	0.000025	0.000023	-16.795172	-86.653076	14.275664
03870	9.906140	-0.168303	0.545886	0.009041	-0.000904	0.109906	1.000000	0.000018	0.000036	0.000042	-16.816302	-86.652398	14.295886
03871	9.899763	-0.148592	0.558513	-0.003083	0.019307	0.103912	1.000000	0.000040	0.000032	0.000024	-16.805049	-86.652961	14.290181
03872	9.902362	-0.182423	0.567434	-0.013394	-0.014189	0.107578	1.000000	0.000021	0.000025	0.000023	-16.796861	-86.654036	14.281405
03873	9.899681	-0.149604	0.559683	-0.004433	0.018223	0.103913	1.000000	0.000031	0.000034	0.000038	-16.809922	-86.653540	14.298652
03874	9.905960	-0.170595	0.548438	0.006267	-0.003064	0.109907	1.000000	0.000013	0.000036	0.000031	-16.810934	-86.653207	14.298225
03875	9.895891	-0.163951	0.581282	-0.026814	0.004935	0.101579	1.000000	0.000025	0.000025	0.000034	-16.822683	-86.653881	14.311056
03876	9.899545	-0.151465	0.561586	-0.006490	0.016603	0.103915	1.000000	0.000027	0.000034	0.000027	-16.816705	-86.653887	14.305134
03877	9.899496	-0.151963	0.562318	-0.007146	0.016059	0.103915	1.000000	0.000021	0.000039	0.000026	-16.804093	-86.653182	14.292741
03878	9.905767	-0.172995	0.551164	0.003548	-0.005231	0.109908	1.000000	0.000029	0.000039	0.000048	-16.832838	-86.651967	14.321912
03879	9.893070	-0.132952	0.575661	-0.019926	0.035735	0.097924	1.000000	0.000034	0.000023	0.000020	-16.818556	-86.653482	14.309519
03880	9.905681	-0.174058	0.552371	0.002148	-0.006308	0.109907	1.000000	0.000027	0.000034	0.000027	-16.812560	-86.653488	14.303580
03881	9.905634	-0.174570	0.553052	0.001468	-0.006852	0.109907	1.000000	0.000027	0.000034	0.000027	-16.805974	-86.653445	14.301177
03882	9.899263	-0.154742	0.565663	-0.010602	0.013360	0.103916	1.000000	0.000027	0.000034	0.000027	-16.799969	-86.653452	14.295229
03883	9.899206	-0.155382	0.566480	-0.011313	0.012824	0.103916	1.000000	0.000031	0.000048	0.000041	-16.811750	-86.651628	14.307722
03884	9.885908	-0.166812	0.528496	0.025385	-0.000331	0.088710	1.000000	0.000001	0.000024	0.000032	-16.822916	-86.652561	14.316007
03885	9.905432	-0.176984	0.555899	-0.001285	-0.009013	0.109906	1.000000	0.000021	0.000039	0.000026	-16.810459	-86.651858	14.300703
03886	9.875782	-0.160455	0.561956	-0.008350	0.007146	0.080365	1.000000	0.000047	0.000021	0.000016	-16.788284	-86.653612	14.280931
03887	9.899025	-0.157497	0.569046	-0.014055	0.010672	0.103915	1.000000	0.000025	0.000039	0.000037	-16.798073	-86.652841	14.286716
03888	9.905299	-0.178514	0.557770	-0.003377	-0.010627	0.109903	1.000000	0.000025	0.000025	0.000034	-16.809919	-86.653575	14.298509
03889	9.898934	-0.158747	0.570285	-0.015439	0.009594	0.103914	1.000000	0.000027	0.000034	0.000027	-16.804155	-86.653607	14.292896
03890	9.898885	-0.159362	0.570964	-0.016128	0.009055	0.103914	1.000000	0.000031	0.000034	0.000038	-16.818203	-86.653271	14.307534
03891	9.908878	-0.167413	0.539566	0.015587	-0.000062	0.112270	1.000000	0.000031	0.000048	0.000041	-16.828144	-86.651223	14.319286
03892	9.885548	-0.171572	0.533690	0.019902	-0.004656	0.088722	1.000000	0.000013	0.000013	0.000035	-16.850201	-86.653220	14.339844
03893	9.905058	-0.181768	0.561003	-0.006799	-0.013336	0.109898	1.000000	0.000021	0.000039	0.000026	-16.837933	-86.652614	14.329529
03894	9.902429	-0.148885	0.553299	0.002172	0.019074	0.106286	1.000000	0.000033	0.000029	0.000029	-16.837339	-86.653155	14.329685
03895	9.894914	-0.175409	0.594420	-0.040569	-0.005830	0.101532	1.000000	0.000034	0.000023	0.000020	-16.822690	-86.654611	14.314100
03896	9.902352	-0.149748	0.554452	0.000787	0.017997	0.106289	1.000000	0.000021	0.000039	0.000026	-16.811157	-86.654088	14.301936
03897	9.885337	-0.173972	0.536815	0.016490	-0.007359	0.088726	1.000000	0.000034	0.000037	0.000022	-16.791989	-86.653761	14.280873
03898	9.885291	-0.174483	0.537494	0.015801	-0.007899	0.088727	1.000000	0.000019	0.000031	0.000032	-16.798334	-86.653964	14.286475
03899	9.908521	-0.171767	0.544722	0.010147	-0.004400	0.112276	1.000000	0.000037	0.000042	0.000042	-16.812856	-86.652283	14.298918
03900	9.898403	-0.165045	0.577659	-0.022918	0.003655	0.103904	1.000000	0.000015	0.000031	0.000022	-16.799110	-86.652831	14.283898
03901	9.908429	-0.172844	0.546050	0.008802	-0.005488	0.112277	1.000000	0.000033	0.000029	0.000029	-16.797065	-86.653176	14.282895
03902	9.881344	-0.189858	0.560564	-0.007897	-0.022244	0.086336	1.000000	0.000032	0.000042	0.000031	-16.793170	-86.652117	14.279705
03903	9.925294	-0.150172	0.565934	-0.008962	0.018245	0.129842	1.000000	0.000027	0.000034	0.000027	-16.787657	-86.652229	14.277291
03904	9.891311	-0.198340	0.529862	0.023077	-0.031925	0.094712	1.000000	0.000025	0.000039	0.000037	-16.796166	-86.651364	14.285702
03905	9.898147	-0.167812	0.581246	-0.026331	0.000956	0.103896	1.000000	0.000021	0.000039	0.000026	-16.784235	-86.650747	14.270896
03906	9.908178	-0.175553	0.549730	0.005347	-0.008192	0.112277	1.000000	0.000028	0.000029	0.000018	-16.763512	-86.651635	14.250395
03907	9.901818	-0.155754	0.562270	-0.006660	0.012043	0.106295	1.000000	0.000018	0.000036	0.000042	-16.783694	-86.650848	14.269876
03908	9.901766	-0.156301	0.563035	-0.007349	0.011503	0.106295	1.000000	0.000041	0.000041	0.000017	-16.752759	-86.650473	14.240612
03909	9.901714	-0.156686	0.563835	-0.008012	0.010957	0.106296	1.000000	0.000021	0.000039	0.000026	-16.740031	-86.649806	14.228444
03910	9.884708	-0.180844	0.546043	0.007662	-0.014397	0.088729	1.000000	0.000047	0.000021	0.000016	-16.717785	-86.651566	14.208606
03911	9.907950	-0.177873	0.553083	0.001937	-0.010902	0.112276	1.000000	0.000019	0.000031	0.000032	-16.724374	-86.651792	14.214002
03912	9.927409	-0.188099	0.580519	-0.024820	-0.019572	0.133409	1.000000	0.000019	0.000031	0.000032	-16.730641	-86.651998	14.219529
03913	9.911636	-0.166043	0.534037	0.021609	0.000173	0.114691	1.000000	0.000027	0.000034	0.000027	-16.723785	-86.651889	14.212777
03914	9.888320	-0.169941	0.528061	0.025955	-0.004398	0.091145	1.000000	0.000027	0.000020	0.000025	-16.720879	-86.653503	14.209983
03915	9.907780	-0.180031	0.555431	-0.000776	-0.013066	0.112274	1.000000	0.000027	0.000034	0.000027	-16.714116	-86.653340	14.197908
03916	9.888237	-0.170937	0.529283	0.024607	-0.005481	0.091148	1.000000	0.000027	0.000034	0.000027	-16.707954	-86.653353	14.191811
03917	9.901369	-0.160552	0.568791	-0.013447	0.006641	0.106294	1.000000	0.000035	0.000046	0.000015	-16.670665	-86.652276	14.153013
03918	9.905109	-0.148051	0.549162	0.006900	0.018251	0.108719	1.000000	0.000018	0.000022	0.000039	-16.694766	-86.653209	14.176261
03919	9.907587	-0.182120	0.558189	-0.003518	-0.015227	0.112270	1.000000	0.000038	0.000037	0.000033	-16.696720	-86.652729	14.179478
03920	9.901229	-0.162315	0.570724	-0.015524	0.005024	0.106291	1.000000	0.000033	0.000029	0.000029	-16.695997	-86.653275	14.179511
03921	9.904974	-0.149923	0.551092	0.004847	0.016627	0.108723	1.000000	0.000025	0.000039	0.000036	-16.703465	-86.652288	14.188029
03922	9.901126	-0.163572	0.572152	-0.016881	0.003941	0.106290	1.000000	0.000014	0.000036	0.000031	-16.704223	-86.651963	14.187358
03923	9.907388	-0.184517	0.560930	-0.006211	-0.017399	0.112265	1.000000	0.000033	0.000029	0.000029	-16.701669	-86.652243	14.183850
03924	9.908635	-0.138653	0.532802	0.023869	0.027140	0.111165	1.000000	0.000027	0.000034	0.000027	-16.695468	-86.652258	14.177717
03925	9.907297	-0.185561	0.562188	-0.007610	-0.018475	0.112262	1.000000	0.000033	0.000029	0.000029	-16.695579	-86.652889	14.177841
03926	9.887770	-0.176765	0.536056	0.017791	-0.010894	0.091158	1.000000	0.000003	0.000043	0.000054	-16.737932	-86.651007	14.217642
03927	9.930465	-0.183625	0.570138	-0.014054	-0.015536	0.135804	1.000000	0.000041	0.000027	0.000014	-16.710636	-86.652276	14.192291
03928	9.904645	-0.154051	0.555847	0.000047	0.012843	0.108730	1.000000	0.000032	0.000042	0.000031	-16.706619	-86.651223	14.188987
03929	9.877502	-0.171079	0.570436	-0.016643	-0.003846	0.082736	1.000000	0.000025	0.000039	0.000036	-16.715625	-86.650444	14.200573
03930	9.891381	-0.166121	0.518698	0.036053	-0.000915	0.093612	1.000000	0.000014	0.000036	0.000031	-16.716338	-86.650119	14.199859
03931	9.917109	-0.196651	0.534207	0.020579	-0.030383	0.120679	1.000000	0.000033	0.000015	0.000026	-16.718014	-86.652176	14.204298
03932	9.881175	-0.159921	0.552072	0.002352	0.006668	0.085188	1.000000	0.000012	0.000055	0.000042	-16.730031	-86.649376	14.214684
03933	9.927676	-0.153634	0.565893	-0.008430	0.014146	0.132277	1.000000	0.000036	0.000018	0.000010	-16.698986	-86.651507	14.183857
03934	9.877265	-0.174048	0.573624	-0.020037	-0.006545	0.082729	1.000000	0.000015	0.000032	0.000058	-16.752198	-86.650691	14.235900
03935	9.910613	-0.178825	0.548700	0.006565	-0.011752	0.114705	1.000000	0.000034	0.000037	0.000022	-16.732954	-86.650410	14.216623
03936	9.880984	-0.162309	0.554799	-0.000350	0.004505	0.085189	1.000000	0.000032	0.000042	0.000031	-16.728887	-86.649360	14.213272
03937	9.900380	-0.172520	0.582344	-0.027144	-0.004148	0.106267	1.000000	0.000025	0.000025	0.000034	-16.740632	-86.650048	14.221326
03938	9.884719	-0.150551	0.535836	0.019329	0.015554	0.087658	1.000000	0.000032	0.000042	0.000031	-16.736552	-86.648998	14.217961
03939	9.890975	-0.171456	0.524670	0.029940	-0.005796	0.093631	1.000000	0.000021	0.000025	0.000023	-16.727838	-86.650000	14.206186
03940	9.880799	-0.164511	0.557425	-0.003080	0.002353	0.085190	1.000000	0.000027	0.000034	0.000027	-16.721569	-86.650018	14.199987
03941	9.887053	-0.185354	0.546280	0.007519	-0.018997	0.091159	1.000000	0.000009	0.000036	0.000020	-16.702067	-86.649994	14.177201
03942	9.903972	-0.162215	0.565427	-0.009524	0.005279	0.108732	1.000000	0.000029	0.000039	0.000047	-16.730415	-86.648795	14.205991
03943	9.884494	-0.153285	0.539193	0.015906	0.012855	0.087668	1.000000	0.000021	0.000025	0.000023	-16.722153	-86.649910	14.199718
03944	9.897584	-0.142952	0.578503	-0.022186	0.025014	0.102763	1.000000	0.000027	0.000034	0.000027	-16.715868	-86.649928	14.193505
03945	9.933400	-0.180924	0.562156	-0.005403	-0.013157	0.138242	1.000000	0.000032	0.000042	0.000031	-16.711796	-86.648881	14.191240
03946	9.878056	-0.134441	0.553145	0.002567	0.032051	0.081705	1.000000	0.000027	0.000034	0.000027	-16.705503	-86.648900	14.185019
03947	9.907578	-0.152028	0.548586	0.008090	0.014687	0.111217	1.000000	0.000038	0.000037	0.000033	-16.705943	-86.648285	14.187920
03948	9.913832	-0.173053	0.537367	0.018672	-0.006672	0.117186	1.000000	0.000001	0.000024	0.000032	-16.716770	-86.649223	14.195872
03949	9.877918	-0.136108	0.555191	0.000522	0.030427	0.081710	1.000000	0.000047	0.000049	0.000021	-16.687668	-86.647805	14.172277
03950	9.913731	-0.173921	0.538952	0.017288	-0.007757	0.117187	1.000000	0.000009	0.000036	0.000020	-16.668237	-86.647824	14.150894
03951	9.880262	-0.170365	0.565144	-0.010639	-0.003581	0.085184	1.000000	0.000025	0.000025	0.000034	-16.679820	-86.648590	14.163696
03952	9.884080	-0.158029	0.545380	0.009725	0.007988	0.087681	1.000000	0.000020	0.000031	0.000032	-16.685889	-86.648803	14.169032
03953	9.893286	-0.160754	0.605015	-0.049431	0.008050	0.100258	1.000000	0.000033	0.000028	0.000029	-16.685370	-86.649388	14.168874
03954	9.907264	-0.155700	0.553205	0.003250	0.010900	0.111225	1.000000	0.000034	0.000037	0.000022	-16.666653	-86.649217	14.151035
03955	9.907215	-0.156259	0.553917	0.002568	0.010358	0.111225	1.000000	0.000031	0.000034	0.000038	-16.680117	-86.648857	14.163869
03956	9.890198	-0.180679	0.536095	0.018233	-0.014996	0.093650	1.000000	0.000039	0.000023	0.000030	-16.684727	-86.649944	14.169933
03957	9.900841	-0.137065	0.566835	-0.010061	0.030099	0.105263	1.000000	-0.000005	0.000029	0.000030	-16.689510	-86.650299	14.172438
03958	9.907084	-0.158232	0.555698	0.000508	0.008733	0.111227	1.000000	0.000029	0.000039	0.000047	-16.717766	-86.649104	14.201141
03959	9.890060	-0.182625	0.537980	0.016174	-0.016623	0.093650	1.000000	0.000028	0.000029	0.000018	-16.696486	-86.650004	14.183157
03960	9.883727	-0.162678	0.550388	0.004229	0.003664	0.087688	1.000000	0.000020	0.000031	0.000032	-16.702520	-86.650218	14.188460
03961	9.903071	-0.172889	0.577908	-0.022609	-0.004991	0.108711	1.000000	0.000020	0.000031	0.000032	-16.708246	-86.650383	14.192247
03962	9.883638	-0.163856	0.551642	0.002861	0.002584	0.087688	1.000000	0.000027	0.000034	0.000027	-16.701880	-86.650405	14.185957
03963	9.910740	-0.147982	0.538665	0.018120	0.018120	0.113750	1.000000	0.000028	0.000043	0.000020	-16.677898	-86.649731	14.161805
03964	9.913101	-0.181821	0.547845	0.007621	-0.015347	0.117191	1.000000	0.000039	0.000023	0.000030	-16.682486	-86.650820	14.167848
03965	9.883495	-0.165521	0.553693	0.000784	0.000968	0.087689	1.000000	-0.000008	0.000040	0.000048	-16.717135	-86.649508	14.197979
03966	9.912990	-0.183414	0.549327	0.006231	-0.016428	0.117190	1.000000	0.000044	0.000045	0.000037	-16.720559	-86.647932	14.203464
03967	9.887285	-0.153875	0.534821	0.020459	0.011977	0.090219	1.000000	0.000029	0.000015	0.000015	-16.703021	-86.650469	14.188423
03968	9.912913	-0.184285	0.550430	0.004842	-0.017512	0.117189	1.000000	0.000027	0.000034	0.000027	-16.696629	-86.650493	14.182108
03969	9.902672	-0.177334	0.583378	-0.028153	-0.009302	0.108694	1.000000	0.000026	0.000048	0.000029	-16.687120	-86.648925	14.171486
03970	9.906514	-0.164919	0.563865	-0.007783	0.002245	0.111228	1.000000	0.000027	0.000034	0.000027	-16.680721	-86.648948	14.165165
03971	9.916655	-0.172954	0.532434	0.023827	-0.007050	0.119725	1.000000	0.000014	0.000036	0.000031	-16.681135	-86.648627	14.164589
03972	9.887060	-0.156451	0.538226	0.017016	0.009275	0.090228	1.000000	0.000039	0.000023	0.000030	-16.685699	-86.649719	14.170610
03973	9.916570	-0.174053	0.533657	0.022440	-0.008134	0.119728	1.000000	0.000021	0.000039	0.000025	-16.674061	-86.649228	14.157775
03974	9.916527	-0.174511	0.534304	0.021749	-0.008676	0.119729	1.000000	0.000021	0.000025	0.000023	-16.665477	-86.650319	14.148622
03975	9.912575	-0.187961	0.555249	-0.000025	-0.021293	0.117183	1.000000	0.000014	0.000036	0.000031	-16.666811	-86.650104	14.149228
03976	9.879063	-0.184360	0.581466	-0.027887	-0.017037	0.085136	1.000000	0.000027	0.000034	0.000027	-16.660387	-86.650129	14.142883
03977	9.906195	-0.168597	0.568366	-0.012645	-0.001529	0.111223	1.000000	0.000033	0.000028	0.000029	-16.659855	-86.650726	14.143243
03978	9.886799	-0.159512	0.542105	0.012855	0.006041	0.090237	1.000000	0.000021	0.000039	0.000025	-16.647934	-86.650217	14.130712
03979	9.906092	-0.169687	0.569828	-0.014029	-0.002607	0.111221	1.000000	0.000025	0.000039	0.000036	-16.656318	-86.649379	14.138662
03980	9.886706	-0.160511	0.543512	0.011476	0.004963	0.090240	1.000000	0.000030	0.000023	0.000009	-16.620766	-86.651152	14.103506
03981	9.886658	-0.160843	0.544276	0.010759	0.004428	0.090241	1.000000	0.000021	0.000053	0.000028	-16.606629	-86.649197	14.091402
03982	9.892882	-0.181834	0.533445	0.021292	-0.016961	0.096197	1.000000	0.000032	0.000042	0.000031	-16.602362	-86.648157	14.087862
03983	9.909809	-0.158654	0.552571	0.004230	0.007315	0.113780	1.000000	0.000020	0.000031	0.000032	-16.609407	-86.648466	14.093129
03984	9.863240	-0.165892	0.539983	0.013810	-0.001145	0.066706	1.000000	0.000027	0.000034	0.000027	-16.602953	-86.648492	14.086755
03985	9.909719	-0.159777	0.553861	0.002828	0.006232	0.113781	1.000000	0.000020	0.000031	0.000032	-16.609320	-86.648828	14.097416
03986	9.909671	-0.160486	0.554524	0.002138	0.005691	0.113782	1.000000	0.000018	0.000036	0.000041	-16.629780	-86.648173	14.116990
03987	9.859157	-0.180768	0.562399	-0.009353	-0.014823	0.064136	1.000000	0.000032	0.000042	0.000031	-16.626235	-86.647200	14.113801
03988	9.892587	-0.185447	0.537640	0.017100	-0.020194	0.096199	1.000000	0.000015	0.000031	0.000021	-16.612115	-86.647758	14.098424
03989	9.890205	-0.152551	0.529669	0.026263	0.012183	0.092823	1.000000	0.000033	0.000028	0.000029	-16.611185	-86.648331	14.099152
03990	9.905544	-0.175702	0.577474	-0.021706	-0.008530	0.111204	1.000000	0.000018	0.000022	0.000039	-16.634945	-86.649275	14.122069
03991	9.886183	-0.166687	0.551103	0.003829	-0.000960	0.090247	1.000000	0.000034	0.000037	0.000022	-16.615812	-86.649044	14.101583
03992	9.899171	-0.156331	0.590514	-0.034284	0.011249	0.105248	1.000000	0.000020	0.000031	0.000032	-16.621699	-86.649263	14.106745
03993	9.909357	-0.164387	0.558968	-0.002707	0.001913	0.113783	1.000000	0.000021	0.000025	0.000023	-16.613500	-86.650410	14.098497
03994	9.882102	-0.181029	0.573357	-0.019319	-0.014634	0.087659	1.000000	0.000028	0.000042	0.000020	-16.589135	-86.649713	14.074333
03995	9.909262	-0.165279	0.560379	-0.004091	0.000837	0.113783	1.000000	0.000020	0.000031	0.000032	-16.595585	-86.649945	14.078024
03996	9.909225	-0.165816	0.560887	-0.004782	0.000296	0.113782	1.000000	0.000027	0.000020	0.000025	-16.592398	-86.651572	14.074959
03997	9.889880	-0.156699	0.534507	0.020731	0.007869	0.092841	1.000000	0.000021	0.000039	0.000025	-16.581648	-86.651189	14.064247
03998	9.909133	-0.166874	0.562196	-0.006186	-0.000778	0.113781	1.000000	0.000006	0.000033	0.000036	-16.594402	-86.651067	14.074779
03999	9.909084	-0.167421	0.562894	-0.006856	-0.001318	0.113781	1.000000	0.000034	0.000037	0.000022	-16.575014	-86.650786	14.053125
04000	9.866482	-0.161662	0.529955	0.023844	0.002303	0.069311	1.000000	0.000020	0.000031	0.000032	-16.580870	-86.651007	14.058256
04001	9.908991	-0.168487	0.564218	-0.008246	-0.002394	0.113780	1.000000	0.000027	0.000034	0.000027	-16.575016	-86.651080	14.052497
04002	9.915227	-0.189370	0.553038	0.002254	-0.023801	0.119727	1.000000	0.000034	0.000023	0.000019	-16.559421	-86.652517	14.037833
04003	9.885660	-0.172580	0.558623	-0.004458	-0.007412	0.090244	1.000000	0.000034	0.000023	0.000019	-16.543877	-86.653905	14.020818
04004	9.895851	-0.180719	0.527310	0.027117	-0.016779	0.098799	1.000000	0.000012	0.000055	0.000042	-16.555471	-86.651121	14.030803
04005	9.906504	-0.136947	0.558290	-0.001102	0.028359	0.110440	1.000000	0.000024	0.000029	0.000007	-16.514213	-86.652324	13.988727
04006	9.889479	-0.161339	0.540505	0.014559	0.003010	0.092854	1.000000	0.000015	0.000032	0.000057	-16.567029	-86.651528	14.040384
04007	9.885459	-0.174799	0.561491	-0.007220	-0.009568	0.090240	1.000000	0.000031	0.000032	0.000002	-16.513764	-86.652640	13.990272
04008	9.906377	-0.138430	0.560170	-0.003181	0.026738	0.110444	1.000000	0.000020	0.000031	0.000032	-16.519585	-86.652862	13.995369
04009	9.885371	-0.175664	0.562762	-0.009167	-0.007999	0.090240	1.000000	0.000027	0.000034	0.000027	-16.781964	-86.652343	14.262653
04010	9.862070	-0.179493	0.556736	-0.004684	-0.012470	0.066707	1.000000	0.000033	0.000028	0.000029	-16.781667	-86.652907	14.263162
04011	9.882999	-0.143475	0.555239	-0.000631	0.023842	0.086908	1.000000	0.000024	0.000016	0.000041	-16.810830	-86.654295	14.290177
04012	9.918763	-0.181577	0.538950	0.015855	-0.014501	0.122343	1.000000	0.000030	0.000037	0.000011	-16.772550	-86.654481	14.252293
04013	9.906167	-0.141186	0.563193	-0.007196	0.026711	0.110442	1.000000	0.000030	0.000039	0.000047	-16.801197	-86.653344	14.282141
04014	9.889131	-0.165761	0.545511	0.008466	0.001367	0.092862	1.000000	0.000006	0.000033	0.000036	-16.814599	-86.653220	14.293356
04015	9.885097	-0.179215	0.566434	-0.013303	-0.011203	0.090232	1.000000	0.000021	0.000025	0.000023	-16.805988	-86.654319	14.286258
04016	9.910023	-0.130221	0.544780	0.011814	0.037135	0.113076	1.000000	0.000025	0.000039	0.000036	-16.814616	-86.653475	14.294846
04017	9.914524	-0.197428	0.562735	-0.008697	-0.029220	0.119709	1.000000	0.000023	0.000034	0.000016	-16.787975	-86.653844	14.269352
04018	9.888945	-0.167852	0.548242	0.005708	-0.000777	0.092864	1.000000	0.000019	0.000044	0.000034	-16.791054	-86.652467	14.271704
04019	9.908143	-0.177961	0.576068	-0.021266	-0.009403	0.113756	1.000000	0.000034	0.000037	0.000022	-16.773408	-86.652385	14.252666
04020	9.886579	-0.135741	0.541047	0.014231	0.031065	0.089557	1.000000	0.000009	0.000024	0.000053	-16.824733	-86.652639	14.302214
04021	9.912050	-0.166560	0.556960	-0.001576	0.001552	0.116395	1.000000	0.000021	0.000039	0.000025	-16.813224	-86.652188	14.290896
04022	9.912009	-0.166930	0.557568	-0.002268	0.001019	0.116395	1.000000	0.000048	0.000021	0.000016	-16.791565	-86.653976	14.271701
04023	9.901683	-0.159888	0.590354	-0.035165	0.009336	0.107800	1.000000	0.000018	0.000050	0.000044	-16.806839	-86.651519	14.284774
04024	9.888647	-0.171443	0.552494	0.001581	-0.003987	0.092864	1.000000	0.000021	0.000039	0.000025	-16.795407	-86.651020	14.272775
04025	9.888602	-0.171841	0.553172	0.000896	-0.004526	0.092864	1.000000	0.000028	0.000029	0.000018	-16.774223	-86.651902	14.252802
04026	9.892569	-0.159455	0.533551	0.021291	0.006959	0.095517	1.000000	0.000019	0.000044	0.000034	-16.777257	-86.650528	14.255111
04027	9.898789	-0.180480	0.522527	0.031745	-0.014465	0.101465	1.000000	0.000021	0.000025	0.000023	-16.769222	-86.651681	14.247384
04028	9.905453	-0.149434	0.573515	-0.017538	0.018683	0.110447	1.000000	0.000042	0.000026	0.000014	-16.741991	-86.652935	14.221931
04029	9.888426	-0.173836	0.555678	-0.001880	-0.006661	0.092863	1.000000	0.000004	0.000029	0.000052	-16.787524	-86.652680	14.264916
04030	9.888378	-0.174659	0.556286	-0.002571	-0.007193	0.092862	1.000000	0.000044	0.000032	0.000034	-16.794786	-86.652717	14.274328
04031	9.911573	-0.171959	0.563761	-0.008467	-0.003814	0.116391	1.000000	0.000027	0.000048	0.000029	-16.784801	-86.651172	14.266803
04032	9.888273	-0.175738	0.557810	-0.003954	-0.008265	0.092861	1.000000	0.000021	0.000025	0.000023	-16.776798	-86.652270	14.258272
04033	9.892259	-0.163387	0.538082	0.016437	0.003210	0.095529	1.000000	0.000038	0.000037	0.000033	-16.778396	-86.651811	14.261562
04034	9.888183	-0.176930	0.559026	-0.005342	-0.009331	0.092859	1.000000	0.000018	0.000022	0.000039	-16.802788	-86.652755	14.285147
04035	9.892167	-0.164716	0.539367	0.015051	0.002143	0.095531	1.000000	0.000027	0.000048	0.000029	-16.793455	-86.651222	14.274920
04036	9.892128	-0.165086	0.539974	0.014360	0.001609	0.095532	1.000000	0.000042	0.000013	0.000012	-16.769687	-86.654076	14.252968
04037	9.894732	-0.147061	0.611405	-0.056001	0.022771	0.101823	1.000000	0.000018	0.000050	0.000044	-16.786878	-86.651828	14.268564
04038	9.892033	-0.166400	0.541311	0.012979	0.000540	0.095534	1.000000	0.000018	0.000022	0.000039	-16.811256	-86.652773	14.292136
04039	9.896036	-0.154169	0.521513	0.033365	0.012007	0.098216	1.000000	0.000027	0.000034	0.000027	-16.805433	-86.652895	14.288530
04040	9.898209	-0.188037	0.530793	0.022718	-0.021427	0.101477	1.000000	0.000033	0.000028	0.000029	-16.805031	-86.653465	14.288941
04041	9.887863	-0.180825	0.563423	-0.010216	-0.013059	0.092851	1.000000	0.000028	0.000029	0.000018	-16.785157	-86.654470	14.269384
04042	9.891872	-0.168450	0.543606	0.010184	-0.001593	0.095537	1.000000	0.000026	0.000025	0.000034	-16.797140	-86.655228	14.281370
04043	9.904757	-0.158110	0.583136	-0.027945	0.010680	0.110435	1.000000	0.000021	0.000053	0.000028	-16.781548	-86.653107	14.264651
04044	9.881459	-0.161875	0.577167	-0.023413	0.006243	0.086907	1.000000	0.000027	0.000020	0.000025	-16.779058	-86.654740	14.262323
04045	9.891730	-0.170147	0.545673	0.008121	-0.003200	0.095539	1.000000	0.000018	0.000036	0.000041	-16.799596	-86.654075	14.281154
04046	9.904615	-0.159886	0.585066	-0.030015	0.009083	0.110431	1.000000	0.000033	0.000028	0.000029	-16.799172	-86.654646	14.281543
04047	9.914887	-0.168108	0.553608	0.001526	-0.000374	0.119066	1.000000	0.000020	0.000030	0.000032	-16.804215	-86.654807	14.287457
04048	9.891593	-0.171981	0.547569	0.006062	-0.004809	0.095540	1.000000	0.000014	0.000036	0.000030	-16.805044	-86.654499	14.286915
04049	9.891547	-0.172483	0.548245	0.005365	-0.005344	0.095540	1.000000	0.000040	0.000032	0.000023	-16.792146	-86.654918	14.276259
04050	9.891498	-0.173035	0.548955	0.004674	-0.005877	0.095540	1.000000	0.000025	0.000039	0.000036	-16.800590	-86.654082	14.284673
04051	9.914698	-0.170324	0.556306	-0.001239	-0.002520	0.119066	1.000000	0.000021	0.000025	0.000023	-16.791454	-86.655132	14.275816
04052	9.887347	-0.186928	0.570447	-0.017793	-0.018937	0.092831	1.000000	0.000039	0.000023	0.000030	-16.796576	-86.656238	14.282440
04053	9.885119	-0.154096	0.562392	-0.008501	0.013423	0.089603	1.000000	0.000021	0.000039	0.000025	-16.784535	-86.655731	14.269893
04054	9.895394	-0.162397	0.531096	0.023021	0.003963	0.098252	1.000000	0.000018	0.000036	0.000041	-16.805354	-86.655082	14.289873
04055	9.918601	-0.159718	0.538347	0.017102	0.007317	0.121779	1.000000	0.000040	0.000018	0.000021	-16.795182	-86.657014	14.281241
04056	9.910410	-0.185886	0.579560	-0.025786	-0.017179	0.116347	1.000000	0.000020	0.000030	0.000032	-16.801544	-86.657241	14.286920
04057	9.889026	-0.143526	0.544441	0.009856	0.023261	0.092322	1.000000	0.000027	0.000034	0.000027	-16.794565	-86.657251	14.281543
04058	9.910311	-0.186986	0.580903	-0.027165	-0.018253	0.116341	1.000000	0.000014	0.000036	0.000030	-16.795341	-86.656945	14.280950
04059	9.901427	-0.185874	0.522552	0.030710	-0.019643	0.104195	1.000000	0.000017	0.000041	0.000050	-16.829531	-86.655321	14.312486
04060	9.908039	-0.154981	0.573622	-0.018538	0.013570	0.113126	1.000000	0.000030	0.000023	0.000009	-16.794592	-86.657114	14.277992
04061	9.895093	-0.166386	0.535460	0.018224	0.000200	0.098263	1.000000	0.000018	0.000036	0.000041	-16.814786	-86.656464	14.298678
04062	9.914197	-0.176672	0.563220	-0.008817	-0.008420	0.119059	1.000000	0.000044	0.000031	0.000034	-16.821929	-86.656510	14.307979
04063	9.903806	-0.169592	0.595930	-0.041708	-0.000015	0.110393	1.000000	0.000014	0.000036	0.000030	-16.821865	-86.656198	14.308625
04064	9.890855	-0.181078	0.557871	-0.004948	-0.013380	0.095532	1.000000	0.000027	0.000034	0.000027	-16.815793	-86.656240	14.302684
04065	9.890808	-0.181579	0.558548	-0.005642	-0.013915	0.095531	1.000000	0.000027	0.000034	0.000027	-16.809477	-86.656306	14.297606
04066	9.918106	-0.166071	0.545500	0.009513	0.001404	0.121792	1.000000	0.000026	0.000025	0.000034	-16.821377	-86.657067	14.309514
04067	9.907709	-0.158920	0.578224	-0.023378	0.009823	0.113121	1.000000	0.000015	0.000044	0.000023	-16.804036	-86.656052	14.290526
04068	9.918006	-0.167252	0.546945	0.008127	0.000334	0.121793	1.000000	0.000024	0.000030	0.000043	-16.830359	-86.655938	14.316700
04069	9.888474	-0.150658	0.552464	0.001611	0.016836	0.092339	1.000000	0.000033	0.000028	0.000029	-16.828882	-86.656467	14.316977
04070	9.894686	-0.171576	0.541307	0.012012	-0.004621	0.098271	1.000000	0.000048	0.000021	0.000016	-16.807125	-86.658267	14.297695
04071	9.890539	-0.184873	0.562215	-0.009781	-0.017121	0.095523	1.000000	0.000007	0.000033	0.000035	-16.819884	-86.658145	14.308648
04072	9.888361	-0.152198	0.554077	-0.000457	0.015235	0.092342	1.000000	0.000026	0.000025	0.000034	-16.831769	-86.658908	14.320542
04073	9.917804	-0.170047	0.549750	0.004694	-0.002357	0.121795	1.000000	0.000027	0.000034	0.000027	-16.824476	-86.658859	14.312889
04074	9.890401	-0.186608	0.564060	-0.011838	-0.018725	0.095518	1.000000	0.000027	0.000034	0.000027	-16.818355	-86.658903	14.306901
04075	9.888228	-0.153824	0.555984	-0.002489	0.013625	0.092344	1.000000	0.000020	0.000030	0.000032	-16.823685	-86.659036	14.310139
04076	9.917660	-0.171798	0.551787	0.002634	-0.003965	0.121795	1.000000	0.000012	0.000041	0.000039	-16.838792	-86.657857	14.323723
04077	9.888137	-0.154977	0.557286	-0.003875	0.012561	0.092345	1.000000	0.000036	0.000018	0.000010	-16.809655	-86.660221	14.295351
04078	9.888103	-0.155371	0.557787	-0.004565	0.012029	0.092345	1.000000	0.000044	0.000031	0.000034	-16.816743	-86.660271	14.304601
04079	9.911290	-0.152828	0.565256	-0.010539	0.015367	0.115867	1.000000	0.000012	0.000041	0.000039	-16.832175	-86.659151	14.318974
04080	9.888000	-0.156757	0.559224	-0.005956	0.010965	0.092346	1.000000	0.000020	0.000030	0.000032	-16.838433	-86.659382	14.324555
04081	9.917431	-0.174593	0.555023	-0.000834	-0.006638	0.121794	1.000000	0.000021	0.000039	0.000025	-16.825973	-86.658819	14.309782
04082	9.887911	-0.157762	0.560509	-0.007322	0.009897	0.092346	1.000000	0.000027	0.000020	0.000025	-16.823396	-86.660459	14.307373
04083	9.894100	-0.178888	0.549597	0.003055	-0.011572	0.098272	1.000000	0.000025	0.000053	0.000038	-16.828193	-86.658052	14.311355
04084	9.889913	-0.192392	0.570631	-0.018747	-0.024050	0.095496	1.000000	0.000013	0.000013	0.000035	-16.850423	-86.660062	14.332130
04085	9.911006	-0.156335	0.569270	-0.014680	0.012162	0.115867	1.000000	0.000047	0.000049	0.000020	-16.821230	-86.658698	14.306386
04086	9.887713	-0.160090	0.563330	-0.010088	0.007766	0.092346	1.000000	0.000007	0.000033	0.000035	-16.834257	-86.658581	14.317238
04087	9.898050	-0.168495	0.531899	0.021388	-0.001762	0.101052	1.000000	0.000026	0.000025	0.000034	-16.846600	-86.659395	14.329188
04088	9.898005	-0.168997	0.532575	0.020696	-0.002297	0.101054	1.000000	0.000028	0.000042	0.000020	-16.822415	-86.658725	14.305263
04089	9.917047	-0.179051	0.560436	-0.006405	-0.010908	0.121788	1.000000	0.000020	0.000030	0.000032	-16.828965	-86.659012	14.311409
04090	9.897910	-0.170027	0.533999	0.019304	-0.003364	0.101056	1.000000	0.000021	0.000039	0.000025	-16.817175	-86.658526	14.299068
04091	9.893715	-0.183377	0.555017	-0.002502	-0.015840	0.098266	1.000000	0.000026	0.000025	0.000034	-16.828508	-86.659308	14.311955
04092	9.891603	-0.150456	0.546651	0.006862	0.016509	0.095136	1.000000	0.000042	0.000013	0.000012	-16.804681	-86.662174	14.289952
04093	9.921032	-0.168289	0.542412	0.011946	-0.001120	0.124579	1.000000	0.000018	0.000050	0.000043	-16.820921	-86.659880	14.305018
04094	9.887344	-0.164575	0.568498	-0.015621	0.003504	0.092341	1.000000	0.000018	0.000036	0.000041	-16.841531	-86.659237	14.324796
04095	9.914693	-0.149118	0.555529	-0.000497	0.018760	0.118658	1.000000	0.000029	0.000028	0.000018	-16.821141	-86.660188	14.304274
04096	9.887259	-0.165606	0.569678	-0.017007	0.002442	0.092339	1.000000	0.000026	0.000025	0.000034	-16.832944	-86.660954	14.316091
04097	9.893448	-0.186721	0.558649	-0.006630	-0.019049	0.098259	1.000000	0.000027	0.000034	0.000027	-16.825345	-86.660918	14.309125
04098	9.910404	-0.163507	0.577679	-0.023670	0.005220	0.115855	1.000000	0.000020	0.000030	0.000032	-16.831527	-86.661151	14.314632
04099	9.874277	-0.178393	0.532922	0.018379	-0.012029	0.077545	1.000000	0.000031	0.000047	0.000040	-16.843240	-86.659392	14.326531
04100	9.910298	-0.164633	0.579168	-0.025080	0.004165	0.115852	1.000000	0.000030	0.000023	0.000008	-16.808189	-86.661194	14.291933
04101	9.893258	-0.188765	0.561309	-0.009412	-0.021180	0.098252	1.000000	-0.000005	0.000029	0.000030	-16.812313	-86.661556	14.293871
04102	9.897381	-0.176567	0.541644	0.011013	-0.009789	0.101065	1.000000	0.000033	0.000042	0.000031	-16.808087	-86.660546	14.290439
04103	9.893161	-0.189860	0.562647	-0.010803	-0.022245	0.098249	1.000000	0.000027	0.000020	0.000025	-16.805517	-86.662226	14.288821
04104	9.891066	-0.156992	0.554469	-0.001416	0.010099	0.095146	1.000000	0.000021	0.000039	0.000025	-16.793651	-86.661743	14.276409
04105	9.891014	-0.157624	0.555214	-0.002094	0.009564	0.095147	1.000000	0.000018	0.000036	0.000041	-16.813662	-86.661041	14.294439
04106	9.869779	-0.194812	0.557900	-0.007557	-0.027688	0.074725	1.000000	0.000027	0.000034	0.000027	-16.807408	-86.661092	14.288324
04107	9.897139	-0.179508	0.545080	0.007575	-0.012467	0.101065	1.000000	0.000024	0.000044	0.000045	-16.828895	-86.659311	14.309553
04108	9.901279	-0.167235	0.525375	0.028004	-0.001085	0.103891	1.000000	0.000030	0.000023	0.000008	-16.793823	-86.661113	14.274936
04109	9.897049	-0.180521	0.546380	0.006174	-0.013529	0.101064	1.000000	0.000030	0.000039	0.000047	-16.822809	-86.660038	14.305318
04110	9.890760	-0.160777	0.558830	-0.005548	0.006899	0.095148	1.000000	0.000006	0.000046	0.000038	-16.832089	-86.658332	14.312396
04111	9.930589	-0.186408	0.522765	0.031637	-0.019815	0.133329	1.000000	0.000042	0.000026	0.000014	-16.803614	-86.659530	14.285652
04112	9.886481	-0.174359	0.580460	-0.028036	-0.006083	0.092312	1.000000	0.000021	0.000025	0.000023	-16.795329	-86.660642	14.276852
04113	9.896860	-0.182721	0.549071	0.003413	-0.015669	0.101063	1.000000	0.000031	0.000034	0.000038	-16.809279	-86.660398	14.292329
04114	9.901017	-0.170484	0.529259	0.023844	-0.004294	0.103901	1.000000	0.000035	0.000023	0.000019	-16.794207	-86.661859	14.278242
04115	9.920005	-0.180614	0.557026	-0.003292	-0.012907	0.124577	1.000000	0.000018	0.000036	0.000041	-16.814047	-86.661212	14.298865
04116	9.913744	-0.160540	0.569106	-0.015007	0.007525	0.118662	1.000000	0.000042	0.000012	0.000012	-16.790181	-86.664082	14.276827
04117	9.896694	-0.184820	0.551345	0.000670	-0.017820	0.101059	1.000000	0.000018	0.000049	0.000043	-16.805299	-86.661749	14.292271
04118	9.890416	-0.164614	0.563781	-0.011041	0.002615	0.095145	1.000000	0.000039	0.000035	-0.000004	-16.739735	-86.662650	14.228103
04119	9.890370	-0.164952	0.564490	-0.011722	0.002083	0.095144	1.000000	0.000018	0.000036	0.000041	-16.760044	-86.661955	14.245829
04120	9.903117	-0.154598	0.603902	-0.049885	0.014450	0.109894	1.000000	0.000033	0.000028	0.000028	-16.759344	-86.662542	14.245958
04121	9.900715	-0.173992	0.533750	0.019042	-0.008054	0.103909	1.000000	0.000020	0.000030	0.000032	-16.765115	-86.662750	14.250738
04122	9.923900	-0.171406	0.541161	0.013016	-0.004761	0.127425	1.000000	0.000020	0.000030	0.000032	-16.771187	-86.662987	14.256141
04123	9.890188	-0.167338	0.566971	-0.014455	-0.000052	0.095141	1.000000	0.000027	0.000034	0.000027	-16.763707	-86.662919	14.247619
04124	9.900589	-0.175635	0.535541	0.016990	-0.009663	0.103912	1.000000	0.000027	0.000020	0.000024	-16.760985	-86.664565	14.245070
04125	9.894336	-0.155502	0.547574	0.005284	0.010779	0.098002	1.000000	0.000021	0.000025	0.000023	-16.752849	-86.665713	14.236910
04126	9.913297	-0.165828	0.575343	-0.021875	0.002176	0.118652	1.000000	0.000015	0.000032	0.000057	-16.805784	-86.664918	14.288735
04127	9.871008	-0.160130	0.542170	0.009234	0.005889	0.074489	1.000000	0.000030	0.000051	0.000013	-16.763472	-86.663604	14.248745
04128	9.913184	-0.166966	0.576956	-0.023271	0.001108	0.118649	1.000000	0.000013	0.000027	0.000037	-16.781926	-86.664026	14.265717
04129	9.904593	-0.165920	0.518318	0.034642	-0.000443	0.106785	1.000000	0.000026	0.000025	0.000034	-16.793649	-86.664797	14.277366
04130	9.908867	-0.180956	0.598460	-0.045785	-0.011845	0.115772	1.000000	0.000027	0.000034	0.000027	-16.787282	-86.664852	14.271144
04131	9.889837	-0.171783	0.571745	-0.019999	-0.004307	0.095131	1.000000	0.000029	0.000015	0.000015	-16.770163	-86.667368	14.253944
04132	9.917248	-0.156394	0.558864	-0.004909	0.010864	0.121519	1.000000	0.000012	0.000055	0.000041	-16.781331	-86.664606	14.263572
04133	9.881202	-0.171089	0.514002	0.037235	-0.006404	0.083281	1.000000	0.000036	0.000018	0.000010	-16.751197	-86.666906	14.234740
04134	9.889691	-0.173412	0.573775	-0.022064	-0.005906	0.095125	1.000000	0.000003	0.000043	0.000054	-16.792815	-86.665045	14.273879
04135	9.923320	-0.178822	0.549330	0.004021	-0.011726	0.127427	1.000000	0.000046	0.000026	0.000025	-16.785001	-86.665954	14.268070
04136	9.889597	-0.174642	0.575019	-0.023441	-0.006970	0.095121	1.000000	0.000033	0.000028	0.000028	-16.784249	-86.666544	14.268151
04137	9.923235	-0.179927	0.550509	0.002620	-0.012795	0.127426	1.000000	0.000031	0.000033	0.000038	-16.798328	-86.666339	14.284698
04138	9.899964	-0.183661	0.544330	0.007284	-0.017141	0.103913	1.000000	0.000016	0.000031	0.000021	-16.784287	-86.666921	14.269461
04139	9.876692	-0.187435	0.538168	0.011951	-0.021480	0.080401	1.000000	0.000018	0.000036	0.000041	-16.805210	-86.666275	14.288082
04140	9.927349	-0.169131	0.531947	0.021672	-0.002518	0.130318	1.000000	0.000024	0.000016	0.000040	-16.834938	-86.667766	14.317702
04141	9.882824	-0.209455	0.527586	0.021553	-0.043535	0.086306	1.000000	0.000033	0.000028	0.000028	-16.834070	-86.668355	14.318067
04142	9.893587	-0.165416	0.558096	-0.006467	0.001719	0.098007	1.000000	0.000024	0.000029	0.000007	-16.793182	-86.669630	14.276954
04143	9.893547	-0.165932	0.558653	-0.007156	0.001188	0.098006	1.000000	0.000017	0.000027	0.000048	-16.831758	-86.669700	14.314015
04144	9.922929	-0.184100	0.554623	-0.002235	-0.016531	0.127421	1.000000	0.000033	0.000042	0.000031	-16.827298	-86.668701	14.310361
04145	9.903918	-0.175151	0.528073	0.023578	-0.009001	0.106814	1.000000	0.000026	0.000025	0.000034	-16.838808	-86.669461	14.322109
04146	9.916622	-0.164714	0.567525	-0.014596	0.003394	0.121515	1.000000	0.000033	0.000042	0.000031	-16.834334	-86.668462	14.318442
04147	9.893343	-0.168564	0.561470	-0.009923	-0.000945	0.098004	1.000000	0.000018	0.000036	0.000041	-16.854599	-86.667862	14.339821
04148	9.893302	-0.169025	0.562060	-0.010614	-0.001478	0.098003	1.000000	0.000030	0.000023	0.000008	-16.819372	-86.669673	14.305057
04149	9.874305	-0.159984	0.535449	0.015204	0.006057	0.077405	1.000000	0.000030	0.000039	0.000047	-16.847789	-86.668522	14.333539
04150	9.903680	-0.178255	0.531486	0.020109	-0.011672	0.106818	1.000000	0.000018	0.000036	0.000041	-16.868129	-86.667888	14.353059
04151	9.920651	-0.155045	0.550510	0.003074	0.012596	0.124427	1.000000	0.000029	0.000028	0.000018	-16.847819	-86.668806	14.331352
04152	9.899318	-0.191931	0.553151	-0.002413	-0.024596	0.103900	1.000000	0.000027	0.000034	0.000027	-16.841352	-86.668866	14.325035
04153	9.920566	-0.156006	0.551777	0.001686	0.011527	0.124429	1.000000	0.000020	0.000030	0.000032	-16.847364	-86.669128	14.331282
04154	9.893016	-0.172366	0.566060	-0.014766	-0.004662	0.097997	1.000000	0.000029	0.000042	0.000020	-16.822800	-86.668473	14.306997
04155	9.903462	-0.180717	0.534715	0.016664	-0.014344	0.106821	1.000000	0.000020	0.000017	0.000030	-16.831482	-86.670210	14.314343
04156	9.892928	-0.173377	0.567292	-0.016130	-0.005731	0.097994	1.000000	0.000027	0.000047	0.000029	-16.821290	-86.668680	14.304274
04157	9.920382	-0.158041	0.554499	-0.001071	0.009386	0.124431	1.000000	0.000033	0.000028	0.000028	-16.820830	-86.669308	14.305252
04158	9.892821	-0.174537	0.568796	-0.017519	-0.006793	0.097991	1.000000	0.000007	0.000046	0.000037	-16.829796	-86.667609	14.312028
04159	9.892768	-0.175221	0.569509	-0.018205	-0.007325	0.097989	1.000000	0.000026	0.000025	0.000034	-16.841229	-86.668355	14.323287
04160	9.903223	-0.183702	0.538116	0.013201	-0.017014	0.106822	1.000000	0.000033	0.000028	0.000028	-16.840403	-86.668951	14.323298
04161	9.926400	-0.180953	0.545594	0.007101	-0.013756	0.130330	1.000000	0.000023	0.000034	0.000016	-16.814461	-86.669443	14.298754
04162	9.920154	-0.160793	0.557765	-0.004545	0.006717	0.124433	1.000000	0.000020	0.000030	0.000032	-16.820371	-86.669687	14.304002
04163	9.869382	-0.180388	0.564928	-0.015575	-0.013243	0.074474	1.000000	0.000020	0.000017	0.000030	-16.829062	-86.671424	14.311377
04164	9.892562	-0.177763	0.572288	-0.021660	-0.009988	0.097980	1.000000	0.000027	0.000034	0.000027	-16.822541	-86.671487	14.305009
04165	9.886311	-0.157633	0.584537	-0.033298	0.010494	0.092082	1.000000	0.000021	0.000039	0.000025	-16.810561	-86.671007	14.292330
04166	9.907279	-0.173824	0.521293	0.030193	-0.008375	0.109770	1.000000	0.000048	0.000021	0.000016	-16.788565	-86.672831	14.272828
04167	9.898620	-0.199821	0.562775	-0.012762	-0.032595	0.103869	1.000000	0.000011	0.000046	0.000048	-16.816568	-86.670628	14.296585
04168	9.900979	-0.154535	0.534283	0.017896	0.011564	0.103878	1.000000	0.000027	0.000034	0.000027	-16.810029	-86.670691	14.290200
04169	9.898512	-0.201092	0.564216	-0.014155	-0.033660	0.103864	1.000000	0.000020	0.000030	0.000032	-16.816166	-86.670980	14.297208
04170	9.924109	-0.152494	0.542430	0.011103	0.014277	0.127388	1.000000	0.000027	0.000034	0.000027	-16.809619	-86.671043	14.290816
04171	9.896521	-0.168998	0.556799	-0.005328	-0.001872	0.100924	1.000000	0.000018	0.000049	0.000043	-16.826086	-86.668802	14.306507
04172	9.896477	-0.169508	0.557421	-0.006020	-0.002405	0.100923	1.000000	0.000042	0.000012	0.000012	-16.802147	-86.671684	14.284405
04173	9.896434	-0.170018	0.558043	-0.006700	-0.002937	0.100923	1.000000	0.000018	0.000049	0.000043	-16.818431	-86.669403	14.299112
04174	9.896372	-0.170828	0.558892	-0.007392	-0.003470	0.100922	1.000000	0.000018	0.000036	0.000041	-16.838649	-86.668773	14.318513
04175	9.896327	-0.171434	0.559500	-0.008066	-0.004010	0.100921	1.000000	0.000021	0.000025	0.000023	-16.829051	-86.669812	14.308508
04176	9.896288	-0.171908	0.560037	-0.008758	-0.004542	0.100920	1.000000	0.000033	0.000028	0.000028	-16.828165	-86.670411	14.308462
04177	9.911097	-0.167728	0.508309	0.043791	-0.002440	0.112756	1.000000	0.000020	0.000030	0.000032	-16.833954	-86.670584	14.312046
04178	9.883510	-0.184157	0.522449	0.027363	-0.018575	0.086279	1.000000	0.000020	0.000030	0.000032	-16.839795	-86.670830	14.317228
04179	9.900486	-0.160948	0.541469	0.010316	0.005690	0.103894	1.000000	0.000027	0.000034	0.000027	-16.833813	-86.670971	14.312853
04180	9.919330	-0.170807	0.569326	-0.016944	-0.002896	0.124421	1.000000	0.000030	0.000023	0.000008	-16.798481	-86.672787	14.277991
04181	9.883382	-0.185506	0.524388	0.025293	-0.020175	0.086282	1.000000	0.000018	0.000049	0.000043	-16.814278	-86.670468	14.291734
04182	9.900359	-0.162351	0.543375	0.008261	0.004087	0.103897	1.000000	0.000022	0.000011	0.000020	-16.809477	-86.673180	14.286456
04183	9.883304	-0.186592	0.525468	0.023908	-0.021239	0.086283	1.000000	0.000014	0.000036	0.000030	-16.809965	-86.672905	14.285741
04184	9.902124	-0.196765	0.553505	-0.003360	-0.029824	0.106800	1.000000	0.000026	0.000039	0.000036	-16.817727	-86.672096	14.293505
04185	9.870820	-0.146547	0.549926	0.000709	0.019746	0.074506	1.000000	0.000027	0.000034	0.000027	-16.810146	-86.672091	14.286421
04186	9.900179	-0.164543	0.545992	0.005508	0.001949	0.103899	1.000000	0.000027	0.000034	0.000027	-16.803530	-86.672157	14.279963
04187	9.906324	-0.185671	0.535175	0.015730	-0.019613	0.109788	1.000000	0.000027	0.000034	0.000027	-16.797170	-86.672214	14.273390
04188	9.900085	-0.165585	0.547372	0.004126	0.000885	0.103900	1.000000	0.000039	0.000037	0.000032	-16.798182	-86.671759	14.275905
04189	9.876814	-0.169425	0.541342	0.008867	-0.003407	0.080397	1.000000	0.000018	0.000049	0.000043	-16.814859	-86.669528	14.291393
04190	9.916990	-0.143138	0.567463	-0.013595	0.024616	0.121517	1.000000	0.000010	0.000036	0.000019	-16.794913	-86.669584	14.269575
04191	9.887258	-0.178368	0.511021	0.039556	-0.013697	0.089286	1.000000	0.000034	0.000037	0.000021	-16.775766	-86.669432	14.251005
04192	9.861758	-0.175547	0.595876	-0.046414	-0.007583	0.068504	1.000000	0.000033	0.000028	0.000028	-16.774815	-86.670034	14.250899
04193	9.910386	-0.176268	0.519161	0.032737	-0.011001	0.112793	1.000000	0.000020	0.000030	0.000032	-16.781303	-86.670269	14.255445
04194	9.861664	-0.176653	0.597102	-0.047793	-0.008632	0.068497	1.000000	0.000027	0.000034	0.000027	-16.774657	-86.670337	14.248958
04195	9.996953	-0.144047	0.559539	-0.001299	0.023998	0.200919	1.000000	0.000036	0.000032	0.000012	-16.741670	-86.671065	14.215967
04196	9.825701	-0.191587	0.552852	-0.006230	-0.026432	0.030382	1.000000	0.000027	0.000047	0.000029	-16.731284	-86.669543	14.205717
04197	9.933696	-0.122550	0.590522	-0.034750	0.045695	0.139135	1.000000	0.000033	0.000014	0.000026	-16.733872	-86.671682	14.208411
04198	9.857569	-0.164128	0.520081	0.029280	-0.000138	0.059913	1.000000	0.000021	0.000039	0.000025	-16.721518	-86.671216	14.195532
04199	9.935415	-0.157042	0.600798	-0.046403	0.011795	0.142000	1.000000	0.000017	0.000041	0.000050	-16.756554	-86.669721	14.229068
04200	9.865462	-0.219532	0.519035	0.028521	-0.055081	0.068663	1.000000	0.000033	0.000028	0.000028	-16.755571	-86.670325	14.228931
04201	9.916487	-0.148814	0.574758	-0.021165	0.018763	0.121516	1.000000	0.000020	0.000030	0.000032	-16.760024	-86.670498	14.233251
04202	9.853000	-0.179403	0.543234	0.005378	-0.014064	0.056895	1.000000	0.000039	0.000037	0.000032	-16.760975	-86.670047	14.235709
04203	9.893181	-0.153168	0.569213	-0.017102	0.013942	0.098014	1.000000	0.000007	0.000033	0.000035	-16.772904	-86.669976	14.247685
04204	9.941354	-0.180699	0.592577	-0.038974	-0.011933	0.147868	1.000000	0.000042	0.000026	0.000014	-16.745143	-86.671274	14.221742
04205	9.874000	-0.197138	0.481441	0.067401	-0.034177	0.074719	1.000000	0.000004	0.000043	0.000053	-16.786338	-86.669418	14.260761
04206	9.886855	-0.134080	0.582733	-0.030055	0.033395	0.092132	1.000000	0.000039	0.000035	-0.000004	-16.720435	-86.670341	14.196280
04207	9.911543	-0.217063	0.537547	0.012785	-0.051339	0.115654	1.000000	-0.000014	0.000032	0.000044	-16.751225	-86.670049	14.223832
04208	9.894733	-0.189047	0.581580	-0.030833	-0.021561	0.100854	1.000000	0.000059	0.000038	0.000024	-16.733035	-86.669773	14.209468
04209	9.926682	-0.161104	0.548320	0.007389	0.006120	0.130428	1.000000	0.000008	0.000027	0.000026	-16.767231	-86.657804	14.265668
04210	9.899033	-0.177445	0.562479	-0.009001	-0.009948	0.103892	1.000000	0.000026	0.000039	0.000036	-16.774889	-86.656973	14.273356
04211	9.903381	-0.165389	0.542787	0.011488	0.001311	0.106929	1.000000	0.000027	0.000034	0.000026	-16.767700	-86.656926	14.265019
04212	9.880128	-0.169038	0.536568	0.016262	-0.002961	0.083430	1.000000	0.000039	0.000037	0.000032	-16.768659	-86.656449	14.267509
04213	9.905060	-0.199870	0.553151	-0.000162	-0.032592	0.109766	1.000000	0.000007	0.000033	0.000035	-16.781038	-86.656301	14.277405
04214	9.909424	-0.187627	0.533343	0.020311	-0.021336	0.112809	1.000000	0.000025	0.000028	0.000007	-16.740155	-86.657559	14.236334
04215	9.898796	-0.180066	0.565803	-0.012433	-0.012593	0.103885	1.000000	0.000024	0.000030	0.000042	-16.767196	-86.657508	14.262558
04216	9.869366	-0.163216	0.570930	-0.018531	0.004192	0.074507	1.000000	0.000020	0.000030	0.000032	-16.772908	-86.657732	14.267639
04217	9.913706	-0.176730	0.514713	0.039402	-0.011141	0.115860	1.000000	0.000033	0.000028	0.000028	-16.771821	-86.658265	14.266586
04218	9.909504	-0.137411	0.597498	-0.041703	0.031658	0.115627	1.000000	0.000021	0.000039	0.000025	-16.759479	-86.657775	14.253747
04219	9.885990	-0.193514	0.529706	0.022334	-0.027723	0.089311	1.000000	0.000020	0.000044	0.000034	-16.761394	-86.656396	14.254729
04220	9.896785	-0.149824	0.560272	-0.005565	0.017590	0.101058	1.000000	0.000024	0.000030	0.000042	-16.787036	-86.656281	14.280270
04221	9.885896	-0.194672	0.531033	0.020954	-0.028782	0.089311	1.000000	0.000062	0.000027	0.000005	-16.740958	-86.657750	14.238000
04222	9.873497	-0.153836	0.554586	-0.001467	0.012803	0.077561	1.000000	-0.000008	0.000040	0.000048	-16.774272	-86.656393	14.267527
04223	9.926026	-0.168932	0.557757	-0.002232	-0.001325	0.130432	1.000000	0.000023	0.000034	0.000016	-16.747771	-86.656741	14.239590
04224	9.871652	-0.121589	0.547024	0.007474	0.044579	0.074754	1.000000	0.000014	0.000036	0.000030	-16.747765	-86.656432	14.238272
04225	9.885704	-0.196748	0.533826	0.018215	-0.030906	0.089310	1.000000	0.000027	0.000034	0.000026	-16.740968	-86.656447	14.231054
04226	9.892078	-0.165438	0.584736	-0.030840	0.002642	0.097991	1.000000	0.000027	0.000034	0.000026	-16.734278	-86.656493	14.224553
04227	9.913243	-0.182010	0.521749	0.032513	-0.016471	0.115878	1.000000	0.000021	0.000039	0.000025	-16.722513	-86.656083	14.213393
04228	9.873217	-0.156890	0.558712	-0.005576	0.009629	0.077563	1.000000	0.000039	0.000023	0.000030	-16.727171	-86.657198	14.219608
04229	9.913150	-0.183213	0.523098	0.031127	-0.017537	0.115881	1.000000	0.000018	0.000049	0.000043	-16.743609	-86.655011	14.236174
04230	9.902488	-0.175736	0.555664	-0.001585	-0.008772	0.106932	1.000000	0.000010	0.000022	0.000017	-16.727396	-86.656630	14.218142
04231	9.873074	-0.158552	0.560763	-0.007642	0.008046	0.077563	1.000000	0.000046	0.000040	0.000027	-16.716511	-86.655993	14.209134
04232	9.919416	-0.153001	0.575475	-0.019304	0.014958	0.124556	1.000000	0.000013	0.000041	0.000039	-16.730733	-86.654811	14.221890
04233	9.906782	-0.164715	0.537450	0.017515	0.001398	0.110014	1.000000	0.000035	0.000037	0.000021	-16.711433	-86.654709	14.204937
04234	9.896115	-0.157251	0.569971	-0.015192	0.010172	0.101059	1.000000	0.000024	0.000030	0.000042	-16.736997	-86.654598	14.230402
04235	9.879033	-0.181681	0.552368	0.000457	-0.015143	0.083432	1.000000	0.000027	0.000047	0.000029	-16.726904	-86.653087	14.220653
04236	9.906639	-0.166595	0.539507	0.015447	-0.000198	0.110018	1.000000	0.000013	0.000013	0.000035	-16.748641	-86.655082	14.240967
04237	9.874508	-0.195307	0.573716	-0.022083	-0.027961	0.080338	1.000000	0.000036	0.000018	0.000010	-16.719035	-86.657387	14.212117
04238	9.895952	-0.159412	0.572203	-0.017938	0.008054	0.101056	1.000000	0.000018	0.000036	0.000041	-16.738912	-86.656742	14.231212
04239	9.902061	-0.180856	0.561615	-0.007782	-0.013545	0.106924	1.000000	0.000031	0.000047	0.000039	-16.748765	-86.654854	14.240932
04240	9.912869	-0.137001	0.592132	-0.035649	0.031785	0.118681	1.000000	0.000022	0.000025	0.000023	-16.740117	-86.655956	14.231813
04241	9.884943	-0.205563	0.544501	0.007180	-0.039398	0.089294	1.000000	0.000029	0.000028	0.000017	-16.718838	-86.656902	14.212105
04242	9.889591	-0.140883	0.586343	-0.031522	0.027009	0.095185	1.000000	0.000014	0.000036	0.000030	-16.718745	-86.656596	14.210703
04243	9.883158	-0.173192	0.536662	0.016153	-0.007639	0.086529	1.000000	0.000041	0.000017	0.000021	-16.708269	-86.658539	14.202187
04244	9.868011	-0.178158	0.589581	-0.037716	-0.010591	0.074448	1.000000	0.000027	0.000047	0.000029	-16.697725	-86.657000	14.191815
04245	9.901782	-0.183830	0.565541	-0.011897	-0.016743	0.106915	1.000000	0.000018	0.000036	0.000041	-16.717336	-86.656333	14.210674
04246	9.895562	-0.163767	0.577692	-0.023415	0.003805	0.101047	1.000000	0.000021	0.000039	0.000025	-16.704875	-86.655848	14.197723
04247	9.906158	-0.172301	0.546499	0.007906	-0.006059	0.110025	1.000000	0.000022	0.000025	0.000023	-16.696197	-86.656934	14.188370
04248	9.901641	-0.185290	0.567538	-0.013957	-0.018335	0.106909	1.000000	0.000010	0.000036	0.000019	-16.676127	-86.656967	14.166463
04249	9.924786	-0.182595	0.575242	-0.020160	-0.015163	0.130400	1.000000	0.000035	0.000037	0.000021	-16.656908	-86.656847	14.148880
04250	9.878354	-0.189291	0.561877	-0.009820	-0.023101	0.083412	1.000000	0.000019	0.000022	0.000039	-16.680501	-86.657792	14.171714
04251	9.918547	-0.162972	0.587599	-0.032353	0.004858	0.124532	1.000000	0.000029	0.000014	0.000015	-16.663085	-86.660253	14.153911
04252	9.899787	-0.153980	0.560882	-0.006346	0.012365	0.104162	1.000000	0.000012	0.000055	0.000041	-16.673446	-86.657488	14.162790
04253	9.905891	-0.175381	0.550346	0.003792	-0.009249	0.110025	1.000000	0.000045	0.000031	0.000034	-16.680145	-86.657530	14.171045
04254	9.905850	-0.175903	0.550914	0.003104	-0.009781	0.110025	1.000000	0.000022	0.000025	0.000023	-16.671422	-86.658633	14.161854
04255	9.882620	-0.179491	0.544435	0.007935	-0.014008	0.086532	1.000000	0.000026	0.000025	0.000033	-16.683039	-86.659410	14.173511
04256	9.905776	-0.177011	0.551890	0.001726	-0.010841	0.110024	1.000000	0.000014	0.000022	0.000028	-16.686666	-86.660693	14.175851
04257	9.905738	-0.177483	0.552426	0.001039	-0.011374	0.110023	1.000000	0.000041	0.000031	0.000023	-16.673084	-86.661100	14.164444
04258	9.904028	-0.144655	0.544036	0.010719	0.020915	0.107299	1.000000	0.000027	0.000034	0.000026	-16.666251	-86.661152	14.157807
04259	9.886948	-0.168995	0.526384	0.026369	-0.004398	0.089670	1.000000	0.000026	0.000039	0.000035	-16.674256	-86.660334	14.165389
04260	9.903931	-0.145822	0.545482	0.009346	0.019856	0.107302	1.000000	0.000027	0.000034	0.000026	-16.667416	-86.660386	14.158745
04261	9.905546	-0.179767	0.555119	-0.001722	-0.013494	0.110021	1.000000	0.000030	0.000025	0.000044	-16.698902	-86.660856	14.191626
04262	9.910017	-0.167690	0.535115	0.018772	-0.002301	0.113165	1.000000	0.000036	0.000018	0.000010	-16.669216	-86.663189	14.163129
04263	9.882282	-0.183737	0.549128	0.002438	-0.018252	0.086528	1.000000	0.000026	0.000039	0.000035	-16.676276	-86.662362	14.170857
04264	9.928611	-0.178252	0.563859	-0.009318	-0.011403	0.133508	1.000000	0.000014	0.000036	0.000030	-16.676073	-86.662059	14.169349
04265	9.886692	-0.172438	0.530073	0.022249	-0.007592	0.089678	1.000000	0.000038	0.000028	0.000039	-16.694798	-86.662306	14.189841
04266	9.899170	-0.161918	0.569469	-0.015959	0.004940	0.104157	1.000000	0.000020	0.000030	0.000032	-16.700292	-86.662538	14.194714
04267	9.903636	-0.149881	0.549724	0.004534	0.016134	0.107312	1.000000	0.000021	0.000039	0.000025	-16.688380	-86.662076	14.182067
04268	9.909744	-0.171226	0.539041	0.014645	-0.005496	0.113171	1.000000	0.000024	0.000030	0.000042	-16.713835	-86.661970	14.207430
04269	9.899024	-0.163801	0.571471	-0.018011	0.003355	0.104154	1.000000	0.000045	0.000031	0.000034	-16.720107	-86.661978	14.214936
04270	9.886463	-0.175482	0.533332	0.018824	-0.010245	0.089683	1.000000	0.000010	0.000036	0.000019	-16.699902	-86.662014	14.192899
04271	9.869588	-0.146957	0.577214	-0.024645	0.019716	0.074807	1.000000	0.000048	0.000034	0.000018	-16.674637	-86.662311	14.170972
04272	9.892527	-0.196907	0.523408	0.028231	-0.032407	0.095540	1.000000	0.000021	0.000039	0.000025	-16.662031	-86.661831	14.157882
04273	9.909507	-0.173664	0.542590	0.011210	-0.008154	0.113173	1.000000	0.000033	0.000042	0.000030	-16.657085	-86.660806	14.153430
04274	9.880115	-0.156522	0.547703	0.005283	0.008738	0.083830	1.000000	0.000027	0.000033	0.000026	-16.650181	-86.660861	14.146726
04275	9.903246	-0.154136	0.555540	-0.000957	0.011890	0.107319	1.000000	0.000018	0.000049	0.000043	-16.666538	-86.658661	14.162426
04276	9.915503	-0.196204	0.533509	0.019927	-0.030854	0.119028	1.000000	0.000027	0.000020	0.000024	-16.663441	-86.660303	14.159546
04277	9.915467	-0.196690	0.533995	0.019241	-0.031388	0.119028	1.000000	0.000033	0.000028	0.000028	-16.662036	-86.660875	14.159106
04278	9.909281	-0.176363	0.545851	0.007770	-0.010814	0.113174	1.000000	0.000048	0.000021	0.000016	-16.639916	-86.662695	14.139526
04279	9.904693	-0.189512	0.566966	-0.014112	-0.023046	0.109993	1.000000	0.000011	0.000046	0.000048	-16.668663	-86.660673	14.166766
04280	9.904634	-0.190224	0.567762	-0.014800	-0.023577	0.109991	1.000000	0.000027	0.000033	0.000026	-16.661733	-86.660729	14.160037
04281	9.885941	-0.181347	0.540994	0.011250	-0.016083	0.089686	1.000000	0.000019	0.000036	0.000041	-16.681419	-86.660154	14.180606
04282	9.881339	-0.194567	0.562212	-0.010626	-0.028314	0.086499	1.000000	0.000033	0.000042	0.000030	-16.676368	-86.659160	14.176422
04283	9.909021	-0.179630	0.549494	0.004302	-0.013470	0.113173	1.000000	0.000038	0.000028	0.000039	-16.695780	-86.659482	14.198084
04284	9.879634	-0.162730	0.554542	-0.001596	0.003440	0.083835	1.000000	0.000024	0.000044	0.000044	-16.717280	-86.657793	14.219478
04285	9.881169	-0.196654	0.564466	-0.012703	-0.029894	0.086492	1.000000	0.000022	0.000039	0.000025	-16.705331	-86.657324	14.206628
04286	9.902721	-0.160713	0.562993	-0.008536	0.006054	0.107321	1.000000	0.000048	0.000021	0.000016	-16.683243	-86.659147	14.187083
04287	9.896534	-0.140505	0.574903	-0.020000	0.026647	0.101470	1.000000	0.000019	0.000036	0.000041	-16.703922	-86.658545	14.206753
04288	9.896484	-0.141084	0.575625	-0.020685	0.026116	0.101470	1.000000	0.000035	0.000037	0.000021	-16.684614	-86.658426	14.188468
04289	9.896439	-0.141629	0.576263	-0.021365	0.025586	0.101470	1.000000	0.000013	0.000027	0.000037	-16.702198	-86.658813	14.204571
04290	9.902539	-0.162903	0.565562	-0.011286	0.003938	0.107319	1.000000	0.000035	0.000037	0.000021	-16.682880	-86.658694	14.186277
04291	9.860697	-0.156979	0.531638	0.020363	0.007768	0.063554	1.000000	0.000019	0.000022	0.000038	-16.706379	-86.659665	14.209738
04292	9.897880	-0.176583	0.587255	-0.033856	-0.008813	0.104110	1.000000	0.000016	0.000044	0.000023	-16.687956	-86.658654	14.190153
04293	9.891677	-0.156345	0.599451	-0.045292	0.011778	0.098259	1.000000	0.000033	0.000042	0.000030	-16.682511	-86.657597	14.184952
04294	9.906927	-0.152592	0.547693	0.007170	0.013497	0.110529	1.000000	0.000007	0.000005	0.000031	-16.702202	-86.660648	14.202557
04295	9.872987	-0.148059	0.572998	-0.019897	0.018741	0.077984	1.000000	0.000001	0.000052	0.000035	-16.704530	-86.658454	14.203466
04296	9.902258	-0.166329	0.569467	-0.015406	0.000747	0.107314	1.000000	0.000022	0.000025	0.000022	-16.695674	-86.659564	14.194148
04297	9.885183	-0.190502	0.551600	0.000247	-0.024568	0.089675	1.000000	0.000022	0.000025	0.000022	-16.686432	-86.660660	14.184920
04298	9.879002	-0.170235	0.563465	-0.011193	-0.003974	0.083828	1.000000	0.000033	0.000028	0.000028	-16.685157	-86.661255	14.184532
04299	9.906710	-0.155200	0.550867	0.003732	0.010832	0.110534	1.000000	0.000021	0.000053	0.000027	-16.668725	-86.659193	14.167713
04300	9.889629	-0.179299	0.533149	0.019382	-0.014481	0.092896	1.000000	0.000042	0.000012	0.000012	-16.644710	-86.662069	14.145576
04301	9.902046	-0.168602	0.572482	-0.018831	-0.001907	0.107308	1.000000	0.000030	0.000039	0.000046	-16.671869	-86.660885	14.172918
04302	9.906585	-0.156888	0.552637	0.001679	0.009237	0.110536	1.000000	0.000019	0.000022	0.000038	-16.695282	-86.661836	14.195578
04303	9.908090	-0.190751	0.562373	-0.009466	-0.024092	0.113149	1.000000	0.000022	0.000039	0.000024	-16.683240	-86.661385	14.182990
04304	9.889451	-0.181824	0.535598	0.016636	-0.016602	0.092898	1.000000	0.000032	0.000033	0.000037	-16.696158	-86.661109	14.196644
04305	9.884813	-0.195006	0.556635	-0.005251	-0.028805	0.089662	1.000000	0.000026	0.000025	0.000033	-16.707217	-86.661895	14.208342
04306	9.895500	-0.203952	0.525421	0.026001	-0.038797	0.098741	1.000000	0.000024	0.000030	0.000042	-16.732480	-86.661796	14.233520
04307	9.923239	-0.189168	0.512459	0.040914	-0.024020	0.125462	1.000000	0.000013	0.000013	0.000035	-16.753417	-86.663817	14.254549
04308	9.878550	-0.176266	0.569515	-0.018052	-0.009271	0.083814	1.000000	0.000016	0.000044	0.000023	-16.734872	-86.662810	14.234847
04309	9.929453	-0.158185	0.564003	-0.008737	0.009169	0.134020	1.000000	0.000022	0.000039	0.000024	-16.723152	-86.662318	14.221441
04310	9.883057	-0.164555	0.550490	0.001777	0.001346	0.087057	1.000000	0.000048	0.000021	0.000016	-16.701014	-86.664148	14.201850
04311	9.893752	-0.173281	0.519398	0.033006	-0.008652	0.096146	1.000000	0.000007	0.000046	0.000037	-16.709910	-86.662546	14.209946
04312	9.889087	-0.186488	0.540698	0.011119	-0.020848	0.092897	1.000000	0.000026	0.000039	0.000035	-16.717052	-86.661736	14.217143
04313	9.912218	-0.184030	0.548398	0.004826	-0.017735	0.116378	1.000000	0.000022	0.000025	0.000022	-16.708381	-86.662852	14.208152
04314	9.870432	-0.178016	0.514493	0.036552	-0.013889	0.072670	1.000000	0.000033	0.000042	0.000030	-16.703161	-86.661866	14.203808
04315	9.912124	-0.185051	0.549765	0.003450	-0.018800	0.116377	1.000000	0.000008	0.000027	0.000026	-16.700797	-86.662612	14.199712
04316	9.888905	-0.188547	0.543308	0.008371	-0.022971	0.092895	1.000000	0.000027	0.000033	0.000026	-16.693719	-86.662676	14.192843
04317	9.888865	-0.188841	0.543929	0.007683	-0.023500	0.092895	1.000000	0.000025	0.000028	0.000006	-16.652743	-86.663953	14.151839
04318	9.916629	-0.173517	0.531040	0.022586	-0.008739	0.119637	1.000000	0.000048	0.000021	0.000016	-16.630547	-86.665782	14.132192
04319	9.907348	-0.198935	0.572519	-0.020506	-0.032576	0.113108	1.000000	0.000014	0.000036	0.000030	-16.630474	-86.665464	14.130310
04320	9.899497	-0.198253	0.514018	0.037548	-0.034581	0.101996	1.000000	0.000033	0.000042	0.000030	-16.625244	-86.664479	14.125958
04321	9.888685	-0.190396	0.546644	0.004929	-0.025615	0.092891	1.000000	0.000036	0.000045	0.000014	-16.588440	-86.663693	14.090694
04322	9.905677	-0.167069	0.565781	-0.012094	-0.001368	0.110533	1.000000	0.000045	0.000031	0.000034	-16.594678	-86.663780	14.099174
04323	9.910268	-0.155051	0.545870	0.008425	0.009748	0.113805	1.000000	0.000035	0.000023	0.000019	-16.578893	-86.665249	14.084973
04324	9.904089	-0.134774	0.557894	-0.002976	0.030362	0.107970	1.000000	0.000039	0.000050	0.000034	-16.575535	-86.663216	14.083161
04325	9.886989	-0.159074	0.540419	0.012669	0.005053	0.090328	1.000000	0.000022	0.000039	0.000024	-16.562859	-86.662769	14.070642
04326	9.880806	-0.138980	0.552478	0.001273	0.025670	0.084494	1.000000	0.000030	0.000039	0.000046	-16.589909	-86.661628	14.098279
04327	9.886887	-0.160385	0.541893	0.011299	0.003993	0.090330	1.000000	0.000041	0.000031	0.000023	-16.576452	-86.662046	14.086498
04328	9.897756	-0.116256	0.572222	-0.016430	0.049390	0.102141	1.000000	0.000035	0.000037	0.000021	-16.556970	-86.661934	14.068050
04329	9.899200	-0.150009	0.582017	-0.027620	0.016069	0.104691	1.000000	0.000026	0.000025	0.000033	-16.568311	-86.662740	14.079837
04330	9.903799	-0.138172	0.562194	-0.007098	0.027179	0.107978	1.000000	0.000026	0.000039	0.000035	-16.575383	-86.661935	14.086968
04331	9.922261	-0.148410	0.590619	-0.034612	0.018633	0.128166	1.000000	0.000019	0.000049	0.000042	-16.590692	-86.659668	14.101052
04332	9.899034	-0.152002	0.584327	-0.029667	0.014479	0.104687	1.000000	0.000016	0.000030	0.000021	-16.575939	-86.660247	14.085162
