// Start Time: Unknown
// Update Rate: 100.0Hz
// Filter Profile: human (46.1)
// Firmware Version: 4.4.0
PacketCounter	Acc_X	Acc_Y	Acc_Z	FreeAcc_X	FreeAcc_Y	FreeAcc_Z	OriInc_q0	OriInc_q1	OriInc_q2	OriInc_q3	Roll	Pitch	Yaw
63076	9.875961	-0.739926	0.648024	0.000000	-0.000000	0.112132	1.000000	0.000024	0.000030	0.000040	-48.787190	-84.315357	52.987822
63077	9.881739	-0.717343	0.652925	-0.000000	-0.000000	0.116545	1.000000	0.000024	0.000018	0.000034	-47.687363	-84.395930	51.555595
63078	9.875799	-0.741244	0.648991	0.001932	-0.013148	0.112123	1.000000	0.000021	0.000025	0.000031	-48.239636	-84.354254	52.272776
63079	9.892738	-0.736424	0.597917	0.053918	-0.002917	0.125279	1.000000	0.000031	0.000023	0.000035	-48.243287	-84.349497	52.279982
63080	9.875641	-0.742509	0.649950	0.001912	-0.013149	0.112123	1.000000	0.000024	0.000018	0.000034	-48.252021	-84.345265	52.291574
63081	9.869863	-0.760075	0.612240	0.040954	-0.027838	0.105190	1.000000	0.000040	0.000039	0.000034	-48.239368	-84.339401	52.283447
63082	9.892490	-0.738343	0.599650	0.053886	-0.002908	0.125279	1.000000	0.000031	0.000023	0.000035	-48.243897	-84.334639	52.291528
63083	9.869684	-0.761530	0.613303	0.040943	-0.027828	0.105190	1.000000	0.000011	0.000014	0.000051	-48.269790	-84.329253	52.318829
63084	9.892332	-0.739814	0.600440	0.053835	-0.002886	0.125279	1.000000	0.000038	0.000023	0.000018	-48.262652	-84.326098	52.315970
63085	9.875607	-0.733017	0.584595	0.068519	0.004152	0.107089	1.000000	0.000024	0.000018	0.000034	-48.270419	-84.321789	52.326589
63086	9.864557	-0.709419	0.607131	0.044038	0.025900	0.095832	1.000000	0.000027	0.000030	0.000032	-48.272536	-84.317154	52.331793
63087	9.892114	-0.741529	0.601913	0.053712	-0.002864	0.125280	1.000000	0.000024	0.000018	0.000034	-48.280275	-84.312845	52.342384
63088	9.858344	-0.740185	0.637654	0.016218	-0.006054	0.093933	1.000000	0.000024	0.000025	0.000022	-48.282263	-84.309751	52.347111
63089	9.875316	-0.735284	0.586647	0.068203	0.004177	0.107091	1.000000	0.000027	0.000030	0.000032	-48.277959	-84.304783	52.345926
63090	9.880921	-0.718955	0.625529	0.028896	0.018871	0.114024	1.000000	0.000031	0.000023	0.000035	-48.293865	-84.300937	52.365327
63091	9.891808	-0.743889	0.604022	0.053253	-0.002855	0.125282	1.000000	0.000017	0.000025	0.000040	-48.300623	-84.295653	52.374130
63092	9.891534	-0.750834	0.638421	0.019575	-0.011501	0.127798	1.000000	0.000028	0.000018	0.000025	-48.316747	-84.293367	52.393399
63093	9.852277	-0.760016	0.601949	0.054655	-0.020749	0.087005	1.000000	0.000031	0.000029	0.000023	-48.305514	-84.289162	52.385654
63094	9.880616	-0.721307	0.627631	0.028133	0.018886	0.114026	1.000000	0.000024	0.000030	0.000040	-48.328307	-84.284790	52.411092
63095	9.891507	-0.746129	0.606194	0.052489	-0.002841	0.125287	1.000000	0.000024	0.000025	0.000022	-48.321243	-84.281032	52.406811
63096	9.874576	-0.745824	0.624225	0.033334	-0.004433	0.109612	1.000000	0.000024	0.000012	0.000046	-48.366955	-84.277935	52.455338
63097	9.874505	-0.746384	0.624674	0.033334	-0.004433	0.109612	1.000000	0.000034	0.000029	0.000014	-48.348831	-84.274495	52.441071
63098	9.891279	-0.747899	0.607730	0.051405	-0.002820	0.125292	1.000000	0.000017	0.000037	0.000046	-48.377351	-84.269738	52.471403
63099	9.840822	-0.739314	0.627412	0.028800	0.001024	0.075750	1.000000	0.000050	0.000032	0.000019	-48.358701	-84.265616	52.458456
63100	9.880146	-0.724746	0.631070	0.026373	0.018927	0.114031	1.000000	0.000031	0.000023	0.000035	-48.393829	-84.263147	52.496956
63101	9.880286	-0.719088	0.597625	0.059708	0.027561	0.111524	1.000000	0.000031	0.000023	0.000035	-48.397199	-84.258390	52.503882
63102	9.863117	-0.725063	0.649813	0.006969	0.017276	0.098352	1.000000	0.000034	0.000034	0.000033	-48.421413	-84.255897	52.531795
63103	9.880110	-0.720373	0.598979	0.058949	0.027506	0.111528	1.000000	0.000020	0.000036	0.000037	-48.416049	-84.249958	52.528745
63104	9.863154	-0.720169	0.617177	0.039491	0.025798	0.095851	1.000000	0.000021	0.000018	0.000043	-48.463711	-84.248250	52.578562
63105	9.868977	-0.697423	0.622155	0.033781	0.049122	0.100265	1.000000	0.000047	0.000039	0.000016	-48.437313	-84.243919	52.557428
63106	9.879628	-0.728562	0.634770	0.023860	0.018527	0.114038	1.000000	0.000037	0.000022	0.000048	-48.485730	-84.242523	52.609971
63107	9.879535	-0.729392	0.635269	0.023859	0.018528	0.114038	1.000000	0.000017	0.000025	0.000039	-48.492230	-84.237236	52.618513
63108	9.890417	-0.754354	0.613744	0.047326	-0.003498	0.125312	1.000000	0.000024	0.000018	0.000034	-48.529386	-84.237393	52.658785
63109	9.873469	-0.753994	0.631877	0.028687	-0.005095	0.109627	1.000000	0.000027	0.000030	0.000032	-48.524713	-84.232423	52.657236
63110	9.862419	-0.730354	0.654473	0.003340	0.016366	0.098356	1.000000	0.000037	0.000028	0.000036	-48.559952	-84.231941	52.696863
63111	9.890163	-0.756267	0.615482	0.046331	-0.003768	0.125317	1.000000	0.000037	0.000028	0.000036	-48.558757	-84.226736	52.699939
63112	9.856570	-0.748837	0.617271	0.041355	0.001458	0.091455	1.000000	0.000017	0.000019	0.000052	-48.619514	-84.225510	52.761940
63113	9.856491	-0.749453	0.617782	0.041358	0.001458	0.091455	1.000000	0.000034	0.000029	0.000014	-48.601239	-84.222066	52.747521
63114	9.878942	-0.734004	0.639157	0.019896	0.017429	0.114048	1.000000	0.000017	0.000037	0.000046	-48.639185	-84.220472	52.788544
63115	9.878848	-0.734834	0.639656	0.019902	0.017426	0.114048	1.000000	0.000038	0.000010	0.000042	-48.657325	-84.216122	52.811135
63116	9.862150	-0.728204	0.623770	0.033494	0.024110	0.095878	1.000000	0.000018	0.000031	0.000027	-48.687205	-84.216925	52.843960
63117	9.878955	-0.729661	0.606739	0.052135	0.025697	0.111571	1.000000	0.000024	0.000025	0.000022	-48.679352	-84.213178	52.838926
63118	9.878883	-0.730159	0.607313	0.050869	0.025302	0.111579	1.000000	0.000027	0.000030	0.000032	-48.718846	-84.214462	52.881800
63119	9.878806	-0.730777	0.607824	0.050873	0.025294	0.111579	1.000000	0.000024	0.000018	0.000034	-48.725520	-84.210170	52.891366
63120	9.901542	-0.708970	0.595011	0.062366	0.049717	0.131701	1.000000	0.000038	0.000023	0.000018	-48.762919	-84.214186	52.933852
63121	9.878662	-0.731873	0.608836	0.049453	0.024791	0.111587	1.000000	0.000020	0.000030	0.000049	-48.771154	-84.207730	52.944519
63122	9.878582	-0.732495	0.609400	0.047983	0.024338	0.111596	1.000000	0.000038	0.000023	0.000018	-48.812495	-84.211705	52.988833
63123	9.894850	-0.746624	0.660216	-0.000068	0.008649	0.132227	1.000000	0.000004	0.000027	0.000044	-48.821546	-84.205928	52.998453
63124	9.878416	-0.733871	0.610431	0.046826	0.023706	0.111603	1.000000	0.000041	0.000021	0.000039	-48.859150	-84.207862	53.042690
63125	9.884264	-0.711243	0.615276	0.041104	0.047013	0.116019	1.000000	0.000021	0.000025	0.000031	-48.858213	-84.203423	53.044233
63126	9.894872	-0.742301	0.627853	0.030554	0.016031	0.129773	1.000000	0.000031	0.000029	0.000023	-48.896406	-84.207445	53.085969
63127	9.861305	-0.734540	0.629674	0.026641	0.021473	0.095905	1.000000	0.000031	0.000023	0.000035	-48.899026	-84.202764	53.092208
63128	9.878395	-0.729863	0.578618	0.077443	0.031068	0.109168	1.000000	0.000034	0.000023	0.000026	-48.926209	-84.205746	53.124301
63129	9.878040	-0.736771	0.613020	0.044099	0.022413	0.111618	1.000000	0.000021	0.000018	0.000043	-48.939573	-84.200752	53.140224
63130	9.894827	-0.738645	0.595990	0.060965	0.023321	0.127340	1.000000	0.000017	0.000037	0.000046	-48.997203	-84.203270	53.199870
63131	9.878137	-0.732124	0.580159	0.075676	0.030355	0.109184	1.000000	0.000018	0.000013	0.000033	-49.008195	-84.199499	53.213081
63132	9.844005	-0.736884	0.649763	0.003740	0.017770	0.080204	1.000000	0.000041	0.000028	0.000027	-49.036052	-84.203364	53.247724
63133	9.877705	-0.739509	0.615116	0.040961	0.020928	0.111635	1.000000	0.000031	0.000023	0.000035	-49.038480	-84.198733	53.253807
63134	9.860733	-0.739099	0.633279	0.020708	0.018489	0.095925	1.000000	0.000027	0.000030	0.000032	-49.079558	-84.203424	53.300316
63135	9.877247	-0.747000	0.650200	0.005965	0.011408	0.114075	1.000000	0.000031	0.000023	0.000035	-49.082101	-84.198848	53.306541
63136	9.866806	-0.710814	0.604782	0.046945	0.049709	0.097923	1.000000	0.000027	0.000030	0.000032	-49.115279	-84.201953	53.343536
63137	9.883312	-0.718695	0.621872	0.032190	0.042622	0.116071	1.000000	0.000040	0.000039	0.000033	-49.101977	-84.196344	53.334906
63138	9.876986	-0.748837	0.652061	0.002646	0.009660	0.114079	1.000000	0.000018	0.000013	0.000033	-49.167604	-84.203809	53.405461
63139	9.883156	-0.719897	0.622956	0.030220	0.041587	0.116082	1.000000	0.000024	0.000036	0.000028	-49.155245	-84.198954	53.395956
63140	9.860546	-0.736314	0.602941	0.049474	0.024479	0.093524	1.000000	0.000044	0.000027	0.000018	-49.166570	-84.203433	53.414470
63141	9.876761	-0.750305	0.653766	0.001358	0.008729	0.114080	1.000000	0.000024	0.000018	0.000034	-49.173860	-84.199456	53.424807
63142	9.866042	-0.720359	0.642238	0.009269	0.038430	0.100365	1.000000	0.000027	0.000030	0.000032	-49.195827	-84.201398	53.450437
63143	9.916336	-0.730450	0.623989	0.031700	0.034497	0.149965	1.000000	0.000027	0.000023	0.000044	-49.205442	-84.196199	53.463435
63144	9.860233	-0.738705	0.605142	0.047019	0.022797	0.093540	1.000000	0.000027	0.000036	0.000019	-49.212995	-84.200545	53.476812
63145	9.876737	-0.746572	0.622086	0.032236	0.015684	0.111677	1.000000	0.000021	0.000018	0.000043	-49.226799	-84.195828	53.493320
63146	9.882930	-0.717752	0.592889	0.058202	0.047057	0.113711	1.000000	0.000044	0.000021	0.000031	-49.282323	-84.199996	53.551094
63147	9.860009	-0.740449	0.606655	0.045277	0.022115	0.093549	1.000000	0.000025	0.000025	0.000022	-49.275747	-84.196646	53.547500
63148	9.882468	-0.725001	0.627934	0.023248	0.037612	0.116117	1.000000	0.000014	0.000032	0.000036	-49.320180	-84.200040	53.592710
63149	9.859525	-0.747884	0.641719	0.010312	0.012670	0.095950	1.000000	0.000024	0.000018	0.000034	-49.328530	-84.196163	53.604112
63150	9.882316	-0.726228	0.628904	0.020751	0.036477	0.116126	1.000000	0.000034	0.000023	0.000026	-49.399894	-84.205654	53.681652
63151	9.882571	-0.720576	0.595445	0.053995	0.045079	0.113744	1.000000	0.000031	0.000023	0.000035	-49.404983	-84.201450	53.690519
63152	9.898740	-0.734758	0.646224	0.004413	0.028451	0.134256	1.000000	0.000034	0.000017	0.000038	-49.453394	-84.206229	53.744671
63153	9.882085	-0.728127	0.630346	0.019058	0.035470	0.116133	1.000000	0.000027	0.000030	0.000032	-49.451006	-84.201879	53.745640
63154	9.882010	-0.728738	0.630805	0.018405	0.034858	0.116137	1.000000	0.000018	0.000013	0.000033	-49.471174	-84.203064	53.767033
63155	9.892866	-0.753795	0.609423	0.042623	0.013070	0.127454	1.000000	0.000030	0.000035	0.000041	-49.471126	-84.197497	53.770677
63156	9.865266	-0.722836	0.615558	0.031710	0.040840	0.098024	1.000000	0.000021	0.000025	0.000031	-49.496564	-84.202455	53.802701
63157	9.864852	-0.729651	0.649980	-0.001741	0.032125	0.100392	1.000000	0.000024	0.000018	0.000034	-49.506136	-84.198789	53.815393
63158	9.898594	-0.732459	0.615274	0.034344	0.035135	0.131899	1.000000	0.000031	0.000023	0.000035	-49.554401	-84.198354	53.859430
63159	9.881948	-0.725828	0.599389	0.048986	0.042162	0.113783	1.000000	0.000031	0.000023	0.000035	-49.560314	-84.194202	53.869105
63160	9.864956	-0.725333	0.617591	0.029254	0.040106	0.098035	1.000000	0.000024	0.000036	0.000028	-49.584301	-84.195184	53.892748
63161	9.875810	-0.750254	0.596396	0.053453	0.018326	0.109358	1.000000	0.000027	0.000030	0.000032	-49.582782	-84.190822	53.894526
63162	9.875373	-0.757144	0.630906	0.017817	0.008699	0.111722	1.000000	0.000050	0.000020	0.000044	-49.665923	-84.198014	53.984993
63163	9.864694	-0.727410	0.619321	0.026703	0.039045	0.098046	1.000000	0.000004	0.000027	0.000044	-49.679160	-84.192870	53.998948
63164	9.881171	-0.735363	0.636236	0.010998	0.030952	0.116161	1.000000	0.000034	0.000023	0.000026	-49.683838	-84.196865	54.011808
63165	9.864545	-0.728666	0.620228	0.025618	0.037980	0.098053	1.000000	0.000028	0.000012	0.000037	-49.702860	-84.193463	54.034340
63166	9.881386	-0.730443	0.603044	0.042769	0.038604	0.113826	1.000000	0.000031	0.000023	0.000035	-49.739157	-84.198027	54.076876
63167	9.897862	-0.738382	0.619943	0.027845	0.031464	0.131932	1.000000	0.000031	0.000023	0.000035	-49.746497	-84.194055	54.088015
63168	9.886856	-0.714616	0.642273	0.002623	0.052299	0.120608	1.000000	0.000015	0.000020	0.000030	-49.760656	-84.197269	54.107292
63169	9.864244	-0.731245	0.621970	0.022979	0.036014	0.098067	1.000000	0.000034	0.000017	0.000038	-49.775615	-84.193508	54.126506
63170	9.886702	-0.715877	0.643233	0.001580	0.051712	0.120612	1.000000	0.000024	0.000036	0.000028	-49.785794	-84.193815	54.137265
63171	9.864068	-0.732514	0.623274	0.021935	0.035431	0.098072	1.000000	0.000030	0.000035	0.000041	-49.787753	-84.188454	54.142927
63172	9.880538	-0.740483	0.640116	0.006035	0.027539	0.116175	1.000000	0.000035	0.000005	0.000032	-49.828327	-84.192879	54.189173
63173	9.874477	-0.764347	0.636208	0.011615	0.004170	0.111734	1.000000	0.000027	0.000030	0.000032	-49.828120	-84.188755	54.192338
63174	9.863827	-0.734465	0.624778	0.019079	0.033705	0.098083	1.000000	0.000030	0.000035	0.000041	-49.868684	-84.191970	54.238739
63175	9.886657	-0.712902	0.612188	0.031724	0.058523	0.118303	1.000000	0.000031	0.000029	0.000023	-49.862372	-84.188672	54.236177
63176	9.891130	-0.767359	0.620575	0.027249	0.003828	0.127516	1.000000	0.000027	0.000023	0.000044	-49.893139	-84.191801	54.273742
63177	9.880494	-0.737506	0.609024	0.036096	0.034165	0.113869	1.000000	0.000027	0.000030	0.000032	-49.893521	-84.187771	54.277524
63178	9.869499	-0.713552	0.631438	0.011083	0.055062	0.102540	1.000000	0.000038	0.000023	0.000017	-49.886662	-84.190899	54.277439
63179	9.896898	-0.745829	0.626389	0.020431	0.026157	0.131965	1.000000	0.000024	0.000012	0.000046	-49.913224	-84.186920	54.307216
63180	9.869736	-0.708683	0.598364	0.044552	0.063157	0.100233	1.000000	0.000024	0.000036	0.000028	-49.867808	-84.183020	54.265082
63181	9.863271	-0.738693	0.628568	0.016792	0.031116	0.098096	1.000000	0.000018	0.000013	0.000033	-49.883661	-84.180014	54.283376
63182	9.896667	-0.747636	0.627888	0.019795	0.023845	0.131972	1.000000	0.000031	0.000029	0.000023	-49.848676	-84.186710	54.263950
63183	9.886049	-0.717667	0.616438	0.028646	0.054167	0.118337	1.000000	0.000030	0.000035	0.000041	-49.850163	-84.181533	54.269279
63184	9.885972	-0.718283	0.616950	0.027385	0.053486	0.118344	1.000000	0.000022	0.000013	0.000024	-49.890213	-84.185892	54.310842
63185	9.862958	-0.741178	0.630553	0.014400	0.028526	0.098108	1.000000	0.000027	0.000017	0.000056	-49.918343	-84.180774	54.342606
63186	9.885422	-0.725940	0.651570	-0.006981	0.044065	0.120646	1.000000	0.000045	0.000009	0.000024	-49.939852	-84.183875	54.369743
63187	9.885755	-0.720382	0.617984	0.026174	0.052651	0.118352	1.000000	0.000018	0.000025	0.000039	-49.950307	-84.179605	54.382623
63188	9.862711	-0.743278	0.631934	0.012219	0.027512	0.098113	1.000000	0.000036	0.000040	0.000042	-49.987692	-84.178139	54.419843
63189	9.879552	-0.745137	0.615001	0.030583	0.028998	0.113904	1.000000	0.000024	0.000018	0.000034	-49.999899	-84.174825	54.435246
63190	9.862541	-0.744633	0.633000	0.011489	0.028025	0.098113	1.000000	0.000031	0.000023	0.000035	-50.047254	-84.168999	54.472206
63191	9.885409	-0.723133	0.620294	0.024101	0.052832	0.118356	1.000000	0.000027	0.000030	0.000031	-50.048041	-84.164972	54.476365
63192	9.851868	-0.715421	0.621863	0.020586	0.058083	0.084487	1.000000	0.000024	0.000012	0.000046	-50.047008	-84.160529	54.473924
63193	9.902182	-0.725645	0.603762	0.042723	0.054044	0.134149	1.000000	0.000034	0.000041	0.000020	-50.029065	-84.156618	54.459977
63194	9.868242	-0.723656	0.639533	0.004570	0.049910	0.102572	1.000000	0.000038	0.000023	0.000017	-50.032624	-84.161735	54.471639
63195	9.879090	-0.748676	0.618103	0.028685	0.028102	0.113912	1.000000	0.000024	0.000012	0.000046	-50.059348	-84.157725	54.501535
63196	9.862072	-0.748242	0.636045	0.009141	0.025832	0.098121	1.000000	0.000021	0.000025	0.000031	-50.080327	-84.159915	54.523952
63197	9.868443	-0.719338	0.606914	0.036539	0.057737	0.100299	1.000000	0.000031	0.000029	0.000023	-50.074728	-84.156702	54.522109
63198	9.861915	-0.749237	0.637300	0.008278	0.025614	0.098123	1.000000	0.000034	0.000035	0.000032	-50.090607	-84.154259	54.536740
63199	9.879196	-0.744907	0.586400	0.059976	0.035775	0.111646	1.000000	0.000031	0.000023	0.000035	-50.099437	-84.150415	54.549354
63200	9.884709	-0.728498	0.625147	0.019172	0.049828	0.118382	1.000000	0.000027	0.000023	0.000044	-50.167709	-84.153397	54.620325
63201	9.895551	-0.753536	0.603782	0.043257	0.028023	0.129729	1.000000	0.000041	0.000016	0.000021	-50.172028	-84.151345	54.629597
63202	9.878533	-0.752971	0.621782	0.023948	0.025765	0.113931	1.000000	0.000004	0.000027	0.000044	-50.191845	-84.151386	54.649851
63203	9.861935	-0.746318	0.605980	0.038536	0.032816	0.095865	1.000000	0.000037	0.000034	0.000024	-50.183041	-84.147772	54.645470
63204	9.884401	-0.730871	0.627251	0.017465	0.047770	0.118396	1.000000	0.000024	0.000018	0.000034	-50.171300	-84.151041	54.644810
63205	9.878728	-0.748644	0.589522	0.056351	0.033068	0.111677	1.000000	0.000027	0.000030	0.000031	-50.172822	-84.147110	54.649720
63206	9.890277	-0.708835	0.632591	0.010998	0.071807	0.122851	1.000000	0.000031	0.000023	0.000035	-50.225142	-84.140213	54.688582
63207	9.867212	-0.731537	0.646427	-0.002008	0.046904	0.102588	1.000000	0.000027	0.000030	0.000031	-50.227233	-84.136198	54.693972
63208	9.867590	-0.725836	0.613023	0.029751	0.054781	0.100338	1.000000	0.000028	0.000024	0.000013	-50.260987	-84.142307	54.729392
63209	9.883581	-0.739816	0.663786	-0.018635	0.038965	0.120652	1.000000	0.000028	0.000005	0.000050	-50.297412	-84.138549	54.769355
63210	9.873023	-0.710162	0.652045	-0.010557	0.069494	0.107047	1.000000	0.000017	0.000037	0.000045	-50.346399	-84.134589	54.811163
63211	9.861314	-0.751175	0.610071	0.034050	0.031493	0.095885	1.000000	0.000025	0.000013	0.000016	-50.353000	-84.133234	54.820795
63212	9.884698	-0.723474	0.563268	0.080011	0.063700	0.113917	1.000000	0.000037	0.000028	0.000036	-50.314848	-84.134800	54.795611
63213	9.883706	-0.736293	0.631848	0.013084	0.046335	0.118409	1.000000	0.000027	0.000030	0.000031	-50.317545	-84.130856	54.801616
63214	9.878037	-0.754117	0.594116	0.050777	0.032310	0.111709	1.000000	0.000034	0.000017	0.000038	-50.413375	-84.127933	54.887674
63215	9.889597	-0.714351	0.636992	0.005695	0.070237	0.122866	1.000000	0.000024	0.000018	0.000034	-50.428902	-84.124556	54.906157
63216	9.883472	-0.738117	0.633368	0.010836	0.046426	0.118412	1.000000	0.000034	0.000041	0.000020	-50.415906	-84.124178	54.895356
63217	9.866888	-0.731534	0.617528	0.025413	0.053500	0.100357	1.000000	0.000027	0.000017	0.000056	-50.447653	-84.118972	54.930451
63218	9.882835	-0.745595	0.668410	-0.022402	0.036782	0.120653	1.000000	0.000038	0.000023	0.000017	-50.388167	-84.119127	54.877969
63219	9.872795	-0.709536	0.622603	0.019787	0.075809	0.104824	1.000000	0.000024	0.000012	0.000046	-50.417194	-84.115135	54.910036
63220	9.883615	-0.734718	0.601345	0.043464	0.053278	0.116187	1.000000	0.000024	0.000036	0.000028	-50.405972	-84.115645	54.902845
63221	9.883071	-0.741408	0.635790	0.009880	0.044585	0.118421	1.000000	0.000022	0.000007	0.000036	-50.432841	-84.112885	54.932430
63222	9.872575	-0.711397	0.623970	0.017082	0.075006	0.104835	1.000000	0.000031	0.000029	0.000023	-50.508031	-84.114950	55.002668
63223	9.883394	-0.736469	0.602833	0.041105	0.053205	0.116197	1.000000	0.000024	0.000030	0.000040	-50.518327	-84.110202	55.015812
63224	9.882837	-0.743242	0.637279	0.008539	0.044202	0.118424	1.000000	0.000018	0.000014	0.000033	-50.479987	-84.105323	54.976261
63225	9.866280	-0.736553	0.621273	0.023126	0.051279	0.100375	1.000000	0.000027	0.000030	0.000031	-50.483371	-84.101306	54.982855
63226	9.883157	-0.738333	0.604446	0.040650	0.052549	0.116203	1.000000	0.000024	0.000036	0.000028	-50.507574	-84.100772	55.005160
63227	9.883077	-0.738984	0.604949	0.040409	0.052521	0.116204	1.000000	0.000038	0.000010	0.000042	-50.534272	-84.097289	55.036354
63228	9.872091	-0.715264	0.627198	0.015510	0.073793	0.104846	1.000000	0.000030	0.000035	0.000041	-50.543086	-84.095586	55.045645
63229	9.882413	-0.746532	0.639995	0.006180	0.043351	0.118429	1.000000	0.000025	0.000018	0.000034	-50.558802	-84.092182	55.064276
63230	9.859794	-0.763107	0.619746	0.027643	0.026167	0.095921	1.000000	0.000021	0.000025	0.000031	-50.482831	-84.089361	54.992867
63231	9.888818	-0.718394	0.611283	0.034457	0.074277	0.120679	1.000000	0.000027	0.000030	0.000031	-50.485891	-84.085330	54.999140
63232	9.865714	-0.741010	0.624947	0.019776	0.050313	0.100387	1.000000	0.000035	0.000005	0.000032	-50.617337	-84.084262	55.119227
63233	9.899578	-0.744079	0.590313	0.056581	0.053354	0.132046	1.000000	0.000027	0.000030	0.000031	-50.621473	-84.080199	55.126493
63234	9.871139	-0.725005	0.664122	-0.020491	0.064086	0.107068	1.000000	0.000031	0.000023	0.000035	-50.637118	-84.082723	55.146378
63235	9.882439	-0.744169	0.609009	0.036876	0.050921	0.116226	1.000000	0.000030	0.000035	0.000041	-50.643425	-84.077479	55.156165
63236	9.888430	-0.721460	0.613933	0.031525	0.072524	0.120702	1.000000	0.000021	0.000031	0.000018	-50.553308	-84.080375	55.080302
63237	9.888362	-0.721949	0.614456	0.031284	0.072492	0.120703	1.000000	0.000025	0.000018	0.000034	-50.568670	-84.076986	55.098599
63238	9.882210	-0.745743	0.610792	0.035471	0.049789	0.116237	1.000000	0.000037	0.000034	0.000024	-50.643848	-84.074656	55.164043
63239	9.865156	-0.745109	0.628864	0.016700	0.048244	0.100403	1.000000	0.000021	0.000019	0.000043	-50.666300	-84.070448	55.188994
63240	9.921566	-0.732413	0.614904	0.031886	0.066514	0.154587	1.000000	0.000028	0.000012	0.000037	-50.706590	-84.075134	55.235422
63241	9.865002	-0.746395	0.629765	0.015170	0.047247	0.100410	1.000000	0.000034	0.000041	0.000020	-50.692997	-84.071349	55.225635
63242	9.864920	-0.746896	0.630446	0.014939	0.045455	0.100419	1.000000	0.000031	0.000023	0.000035	-50.646332	-84.075889	55.195207
63243	9.881826	-0.748744	0.613333	0.033197	0.046943	0.116259	1.000000	0.000031	0.000012	0.000029	-50.663605	-84.073541	55.216239
63244	9.881747	-0.749358	0.613848	0.032381	0.045153	0.116270	1.000000	0.000020	0.000037	0.000037	-50.635085	-84.078879	55.202677
63245	9.898636	-0.751261	0.596987	0.050633	0.046630	0.132112	1.000000	0.000021	0.000025	0.000030	-50.643145	-84.075462	55.213314
63246	9.854245	-0.718722	0.620167	0.021648	0.073473	0.086881	1.000000	0.000038	0.000016	0.000030	-50.677238	-84.077657	55.249314
63247	9.881509	-0.751234	0.615381	0.030801	0.044522	0.116278	1.000000	0.000027	0.000023	0.000043	-50.695187	-84.073214	55.270606
63248	9.870535	-0.727437	0.637602	0.004867	0.066022	0.104912	1.000000	0.000031	0.000023	0.000035	-50.765188	-84.075295	55.338501
63249	9.864360	-0.751315	0.633949	0.010338	0.042673	0.100437	1.000000	0.000027	0.000030	0.000031	-50.769799	-84.071493	55.346377
63250	9.903801	-0.737245	0.637735	0.006316	0.060046	0.138788	1.000000	0.000031	0.000023	0.000035	-50.850035	-84.074649	55.425713
63251	9.904257	-0.731800	0.604267	0.039379	0.068646	0.136620	1.000000	0.000011	0.000027	0.000026	-50.856162	-84.071564	55.433241
63252	9.858030	-0.776289	0.631338	0.013534	0.018198	0.095968	1.000000	0.000044	0.000021	0.000030	-50.843722	-84.072247	55.428080
63253	9.870676	-0.724399	0.606330	0.035100	0.073400	0.102756	1.000000	0.000024	0.000030	0.000040	-50.855063	-84.067694	55.442311
63254	9.904005	-0.733752	0.606021	0.038062	0.067246	0.136634	1.000000	0.000030	0.000035	0.000041	-50.864730	-84.066395	55.454958
63255	9.886933	-0.733173	0.624079	0.019265	0.065679	0.120781	1.000000	0.000025	0.000018	0.000034	-50.881757	-84.063239	55.474973
63256	9.853441	-0.725134	0.625463	0.015039	0.070158	0.086917	1.000000	0.000028	0.000018	0.000025	-50.870904	-84.066981	55.473082
63257	9.880692	-0.757510	0.620782	0.024145	0.041193	0.116310	1.000000	0.000027	0.000030	0.000031	-50.875920	-84.063257	55.481385
63258	9.880609	-0.758127	0.621350	0.023060	0.041267	0.116313	1.000000	0.000031	0.000023	0.000035	-50.929854	-84.061677	55.528920
63259	9.876299	-0.704889	0.613888	0.026118	0.094950	0.107258	1.000000	0.000024	0.000036	0.000028	-50.927645	-84.057774	55.529533
63260	9.886551	-0.736100	0.626693	0.016574	0.063993	0.120796	1.000000	0.000038	0.000010	0.000042	-50.947131	-84.057283	55.551324
63261	9.863928	-0.752739	0.606417	0.036883	0.047774	0.098306	1.000000	0.000027	0.000030	0.000031	-50.952505	-84.053549	55.559953
63262	9.880283	-0.760653	0.623443	0.020675	0.040640	0.116320	1.000000	0.000025	0.000018	0.000034	-51.020128	-84.053629	55.623197
63263	9.886321	-0.738032	0.628048	0.014620	0.063899	0.120800	1.000000	0.000025	0.000018	0.000034	-51.037809	-84.050490	55.643832
63264	9.886242	-0.738791	0.628385	0.013607	0.063592	0.120803	1.000000	0.000024	0.000012	0.000046	-51.093951	-84.050289	55.699043
63265	9.869742	-0.732044	0.612322	0.028161	0.070679	0.102798	1.000000	0.000035	0.000029	0.000014	-51.087642	-84.048150	55.696695
63266	9.862979	-0.761849	0.642809	0.000371	0.038808	0.100458	1.000000	0.000017	0.000037	0.000045	-51.096066	-84.041687	55.697847
63267	9.885991	-0.740546	0.630274	0.012812	0.063584	0.120805	1.000000	0.000037	0.000034	0.000024	-51.091723	-84.038294	55.697772
63268	9.886479	-0.735205	0.596780	0.045197	0.071572	0.118675	1.000000	0.000024	0.000012	0.000046	-51.135126	-84.039591	55.743845
63269	9.891952	-0.718695	0.635314	0.005778	0.086204	0.125290	1.000000	0.000025	0.000018	0.000034	-51.153179	-84.036441	55.764816
63270	9.845642	-0.763217	0.662326	-0.019705	0.036931	0.084590	1.000000	0.000031	0.000023	0.000035	-51.164268	-84.029970	55.768135
63271	9.869248	-0.735877	0.615675	0.026102	0.070336	0.102806	1.000000	0.000024	0.000036	0.000028	-51.162892	-84.026009	55.769478
63272	9.902590	-0.745000	0.615352	0.030534	0.063589	0.136684	1.000000	0.000034	0.000023	0.000026	-51.083834	-84.024750	55.701166
63273	9.869084	-0.737077	0.616869	0.026614	0.069177	0.102812	1.000000	0.000020	0.000030	0.000049	-51.101695	-84.019355	55.721461
63274	9.885428	-0.744989	0.633857	0.011307	0.061150	0.120822	1.000000	0.000025	0.000013	0.000016	-51.090031	-84.022741	55.716314
63275	9.885948	-0.739590	0.600142	0.044371	0.069745	0.118692	1.000000	0.000024	0.000012	0.000046	-51.120998	-84.018917	55.750262
63276	9.851859	-0.737670	0.635643	-0.014843	-0.006922	0.087164	1.000000	0.000040	0.000039	0.000033	-49.704568	-84.440352	53.722890
63277	9.902189	-0.748261	0.617849	0.006619	-0.012314	0.136924	1.000000	0.000025	0.000018	0.000034	-49.710955	-84.440752	53.728923
63278	9.858412	-0.709706	0.606952	0.012182	0.023555	0.089821	1.000000	0.000037	0.000028	0.000036	-49.714013	-84.439349	53.712860
63279	9.868017	-0.746857	0.653914	-0.031267	-0.015802	0.105071	1.000000	0.000027	0.000030	0.000031	-49.707861	-84.439128	53.706632
63280	9.868522	-0.741703	0.620312	0.001659	-0.008224	0.103086	1.000000	0.000015	0.000008	0.000054	-49.741739	-84.438928	53.746106
63281	9.901850	-0.751051	0.619894	0.004643	-0.014812	0.136922	1.000000	0.000034	0.000041	0.000020	-49.716279	-84.438867	53.721223
63282	9.901782	-0.751377	0.620577	0.004170	-0.015421	0.136921	1.000000	0.000038	0.000023	0.000017	-49.706007	-84.440103	53.708350
63283	9.868298	-0.743249	0.622021	0.000221	-0.010149	0.103084	1.000000	0.000018	0.000025	0.000039	-49.711017	-84.439535	53.712200
63284	9.868210	-0.743884	0.622661	-0.000273	-0.010777	0.103084	1.000000	0.000024	0.000036	0.000028	-49.698354	-84.439014	53.698707
63285	9.874271	-0.721207	0.627421	-0.006242	0.011893	0.107738	1.000000	0.000025	0.000018	0.000034	-49.704723	-84.439415	53.704722
63286	9.868053	-0.745105	0.623689	-0.001321	-0.012175	0.103082	1.000000	0.000031	0.000023	0.000035	-49.707985	-84.440037	53.723287
63287	9.878839	-0.770325	0.602561	0.022145	-0.035001	0.114358	1.000000	0.000021	0.000025	0.000030	-49.706215	-84.440250	53.720732
63288	9.867897	-0.746210	0.624833	-0.002164	-0.013392	0.103080	1.000000	0.000037	0.000034	0.000023	-49.686405	-84.439468	53.692034
63289	9.874588	-0.717509	0.595449	0.025337	0.017536	0.105776	1.000000	0.000035	0.000005	0.000032	-49.702268	-84.441025	53.708778
63290	9.890905	-0.725548	0.612446	0.009811	0.009774	0.123676	1.000000	0.000017	0.000037	0.000045	-49.703144	-84.439170	53.713308
63291	9.890202	-0.732245	0.646976	-0.024140	0.000855	0.125636	1.000000	0.000018	0.000014	0.000033	-49.713902	-84.440005	53.723003
63292	9.851183	-0.741494	0.610218	0.010873	-0.008890	0.085180	1.000000	0.000034	0.000035	0.000032	-49.704860	-84.439214	53.713883
63293	9.884503	-0.750756	0.609993	0.013835	-0.015506	0.119014	1.000000	0.000027	0.000030	0.000031	-49.698676	-84.438995	53.707624
63294	9.890576	-0.728082	0.614745	0.007679	0.007224	0.123681	1.000000	0.000021	0.000025	0.000030	-49.708387	-84.439574	53.711697
63295	9.867954	-0.744639	0.594534	0.027687	-0.009662	0.101122	1.000000	0.000031	0.000023	0.000035	-49.710335	-84.439542	53.714001
63296	9.889795	-0.735163	0.649886	-0.026811	-0.002446	0.125629	1.000000	0.000037	0.000034	0.000023	-49.692178	-84.440285	53.715727
63297	9.867792	-0.745862	0.595700	0.026672	-0.011069	0.101124	1.000000	0.000040	0.000015	0.000051	-49.712761	-84.439415	53.737861
63298	9.883462	-0.759790	0.646811	-0.022131	-0.027125	0.120955	1.000000	0.000037	0.000034	0.000023	-49.686619	-84.439115	53.721695
63299	9.866979	-0.753125	0.631000	-0.007598	-0.020671	0.103065	1.000000	0.000017	0.000037	0.000045	-49.685813	-84.437147	53.719635
63300	9.874310	-0.718896	0.567719	0.053503	0.018569	0.103859	1.000000	0.000031	0.000017	0.000047	-49.698981	-84.435772	53.727997
63301	9.884456	-0.750104	0.580564	0.043480	-0.012534	0.117072	1.000000	0.000025	0.000025	0.000022	-49.690419	-84.436767	53.719027
63302	9.889272	-0.739186	0.653273	-0.029381	-0.006259	0.125620	1.000000	0.000021	0.000025	0.000030	-49.690053	-84.436363	53.707428
63303	9.866643	-0.755743	0.633113	-0.009369	-0.023137	0.103058	1.000000	0.000037	0.000028	0.000036	-49.687581	-84.435899	53.706022
63304	9.856345	-0.725878	0.621229	-0.000343	0.006617	0.089854	1.000000	0.000011	0.000020	0.000038	-49.698046	-84.436031	53.725173
63305	9.890315	-0.729272	0.586853	0.036071	0.008216	0.121757	1.000000	0.000041	0.000028	0.000027	-49.688813	-84.436347	53.717381
63306	9.867060	-0.751520	0.600691	0.022634	-0.016849	0.101126	1.000000	0.000038	0.000023	0.000017	-49.678172	-84.437559	53.704415
63307	9.872525	-0.734591	0.639251	-0.016796	-0.002419	0.107732	1.000000	0.000031	0.000012	0.000029	-49.685867	-84.438930	53.712562
63308	9.879273	-0.706033	0.609862	0.010619	0.028536	0.110494	1.000000	0.000014	0.000032	0.000036	-49.689719	-84.438306	53.711976
63309	9.849814	-0.751808	0.619615	0.002629	-0.019899	0.085170	1.000000	0.000037	0.000028	0.000036	-49.687232	-84.437842	53.710556
63310	9.866099	-0.759735	0.636805	-0.012885	-0.027663	0.103042	1.000000	0.000027	0.000030	0.000031	-49.681378	-84.437583	53.708316
63311	9.872841	-0.731248	0.607581	0.014640	0.003236	0.105813	1.000000	0.000024	0.000030	0.000040	-49.681908	-84.436584	53.708397
63312	9.872756	-0.731983	0.608085	0.014203	0.002625	0.105814	1.000000	0.000034	0.000017	0.000038	-49.691550	-84.436349	53.716050
63313	9.839280	-0.723910	0.609452	0.010314	0.007969	0.071985	1.000000	0.000027	0.000030	0.000031	-49.685318	-84.436132	53.709745
63314	9.905323	-0.747803	0.642435	-0.016694	-0.012959	0.141553	1.000000	0.000024	0.000036	0.000028	-49.663195	-84.435388	53.697263
63315	9.888878	-0.741139	0.626364	-0.002142	-0.006503	0.123684	1.000000	0.000038	0.000010	0.000042	-49.681363	-84.435734	53.716647
63316	9.855401	-0.733174	0.627610	-0.005970	-0.001077	0.089854	1.000000	0.000018	0.000025	0.000039	-49.686157	-84.434619	53.712211
63317	9.905074	-0.749876	0.643861	-0.018094	-0.014865	0.141548	1.000000	0.000021	0.000025	0.000030	-49.684316	-84.434835	53.709588
63318	9.889309	-0.737314	0.593721	0.029819	-0.000213	0.121782	1.000000	0.000034	0.000017	0.000038	-49.699378	-84.435543	53.736365
63319	9.878385	-0.713254	0.615817	0.005435	0.021349	0.110516	1.000000	0.000018	0.000032	0.000027	-49.689398	-84.435572	53.725173
63320	9.871440	-0.742939	0.646322	-0.022983	-0.010782	0.107714	1.000000	0.000028	0.000030	0.000031	-49.681716	-84.434724	53.708894
63321	9.894583	-0.721760	0.633545	-0.010486	0.012982	0.128380	1.000000	0.000034	0.000017	0.000038	-49.691737	-84.434882	53.719702
63322	9.878146	-0.715178	0.617412	0.004017	0.019442	0.110521	1.000000	0.000018	0.000025	0.000039	-49.699503	-84.434509	53.731471
63323	9.871862	-0.739249	0.613771	0.008992	-0.004546	0.105819	1.000000	0.000037	0.000022	0.000048	-49.711860	-84.433453	53.744951
63324	9.905171	-0.748610	0.613500	0.011786	-0.011227	0.139646	1.000000	0.000021	0.000031	0.000018	-49.700647	-84.434596	53.736468
63325	9.860855	-0.715762	0.636538	-0.015972	0.016379	0.094554	1.000000	0.000034	0.000028	0.000044	-49.704865	-84.433354	53.741379
63326	9.871600	-0.741240	0.615589	0.007374	-0.006512	0.105819	1.000000	0.000024	0.000030	0.000040	-49.708455	-84.432539	53.748297
63327	9.870827	-0.747693	0.650183	-0.026592	-0.015384	0.107699	1.000000	0.000025	0.000025	0.000022	-49.699855	-84.433537	53.739290
63328	9.894692	-0.720496	0.603409	0.019365	0.016622	0.126502	1.000000	0.000021	0.000025	0.000030	-49.700591	-84.433616	53.735330
63329	9.871372	-0.742881	0.617270	0.005904	-0.008449	0.105819	1.000000	0.000028	0.000030	0.000031	-49.694324	-84.433400	53.728992
63330	9.887637	-0.750873	0.634308	-0.009560	-0.016180	0.123668	1.000000	0.000038	0.000010	0.000042	-49.710605	-84.433236	53.740143
63331	9.870520	-0.749947	0.652245	-0.028473	-0.017916	0.107690	1.000000	0.000018	0.000038	0.000015	-49.685724	-84.433860	53.713997
63332	9.877341	-0.721383	0.623057	-0.000894	0.012975	0.110532	1.000000	0.000034	0.000028	0.000044	-49.689793	-84.432426	53.718635
63333	9.877262	-0.722028	0.623561	-0.001376	0.012314	0.110533	1.000000	0.000028	0.000018	0.000025	-49.689314	-84.433611	53.718179
63334	9.893531	-0.729896	0.640613	-0.016954	0.004575	0.128378	1.000000	0.000031	0.000023	0.000035	-49.694288	-84.433500	53.719272
63335	9.854566	-0.739127	0.603844	0.018131	-0.005168	0.087972	1.000000	0.000028	0.000030	0.000031	-49.688006	-84.433284	53.712920
63336	9.870822	-0.747056	0.621014	0.002571	-0.012942	0.105815	1.000000	0.000031	0.000023	0.000035	-49.690836	-84.433260	53.718815
63337	9.893999	-0.725882	0.608299	0.015072	0.010788	0.126518	1.000000	0.000028	0.000030	0.000031	-49.684550	-84.433045	53.712458
63338	9.893190	-0.732412	0.643002	-0.018884	0.001962	0.128376	1.000000	0.000030	0.000035	0.000041	-49.680453	-84.431458	53.708591
63339	9.870561	-0.748924	0.622896	0.001139	-0.014901	0.105813	1.000000	0.000025	0.000025	0.000022	-49.671828	-84.432457	53.699560
63340	9.893747	-0.727721	0.610192	0.013629	0.008907	0.126522	1.000000	0.000024	0.000030	0.000040	-49.676012	-84.431099	53.688525
63341	9.854075	-0.742826	0.607318	0.015226	-0.009013	0.087974	1.000000	0.000031	0.000012	0.000029	-49.683653	-84.432472	53.696618
63342	9.876542	-0.727505	0.628571	-0.005743	0.006607	0.110537	1.000000	0.000021	0.000037	0.000036	-49.677764	-84.430910	53.677729
63343	9.876453	-0.728174	0.629201	-0.006226	0.005948	0.110537	1.000000	0.000031	0.000023	0.000035	-49.679599	-84.430883	53.679923
63344	9.860045	-0.721438	0.613217	0.008403	0.012382	0.092704	1.000000	0.000024	0.000036	0.000028	-49.662502	-84.430481	53.672644
63345	9.876285	-0.729304	0.630524	-0.007157	0.004600	0.110537	1.000000	0.000028	0.000030	0.000031	-49.656200	-84.430266	53.666273
63346	9.853662	-0.745909	0.610227	0.012911	-0.012236	0.087974	1.000000	0.000038	0.000010	0.000042	-49.673028	-84.430304	53.680208
63347	9.876114	-0.730801	0.631472	-0.008073	0.003312	0.110537	1.000000	0.000017	0.000037	0.000045	-49.672046	-84.428341	53.677977
63348	9.859708	-0.724148	0.615431	0.006487	0.009810	0.092708	1.000000	0.000028	0.000018	0.000025	-49.674737	-84.429496	53.675915
63349	9.875963	-0.731898	0.632565	-0.009079	0.002030	0.110536	1.000000	0.000031	0.000030	0.000022	-49.661696	-84.430063	53.663180
63350	9.869654	-0.755640	0.629128	-0.004232	-0.021968	0.105799	1.000000	0.000034	0.000035	0.000032	-49.654876	-84.429752	53.662794
63351	9.859477	-0.725746	0.617255	0.004953	0.007825	0.092711	1.000000	0.000018	0.000025	0.000039	-49.659688	-84.429190	53.666450
63352	9.876443	-0.728141	0.600309	0.022907	0.008226	0.108708	1.000000	0.000027	0.000017	0.000055	-49.683430	-84.427540	53.684026
63353	9.886452	-0.759340	0.613217	0.012748	-0.022887	0.121792	1.000000	0.000022	0.000020	0.000012	-49.672461	-84.429753	53.672316
63354	9.859233	-0.727824	0.618695	0.003462	0.005890	0.092713	1.000000	0.000017	0.000037	0.000045	-49.674794	-84.427995	53.676297
63355	9.892527	-0.737284	0.618430	0.006301	-0.000875	0.126533	1.000000	0.000045	0.000009	0.000024	-49.679423	-84.429904	53.682894
63356	9.858326	-0.734844	0.653727	-0.031002	-0.003565	0.094531	1.000000	0.000021	0.000037	0.000036	-49.671671	-84.428688	53.676764
63357	9.892371	-0.738425	0.619567	0.005337	-0.002193	0.126533	1.000000	0.000034	0.000023	0.000026	-49.666751	-84.429442	53.672580
63358	9.886058	-0.762194	0.616024	0.010298	-0.026164	0.121787	1.000000	0.000028	0.000030	0.000031	-49.659316	-84.429010	53.663266
63359	9.858843	-0.730740	0.621465	0.001093	0.002619	0.092714	1.000000	0.000031	0.000023	0.000035	-49.661115	-84.428984	53.665425
63360	9.869576	-0.756310	0.600469	0.024438	-0.020358	0.103970	1.000000	0.000024	0.000024	0.000052	-49.675882	-84.427344	53.683062
63361	9.875738	-0.733681	0.605147	0.018548	0.002310	0.108721	1.000000	0.000035	0.000029	0.000014	-49.656102	-84.428693	53.663966
63362	9.891980	-0.741314	0.622360	0.002944	-0.005460	0.126533	1.000000	0.000025	0.000025	0.000022	-49.649058	-84.429685	53.656501
63363	9.874837	-0.740437	0.640151	-0.015947	-0.007124	0.110525	1.000000	0.000024	0.000012	0.000046	-49.670105	-84.429497	53.677250
63364	9.874741	-0.741225	0.640720	-0.016409	-0.007758	0.110524	1.000000	0.000027	0.000042	0.000037	-49.657760	-84.427693	53.662251
63365	9.874657	-0.741804	0.641351	-0.016892	-0.008417	0.110522	1.000000	0.000028	0.000018	0.000025	-49.657224	-84.428881	53.661741
63366	9.874584	-0.742323	0.641867	-0.017410	-0.009052	0.110521	1.000000	0.000028	0.000030	0.000031	-49.653309	-84.428676	53.656356
63367	9.858203	-0.735666	0.625804	-0.002787	-0.002584	0.092714	1.000000	0.000018	0.000025	0.000039	-49.658074	-84.428114	53.659966
63368	9.914803	-0.723498	0.612402	0.013028	0.014951	0.147303	1.000000	0.000044	0.000033	0.000036	-49.651507	-84.427182	53.656969
63369	9.875090	-0.738683	0.609609	0.014648	-0.002902	0.108727	1.000000	0.000008	0.000021	0.000047	-49.667379	-84.426272	53.670598
63370	9.847899	-0.707206	0.615014	0.005455	0.025919	0.079673	1.000000	0.000051	0.000032	0.000019	-49.648369	-84.426973	53.656089
63371	9.868683	-0.763057	0.606594	0.019055	-0.027541	0.103965	1.000000	0.000005	0.000016	0.000037	-49.661920	-84.427276	53.667062
63372	9.864824	-0.709998	0.598619	0.022891	0.025596	0.095694	1.000000	0.000024	0.000030	0.000040	-49.662739	-84.426249	53.669132
63373	9.891048	-0.748587	0.628440	-0.002424	-0.012655	0.126527	1.000000	0.000037	0.000028	0.000035	-49.660107	-84.425792	53.667574
63374	9.863865	-0.717018	0.633885	-0.011552	0.016161	0.097478	1.000000	0.000031	0.000030	0.000022	-49.645312	-84.426256	53.657563
63375	9.874608	-0.742287	0.613041	0.011758	-0.006847	0.108729	1.000000	0.000028	0.000030	0.000031	-49.638942	-84.426044	53.651127
63376	9.874517	-0.743071	0.613559	0.011279	-0.007496	0.108729	1.000000	0.000017	0.000019	0.000051	-49.658703	-84.424820	53.670283
63377	9.863622	-0.718897	0.635544	-0.012993	0.014196	0.097479	1.000000	0.000035	0.000029	0.000014	-49.638907	-84.426171	53.651173
63378	9.874354	-0.744228	0.614769	0.010331	-0.008806	0.108729	1.000000	0.000017	0.000037	0.000045	-49.637279	-84.424095	53.648560
63379	9.874270	-0.744924	0.615286	0.009848	-0.009467	0.108729	1.000000	0.000031	0.000012	0.000028	-49.644851	-84.425470	53.656585
63380	9.879660	-0.728011	0.653862	-0.029511	0.005118	0.115269	1.000000	0.000028	0.000030	0.000031	-49.637757	-84.425067	53.647047
63381	9.873303	-0.751832	0.650455	-0.024607	-0.018869	0.110492	1.000000	0.000034	0.000035	0.000032	-49.626977	-84.424424	53.636914
63382	9.857748	-0.739442	0.600384	0.023484	-0.004299	0.090941	1.000000	0.000027	0.000024	0.000043	-49.638400	-84.423884	53.655894
63383	9.890205	-0.754821	0.634215	-0.007249	-0.019233	0.126514	1.000000	0.000031	0.000023	0.000035	-49.640143	-84.423860	53.658000
63384	9.896398	-0.732111	0.638925	-0.013146	0.003474	0.131292	1.000000	0.000037	0.000034	0.000023	-49.625228	-84.423905	53.637187
63385	9.856673	-0.747137	0.636225	-0.011508	-0.014337	0.092698	1.000000	0.000020	0.000031	0.000048	-49.632250	-84.422132	53.643392
63386	9.897026	-0.727863	0.606159	0.019374	0.010260	0.129539	1.000000	0.000018	0.000025	0.000039	-49.638966	-84.421613	53.649637
63387	9.879870	-0.726884	0.623915	0.000502	0.008643	0.113509	1.000000	0.000045	0.000009	0.000024	-49.643553	-84.423525	53.656193
63388	9.896063	-0.734648	0.641203	-0.015101	0.000882	0.131290	1.000000	0.000027	0.000048	0.000025	-49.617110	-84.422310	53.622778
63389	9.896795	-0.729533	0.607918	0.017937	0.008304	0.129543	1.000000	0.000027	0.000024	0.000043	-49.625543	-84.421506	53.631197
63390	9.879626	-0.728572	0.625797	-0.000983	0.006696	0.113511	1.000000	0.000025	0.000025	0.000022	-49.619160	-84.422676	53.629421
63391	9.873273	-0.752327	0.622232	0.003910	-0.017293	0.108722	1.000000	0.000031	0.000023	0.000035	-49.620885	-84.422653	53.631509
63392	9.873193	-0.753003	0.622677	0.003420	-0.017950	0.108721	1.000000	0.000034	0.000017	0.000038	-49.631180	-84.422828	53.645899
63393	9.886520	-0.701428	0.597305	0.025708	0.036127	0.116566	1.000000	0.000028	0.000030	0.000031	-49.624769	-84.422618	53.639424
63394	9.896412	-0.732602	0.610472	0.015471	0.005009	0.129550	1.000000	0.000031	0.000023	0.000035	-49.626408	-84.422510	53.641246
63395	9.885517	-0.708417	0.632549	-0.008769	0.026737	0.118306	1.000000	0.000011	0.000039	0.000032	-49.614831	-84.421577	53.627662
63396	9.862896	-0.724903	0.612372	0.011271	0.009900	0.095742	1.000000	0.000038	0.000016	0.000029	-49.618019	-84.422442	53.630960
63397	9.879926	-0.727072	0.595407	0.029171	0.010174	0.111784	1.000000	0.000025	0.000019	0.000034	-49.624127	-84.422851	53.636719
63398	9.878995	-0.733542	0.629949	-0.004864	0.001446	0.113512	1.000000	0.000034	0.000028	0.000044	-49.629629	-84.421679	53.644027
63399	9.879752	-0.728510	0.596535	0.028178	0.008856	0.111788	1.000000	0.000028	0.000030	0.000031	-49.623205	-84.421470	53.637539
63400	9.862571	-0.727499	0.614518	0.009305	0.007263	0.095746	1.000000	0.000028	0.000030	0.000031	-49.617153	-84.421318	53.635484
63401	9.895837	-0.736998	0.614483	0.012053	0.000388	0.129556	1.000000	0.000028	0.000030	0.000031	-49.610725	-84.421109	53.628993
63402	9.846151	-0.721422	0.599145	0.023527	0.013111	0.077985	1.000000	0.000030	0.000035	0.000041	-49.605921	-84.419439	53.616149
63403	9.877686	-0.742556	0.667190	-0.040786	-0.009891	0.115226	1.000000	0.000018	0.000025	0.000039	-49.610579	-84.418880	53.619655
63404	9.861353	-0.735926	0.651070	-0.026128	-0.003420	0.097463	1.000000	0.000037	0.000028	0.000035	-49.608097	-84.418511	53.623858
63405	9.879237	-0.732483	0.600180	0.025294	0.004901	0.111798	1.000000	0.000034	0.000017	0.000038	-49.617915	-84.418675	53.634467
63406	9.871995	-0.762110	0.630545	-0.003374	-0.027148	0.108701	1.000000	0.000025	0.000019	0.000034	-49.624856	-84.419150	53.643666
63407	9.861982	-0.732156	0.618434	0.005935	0.002664	0.095751	1.000000	0.000028	0.000030	0.000031	-49.618414	-84.418942	53.637162
63408	9.878148	-0.740001	0.635644	-0.009728	-0.005124	0.113507	1.000000	0.000028	0.000018	0.000025	-49.619463	-84.420141	53.635694
63409	9.855514	-0.756494	0.615622	0.010306	-0.021967	0.090940	1.000000	0.000040	0.000051	0.000039	-49.598395	-84.417670	53.615899
63410	9.877954	-0.741383	0.637056	-0.010735	-0.006438	0.113505	1.000000	0.000024	0.000012	0.000046	-49.621444	-84.417597	53.640333
63411	9.872457	-0.759478	0.599243	0.027670	-0.022374	0.106992	1.000000	0.000025	0.000013	0.000015	-49.618537	-84.420001	53.637118
63412	9.878697	-0.736765	0.603819	0.021844	0.000297	0.111808	1.000000	0.000030	0.000035	0.000041	-49.613844	-84.418508	53.633749
63413	9.845264	-0.728489	0.605143	0.018155	0.005880	0.078003	1.000000	0.000028	0.000030	0.000031	-49.607389	-84.418300	53.627232
63414	9.888442	-0.768572	0.617729	0.011067	-0.031478	0.124740	1.000000	0.000021	0.000025	0.000030	-49.606058	-84.418407	53.619274
63415	9.884763	-0.715357	0.609720	0.015046	0.021662	0.116630	1.000000	0.000028	0.000030	0.000031	-49.599598	-84.418199	53.612752
63416	9.861248	-0.737514	0.623747	0.001513	-0.003228	0.095753	1.000000	0.000031	0.000041	0.000028	-49.581973	-84.417520	53.602076
63417	9.877395	-0.745447	0.640969	-0.014138	-0.011035	0.113497	1.000000	0.000022	0.000007	0.000036	-49.600553	-84.418549	53.620021
63418	9.878222	-0.740290	0.607277	0.018904	-0.003646	0.111813	1.000000	0.000025	0.000025	0.000022	-49.592543	-84.419545	53.611872
63419	9.878139	-0.740870	0.607909	0.018421	-0.004307	0.111814	1.000000	0.000030	0.000035	0.000041	-49.588367	-84.418126	53.607972
63420	9.877165	-0.747207	0.642459	-0.015641	-0.013008	0.113492	1.000000	0.000032	0.000012	0.000028	-49.597859	-84.419656	53.623103
63421	9.867193	-0.717202	0.630305	-0.006301	0.016810	0.100578	1.000000	0.000034	0.000035	0.000032	-49.586989	-84.419017	53.612885
63422	9.894116	-0.750065	0.626269	0.001749	-0.013429	0.129554	1.000000	0.000018	0.000025	0.000039	-49.592287	-84.418422	53.615693
63423	9.877813	-0.743431	0.610075	0.016439	-0.006940	0.111816	1.000000	0.000031	0.000023	0.000034	-49.593938	-84.418401	53.617710
63424	9.883158	-0.726462	0.648746	-0.022892	0.007693	0.118317	1.000000	0.000018	0.000032	0.000027	-49.581989	-84.418314	53.606615
63425	9.877668	-0.744553	0.611057	0.015509	-0.008262	0.111816	1.000000	0.000035	0.000005	0.000032	-49.597609	-84.419879	53.623115
63426	9.901040	-0.723646	0.598221	0.028006	0.015291	0.132719	1.000000	0.000030	0.000035	0.000041	-49.595403	-84.418533	53.622315
63427	9.894628	-0.747456	0.594808	0.032866	-0.008699	0.127886	1.000000	0.000025	0.000025	0.000022	-49.586626	-84.419538	53.613142
63428	9.866639	-0.721533	0.634021	-0.009708	0.012214	0.100582	1.000000	0.000027	0.000024	0.000043	-49.596259	-84.418856	53.628196
63429	9.862035	-0.734198	0.562511	0.062233	0.004285	0.092428	1.000000	0.000030	0.000035	0.000041	-49.592052	-84.417437	53.624266
63430	9.867368	-0.717312	0.601230	0.022862	0.018928	0.098927	1.000000	0.000021	0.000025	0.000030	-49.590425	-84.417658	53.622882
63431	9.877163	-0.748477	0.614428	0.012538	-0.012215	0.111816	1.000000	0.000031	0.000023	0.000034	-49.592059	-84.417639	53.624882
63432	9.877085	-0.749037	0.614987	0.012007	-0.012875	0.111816	1.000000	0.000041	0.000028	0.000027	-49.584931	-84.418132	53.623377
63433	9.882410	-0.732179	0.653695	-0.027359	0.001766	0.118308	1.000000	0.000021	0.000031	0.000048	-49.591788	-84.416364	53.629419
63434	9.859784	-0.748685	0.633500	-0.007357	-0.015070	0.095739	1.000000	0.000038	0.000023	0.000017	-49.581936	-84.418100	53.628402
63435	9.883191	-0.727696	0.620506	0.005170	0.008460	0.116660	1.000000	0.000012	0.000003	0.000044	-49.611564	-84.418779	53.656304
63436	9.899306	-0.735837	0.637639	-0.010519	0.000637	0.134382	1.000000	0.000030	0.000035	0.000040	-49.608126	-84.417422	53.656579
63437	9.865887	-0.727537	0.638849	-0.014164	0.006276	0.100582	1.000000	0.000031	0.000023	0.000034	-49.609748	-84.417402	53.658567
63438	9.859455	-0.751377	0.635436	-0.009300	-0.017701	0.095733	1.000000	0.000034	0.000035	0.000032	-49.598798	-84.416726	53.648788
63439	9.899044	-0.737801	0.639447	-0.011967	-0.001342	0.134381	1.000000	0.000034	0.000017	0.000038	-49.608544	-84.416893	53.659327
63440	9.882764	-0.731232	0.623159	0.002713	0.005163	0.116664	1.000000	0.000027	0.000024	0.000043	-49.618371	-84.416179	53.672286
63441	9.876346	-0.754973	0.619593	0.007570	-0.018821	0.111811	1.000000	0.000022	0.000020	0.000012	-49.607305	-84.418398	53.660489
63442	9.860078	-0.748242	0.603322	0.022263	-0.012298	0.094096	1.000000	0.000024	0.000024	0.000052	-49.623882	-84.416784	53.672306
63443	9.882522	-0.733174	0.624702	0.001246	0.003201	0.116665	1.000000	0.000044	0.000033	0.000036	-49.616691	-84.415904	53.666910
63444	9.883379	-0.728147	0.591328	0.034278	0.010554	0.115040	1.000000	0.000028	0.000030	0.000031	-49.611636	-84.415795	53.665642
63445	9.882357	-0.734283	0.626009	0.000251	0.001881	0.116665	1.000000	0.000031	0.000030	0.000022	-49.598438	-84.416372	53.652764
63446	9.875937	-0.757970	0.622437	0.005117	-0.022085	0.111806	1.000000	0.000032	0.000012	0.000028	-49.605725	-84.417600	53.654930
63447	9.882224	-0.735295	0.626916	-0.000697	0.000578	0.116665	1.000000	0.000028	0.000030	0.000031	-49.599188	-84.417396	53.648335
63448	9.876743	-0.753405	0.589413	0.037642	-0.015384	0.110187	1.000000	0.000035	0.000023	0.000026	-49.597443	-84.418242	53.644519
63449	9.865903	-0.728947	0.611194	0.013489	0.006443	0.098960	1.000000	0.000028	0.000018	0.000025	-49.596764	-84.419435	53.643871
63450	9.848687	-0.727900	0.628974	-0.005382	0.004949	0.082869	1.000000	0.000004	0.000028	0.000043	-49.606442	-84.418514	53.657088
63451	9.881918	-0.737675	0.628946	-0.002731	-0.002045	0.116665	1.000000	0.000031	0.000023	0.000034	-49.608032	-84.418495	53.659046
63452	9.865665	-0.730896	0.612704	0.011955	0.004460	0.098963	1.000000	0.000035	0.000023	0.000026	-49.604741	-84.419411	53.662102
63453	9.897952	-0.746111	0.646658	-0.018947	-0.010539	0.134364	1.000000	0.000025	0.000019	0.000034	-49.610728	-84.419824	53.667743
63454	9.882659	-0.733794	0.596364	0.029296	0.003980	0.115060	1.000000	0.000037	0.000028	0.000035	-49.609967	-84.419428	53.667427
63455	9.865435	-0.732733	0.614224	0.010476	0.002492	0.098965	1.000000	0.000031	0.000023	0.000034	-49.611548	-84.419410	53.669376
63456	9.881536	-0.740471	0.631660	-0.005238	-0.005327	0.116662	1.000000	0.000038	0.000041	0.000011	-49.580373	-84.420161	53.638129
63457	9.871652	-0.710455	0.619562	0.004171	0.024506	0.103840	1.000000	0.000008	0.000021	0.000047	-49.595949	-84.419255	53.651465
63458	9.859810	-0.751885	0.577947	0.047881	-0.014804	0.092498	1.000000	0.000038	0.000023	0.000017	-49.584698	-84.420770	53.639457
63459	9.865140	-0.734861	0.616404	0.008526	-0.000129	0.098967	1.000000	0.000024	0.000012	0.000046	-49.605480	-84.420587	53.659940
63460	9.865057	-0.735553	0.616922	0.008005	-0.000776	0.098968	1.000000	0.000024	0.000037	0.000027	-49.593059	-84.420272	53.646766
63461	9.881154	-0.743334	0.634271	-0.007698	-0.008607	0.116659	1.000000	0.000018	0.000020	0.000021	-49.588623	-84.421711	53.641222
63462	9.904600	-0.722369	0.621580	0.004812	0.014893	0.137641	1.000000	0.000021	0.000037	0.000036	-49.582758	-84.420493	53.626214
63463	9.898133	-0.746259	0.618206	0.009641	-0.009093	0.132761	1.000000	0.000031	0.000023	0.000034	-49.584323	-84.420475	53.628147
63464	9.864742	-0.737726	0.619356	0.006055	-0.003395	0.098969	1.000000	0.000038	0.000034	0.000023	-49.566253	-84.420642	53.616261
63465	9.887198	-0.722496	0.640709	-0.014966	0.012097	0.121538	1.000000	0.000008	0.000021	0.000047	-49.581807	-84.419738	53.629575
63466	9.888097	-0.717720	0.607134	0.018100	0.019414	0.119961	1.000000	0.000018	0.000026	0.000039	-49.586847	-84.419188	53.633633
63467	9.880643	-0.747186	0.637689	-0.010629	-0.012542	0.116652	1.000000	0.000044	0.000021	0.000030	-49.585479	-84.419708	53.634151
63468	9.864404	-0.740492	0.621430	0.004113	-0.006019	0.098968	1.000000	0.000018	0.000026	0.000039	-49.590545	-84.419121	53.635901
63469	9.904010	-0.727006	0.625551	0.001418	0.010266	0.137648	1.000000	0.000034	0.000035	0.000032	-49.579555	-84.418488	53.625571
63470	9.870623	-0.718459	0.626687	-0.002191	0.015988	0.103858	1.000000	0.000035	0.000023	0.000026	-49.576120	-84.419343	53.624766
63471	9.841618	-0.758086	0.602479	0.023173	-0.024145	0.076398	1.000000	0.000028	0.000030	0.000031	-49.569526	-84.419141	53.618116
63472	9.880244	-0.749967	0.640595	-0.013128	-0.015839	0.116644	1.000000	0.000038	0.000023	0.000017	-49.559598	-84.420889	53.618422
63473	9.887562	-0.721714	0.611099	0.014640	0.014787	0.119974	1.000000	0.000034	0.000029	0.000044	-49.563404	-84.419661	53.622934
63474	9.864929	-0.738270	0.591010	0.034659	-0.002013	0.097407	1.000000	0.000024	0.000037	0.000027	-49.550882	-84.419389	53.612685
63475	9.887390	-0.722961	0.612418	0.013632	0.013470	0.119978	1.000000	0.000031	0.000023	0.000034	-49.552420	-84.419372	53.614593
63476	9.880905	-0.746883	0.609045	0.018446	-0.010507	0.115082	1.000000	0.000030	0.000035	0.000040	-49.548745	-84.417958	53.610507
63477	9.852889	-0.720856	0.648219	-0.023982	0.010592	0.087745	1.000000	0.000031	0.000023	0.000034	-49.550278	-84.417942	53.612409
63478	9.880735	-0.748190	0.610189	0.017457	-0.011831	0.115082	1.000000	0.000021	0.000025	0.000030	-49.549118	-84.418253	53.613458
63479	9.864515	-0.741460	0.593925	0.032216	-0.005313	0.097414	1.000000	0.000031	0.000023	0.000034	-49.550647	-84.418237	53.615356
63480	9.880571	-0.749376	0.611394	0.016473	-0.013144	0.115082	1.000000	0.000031	0.000041	0.000028	-49.532663	-84.417424	53.595667
63481	9.880481	-0.750041	0.612029	0.015990	-0.013805	0.115082	1.000000	0.000021	0.000019	0.000042	-49.545245	-84.417057	53.607525
63482	9.864271	-0.743371	0.595584	0.030758	-0.007275	0.097417	1.000000	0.000032	0.000012	0.000028	-49.552906	-84.418352	53.610962
63483	9.870598	-0.720678	0.600195	0.024979	0.015386	0.102325	1.000000	0.000037	0.000046	0.000029	-49.529347	-84.417103	53.588355
63484	9.869484	-0.726825	0.634939	-0.009109	0.006786	0.103864	1.000000	0.000025	0.000019	0.000034	-49.537438	-84.417631	53.598514
63485	9.864043	-0.745023	0.597294	0.029269	-0.009252	0.097420	1.000000	0.000028	0.000018	0.000025	-49.536693	-84.418827	53.597803
63486	9.880107	-0.752908	0.614540	0.013525	-0.017081	0.115080	1.000000	0.000031	0.000023	0.000034	-49.539097	-84.418785	53.597210
63487	9.880024	-0.753484	0.615175	0.013041	-0.017743	0.115080	1.000000	0.000024	0.000037	0.000027	-49.524324	-84.418398	53.581959
63488	9.869173	-0.729120	0.637123	-0.011076	0.004182	0.103864	1.000000	0.000024	0.000030	0.000040	-49.526506	-84.417431	53.578694
63489	9.903424	-0.733341	0.603227	0.025065	0.005028	0.136123	1.000000	0.000028	0.000030	0.000031	-49.519871	-84.417230	53.572006
63490	9.869001	-0.730505	0.638213	-0.012084	0.002876	0.103863	1.000000	0.000024	0.000012	0.000046	-49.543086	-84.417143	53.594531
63491	9.903250	-0.734887	0.604197	0.024054	0.003713	0.136126	1.000000	0.000031	0.000035	0.000040	-49.538701	-84.415731	53.590430
63492	9.852701	-0.724509	0.622596	0.002171	0.008746	0.086210	1.000000	0.000045	0.000027	0.000018	-49.524716	-84.416948	53.579670
63493	9.885927	-0.734102	0.622693	0.004737	0.001651	0.119995	1.000000	0.000031	0.000023	0.000034	-49.526212	-84.416933	53.581537
63494	9.869724	-0.727374	0.606462	0.019499	0.008182	0.102346	1.000000	0.000028	0.000030	0.000031	-49.520872	-84.416736	53.573590
63495	9.876073	-0.704642	0.611019	0.013737	0.030844	0.107269	1.000000	0.000025	0.000025	0.000021	-49.511966	-84.417746	53.564294
63496	9.862109	-0.757129	0.637592	-0.009785	-0.024379	0.098936	1.000000	0.000025	0.000019	0.000034	-49.519278	-84.418251	53.573778
63497	9.875921	-0.705818	0.612115	0.012746	0.029524	0.107274	1.000000	0.000027	0.000042	0.000037	-49.506739	-84.416653	53.561099
63498	9.868349	-0.735304	0.642764	-0.016053	-0.002384	0.103858	1.000000	0.000038	0.000010	0.000041	-49.525334	-84.417123	53.587371
63499	9.868280	-0.735883	0.643156	-0.016535	-0.003043	0.103857	1.000000	0.000025	0.000025	0.000021	-49.516423	-84.418134	53.578069
63500	9.858516	-0.705896	0.630847	-0.007043	0.026801	0.091142	1.000000	0.000018	0.000026	0.000039	-49.521446	-84.417647	53.585248
63501	9.869177	-0.731660	0.610204	0.016058	0.003552	0.102354	1.000000	0.000024	0.000030	0.000040	-49.521435	-84.416666	53.584806
63502	9.902383	-0.741463	0.610345	0.018602	-0.003562	0.136137	1.000000	0.000021	0.000025	0.000030	-49.519489	-84.416888	53.579887
63503	9.885123	-0.740228	0.628179	-0.000183	-0.004952	0.119995	1.000000	0.000028	0.000030	0.000031	-49.512823	-84.416688	53.573168
63504	9.852824	-0.726127	0.595185	0.029869	0.008755	0.084720	1.000000	0.000028	0.000030	0.000031	-49.506589	-84.416567	53.571263
63505	9.884959	-0.741443	0.629323	-0.001163	-0.006280	0.119994	1.000000	0.000034	0.000017	0.000038	-49.516202	-84.416740	53.581671
63506	9.885962	-0.736519	0.595725	0.031904	0.000967	0.118505	1.000000	0.000012	0.000027	0.000026	-49.511282	-84.417312	53.577735
63507	9.875139	-0.712057	0.617469	0.007849	0.022904	0.107297	1.000000	0.000031	0.000023	0.000034	-49.512750	-84.417298	53.579575
63508	9.871849	-0.789728	0.622908	0.007879	-0.054903	0.110115	1.000000	0.000018	0.000026	0.000039	-49.518676	-84.416834	53.585153
63509	9.868531	-0.736624	0.614656	0.012129	-0.001734	0.102361	1.000000	0.000034	0.000035	0.000032	-49.507598	-84.416205	53.574739
63510	9.878115	-0.767733	0.628073	0.001615	-0.032899	0.115050	1.000000	0.000038	0.000016	0.000029	-49.511785	-84.417205	53.579646
63511	9.835088	-0.728623	0.616206	0.008131	0.003430	0.068582	1.000000	0.000021	0.000037	0.000036	-49.503604	-84.416038	53.570612
63512	9.868294	-0.738427	0.616294	0.010635	-0.003706	0.102362	1.000000	0.000041	0.000010	0.000033	-49.515992	-84.417251	53.586864
63513	9.868218	-0.739062	0.616751	0.010153	-0.004367	0.102362	1.000000	0.000014	0.000032	0.000035	-49.512203	-84.416515	53.581507
63514	9.907873	-0.725619	0.620763	0.007382	0.011807	0.141087	1.000000	0.000032	0.000012	0.000028	-49.520775	-84.417986	53.593636
63515	9.866968	-0.745806	0.651793	-0.024416	-0.013585	0.103832	1.000000	0.000031	0.000035	0.000040	-49.516324	-84.416577	53.589470
63516	9.890527	-0.725030	0.639031	-0.011917	0.009777	0.124934	1.000000	0.000022	0.000013	0.000024	-49.521857	-84.418343	53.599743
63517	9.845379	-0.757286	0.597923	0.028716	-0.023132	0.079791	1.000000	0.000028	0.000030	0.000031	-49.515158	-84.418145	53.592993
63518	9.874280	-0.718863	0.623301	0.002383	0.015654	0.107314	1.000000	0.000024	0.000030	0.000039	-49.516348	-84.417238	53.596488
63519	9.884939	-0.744639	0.602567	0.025458	-0.007627	0.118520	1.000000	0.000028	0.000012	0.000037	-49.530341	-84.417840	53.610561
63520	9.890204	-0.727649	0.641048	-0.013887	0.007146	0.124933	1.000000	0.000024	0.000030	0.000039	-49.531341	-84.416867	53.608333
63521	9.868693	-0.738627	0.586710	0.039770	-0.001747	0.100905	1.000000	0.000028	0.000018	0.000025	-49.530544	-84.418065	53.607572
63522	9.867529	-0.744494	0.621232	0.005680	-0.010293	0.102361	1.000000	0.000038	0.000023	0.000017	-49.520109	-84.419685	53.598843
63523	9.868569	-0.739519	0.587681	0.038780	-0.003066	0.100909	1.000000	0.000018	0.000026	0.000039	-49.524439	-84.419135	53.602028
63524	9.851281	-0.738380	0.605559	0.019998	-0.004413	0.084748	1.000000	0.000021	0.000037	0.000036	-49.517052	-84.418007	53.594276
63525	9.860821	-0.769538	0.619018	0.009477	-0.035589	0.097399	1.000000	0.000038	0.000016	0.000029	-49.519993	-84.418962	53.598392
63526	9.867205	-0.746915	0.623466	0.003710	-0.012923	0.102359	1.000000	0.000037	0.000028	0.000035	-49.518437	-84.418568	53.597393
63527	9.873579	-0.724351	0.628027	-0.002031	0.009735	0.107321	1.000000	0.000037	0.000028	0.000035	-49.515459	-84.418126	53.595504
63528	9.883111	-0.755428	0.641599	-0.012595	-0.021438	0.119965	1.000000	0.000038	0.000034	0.000023	-49.499619	-84.418388	53.583562
63529	9.879885	-0.702339	0.633090	-0.008289	0.031738	0.112288	1.000000	0.000028	0.000006	0.000049	-49.528380	-84.418395	53.612446
63530	9.856124	-0.724580	0.646831	-0.021816	0.007083	0.091154	1.000000	0.000017	0.000037	0.000045	-49.527873	-84.416519	53.613255
63531	9.872104	-0.732732	0.664188	-0.037604	-0.000776	0.108757	1.000000	0.000038	0.000010	0.000041	-49.545585	-84.416878	53.632186
63532	9.879628	-0.704716	0.634451	-0.009771	0.029763	0.112293	1.000000	0.000021	0.000025	0.000030	-49.544222	-84.417142	53.630394
63533	9.895626	-0.712656	0.651766	-0.025561	0.021901	0.129896	1.000000	0.000025	0.000019	0.000033	-49.550040	-84.417560	53.635869
63534	9.879477	-0.706000	0.635384	-0.010749	0.028457	0.112296	1.000000	0.000018	0.000026	0.000039	-49.555637	-84.417011	53.636803
63535	9.872917	-0.729980	0.631914	-0.005980	0.004478	0.107324	1.000000	0.000021	0.000019	0.000042	-49.568077	-84.416647	53.648522
63536	9.850287	-0.746765	0.611416	0.014088	-0.012295	0.084751	1.000000	0.000014	0.000008	0.000053	-49.600411	-84.416142	53.678926
63537	9.873897	-0.726067	0.598538	0.026633	0.011024	0.105902	1.000000	0.000035	0.000029	0.000014	-49.580423	-84.417511	53.659648
63538	9.899467	-0.764454	0.628995	0.000738	-0.027352	0.136118	1.000000	0.000031	0.000035	0.000040	-49.577481	-84.416165	53.656633
63539	9.867246	-0.750400	0.596036	0.030888	-0.013610	0.100928	1.000000	0.000024	0.000037	0.000027	-49.562580	-84.415786	53.641263
63540	9.873646	-0.727847	0.600503	0.025141	0.009053	0.105908	1.000000	0.000015	0.000014	0.000041	-49.580585	-84.415881	53.656267
63541	9.877809	-0.776867	0.575824	0.053417	-0.037593	0.112127	1.000000	0.000031	0.000023	0.000034	-49.581981	-84.415870	53.658037
63542	9.883062	-0.759724	0.614405	0.014089	-0.022782	0.118520	1.000000	0.000028	0.000030	0.000031	-49.575950	-84.415656	53.648237
63543	9.900200	-0.762132	0.597712	0.031875	-0.022797	0.134700	1.000000	0.000028	0.000018	0.000025	-49.575130	-84.416856	53.647454
63544	9.884068	-0.755276	0.581486	0.046693	-0.016255	0.117112	1.000000	0.000031	0.000041	0.000028	-49.556887	-84.416118	53.632187
63545	9.873260	-0.730902	0.603140	0.022702	0.005756	0.105917	1.000000	0.000028	0.000006	0.000049	-49.585602	-84.416123	53.661025
63546	9.873158	-0.731808	0.603704	0.022206	0.005100	0.105918	1.000000	0.000030	0.000047	0.000046	-49.575979	-84.413346	53.650954
63547	9.895612	-0.716531	0.625237	0.001160	0.020552	0.128493	1.000000	0.000038	0.000023	0.000017	-49.564130	-84.414900	53.640239
63548	9.855795	-0.730947	0.622105	0.002963	0.003144	0.089735	1.000000	0.000025	0.000019	0.000033	-49.570662	-84.415337	53.644751
63549	9.888973	-0.740807	0.622389	0.005417	-0.004085	0.123504	1.000000	0.000041	0.000040	0.000032	-49.555073	-84.414285	53.630549
63550	9.872837	-0.734076	0.606197	0.020244	0.002469	0.105923	1.000000	0.000031	0.000023	0.000034	-49.557856	-84.414295	53.631241
63551	9.865091	-0.763354	0.636858	-0.008605	-0.029345	0.102321	1.000000	0.000031	0.000023	0.000034	-49.559226	-84.414285	53.632986
63552	9.888726	-0.742514	0.624274	0.003926	-0.006047	0.123504	1.000000	0.000025	0.000043	0.000015	-49.530822	-84.414516	53.601736
63553	9.911199	-0.727017	0.645713	-0.017121	0.009406	0.146077	1.000000	0.000028	0.000018	0.000025	-49.529974	-84.415716	53.600926
63554	9.871353	-0.741617	0.642704	-0.015332	-0.007999	0.107311	1.000000	0.000017	0.000037	0.000045	-49.529545	-84.413895	53.605226
63555	9.872440	-0.736886	0.609252	0.017784	-0.000830	0.105928	1.000000	0.000044	0.000021	0.000030	-49.528035	-84.414424	53.605610
63556	9.831431	-0.756712	0.640239	-0.014007	-0.026042	0.068542	1.000000	0.000025	0.000025	0.000021	-49.519985	-84.415461	53.595656
63557	9.894842	-0.721973	0.631137	-0.003761	0.013966	0.128503	1.000000	0.000028	0.000030	0.000031	-49.513191	-84.415267	53.588816
63558	9.816425	-0.744990	0.590441	0.033961	-0.012320	0.049591	1.000000	0.000021	0.000025	0.000030	-49.511548	-84.415496	53.583963
63559	9.877461	-0.721302	0.649386	-0.022993	0.012038	0.112308	1.000000	0.000021	0.000019	0.000042	-49.523923	-84.415134	53.595617
63560	9.878568	-0.716536	0.615838	0.010127	0.019194	0.110937	1.000000	0.000018	0.000032	0.000026	-49.513266	-84.415191	53.584254
63561	9.865471	-0.763593	0.608538	0.020085	-0.028103	0.100925	1.000000	0.000021	0.000019	0.000042	-49.525635	-84.414829	53.595903
63562	9.878404	-0.717845	0.616952	0.009135	0.017885	0.110941	1.000000	0.000024	0.000037	0.000027	-49.512510	-84.414489	53.582327
63563	9.853377	-0.745158	0.665060	-0.037987	-0.014510	0.091097	1.000000	0.000031	0.000035	0.000040	-49.507916	-84.413085	53.578026
63564	9.871722	-0.742350	0.614236	0.013362	-0.006755	0.105933	1.000000	0.000035	0.000005	0.000032	-49.524612	-84.414751	53.599428
63565	9.860942	-0.717821	0.635669	-0.010591	0.015301	0.094743	1.000000	0.000031	0.000023	0.000034	-49.525953	-84.414742	53.601146
63566	9.894116	-0.727745	0.635877	-0.008198	0.008041	0.128507	1.000000	0.000031	0.000023	0.000034	-49.528926	-84.414782	53.604163
63567	9.876810	-0.726403	0.653586	-0.026933	0.006783	0.112303	1.000000	0.000021	0.000025	0.000030	-49.526516	-84.415017	53.600991
63568	9.893966	-0.728976	0.636803	-0.009170	0.006724	0.128507	1.000000	0.000028	0.000012	0.000037	-49.540906	-84.415617	53.612952
63569	9.888579	-0.747295	0.599386	0.029165	-0.009452	0.122139	1.000000	0.000034	0.000041	0.000019	-49.514911	-84.415593	53.587589
63570	9.861769	-0.715405	0.604158	0.020556	0.019831	0.093396	1.000000	0.000024	0.000012	0.000046	-49.536802	-84.415451	53.608940
63571	9.876493	-0.728953	0.655541	-0.028891	0.004162	0.112299	1.000000	0.000018	0.000026	0.000039	-49.540991	-84.414905	53.611987
63572	9.888339	-0.749307	0.600838	0.027680	-0.011432	0.122141	1.000000	0.000028	0.000018	0.000025	-49.540629	-84.416144	53.612151
63573	9.893577	-0.732015	0.639343	-0.011619	0.003428	0.128506	1.000000	0.000028	0.000030	0.000031	-49.533797	-84.415952	53.605275
63574	9.877476	-0.725323	0.623029	0.003232	0.009982	0.110955	1.000000	0.000018	0.000026	0.000039	-49.539452	-84.415484	53.611365
63575	9.897583	-0.781685	0.615527	0.016043	-0.043945	0.134667	1.000000	0.000028	0.000030	0.000031	-49.532616	-84.415292	53.604486
63576	9.894541	-0.728596	0.607016	0.020501	0.009245	0.127169	1.000000	0.000018	0.000026	0.000039	-49.537597	-84.414754	53.606999
63577	9.865385	-0.768302	0.582896	0.045791	-0.030840	0.099569	1.000000	0.000028	0.000030	0.000031	-49.530758	-84.414562	53.600117
63578	9.894381	-0.729787	0.608195	0.019508	0.007928	0.127172	1.000000	0.000012	0.000027	0.000026	-49.526146	-84.415096	53.595386
63579	9.870520	-0.751716	0.622099	0.005984	-0.016623	0.105929	1.000000	0.000050	0.000032	0.000049	-49.528996	-84.413206	53.600807
63580	9.887678	-0.754276	0.605474	0.023728	-0.016711	0.122144	1.000000	0.000032	0.000018	0.000016	-49.522322	-84.415232	53.595092
63581	9.881079	-0.777901	0.602097	0.028444	-0.040691	0.117111	1.000000	0.000028	0.000030	0.000031	-49.515473	-84.415040	53.588200
63582	9.870283	-0.753427	0.623796	0.004504	-0.018597	0.105926	1.000000	0.000034	0.000029	0.000044	-49.519861	-84.413851	53.592881
63583	9.843492	-0.721513	0.628578	-0.004042	0.010710	0.077201	1.000000	0.000031	0.000030	0.000022	-49.506405	-84.414441	53.579762
63584	9.884438	-0.702753	0.598759	0.026729	0.034507	0.114678	1.000000	0.000028	0.000030	0.000031	-49.501485	-84.414276	53.573801
63585	9.852793	-0.753111	0.642862	-0.015213	-0.021122	0.089702	1.000000	0.000028	0.000030	0.000031	-49.494628	-84.414084	53.566902
63586	9.893749	-0.734421	0.612870	0.015554	0.002668	0.127182	1.000000	0.000032	0.000012	0.000028	-49.503930	-84.415493	53.575614
63587	9.877673	-0.727711	0.596465	0.030450	0.009221	0.109648	1.000000	0.000031	0.000035	0.000040	-49.499264	-84.414092	53.571244
63588	9.876345	-0.733679	0.631122	-0.003677	0.000798	0.110960	1.000000	0.000028	0.000018	0.000025	-49.500014	-84.415362	53.573676
63589	9.893511	-0.736235	0.614539	0.014075	0.000688	0.127185	1.000000	0.000021	0.000037	0.000036	-49.491595	-84.414204	53.564414
63590	9.842942	-0.725446	0.632649	-0.007513	0.006153	0.077203	1.000000	0.000031	0.000030	0.000022	-49.479345	-84.414827	53.552292
63591	9.893351	-0.737261	0.615873	0.013088	-0.000629	0.127186	1.000000	0.000028	0.000030	0.000031	-49.472476	-84.414635	53.545380
63592	9.860021	-0.728582	0.616803	0.009733	0.005392	0.093431	1.000000	0.000031	0.000035	0.000040	-49.469390	-84.413269	53.541512
63593	9.871891	-0.749149	0.562233	0.066288	-0.010283	0.103313	1.000000	0.000034	0.000017	0.000038	-49.478826	-84.413447	53.551747
63594	9.882394	-0.714132	0.638621	-0.011826	0.020169	0.116007	1.000000	0.000031	0.000024	0.000034	-49.481044	-84.413523	53.557845
63595	9.869224	-0.761027	0.631269	-0.001936	-0.027123	0.105907	1.000000	0.000012	0.000015	0.000020	-49.480781	-84.415397	53.555766
63596	9.858449	-0.736428	0.652832	-0.025862	-0.005006	0.094726	1.000000	0.000040	0.000034	0.000044	-49.481236	-84.413852	53.561099
63597	9.899417	-0.718001	0.622896	0.004927	0.018724	0.132242	1.000000	0.000028	0.000012	0.000037	-49.495073	-84.414458	53.575017
63598	9.859556	-0.732501	0.619588	0.006789	0.001435	0.093435	1.000000	0.000025	0.000019	0.000033	-49.501042	-84.414884	53.578477
63599	9.876728	-0.735262	0.602827	0.024534	0.001306	0.109669	1.000000	0.000031	0.000017	0.000046	-49.517065	-84.414280	53.594918
63600	9.916440	-0.722105	0.606979	0.021690	0.017269	0.148481	1.000000	0.000041	0.000028	0.000026	-49.507897	-84.414669	53.587711
63601	9.865865	-0.711425	0.624985	0.000152	0.022772	0.098494	1.000000	0.000021	0.000031	0.000048	-49.514187	-84.412915	53.593200
63602	9.859222	-0.735221	0.621681	0.004822	-0.001199	0.093436	1.000000	0.000038	0.000023	0.000017	-49.503792	-84.414550	53.586412
63603	9.898957	-0.721966	0.625625	0.001986	0.014758	0.132249	1.000000	0.000012	0.000003	0.000044	-49.533034	-84.415228	53.613919
63604	9.882898	-0.715420	0.609099	0.016884	0.021325	0.114737	1.000000	0.000031	0.000035	0.000040	-49.529458	-84.413866	53.610346
63605	9.874961	-0.744633	0.639889	-0.012044	-0.010394	0.110948	1.000000	0.000025	0.000019	0.000033	-49.535124	-84.414288	53.615673
63606	9.865480	-0.714836	0.627168	-0.002325	0.019493	0.098501	1.000000	0.000024	0.000013	0.000045	-49.557015	-84.414158	53.637004
63607	9.898627	-0.724934	0.627415	0.000011	0.012125	0.132253	1.000000	0.000028	0.000030	0.000031	-49.550105	-84.413970	53.630054
63608	9.869437	-0.764451	0.603370	0.025251	-0.027937	0.104611	1.000000	0.000031	0.000030	0.000022	-49.538313	-84.414635	53.620139
63609	9.869358	-0.765051	0.603892	0.024767	-0.028598	0.104610	1.000000	0.000021	0.000019	0.000042	-49.550558	-84.414274	53.631665
63610	9.882409	-0.719497	0.612217	0.013920	0.017367	0.114749	1.000000	0.000017	0.000038	0.000044	-49.549380	-84.412416	53.631469
63611	9.898281	-0.727481	0.629913	-0.001970	0.009480	0.132256	1.000000	0.000038	0.000034	0.000023	-49.531472	-84.412583	53.614620
63612	9.869078	-0.767151	0.605798	0.023292	-0.030581	0.104608	1.000000	0.000031	0.000017	0.000046	-49.547858	-84.411967	53.628384
63613	9.853029	-0.760522	0.589365	0.038220	-0.024017	0.087105	1.000000	0.000028	0.000030	0.000031	-49.540937	-84.411779	53.621423
63614	9.882070	-0.722098	0.614614	0.011976	0.014717	0.114756	1.000000	0.000031	0.000024	0.000034	-49.542410	-84.411860	53.625446
63615	9.875410	-0.745925	0.611261	0.016662	-0.009259	0.109681	1.000000	0.000031	0.000024	0.000034	-49.543643	-84.411855	53.627058
63616	9.880613	-0.728558	0.649787	-0.022636	0.005668	0.116007	1.000000	0.000031	0.000030	0.000022	-49.531050	-84.412526	53.616920
63617	9.875249	-0.747165	0.612346	0.015676	-0.010583	0.109681	1.000000	0.000027	0.000018	0.000055	-49.553592	-84.411139	53.639501
63618	9.875170	-0.747834	0.612795	0.015182	-0.011244	0.109681	1.000000	0.000038	0.000023	0.000017	-49.542219	-84.412738	53.628844
63619	9.871012	-0.699979	0.638045	-0.013841	0.034232	0.103592	1.000000	0.000024	0.000013	0.000045	-49.562592	-84.412561	53.648918
63620	9.876321	-0.743813	0.579777	0.047840	-0.004851	0.108442	1.000000	0.000044	0.000051	0.000030	-49.534498	-84.410932	53.621191
63621	9.864233	-0.724529	0.635605	-0.009645	0.009599	0.098511	1.000000	0.000021	0.000019	0.000042	-49.546700	-84.410573	53.632674
63622	9.857560	-0.748320	0.632321	-0.004991	-0.014376	0.093425	1.000000	0.000038	0.000034	0.000023	-49.530001	-84.410836	53.620117
63623	9.910477	-0.688734	0.644294	-0.018171	0.048160	0.142431	1.000000	0.000011	0.000021	0.000038	-49.538451	-84.410721	53.626710
63624	9.818913	-0.757815	0.595826	0.030049	-0.024550	0.053357	1.000000	0.000045	0.000045	0.000011	-49.501476	-84.411073	53.589418
63625	9.903721	-0.713029	0.641723	-0.013977	0.023522	0.137346	1.000000	0.000001	0.000010	0.000058	-49.535638	-84.410004	53.620662
63626	9.816090	-0.769638	0.665168	-0.038203	-0.041282	0.055810	1.000000	0.000058	0.000043	0.000007	-49.496878	-84.410967	53.587341
63627	9.881001	-0.730146	0.622245	0.005618	0.006116	0.114771	1.000000	-0.000016	0.000031	0.000064	-49.519707	-84.407783	53.605231
63628	9.879585	-0.736115	0.656862	-0.028530	-0.002231	0.115994	1.000000	0.000065	0.000018	0.000008	-49.504272	-84.410443	53.593085
63629	9.874234	-0.754591	0.619554	0.009776	-0.018502	0.109677	1.000000	-0.000009	0.000042	0.000053	-49.507954	-84.407431	53.592509
63630	9.903298	-0.716217	0.644703	-0.016479	0.020228	0.137349	1.000000	0.000042	0.000004	0.000015	-49.511550	-84.410690	53.602514
63631	9.858154	-0.748339	0.603523	0.024212	-0.012593	0.092196	1.000000	0.000021	0.000037	0.000036	-49.503004	-84.409538	53.593130
63632	9.904485	-0.712094	0.611691	0.016177	0.026612	0.136137	1.000000	0.000041	0.000022	0.000038	-49.508919	-84.409306	53.599415
63633	9.827488	-0.794077	0.614032	0.015334	-0.060997	0.065731	1.000000	0.000021	0.000019	0.000042	-49.521091	-84.408948	53.610868
63634	9.871107	-0.704184	0.612762	0.012453	0.032050	0.102399	1.000000	0.000018	0.000026	0.000038	-49.524682	-84.408434	53.612130
63635	9.891033	-0.760575	0.605319	0.025030	-0.022012	0.125939	1.000000	0.000045	0.000010	0.000024	-49.529054	-84.410362	53.618484
63636	9.870970	-0.705277	0.613724	0.011473	0.030741	0.102404	1.000000	0.000018	0.000044	0.000032	-49.513736	-84.409038	53.600684
63637	9.873597	-0.759537	0.623662	0.005844	-0.023780	0.109669	1.000000	0.000028	0.000018	0.000025	-49.512762	-84.410244	53.599754
63638	9.846932	-0.727479	0.628039	-0.002559	0.005668	0.081032	1.000000	0.000034	0.000017	0.000038	-49.523517	-84.410433	53.609664
63639	9.898697	-0.734398	0.577196	0.051547	0.006357	0.129847	1.000000	0.000028	0.000030	0.000031	-49.516535	-84.410248	53.602645
63640	9.879983	-0.738161	0.628932	-0.000783	-0.002427	0.114774	1.000000	0.000025	0.000019	0.000033	-49.523030	-84.410672	53.606300
63641	9.879896	-0.738884	0.629445	-0.001266	-0.003088	0.114774	1.000000	0.000034	0.000029	0.000044	-49.526357	-84.409460	53.610347
63642	9.881182	-0.734223	0.595817	0.031882	0.003933	0.113581	1.000000	0.000012	0.000015	0.000020	-49.526772	-84.411347	53.607020
63643	9.897029	-0.742143	0.613333	0.015950	-0.003964	0.131048	1.000000	0.000031	0.000035	0.000040	-49.521931	-84.409952	53.602482
63644	9.903574	-0.719513	0.617731	0.010308	0.018689	0.136163	1.000000	0.000042	0.000016	0.000020	-49.519250	-84.411762	53.602021
63645	9.839772	-0.754855	0.627758	-0.000834	-0.022236	0.075917	1.000000	0.000018	0.000026	0.000038	-49.523230	-84.411221	53.604864
63646	9.903431	-0.720691	0.618647	0.009316	0.017369	0.136166	1.000000	0.000038	0.000017	0.000029	-49.527433	-84.412250	53.612275
63647	9.863521	-0.735048	0.615501	0.011231	0.000197	0.097311	1.000000	0.000031	0.000035	0.000040	-49.522579	-84.410856	53.607724
63648	9.884603	-0.725152	0.670995	-0.043508	0.007950	0.121068	1.000000	0.000025	0.000019	0.000033	-49.529474	-84.411348	53.615623
63649	9.874017	-0.761633	0.595659	0.033563	-0.024004	0.108472	1.000000	0.000028	0.000030	0.000031	-49.522467	-84.411163	53.608581
63650	9.887194	-0.715871	0.603892	0.022791	0.021963	0.118716	1.000000	0.000031	0.000024	0.000034	-49.524920	-84.411233	53.613393
63651	9.845899	-0.735573	0.634778	-0.008932	-0.002861	0.081030	1.000000	0.000037	0.000022	0.000047	-49.536382	-84.410205	53.625996
63652	9.863100	-0.738451	0.618174	0.008752	-0.003088	0.097313	1.000000	0.000031	0.000024	0.000034	-49.538783	-84.410235	53.628500
63653	9.869664	-0.715812	0.622456	0.003141	0.019564	0.102438	1.000000	0.000028	0.000018	0.000025	-49.537790	-84.411443	53.627552
63654	9.889514	-0.772295	0.615211	0.015625	-0.034541	0.125923	1.000000	0.000034	0.000029	0.000043	-49.541644	-84.410263	53.631074
63655	9.870891	-0.711858	0.589427	0.035816	0.025900	0.101278	1.000000	0.000035	0.000023	0.000025	-49.536232	-84.411045	53.626427
63656	9.862798	-0.740809	0.620162	0.006796	-0.005715	0.097313	1.000000	0.000025	0.000019	0.000033	-49.543039	-84.411464	53.630434
63657	9.852065	-0.716206	0.641492	-0.016991	0.016527	0.086155	1.000000	0.000021	0.000019	0.000042	-49.555148	-84.411105	53.641825
63658	9.862632	-0.742289	0.621043	0.005819	-0.007041	0.097313	1.000000	0.000018	0.000026	0.000038	-49.559486	-84.410635	53.645528
63659	9.878439	-0.750455	0.638561	-0.010132	-0.014940	0.114758	1.000000	0.000037	0.000022	0.000047	-49.570917	-84.409606	53.658100
63660	9.878352	-0.751209	0.639012	-0.010638	-0.015600	0.114756	1.000000	0.000025	0.000019	0.000033	-49.577563	-84.410105	53.665771
63661	9.867625	-0.726515	0.660387	-0.034420	0.006649	0.103599	1.000000	0.000031	0.000024	0.000034	-49.578693	-84.410104	53.667285
63662	9.879596	-0.747255	0.605830	0.022031	-0.009282	0.113605	1.000000	0.000025	0.000019	0.000033	-49.584807	-84.410598	53.674259
63663	9.879519	-0.747854	0.606353	0.021548	-0.009944	0.113605	1.000000	0.000028	0.000030	0.000031	-49.577764	-84.410416	53.667183
63664	9.868787	-0.723062	0.627962	-0.002256	0.012317	0.102450	1.000000	0.000025	0.000037	0.000027	-49.564182	-84.410104	53.654338
63665	9.863462	-0.741635	0.590619	0.036031	-0.004017	0.096168	1.000000	0.000034	0.000017	0.000038	-49.573471	-84.410285	53.664430
63666	9.879276	-0.749661	0.608078	0.020051	-0.011916	0.113606	1.000000	0.000031	0.000024	0.000034	-49.575715	-84.410333	53.667564
63667	9.875212	-0.701660	0.633313	-0.008836	0.033653	0.107596	1.000000	0.000025	0.000025	0.000021	-49.566539	-84.411360	53.658016
63668	9.863241	-0.743376	0.592119	0.034545	-0.005986	0.096172	1.000000	0.000018	0.000026	0.000038	-49.571744	-84.410837	53.661602
63669	9.888272	-0.781961	0.622914	0.008212	-0.044447	0.125893	1.000000	0.000038	0.000028	0.000035	-49.568438	-84.410411	53.659402
63670	9.878961	-0.752059	0.610222	0.018091	-0.014550	0.113606	1.000000	0.000025	0.000019	0.000033	-49.574419	-84.410842	53.662644
63671	9.868245	-0.727345	0.631526	-0.005673	0.007717	0.102454	1.000000	0.000025	0.000019	0.000033	-49.579948	-84.411268	53.667838
63672	9.878807	-0.753288	0.611206	0.017115	-0.015878	0.113606	1.000000	0.000034	0.000035	0.000031	-49.568727	-84.410709	53.657007
63673	9.869512	-0.723267	0.598566	0.027011	0.014016	0.101329	1.000000	0.000028	0.000018	0.000025	-49.567709	-84.411918	53.656036
63674	9.868010	-0.728941	0.633357	-0.007149	0.005742	0.102454	1.000000	0.000037	0.000046	0.000029	-49.544993	-84.410746	53.634805
63675	9.867930	-0.729574	0.633868	-0.007631	0.005082	0.102454	1.000000	0.000025	0.000001	0.000040	-49.571274	-84.411962	53.660867
63676	9.895798	-0.757812	0.596309	0.033303	-0.018137	0.129910	1.000000	0.000021	0.000037	0.000036	-49.563909	-84.410849	53.652473
63677	9.851884	-0.723548	0.617953	0.006876	0.011017	0.085031	1.000000	0.000028	0.000030	0.000031	-49.556834	-84.410667	53.645366
63678	9.894202	-0.764167	0.631631	-0.001340	-0.027078	0.131025	1.000000	0.000038	0.000017	0.000029	-49.560290	-84.411689	53.650568
63679	9.886358	-0.729034	0.584747	0.042227	0.010429	0.117650	1.000000	0.000031	0.000024	0.000034	-49.561381	-84.411689	53.652045
63680	9.874205	-0.709338	0.640417	-0.015192	0.025093	0.107613	1.000000	0.000035	0.000041	0.000019	-49.535444	-84.411776	53.628586
63681	9.851593	-0.725664	0.620110	0.004924	0.008369	0.085035	1.000000	0.000022	0.000007	0.000036	-49.553543	-84.412811	53.646048
63682	9.860741	-0.756675	0.633579	-0.005978	-0.022843	0.097289	1.000000	0.000025	0.000013	0.000015	-49.551612	-84.415282	53.644422
63683	9.851483	-0.726707	0.620636	0.003940	0.007056	0.085036	1.000000	0.000024	0.000013	0.000045	-49.571839	-84.415107	53.664351
63684	9.862036	-0.752755	0.600288	0.026695	-0.016556	0.096185	1.000000	0.000025	0.000037	0.000027	-49.557649	-84.414812	53.650949
63685	9.884498	-0.737540	0.621690	0.005615	-0.001156	0.118764	1.000000	0.000034	0.000017	0.000038	-49.566906	-84.414995	53.661010
63686	9.901736	-0.740398	0.605014	0.023276	-0.001471	0.135080	1.000000	0.000025	0.000019	0.000033	-49.572854	-84.415500	53.667734
63687	9.884345	-0.738870	0.622537	0.004635	-0.002485	0.118765	1.000000	0.000041	0.000022	0.000038	-49.577682	-84.415258	53.674086
63688	9.857778	-0.706717	0.626810	-0.003609	0.027059	0.090210	1.000000	0.000028	0.000018	0.000025	-49.577099	-84.416548	53.674624
63689	9.892320	-0.711876	0.593169	0.032224	0.027092	0.122847	1.000000	0.000040	0.000028	0.000056	-49.590565	-84.414312	53.689572
63690	9.850924	-0.731318	0.624074	0.000514	0.002439	0.085039	1.000000	0.000038	0.000023	0.000017	-49.579311	-84.415876	53.677094
63691	9.869628	-0.728946	0.573291	0.051852	0.009713	0.100274	1.000000	0.000024	0.000013	0.000045	-49.599516	-84.415700	53.697001
63692	9.874769	-0.711696	0.611710	0.012600	0.024776	0.106536	1.000000	0.000021	0.000037	0.000036	-49.591801	-84.414588	53.687680
63693	9.873214	-0.717554	0.646522	-0.021546	0.016527	0.107620	1.000000	0.000024	0.000031	0.000039	-49.591210	-84.413625	53.686677
63694	9.902539	-0.740688	0.575021	0.053013	0.000812	0.134007	1.000000	0.000025	0.000019	0.000033	-49.597455	-84.414119	53.693085
63695	9.867825	-0.736826	0.609737	0.016226	-0.000519	0.101363	1.000000	0.000025	0.000037	0.000027	-49.582149	-84.413760	53.677333
63696	9.890278	-0.721752	0.631154	-0.004893	0.014883	0.123944	1.000000	0.000018	0.000020	0.000050	-49.602618	-84.412713	53.699755
63697	9.872873	-0.720253	0.648731	-0.023526	0.013893	0.107619	1.000000	0.000041	0.000028	0.000026	-49.592716	-84.413075	53.691344
63698	9.878201	-0.764153	0.590580	0.037961	-0.025480	0.112507	1.000000	0.000012	0.000027	0.000025	-49.586942	-84.413634	53.684387
63699	9.923222	-0.733087	0.632669	-0.003727	0.005968	0.157668	1.000000	0.000018	0.000014	0.000032	-49.596845	-84.414487	53.693235
63700	9.836708	-0.783998	0.621990	0.005778	-0.050758	0.074665	1.000000	0.000038	0.000046	0.000029	-49.572737	-84.413248	53.665870
63701	9.917822	-0.752437	0.596064	0.034055	-0.011090	0.151417	1.000000	0.000011	0.000015	0.000050	-49.595683	-84.412533	53.686997
63702	9.825914	-0.759829	0.643965	-0.018435	-0.029083	0.063518	1.000000	0.000068	0.000030	0.000006	-49.566590	-84.414650	53.663525
63703	9.903320	-0.740884	0.546078	0.082257	0.002405	0.132969	1.000000	0.000011	0.000033	0.000043	-49.568748	-84.413148	53.663752
63704	9.872347	-0.724027	0.652519	-0.026960	0.009288	0.107616	1.000000	0.000059	-0.000005	0.000014	-49.577914	-84.417075	53.678020
63705	9.842996	-0.763786	0.628598	-0.001763	-0.030735	0.079842	1.000000	0.000006	0.000069	0.000069	-49.568345	-84.410619	53.665904
63706	9.906793	-0.729997	0.619903	0.008339	0.008591	0.140281	1.000000	0.000052	0.000009	0.000007	-49.560784	-84.414195	53.662396
63707	9.832200	-0.739545	0.650737	-0.025967	-0.009051	0.068698	1.000000	0.000017	0.000038	0.000044	-49.558504	-84.412269	53.658906
63708	9.914833	-0.702880	0.590776	0.035954	0.038139	0.144431	1.000000	0.000028	0.000030	0.000030	-49.552232	-84.412134	53.652462
63709	9.849358	-0.743078	0.634805	-0.008805	-0.010056	0.085031	1.000000	0.000012	0.000009	0.000032	-49.566532	-84.413412	53.664987
63710	9.901256	-0.750552	0.584247	0.045115	-0.009809	0.134041	1.000000	0.000030	0.000047	0.000046	-49.556201	-84.410706	53.655754
63711	9.906385	-0.733183	0.622655	0.005887	0.005277	0.140285	1.000000	0.000019	0.000002	0.000027	-49.572154	-84.412949	53.670730
63712	9.871656	-0.729073	0.657331	-0.030889	0.004017	0.107608	1.000000	0.000038	0.000053	0.000016	-49.533996	-84.412399	53.633511
63713	9.866377	-0.747486	0.620095	0.007372	-0.012396	0.101366	1.000000	0.000015	0.000009	0.000023	-49.541760	-84.414461	53.639881
63714	9.866322	-0.748013	0.620345	0.006874	-0.013058	0.101365	1.000000	0.000018	0.000014	0.000032	-49.552307	-84.415371	53.649597
63715	9.907630	-0.729914	0.590555	0.037597	0.010174	0.139254	1.000000	0.000025	0.000037	0.000027	-49.536952	-84.415013	53.633798
63716	9.888714	-0.733277	0.642286	-0.014718	0.001671	0.123945	1.000000	0.000038	0.000017	0.000029	-49.540637	-84.416047	53.639541
63717	9.881925	-0.756986	0.638982	-0.010136	-0.022297	0.118736	1.000000	0.000021	0.000025	0.000030	-49.537887	-84.416295	53.636042
63718	9.899180	-0.759810	0.622528	0.007482	-0.022670	0.135078	1.000000	0.000028	0.000030	0.000030	-49.532324	-84.416221	53.633458
63719	9.848606	-0.748519	0.640060	-0.013724	-0.016642	0.085016	1.000000	0.000025	0.000019	0.000033	-49.537757	-84.416650	53.638559
63720	9.855258	-0.725891	0.644278	-0.019281	0.006005	0.090227	1.000000	0.000035	0.000023	0.000025	-49.532716	-84.417491	53.634180
63721	9.874029	-0.723631	0.593813	0.032046	0.013169	0.105553	1.000000	0.000028	0.000042	0.000036	-49.519444	-84.415925	53.620803
63722	9.888246	-0.736686	0.645581	-0.017675	-0.002291	0.123940	1.000000	0.000032	0.000012	0.000028	-49.527342	-84.417349	53.628610
63723	9.882977	-0.755402	0.607979	0.020580	-0.018721	0.117707	1.000000	0.000038	0.000010	0.000041	-49.544717	-84.417715	53.647207
63724	9.872294	-0.730574	0.629157	-0.003118	0.003668	0.106574	1.000000	0.000035	0.000023	0.000025	-49.541120	-84.418513	53.644611
63725	9.889557	-0.733365	0.612748	0.014528	0.003280	0.122925	1.000000	0.000034	0.000035	0.000031	-49.529492	-84.417912	53.633679
63726	9.871308	-0.672915	0.586715	0.035013	0.063765	0.098644	1.000000	0.000031	0.000024	0.000034	-49.531900	-84.417961	53.637294
63727	9.887867	-0.739680	0.647953	-0.020142	-0.005568	0.123934	1.000000	0.000025	0.000019	0.000033	-49.537317	-84.418391	53.642380
63728	9.896049	-0.712151	0.618051	0.007988	0.024614	0.128150	1.000000	0.000028	0.000024	0.000043	-49.545704	-84.417628	53.649887
63729	9.895975	-0.712781	0.618511	0.007506	0.023952	0.128152	1.000000	0.000028	0.000018	0.000025	-49.544596	-84.418842	53.648830
63730	9.873359	-0.729177	0.598146	0.027623	0.007252	0.105573	1.000000	0.000018	0.000026	0.000038	-49.549118	-84.418312	53.650797
63731	9.871727	-0.734991	0.632904	-0.006541	-0.000932	0.106573	1.000000	0.000031	0.000035	0.000040	-49.543996	-84.416928	53.645988
63732	9.882249	-0.761128	0.612654	0.016145	-0.024638	0.117702	1.000000	0.000018	0.000014	0.000032	-49.554121	-84.417766	53.652304
63733	9.866368	-0.754474	0.595923	0.031223	-0.018037	0.100349	1.000000	0.000021	0.000019	0.000042	-49.566045	-84.417412	53.663514
63734	9.871489	-0.737054	0.634209	-0.008007	-0.002906	0.106572	1.000000	0.000015	0.000021	0.000029	-49.568582	-84.418139	53.664914
63735	9.866213	-0.755712	0.596931	0.030240	-0.019359	0.100349	1.000000	0.000034	0.000035	0.000031	-49.556929	-84.417540	53.653958
63736	9.883462	-0.758677	0.580705	0.047860	-0.019774	0.116710	1.000000	0.000037	0.000040	0.000041	-49.548098	-84.415797	53.646676
63737	9.881815	-0.764402	0.615569	0.013690	-0.027948	0.117697	1.000000	0.000028	0.000030	0.000030	-49.540875	-84.415622	53.639427
63738	9.865928	-0.757761	0.599041	0.028773	-0.021344	0.100349	1.000000	0.000037	0.000022	0.000047	-49.552225	-84.414589	53.649119
63739	9.895132	-0.719556	0.624127	0.002640	0.017344	0.128169	1.000000	0.000031	0.000024	0.000034	-49.553184	-84.414595	53.650469
63740	9.870938	-0.741216	0.637924	-0.010940	-0.006863	0.106567	1.000000	0.000024	0.000025	0.000051	-49.568197	-84.413094	53.665955
63741	9.855048	-0.734627	0.621455	0.004150	-0.000257	0.089223	1.000000	0.000034	0.000035	0.000031	-49.556536	-84.412496	53.654992
63742	9.877504	-0.719434	0.642974	-0.016957	0.015124	0.111806	1.000000	0.000038	0.000028	0.000035	-49.553717	-84.412127	53.653151
63743	9.845844	-0.705339	0.609330	0.013712	0.028996	0.077126	1.000000	0.000031	0.000024	0.000034	-49.554666	-84.412133	53.654491
63744	9.894696	-0.723016	0.627035	0.000179	0.014037	0.128174	1.000000	0.000031	0.000024	0.000034	-49.556368	-84.412176	53.656256
63745	9.854727	-0.737150	0.623555	0.002196	-0.002893	0.089224	1.000000	0.000022	0.000007	0.000036	-49.574360	-84.413211	53.673611
63746	9.887797	-0.747377	0.624107	0.004227	-0.010599	0.122930	1.000000	0.000038	0.000035	0.000023	-49.556947	-84.413499	53.658995
63747	9.870343	-0.745610	0.642000	-0.014367	-0.011486	0.106558	1.000000	0.000011	0.000051	0.000037	-49.538150	-84.411215	53.638162
63748	9.871827	-0.741269	0.608481	0.018807	-0.004638	0.105595	1.000000	0.000022	0.000007	0.000036	-49.558307	-84.412286	53.659163
63749	9.898128	-0.774714	0.605322	0.025883	-0.035653	0.134051	1.000000	0.000025	0.000037	0.000027	-49.542872	-84.411932	53.643289
63750	9.882258	-0.767970	0.588916	0.040961	-0.029039	0.116718	1.000000	0.000024	0.000031	0.000039	-49.543378	-84.410998	53.643336
63751	9.885762	-0.755619	0.661533	-0.031936	-0.021367	0.123882	1.000000	0.000024	0.000031	0.000039	-49.542629	-84.410040	53.642181
63752	9.864713	-0.767065	0.607147	0.021883	-0.030582	0.100343	1.000000	0.000031	0.000024	0.000034	-49.543595	-84.410058	53.641577
63753	9.871393	-0.744511	0.611556	0.016374	-0.007937	0.105597	1.000000	0.000041	0.000040	0.000032	-49.527486	-84.409036	53.626891
63754	9.878078	-0.722025	0.615838	0.010861	0.014705	0.110854	1.000000	0.000038	0.000010	0.000041	-49.544979	-84.409431	53.644341
63755	9.871240	-0.745757	0.612509	0.015403	-0.009262	0.105598	1.000000	0.000025	0.000025	0.000021	-49.535646	-84.410466	53.634646
63756	9.860569	-0.720853	0.633811	-0.008232	0.013178	0.094478	1.000000	0.000034	0.000029	0.000043	-49.539875	-84.409347	53.641358
63757	9.858880	-0.726596	0.668552	-0.042407	0.005045	0.095421	1.000000	0.000038	0.000028	0.000035	-49.536365	-84.408930	53.638964
63758	9.879355	-0.719508	0.583933	0.042595	0.019530	0.109919	1.000000	0.000028	0.000030	0.000030	-49.529438	-84.408802	53.631526
63759	9.882858	-0.706977	0.656423	-0.030298	0.027233	0.117062	1.000000	0.000025	0.000019	0.000033	-49.534777	-84.409233	53.636535
63760	9.844473	-0.715996	0.618974	0.005392	0.017826	0.077160	1.000000	0.000028	0.000030	0.000030	-49.529949	-84.409120	53.634355
63761	9.910652	-0.735999	0.619870	0.009916	0.003016	0.144564	1.000000	0.000028	0.000030	0.000030	-49.522675	-84.408947	53.627059
63762	9.861681	-0.719512	0.603188	0.022519	0.016702	0.093548	1.000000	0.000031	0.000024	0.000034	-49.524150	-84.409000	53.628737
63763	9.887945	-0.753074	0.600129	0.029553	-0.014345	0.121982	1.000000	0.000018	0.000026	0.000038	-49.527793	-84.408467	53.631252
63764	9.889469	-0.748868	0.566420	0.062750	-0.007550	0.121055	1.000000	0.000024	0.000013	0.000045	-49.548421	-84.408381	53.652551
63765	9.861432	-0.721787	0.604537	0.021059	0.014714	0.093554	1.000000	0.000018	0.000026	0.000038	-49.552057	-84.407848	53.655058
63766	9.870324	-0.752870	0.618539	0.009982	-0.016521	0.105595	1.000000	0.000032	0.000030	0.000022	-49.538733	-84.408463	53.640419
63767	9.877041	-0.730222	0.622776	0.004487	0.006123	0.110868	1.000000	0.000025	0.000019	0.000033	-49.544058	-84.408895	53.645415
63768	9.870172	-0.754088	0.619474	0.008998	-0.017830	0.105594	1.000000	0.000021	0.000019	0.000042	-49.557166	-84.408539	53.657019
63769	9.876892	-0.731440	0.623709	0.003505	0.004814	0.110869	1.000000	0.000035	0.000029	0.000013	-49.536894	-84.409936	53.637493
63770	9.852646	-0.752819	0.637561	-0.010080	-0.019323	0.089200	1.000000	0.000024	0.000025	0.000051	-49.551896	-84.408421	53.652538
63771	9.892476	-0.740202	0.641836	-0.013089	-0.003777	0.128175	1.000000	0.000018	0.000014	0.000032	-49.561646	-84.409277	53.661235
63772	9.860905	-0.725940	0.608143	0.017640	0.010110	0.093567	1.000000	0.000035	0.000041	0.000019	-49.535678	-84.409321	53.635249
63773	9.869782	-0.756939	0.622210	0.006552	-0.021129	0.105589	1.000000	0.000025	0.000019	0.000033	-49.540993	-84.409753	53.640235
63774	9.869714	-0.757442	0.622680	0.006052	-0.021803	0.105588	1.000000	0.000025	0.000025	0.000021	-49.532027	-84.410913	53.632644
63775	9.852262	-0.755650	0.640136	-0.012520	-0.022630	0.089190	1.000000	0.000021	0.000019	0.000042	-49.543828	-84.410561	53.643732
63776	9.869563	-0.758542	0.623728	0.005076	-0.023120	0.105586	1.000000	0.000042	0.000034	0.000014	-49.519639	-84.411542	53.619774
63777	9.892021	-0.743390	0.645145	-0.016026	-0.007753	0.128168	1.000000	0.000027	0.000018	0.000055	-49.541683	-84.410163	53.641860
63778	9.877837	-0.731823	0.594212	0.032799	0.006294	0.109974	1.000000	0.000032	0.000012	0.000028	-49.549228	-84.411629	53.650401
63779	9.893510	-0.739766	0.611756	0.016697	-0.001645	0.127270	1.000000	0.000031	0.000024	0.000034	-49.550098	-84.411639	53.651666
63780	9.867115	-0.707488	0.615855	0.008742	0.028118	0.098867	1.000000	0.000038	0.000028	0.000035	-49.547025	-84.411256	53.649086
63781	9.894995	-0.735979	0.578760	0.049426	0.004460	0.126381	1.000000	0.000035	0.000023	0.000025	-49.541404	-84.412050	53.644244
63782	9.884345	-0.711063	0.599951	0.025852	0.026948	0.115274	1.000000	0.000028	0.000024	0.000042	-49.549356	-84.411320	53.652021
63783	9.873683	-0.686166	0.621316	0.002294	0.049440	0.104168	1.000000	0.000031	0.000042	0.000028	-49.529400	-84.410547	53.632355
63784	9.877357	-0.735639	0.597474	0.029857	0.002316	0.109985	1.000000	0.000014	0.000009	0.000053	-49.561414	-84.410126	53.665178
63785	9.899826	-0.720414	0.618860	0.008753	0.017678	0.132571	1.000000	0.000029	0.000042	0.000006	-49.524730	-84.411166	53.628413
63786	9.859810	-0.734489	0.615583	0.010780	0.000842	0.093581	1.000000	0.000004	0.000016	0.000067	-49.561726	-84.409022	53.665812
63787	9.861381	-0.730324	0.581868	0.044007	0.007604	0.092704	1.000000	0.000038	0.000023	0.000017	-49.549623	-84.410602	53.654872
63788	9.870209	-0.761412	0.596022	0.032857	-0.023637	0.104690	1.000000	0.000024	0.000043	0.000045	-49.544189	-84.408354	53.651093
63789	9.892653	-0.746374	0.617572	0.011750	-0.008278	0.127274	1.000000	0.000031	0.000024	0.000034	-49.545040	-84.408364	53.652340
63790	9.870025	-0.762835	0.597246	0.031871	-0.024960	0.104690	1.000000	0.000018	0.000026	0.000038	-49.549580	-84.407891	53.656165
63791	9.881921	-0.722167	0.639236	-0.012302	0.013567	0.116168	1.000000	0.000025	0.000019	0.000033	-49.554859	-84.408325	53.661116
63792	9.875021	-0.745909	0.636068	-0.007802	-0.010400	0.110862	1.000000	0.000028	0.000030	0.000030	-49.547711	-84.408195	53.653158
63793	9.874920	-0.746718	0.636692	-0.008285	-0.011060	0.110861	1.000000	0.000040	0.000028	0.000056	-49.560823	-84.405969	53.667760
63794	9.859115	-0.740017	0.620082	0.006855	-0.004440	0.093584	1.000000	0.000038	0.000023	0.000017	-49.549401	-84.407610	53.657456
63795	9.871028	-0.699235	0.661984	-0.037309	0.034096	0.105064	1.000000	0.000024	0.000013	0.000045	-49.569329	-84.407438	53.677087
63796	9.858956	-0.741274	0.621109	0.005880	-0.005761	0.093584	1.000000	0.000038	0.000046	0.000028	-49.545412	-84.406286	53.653923
63797	9.848293	-0.716402	0.642513	-0.017655	0.016760	0.082480	1.000000	0.000014	0.000026	0.000047	-49.555423	-84.404971	53.662425
63798	9.874470	-0.750204	0.639569	-0.010748	-0.014355	0.110855	1.000000	0.000028	0.000024	0.000042	-49.564028	-84.404229	53.671327
63799	9.872340	-0.697217	0.630293	-0.005549	0.038872	0.104214	1.000000	0.000022	0.000025	0.000030	-49.561100	-84.404484	53.667657
63800	9.898532	-0.730812	0.627308	0.001351	0.007746	0.132587	1.000000	0.000011	0.000021	0.000037	-49.570272	-84.404435	53.675764
63801	9.874218	-0.752280	0.641007	-0.012220	-0.016332	0.110850	1.000000	0.000021	0.000019	0.000042	-49.581990	-84.404084	53.686771
63802	9.858436	-0.745496	0.624306	0.002930	-0.009710	0.093582	1.000000	0.000025	0.000025	0.000021	-49.573205	-84.405190	53.677881
63803	9.840978	-0.743435	0.641791	-0.015618	-0.010480	0.077160	1.000000	0.000025	0.000025	0.000021	-49.563806	-84.406230	53.668126
63804	9.891415	-0.756142	0.625464	0.004356	-0.018208	0.127267	1.000000	0.000032	0.000012	0.000028	-49.571905	-84.407712	53.678055
63805	9.875642	-0.749342	0.608684	0.019524	-0.011585	0.110004	1.000000	0.000031	0.000024	0.000034	-49.572722	-84.407723	53.679270
63806	9.858169	-0.747520	0.626100	0.000975	-0.012358	0.093580	1.000000	0.000025	0.000019	0.000033	-49.577802	-84.408204	53.683191
63807	9.875497	-0.750509	0.609608	0.018555	-0.012917	0.110004	1.000000	0.000035	0.000023	0.000025	-49.572150	-84.409001	53.678321
63808	9.892820	-0.753621	0.593057	0.036108	-0.013474	0.126430	1.000000	0.000024	0.000013	0.000045	-49.593423	-84.408898	53.700719
63809	9.899586	-0.731259	0.597073	0.030652	0.009163	0.131759	1.000000	0.000035	0.000017	0.000037	-49.602427	-84.409089	53.710535
63810	9.849004	-0.719577	0.614470	0.009700	0.015599	0.081650	1.000000	0.000038	0.000046	0.000028	-49.578449	-84.407907	53.686687
63811	9.882011	-0.730095	0.615336	0.011620	0.007745	0.115335	1.000000	0.000024	0.000013	0.000045	-49.598340	-84.407735	53.706281
63812	9.899339	-0.733250	0.598725	0.029183	0.007184	0.131766	1.000000	0.000038	0.000017	0.000029	-49.601849	-84.408704	53.710017
63813	9.897560	-0.738703	0.633372	-0.005019	-0.000856	0.132589	1.000000	0.000028	0.000030	0.000030	-49.594451	-84.408538	53.702604
63814	9.881783	-0.732010	0.616712	0.010137	0.005782	0.115338	1.000000	0.000021	0.000019	0.000042	-49.607728	-84.408210	53.715464
63815	9.899101	-0.735275	0.600182	0.027710	0.005205	0.131771	1.000000	0.000021	0.000019	0.000042	-49.619414	-84.407860	53.726441
63816	9.865930	-0.726143	0.600349	0.024823	0.011741	0.098091	1.000000	0.000025	0.000019	0.000033	-49.625103	-84.408374	53.732259
63817	9.898949	-0.736465	0.601234	0.026729	0.003871	0.131774	1.000000	0.000035	0.000041	0.000019	-49.598609	-84.408394	53.706445
63818	9.864057	-0.732048	0.635820	-0.009886	0.003046	0.098905	1.000000	0.000018	0.000026	0.000038	-49.603129	-84.407974	53.711212
63819	9.881391	-0.735028	0.619402	0.007685	0.002463	0.115341	1.000000	0.000039	0.000023	0.000017	-49.591009	-84.409558	53.700259
63820	9.897008	-0.742824	0.637170	-0.008469	-0.005481	0.132585	1.000000	0.000028	0.000030	0.000030	-49.583910	-84.409357	53.690916
63821	9.856966	-0.756762	0.633891	-0.006373	-0.022224	0.093560	1.000000	0.000024	0.000031	0.000039	-49.582949	-84.408406	53.689556
63822	9.865466	-0.729410	0.603998	0.021891	0.007785	0.098102	1.000000	0.000031	0.000024	0.000034	-49.584976	-84.408442	53.691962
63823	9.898472	-0.739868	0.604891	0.023784	-0.000099	0.131782	1.000000	0.000035	0.000035	0.000031	-49.573120	-84.407854	53.680816
63824	9.880978	-0.737949	0.622519	0.005254	-0.000827	0.115343	1.000000	0.000028	0.000030	0.000030	-49.565603	-84.407678	53.671164
63825	9.872086	-0.707998	0.609616	0.015495	0.029102	0.103455	1.000000	0.000028	0.000030	0.000030	-49.558179	-84.407513	53.663726
63826	9.863402	-0.736733	0.640556	-0.013787	-0.002190	0.098901	1.000000	0.000024	0.000013	0.000045	-49.580127	-84.407344	53.685955
63827	9.887602	-0.716829	0.627684	-0.001175	0.020509	0.120695	1.000000	0.000031	0.000024	0.000034	-49.580896	-84.407358	53.687124
63828	9.880647	-0.740648	0.624555	0.003278	-0.003443	0.115343	1.000000	0.000018	0.000026	0.000038	-49.585479	-84.406844	53.690402
63829	9.864883	-0.734007	0.607941	0.018477	0.003187	0.098111	1.000000	0.000024	0.000031	0.000039	-49.584496	-84.405894	53.689021
63830	9.880468	-0.742096	0.625666	0.002280	-0.004755	0.115343	1.000000	0.000035	0.000017	0.000037	-49.595365	-84.406145	53.702186
63831	9.887270	-0.719616	0.629720	-0.003151	0.017884	0.120700	1.000000	0.000025	0.000019	0.000033	-49.600566	-84.406580	53.707062
63832	9.847235	-0.733501	0.626246	-0.001054	0.001173	0.081667	1.000000	0.000031	0.000024	0.000034	-49.602072	-84.406608	53.708479
63833	9.880224	-0.744032	0.627224	0.000819	-0.006733	0.115342	1.000000	0.000028	0.000042	0.000036	-49.588444	-84.405059	53.694765
63834	9.885272	-0.726355	0.665591	-0.038350	0.008592	0.121479	1.000000	0.000032	0.000012	0.000028	-49.596770	-84.406392	53.701829
63835	9.880062	-0.745255	0.628318	-0.000159	-0.008032	0.115341	1.000000	0.000031	0.000036	0.000040	-49.591331	-84.405020	53.696718
63836	9.862568	-0.743367	0.645704	-0.018684	-0.008715	0.098889	1.000000	0.000025	0.000007	0.000027	-49.603383	-84.406772	53.706152
63837	9.864263	-0.739070	0.611859	0.014565	-0.002045	0.098118	1.000000	0.000025	0.000019	0.000033	-49.608573	-84.407208	53.711016
63838	9.879847	-0.747069	0.629539	-0.001627	-0.009990	0.115339	1.000000	0.000031	0.000024	0.000034	-49.610383	-84.407233	53.712960
63839	9.879772	-0.747577	0.630115	-0.002110	-0.010651	0.115339	1.000000	0.000032	0.000030	0.000022	-49.596489	-84.407855	53.699438
63840	9.897117	-0.750686	0.613670	0.015423	-0.011273	0.131793	1.000000	0.000015	0.000015	0.000041	-49.613765	-84.407951	53.715511
63841	9.848297	-0.734096	0.596728	0.028300	0.002624	0.080903	1.000000	0.000041	0.000040	0.000032	-49.597426	-84.406944	53.700610
63842	9.896948	-0.751966	0.614831	0.014422	-0.012592	0.131793	1.000000	0.000018	0.000014	0.000032	-49.608865	-84.407887	53.713090
63843	9.870682	-0.719608	0.618696	0.006670	0.017314	0.103493	1.000000	0.000031	0.000036	0.000040	-49.603402	-84.406516	53.707955
63844	9.863711	-0.743255	0.615680	0.011117	-0.006652	0.098121	1.000000	0.000039	0.000023	0.000017	-49.591284	-84.408151	53.696398
63845	9.863648	-0.743706	0.616138	0.010635	-0.007312	0.098121	1.000000	0.000025	0.000019	0.000033	-49.596459	-84.408587	53.701249
63846	9.870473	-0.721144	0.620227	0.005203	0.015335	0.103497	1.000000	0.000045	0.000021	0.000030	-49.595703	-84.409164	53.702435
63847	9.896566	-0.754821	0.617471	0.011977	-0.015904	0.131791	1.000000	0.000024	0.000031	0.000039	-49.594669	-84.408215	53.701004
63848	9.845978	-0.743136	0.634596	-0.008862	-0.009304	0.081658	1.000000	0.000021	0.000019	0.000042	-49.606195	-84.407899	53.710944
63849	9.892770	-0.707407	0.642702	-0.016879	0.029350	0.126088	1.000000	0.000041	0.000028	0.000026	-49.596042	-84.408278	53.702301
63850	9.863253	-0.746679	0.618864	0.008203	-0.010612	0.098120	1.000000	0.000052	0.000032	0.000018	-49.574902	-84.409022	53.682056
63851	9.887510	-0.726550	0.606204	0.020822	0.012033	0.119967	1.000000	0.000031	0.000024	0.000034	-49.575619	-84.409037	53.683174
63852	9.885649	-0.732002	0.640808	-0.013405	0.004066	0.120706	1.000000	0.000025	0.000019	0.000033	-49.581031	-84.409511	53.687847
63853	9.887356	-0.727772	0.607244	0.019851	0.010705	0.119971	1.000000	0.000035	0.000035	0.000031	-49.569097	-84.408927	53.676627
63854	9.854201	-0.718497	0.607555	0.017028	0.017346	0.086305	1.000000	0.000018	0.000026	0.000038	-49.574192	-84.408471	53.682241
63855	9.892311	-0.710697	0.646132	-0.019805	0.025389	0.126093	1.000000	0.000028	0.000018	0.000024	-49.572906	-84.409694	53.681015
63856	9.854060	-0.719588	0.608547	0.016056	0.016023	0.086308	1.000000	0.000028	0.000030	0.000030	-49.565829	-84.409586	53.674070
63857	9.862687	-0.750761	0.622930	0.004777	-0.015233	0.098116	1.000000	0.000014	0.000045	0.000040	-49.554798	-84.407497	53.661434
63858	9.878238	-0.758728	0.640750	-0.011444	-0.023183	0.115311	1.000000	0.000045	0.000010	0.000024	-49.560266	-84.409465	53.669343
63859	9.871240	-0.724037	0.593506	0.032615	0.014042	0.102785	1.000000	0.000018	0.000038	0.000044	-49.557432	-84.407554	53.665317
63860	9.869349	-0.729542	0.628252	-0.001613	0.006099	0.103508	1.000000	0.000015	0.000021	0.000029	-49.559317	-84.408227	53.664705
63861	9.869270	-0.730099	0.628840	-0.002095	0.005439	0.103509	1.000000	0.000035	0.000035	0.000031	-49.547371	-84.407643	53.653474
63862	9.862269	-0.753827	0.625846	0.002331	-0.018526	0.098111	1.000000	0.000031	0.000024	0.000034	-49.548087	-84.407714	53.654245
63863	9.870916	-0.726484	0.595903	0.030678	0.011392	0.102795	1.000000	0.000028	0.000030	0.000030	-49.540575	-84.407552	53.646723
63864	9.884645	-0.739260	0.647925	-0.019286	-0.003862	0.120697	1.000000	0.000038	0.000029	0.000034	-49.536988	-84.407252	53.645080
63865	9.868923	-0.732655	0.631310	-0.004041	0.002778	0.103509	1.000000	0.000021	0.000031	0.000047	-49.542339	-84.405519	53.649652
63866	9.886284	-0.735891	0.614871	0.013479	0.002095	0.119987	1.000000	0.000045	0.000010	0.000024	-49.547186	-84.407500	53.656389
63867	9.875690	-0.710810	0.635895	-0.009927	0.024756	0.108913	1.000000	0.000018	0.000038	0.000044	-49.544325	-84.405589	53.652337
63868	9.861754	-0.757863	0.629076	-0.000595	-0.022500	0.098104	1.000000	0.000025	0.000001	0.000039	-49.570376	-84.406829	53.677463
63869	9.870431	-0.730594	0.598898	0.027760	0.007407	0.102807	1.000000	0.000028	0.000030	0.000030	-49.562849	-84.406667	53.669927
63870	9.868521	-0.736065	0.633622	-0.006477	-0.000518	0.103508	1.000000	0.000028	0.000024	0.000042	-49.570594	-84.405905	53.677080
63871	9.868437	-0.736741	0.634150	-0.006959	-0.001178	0.103508	1.000000	0.000022	0.000026	0.000029	-49.567504	-84.406165	53.673255
63872	9.868359	-0.737331	0.634676	-0.007465	-0.001839	0.103507	1.000000	0.000031	0.000024	0.000034	-49.569264	-84.406271	53.676851
63873	9.852686	-0.730368	0.617884	0.007791	0.004803	0.086330	1.000000	0.000022	0.000020	0.000012	-49.557757	-84.408524	53.664654
63874	9.885674	-0.740915	0.618630	0.009566	-0.003209	0.119991	1.000000	0.000011	0.000015	0.000049	-49.580428	-84.407897	53.685927
63875	9.869980	-0.734217	0.601897	0.024824	0.003432	0.102817	1.000000	0.000038	0.000035	0.000022	-49.562018	-84.408102	53.668620
63876	9.885517	-0.742134	0.619673	0.006924	-0.004735	0.119993	1.000000	0.000028	0.000012	0.000037	-49.648434	-84.415364	53.721330
63877	9.885446	-0.742638	0.620197	0.006437	-0.005397	0.119993	1.000000	0.000028	0.000036	0.000018	-49.626382	-84.415828	53.699237
63878	9.892313	-0.719981	0.624392	0.001044	0.017254	0.125411	1.000000	0.000025	0.000019	0.000033	-49.633166	-84.416287	53.706384
63879	9.878361	-0.766857	0.617590	0.010326	-0.030005	0.114573	1.000000	0.000025	0.000019	0.000033	-49.638431	-84.416738	53.711318
63880	9.859123	-0.711090	0.624948	-0.002189	0.023278	0.091755	1.000000	0.000022	0.000032	0.000017	-49.621089	-84.417723	53.695208
63881	9.862615	-0.760569	0.601270	0.025092	-0.024043	0.097407	1.000000	0.000028	0.000006	0.000049	-49.649225	-84.417741	53.723451
63882	9.869480	-0.738103	0.605328	0.019707	-0.001414	0.102829	1.000000	0.000038	0.000035	0.000022	-49.631432	-84.418052	53.708418
63883	9.893796	-0.718215	0.592571	0.032337	0.021153	0.124751	1.000000	0.000024	0.000013	0.000045	-49.651338	-84.417893	53.728020
63884	9.869317	-0.739444	0.606362	0.018716	-0.002734	0.102831	1.000000	0.000035	0.000035	0.000031	-49.640493	-84.417382	53.719500
63885	9.876183	-0.716878	0.610603	0.013350	0.019902	0.108259	1.000000	0.000022	0.000026	0.000029	-49.637521	-84.417658	53.715787
63886	9.891714	-0.724755	0.628349	-0.002902	0.011962	0.125418	1.000000	0.000028	0.000018	0.000024	-49.637358	-84.418824	53.713688
63887	9.869100	-0.741041	0.607935	0.017252	-0.004699	0.102833	1.000000	0.000031	0.000024	0.000034	-49.638153	-84.418856	53.714880
63888	9.875968	-0.718593	0.612062	0.011875	0.017942	0.108264	1.000000	0.000018	0.000026	0.000038	-49.642401	-84.418373	53.718306
63889	9.870797	-0.737559	0.574895	0.050023	0.001199	0.102182	1.000000	0.000041	0.000028	0.000026	-49.632315	-84.418771	53.709729
63890	9.873944	-0.724464	0.647490	-0.022871	0.009406	0.108918	1.000000	0.000012	0.000039	0.000031	-49.620253	-84.417954	53.696642
63891	9.891302	-0.727823	0.631269	-0.005366	0.008661	0.125420	1.000000	0.000037	0.000023	0.000047	-49.631231	-84.416955	53.708769
63892	9.868679	-0.744198	0.610908	0.014767	-0.008010	0.102835	1.000000	0.000025	0.000025	0.000021	-49.622443	-84.418153	53.702218
63893	9.868602	-0.744788	0.611434	0.014281	-0.008671	0.102835	1.000000	0.000028	0.000024	0.000042	-49.629645	-84.417399	53.709431
63894	9.851070	-0.742777	0.628762	-0.004213	-0.009242	0.086329	1.000000	0.000028	0.000018	0.000024	-49.629335	-84.418708	53.710668
63895	9.875410	-0.722877	0.616017	0.008418	0.013302	0.108275	1.000000	0.000025	0.000031	0.000039	-49.628303	-84.417778	53.709237
63896	9.875327	-0.723474	0.616647	0.007921	0.012648	0.108276	1.000000	0.000041	0.000028	0.000026	-49.619063	-84.418181	53.701110
63897	9.890819	-0.731416	0.634680	-0.008339	0.004685	0.125421	1.000000	0.000028	0.000042	0.000036	-49.605345	-84.416654	53.687310
63898	9.883761	-0.755189	0.631788	-0.003959	-0.019267	0.119977	1.000000	0.000031	0.000024	0.000034	-49.606367	-84.416664	53.686801
63899	9.890658	-0.732635	0.635775	-0.009313	0.003367	0.125421	1.000000	0.000032	0.000012	0.000028	-49.613401	-84.418080	53.694302
63900	9.857549	-0.723233	0.635753	-0.012013	0.010118	0.091770	1.000000	0.000018	0.000026	0.000038	-49.617339	-84.417574	53.696293
63901	9.850495	-0.746995	0.632757	-0.007634	-0.013837	0.086322	1.000000	0.000028	0.000030	0.000030	-49.609876	-84.417431	53.688817
63902	9.885341	-0.752883	0.599573	0.027822	-0.014719	0.119346	1.000000	0.000025	0.000019	0.000033	-49.616018	-84.417993	53.697405
63903	9.874777	-0.727731	0.620425	0.004490	0.008024	0.108283	1.000000	0.000025	0.000019	0.000033	-49.621237	-84.418446	53.702295
63904	9.869621	-0.746752	0.583155	0.042623	-0.008755	0.102213	1.000000	0.000031	0.000024	0.000034	-49.621867	-84.418571	53.703677
63905	9.890192	-0.736323	0.638764	-0.012273	-0.000617	0.125418	1.000000	0.000028	0.000030	0.000030	-49.614393	-84.418428	53.696191
63906	9.867569	-0.752726	0.618338	0.007877	-0.017276	0.102831	1.000000	0.000038	0.000011	0.000041	-49.631789	-84.418877	53.715340
63907	9.867501	-0.753295	0.618737	0.007390	-0.017937	0.102830	1.000000	0.000025	0.000025	0.000021	-49.622354	-84.419942	53.705553
63908	9.896949	-0.715017	0.643672	-0.018606	0.020689	0.130873	1.000000	0.000021	0.000020	0.000041	-49.634295	-84.419621	53.715960
63909	9.851778	-0.747212	0.602378	0.022200	-0.011952	0.085700	1.000000	0.000031	0.000024	0.000034	-49.635043	-84.419655	53.717106
63910	9.856776	-0.729394	0.640684	-0.016935	0.003494	0.091767	1.000000	0.000028	0.000030	0.000030	-49.628669	-84.419636	53.713799
63911	9.891623	-0.735409	0.607571	0.018529	0.002583	0.124808	1.000000	0.000028	0.000024	0.000042	-49.635822	-84.418883	53.720965
63912	9.884559	-0.759122	0.604576	0.022889	-0.021374	0.119347	1.000000	0.000032	0.000030	0.000022	-49.622359	-84.419552	53.707740
63913	9.858438	-0.726543	0.608216	0.015368	0.008696	0.091165	1.000000	0.000021	0.000020	0.000041	-49.633967	-84.419219	53.718634
63914	9.884395	-0.760356	0.605698	0.021902	-0.022695	0.119346	1.000000	0.000025	0.000037	0.000026	-49.618916	-84.418914	53.702920
63915	9.873839	-0.734998	0.626764	-0.001408	0.000072	0.108288	1.000000	0.000025	0.000025	0.000021	-49.609466	-84.419979	53.693118
63916	9.873765	-0.735503	0.627340	-0.001900	-0.000596	0.108287	1.000000	0.000038	0.000029	0.000034	-49.605795	-84.419643	53.690509
63917	9.858128	-0.728754	0.610596	0.013413	0.006052	0.091169	1.000000	0.000031	0.000024	0.000034	-49.606526	-84.419677	53.691639
63918	9.891078	-0.739436	0.611534	0.015078	-0.002050	0.124814	1.000000	0.000025	0.000019	0.000033	-49.612870	-84.420159	53.698346
63919	9.880521	-0.714224	0.632468	-0.008225	0.020724	0.113758	1.000000	0.000028	0.000030	0.000030	-49.605361	-84.420017	53.690826
63920	9.873438	-0.738056	0.629471	-0.003878	-0.003211	0.108286	1.000000	0.000037	0.000023	0.000047	-49.617703	-84.418979	53.703875
63921	9.890832	-0.741337	0.613214	0.013602	-0.004019	0.124816	1.000000	0.000022	0.000032	0.000017	-49.600008	-84.419868	53.685418
63922	9.847251	-0.706052	0.633711	-0.011853	0.026223	0.080119	1.000000	0.000037	0.000023	0.000046	-49.610926	-84.418854	53.695792
63923	9.864629	-0.709549	0.617500	0.005629	0.025413	0.096651	1.000000	0.000031	0.000036	0.000039	-49.605356	-84.417507	53.690553
63924	9.890573	-0.743294	0.615012	0.012133	-0.006004	0.124817	1.000000	0.000019	0.000020	0.000020	-49.600801	-84.419018	53.684798
63925	9.841944	-0.726341	0.597673	0.025302	0.008109	0.074068	1.000000	0.000031	0.000024	0.000034	-49.601514	-84.419053	53.685912
63926	9.857404	-0.734345	0.615563	0.009001	0.000128	0.091176	1.000000	0.000038	0.000029	0.000034	-49.597656	-84.418738	53.683079
63927	9.857320	-0.734940	0.616193	0.008516	-0.000532	0.091177	1.000000	0.000028	0.000030	0.000030	-49.590128	-84.418597	53.675542
63928	9.864240	-0.712465	0.620344	0.003187	0.022106	0.096660	1.000000	0.000018	0.000026	0.000038	-49.593978	-84.418091	53.677517
63929	9.857151	-0.736221	0.617376	0.007539	-0.001848	0.091177	1.000000	0.000028	0.000030	0.000030	-49.586447	-84.417950	53.669977
63930	9.881548	-0.716463	0.604804	0.020153	0.020609	0.113201	1.000000	0.000031	0.000036	0.000039	-49.581630	-84.416730	53.668123
63931	9.870553	-0.749591	0.670189	-0.043047	-0.017633	0.108839	1.000000	0.000031	0.000024	0.000034	-49.582329	-84.416765	53.669222
63932	9.879442	-0.722345	0.640053	-0.014629	0.012147	0.113765	1.000000	0.000029	0.000018	0.000024	-49.582929	-84.418105	53.673229
63933	9.889837	-0.748763	0.620201	0.007677	-0.011978	0.124816	1.000000	0.000025	0.000031	0.000039	-49.581794	-84.417178	53.671699
63934	9.863744	-0.716236	0.623879	0.000219	0.018129	0.096669	1.000000	0.000038	0.000029	0.000034	-49.577730	-84.416846	53.668263
63935	9.874136	-0.742660	0.604083	0.022522	-0.005999	0.107720	1.000000	0.000022	0.000026	0.000029	-49.574645	-84.417126	53.664441
63936	9.896606	-0.727544	0.625384	0.001373	0.009309	0.130308	1.000000	0.000028	0.000012	0.000036	-49.588189	-84.417824	53.678525
63937	9.865469	-0.713468	0.591293	0.032534	0.023275	0.096124	1.000000	0.000028	0.000042	0.000036	-49.574350	-84.416303	53.664610
63938	9.878957	-0.726038	0.643351	-0.017571	0.008161	0.113765	1.000000	0.000045	0.000010	0.000024	-49.579389	-84.418351	53.673014
63939	9.873834	-0.745070	0.606045	0.020549	-0.008660	0.107722	1.000000	0.000018	0.000026	0.000038	-49.582693	-84.417844	53.675196
63940	9.858221	-0.738420	0.589300	0.035885	-0.002006	0.090634	1.000000	0.000025	0.000031	0.000039	-49.581833	-84.416931	53.673327
63941	9.896199	-0.730776	0.628050	-0.001084	0.005993	0.130311	1.000000	0.000035	0.000017	0.000037	-49.590745	-84.417143	53.683049
63942	9.865084	-0.716680	0.593819	0.030087	0.019966	0.096139	1.000000	0.000031	0.000024	0.000034	-49.591734	-84.417165	53.683284
63943	9.873500	-0.747794	0.608133	0.018595	-0.011303	0.107723	1.000000	0.000031	0.000024	0.000034	-49.592406	-84.417202	53.684358
63944	9.880446	-0.725355	0.612156	0.013252	0.011333	0.113228	1.000000	0.000012	0.000021	0.000037	-49.601913	-84.417203	53.694706
63945	9.840336	-0.738934	0.608604	0.015476	-0.005108	0.074090	1.000000	0.000042	0.000028	0.000026	-49.591730	-84.417607	53.686039
63946	9.897783	-0.729279	0.596453	0.030214	0.009798	0.129782	1.000000	0.000018	0.000026	0.000038	-49.595187	-84.417200	53.689304
63947	9.873179	-0.750204	0.610363	0.016604	-0.013956	0.107723	1.000000	0.000038	0.000035	0.000022	-49.576763	-84.417429	53.671987
63948	9.871119	-0.755342	0.645150	-0.017671	-0.021732	0.108248	1.000000	0.000031	0.000024	0.000034	-49.577751	-84.417482	53.672808
63949	9.855528	-0.748587	0.628316	-0.002319	-0.015075	0.091169	1.000000	0.000031	0.000024	0.000034	-49.578411	-84.417519	53.673870
63950	9.897467	-0.731574	0.598876	0.028239	0.007151	0.129790	1.000000	0.000035	0.000035	0.000031	-49.567695	-84.417005	53.665059
63951	9.879889	-0.729417	0.616312	0.009811	0.006695	0.113236	1.000000	0.000031	0.000024	0.000034	-49.568350	-84.417042	53.666117
63952	9.855284	-0.750157	0.630267	-0.003808	-0.017050	0.091165	1.000000	0.000039	0.000041	0.000010	-49.535557	-84.417925	53.634358
63953	9.886772	-0.707290	0.621167	0.004016	0.028658	0.118754	1.000000	0.000027	0.000018	0.000054	-49.557235	-84.416565	53.656074
63954	9.862141	-0.728519	0.634906	-0.009602	0.004930	0.096680	1.000000	0.000018	0.000026	0.000038	-49.561208	-84.416045	53.658263
63955	9.879572	-0.731849	0.618505	0.007851	0.004053	0.113239	1.000000	0.000045	0.000010	0.000024	-49.565544	-84.418008	53.664593
63956	9.881506	-0.727689	0.584857	0.041133	0.010480	0.112732	1.000000	0.000025	0.000037	0.000026	-49.550035	-84.417811	53.650097
63957	9.846423	-0.722717	0.619145	0.004775	0.010258	0.079612	1.000000	0.000038	0.000029	0.000034	-49.546218	-84.417429	53.647411
63958	9.879333	-0.733575	0.620283	0.006374	0.002048	0.113241	1.000000	0.000028	0.000024	0.000042	-49.553147	-84.416724	53.653878
63959	9.846256	-0.724017	0.620292	0.003804	0.008932	0.079614	1.000000	0.000032	0.000030	0.000021	-49.539152	-84.417373	53.640264
63960	9.879184	-0.734550	0.621499	0.005389	0.000712	0.113242	1.000000	0.000032	0.000030	0.000021	-49.525317	-84.418125	53.627754
63961	9.881130	-0.730364	0.587861	0.038690	0.007143	0.112745	1.000000	0.000029	0.000018	0.000024	-49.524009	-84.419369	53.626507
63962	9.868580	-0.709720	0.642932	-0.018333	0.022914	0.102204	1.000000	0.000018	0.000038	0.000043	-49.521625	-84.417497	53.622791
63963	9.878944	-0.736285	0.623250	0.003920	-0.001268	0.113242	1.000000	0.000045	0.000021	0.000029	-49.519638	-84.418079	53.622731
63964	9.885919	-0.713836	0.627228	-0.001394	0.021353	0.118773	1.000000	0.000021	0.000020	0.000041	-49.532021	-84.417854	53.636150
63965	9.856246	-0.753343	0.603289	0.023587	-0.018563	0.090653	1.000000	0.000022	0.000026	0.000029	-49.528862	-84.418136	53.632258
63966	9.887138	-0.768719	0.638553	-0.008615	-0.033864	0.124764	1.000000	0.000041	0.000022	0.000038	-49.533273	-84.417886	53.636258
63967	9.868177	-0.712966	0.645526	-0.020773	0.019617	0.102207	1.000000	0.000022	0.000026	0.000029	-49.530109	-84.418169	53.632360
63968	9.850977	-0.773617	0.567273	0.060706	-0.036749	0.084635	1.000000	0.000048	0.000033	0.000026	-49.516204	-84.418213	53.621503
63969	9.890590	-0.698153	0.667351	-0.042422	0.034262	0.124796	1.000000	0.000049	-0.000009	0.000022	-49.535070	-84.421734	53.642837
63970	9.830310	-0.786073	0.513106	0.114173	-0.046963	0.061569	1.000000	0.000010	0.000063	0.000072	-49.532766	-84.415557	53.638867
63971	9.991035	-0.662826	0.731381	-0.103336	0.073260	0.226186	1.000000	0.000039	-0.000049	0.000012	-49.581455	-84.422854	53.689107
63972	9.788089	-0.804623	0.544195	0.082137	-0.071075	0.022884	1.000000	0.000035	0.000131	0.000016	-49.473547	-84.416493	53.581700
63973	10.012460	-0.657110	0.647810	-0.018817	0.085821	0.241818	1.000000	0.000006	-0.000067	0.000027	-49.552817	-84.423896	53.658831
63974	9.745173	-0.881171	0.619943	0.010025	-0.156145	-0.009387	1.000000	0.000051	0.000116	0.000028	-49.465451	-84.417706	53.575295
63975	9.950408	-0.628737	0.579564	0.043665	0.113780	0.173652	1.000000	0.000005	-0.000043	0.000038	-49.532087	-84.422348	53.639659
63976	9.774618	-0.843509	0.645222	-0.016408	-0.118205	0.018729	1.000000	0.000058	0.000049	0.000024	-49.499832	-84.421303	53.608959
63977	10.007146	-0.678007	0.612181	0.017801	0.066914	0.235826	1.000000	-0.000005	0.000012	0.000044	-49.522807	-84.421271	53.628240
63978	9.797709	-0.770560	0.622813	0.002031	-0.042592	0.034898	1.000000	0.000066	0.000042	-0.000011	-49.470076	-84.423849	53.579514
63979	9.862260	-0.737956	0.614324	0.011928	-0.004534	0.096196	1.000000	-0.000023	0.000021	0.000075	-49.510381	-84.420496	53.614168
63980	9.855118	-0.761638	0.611240	0.016218	-0.028494	0.090645	1.000000	0.000063	0.000019	-0.000013	-49.476618	-84.425114	53.585277
63981	9.855063	-0.762033	0.611635	0.015731	-0.029155	0.090643	1.000000	0.000008	0.000016	0.000058	-49.505316	-84.423634	53.611761
63982	9.917578	-0.734018	0.637177	-0.008200	0.001830	0.152404	1.000000	0.000055	0.000032	0.000009	-49.479090	-84.425293	53.590462
63983	9.884527	-0.724277	0.637119	-0.010722	0.008769	0.118786	1.000000	0.000021	0.000020	0.000041	-49.490531	-84.424966	53.601192
63984	9.891517	-0.701734	0.641316	-0.016017	0.031376	0.124343	1.000000	0.000042	0.000046	0.000019	-49.459772	-84.424762	53.574027
63985	9.860526	-0.687440	0.607085	0.015264	0.045373	0.090282	1.000000	0.000035	0.000005	0.000031	-49.474917	-84.426361	53.590051
63986	9.842172	-0.743441	0.668878	-0.043257	-0.015953	0.080053	1.000000	0.000018	0.000038	0.000043	-49.472666	-84.424498	53.586806
63987	9.893347	-0.699022	0.608712	0.016311	0.036445	0.123906	1.000000	0.000032	0.000012	0.000028	-49.479558	-84.425920	53.594169
63988	9.842004	-0.744807	0.669824	-0.044240	-0.017266	0.080047	1.000000	0.000014	0.000027	0.000046	-49.489779	-84.424668	53.603058
63989	9.926176	-0.710557	0.610229	0.017352	0.027504	0.157528	1.000000	0.000042	0.000016	0.000020	-49.485816	-84.426458	53.600683
63990	9.835550	-0.710939	0.622681	-0.000322	0.019071	0.068145	1.000000	0.000018	0.000026	0.000038	-49.489540	-84.426056	53.604555
63991	9.895123	-0.696986	0.576430	0.048141	0.040827	0.123486	1.000000	0.000022	0.000026	0.000029	-49.486314	-84.426340	53.600597
63992	9.845833	-0.738163	0.603364	0.021372	-0.005825	0.079172	1.000000	0.000038	0.000011	0.000041	-49.504649	-84.426832	53.621814
63993	9.885815	-0.725985	0.607971	0.018123	0.009174	0.118355	1.000000	0.000015	0.000033	0.000034	-49.499553	-84.426154	53.615192
63994	9.868210	-0.723848	0.625199	-0.000281	0.008808	0.101763	1.000000	0.000038	0.000011	0.000041	-49.517242	-84.426587	53.634336
63995	9.892756	-0.704094	0.612457	0.012363	0.031134	0.123930	1.000000	0.000019	0.000038	0.000013	-49.491103	-84.427307	53.607038
63996	9.878499	-0.750842	0.606013	0.021401	-0.016114	0.112786	1.000000	0.000024	0.000013	0.000045	-49.511575	-84.427325	53.629483
63997	9.878398	-0.751692	0.606604	0.020914	-0.016776	0.112786	1.000000	0.000024	0.000043	0.000044	-49.503922	-84.425023	53.621377
63998	9.885395	-0.729407	0.610695	0.015648	0.005847	0.118362	1.000000	0.000015	0.000015	0.000041	-49.520090	-84.425123	53.635578
