// Start Time: Unknown
// Update Rate: 100.0Hz
// Filter Profile: human (46.1)
// Firmware Version: 4.4.0
PacketCounter	Acc_X	Acc_Y	Acc_Z	FreeAcc_X	FreeAcc_Y	FreeAcc_Z	OriInc_q0	OriInc_q1	OriInc_q2	OriInc_q3	Roll	Pitch	Yaw
59294	1.479963	-0.328666	9.724924	0.000000	-0.000000	0.029693	1.000000	-0.000057	0.000008	0.000014	-1.932293	-8.648649	50.871475
59295	1.429518	-0.316377	9.679448	-0.035175	-0.030839	-0.023247	1.000000	-0.000055	0.000016	0.000021	-1.925173	-8.665024	51.601336
59296	1.448752	-0.345597	9.675712	-0.000709	-0.032874	-0.023069	1.000000	-0.000047	0.000022	0.000022	-1.930981	-8.662400	51.603768
59297	1.477840	-0.329466	9.700704	0.000939	-0.001845	0.005469	1.000000	-0.000054	0.000016	0.000035	-1.937462	-8.661175	51.607904
59298	1.452511	-0.323742	9.677967	-0.016987	-0.014887	-0.021000	1.000000	-0.000042	0.000006	0.000014	-1.942510	-8.660413	51.609465
59299	1.457711	-0.303220	9.704481	-0.033522	0.000195	0.005291	1.000000	-0.000047	0.000022	0.000022	-1.948315	-8.657744	51.611896
59300	1.423474	-0.345305	9.677287	-0.018979	-0.049079	-0.025317	1.000000	-0.000047	0.000015	0.000028	-1.954204	-8.655924	51.615112
59301	1.447021	-0.350541	9.675793	-0.000721	-0.032972	-0.023069	1.000000	-0.000048	0.000029	0.000015	-1.959897	-8.652279	51.616751
59302	1.422724	-0.347342	9.677324	-0.018952	-0.049053	-0.025317	1.000000	-0.000056	0.000001	0.000020	-1.966689	-8.652097	51.619072
59303	1.453133	-0.333725	9.726560	-0.017528	-0.020861	0.027445	1.000000	-0.000047	0.000015	0.000028	-1.972673	-8.649804	51.622301
59304	1.454937	-0.305903	9.680308	-0.033154	0.003333	-0.018931	1.000000	-0.000056	0.000023	0.000015	-1.979275	-8.647113	51.623898
59305	1.470893	-0.361449	9.698562	0.017317	-0.019772	0.003401	1.000000	-0.000042	0.000013	0.000007	-1.984203	-8.644886	51.624665
59306	1.451015	-0.334126	9.702351	-0.017149	-0.017737	0.003223	1.000000	-0.000041	0.000014	0.000021	-1.989227	-8.643222	51.627074
59307	1.449671	-0.332705	9.678089	-0.016773	-0.014582	-0.020999	1.000000	-0.000061	0.000010	0.000035	-1.996949	-8.641184	51.631061
59308	1.474508	-0.340598	9.700826	0.001154	-0.001539	0.005469	1.000000	-0.000049	0.000015	0.000014	-2.002772	-8.639454	51.632637
59309	1.449112	-0.334836	9.678099	-0.016686	-0.014453	-0.020999	1.000000	-0.000046	0.000015	0.000042	-2.008795	-8.636626	51.637497
59310	1.448673	-0.335749	9.678133	-0.016686	-0.014453	-0.020999	1.000000	-0.000041	0.000028	0.000008	-2.013649	-8.633350	51.638330
59311	1.502879	-0.326284	9.725902	0.003056	0.029909	0.034006	1.000000	-0.000048	0.000007	0.000021	-2.019572	-8.631252	51.640694
59312	1.443685	-0.361630	9.675883	-0.000330	-0.032410	-0.023067	1.000000	-0.000055	0.000016	0.000021	-2.026254	-8.629360	51.643073
59313	1.446619	-0.336198	9.653914	-0.016146	-0.011100	-0.045221	1.000000	-0.000041	0.000021	0.000015	-2.031234	-8.625752	51.644698
59314	1.424511	-0.337937	9.703965	-0.034985	-0.033257	0.000979	1.000000	-0.000055	0.000009	0.000028	-2.037999	-8.624664	51.647863
59315	1.474536	-0.318613	9.654670	-0.013969	0.023305	-0.040907	1.000000	-0.000048	0.000007	0.000021	-2.043820	-8.622128	51.650209
59316	1.443707	-0.368176	9.700150	-0.000337	-0.035084	0.001156	1.000000	-0.000049	0.000015	0.000014	-2.049638	-8.620394	51.651782
59317	1.474959	-0.323099	9.678966	-0.014076	0.020495	-0.016685	1.000000	-0.000046	0.000030	0.000029	-2.055341	-8.615100	51.655035
59318	1.446138	-0.343643	9.678235	-0.016072	-0.013702	-0.020997	1.000000	-0.000042	0.000013	0.000007	-2.060298	-8.613524	51.655802
59319	1.427217	-0.318824	9.706333	-0.050631	-0.014535	0.003052	1.000000	-0.000040	0.000029	0.000022	-2.064856	-8.608617	51.658239
59320	1.445343	-0.345466	9.678289	-0.015862	-0.013534	-0.020996	1.000000	-0.000055	0.000009	0.000028	-2.071616	-8.607529	51.661402
59321	1.470047	-0.353246	9.701051	0.002379	-0.000252	0.005469	1.000000	-0.000041	0.000028	0.000008	-2.075890	-8.602037	51.662153
59322	1.447986	-0.321071	9.656354	-0.031485	0.007853	-0.043150	1.000000	-0.000063	0.000002	0.000027	-2.083535	-8.601687	51.665271
59323	1.446580	-0.353702	9.726831	-0.015816	-0.019116	0.027451	1.000000	-0.000047	0.000022	0.000022	-2.088701	-8.596663	51.667615
59324	1.448449	-0.325718	9.680634	-0.031451	0.005072	-0.018926	1.000000	-0.000049	0.000015	0.000014	-2.094526	-8.594924	51.669184
59325	1.443626	-0.350456	9.678366	-0.014824	-0.012847	-0.020994	1.000000	-0.000033	0.000028	0.000015	-2.097477	-8.589376	51.670685
59326	1.453154	-0.306103	9.707254	-0.047593	0.020352	0.007367	1.000000	-0.000055	0.000009	0.000028	-2.104244	-8.588281	51.673844
59327	1.472560	-0.335422	9.703422	-0.012622	0.018527	0.007538	1.000000	-0.000056	0.000008	0.000013	-2.109366	-8.584489	51.675113
59328	1.447316	-0.329742	9.680667	-0.030555	0.005481	-0.018923	1.000000	-0.000055	0.000009	0.000028	-2.116129	-8.583384	51.678270
59329	1.466594	-0.358910	9.676851	0.004423	0.003564	-0.018754	1.000000	-0.000041	0.000021	0.000015	-2.119115	-8.578510	51.679587
59330	1.425807	-0.335144	9.754995	-0.049166	-0.019584	0.051509	1.000000	-0.000062	0.000024	0.000021	-2.126567	-8.575639	51.681972
59331	1.447312	-0.335462	9.704977	-0.029749	0.002736	0.005303	1.000000	-0.000047	0.000008	0.000035	-2.130404	-8.571685	51.685617
59332	1.445866	-0.333893	9.680742	-0.029453	0.005770	-0.018920	1.000000	-0.000049	0.000029	0.000001	-2.136051	-8.568331	51.685606
59333	1.475048	-0.317814	9.705817	-0.027110	0.037062	0.009611	1.000000	-0.000048	0.000000	0.000027	-2.139526	-8.565300	51.688345
59334	1.445290	-0.335724	9.680764	-0.028813	0.005898	-0.018918	1.000000	-0.000033	0.000028	0.000015	-2.143571	-8.562072	51.689998
59335	1.469992	-0.343414	9.703532	-0.010273	0.019050	0.007540	1.000000	-0.000047	0.000008	0.000035	-2.147135	-8.558391	51.693700
59336	1.445757	-0.340200	9.705044	-0.028507	0.002970	0.005306	1.000000	-0.000055	0.000016	0.000021	-2.153821	-8.556485	51.696067
59337	1.477267	-0.295190	9.683938	-0.041854	0.058365	-0.012536	1.000000	-0.000048	0.000007	0.000021	-2.157133	-8.553171	51.698098
59338	1.469070	-0.346460	9.703563	-0.009681	0.019102	0.007541	1.000000	-0.000040	0.000036	0.000016	-2.161983	-8.548988	51.699767
59339	1.420780	-0.338949	9.706596	-0.045518	-0.013265	0.003078	1.000000	-0.000062	-0.000005	0.000033	-2.166047	-8.548099	51.703096
59340	1.467458	-0.345945	9.679317	-0.008769	0.021933	-0.016682	1.000000	-0.000035	0.000027	0.000001	-2.170058	-8.544992	51.703115
59341	1.471611	-0.322886	9.681669	-0.024232	0.039973	-0.014605	1.000000	-0.000050	-0.000000	0.000013	-2.172113	-8.542499	51.704046
59342	1.447399	-0.319587	9.683181	-0.042469	0.023893	-0.016835	1.000000	-0.000047	0.000022	0.000022	-2.177922	-8.539860	51.706457
59343	1.466649	-0.348834	9.679336	-0.007267	0.021500	-0.016679	1.000000	-0.000055	0.000009	0.000028	-2.179927	-8.537753	51.708802
59344	1.442423	-0.345605	9.680844	-0.025504	0.005416	-0.018909	1.000000	-0.000049	0.000015	0.000014	-2.185744	-8.536030	51.710367
59345	1.445486	-0.320109	9.658951	-0.040575	0.026388	-0.041050	1.000000	-0.000049	0.000015	0.000014	-2.186797	-8.531901	51.711242
59346	1.447423	-0.326055	9.707461	-0.041141	0.020318	0.007396	1.000000	-0.000027	0.000004	0.000014	-2.190167	-8.531350	51.712817
59347	1.441665	-0.348138	9.680867	-0.023670	0.004819	-0.018904	1.000000	-0.000047	0.000022	0.000022	-2.189968	-8.527166	51.714222
59348	1.464334	-0.350976	9.655101	-0.005153	0.023933	-0.040900	1.000000	-0.000063	0.000002	0.000027	-2.197571	-8.526807	51.717327
59349	1.447639	-0.331693	9.731737	-0.039645	0.016374	0.031628	1.000000	-0.000048	0.000030	0.000015	-2.197689	-8.522636	51.717974
59350	1.464772	-0.355682	9.679371	-0.004615	0.020405	-0.016676	1.000000	-0.000048	0.000000	0.000027	-2.203603	-8.522514	51.721109
59351	1.445061	-0.328422	9.683234	-0.038291	0.022058	-0.016814	1.000000	-0.000041	0.000014	0.000021	-2.203537	-8.519726	51.722714
59352	1.449045	-0.305509	9.685636	-0.054518	0.040164	-0.014727	1.000000	-0.000054	0.000031	0.000022	-2.210032	-8.516136	51.725135
59353	1.469207	-0.337348	9.706044	-0.019333	0.034592	0.009638	1.000000	-0.000049	0.000015	0.000014	-2.209365	-8.513075	51.725714
59354	1.439353	-0.355324	9.680949	-0.021050	0.003421	-0.018898	1.000000	-0.000046	0.000023	0.000036	-2.215113	-8.510349	51.729754
59355	1.468407	-0.339174	9.706101	-0.018613	0.034148	0.009641	1.000000	-0.000036	0.000020	-0.000006	-2.214253	-8.507545	51.728142
59356	1.446516	-0.306756	9.661482	-0.052526	0.042249	-0.038937	1.000000	-0.000061	0.000003	0.000041	-2.221856	-8.507111	51.732881
59357	1.471380	-0.314803	9.684217	-0.033482	0.054772	-0.012484	1.000000	-0.000050	0.000014	-0.000000	-2.220638	-8.503905	51.731892
59358	1.442666	-0.335373	9.683353	-0.035471	0.020559	-0.016800	1.000000	-0.000047	0.000015	0.000028	-2.226379	-8.502076	51.735082
59359	1.467257	-0.343271	9.706131	-0.016524	0.032998	0.009649	1.000000	-0.000048	0.000030	0.000015	-2.225305	-8.497821	51.735747
59360	1.441718	-0.337251	9.683429	-0.034474	0.019943	-0.016795	1.000000	-0.000041	0.000021	0.000015	-2.230082	-8.495350	51.737345
59361	1.466388	-0.345089	9.706198	-0.016010	0.032963	0.009650	1.000000	-0.000047	0.000015	0.000028	-2.233631	-8.491755	51.740420
59362	1.445474	-0.315335	9.685854	-0.050198	0.038033	-0.014696	1.000000	-0.000055	0.000016	0.000021	-2.240208	-8.489832	51.742771
59363	1.441575	-0.342753	9.707756	-0.033022	0.016001	0.007435	1.000000	-0.000032	0.000035	0.000023	-2.235358	-8.485330	51.744017
59364	1.444455	-0.317081	9.685949	-0.048971	0.037148	-0.014686	1.000000	-0.000045	0.000015	0.000042	-2.241134	-8.483373	51.748833
59365	1.441687	-0.347061	9.732085	-0.032823	0.012036	0.031659	1.000000	-0.000036	0.000027	-0.000013	-2.239693	-8.482944	51.745819
59366	1.419819	-0.314662	9.687486	-0.066750	0.020144	-0.016901	1.000000	-0.000069	-0.000004	0.000040	-2.248108	-8.483253	51.750506
59367	1.467588	-0.324493	9.684472	-0.029585	0.052031	-0.012456	1.000000	-0.000047	0.000022	0.000022	-2.249677	-8.479328	51.752343
59368	1.438872	-0.344983	9.683580	-0.031576	0.017818	-0.016781	1.000000	-0.000042	0.000006	0.000014	-2.254583	-8.478572	51.753882
59369	1.468053	-0.328963	9.708747	-0.029024	0.048027	0.011773	1.000000	-0.000047	0.000022	0.000022	-2.253162	-8.477331	51.755021
59370	1.442579	-0.322990	9.686034	-0.046989	0.034974	-0.014668	1.000000	-0.000047	0.000022	0.000022	-2.258794	-8.474741	51.757424
59371	1.442269	-0.323981	9.686047	-0.045782	0.034616	-0.014661	1.000000	-0.000047	0.000008	0.000035	-2.257786	-8.470911	51.760865
59372	1.464977	-0.326642	9.660301	-0.027270	0.053728	-0.036664	1.000000	-0.000049	0.000015	0.000014	-2.263412	-8.469174	51.762412
59373	1.414367	-0.348033	9.709390	-0.046290	-0.003365	0.005239	1.000000	-0.000034	0.000013	0.000014	-2.256845	-8.464614	51.763362
59374	1.466464	-0.333842	9.708821	-0.026013	0.046889	0.011787	1.000000	-0.000068	0.000018	0.000035	-2.264962	-8.462333	51.767299
59375	1.416979	-0.323748	9.687603	-0.060974	0.017006	-0.016858	1.000000	-0.000048	0.000030	0.000015	-2.261920	-8.457859	51.768100
59376	1.440522	-0.329037	9.686136	-0.042695	0.033063	-0.014642	1.000000	-0.000049	0.000015	0.000014	-2.267430	-8.456058	51.769631
59377	1.440219	-0.330023	9.686148	-0.041523	0.032278	-0.014635	1.000000	-0.000047	0.000015	0.000028	-2.264916	-8.453553	51.771808
59378	1.460272	-0.361788	9.706512	-0.007251	0.027160	0.009678	1.000000	-0.000040	0.000036	0.000016	-2.269384	-8.449300	51.773440
59379	1.439274	-0.331832	9.686226	-0.040758	0.030724	-0.014626	1.000000	-0.000048	0.000008	0.000020	-2.266319	-8.452861	51.773732
59380	1.463146	-0.337294	9.684707	-0.022476	0.046761	-0.012411	1.000000	-0.000062	0.000002	0.000027	-2.273562	-8.452512	51.776812
59381	1.462967	-0.338429	9.684695	-0.021459	0.045646	-0.012403	1.000000	-0.000049	0.000015	0.000014	-2.270506	-8.452224	51.777068
59382	1.438646	-0.334874	9.686215	-0.039646	0.029514	-0.014618	1.000000	-0.000026	0.000019	0.000015	-2.273342	-8.450017	51.778689
59383	1.439261	-0.338311	9.710496	-0.039247	0.026107	0.009605	1.000000	-0.000047	0.000022	0.000022	-2.274924	-8.446603	51.780650
59384	1.444368	-0.318093	9.737208	-0.055668	0.041109	0.035958	1.000000	-0.000047	0.000015	0.000028	-2.280386	-8.444790	51.783823
59385	1.465968	-0.318195	9.687234	-0.035748	0.062309	-0.010256	1.000000	-0.000063	0.000017	0.000014	-2.278491	-8.443076	51.784505
59386	1.437286	-0.338807	9.686280	-0.037703	0.028064	-0.014606	1.000000	-0.000040	0.000007	0.000028	-2.283132	-8.442237	51.787664
59387	1.462113	-0.346888	9.709020	-0.018507	0.040792	0.011831	1.000000	-0.000061	0.000010	0.000034	-2.284124	-8.437884	51.791565
59388	1.436705	-0.341002	9.686289	-0.036451	0.027734	-0.014600	1.000000	-0.000047	0.000030	0.000015	-2.289350	-8.434416	51.793151
59389	1.464728	-0.322286	9.687287	-0.033027	0.061154	-0.010239	1.000000	-0.000034	0.000013	0.000014	-2.284019	-8.431276	51.794241
59390	1.464320	-0.323047	9.687323	-0.032955	0.061104	-0.010239	1.000000	-0.000041	0.000029	0.000008	-2.288324	-8.427942	51.795021
59391	1.459484	-0.347902	9.684885	-0.016310	0.042361	-0.012378	1.000000	-0.000055	0.000009	0.000027	-2.290847	-8.428234	51.797196
59392	1.435261	-0.344631	9.686375	-0.034481	0.026232	-0.014589	1.000000	-0.000049	0.000015	0.000014	-2.296144	-8.426456	51.798719
59393	1.463334	-0.326066	9.687371	-0.031182	0.059725	-0.010224	1.000000	-0.000047	0.000022	0.000022	-2.293310	-8.422303	51.800847
59394	1.461866	-0.324345	9.663163	-0.030883	0.062749	-0.034443	1.000000	-0.000047	0.000022	0.000022	-2.298537	-8.419593	51.803209
59395	1.462562	-0.328170	9.687416	-0.030363	0.057849	-0.010211	1.000000	-0.000063	0.000010	0.000020	-2.295874	-8.424186	51.803500
59396	1.457838	-0.353176	9.684941	-0.014059	0.039671	-0.012364	1.000000	-0.000047	0.000015	0.000028	-2.301126	-8.422360	51.806659
59397	1.462023	-0.330149	9.687431	-0.028344	0.056238	-0.010195	1.000000	-0.000034	0.000013	0.000014	-2.290447	-8.420876	51.807750
59398	1.457199	-0.354861	9.684976	-0.012020	0.038048	-0.012354	1.000000	-0.000047	0.000022	0.000022	-2.295477	-8.418236	51.810116
59399	1.437310	-0.327635	9.688968	-0.045682	0.038382	-0.012394	1.000000	-0.000047	0.000015	0.000028	-2.291314	-8.421325	51.811504
59400	1.461061	-0.332960	9.687480	-0.027348	0.054366	-0.010182	1.000000	-0.000050	0.000007	0.000006	-2.296335	-8.420551	51.812183
59401	1.436847	-0.329676	9.688968	-0.044879	0.036917	-0.012385	1.000000	-0.000055	0.000016	0.000021	-2.294626	-8.422405	51.812654
59402	1.464927	-0.311122	9.689990	-0.042770	0.070999	-0.008002	1.000000	-0.000041	0.000021	0.000015	-2.298681	-8.420034	51.814231
59403	1.461029	-0.338617	9.711776	-0.025951	0.048805	0.014052	1.000000	-0.000047	0.000022	0.000022	-2.297080	-8.419033	51.816123
59404	1.440126	-0.308675	9.691541	-0.060108	0.053820	-0.010203	1.000000	-0.000045	0.000015	0.000042	-2.302116	-8.417213	51.820921
59405	1.459297	-0.338017	9.687570	-0.024661	0.050578	-0.010154	1.000000	-0.000063	0.000017	0.000014	-2.300521	-8.417251	51.821462
59406	1.458986	-0.339070	9.687580	-0.024556	0.050461	-0.010153	1.000000	-0.000040	0.000014	0.000021	-2.304593	-8.415710	51.823827
59407	1.459564	-0.342636	9.711856	-0.022616	0.046681	0.014071	1.000000	-0.000039	0.000029	0.000022	-2.296918	-8.407602	51.827659
59408	1.485640	-0.318563	9.664417	-0.020076	0.086949	-0.029968	1.000000	-0.000048	0.000008	0.000020	-2.301769	-8.406715	51.829959
59409	1.433905	-0.337458	9.689135	-0.040187	0.032002	-0.012347	1.000000	-0.000047	0.000022	0.000022	-2.300150	-8.410172	51.830207
59410	1.457578	-0.342788	9.687661	-0.021826	0.047952	-0.010134	1.000000	-0.000048	0.000008	0.000020	-2.304976	-8.409353	51.832516
59411	1.433275	-0.339566	9.689155	-0.038809	0.030460	-0.012337	1.000000	-0.000062	0.000024	0.000021	-2.301324	-8.408419	51.834821
59412	1.461211	-0.321021	9.690228	-0.036670	0.064509	-0.007933	1.000000	-0.000031	0.000028	0.000029	-2.304296	-8.405237	51.838073
59413	1.433184	-0.344105	9.713492	-0.038926	0.026585	0.011881	1.000000	-0.000049	0.000029	0.000001	-2.307878	-8.404964	51.836294
59414	1.460396	-0.322971	9.690286	-0.036597	0.063744	-0.007928	1.000000	-0.000062	-0.000005	0.000033	-2.314500	-8.405557	51.840144
59415	1.484199	-0.328388	9.688794	-0.017635	0.079058	-0.005707	1.000000	-0.000041	0.000021	0.000015	-2.313241	-8.403945	51.841246
59416	1.455217	-0.348872	9.687799	-0.019522	0.044737	-0.010114	1.000000	-0.000054	0.000031	0.000022	-2.318691	-8.400481	51.843630
59417	1.435334	-0.321772	9.691826	-0.052098	0.045446	-0.010115	1.000000	-0.000056	0.000008	0.000013	-2.311633	-8.398637	51.845575
59418	1.454429	-0.351107	9.687837	-0.017489	0.043275	-0.010104	1.000000	-0.000054	0.000031	0.000022	-2.316967	-8.395145	51.847949
59419	1.453045	-0.349398	9.663620	-0.016045	0.044796	-0.034308	1.000000	-0.000048	0.000008	0.000020	-2.311079	-8.396997	51.849954
59420	1.458156	-0.329271	9.690412	-0.032311	0.059628	-0.007887	1.000000	-0.000047	0.000030	0.000015	-2.315482	-8.393691	51.851530
59421	1.459694	-0.335773	9.738920	-0.031933	0.052162	0.040549	1.000000	-0.000047	0.000015	0.000028	-2.313358	-8.394756	51.854110
59422	1.461776	-0.307215	9.693020	-0.047642	0.076350	-0.005664	1.000000	-0.000035	0.000027	0.000001	-2.316026	-8.391801	51.854092
59423	1.451372	-0.353071	9.663738	-0.014144	0.042681	-0.034296	1.000000	-0.000055	0.000016	0.000021	-2.316528	-8.389430	51.856487
59424	1.456550	-0.332961	9.690527	-0.030401	0.057502	-0.007868	1.000000	-0.000040	0.000014	0.000021	-2.320207	-8.387895	51.858834
59425	1.456195	-0.333799	9.690552	-0.029437	0.055955	-0.007856	1.000000	-0.000041	0.000021	0.000015	-2.314917	-8.389048	51.859348
59426	1.454833	-0.332002	9.666338	-0.029098	0.058914	-0.032067	1.000000	-0.000055	0.000016	0.000021	-2.320181	-8.387306	51.861660
59427	1.455722	-0.335844	9.690552	-0.028029	0.054537	-0.007844	1.000000	-0.000049	-0.000007	0.000019	-2.315736	-8.389266	51.864254
59428	1.456354	-0.339460	9.714812	-0.028035	0.051231	0.016369	1.000000	-0.000032	0.000043	0.000016	-2.318214	-8.384509	51.865924
59429	1.454800	-0.337504	9.690633	-0.027570	0.052433	-0.007831	1.000000	-0.000048	0.000015	0.000014	-2.315564	-8.390647	51.864668
59430	1.453503	-0.335772	9.666408	-0.027230	0.055380	-0.032041	1.000000	-0.000055	0.000016	0.000021	-2.320726	-8.388981	51.866988
59431	1.455165	-0.342325	9.714889	-0.026239	0.047276	0.016394	1.000000	-0.000040	0.000014	0.000021	-2.312740	-8.390863	51.868625
59432	1.507889	-0.293096	9.620138	-0.021362	0.128001	-0.071545	1.000000	-0.000048	0.000015	0.000014	-2.316950	-8.389388	51.870147
59433	1.879077	-0.706188	11.205188	0.339328	0.013083	1.565825	1.000000	0.000213	-0.000120	0.000025	-2.271362	-8.404193	51.875033
59434	0.409112	-0.434038	7.951610	-0.377670	-0.664520	-1.875457	1.000000	-0.000683	0.000402	-0.000095	-2.346030	-8.358918	51.862199
59435	2.167404	0.502223	10.792936	-0.378753	1.032255	1.152180	1.000000	0.000690	-0.000102	-0.000080	-2.260566	-8.373947	51.852427
59436	1.085747	-0.948345	8.799715	0.340309	-0.536132	-0.918310	1.000000	-0.000185	0.000037	0.000082	-2.281351	-8.369670	51.861734
59437	1.754639	0.212139	9.373480	-0.228564	0.652992	-0.299157	1.000000	0.000090	-0.000051	-0.000015	-2.261758	-8.381616	51.858329
59438	1.398187	-0.541314	10.260489	0.035446	-0.172081	0.555279	1.000000	-0.000177	0.000085	-0.000006	-2.280080	-8.372277	51.857280
59439	1.407043	-0.478515	9.406746	0.093855	-0.049450	-0.289853	1.000000	-0.000048	-0.000029	0.000039	-2.278540	-8.384071	51.858916
59440	1.498594	-0.310012	9.988275	-0.053657	0.074642	0.291721	1.000000	-0.000091	-0.000001	0.000033	-2.287670	-8.384468	51.862694
59441	1.528259	-0.461337	9.699221	0.117860	0.029515	0.016277	1.000000	-0.000107	0.000008	0.000012	-2.288047	-8.384892	51.865165
59442	1.390155	-0.342309	9.521834	-0.038814	0.012409	-0.183909	1.000000	-0.000006	-0.000013	0.000020	-2.287152	-8.386796	51.867537
59443	1.520176	-0.119069	9.763919	-0.163339	0.229363	0.065569	1.000000	-0.000074	0.000027	0.000035	-2.286351	-8.389637	51.870642
59444	1.363311	-0.407103	9.687791	-0.024792	-0.064141	-0.021216	1.000000	-0.000020	0.000025	0.000001	-2.286688	-8.387230	51.870686
59445	1.473459	-0.200152	9.658233	-0.113644	0.150802	-0.042480	1.000000	-0.000002	0.000009	0.000043	-2.268033	-8.389524	51.876754
59446	1.422658	-0.377687	9.762757	-0.018772	-0.008127	0.060388	1.000000	-0.000077	0.000005	0.000026	-2.275141	-8.389418	51.879783
59447	1.438270	-0.395883	9.661724	0.017035	0.000178	-0.036493	1.000000	-0.000041	-0.000008	0.000026	-2.267971	-8.398593	51.881144
59448	1.443142	-0.255160	9.727178	-0.098642	0.085985	0.023401	1.000000	-0.000068	0.000018	0.000035	-2.274096	-8.396924	51.885081
59449	1.416381	-0.364490	9.617293	-0.016288	0.006974	-0.084841	1.000000	-0.000063	0.000017	0.000014	-2.273838	-8.398580	51.885973
59450	1.396596	-0.337375	9.621361	-0.050527	0.008675	-0.084776	1.000000	-0.000048	0.000015	0.000014	-2.277382	-8.397429	51.887520
59451	1.486387	-0.293859	9.745966	-0.044216	0.093753	0.049807	1.000000	-0.000035	0.000035	-0.000005	-2.271181	-8.396713	51.887071
59452	1.435647	-0.398423	9.637519	0.019490	-0.000340	-0.060702	1.000000	-0.000062	0.000002	0.000027	-2.276494	-8.396955	51.890149
59453	1.481313	-0.319839	9.743382	-0.027565	0.073396	0.047532	1.000000	-0.000045	0.000015	0.000042	-2.274474	-8.403272	51.891921
59454	1.455939	-0.313973	9.720638	-0.045433	0.060179	0.021104	1.000000	-0.000084	0.000028	0.000014	-2.282001	-8.400762	51.893411
59455	1.436689	-0.407665	9.685962	0.020614	-0.010549	-0.012301	1.000000	-0.000029	-0.000003	0.000006	-2.275053	-8.404716	51.893755
59456	1.462591	-0.262563	9.677409	-0.076398	0.100860	-0.022674	1.000000	-0.000055	0.000023	0.000014	-2.279230	-8.402702	51.895324
59457	1.494163	-0.373517	9.712483	0.025430	0.052921	0.020975	1.000000	-0.000056	0.000001	0.000020	-2.277890	-8.406011	51.897018
59458	1.463246	-0.267313	9.701633	-0.075596	0.095987	0.001552	1.000000	-0.000019	0.000004	0.000021	-2.278061	-8.406269	51.899441
59459	1.506560	-0.300631	9.696084	-0.023014	0.108331	0.003722	1.000000	-0.000048	0.000008	0.000020	-2.278240	-8.413725	51.898560
59460	1.448530	-0.337729	9.669521	-0.026668	0.042849	-0.029569	1.000000	-0.000048	0.000000	0.000027	-2.281787	-8.414383	51.901698
59461	1.427828	-0.307495	9.649394	-0.059467	0.047196	-0.053677	1.000000	-0.000033	0.000028	0.000015	-2.275337	-8.409572	51.905919
59462	1.454445	-0.321342	9.720620	-0.041371	0.053264	0.021162	1.000000	-0.000054	-0.000006	0.000040	-2.279770	-8.410836	51.910631
59463	1.442502	-0.361494	9.642650	-0.008115	0.025658	-0.056076	1.000000	-0.000040	0.000007	0.000027	-2.278948	-8.413430	51.912751
59464	1.456637	-0.293783	9.674792	-0.056693	0.076342	-0.024906	1.000000	-0.000054	0.000031	0.000022	-2.283005	-8.410585	51.915175
59465	1.444521	-0.372081	9.715384	-0.006253	0.013927	0.016531	1.000000	-0.000047	0.000015	0.000028	-2.273242	-8.409343	51.921247
59466	1.475257	-0.323965	9.670760	-0.019986	0.072255	-0.024975	1.000000	-0.000041	0.000021	0.000014	-2.275579	-8.407625	51.922858
59467	1.475629	-0.327718	9.695045	-0.018990	0.066911	-0.000758	1.000000	-0.000046	0.000037	0.000023	-2.268223	-8.408994	51.925060
59468	1.442062	-0.372135	9.691269	-0.004501	0.014274	-0.007664	1.000000	-0.000061	0.000017	0.000028	-2.273069	-8.407717	51.928214
59469	1.474734	-0.330093	9.695101	-0.017386	0.065278	-0.000744	1.000000	-0.000063	0.000017	0.000013	-2.269632	-8.406566	51.930927
59470	1.450248	-0.326668	9.696605	-0.035353	0.048807	-0.002975	1.000000	-0.000033	0.000035	0.000009	-2.270872	-8.403337	51.931805
59471	1.445943	-0.354267	9.718261	-0.018887	0.026437	0.018884	1.000000	-0.000052	0.000039	0.000029	-2.271935	-8.402379	51.934463
59472	1.458999	-0.283705	9.726258	-0.067318	0.080295	0.025925	1.000000	-0.000042	0.000014	0.000007	-2.274169	-8.401608	51.935226
59473	1.419318	-0.346148	9.671306	-0.034215	0.013823	-0.031733	1.000000	-0.000063	0.000010	0.000020	-2.260677	-8.403730	51.939985
59474	1.476886	-0.311093	9.697953	-0.030033	0.078489	0.001649	1.000000	-0.000033	0.000028	0.000015	-2.261851	-8.401340	51.941647
59475	1.427013	-0.335781	9.770884	-0.050206	0.017373	0.067418	1.000000	-0.000064	-0.000005	0.000019	-2.263631	-8.405719	51.942008
59476	1.417672	-0.346211	9.647078	-0.033177	0.015124	-0.055924	1.000000	-0.000032	0.000013	0.000028	-2.264968	-8.404963	51.945241
59477	1.451477	-0.306796	9.675163	-0.045239	0.062155	-0.024746	1.000000	-0.000062	0.000003	0.000026	-2.254675	-8.405329	51.952192
59478	1.476229	-0.315067	9.697925	-0.026800	0.074556	0.001689	1.000000	-0.000034	0.000013	0.000014	-2.255839	-8.404657	51.953786
59479	1.427058	-0.304232	9.676628	-0.062655	0.043424	-0.026964	1.000000	-0.000047	0.000015	0.000028	-2.251081	-8.411246	51.954379
59480	1.476499	-0.319785	9.722191	-0.026073	0.068622	0.025906	1.000000	-0.000047	0.000023	0.000021	-2.253813	-8.409496	51.956789
59481	1.436661	-0.382102	9.667206	0.006445	0.001653	-0.031848	1.000000	-0.000047	0.000015	0.000028	-2.239215	-8.415621	51.960589
59482	1.469558	-0.339669	9.671089	-0.007481	0.053427	-0.024837	1.000000	-0.000035	-0.000002	0.000013	-2.240307	-8.416774	51.962128
59483	1.448170	-0.344950	9.745213	-0.023902	0.024777	0.045517	1.000000	-0.000061	0.000025	0.000021	-2.227987	-8.419046	51.967096
59484	1.443913	-0.334305	9.648363	-0.023249	0.037414	-0.051252	1.000000	-0.000036	0.000027	-0.000013	-2.228607	-8.416997	51.965503
59485	1.450834	-0.320001	9.723748	-0.038112	0.044172	0.023735	1.000000	-0.000045	0.000016	0.000042	-2.221542	-8.415980	51.971555
59486	1.469930	-0.349368	9.719624	-0.003304	0.041696	0.023576	1.000000	-0.000063	0.000017	0.000013	-2.225609	-8.414969	51.973074
59487	1.448253	-0.316353	9.675339	-0.035687	0.048063	-0.024628	1.000000	-0.000042	0.000021	0.000000	-2.213317	-8.415651	51.975406
59488	1.471855	-0.321721	9.673910	-0.017108	0.063650	-0.022383	1.000000	-0.000055	0.000016	0.000021	-2.216485	-8.414727	51.977761
59489	1.467933	-0.349518	9.695452	-0.001888	0.041307	-0.000599	1.000000	-0.000048	0.000015	0.000014	-2.223159	-8.420942	51.973996
59490	1.451646	-0.295635	9.678103	-0.052186	0.064163	-0.022206	1.000000	-0.000062	0.000032	0.000015	-2.227063	-8.418288	51.975590
59491	1.442285	-0.344571	9.672710	-0.019729	0.026823	-0.027029	1.000000	-0.000062	-0.000005	0.000033	-2.230454	-8.424315	51.977308
59492	1.386793	-0.221254	10.009447	-0.190672	0.027539	0.292957	1.000000	0.000134	-0.000101	0.000025	-2.212204	-8.436922	51.980655
59493	1.138954	-0.452507	8.687191	-0.002564	-0.185842	-1.041443	1.000000	-0.000437	0.000253	0.000034	-2.263014	-8.413047	51.979591
59494	1.914270	-0.242560	11.021169	0.022562	0.337765	1.370998	1.000000	0.000236	-0.000094	0.000021	-2.233112	-8.424861	51.982535
59495	1.318482	-0.527609	8.597509	0.178511	-0.084770	-1.100921	1.000000	-0.000126	-0.000032	0.000057	-2.233119	-8.423910	51.995648
59496	1.514266	-0.122903	10.189607	-0.212977	0.174343	0.485878	1.000000	-0.000086	0.000059	0.000037	-2.240199	-8.418084	51.999706
59497	1.350878	-0.276882	9.611322	-0.121399	0.004706	-0.103707	1.000000	0.000019	0.000013	0.000030	-2.233212	-8.417117	52.003045
59498	1.433932	-0.490499	9.582378	0.099999	-0.059921	-0.111908	1.000000	-0.000104	0.000024	0.000027	-2.242192	-8.415353	52.006071
59499	1.503681	-0.494510	9.923928	0.103820	-0.039637	0.236073	1.000000	-0.000062	-0.000005	0.000033	-2.240578	-8.420966	52.010060
59500	1.449190	-0.389157	9.520497	0.036240	0.020143	-0.174755	1.000000	-0.000049	0.000000	0.000013	-2.243010	-8.421993	52.011559
59501	1.483438	-0.270825	9.730619	-0.060126	0.100723	0.033384	1.000000	-0.000062	0.000047	0.000002	-2.238138	-8.417055	52.015057
59502	1.458205	-0.264289	9.707879	-0.077950	0.087442	0.006956	1.000000	-0.000022	-0.000012	0.000005	-2.237256	-8.419453	52.015788
59503	1.494201	-0.312356	9.626870	-0.009550	0.091684	-0.065979	1.000000	-0.000020	0.000018	0.000008	-2.236574	-8.428110	52.009820
59504	1.491968	-0.345995	9.696828	0.006859	0.063130	0.004141	1.000000	-0.000077	0.000027	0.000007	-2.242051	-8.426198	52.010525
59505	1.490597	-0.344566	9.672626	0.007784	0.064094	-0.020030	1.000000	-0.000077	0.000019	0.000013	-2.238386	-8.431717	52.010418
59506	1.481499	-0.275814	9.730774	-0.058926	0.095013	0.033448	1.000000	-0.000046	0.000045	0.000016	-2.240371	-8.427731	52.012133
59507	1.464438	-0.339239	9.649978	-0.008559	0.048497	-0.046454	1.000000	-0.000033	0.000021	0.000022	-2.228929	-8.430610	52.015104
59508	1.483464	-0.368460	9.645814	0.026260	0.045972	-0.046657	1.000000	-0.000061	0.000017	0.000027	-2.232761	-8.429734	52.018273
59509	1.475534	-0.302854	9.728150	-0.041651	0.073010	0.031030	1.000000	-0.000075	0.000020	0.000027	-2.241894	-8.435235	52.016104
59510	1.445552	-0.320400	9.702677	-0.043254	0.041658	0.002129	1.000000	-0.000033	0.000035	0.000009	-2.242222	-8.432463	52.017021
59511	1.468879	-0.325571	9.701305	-0.023885	0.056197	0.004399	1.000000	-0.000038	0.000029	0.000036	-2.236183	-8.431953	52.021370
59512	1.444362	-0.322196	9.702795	-0.041770	0.039562	0.002144	1.000000	-0.000060	0.000025	0.000035	-2.239980	-8.430231	52.025395
59513	1.455939	-0.366387	9.623242	0.009999	0.027187	-0.073080	1.000000	-0.000039	0.000029	0.000022	-2.231744	-8.434494	52.026777
59514	1.437950	-0.345136	9.675892	-0.024207	0.021898	-0.024499	1.000000	-0.000061	0.000010	0.000034	-2.235594	-8.434524	52.030737
59515	1.441917	-0.322271	9.678707	-0.039321	0.038023	-0.022010	1.000000	-0.000032	0.000050	0.000010	-2.227032	-8.433639	52.033054
59516	1.421872	-0.294835	9.682978	-0.073436	0.039428	-0.021786	1.000000	-0.000047	0.000015	0.000028	-2.229100	-8.433125	52.036277
59517	1.439774	-0.321062	9.654619	-0.037597	0.039246	-0.046176	1.000000	-0.000046	0.000045	0.000016	-2.222631	-8.430324	52.040586
59518	1.389237	-0.345930	9.727442	-0.057557	-0.021651	0.019352	1.000000	-0.000047	0.000030	0.000015	-2.224475	-8.428194	52.042244
59519	1.393350	-0.323079	9.730243	-0.071765	-0.005677	0.021857	1.000000	-0.000047	0.000015	0.000028	-2.213242	-8.428566	52.049766
59520	1.397450	-0.300301	9.733049	-0.087634	0.011786	0.024359	1.000000	-0.000054	0.000031	0.000022	-2.215847	-8.426272	52.052216
59521	1.392487	-0.325168	9.730297	-0.071251	-0.008033	0.021859	1.000000	-0.000048	0.000008	0.000020	-2.214618	-8.432943	52.051459
59522	1.416204	-0.330655	9.728864	-0.052653	0.007451	0.024128	1.000000	-0.000055	0.000016	0.000021	-2.217326	-8.432399	52.053844
59523	1.407052	-0.379652	9.723255	-0.018793	-0.030291	0.019116	1.000000	-0.000077	-0.000017	0.000031	-2.214386	-8.436828	52.059440
59524	1.444736	-0.313916	9.730124	-0.048916	0.039348	0.028917	1.000000	-0.000047	0.000015	0.000028	-2.216250	-8.436368	52.062663
59525	1.466631	-0.313181	9.680281	-0.028478	0.061107	-0.017159	1.000000	-0.000035	0.000013	-0.000000	-2.206121	-8.432054	52.069394
59526	1.438978	-0.336557	9.703107	-0.030085	0.022978	0.002239	1.000000	-0.000065	-0.000012	0.000011	-2.209736	-8.434820	52.070791
59527	1.463114	-0.342207	9.701604	-0.011386	0.037175	0.004512	1.000000	-0.000057	-0.000006	0.000012	-2.207389	-8.442501	52.070171
59528	1.462350	-0.340197	9.677338	-0.010986	0.039956	-0.019662	1.000000	-0.000043	-0.000008	0.000012	-2.208457	-8.444817	52.071675
59529	1.467889	-0.320319	9.704302	-0.026066	0.052291	0.007056	1.000000	-0.000049	0.000000	0.000012	-2.200359	-8.451202	52.073650
59530	1.462480	-0.342115	9.677250	-0.009420	0.037020	-0.019649	1.000000	-0.000051	-0.000007	0.000005	-2.202156	-8.453473	52.074319
59531	1.485419	-0.344370	9.651592	0.007645	0.054486	-0.041543	1.000000	-0.000034	0.000020	0.000007	-2.204341	-8.464778	52.065943
59532	1.471174	-0.296006	9.682871	-0.042701	0.070464	-0.014566	1.000000	-0.000034	0.000013	0.000014	-2.204379	-8.464773	52.067592
59533	1.466562	-0.320830	9.680041	-0.025306	0.050691	-0.017091	1.000000	-0.000060	-0.000012	0.000053	-2.200485	-8.469697	52.074940
59534	1.485739	-0.350228	9.675788	0.009547	0.048089	-0.017354	1.000000	-0.000045	0.000030	0.000029	-2.202062	-8.467665	52.078248
59535	1.466725	-0.325900	9.704292	-0.023423	0.046185	0.007094	1.000000	-0.000039	0.000022	0.000028	-2.198285	-8.461664	52.087046
59536	1.485649	-0.355067	9.700082	0.011439	0.043588	0.006823	1.000000	-0.000045	0.000023	0.000035	-2.199927	-8.460406	52.091128
59537	1.488924	-0.329351	9.678711	-0.003701	0.061335	-0.014777	1.000000	-0.000059	0.000018	0.000042	-2.188689	-8.471437	52.093603
59538	1.484653	-0.357383	9.700150	0.012941	0.039209	0.006840	1.000000	-0.000052	0.000039	0.000029	-2.190911	-8.468470	52.096926
59539	1.477816	-0.376170	9.648947	0.028960	0.027881	-0.044063	1.000000	-0.000046	0.000008	0.000034	-2.197387	-8.468832	52.098590
59540	1.483787	-0.359411	9.700207	0.013108	0.038418	0.006843	1.000000	-0.000047	0.000030	0.000015	-2.198829	-8.466924	52.100267
59541	1.458376	-0.352733	9.677489	-0.005211	0.024504	-0.019606	1.000000	-0.000034	0.000028	0.000001	-2.198620	-8.469926	52.097548
59542	1.454199	-0.380261	9.698916	0.011421	0.002373	0.002002	1.000000	-0.000034	0.000020	0.000007	-2.198459	-8.469190	52.098422
59543	1.486941	-0.337769	9.703174	-0.001564	0.054205	0.009417	1.000000	-0.000034	0.000020	0.000007	-2.195266	-8.463753	52.102464
59544	1.481882	-0.362255	9.700393	0.015073	0.035511	0.006851	1.000000	-0.000034	0.000028	0.000001	-2.195004	-8.462172	52.102552
59545	1.441755	-0.303572	9.684754	-0.054124	0.040709	-0.016735	1.000000	-0.000055	0.000024	0.000014	-2.194835	-8.470321	52.098448
59546	1.460466	-0.332779	9.680559	-0.019268	0.038089	-0.017020	1.000000	-0.000040	0.000044	0.000009	-2.195295	-8.466925	52.099410
59547	1.435760	-0.328912	9.682078	-0.036772	0.021101	-0.019301	1.000000	-0.000020	0.000033	-0.000005	-2.190824	-8.464758	52.099494
59548	1.435285	-0.329590	9.682125	-0.036385	0.020441	-0.019298	1.000000	-0.000047	0.000015	0.000028	-2.192417	-8.464522	52.102736
59549	1.409872	-0.322902	9.659401	-0.053482	0.005681	-0.045746	1.000000	-0.000032	0.000043	0.000016	-2.183179	-8.465288	52.106108
59550	1.439570	-0.310617	9.709288	-0.051084	0.032229	0.007469	1.000000	-0.000061	0.000018	0.000027	-2.186360	-8.464830	52.109304
59551	1.433638	-0.332407	9.682273	-0.034101	0.016209	-0.019282	1.000000	-0.000039	0.000029	0.000022	-2.182447	-8.465328	52.111990
59552	1.414615	-0.308105	9.710795	-0.068160	0.014031	0.005193	1.000000	-0.000045	0.000023	0.000035	-2.183938	-8.464233	52.116086
59553	1.457550	-0.341805	9.705127	-0.013345	0.026744	0.007185	1.000000	-0.000047	0.000015	0.000028	-2.174645	-8.461221	52.126816
59554	1.432994	-0.338242	9.706606	-0.031161	0.009979	0.004899	1.000000	-0.000038	0.000044	0.000023	-2.175017	-8.457752	52.129408
59555	1.437937	-0.318400	9.733711	-0.046245	0.024284	0.031674	1.000000	-0.000048	0.000008	0.000020	-2.174582	-8.453848	52.135347
59556	1.408423	-0.335668	9.708050	-0.047833	-0.007047	0.002618	1.000000	-0.000049	0.000000	0.000012	-2.176089	-8.455390	52.136875
59557	1.408021	-0.336349	9.708085	-0.046039	-0.008352	0.002626	1.000000	-0.000019	0.000040	0.000003	-2.165140	-8.450296	52.141854
59558	1.418646	-0.295795	9.762228	-0.078057	0.020088	0.056185	1.000000	-0.000070	-0.000011	0.000032	-2.169261	-8.453034	52.145682
59559	1.406964	-0.335319	9.683838	-0.044615	-0.007619	-0.021535	1.000000	-0.000043	-0.000001	0.000005	-2.161890	-8.458903	52.147208
59560	1.431777	-0.343782	9.706591	-0.025939	0.004310	0.004918	1.000000	-0.000048	0.000001	0.000026	-2.163362	-8.460371	52.150366
59561	1.460311	-0.325503	9.708005	-0.022334	0.037812	0.009833	1.000000	-0.000057	0.000001	0.000005	-2.160093	-8.457105	52.157405
59562	1.463231	-0.296660	9.662427	-0.038249	0.062117	-0.035867	1.000000	-0.000057	-0.000006	0.000012	-2.162356	-8.459355	52.158864
59563	1.440819	-0.299425	9.712247	-0.054638	0.037967	0.010191	1.000000	-0.000047	0.000023	0.000021	-2.155965	-8.455390	52.167450
59564	1.463678	-0.301783	9.686629	-0.036038	0.056863	-0.011683	1.000000	-0.000048	0.000001	0.000026	-2.157368	-8.456806	52.170598
59565	1.435063	-0.322260	9.685144	-0.037149	0.021829	-0.016596	1.000000	-0.000062	0.000003	0.000026	-2.157638	-8.457549	52.176495
59566	1.429479	-0.344096	9.658040	-0.020508	0.006613	-0.043394	1.000000	-0.000048	0.000008	0.000020	-2.158943	-8.458147	52.178863
59567	1.457927	-0.325888	9.659480	-0.017334	0.039479	-0.038464	1.000000	-0.000062	0.000003	0.000026	-2.156193	-8.459118	52.183955
59568	1.483492	-0.337621	9.706440	0.001432	0.047902	0.012150	1.000000	-0.000040	0.000007	0.000027	-2.156677	-8.459796	52.187161
59569	1.511105	-0.316181	9.683686	0.002834	0.085102	-0.007080	1.000000	-0.000056	0.000002	0.000019	-2.164258	-8.463236	52.185160
59570	1.453976	-0.356056	9.680708	-0.000643	0.016185	-0.016940	1.000000	-0.000062	-0.000005	0.000033	-2.167385	-8.465218	52.189037
59571	1.462744	-0.309424	9.686529	-0.031413	0.051088	-0.011636	1.000000	-0.000032	0.000050	0.000010	-2.158828	-8.458362	52.195672
59572	1.501622	-0.370026	9.702163	0.038034	0.043063	0.011795	1.000000	-0.000061	0.000018	0.000027	-2.161706	-8.457805	52.198840
59573	1.456420	-0.332183	9.659493	-0.014162	0.035521	-0.038444	1.000000	-0.000049	0.000000	0.000012	-2.163367	-8.457176	52.200910
59574	1.480013	-0.337551	9.658096	0.004490	0.050939	-0.036155	1.000000	-0.000039	0.000037	0.000016	-2.163561	-8.454499	52.202629
59575	1.461080	-0.313292	9.686656	-0.028978	0.048242	-0.011614	1.000000	-0.000048	0.000008	0.000020	-2.160955	-8.455258	52.205789
59576	1.456098	-0.337986	9.683776	-0.012273	0.029541	-0.014272	1.000000	-0.000041	0.000029	0.000008	-2.161159	-8.453476	52.206653
59577	1.455717	-0.338955	9.683799	-0.011173	0.029240	-0.014270	1.000000	-0.000054	0.000009	0.000027	-2.161584	-8.449727	52.212856
59578	1.460941	-0.319267	9.710911	-0.026914	0.043060	0.012560	1.000000	-0.000040	0.000014	0.000021	-2.161959	-8.449543	52.215273
59579	1.454114	-0.337698	9.659649	-0.009983	0.031518	-0.038425	1.000000	-0.000047	0.000038	0.000008	-2.161654	-8.444817	52.218186
59580	1.454409	-0.341928	9.683891	-0.009458	0.027325	-0.014262	1.000000	-0.000059	0.000018	0.000041	-2.164570	-8.444120	52.222974
59581	1.459239	-0.322372	9.711064	-0.024936	0.039966	0.012578	1.000000	-0.000044	0.000045	0.000030	-2.160087	-8.444862	52.225075
59582	1.453089	-0.344056	9.684014	-0.008300	0.024787	-0.014255	1.000000	-0.000055	0.000024	0.000014	-2.161980	-8.443625	52.226662
59583	1.453467	-0.348226	9.708244	-0.007875	0.020552	0.009906	1.000000	-0.000047	0.000023	0.000021	-2.163489	-8.442980	52.227315
59584	1.456791	-0.322262	9.687008	-0.023767	0.041399	-0.011568	1.000000	-0.000047	0.000023	0.000021	-2.164600	-8.441827	52.229742
59585	1.427684	-0.342531	9.685539	-0.024339	0.006312	-0.016533	1.000000	-0.000047	0.000030	0.000015	-2.160228	-8.437860	52.235321
59586	1.428750	-0.349843	9.733985	-0.023711	-0.001430	0.031784	1.000000	-0.000053	0.000031	0.000022	-2.162070	-8.435714	52.237758
59587	1.435958	-0.296866	9.691483	-0.054514	0.040599	-0.011141	1.000000	-0.000035	0.000006	0.000006	-2.153506	-8.433010	52.243585
59588	1.426491	-0.345287	9.685616	-0.021520	0.003899	-0.016525	1.000000	-0.000046	0.000016	0.000028	-2.154635	-8.432633	52.246783
59589	1.431496	-0.325612	9.712783	-0.036483	0.016171	0.010335	1.000000	-0.000047	0.000030	0.000015	-2.146613	-8.434954	52.249646
59590	1.434845	-0.299565	9.691564	-0.052378	0.037017	-0.011115	1.000000	-0.000040	0.000014	0.000021	-2.146849	-8.434766	52.252054
59591	1.429094	-0.321036	9.664443	-0.035081	0.020831	-0.037966	1.000000	-0.000040	0.000014	0.000021	-2.140225	-8.436966	52.255764
59592	1.429676	-0.325239	9.688640	-0.034511	0.016587	-0.013808	1.000000	-0.000062	0.000010	0.000020	-2.142939	-8.437267	52.258059
59593	1.431172	-0.332542	9.737021	-0.033481	0.008456	0.034506	1.000000	-0.000033	0.000006	0.000020	-2.139513	-8.438355	52.260789
59594	1.433993	-0.303279	9.691575	-0.049483	0.032850	-0.011085	1.000000	-0.000048	0.000008	0.000020	-2.140579	-8.438907	52.263133
59595	1.429880	-0.331206	9.712832	-0.032433	0.009560	0.010358	1.000000	-0.000047	0.000023	0.000021	-2.136813	-8.441823	52.264500
59596	1.456587	-0.306422	9.665994	-0.030237	0.050069	-0.032935	1.000000	-0.000033	-0.000002	0.000027	-2.136310	-8.443460	52.267674
59597	1.428680	-0.329730	9.688636	-0.032047	0.011624	-0.013792	1.000000	-0.000048	0.000015	0.000013	-2.139120	-8.445210	52.267226
59598	1.451604	-0.332244	9.663023	-0.013481	0.030582	-0.035652	1.000000	-0.000068	0.000004	0.000033	-2.142750	-8.446187	52.271090
59599	1.452229	-0.336610	9.687205	-0.012550	0.026081	-0.011495	1.000000	-0.000048	0.000015	0.000013	-2.141210	-8.445777	52.274369
59600	1.428932	-0.336275	9.712797	-0.030170	0.005704	0.010368	1.000000	-0.000048	0.000001	0.000026	-2.142348	-8.447168	52.277492
59601	1.479713	-0.316188	9.664541	-0.008874	0.061646	-0.030612	1.000000	-0.000054	0.000009	0.000027	-2.137430	-8.447489	52.283445
59602	1.471149	-0.368000	9.682777	0.024257	0.021377	-0.011931	1.000000	-0.000048	0.000001	0.000026	-2.138535	-8.448879	52.286566
59603	1.480211	-0.321271	9.688720	-0.007914	0.055902	-0.006447	1.000000	-0.000034	0.000020	0.000007	-2.135507	-8.451991	52.285333
59604	1.479851	-0.322101	9.688748	-0.007439	0.055188	-0.006443	1.000000	-0.000046	0.000016	0.000028	-2.136484	-8.451691	52.288533
59605	1.450797	-0.342351	9.687218	-0.008407	0.019162	-0.011475	1.000000	-0.000047	0.000030	0.000015	-2.130577	-8.453624	52.289878
59606	1.478094	-0.320921	9.664632	-0.006118	0.056124	-0.030577	1.000000	-0.000051	0.000017	0.000049	-2.132428	-8.453096	52.295503
59607	1.449218	-0.341331	9.663064	-0.005306	0.021701	-0.035620	1.000000	-0.000054	0.000009	0.000027	-2.124984	-8.443498	52.309638
59608	1.478311	-0.326291	9.688842	-0.002759	0.051505	-0.006420	1.000000	-0.000047	0.000023	0.000021	-2.125792	-8.442347	52.312054
59609	1.472518	-0.347922	9.661681	0.013929	0.036263	-0.033325	1.000000	-0.000054	0.000009	0.000027	-2.126862	-8.443090	52.314044
59610	1.477857	-0.328474	9.688838	-0.001721	0.049951	-0.006412	1.000000	-0.000054	0.000002	0.000033	-2.128723	-8.444296	52.317948
59611	1.477578	-0.329667	9.688840	-0.000479	0.049095	-0.006407	1.000000	-0.000061	0.000025	0.000021	-2.127115	-8.440820	52.324058
59612	1.447486	-0.346683	9.663133	-0.002049	0.017869	-0.035611	1.000000	-0.000031	0.000043	0.000016	-2.126061	-8.437387	52.325823
59613	1.471681	-0.355208	9.685974	0.017471	0.029586	-0.009171	1.000000	-0.000048	0.000015	0.000013	-2.123304	-8.435053	52.331830
59614	1.476741	-0.335744	9.713182	0.001836	0.043260	0.017751	1.000000	-0.000061	0.000025	0.000021	-2.125710	-8.433623	52.334188
59615	1.446773	-0.352900	9.687441	0.000048	0.011324	-0.011459	1.000000	-0.000047	0.000030	0.000015	-2.124837	-8.435746	52.333650
59616	1.480259	-0.313947	9.716290	-0.013663	0.059088	0.020539	1.000000	-0.000040	0.000029	0.000008	-2.124670	-8.433940	52.334495
59617	1.449451	-0.327662	9.666370	-0.014871	0.031029	-0.032821	1.000000	-0.000047	0.000030	0.000015	-2.121334	-8.432179	52.337585
59618	1.450631	-0.334986	9.714780	-0.014075	0.023101	0.015475	1.000000	-0.000042	0.000014	0.000007	-2.121268	-8.432081	52.338350
59619	1.472550	-0.334233	9.665028	0.003935	0.045074	-0.030519	1.000000	-0.000074	0.000028	0.000034	-2.124883	-8.434666	52.337722
59620	1.425702	-0.332756	9.716246	-0.031664	0.004907	0.013185	1.000000	-0.000033	0.000028	0.000015	-2.123909	-8.432965	52.339410
59621	1.452923	-0.311085	9.693736	-0.028624	0.041245	-0.005866	1.000000	-0.000045	0.000030	0.000029	-2.118668	-8.431135	52.345027
59622	1.428437	-0.307534	9.695182	-0.046321	0.024404	-0.008157	1.000000	-0.000047	0.000023	0.000021	-2.119389	-8.429995	52.347437
59623	1.448075	-0.340018	9.714987	-0.010335	0.016690	0.015492	1.000000	-0.000047	0.000023	0.000021	-2.110649	-8.432757	52.351076
59624	1.428397	-0.312697	9.719430	-0.044302	0.017819	0.016002	1.000000	-0.000048	0.000015	0.000013	-2.111355	-8.432528	52.352632
59625	1.428000	-0.313737	9.719455	-0.044017	0.016788	0.016005	1.000000	-0.000053	0.000024	0.000028	-2.112845	-8.433405	52.353278
59626	1.449965	-0.312752	9.669715	-0.025641	0.039417	-0.029979	1.000000	-0.000040	0.000014	0.000021	-2.112766	-8.433273	52.355676
59627	1.418028	-0.363309	9.713422	-0.010257	-0.020859	0.010389	1.000000	-0.000060	0.000010	0.000034	-2.113542	-8.433819	52.360302
59628	1.451826	-0.324653	9.742278	-0.023943	0.026844	0.042457	1.000000	-0.000046	0.000016	0.000028	-2.114303	-8.433520	52.363489
59629	1.425061	-0.311217	9.671155	-0.041980	0.020727	-0.032263	1.000000	-0.000036	0.000028	-0.000013	-2.111843	-8.432190	52.362981
59630	1.449514	-0.319879	9.693960	-0.023113	0.032474	-0.005818	1.000000	-0.000054	0.000002	0.000033	-2.113566	-8.433432	52.366876
59631	1.453215	-0.293842	9.672809	-0.038594	0.052650	-0.027129	1.000000	-0.000042	0.000014	0.000007	-2.108700	-8.434959	52.369949
59632	1.449112	-0.321832	9.693955	-0.021639	0.030299	-0.005808	1.000000	-0.000056	0.000009	0.000013	-2.110254	-8.435471	52.371436
59633	1.452733	-0.295855	9.672820	-0.038248	0.050481	-0.027116	1.000000	-0.000046	0.000016	0.000028	-2.111609	-8.440826	52.369853
59634	1.447740	-0.320668	9.669789	-0.021470	0.031766	-0.029941	1.000000	-0.000054	0.000017	0.000020	-2.113138	-8.440469	52.372199
59635	1.444431	-0.351856	9.715108	-0.004410	0.004653	0.015510	1.000000	-0.000035	0.000006	0.000006	-2.108540	-8.446799	52.369653
59636	1.452736	-0.302035	9.697031	-0.036635	0.043505	-0.002955	1.000000	-0.000061	0.000018	0.000027	-2.110899	-8.446301	52.372791
59637	1.447876	-0.326924	9.693969	-0.019729	0.023597	-0.005786	1.000000	-0.000049	0.000001	0.000012	-2.106797	-8.452909	52.372747
59638	1.470737	-0.329086	9.668409	-0.001209	0.042616	-0.027613	1.000000	-0.000039	0.000029	0.000022	-2.106537	-8.451146	52.375232
59639	1.442453	-0.352490	9.690961	-0.002073	0.005091	-0.008626	1.000000	-0.000046	0.000016	0.000027	-2.108999	-8.445068	52.382434
59640	1.470753	-0.334229	9.692644	0.000348	0.038431	-0.003473	1.000000	-0.000046	0.000016	0.000027	-2.109715	-8.444818	52.385622
59641	1.469624	-0.332074	9.668476	0.000860	0.041218	-0.027607	1.000000	-0.000061	0.000018	0.000027	-2.110704	-8.444213	52.389633
59642	1.469227	-0.333109	9.668501	0.001364	0.040474	-0.027604	1.000000	-0.000040	0.000022	0.000014	-2.110482	-8.443312	52.391256
59643	1.464086	-0.357902	9.665466	0.017761	0.021304	-0.030453	1.000000	-0.000061	0.000025	0.000021	-2.112907	-8.445490	52.390123
59644	1.469138	-0.338519	9.692740	0.002172	0.034860	-0.003460	1.000000	-0.000048	0.000015	0.000013	-2.113563	-8.445330	52.391679
59645	1.468829	-0.339487	9.692753	0.002514	0.033521	-0.003455	1.000000	-0.000048	0.000015	0.000013	-2.112844	-8.448495	52.391549
59646	1.439783	-0.359893	9.691086	0.001097	-0.001313	-0.008625	1.000000	-0.000067	0.000026	0.000028	-2.115941	-8.447033	52.394698
59647	1.491869	-0.346365	9.691419	0.021569	0.047909	-0.001139	1.000000	-0.000048	0.000023	0.000007	-2.116380	-8.447629	52.393436
59648	1.471249	-0.315584	9.671771	-0.012593	0.052692	-0.024716	1.000000	-0.000033	0.000035	0.000009	-2.115191	-8.445221	52.394354
59649	1.442885	-0.338987	9.694299	-0.013846	0.014245	-0.005758	1.000000	-0.000054	0.000017	0.000020	-2.117046	-8.444705	52.397232
59650	1.441126	-0.333587	9.645932	-0.013731	0.020856	-0.054024	1.000000	-0.000062	0.000003	0.000026	-2.119514	-8.445938	52.400284
59651	1.442148	-0.341133	9.694334	-0.012503	0.011769	-0.005752	1.000000	-0.000031	0.000050	0.000010	-2.113076	-8.445125	52.401076
59652	1.446160	-0.318314	9.697493	-0.028279	0.028982	-0.002874	1.000000	-0.000062	0.000018	0.000013	-2.115341	-8.444739	52.402579
59653	1.464313	-0.344425	9.668850	0.006072	0.030077	-0.027568	1.000000	-0.000045	0.000016	0.000042	-2.118166	-8.445918	52.405157
59654	1.422257	-0.319099	9.723096	-0.045701	0.007685	0.018950	1.000000	-0.000040	0.000022	0.000014	-2.117937	-8.445068	52.406783
59655	1.464240	-0.349595	9.693088	0.007042	0.024729	-0.003431	1.000000	-0.000053	0.000024	0.000028	-2.119918	-8.445394	52.409338
59656	1.420553	-0.317789	9.698991	-0.045126	0.009716	-0.005178	1.000000	-0.000047	0.000023	0.000021	-2.120539	-8.444382	52.411752
59657	1.463318	-0.351522	9.693157	0.008345	0.022698	-0.003428	1.000000	-0.000040	0.000022	0.000014	-2.116987	-8.444876	52.414411
59658	1.443623	-0.324041	9.697682	-0.025628	0.023793	-0.002852	1.000000	-0.000040	0.000022	0.000014	-2.116749	-8.444036	52.416036
59659	1.438629	-0.348704	9.694587	-0.009437	0.005148	-0.005743	1.000000	-0.000046	0.000008	0.000034	-2.120575	-8.446415	52.415707
59660	1.442924	-0.325917	9.697723	-0.025217	0.022358	-0.002848	1.000000	-0.000047	0.000030	0.000015	-2.121107	-8.444599	52.417345
59661	1.437782	-0.350630	9.694643	-0.008028	0.003829	-0.005741	1.000000	-0.000048	0.000016	0.000013	-2.120508	-8.442109	52.422786
59662	1.466108	-0.332386	9.696392	-0.005613	0.037151	-0.000523	1.000000	-0.000048	0.000016	0.000013	-2.121158	-8.441990	52.424340
59663	1.441007	-0.325547	9.673621	-0.023557	0.022951	-0.026966	1.000000	-0.000054	0.000024	0.000014	-2.118978	-8.445886	52.423151
59664	1.446195	-0.306229	9.700919	-0.039127	0.036443	0.000071	1.000000	-0.000055	0.000002	0.000019	-2.120580	-8.447330	52.425413
59665	1.446017	-0.307277	9.700913	-0.038270	0.035099	0.000080	1.000000	-0.000048	0.000016	0.000013	-2.117417	-8.448664	52.426468
59666	1.441183	-0.331870	9.697780	-0.021493	0.016376	-0.002827	1.000000	-0.000035	-0.000002	0.000012	-2.116529	-8.450539	52.427998
59667	1.437147	-0.359947	9.718805	-0.004485	-0.005633	0.018389	1.000000	-0.000060	0.000011	0.000033	-2.120421	-8.448862	52.432461
59668	1.445533	-0.310079	9.700896	-0.036756	0.033249	0.000092	1.000000	-0.000035	0.000013	-0.000000	-2.119361	-8.449093	52.432440
59669	1.464360	-0.339195	9.696421	-0.001715	0.030278	-0.000498	1.000000	-0.000047	0.000030	0.000015	-2.118229	-8.448725	52.433318
59670	1.443952	-0.308587	9.676787	-0.035906	0.035090	-0.024025	1.000000	-0.000054	0.000009	0.000027	-2.119787	-8.449276	52.436434
59671	1.439683	-0.336724	9.697835	-0.018910	0.013084	-0.002817	1.000000	-0.000046	0.000023	0.000021	-2.121975	-8.446244	52.439246
59672	1.467193	-0.315077	9.675453	-0.016716	0.050126	-0.021695	1.000000	-0.000040	0.000014	0.000021	-2.121822	-8.446226	52.441641
59673	1.463134	-0.343235	9.696464	0.001679	0.027078	-0.000489	1.000000	-0.000062	-0.000004	0.000032	-2.115596	-8.446118	52.451245
59674	1.462865	-0.344352	9.696465	0.002185	0.026318	-0.000487	1.000000	-0.000047	0.000030	0.000015	-2.116069	-8.444288	52.452877
59675	1.466454	-0.318070	9.675467	-0.013608	0.047145	-0.021675	1.000000	-0.000035	0.000006	0.000006	-2.113697	-8.445039	52.454612
59676	1.466342	-0.319184	9.675448	-0.013103	0.046386	-0.021671	1.000000	-0.000078	0.000005	0.000011	-2.117666	-8.446108	52.455964
59677	1.460677	-0.340828	9.648114	0.003696	0.031616	-0.048732	1.000000	-0.000046	0.000016	0.000027	-2.117895	-8.444077	52.459651
59678	1.461083	-0.345300	9.672296	0.004436	0.027121	-0.024605	1.000000	-0.000061	0.000018	0.000027	-2.120173	-8.443609	52.462771
59679	1.466204	-0.325957	9.699638	-0.010521	0.040111	0.002468	1.000000	-0.000040	0.000014	0.000021	-2.115564	-8.443641	52.464861
59680	1.465812	-0.326927	9.699665	-0.010011	0.039350	0.002471	1.000000	-0.000053	0.000024	0.000028	-2.116948	-8.442447	52.468050
59681	1.483837	-0.352893	9.670992	0.025214	0.039865	-0.022275	1.000000	-0.000048	0.000023	0.000007	-2.112843	-8.442732	52.470549
59682	1.459438	-0.349288	9.672402	0.007535	0.022987	-0.024596	1.000000	-0.000046	0.000023	0.000021	-2.113365	-8.441709	52.472951
59683	1.464303	-0.329728	9.699798	-0.008010	0.036835	0.002483	1.000000	-0.000031	0.000036	0.000023	-2.113698	-8.437388	52.475956
59684	1.463766	-0.330688	9.699847	-0.007498	0.036074	0.002486	1.000000	-0.000061	0.000018	0.000027	-2.115946	-8.436914	52.479072
59685	1.434863	-0.351274	9.698034	-0.007730	0.001476	-0.002793	1.000000	-0.000074	0.000006	0.000039	-2.115369	-8.432584	52.490899
59686	1.463917	-0.336584	9.724017	-0.005059	0.031027	0.026614	1.000000	-0.000034	0.000028	0.000001	-2.114103	-8.431046	52.490947
59687	1.437990	-0.326066	9.677101	-0.022720	0.021262	-0.023946	1.000000	-0.000046	0.000023	0.000021	-2.110753	-8.430015	52.493627
59688	1.462205	-0.334982	9.699935	-0.003760	0.032863	0.002500	1.000000	-0.000045	0.000023	0.000035	-2.111308	-8.428883	52.497652
59689	1.460992	-0.332627	9.675804	-0.002737	0.035691	-0.021618	1.000000	-0.000054	0.000024	0.000014	-2.108361	-8.425808	52.503927
59690	1.437376	-0.332549	9.701363	-0.020142	0.015045	0.000185	1.000000	-0.000054	0.000017	0.000020	-2.109715	-8.425466	52.506248
59691	1.436241	-0.330191	9.677221	-0.019894	0.017729	-0.023933	1.000000	-0.000046	0.000023	0.000021	-2.109096	-8.425948	52.508365
59692	1.436472	-0.334394	9.701434	-0.019111	0.013199	0.000190	1.000000	-0.000034	0.000028	0.000001	-2.107796	-8.424404	52.508410
59693	1.456116	-0.367073	9.721050	0.016080	0.005514	0.023651	1.000000	-0.000060	0.000003	0.000040	-2.105699	-8.431957	52.509261
59694	1.415933	-0.304703	9.681850	-0.052871	0.015938	-0.023261	1.000000	-0.000040	0.000022	0.000014	-2.105315	-8.431088	52.510868
59695	1.458740	-0.338409	9.675943	0.000464	0.029699	-0.021598	1.000000	-0.000040	0.000015	0.000021	-2.105100	-8.429433	52.513927
59696	1.435232	-0.338071	9.701490	-0.016933	0.009033	0.000198	1.000000	-0.000040	0.000015	0.000021	-2.104808	-8.429374	52.516306
59697	1.434269	-0.335571	9.677329	-0.016536	0.011951	-0.023918	1.000000	-0.000048	0.000008	0.000020	-2.104356	-8.429980	52.519688
59698	1.438801	-0.312882	9.680526	-0.032301	0.029125	-0.020919	1.000000	-0.000054	0.000009	0.000027	-2.105779	-8.430476	52.522781
59699	1.463291	-0.321912	9.703316	-0.013431	0.040870	0.005527	1.000000	-0.000049	0.000008	0.000006	-2.107437	-8.430795	52.525072
59700	1.457602	-0.343209	9.675946	0.003105	0.025955	-0.021587	1.000000	-0.000046	0.000016	0.000027	-2.107992	-8.430563	52.528235
59701	1.432616	-0.336185	9.653162	-0.014231	0.012444	-0.048027	1.000000	-0.000048	0.000016	0.000013	-2.104139	-8.430174	52.532174
59702	1.461681	-0.321475	9.679187	-0.011535	0.041949	-0.018575	1.000000	-0.000054	0.000017	0.000020	-2.105460	-8.429846	52.534491
59703	1.455964	-0.342904	9.651810	0.004097	0.027739	-0.045699	1.000000	-0.000054	0.000009	0.000026	-2.113662	-8.430318	52.534372
59704	1.461901	-0.326917	9.703358	-0.011117	0.037328	0.005544	1.000000	-0.000033	0.000013	0.000014	-2.112544	-8.430418	52.535961
59705	1.456295	-0.348135	9.675967	0.005788	0.022482	-0.021580	1.000000	-0.000055	0.000002	0.000019	-2.112453	-8.430190	52.539959
59706	1.436761	-0.320789	9.680570	-0.028163	0.023532	-0.020891	1.000000	-0.000039	0.000029	0.000022	-2.112048	-8.428404	52.542417
59707	1.461045	-0.329694	9.703393	-0.008703	0.034461	0.005557	1.000000	-0.000048	0.000008	0.000020	-2.108134	-8.430316	52.545468
59708	1.459472	-0.323961	9.655053	-0.008750	0.041302	-0.042669	1.000000	-0.000060	0.000003	0.000040	-2.110487	-8.431450	52.550113
59709	1.460741	-0.331805	9.703367	-0.008558	0.032624	0.005564	1.000000	-0.000035	0.000013	-0.000000	-2.112446	-8.436288	52.543721
59710	1.431137	-0.348347	9.677341	-0.010221	0.001610	-0.023902	1.000000	-0.000048	0.000008	0.000020	-2.113037	-8.436957	52.546023
59711	1.464279	-0.306508	9.682451	-0.023651	0.052508	-0.015514	1.000000	-0.000054	0.000017	0.000020	-2.111119	-8.436591	52.548781
59712	1.460660	-0.338157	9.727547	-0.006264	0.026186	0.029686	1.000000	-0.000048	0.000016	0.000013	-2.111606	-8.436440	52.550309
59713	1.458052	-0.328784	9.655104	-0.006553	0.036494	-0.042648	1.000000	-0.000047	0.000031	0.000015	-2.110371	-8.436074	52.550651
59714	1.459897	-0.340015	9.727597	-0.005157	0.024280	0.029692	1.000000	-0.000041	-0.000000	0.000019	-2.110193	-8.437732	52.552938
59715	1.457377	-0.330565	9.655145	-0.003945	0.034838	-0.042640	1.000000	-0.000047	0.000038	0.000008	-2.102566	-8.430015	52.561159
59716	1.458274	-0.338414	9.703510	-0.002820	0.026433	0.005585	1.000000	-0.000046	0.000016	0.000027	-2.103077	-8.429774	52.564314
59717	1.451791	-0.356214	9.651957	0.013578	0.014978	-0.045680	1.000000	-0.000046	0.000016	0.000027	-2.101271	-8.430774	52.568409
59718	1.480790	-0.341487	9.678030	0.016299	0.044441	-0.016190	1.000000	-0.000048	0.000023	0.000007	-2.101623	-8.429791	52.569160
59719	1.434005	-0.340255	9.729080	-0.018607	0.004180	0.027373	1.000000	-0.000054	0.000009	0.000026	-2.102973	-8.427216	52.573839
59720	1.436125	-0.307248	9.659901	-0.035284	0.032821	-0.041903	1.000000	-0.000053	0.000039	0.000015	-2.104044	-8.424342	52.575459
59721	1.451470	-0.367232	9.700380	0.016592	0.004671	0.002540	1.000000	-0.000048	0.000016	0.000013	-2.104631	-8.424278	52.576057
59722	1.459923	-0.317278	9.682762	-0.015768	0.043587	-0.015455	1.000000	-0.000048	0.000016	0.000013	-2.105076	-8.424100	52.577576
59723	1.430837	-0.337509	9.680879	-0.016879	0.008924	-0.020841	1.000000	-0.000061	0.000025	0.000020	-2.106489	-8.421151	52.582554
59724	1.434455	-0.311416	9.660016	-0.032953	0.029919	-0.041886	1.000000	-0.000046	0.000016	0.000027	-2.106992	-8.420892	52.585702
59725	1.459630	-0.323929	9.706963	-0.013373	0.036815	0.008669	1.000000	-0.000049	0.000001	0.000012	-2.103560	-8.425242	52.586666
59726	1.453813	-0.345070	9.679560	0.003136	0.021965	-0.018504	1.000000	-0.000039	0.000037	0.000015	-2.102991	-8.422631	52.588343
59727	1.457974	-0.322151	9.682895	-0.012226	0.038825	-0.015430	1.000000	-0.000040	0.000022	0.000014	-2.099604	-8.421675	52.590648
59728	1.434370	-0.321856	9.708433	-0.029554	0.018084	0.006349	1.000000	-0.000040	0.000015	0.000020	-2.099241	-8.421592	52.593010
59729	1.433421	-0.319352	9.684283	-0.029061	0.021012	-0.017753	1.000000	-0.000054	0.000010	0.000026	-2.098737	-8.421754	52.599037
59730	1.434557	-0.327363	9.732596	-0.027881	0.012544	0.030463	1.000000	-0.000046	0.000016	0.000027	-2.099209	-8.421500	52.602183
59731	1.456849	-0.325971	9.682936	-0.010247	0.035587	-0.015415	1.000000	-0.000048	0.000008	0.000020	-2.101697	-8.423766	52.601746
59732	1.455908	-0.323453	9.658786	-0.010040	0.038673	-0.039518	1.000000	-0.000048	0.000016	0.000013	-2.102118	-8.423588	52.603260
59733	1.432472	-0.323453	9.684287	-0.027936	0.018668	-0.017745	1.000000	-0.000062	0.000003	0.000026	-2.109735	-8.423361	52.605861
59734	1.456214	-0.329169	9.682923	-0.009227	0.034031	-0.015409	1.000000	-0.000048	0.000016	0.000013	-2.110178	-8.423177	52.607373
59735	1.451093	-0.353777	9.679654	0.007934	0.015136	-0.018494	1.000000	-0.000040	0.000022	0.000014	-2.107384	-8.422055	52.610721
59736	1.455391	-0.330943	9.682987	-0.007829	0.032288	-0.015401	1.000000	-0.000046	0.000023	0.000021	-2.107787	-8.420977	52.613091
59737	1.460506	-0.311756	9.710453	-0.022871	0.044985	0.011803	1.000000	-0.000055	0.000009	0.000012	-2.105134	-8.422880	52.615217
59738	1.450057	-0.356735	9.679700	0.009917	0.012250	-0.018491	1.000000	-0.000046	0.000016	0.000027	-2.105614	-8.422625	52.618358
59739	1.459999	-0.313777	9.710464	-0.021339	0.043419	0.011814	1.000000	-0.000047	0.000008	0.000020	-2.103840	-8.421719	52.623518
59740	1.453484	-0.331438	9.658881	-0.005183	0.032474	-0.039491	1.000000	-0.000048	0.000030	0.000000	-2.104070	-8.419889	52.623483
59741	1.458585	-0.312332	9.686355	-0.020968	0.045151	-0.012278	1.000000	-0.000060	0.000003	0.000040	-2.105897	-8.425099	52.625565
59742	1.453714	-0.337104	9.683026	-0.004141	0.026469	-0.015382	1.000000	-0.000041	0.000007	0.000013	-2.105561	-8.425910	52.627062
59743	1.482788	-0.322406	9.709153	-0.000732	0.056318	0.014168	1.000000	-0.000046	0.000023	0.000021	-2.104471	-8.420414	52.633267
59744	1.452388	-0.335521	9.658905	-0.002763	0.029260	-0.039480	1.000000	-0.000054	0.000010	0.000026	-2.105812	-8.420871	52.636329
59745	1.480748	-0.317452	9.660886	-0.000603	0.062424	-0.034026	1.000000	-0.000046	0.000023	0.000021	-2.106986	-8.421220	52.637945
59746	1.452279	-0.341032	9.683104	-0.001605	0.023737	-0.015374	1.000000	-0.000046	0.000023	0.000021	-2.107365	-8.420139	52.640310
59747	1.457518	-0.321961	9.710569	-0.016486	0.036663	0.011851	1.000000	-0.000061	-0.000004	0.000032	-2.105960	-8.421789	52.646564
59748	1.452364	-0.346641	9.707268	0.000349	0.017985	0.008731	1.000000	-0.000031	0.000043	0.000016	-2.104487	-8.418440	52.648307
59749	1.450418	-0.340391	9.659030	0.000768	0.024248	-0.039466	1.000000	-0.000048	0.000016	0.000013	-2.099443	-8.419625	52.650655
59750	1.450160	-0.341429	9.659032	0.001305	0.023480	-0.039464	1.000000	-0.000054	0.000010	0.000026	-2.100757	-8.420086	52.653714
59751	1.456019	-0.325825	9.710665	-0.013122	0.032079	0.011872	1.000000	-0.000046	0.000016	0.000027	-2.095562	-8.421123	52.657064
59752	1.450792	-0.350495	9.707365	0.003718	0.013399	0.008738	1.000000	-0.000046	0.000031	0.000014	-2.095797	-8.419225	52.658656
59753	1.430406	-0.319580	9.687952	-0.030170	0.017433	-0.014555	1.000000	-0.000046	0.000023	0.000021	-2.091130	-8.420736	52.661034
59754	1.454540	-0.328765	9.710787	-0.011092	0.028889	0.011884	1.000000	-0.000053	0.000024	0.000028	-2.092281	-8.419498	52.664182
59755	1.453385	-0.326253	9.686678	-0.010770	0.031642	-0.012209	1.000000	-0.000046	0.000023	0.000021	-2.090580	-8.419665	52.666820
59756	1.423616	-0.342762	9.660558	-0.012469	0.000737	-0.041792	1.000000	-0.000046	0.000016	0.000027	-2.090976	-8.419418	52.669954
59757	1.477302	-0.336215	9.709521	0.009821	0.042247	0.014233	1.000000	-0.000033	0.000013	0.000014	-2.084887	-8.416381	52.677339
59758	1.452374	-0.329013	9.686736	-0.008175	0.029244	-0.012199	1.000000	-0.000060	0.000018	0.000027	-2.086888	-8.415855	52.680408
59759	1.452102	-0.330124	9.686739	-0.007196	0.028415	-0.012195	1.000000	-0.000047	0.000008	0.000020	-2.085064	-8.415188	52.684262
59760	1.447096	-0.354733	9.683387	0.009653	0.009741	-0.015355	1.000000	-0.000040	0.000015	0.000020	-2.084596	-8.415091	52.686608
59761	1.428966	-0.334407	9.736393	-0.023063	0.002567	0.033662	1.000000	-0.000048	0.000016	0.000013	-2.081610	-8.414796	52.689866
59762	1.456025	-0.309109	9.690135	-0.021400	0.043658	-0.009019	1.000000	-0.000040	0.000015	0.000020	-2.081131	-8.414698	52.692211
59763	1.451519	-0.337405	9.710943	-0.004375	0.020365	0.011911	1.000000	-0.000060	0.000026	0.000020	-2.081490	-8.417331	52.691807
59764	1.450467	-0.334798	9.686824	-0.004206	0.023509	-0.012181	1.000000	-0.000035	0.000013	-0.000000	-2.080107	-8.417484	52.691739
59765	1.450841	-0.339186	9.710982	-0.003073	0.017802	0.011916	1.000000	-0.000046	0.000016	0.000027	-2.075931	-8.421173	52.693216
59766	1.426052	-0.332040	9.688175	-0.021078	0.004814	-0.014517	1.000000	-0.000055	0.000002	0.000019	-2.077178	-8.422543	52.695410
59767	1.478570	-0.318708	9.688840	-0.000458	0.054256	-0.006647	1.000000	-0.000055	0.000010	0.000012	-2.078401	-8.422713	52.698595
59768	1.448930	-0.335315	9.662670	-0.002166	0.023378	-0.036263	1.000000	-0.000054	0.000017	0.000020	-2.079523	-8.422370	52.700878
59769	1.449929	-0.343494	9.710967	-0.000427	0.014487	0.011922	1.000000	-0.000048	0.000016	0.000013	-2.077009	-8.421837	52.705097
59770	1.453073	-0.313534	9.666079	-0.016960	0.039473	-0.033068	1.000000	-0.000040	0.000015	0.000020	-2.076502	-8.421759	52.707443
59771	1.472511	-0.346337	9.685523	0.019093	0.033742	-0.009826	1.000000	-0.000046	0.000023	0.000021	-2.076376	-8.414944	52.716413
59772	1.448820	-0.346387	9.711030	0.001875	0.012881	0.011924	1.000000	-0.000060	0.000018	0.000027	-2.078328	-8.414408	52.719474
59773	1.452594	-0.320207	9.690290	-0.013719	0.033842	-0.008966	1.000000	-0.000048	0.000016	0.000013	-2.075668	-8.412646	52.724493
59774	1.452433	-0.321111	9.690284	-0.013164	0.033063	-0.008963	1.000000	-0.000041	-0.000000	0.000019	-2.075277	-8.414251	52.726742
59775	1.476115	-0.326720	9.688947	0.005892	0.048750	-0.006620	1.000000	-0.000053	0.000025	0.000028	-2.075921	-8.410271	52.733022
59776	1.451122	-0.319522	9.666176	-0.012122	0.035777	-0.033046	1.000000	-0.000048	0.000016	0.000013	-2.076183	-8.410054	52.734512
59777	1.451450	-0.324145	9.690330	-0.010848	0.031430	-0.008955	1.000000	-0.000054	0.000017	0.000020	-2.077168	-8.406778	52.740876
59778	1.451246	-0.325262	9.690323	-0.010290	0.030653	-0.008952	1.000000	-0.000054	0.000002	0.000033	-2.078454	-8.408024	52.744686
59779	1.474919	-0.330940	9.688986	0.008859	0.045406	-0.006606	1.000000	-0.000048	0.000023	0.000007	-2.074397	-8.408322	52.746385
59780	1.449682	-0.323496	9.666260	-0.009159	0.032440	-0.033031	1.000000	-0.000031	0.000043	0.000016	-2.072773	-8.404945	52.748119
59781	1.449893	-0.327915	9.690437	-0.007886	0.026873	-0.008938	1.000000	-0.000047	0.000001	0.000026	-2.068804	-8.409179	52.749797
59782	1.468128	-0.353686	9.661554	0.026730	0.028319	-0.033904	1.000000	-0.000054	0.000024	0.000014	-2.069784	-8.407972	52.751298
59783	1.449173	-0.329904	9.690477	-0.006564	0.025169	-0.008933	1.000000	-0.000040	0.000022	0.000014	-2.067684	-8.406976	52.754140
59784	1.443416	-0.350954	9.662940	0.009886	0.010476	-0.036245	1.000000	-0.000054	0.000010	0.000026	-2.068845	-8.407410	52.757179
59785	1.471801	-0.332936	9.665032	0.011584	0.043128	-0.030668	1.000000	-0.000046	0.000023	0.000021	-2.070325	-8.411635	52.753299
59786	1.452064	-0.305470	9.669849	-0.022331	0.044083	-0.029777	1.000000	-0.000039	0.000037	0.000015	-2.069559	-8.409001	52.754957
59787	1.448232	-0.337431	9.714716	-0.004774	0.017841	0.015161	1.000000	-0.000061	-0.000004	0.000032	-2.073715	-8.409823	52.758239
59788	1.423520	-0.330293	9.691898	-0.022801	0.004890	-0.011267	1.000000	-0.000046	0.000016	0.000027	-2.074014	-8.409548	52.761354
59789	1.476323	-0.320613	9.716824	-0.001262	0.050193	0.020749	1.000000	-0.000059	0.000033	0.000028	-2.072906	-8.405864	52.767409
59790	1.446552	-0.337064	9.690622	-0.002983	0.019367	-0.008918	1.000000	-0.000041	0.000007	0.000013	-2.072391	-8.406640	52.768879
59791	1.451741	-0.317966	9.718192	-0.019041	0.032174	0.018412	1.000000	-0.000054	0.000017	0.000020	-2.075845	-8.410321	52.765866
59792	1.445961	-0.339132	9.690638	-0.002603	0.017495	-0.008914	1.000000	-0.000054	0.000017	0.000020	-2.076923	-8.409950	52.768132
59793	1.469616	-0.344892	9.689306	0.016064	0.032332	-0.006564	1.000000	-0.000054	0.000010	0.000026	-2.076482	-8.413041	52.768870
59794	1.444711	-0.337643	9.666520	-0.001974	0.019395	-0.032993	1.000000	-0.000046	0.000023	0.000021	-2.076682	-8.411958	52.771215
59795	1.468152	-0.343384	9.665222	0.016724	0.034845	-0.030643	1.000000	-0.000060	0.000026	0.000020	-2.078924	-8.410256	52.775863
59796	1.449389	-0.319783	9.694135	-0.016757	0.031804	-0.005651	1.000000	-0.000049	0.000001	0.000012	-2.079287	-8.411769	52.777253
59797	1.472395	-0.321612	9.668686	0.000723	0.050401	-0.027376	1.000000	-0.000034	0.000028	0.000001	-2.078842	-8.416620	52.770166
59798	1.443981	-0.345252	9.690717	-0.000150	0.011603	-0.008905	1.000000	-0.000060	0.000004	0.000039	-2.080946	-8.417748	52.774751
59799	1.453945	-0.302572	9.721757	-0.031509	0.042634	0.021704	1.000000	-0.000038	0.000022	0.000028	-2.079375	-8.415550	52.777994
59800	1.448183	-0.323583	9.694189	-0.015084	0.027973	-0.005637	1.000000	-0.000054	0.000010	0.000026	-2.080544	-8.416020	52.781027
59801	1.443114	-0.348312	9.690737	0.001709	0.009125	-0.008903	1.000000	-0.000046	0.000016	0.000027	-2.080488	-8.416888	52.783183
59802	1.467276	-0.357585	9.713561	0.020871	0.020474	0.017530	1.000000	-0.000046	0.000023	0.000021	-2.080689	-8.415818	52.785525
59803	1.452121	-0.303019	9.697677	-0.030059	0.043502	-0.002355	1.000000	-0.000061	-0.000004	0.000032	-2.084814	-8.417857	52.787436
59804	1.471633	-0.335984	9.717017	0.005408	0.036974	0.020807	1.000000	-0.000035	0.000028	-0.000013	-2.083192	-8.416369	52.785814
59805	1.441835	-0.352156	9.690788	0.004095	0.005900	-0.008901	1.000000	-0.000046	0.000016	0.000027	-2.080420	-8.415904	52.790198
59806	1.446230	-0.329505	9.694281	-0.011654	0.022987	-0.005619	1.000000	-0.000052	0.000025	0.000028	-2.081456	-8.414662	52.793319
59807	1.445267	-0.326875	9.670167	-0.011521	0.026270	-0.029694	1.000000	-0.000047	0.000008	0.000019	-2.081854	-8.414958	52.797157
59808	1.445703	-0.331585	9.694289	-0.010517	0.021470	-0.005615	1.000000	-0.000054	0.000010	0.000026	-2.083018	-8.415424	52.800184
59809	1.440015	-0.352569	9.666688	0.005839	0.006386	-0.032977	1.000000	-0.000040	0.000015	0.000020	-2.081129	-8.417631	52.801740
59810	1.474636	-0.318187	9.720564	-0.007150	0.049438	0.024114	1.000000	-0.000055	0.000002	0.000018	-2.082324	-8.418992	52.803905
59811	1.444890	-0.334421	9.694313	-0.008122	0.019468	-0.005608	1.000000	-0.000031	0.000036	0.000023	-2.079962	-8.409944	52.812397
59812	1.444487	-0.335387	9.694340	-0.007564	0.018684	-0.005606	1.000000	-0.000060	0.000004	0.000039	-2.082052	-8.411048	52.816968
59813	1.468208	-0.341172	9.693003	0.010464	0.033737	-0.003249	1.000000	-0.000047	0.000016	0.000013	-2.084471	-8.414743	52.813557
59814	1.443328	-0.333851	9.670218	-0.007602	0.020840	-0.029677	1.000000	-0.000054	0.000017	0.000020	-2.085542	-8.414381	52.815810
59815	1.448359	-0.314881	9.697861	-0.023184	0.034392	-0.002301	1.000000	-0.000046	0.000023	0.000021	-2.088896	-8.412007	52.817457
59816	1.471274	-0.316822	9.672435	-0.004924	0.053782	-0.024015	1.000000	-0.000047	0.000016	0.000013	-2.089139	-8.411809	52.818927
59817	1.466693	-0.345077	9.693094	0.012250	0.031755	-0.003244	1.000000	-0.000038	0.000022	0.000028	-2.091610	-8.408297	52.822603
59818	1.441836	-0.337612	9.670310	-0.005821	0.018867	-0.029672	1.000000	-0.000047	0.000009	0.000019	-2.091956	-8.408913	52.824837
59819	1.447066	-0.318741	9.697928	-0.021128	0.031444	-0.002286	1.000000	-0.000060	0.000011	0.000033	-2.092366	-8.411467	52.827230
59820	1.489815	-0.352881	9.691777	0.032062	0.045081	-0.000880	1.000000	-0.000046	0.000016	0.000027	-2.092674	-8.411199	52.830326
59821	1.446486	-0.320681	9.697951	-0.019982	0.030131	-0.002280	1.000000	-0.000033	0.000014	0.000014	-2.092031	-8.409974	52.832662
59822	1.439984	-0.337840	9.646233	-0.004056	0.019569	-0.053738	1.000000	-0.000053	0.000032	0.000021	-2.092991	-8.407886	52.835000
59823	1.474374	-0.303594	9.700201	-0.016745	0.062386	0.003405	1.000000	-0.000047	0.000009	0.000019	-2.091390	-8.408431	52.837305
59824	1.444707	-0.319779	9.673908	-0.018517	0.031645	-0.026340	1.000000	-0.000040	0.000022	0.000014	-2.090763	-8.407504	52.838848
59825	1.464096	-0.352799	9.693209	0.017066	0.024801	-0.003231	1.000000	-0.000054	0.000010	0.000026	-2.090477	-8.409032	52.841879
59826	1.444603	-0.325402	9.698074	-0.016848	0.025739	-0.002261	1.000000	-0.000040	0.000030	0.000008	-2.089752	-8.407284	52.842654
59827	1.448928	-0.302467	9.701643	-0.032287	0.043118	0.001071	1.000000	-0.000032	0.000021	0.000021	-2.087944	-8.403949	52.847463
59828	1.462831	-0.355311	9.693308	0.019048	0.022760	-0.003230	1.000000	-0.000047	0.000016	0.000013	-2.088183	-8.403734	52.848922
59829	1.448242	-0.304245	9.701690	-0.031422	0.041499	0.001081	1.000000	-0.000047	0.000016	0.000013	-2.089402	-8.404676	52.849217
59830	1.465737	-0.326121	9.648627	0.002643	0.047117	-0.048031	1.000000	-0.000046	0.000023	0.000021	-2.089610	-8.403575	52.851536
59831	1.470834	-0.307200	9.676293	-0.012593	0.059107	-0.020613	1.000000	-0.000054	0.000010	0.000026	-2.086920	-8.408728	52.852279
59832	1.437524	-0.354604	9.694691	0.002898	0.002400	-0.005586	1.000000	-0.000048	0.000023	0.000007	-2.087058	-8.407705	52.852970
59833	1.446856	-0.308288	9.701769	-0.029199	0.036905	0.001106	1.000000	-0.000055	0.000010	0.000012	-2.086817	-8.410371	52.853319
59834	1.460642	-0.361330	9.693415	0.022135	0.016546	-0.003224	1.000000	-0.000045	0.000038	0.000022	-2.086882	-8.407577	52.855734
59835	1.445312	-0.306532	9.677727	-0.028563	0.039457	-0.022952	1.000000	-0.000047	0.000009	0.000019	-2.087338	-8.407917	52.859299
59836	1.465471	-0.343464	9.721090	0.007441	0.028816	0.024196	1.000000	-0.000061	0.000004	0.000025	-2.089370	-8.409093	52.862223
59837	1.470091	-0.320921	9.724626	-0.008445	0.045254	0.027556	1.000000	-0.000044	0.000016	0.000041	-2.088118	-8.412197	52.864017
59838	1.440949	-0.340791	9.722428	-0.009743	0.010467	0.021837	1.000000	-0.000041	0.000022	-0.000000	-2.087411	-8.411355	52.863927
59839	1.444215	-0.310529	9.677763	-0.026225	0.035302	-0.022930	1.000000	-0.000047	0.000016	0.000013	-2.085027	-8.412106	52.866035
59840	1.463553	-0.343723	9.697029	0.009296	0.028722	0.000140	1.000000	-0.000060	0.000018	0.000027	-2.086917	-8.411580	52.869053
59841	1.439283	-0.340132	9.698360	-0.008731	0.011339	-0.002223	1.000000	-0.000047	0.000016	0.000013	-2.087508	-8.415014	52.865210
59842	1.438834	-0.341008	9.698396	-0.008175	0.010551	-0.002222	1.000000	-0.000040	0.000030	0.000008	-2.086760	-8.413295	52.865983
59843	1.438315	-0.341876	9.698442	-0.007991	0.009595	-0.002221	1.000000	-0.000048	0.000023	0.000007	-2.088038	-8.414394	52.864865
59844	1.490748	-0.328562	9.699373	0.012586	0.058942	0.005892	1.000000	-0.000047	0.000001	0.000026	-2.088448	-8.415870	52.867857
59845	1.437435	-0.340076	9.674299	-0.007838	0.012750	-0.026283	1.000000	-0.000047	0.000001	0.000026	-2.093312	-8.415982	52.870105
59846	1.461178	-0.345740	9.672975	0.010878	0.028106	-0.023912	1.000000	-0.000047	0.000016	0.000013	-2.093546	-8.415806	52.871560
59847	1.441848	-0.318346	9.677862	-0.022559	0.028506	-0.022898	1.000000	-0.000047	0.000009	0.000019	-2.089704	-8.417225	52.874525
59848	1.461270	-0.351425	9.697097	0.012968	0.021908	0.000154	1.000000	-0.000047	0.000016	0.000013	-2.089927	-8.417049	52.875978
59849	1.441221	-0.320190	9.677895	-0.021943	0.026818	-0.022892	1.000000	-0.000040	0.000022	0.000014	-2.091190	-8.418448	52.873958
59850	1.441514	-0.324772	9.702027	-0.020885	0.021928	0.001172	1.000000	-0.000041	0.000007	0.000013	-2.090676	-8.419272	52.875398
59851	1.436478	-0.349475	9.698443	-0.003941	0.003308	-0.002214	1.000000	-0.000060	0.000011	0.000033	-2.092340	-8.419186	52.879906
59852	1.469218	-0.304198	9.680175	-0.018342	0.058471	-0.017119	1.000000	-0.000046	0.000016	0.000027	-2.092627	-8.418949	52.882987
59853	1.464051	-0.328818	9.676611	-0.001461	0.039369	-0.020506	1.000000	-0.000047	0.000016	0.000013	-2.091086	-8.420870	52.882545
59854	1.440391	-0.328851	9.702056	-0.018561	0.018330	0.001184	1.000000	-0.000046	0.000016	0.000027	-2.091369	-8.420638	52.885625
59855	1.487894	-0.339287	9.699442	0.019304	0.048936	0.005936	1.000000	-0.000054	0.000017	0.000020	-2.084614	-8.420949	52.890257
59856	1.444040	-0.303555	9.681551	-0.033288	0.037831	-0.019460	1.000000	-0.000054	0.000010	0.000026	-2.085745	-8.421436	52.893255
59857	1.463356	-0.336726	9.700776	0.002090	0.031122	0.003568	1.000000	-0.000046	0.000023	0.000021	-2.086369	-8.421390	52.893393
59858	1.462863	-0.337815	9.700812	0.002647	0.030330	0.003571	1.000000	-0.000060	0.000026	0.000020	-2.088147	-8.420060	52.895635
59859	1.442283	-0.302988	9.657514	-0.031857	0.039026	-0.043500	1.000000	-0.000046	0.000009	0.000033	-2.084687	-8.421254	52.900743
59860	1.438364	-0.335042	9.702145	-0.013950	0.012135	0.001202	1.000000	-0.000035	0.000014	-0.000001	-2.083205	-8.421430	52.900634
59861	1.466956	-0.317066	9.704427	-0.011283	0.045027	0.006999	1.000000	-0.000060	0.000004	0.000039	-2.082984	-8.423088	52.906559
59862	1.413841	-0.332402	9.703475	-0.030743	-0.005894	-0.001169	1.000000	-0.000046	0.000038	0.000008	-2.082943	-8.420387	52.907338
59863	1.461094	-0.342617	9.700911	0.006037	0.025781	0.003582	1.000000	-0.000032	0.000021	0.000021	-2.082631	-8.419112	52.910211
59864	1.441657	-0.315073	9.705857	-0.027874	0.026691	0.004635	1.000000	-0.000047	0.000016	0.000013	-2.082819	-8.418945	52.911658
59865	1.464685	-0.316941	9.680453	-0.010120	0.045830	-0.017039	1.000000	-0.000047	0.000016	0.000013	-2.083840	-8.421956	52.909184
59866	1.435493	-0.336971	9.678176	-0.011421	0.011055	-0.022844	1.000000	-0.000060	0.000026	0.000020	-2.085607	-8.420632	52.911423
59867	1.435052	-0.337779	9.678214	-0.010815	0.010769	-0.022843	1.000000	-0.000019	0.000019	0.000008	-2.084045	-8.417658	52.912620
59868	1.459316	-0.347120	9.701018	0.008438	0.021976	0.003590	1.000000	-0.000061	0.000004	0.000025	-2.086041	-8.418862	52.915525
59869	1.440074	-0.319730	9.705940	-0.024999	0.023316	0.004651	1.000000	-0.000033	0.000014	0.000013	-2.083915	-8.415285	52.919530
59870	1.458325	-0.345182	9.676906	0.009490	0.024971	-0.020463	1.000000	-0.000054	0.000010	0.000026	-2.085038	-8.415760	52.922515
59871	1.463605	-0.326529	9.704619	-0.005485	0.037970	0.007034	1.000000	-0.000061	0.000004	0.000025	-2.086262	-8.415686	52.925426
59872	1.459179	-0.355110	9.725081	0.011922	0.015190	0.027645	1.000000	-0.000047	0.000009	0.000019	-2.086547	-8.416327	52.927629
59873	1.438820	-0.320015	9.681798	-0.023690	0.024405	-0.019390	1.000000	-0.000041	0.000007	0.000012	-2.088950	-8.419316	52.925060
59874	1.463332	-0.329604	9.704556	-0.004429	0.035604	0.007043	1.000000	-0.000062	-0.000011	0.000024	-2.091080	-8.422221	52.927860
59875	1.439285	-0.325998	9.705848	-0.021220	0.018880	0.004670	1.000000	-0.000047	0.000023	0.000007	-2.088079	-8.417372	52.932196
59876	1.461676	-0.324020	9.656353	-0.003594	0.042546	-0.041054	1.000000	-0.000046	0.000016	0.000027	-2.088329	-8.417119	52.935258
59877	1.433677	-0.351695	9.702249	-0.003708	-0.000566	0.001218	1.000000	-0.000061	0.000019	0.000012	-2.089623	-8.416486	52.935964
59878	1.466355	-0.306312	9.684143	-0.018150	0.054623	-0.013537	1.000000	-0.000040	0.000022	0.000014	-2.088940	-8.415577	52.937480
59879	1.437825	-0.329958	9.705931	-0.018833	0.015739	0.004680	1.000000	-0.000047	0.000009	0.000019	-2.089099	-8.415781	52.940652
59880	1.460856	-0.331806	9.680533	-0.000665	0.035257	-0.016990	1.000000	-0.000046	0.000024	0.000021	-2.089252	-8.414699	52.942945
59881	1.488610	-0.309996	9.658809	0.001786	0.072745	-0.035195	1.000000	-0.000046	0.000024	0.000021	-2.087031	-8.410884	52.949189
59882	1.465620	-0.313991	9.708321	-0.014697	0.047481	0.010533	1.000000	-0.000055	-0.000005	0.000025	-2.088274	-8.413047	52.952062
59883	1.459992	-0.334841	9.680559	0.002088	0.033178	-0.016983	1.000000	-0.000044	0.000024	0.000035	-2.086764	-8.409516	52.957720
59884	1.459467	-0.335657	9.680610	0.002650	0.032393	-0.016981	1.000000	-0.000030	0.000029	0.000029	-2.085259	-8.407810	52.960943
59885	1.459118	-0.336752	9.680625	0.003434	0.031488	-0.016978	1.000000	-0.000077	0.000006	0.000010	-2.087311	-8.408528	52.962347
59886	1.458919	-0.337853	9.680616	0.003997	0.030702	-0.016976	1.000000	-0.000033	0.000014	0.000013	-2.085874	-8.408594	52.963841
59887	1.464591	-0.322801	9.732501	-0.010244	0.038453	0.034607	1.000000	-0.000054	0.000017	0.000020	-2.081799	-8.411289	52.964269
59888	1.462997	-0.316120	9.684336	-0.010816	0.046024	-0.013482	1.000000	-0.000044	0.000031	0.000028	-2.081887	-8.409310	52.967419
59889	1.438612	-0.312341	9.685681	-0.028530	0.029252	-0.015856	1.000000	-0.000047	0.000016	0.000013	-2.083188	-8.408767	52.969156
59890	1.457268	-0.341595	9.680734	0.006501	0.026780	-0.016966	1.000000	-0.000038	0.000022	0.000028	-2.082539	-8.407782	52.972291
59891	1.457449	-0.346625	9.704849	0.008042	0.021351	0.007082	1.000000	-0.000074	0.000014	0.000032	-2.082546	-8.408477	52.976728
59892	1.462018	-0.324235	9.708528	-0.007700	0.038388	0.010581	1.000000	-0.000046	0.000016	0.000027	-2.082759	-8.408209	52.979777
59893	1.456144	-0.344822	9.680788	0.008593	0.024468	-0.016961	1.000000	-0.000032	0.000029	0.000015	-2.082993	-8.404219	52.982329
59894	1.436722	-0.317337	9.685799	-0.025309	0.025362	-0.015836	1.000000	-0.000053	0.000010	0.000026	-2.084080	-8.404659	52.985289
59895	1.435906	-0.314505	9.661705	-0.025631	0.029262	-0.039879	1.000000	-0.000046	0.000016	0.000027	-2.087510	-8.403154	52.988446
59896	1.461058	-0.331808	9.732729	-0.005166	0.032038	0.034634	1.000000	-0.000046	0.000024	0.000021	-2.087640	-8.402048	52.990723
59897	1.454615	-0.348649	9.680881	0.010896	0.021634	-0.016957	1.000000	-0.000046	0.000024	0.000021	-2.085450	-8.400562	52.994476
59898	1.435029	-0.321287	9.685920	-0.023006	0.022526	-0.015824	1.000000	-0.000052	0.000032	0.000021	-2.086313	-8.398457	52.996764
59899	1.453766	-0.350832	9.680930	0.012213	0.020183	-0.016955	1.000000	-0.000061	-0.000004	0.000031	-2.087912	-8.399207	53.000955
59900	1.458510	-0.328317	9.684607	-0.003531	0.037222	-0.013439	1.000000	-0.000046	0.000016	0.000027	-2.088130	-8.398919	53.003993
59901	1.434131	-0.324519	9.685945	-0.021290	0.020666	-0.015816	1.000000	-0.000048	0.000031	0.000000	-2.090236	-8.395872	53.004421
59902	1.463004	-0.310457	9.712481	-0.018287	0.049645	0.014126	1.000000	-0.000046	0.000016	0.000027	-2.090459	-8.395580	53.007456
59903	1.429467	-0.357753	9.730499	-0.002421	-0.007505	0.028751	1.000000	-0.000040	0.000022	0.000014	-2.087313	-8.395484	53.008924
59904	1.456285	-0.328013	9.660643	-0.001790	0.038307	-0.037468	1.000000	-0.000039	0.000015	0.000020	-2.086697	-8.395364	53.011181
59905	1.452212	-0.360391	9.705132	0.016179	0.011337	0.007089	1.000000	-0.000053	0.000010	0.000026	-2.088463	-8.395861	53.013037
59906	1.456210	-0.333969	9.684760	-0.000161	0.032586	-0.013422	1.000000	-0.000052	0.000025	0.000027	-2.089421	-8.394572	53.016082
59907	1.433019	-0.338051	9.734264	-0.017062	0.007134	0.032279	1.000000	-0.000046	0.000009	0.000033	-2.091812	-8.397306	53.017184
59908	1.436705	-0.307745	9.689772	-0.034001	0.032602	-0.012265	1.000000	-0.000061	0.000004	0.000025	-2.093777	-8.398450	53.020042
59909	1.455664	-0.337236	9.684729	0.001530	0.030703	-0.013416	1.000000	-0.000049	0.000001	0.000011	-2.093693	-8.395548	53.024705
59910	1.455273	-0.338180	9.684755	0.002096	0.029920	-0.013414	1.000000	-0.000046	0.000038	0.000008	-2.093630	-8.392771	53.025438
59911	1.460086	-0.319392	9.712631	-0.012894	0.042886	0.014166	1.000000	-0.000046	0.000024	0.000021	-2.093591	-8.390394	53.029216
59912	1.459675	-0.320416	9.712659	-0.012326	0.042102	0.014171	1.000000	-0.000054	0.000017	0.000020	-2.094588	-8.389979	53.031388
59913	1.454452	-0.345002	9.708948	0.004537	0.023739	0.010629	1.000000	-0.000039	0.000015	0.000020	-2.094900	-8.388788	53.034526
59914	1.453682	-0.341986	9.684860	0.004496	0.027183	-0.013407	1.000000	-0.000047	0.000009	0.000019	-2.095162	-8.389367	53.036683
59915	1.433959	-0.310661	9.665789	-0.029874	0.032433	-0.036273	1.000000	-0.000047	0.000009	0.000019	-2.095232	-8.388808	53.039830
59916	1.458291	-0.320300	9.688570	-0.010541	0.043571	-0.009852	1.000000	-0.000049	0.000001	0.000011	-2.095530	-8.390269	53.041121
59917	1.452829	-0.340982	9.660714	0.005451	0.029411	-0.037439	1.000000	-0.000047	0.000001	0.000025	-2.097906	-8.391684	53.044006
59918	1.457892	-0.322028	9.688573	-0.009681	0.042212	-0.009845	1.000000	-0.000024	0.000035	0.000016	-2.095468	-8.389286	53.045656
59919	1.451965	-0.342460	9.660792	0.006601	0.028465	-0.037437	1.000000	-0.000047	0.000016	0.000013	-2.097725	-8.386098	53.046417
59920	1.485865	-0.304918	9.691090	-0.006685	0.075227	-0.003901	1.000000	-0.000054	0.000017	0.000020	-2.098734	-8.385665	53.048577
59921	1.456642	-0.324805	9.688668	-0.007523	0.040390	-0.009836	1.000000	-0.000046	0.000024	0.000021	-2.096451	-8.383419	53.052448
59922	1.455766	-0.321973	9.664594	-0.007577	0.043852	-0.033867	1.000000	-0.000060	0.000011	0.000033	-2.098383	-8.383637	53.056147
59923	1.456476	-0.330801	9.712791	-0.006345	0.034327	0.014206	1.000000	-0.000032	0.000021	0.000021	-2.098724	-8.386045	53.054803
59924	1.479325	-0.332567	9.687459	0.011755	0.053939	-0.007443	1.000000	-0.000060	0.000034	0.000014	-2.100373	-8.383791	53.056208
59925	1.459684	-0.305255	9.692567	-0.021184	0.054988	-0.006249	1.000000	-0.000046	0.000031	0.000014	-2.096445	-8.377643	53.060987
59926	1.454353	-0.329965	9.688837	-0.004304	0.036399	-0.009818	1.000000	-0.000060	0.000011	0.000033	-2.098371	-8.377856	53.064680
59927	1.459035	-0.307527	9.692593	-0.020003	0.053330	-0.006237	1.000000	-0.000053	0.000010	0.000026	-2.098905	-8.378559	53.066282
59928	1.453847	-0.332247	9.688835	-0.003122	0.034742	-0.009812	1.000000	-0.000053	0.000017	0.000020	-2.099901	-8.378116	53.068432
59929	1.452913	-0.329383	9.664774	-0.002933	0.037762	-0.033839	1.000000	-0.000054	0.000025	0.000013	-2.097978	-8.378095	53.068187
59930	1.458932	-0.318709	9.740831	-0.016772	0.042020	0.041845	1.000000	-0.000052	0.000017	0.000034	-2.099026	-8.377595	53.071964
59931	1.452443	-0.335432	9.688936	-0.001636	0.031809	-0.009801	1.000000	-0.000046	0.000039	0.000008	-2.100718	-8.377115	53.070129
59932	1.452046	-0.336382	9.688963	-0.001068	0.031029	-0.009799	1.000000	-0.000047	0.000001	0.000025	-2.101071	-8.378504	53.073029
59933	1.457143	-0.317677	9.716841	-0.016547	0.043805	0.017826	1.000000	-0.000047	0.000031	0.000000	-2.102850	-8.377856	53.071112
59934	1.451818	-0.342314	9.713090	0.000333	0.025215	0.014236	1.000000	-0.000052	0.000010	0.000040	-2.104003	-8.378189	53.075650
59935	1.432545	-0.314974	9.718163	-0.033202	0.025798	0.015452	1.000000	-0.000046	0.000016	0.000027	-2.101473	-8.377972	53.078650
59936	1.421882	-0.359193	9.686527	-0.000654	-0.006327	-0.015773	1.000000	-0.000047	0.000016	0.000013	-2.101631	-8.377709	53.080019
59937	1.450514	-0.341383	9.689017	0.001547	0.026737	-0.009786	1.000000	-0.000055	0.000003	0.000018	-2.103376	-8.380252	53.080356
59938	1.455378	-0.318820	9.692778	-0.014195	0.043763	-0.006180	1.000000	-0.000047	0.000001	0.000025	-2.103728	-8.381645	53.083251
59939	1.426411	-0.338775	9.690257	-0.015146	0.008134	-0.012167	1.000000	-0.000060	0.000011	0.000033	-2.100913	-8.384911	53.085221
59940	1.426158	-0.339733	9.690261	-0.014577	0.007352	-0.012165	1.000000	-0.000035	0.000014	-0.000001	-2.099396	-8.385000	53.085038
59941	1.473052	-0.345974	9.663644	0.020961	0.043006	-0.031415	1.000000	-0.000030	0.000029	0.000029	-2.100672	-8.386364	53.084619
59942	1.454678	-0.326429	9.716920	-0.011641	0.035316	0.017867	1.000000	-0.000055	0.000010	0.000012	-2.101696	-8.386830	53.085898
59943	1.425657	-0.346297	9.714399	-0.012524	0.000068	0.011864	1.000000	-0.000047	0.000009	0.000019	-2.098257	-8.388414	53.087492
59944	1.477635	-0.329224	9.691553	0.007397	0.053667	-0.003760	1.000000	-0.000046	0.000016	0.000027	-2.098462	-8.388108	53.090488
59945	1.458821	-0.305782	9.720743	-0.026346	0.050393	0.021501	1.000000	-0.000047	0.000016	0.000013	-2.101487	-8.388960	53.089710
59946	1.447592	-0.345908	9.664995	0.005530	0.022586	-0.033793	1.000000	-0.000038	0.000022	0.000028	-2.100830	-8.387942	53.092793
59947	1.457735	-0.303724	9.696689	-0.025459	0.052806	-0.002510	1.000000	-0.000061	-0.000004	0.000031	-2.099857	-8.389923	53.095471
59948	1.476113	-0.329089	9.667497	0.008915	0.054661	-0.027768	1.000000	-0.000035	0.000014	-0.000001	-2.098338	-8.390020	53.095284
59949	1.456949	-0.301667	9.672592	-0.024722	0.055568	-0.026521	1.000000	-0.000059	0.000004	0.000039	-2.099210	-8.390004	53.101178
59950	1.476153	-0.335085	9.691578	0.010972	0.048829	-0.003738	1.000000	-0.000039	0.000022	0.000014	-2.098484	-8.389040	53.102629
59951	1.433289	-0.306861	9.722085	-0.040279	0.028900	0.019146	1.000000	-0.000052	0.000025	0.000027	-2.097521	-8.388902	53.103417
59952	1.456370	-0.308607	9.696740	-0.022217	0.048564	-0.002480	1.000000	-0.000039	0.000008	0.000026	-2.096982	-8.389594	53.106393
59953	1.475520	-0.341891	9.715730	0.013323	0.041688	0.020295	1.000000	-0.000046	0.000024	0.000020	-2.097398	-8.389625	53.105889
59954	1.455566	-0.310516	9.696800	-0.021238	0.046868	-0.002469	1.000000	-0.000052	0.000025	0.000027	-2.098331	-8.388320	53.108887
59955	1.450897	-0.339306	9.717044	-0.003519	0.023869	0.017908	1.000000	-0.000061	-0.000004	0.000031	-2.099173	-8.390131	53.112849
59956	1.454971	-0.312502	9.696826	-0.019926	0.045195	-0.002459	1.000000	-0.000019	0.000041	-0.000011	-2.095713	-8.387145	53.111310
59957	1.454526	-0.313307	9.696866	-0.019538	0.044142	-0.002453	1.000000	-0.000059	0.000004	0.000039	-2.097617	-8.390105	53.114228
59958	1.454656	-0.318421	9.720961	-0.018296	0.039038	0.021571	1.000000	-0.000046	0.000031	0.000014	-2.097618	-8.388148	53.115686
59959	1.453156	-0.311255	9.672859	-0.018885	0.046743	-0.026462	1.000000	-0.000039	0.000022	0.000014	-2.095458	-8.387223	53.116673
59960	1.453313	-0.316229	9.696953	-0.017641	0.041636	-0.002439	1.000000	-0.000053	0.000010	0.000026	-2.096518	-8.387633	53.119564
59961	1.429623	-0.316489	9.722316	-0.034216	0.020147	0.019191	1.000000	-0.000047	0.000016	0.000013	-2.094228	-8.387306	53.120973
59962	1.452642	-0.318212	9.696989	-0.016167	0.039830	-0.002429	1.000000	-0.000044	0.000024	0.000035	-2.094375	-8.386116	53.124818
59963	1.446726	-0.338865	9.669105	0.000108	0.025951	-0.030113	1.000000	-0.000061	0.000026	0.000006	-2.096960	-8.382720	53.126880
59964	1.452196	-0.324413	9.721131	-0.014264	0.034303	0.021595	1.000000	-0.000044	0.000016	0.000041	-2.097206	-8.382352	53.131484
59965	1.451244	-0.321329	9.697096	-0.014150	0.038089	-0.002419	1.000000	-0.000047	0.000031	0.000000	-2.096922	-8.378513	53.132472
59966	1.422538	-0.345184	9.718607	-0.014741	-0.000967	0.015531	1.000000	-0.000053	0.000003	0.000032	-2.098074	-8.379737	53.136116
59967	1.478525	-0.296514	9.651553	-0.012389	0.079033	-0.044369	1.000000	-0.000046	0.000024	0.000020	-2.097120	-8.378526	53.138912
59968	1.450694	-0.328442	9.721220	-0.011599	0.031302	0.021609	1.000000	-0.000053	0.000018	0.000019	-2.098076	-8.378093	53.141029
59969	1.444923	-0.349089	9.693299	0.005378	0.016453	-0.006087	1.000000	-0.000053	0.000018	0.000019	-2.093131	-8.377756	53.142812
59970	1.444925	-0.354072	9.717407	0.006646	0.011325	0.017929	1.000000	-0.000040	0.000030	0.000007	-2.092276	-8.375954	53.143483
59971	1.468087	-0.355857	9.692063	0.024688	0.031190	-0.003691	1.000000	-0.000061	-0.000004	0.000031	-2.094823	-8.377108	53.146331
59972	1.448985	-0.328579	9.697190	-0.009202	0.032050	-0.002391	1.000000	-0.000046	0.000016	0.000027	-2.094994	-8.376787	53.149297
59973	1.448985	-0.333570	9.721300	-0.007519	0.026826	0.021626	1.000000	-0.000047	0.000031	0.000000	-2.092652	-8.373849	53.150449
59974	1.443290	-0.354204	9.693357	0.008663	0.012601	-0.006084	1.000000	-0.000061	-0.000004	0.000031	-2.094651	-8.375778	53.153992
59975	1.448577	-0.335713	9.721287	-0.006434	0.025079	0.021631	1.000000	-0.000039	0.000015	0.000020	-2.093695	-8.376674	53.154825
59976	1.442446	-0.352082	9.669272	0.009040	0.015214	-0.030095	1.000000	-0.000047	0.000009	0.000019	-2.093898	-8.377236	53.156922
59977	1.476003	-0.310599	9.675767	-0.005084	0.066131	-0.020286	1.000000	-0.000039	0.000015	0.000020	-2.094295	-8.378018	53.158508
59978	1.418376	-0.353108	9.694645	-0.007502	-0.006875	-0.008478	1.000000	-0.000046	0.000024	0.000020	-2.094365	-8.376868	53.160707
59979	1.476363	-0.320574	9.723933	-0.002095	0.056493	0.027744	1.000000	-0.000048	-0.000006	0.000018	-2.094974	-8.374608	53.164334
59980	1.471297	-0.345140	9.720028	0.014789	0.037921	0.024036	1.000000	-0.000046	0.000016	0.000027	-2.095142	-8.374275	53.167289
59981	1.445671	-0.329082	9.649114	-0.004848	0.033788	-0.050388	1.000000	-0.000047	0.000016	0.000013	-2.093849	-8.375087	53.166897
59982	1.475171	-0.319542	9.699875	-0.000999	0.058209	0.003749	1.000000	-0.000059	0.000011	0.000032	-2.095713	-8.375295	53.170533
59983	1.450523	-0.311757	9.677088	-0.019344	0.046056	-0.022654	1.000000	-0.000047	0.000016	0.000013	-2.097510	-8.373264	53.172118
59984	1.451048	-0.320855	9.725251	-0.017337	0.036539	0.025370	1.000000	-0.000046	0.000024	0.000020	-2.097581	-8.372099	53.174306
59985	1.444840	-0.337240	9.673234	-0.001838	0.026645	-0.026369	1.000000	-0.000047	0.000009	0.000019	-2.097312	-8.372772	53.175344
59986	1.468342	-0.342998	9.671988	0.016892	0.042010	-0.023971	1.000000	-0.000046	0.000031	0.000014	-2.097285	-8.370777	53.176768
59987	1.426131	-0.319050	9.726575	-0.033346	0.018092	0.022986	1.000000	-0.000061	-0.000004	0.000031	-2.097989	-8.370855	53.181260
59988	1.473365	-0.325563	9.699949	0.002819	0.053976	0.003773	1.000000	-0.000035	0.000014	-0.000001	-2.096434	-8.370913	53.181030
59989	1.444059	-0.345136	9.697350	0.001543	0.019256	-0.002353	1.000000	-0.000044	0.000031	0.000028	-2.096448	-8.368910	53.184063
59990	1.448087	-0.318407	9.677237	-0.014913	0.040635	-0.022622	1.000000	-0.000047	0.000016	0.000013	-2.096553	-8.368622	53.185378
59991	1.448203	-0.323517	9.701318	-0.013214	0.035543	0.001389	1.000000	-0.000053	0.000018	0.000019	-2.095857	-8.366438	53.187612
59992	1.471763	-0.329355	9.700064	0.005519	0.050908	0.003788	1.000000	-0.000047	0.000016	0.000013	-2.095958	-8.366145	53.188923
59993	1.447976	-0.329655	9.725415	-0.011752	0.029269	0.025402	1.000000	-0.000053	0.000018	0.000019	-2.097748	-8.368695	53.188255
59994	1.470556	-0.327294	9.676046	0.005517	0.053404	-0.020208	1.000000	-0.000046	0.000024	0.000020	-2.097812	-8.367523	53.190431
59995	1.446807	-0.327389	9.701397	-0.011218	0.032191	0.001403	1.000000	-0.000034	0.000006	0.000006	-2.096186	-8.367541	53.191570
59996	1.446576	-0.328211	9.701403	-0.010642	0.031408	0.001406	1.000000	-0.000045	0.000016	0.000027	-2.096347	-8.367195	53.194504
59997	1.441247	-0.352890	9.697489	0.006356	0.012342	-0.002344	1.000000	-0.000058	0.000019	0.000040	-2.095836	-8.368471	53.196873
59998	1.445260	-0.326288	9.677397	-0.010111	0.033734	-0.022590	1.000000	-0.000046	0.000031	0.000014	-2.095797	-8.366470	53.198285
59999	1.469192	-0.336237	9.700218	0.009287	0.044516	0.003816	1.000000	-0.000053	0.000010	0.000026	-2.096527	-8.367957	53.199286
60000	1.449901	-0.308932	9.705441	-0.024598	0.045366	0.005182	1.000000	-0.000052	0.000025	0.000027	-2.097414	-8.366614	53.202231
60001	1.454011	-0.282258	9.685351	-0.041285	0.066111	-0.015047	1.000000	-0.000047	0.000016	0.000013	-2.096241	-8.370165	53.199888
60002	1.444232	-0.334624	9.701533	-0.007358	0.025367	0.001427	1.000000	-0.000059	0.000011	0.000032	-2.098090	-8.370370	53.203501
60003	1.462392	-0.359853	9.672277	0.027126	0.027924	-0.023943	1.000000	-0.000035	0.000021	-0.000007	-2.097529	-8.366269	53.202606
60004	1.443654	-0.336524	9.701554	-0.006012	0.024367	0.001430	1.000000	-0.000061	0.000004	0.000025	-2.099419	-8.367350	53.205347
60005	1.466785	-0.338175	9.676244	0.011692	0.043750	-0.020166	1.000000	-0.000033	0.000029	0.000001	-2.097692	-8.368506	53.202967
60006	1.442486	-0.334292	9.677537	-0.005891	0.026825	-0.022565	1.000000	-0.000059	0.000011	0.000032	-2.099544	-8.368708	53.206573
60007	1.436776	-0.354899	9.649527	0.010398	0.012721	-0.050342	1.000000	-0.000053	0.000018	0.000019	-2.099839	-8.367506	53.207663
60008	1.465670	-0.341301	9.676304	0.013578	0.041442	-0.020158	1.000000	-0.000046	0.000024	0.000020	-2.099894	-8.366337	53.209826
60009	1.446853	-0.317986	9.705603	-0.019677	0.038098	0.005224	1.000000	-0.000047	0.000009	0.000019	-2.101470	-8.366271	53.210463
60010	1.417158	-0.333465	9.678875	-0.021710	0.007818	-0.024959	1.000000	-0.000039	0.000030	0.000007	-2.100601	-8.364444	53.211089
60011	1.465143	-0.348157	9.700410	0.015777	0.034404	0.003849	1.000000	-0.000047	-0.000006	0.000032	-2.099997	-8.369518	53.212817
60012	1.440806	-0.340312	9.677578	-0.002561	0.021904	-0.022551	1.000000	-0.000059	0.000004	0.000039	-2.101945	-8.370549	53.217177
60013	1.464897	-0.350529	9.700362	0.016742	0.032755	0.003853	1.000000	-0.000061	0.000019	0.000012	-2.104245	-8.371012	53.216636
60014	1.445063	-0.318982	9.681580	-0.017901	0.038032	-0.018751	1.000000	-0.000039	0.000030	0.000007	-2.103375	-8.369191	53.217261
60015	1.445020	-0.324072	9.705675	-0.016191	0.032916	0.005249	1.000000	-0.000052	0.000018	0.000033	-2.102924	-8.366910	53.221568
60016	1.444254	-0.320880	9.681638	-0.016377	0.036564	-0.018743	1.000000	-0.000039	0.000015	0.000020	-2.102246	-8.366743	53.223711
60017	1.439387	-0.349481	9.701730	0.001038	0.013694	0.001452	1.000000	-0.000047	0.000016	0.000013	-2.103834	-8.366698	53.223742
60018	1.467424	-0.327608	9.680422	0.002706	0.051260	-0.016331	1.000000	-0.000053	0.000025	0.000013	-2.104661	-8.365409	53.225039
60019	1.467391	-0.332637	9.704516	0.003499	0.046003	0.007668	1.000000	-0.000031	0.000021	0.000021	-2.105600	-8.366631	53.224584
60020	1.443212	-0.328891	9.705782	-0.014085	0.029079	0.005265	1.000000	-0.000076	0.000007	0.000010	-2.109035	-8.367477	53.225595
60021	1.447727	-0.306258	9.709810	-0.029582	0.046413	0.009079	1.000000	-0.000018	0.000041	0.000003	-2.105752	-8.361984	53.225067
60022	1.436436	-0.346000	9.653761	0.002054	0.018975	-0.046532	1.000000	-0.000073	0.000007	0.000038	-2.109305	-8.362716	53.229328
60023	1.446514	-0.304272	9.685807	-0.028835	0.049336	-0.014903	1.000000	-0.000046	0.000024	0.000020	-2.107779	-8.360047	53.231005
60024	1.446521	-0.309457	9.709888	-0.027486	0.044108	0.009095	1.000000	-0.000053	0.000018	0.000019	-2.108705	-8.359581	53.233051
60025	1.459667	-0.358341	9.676595	0.022960	0.028572	-0.020130	1.000000	-0.000053	0.000018	0.000019	-2.110881	-8.358591	53.233507
60026	1.445675	-0.311560	9.709947	-0.026448	0.042741	0.009104	1.000000	-0.000044	0.000031	0.000028	-2.110902	-8.356528	53.236512
60027	1.445128	-0.312495	9.709998	-0.025503	0.041997	0.009110	1.000000	-0.000047	0.000024	0.000006	-2.109292	-8.353935	53.236836
60028	1.463753	-0.341993	9.704740	0.009533	0.039585	0.007692	1.000000	-0.000061	0.000004	0.000025	-2.111182	-8.355002	53.239540
60029	1.463948	-0.347287	9.728783	0.010837	0.034671	0.031685	1.000000	-0.000044	0.000016	0.000041	-2.112798	-8.353276	53.243562
60030	1.438455	-0.330916	9.657909	-0.009093	0.031120	-0.042692	1.000000	-0.000053	0.000018	0.000019	-2.113725	-8.352799	53.245597
60031	1.462753	-0.345215	9.704777	0.010916	0.037498	0.007699	1.000000	-0.000053	0.000025	0.000013	-2.115718	-8.352836	53.244386
60032	1.443419	-0.317894	9.710077	-0.022967	0.038346	0.009131	1.000000	-0.000052	0.000018	0.000033	-2.116706	-8.352307	53.248045
60033	1.461561	-0.343134	9.680771	0.011431	0.040247	-0.016286	1.000000	-0.000047	0.000016	0.000013	-2.115565	-8.352193	53.249281
60034	1.442755	-0.319801	9.710113	-0.021664	0.036631	0.009141	1.000000	-0.000039	0.000015	0.000020	-2.114893	-8.352010	53.251395
60035	1.460438	-0.340702	9.656769	0.011926	0.042782	-0.040269	1.000000	-0.000044	0.000024	0.000034	-2.113056	-8.352067	53.252173
60036	1.470839	-0.302941	9.712947	-0.018513	0.068596	0.015407	1.000000	-0.000045	0.000016	0.000027	-2.113208	-8.351713	53.255057
60037	1.436499	-0.346004	9.706183	-0.003595	0.015979	0.005304	1.000000	-0.000032	0.000029	0.000015	-2.111426	-8.351095	53.255684
60038	1.488700	-0.328857	9.683657	0.016213	0.069712	-0.010011	1.000000	-0.000054	-0.000012	0.000030	-2.112681	-8.353996	53.259123
60039	1.407356	-0.366713	9.703366	-0.003990	-0.019781	-0.000958	1.000000	-0.000053	0.000018	0.000019	-2.111069	-8.353798	53.259982
60040	1.464394	-0.326131	9.684901	-0.000480	0.051720	-0.012410	1.000000	-0.000047	0.000016	0.000013	-2.111157	-8.353497	53.261236
60041	1.458791	-0.346500	9.656811	0.015925	0.037747	-0.040254	1.000000	-0.000055	0.000003	0.000018	-2.110954	-8.353138	53.263928
60042	1.435186	-0.346821	9.682092	-0.000859	0.016349	-0.018675	1.000000	-0.000039	0.000008	0.000026	-2.110368	-8.353784	53.266793
60043	1.458756	-0.352567	9.680855	0.017712	0.031403	-0.016263	1.000000	-0.000045	0.000024	0.000020	-2.110136	-8.354612	53.266925
60044	1.463212	-0.329948	9.684950	0.001993	0.048385	-0.012393	1.000000	-0.000046	0.000031	0.000014	-2.110083	-8.352597	53.268282
60045	1.434355	-0.353947	9.706213	0.001550	0.008957	0.005314	1.000000	-0.000059	0.000004	0.000039	-2.110914	-8.354679	53.271722
60046	1.438668	-0.327276	9.686225	-0.014974	0.030427	-0.014795	1.000000	-0.000045	0.000024	0.000020	-2.110956	-8.353495	53.273837
60047	1.462083	-0.333080	9.685014	0.003895	0.045276	-0.012379	1.000000	-0.000045	0.000024	0.000020	-2.108593	-8.354238	53.273609
60048	1.462219	-0.338266	9.709062	0.005282	0.039998	0.011608	1.000000	-0.000047	0.000002	0.000025	-2.108866	-8.355602	53.276375
60049	1.438065	-0.334361	9.710319	-0.012135	0.022745	0.009199	1.000000	-0.000045	0.000024	0.000020	-2.106941	-8.355397	53.278379
60050	1.460876	-0.331861	9.660990	0.004980	0.047098	-0.036349	1.000000	-0.000061	0.000004	0.000024	-2.108806	-8.356466	53.281058
60051	1.466250	-0.317858	9.713164	-0.009522	0.054960	0.015505	1.000000	-0.000046	0.000039	0.000008	-2.110208	-8.355594	53.279347
60052	1.436526	-0.333379	9.686335	-0.011626	0.024785	-0.014775	1.000000	-0.000061	0.000004	0.000024	-2.112077	-8.356666	53.282025
60053	1.460361	-0.343286	9.709166	0.007803	0.034993	0.011625	1.000000	-0.000018	0.000041	0.000003	-2.106976	-8.357013	53.281056
60054	1.483411	-0.344716	9.683917	0.025726	0.054853	-0.009937	1.000000	-0.000061	0.000004	0.000024	-2.108841	-8.358092	53.283734
60055	1.435412	-0.336078	9.686407	-0.009645	0.021670	-0.014765	1.000000	-0.000045	0.000016	0.000027	-2.106728	-8.357039	53.286293
60056	1.492888	-0.299684	9.692080	-0.005331	0.088670	-0.002129	1.000000	-0.000047	0.000017	0.000013	-2.106795	-8.356749	53.287536
60057	1.464100	-0.323627	9.713298	-0.005965	0.049193	0.015539	1.000000	-0.000053	0.000010	0.000026	-2.107576	-8.359029	53.288301
60058	1.463450	-0.320339	9.689267	-0.006210	0.052925	-0.008435	1.000000	-0.000039	0.000015	0.000020	-2.106874	-8.358864	53.290399
60059	1.458041	-0.344759	9.685214	0.010437	0.034353	-0.012339	1.000000	-0.000045	0.000024	0.000020	-2.107860	-8.358623	53.292047
60060	1.462510	-0.322149	9.689349	-0.005280	0.051325	-0.008426	1.000000	-0.000046	0.000031	0.000014	-2.107789	-8.356623	53.293396
60061	1.409735	-0.341285	9.711807	-0.023691	-0.004007	0.006806	1.000000	-0.000059	0.000004	0.000039	-2.108690	-8.356879	53.298040
60062	1.456793	-0.347736	9.685296	0.012384	0.032003	-0.012333	1.000000	-0.000032	0.000029	0.000015	-2.107022	-8.355173	53.299472
60063	1.437912	-0.324457	9.714697	-0.020601	0.028042	0.013145	1.000000	-0.000053	0.000010	0.000026	-2.106771	-8.356580	53.300679
60064	1.442348	-0.297688	9.694751	-0.037147	0.049540	-0.006905	1.000000	-0.000047	0.000009	0.000019	-2.106933	-8.357124	53.302673
60065	1.437365	-0.326507	9.714709	-0.019413	0.026245	0.013153	1.000000	-0.000053	0.000025	0.000013	-2.106798	-8.356770	53.303374
60066	1.459935	-0.323850	9.665445	-0.002341	0.050663	-0.032374	1.000000	-0.000046	0.000031	0.000014	-2.106720	-8.354769	53.304717
60067	1.436138	-0.324330	9.690729	-0.018818	0.028999	-0.010814	1.000000	-0.000061	-0.000003	0.000031	-2.106635	-8.356703	53.307782
60068	1.459502	-0.326048	9.665436	-0.000915	0.048887	-0.032364	1.000000	-0.000045	0.000016	0.000027	-2.106750	-8.356364	53.310641
60069	1.460246	-0.340098	9.737554	0.002175	0.034772	0.039558	1.000000	-0.000073	0.000022	0.000025	-2.111136	-8.354084	53.311887
60070	1.458674	-0.328415	9.665481	0.000231	0.047612	-0.032358	1.000000	-0.000039	0.000023	0.000014	-2.110327	-8.353084	53.313212
60071	1.463597	-0.310099	9.693668	-0.014642	0.060148	-0.004444	1.000000	-0.000052	0.000025	0.000027	-2.111581	-8.351214	53.314881
60072	1.434190	-0.329756	9.690835	-0.015936	0.025479	-0.010799	1.000000	-0.000045	0.000024	0.000020	-2.111600	-8.350038	53.316972
60073	1.463129	-0.316415	9.717761	-0.012032	0.053752	0.019541	1.000000	-0.000053	0.000010	0.000025	-2.108726	-8.349575	53.320350
60074	1.457512	-0.336764	9.689605	0.003992	0.039766	-0.008372	1.000000	-0.000053	0.000010	0.000025	-2.109702	-8.349936	53.323100
60075	1.432910	-0.328599	9.666831	-0.014093	0.027281	-0.034759	1.000000	-0.000047	0.000024	0.000006	-2.107569	-8.348147	53.323407
60076	1.457248	-0.343164	9.713658	0.006355	0.033520	0.015604	1.000000	-0.000059	0.000004	0.000038	-2.109466	-8.349162	53.327682
60077	1.456806	-0.339983	9.689599	0.006019	0.037107	-0.008363	1.000000	-0.000048	0.000002	0.000011	-2.109307	-8.351663	53.327116
60078	1.456591	-0.341079	9.689593	0.006600	0.036322	-0.008360	1.000000	-0.000059	0.000019	0.000026	-2.111005	-8.351016	53.329873
60079	1.480115	-0.347061	9.688368	0.025211	0.051733	-0.005937	1.000000	-0.000045	0.000017	0.000027	-2.111971	-8.350834	53.332153
60080	1.455879	-0.343189	9.689625	0.007627	0.034815	-0.008355	1.000000	-0.000053	0.000018	0.000019	-2.112844	-8.350361	53.334137
60081	1.431939	-0.343611	9.714921	-0.009283	0.013219	0.013194	1.000000	-0.000045	0.000024	0.000020	-2.113332	-8.350361	53.334150
60082	1.455434	-0.349379	9.713708	0.009463	0.028564	0.015617	1.000000	-0.000041	0.000015	0.000006	-2.112553	-8.350238	53.334593
60083	1.430431	-0.336737	9.666918	-0.009058	0.020566	-0.034736	1.000000	-0.000045	0.000024	0.000020	-2.108047	-8.347321	53.338668
60084	1.453855	-0.342851	9.665706	0.009686	0.035915	-0.032313	1.000000	-0.000072	0.000022	0.000039	-2.111389	-8.346321	53.342956
60085	1.454187	-0.352703	9.713775	0.012308	0.025908	0.015622	1.000000	-0.000047	0.000017	0.000012	-2.109697	-8.345302	53.345065
60086	1.458272	-0.321363	9.669879	-0.005138	0.052016	-0.028330	1.000000	-0.000033	0.000006	0.000019	-2.108238	-8.346129	53.347117
60087	1.458323	-0.326495	9.693924	-0.003554	0.046480	-0.004359	1.000000	-0.000045	0.000024	0.000020	-2.106995	-8.345306	53.347751
60088	1.482146	-0.336728	9.716742	0.016064	0.057246	0.022031	1.000000	-0.000053	0.000018	0.000019	-2.107853	-8.344827	53.349726
60089	1.428628	-0.347148	9.691049	-0.004326	0.010688	-0.010760	1.000000	-0.000045	0.000017	0.000027	-2.107027	-8.346310	53.351399
60090	1.452303	-0.357375	9.713886	0.015296	0.021450	0.015628	1.000000	-0.000052	0.000040	0.000014	-2.107643	-8.343287	53.352726
60091	1.461360	-0.302556	9.674179	-0.018456	0.064767	-0.024311	1.000000	-0.000034	-0.000008	0.000018	-2.104394	-8.348445	53.352374
60092	1.456693	-0.331391	9.694003	-0.000708	0.041650	-0.004337	1.000000	-0.000059	0.000004	0.000038	-2.106270	-8.349462	53.356631
60093	1.456471	-0.332497	9.693999	0.004783	-0.000260	-0.004250	1.000000	-0.000045	0.000017	0.000027	-1.938260	-8.524397	51.675036
60094	1.460627	-0.305508	9.674197	-0.011173	0.021759	-0.024110	1.000000	-0.000038	0.000038	0.000015	-1.936950	-8.522027	51.674322
60095	1.432283	-0.337998	9.743371	-0.011242	-0.027094	0.041149	1.000000	-0.000047	0.000009	0.000019	-1.936881	-8.523257	51.685848
60096	1.460180	-0.311661	9.698282	-0.009338	0.015236	-0.000164	1.000000	-0.000045	0.000024	0.000020	-1.936538	-8.522428	51.685787
60097	1.430128	-0.322604	9.647324	-0.013154	-0.009969	-0.054617	1.000000	-0.000051	0.000018	0.000033	-1.937174	-8.522253	51.687634
60098	1.459405	-0.313703	9.698333	-0.008208	0.013471	-0.000160	1.000000	-0.000045	0.000017	0.000027	-1.936932	-8.522258	51.688328
60099	1.459141	-0.314661	9.698342	-0.007650	0.012576	-0.000159	1.000000	-0.000047	0.000009	0.000019	-1.936737	-8.523215	51.689964
60100	1.477687	-0.344176	9.692932	0.027310	0.009095	-0.001769	1.000000	-0.000061	0.000019	0.000012	-1.938022	-8.522963	51.688943
60101	1.458406	-0.316546	9.698391	-0.006535	0.010758	-0.000156	1.000000	-0.000017	0.000026	0.000015	-1.934315	-8.522185	51.694558
60102	1.434285	-0.312455	9.699632	-0.024590	-0.005717	-0.002640	1.000000	-0.000061	-0.000003	0.000031	-1.935905	-8.524438	51.695801
60103	1.434137	-0.313563	9.699618	-0.024003	-0.006562	-0.002639	1.000000	-0.000045	0.000017	0.000027	-1.935702	-8.524196	51.690420
60104	1.457953	-0.323781	9.722436	-0.004039	0.003399	0.023785	1.000000	-0.000045	0.000024	0.000020	-1.935357	-8.523365	51.690359
60105	1.451864	-0.339596	9.670220	0.010739	-0.006171	-0.028198	1.000000	-0.000053	0.000010	0.000025	-1.936096	-8.524034	51.691337
60106	1.451716	-0.340702	9.670203	0.011305	-0.007055	-0.028199	1.000000	-0.000053	0.000003	0.000032	-1.936819	-8.525579	51.692681
60107	1.457200	-0.326809	9.722447	-0.002330	0.000788	0.023786	1.000000	-0.000031	0.000021	0.000021	-1.934947	-8.524843	51.687330
60108	1.475161	-0.351664	9.693048	0.031854	0.002045	-0.001779	1.000000	-0.000047	0.000032	-0.000000	-1.934434	-8.523219	51.684886
60109	1.450466	-0.343308	9.670298	0.013016	-0.009678	-0.028204	1.000000	-0.000045	0.000017	0.000026	-1.934167	-8.523245	51.685408
60110	1.431698	-0.320277	9.699759	-0.020031	-0.012708	-0.002637	1.000000	-0.000051	0.000010	0.000039	-1.934851	-8.523910	51.687623
60111	1.478977	-0.331064	9.697342	0.017803	0.017573	0.002341	1.000000	-0.000038	0.000038	0.000015	-1.933550	-8.521486	51.685702
60112	1.454530	-0.327141	9.698622	-0.000261	0.001108	-0.000148	1.000000	-0.000059	0.000019	0.000026	-1.934894	-8.521186	51.686305
60113	1.449090	-0.351803	9.694423	0.016079	-0.017979	-0.004278	1.000000	-0.000053	0.000018	0.000019	-1.935280	-8.521061	51.683509
60114	1.477418	-0.329925	9.673402	0.018744	0.019660	-0.021590	1.000000	-0.000054	0.000011	0.000011	-1.935834	-8.521812	51.682469
60115	1.448601	-0.353912	9.694420	0.017215	-0.019743	-0.004283	1.000000	-0.000047	0.000009	0.000019	-1.935641	-8.522649	51.681377
60116	1.448665	-0.359253	9.718439	0.018567	-0.025395	0.019645	1.000000	-0.000045	0.000017	0.000026	-1.935393	-8.522650	51.682067
60117	1.452585	-0.327922	9.674674	0.001820	0.001436	-0.024079	1.000000	-0.000042	0.000031	0.000042	-1.935012	-8.520877	51.682778
60118	1.447490	-0.356838	9.694478	0.018924	-0.022406	-0.004292	1.000000	-0.000054	0.000003	0.000018	-1.935667	-8.522462	51.682491
60119	1.452027	-0.329971	9.674688	0.002934	-0.000327	-0.024080	1.000000	-0.000045	0.000017	0.000026	-1.935519	-8.522509	51.686087
60120	1.452014	-0.335316	9.698719	0.004290	-0.005985	-0.000150	1.000000	-0.000045	0.000017	0.000026	-1.935270	-8.522509	51.686776
60121	1.475233	-0.336800	9.673499	0.022700	0.013458	-0.021588	1.000000	-0.000047	0.000017	0.000012	-1.934908	-8.522656	51.687171
60122	1.445861	-0.356378	9.670515	0.020378	-0.021184	-0.028234	1.000000	-0.000051	0.000025	0.000027	-1.935383	-8.521647	51.687874
60123	1.450494	-0.333605	9.674793	0.005227	-0.003806	-0.024081	1.000000	-0.000019	0.000019	0.000008	-1.931913	-8.520991	51.675956
60124	1.450113	-0.334409	9.674823	0.005793	-0.004690	-0.024082	1.000000	-0.000059	0.000019	0.000026	-1.933252	-8.520686	51.676554
60125	1.426197	-0.334953	9.700074	-0.011507	-0.025961	-0.002649	1.000000	-0.000048	0.000017	-0.000002	-1.932846	-8.521009	51.679640
60126	1.478333	-0.317715	9.677891	0.009801	0.027263	-0.017426	1.000000	-0.000031	0.000021	0.000021	-1.930903	-8.520475	51.679663
60127	1.425509	-0.336565	9.700119	-0.010372	-0.027725	-0.002653	1.000000	-0.000047	0.000009	0.000019	-1.930702	-8.521316	51.678107
60128	1.477759	-0.319483	9.677920	0.010938	0.025499	-0.017423	1.000000	-0.000045	0.000017	0.000026	-1.930450	-8.521314	51.678794
60129	1.453742	-0.319760	9.703195	-0.006344	0.004238	0.004010	1.000000	-0.000031	0.000029	0.000015	-1.928368	-8.520051	51.679820
60130	1.471851	-0.344581	9.673740	0.027808	0.005524	-0.021594	1.000000	-0.000048	0.000009	0.000005	-1.928090	-8.520969	51.678007
60131	1.428840	-0.312146	9.680455	-0.024631	-0.008273	-0.022409	1.000000	-0.000045	0.000024	0.000020	-1.927703	-8.519928	51.671774
60132	1.447487	-0.341692	9.674961	0.010321	-0.011785	-0.024092	1.000000	-0.000059	-0.000011	0.000051	-1.929448	-8.522966	51.675384
60133	1.476105	-0.324088	9.678020	0.013772	0.021097	-0.017416	1.000000	-0.000032	0.000044	0.000002	-1.927359	-8.519932	51.675994
60134	1.428341	-0.319504	9.704488	-0.022147	-0.015713	0.001516	1.000000	-0.000054	-0.000012	0.000030	-1.928213	-8.523185	51.677209
60135	1.476046	-0.330365	9.702021	0.015727	0.014504	0.006509	1.000000	-0.000039	0.000015	0.000020	-1.927017	-8.523380	51.675434
60136	1.451534	-0.321877	9.679254	-0.003162	0.002868	-0.019910	1.000000	-0.000045	0.000017	0.000026	-1.926763	-8.523377	51.676119
60137	1.451433	-0.327250	9.703291	-0.001789	-0.002847	0.004012	1.000000	-0.000045	0.000024	0.000020	-1.926356	-8.522645	51.676847
60138	1.469625	-0.352347	9.673798	0.032351	-0.001552	-0.021606	1.000000	-0.000061	0.000004	0.000024	-1.927831	-8.524051	51.677322
60139	1.450875	-0.329296	9.703305	-0.000662	-0.004613	0.004011	1.000000	-0.000031	0.000021	0.000021	-1.925946	-8.523514	51.678161
60140	1.449878	-0.321232	9.655324	-0.001723	0.004137	-0.043829	1.000000	-0.000045	0.000017	0.000026	-1.925691	-8.523509	51.678846
60141	1.426088	-0.321816	9.680544	-0.018987	-0.017124	-0.022408	1.000000	-0.000061	0.000004	0.000024	-1.927128	-8.524909	51.678628
60142	1.474101	-0.341609	9.726134	0.020515	0.003457	0.030428	1.000000	-0.000039	0.000030	0.000007	-1.925841	-8.523405	51.677038
60143	1.448459	-0.319812	9.631386	-0.000842	0.006281	-0.067747	1.000000	-0.000051	0.000025	0.000027	-1.926198	-8.522542	51.678903
60144	1.472601	-0.334602	9.678196	0.020013	0.011300	-0.017410	1.000000	-0.000039	0.000008	0.000026	-1.925218	-8.523547	51.679571
60145	1.448761	-0.335053	9.703424	0.002759	-0.009958	0.004007	1.000000	-0.000053	0.000018	0.000019	-1.925703	-8.523329	51.676512
60146	1.448180	-0.331627	9.679427	0.002505	-0.006013	-0.019911	1.000000	-0.000045	0.000009	0.000033	-1.925548	-8.524161	51.677948
60147	1.447997	-0.337014	9.703470	0.003894	-0.011698	0.004005	1.000000	-0.000045	0.000039	0.000008	-1.925101	-8.521495	51.674491
60148	1.471140	-0.338587	9.678279	0.022293	0.007800	-0.017412	1.000000	-0.000060	0.000004	0.000024	-1.926572	-8.522898	51.674962
60149	1.452552	-0.315850	9.707769	-0.010661	0.004745	0.008225	1.000000	-0.000059	0.000004	0.000038	-1.928031	-8.524020	51.669368
60150	1.452357	-0.316814	9.707767	-0.010093	0.003858	0.008226	1.000000	-0.000033	0.000014	0.000013	-1.926121	-8.524360	51.668514
60151	1.423004	-0.336146	9.704709	-0.012458	-0.030745	0.001497	1.000000	-0.000045	0.000024	0.000020	-1.925812	-8.523408	51.666698
60152	1.470035	-0.342606	9.678306	0.024601	0.004300	-0.017415	1.000000	-0.000053	0.000018	0.000019	-1.926314	-8.523269	51.666520
60153	1.451260	-0.319718	9.707836	-0.008398	0.001236	0.008228	1.000000	-0.000053	0.000011	0.000025	-1.927048	-8.523933	51.668416
60154	1.422081	-0.339269	9.704736	-0.010770	-0.033385	0.001491	1.000000	-0.000047	0.000009	0.000019	-1.926827	-8.524803	51.668223
60155	1.445325	-0.340704	9.679539	0.007620	-0.013884	-0.019922	1.000000	-0.000045	0.000024	0.000020	-1.926472	-8.524004	51.669747
60156	1.445058	-0.341657	9.679545	0.008186	-0.014768	-0.019924	1.000000	-0.000047	0.000002	0.000025	-1.926354	-8.525711	51.670307
60157	1.449849	-0.318985	9.683881	-0.006998	0.002529	-0.015683	1.000000	-0.000031	0.000029	0.000015	-1.924404	-8.524492	51.674503
60158	1.449956	-0.328811	9.731919	-0.004757	-0.008070	0.032141	1.000000	-0.000051	0.000018	0.000033	-1.924969	-8.524309	51.675950
60159	1.444271	-0.348902	9.703605	0.010680	-0.022321	0.003981	1.000000	-0.000054	0.000011	0.000011	-1.925460	-8.525242	51.678480
60160	1.419461	-0.336050	9.656839	-0.009093	-0.029026	-0.046347	1.000000	-0.000051	0.000025	0.000027	-1.925922	-8.524223	51.679175
60161	1.472757	-0.336901	9.730760	0.015605	0.004794	0.034644	1.000000	-0.000039	0.000015	0.000020	-1.924886	-8.524260	51.677057
60162	1.442807	-0.347317	9.679679	0.011545	-0.020093	-0.019936	1.000000	-0.000044	0.000024	0.000034	-1.924585	-8.523373	51.678610
60163	1.447830	-0.329413	9.708024	-0.002742	-0.007645	0.008228	1.000000	-0.000061	0.000012	0.000018	-1.925886	-8.523815	51.673858
60164	1.471008	-0.330835	9.682846	0.015647	0.011875	-0.013175	1.000000	-0.000030	0.000029	0.000029	-1.923895	-8.522397	51.674750
60165	1.465302	-0.355094	9.678573	0.031940	-0.007196	-0.017438	1.000000	-0.000047	0.000032	-0.000000	-1.923332	-8.520670	51.668841
60166	1.446413	-0.332074	9.708144	-0.001026	-0.010297	0.008226	1.000000	-0.000047	0.000009	0.000019	-1.923108	-8.521538	51.668645
60167	1.445811	-0.328452	9.684168	-0.001305	-0.006300	-0.015682	1.000000	-0.000039	0.000023	0.000013	-1.921936	-8.520825	51.666588
60168	1.445692	-0.333824	9.708192	0.000110	-0.012064	0.008224	1.000000	-0.000045	0.000017	0.000026	-1.921673	-8.520814	51.667265
60169	1.445339	-0.334840	9.708209	0.000637	-0.012986	0.008223	1.000000	-0.000053	0.000018	0.000019	-1.922238	-8.520991	51.675086
60170	1.468927	-0.340839	9.707008	0.019872	0.001660	0.010730	1.000000	-0.000045	0.000009	0.000033	-1.922077	-8.521817	51.676515
60171	1.449801	-0.313477	9.712585	-0.013957	0.003410	0.012499	1.000000	-0.000059	0.000027	0.000019	-1.923305	-8.520821	51.679525
60172	1.473234	-0.319533	9.711408	0.005279	0.018056	0.015009	1.000000	-0.000045	0.000017	0.000026	-1.923040	-8.520810	51.680202
60173	1.448753	-0.310990	9.688643	-0.013697	0.006507	-0.011403	1.000000	-0.000047	0.000017	0.000012	-1.922734	-8.520995	51.682884
60174	1.443007	-0.331019	9.660312	0.001724	-0.007675	-0.039592	1.000000	-0.000061	0.000020	0.000012	-1.923990	-8.520715	51.681841
60175	1.448089	-0.313214	9.688670	-0.012527	0.004801	-0.011401	1.000000	-0.000053	0.000011	0.000025	-1.924654	-8.521000	51.673895
60176	1.495893	-0.328720	9.710246	0.026241	0.030077	0.017523	1.000000	-0.000047	0.000009	0.000019	-1.924426	-8.521865	51.673697
60177	1.413484	-0.357283	9.681149	0.001343	-0.048886	-0.022496	1.000000	-0.000059	0.000019	0.000026	-1.925747	-8.521591	51.675040
60178	1.470599	-0.316911	9.663534	0.006979	0.022569	-0.032789	1.000000	-0.000051	0.000041	0.000014	-1.925994	-8.518891	51.674227
60179	1.446884	-0.322130	9.712737	-0.009424	-0.003657	0.012504	1.000000	-0.000060	-0.000003	0.000030	-1.927635	-8.521247	51.679211
60180	1.441081	-0.337642	9.660370	0.005120	-0.012923	-0.039598	1.000000	-0.000045	0.000017	0.000026	-1.927367	-8.521233	51.679885
60181	1.451660	-0.300728	9.717097	-0.024022	0.012710	0.016808	1.000000	-0.000048	0.000002	0.000011	-1.927134	-8.523292	51.683928
60182	1.446323	-0.325280	9.712715	-0.007747	-0.006365	0.012504	1.000000	-0.000061	0.000020	0.000012	-1.928387	-8.523009	51.682883
60183	1.416354	-0.335825	9.661591	-0.011881	-0.031110	-0.042116	1.000000	-0.000051	0.000026	0.000027	-1.928942	-8.521812	51.681380
60184	1.469054	-0.327876	9.687582	0.011197	0.012334	-0.008882	1.000000	-0.000047	0.000017	0.000012	-1.928608	-8.521837	51.680428
60185	1.444572	-0.319360	9.664819	-0.007781	0.000820	-0.035293	1.000000	-0.000051	0.000018	0.000033	-1.929090	-8.521739	51.681797
60186	1.439730	-0.353075	9.708397	0.010232	-0.028089	0.008186	1.000000	-0.000060	0.000005	0.000024	-1.930548	-8.523131	51.682254
60187	1.438943	-0.344933	9.660431	0.009042	-0.019153	-0.039611	1.000000	-0.000031	0.000022	0.000021	-1.928569	-8.522715	51.684412
60188	1.438814	-0.350286	9.684445	0.010482	-0.024959	-0.015717	1.000000	-0.000045	0.000017	0.000026	-1.928299	-8.522700	51.685085
60189	1.462600	-0.360772	9.707243	0.030607	-0.015228	0.010690	1.000000	-0.000047	0.000017	0.000012	-1.927999	-8.522602	51.681420
60190	1.443551	-0.333478	9.712849	-0.003201	-0.013447	0.012500	1.000000	-0.000065	0.000013	0.000039	-1.930241	-8.522940	51.683516
60191	1.461978	-0.363089	9.707250	0.031729	-0.017007	0.010684	1.000000	-0.000047	0.000017	0.000012	-1.929951	-8.523040	51.684779
60192	1.442976	-0.335584	9.712862	-0.002078	-0.015226	0.012497	1.000000	-0.000046	0.000009	0.000019	-1.929720	-8.523901	51.684576
60193	1.466399	-0.336969	9.687673	0.016269	0.004349	-0.008882	1.000000	-0.000048	0.000009	0.000004	-1.929532	-8.524821	51.685039
60194	1.447530	-0.309544	9.693270	-0.017539	0.006133	-0.007062	1.000000	-0.000053	0.000003	0.000031	-1.930228	-8.526345	51.686353
60195	1.460852	-0.362470	9.683251	0.033089	-0.015588	-0.013223	1.000000	-0.000047	0.000024	0.000006	-1.929923	-8.525472	51.686173
60196	1.460442	-0.363405	9.683278	0.033656	-0.016473	-0.013227	1.000000	-0.000045	0.000017	0.000026	-1.929651	-8.525455	51.686844
60197	1.465101	-0.336472	9.663708	0.017610	0.005765	-0.032778	1.000000	-0.000060	0.000005	0.000024	-1.931217	-8.526985	51.691502
60198	1.465072	-0.342060	9.687695	0.019064	-0.000062	-0.008887	1.000000	-0.000039	0.000023	0.000013	-1.930016	-8.526304	51.690656
60199	1.440821	-0.337861	9.688926	0.000955	-0.016457	-0.011405	1.000000	-0.000039	0.000015	0.000020	-1.928935	-8.526408	51.689183
60200	1.464027	-0.339224	9.663774	0.019311	0.003123	-0.032780	1.000000	-0.000051	0.000026	0.000027	-1.929382	-8.525378	51.689868
60201	1.444860	-0.311841	9.669430	-0.014499	0.004933	-0.030944	1.000000	-0.000053	0.000018	0.000019	-1.929952	-8.525130	51.689003
60202	1.439933	-0.345472	9.712967	0.003546	-0.024044	0.012479	1.000000	-0.000046	0.000009	0.000019	-1.929718	-8.525989	51.688797
60203	1.444517	-0.318240	9.693437	-0.012470	-0.001820	-0.007052	1.000000	-0.000033	0.000022	0.000007	-1.927564	-8.525618	51.686793
60204	1.486729	-0.352494	9.686636	0.041153	0.010135	-0.006376	1.000000	-0.000047	0.000017	0.000012	-1.927224	-8.525637	51.685837
60205	1.443700	-0.315402	9.669488	-0.012250	0.001418	-0.030940	1.000000	-0.000046	0.000002	0.000025	-1.927350	-8.527176	51.687788
60206	1.443786	-0.325451	9.717473	-0.009887	-0.009389	0.016836	1.000000	-0.000037	0.000038	0.000015	-1.926003	-8.524778	51.687066
60207	1.442761	-0.317126	9.669571	-0.011121	-0.000354	-0.030938	1.000000	-0.000045	0.000017	0.000026	-1.925723	-8.524796	51.687715
60208	1.471920	-0.308750	9.720789	-0.005759	0.022530	0.023729	1.000000	-0.000039	0.000015	0.000020	-1.924623	-8.524952	51.687618
60209	1.442584	-0.328072	9.717564	-0.008160	-0.011990	0.016835	1.000000	-0.000045	0.000017	0.000026	-1.924463	-8.524538	51.682640
60210	1.465842	-0.329567	9.692409	0.010192	0.007601	-0.004530	1.000000	-0.000059	0.000020	0.000026	-1.925769	-8.524206	51.683212
60211	1.441562	-0.321192	9.669616	-0.008805	-0.003795	-0.030937	1.000000	-0.000060	-0.000003	0.000030	-1.927282	-8.526223	51.679111
60212	1.470514	-0.308443	9.696854	-0.004328	0.024043	-0.000148	1.000000	-0.000045	0.000032	0.000014	-1.926796	-8.524524	51.678278
60213	1.416805	-0.318041	9.670883	-0.026397	-0.021060	-0.033458	1.000000	-0.000031	0.000029	0.000015	-1.924929	-8.523231	51.683243
60214	1.445478	-0.300547	9.674163	-0.022826	0.011752	-0.026549	1.000000	-0.000060	0.000005	0.000024	-1.926378	-8.524613	51.683690
60215	1.464322	-0.334853	9.692458	0.013022	0.003213	-0.004531	1.000000	-0.000060	0.000005	0.000024	-1.927851	-8.525952	51.683512
60216	1.445010	-0.302858	9.674161	-0.021692	0.009995	-0.026544	1.000000	-0.000045	0.000032	0.000014	-1.927364	-8.524252	51.682679
60217	1.439365	-0.327295	9.669739	-0.005421	-0.009043	-0.030938	1.000000	-0.000053	0.000018	0.000019	-1.927856	-8.523848	51.677536
