// Start Time: Unknown
// Update Rate: 100.0Hz
// Filter Profile: human (46.1)
// Firmware Version: 4.4.0
PacketCounter	Acc_X	Acc_Y	Acc_Z	FreeAcc_X	FreeAcc_Y	FreeAcc_Z	OriInc_q0	OriInc_q1	OriInc_q2	OriInc_q3	Roll	Pitch	Yaw
03410	9.575884	-0.511858	-2.271356	0.000000	0.000000	0.042190	1.000000	0.000000	0.000015	0.000035	-167.309233	-76.333663	157.820000
03411	9.580404	-0.496176	-2.288646	0.033867	0.009543	0.049715	1.000000	-0.000008	0.000016	0.000035	-167.230487	-76.426409	157.834851
03412	9.575992	-0.513059	-2.270632	0.015179	-0.004240	0.042178	1.000000	-0.000015	0.000030	0.000028	-167.215967	-76.429089	157.818185
03413	9.600059	-0.517096	-2.267182	0.006483	-0.005001	0.064993	1.000000	0.000009	0.000018	0.000043	-167.194257	-76.429849	157.797214
03414	9.575708	-0.532127	-2.286417	0.028250	-0.024403	0.046504	1.000000	-0.000023	0.000028	0.000021	-167.184436	-76.432442	157.784398
03415	9.575820	-0.532666	-2.285822	0.028241	-0.024396	0.046504	1.000000	-0.000006	0.000036	0.000043	-167.161534	-76.435299	157.760107
03416	9.580409	-0.517014	-2.302848	0.046929	-0.010613	0.054041	1.000000	-0.000007	0.000023	0.000032	-167.145295	-76.437041	157.742560
03417	9.571488	-0.550253	-2.267258	0.009512	-0.038158	0.038966	1.000000	-0.000007	0.000023	0.000032	-167.128947	-76.438517	157.724906
03418	9.595981	-0.536446	-2.247128	-0.012255	-0.018756	0.057455	1.000000	-0.000007	0.000026	0.000039	-167.109111	-76.440418	157.703668
03419	9.547644	-0.548195	-2.269311	0.018134	-0.037369	0.016152	1.000000	-0.000015	0.000026	0.000038	-167.089509	-76.442071	157.681743
03420	9.590754	-0.589926	-2.261958	-0.004766	-0.072760	0.058570	1.000000	0.000001	0.000021	0.000049	-167.064382	-76.443194	157.655957
03421	9.566852	-0.587222	-2.264405	0.003846	-0.071890	0.035756	1.000000	-0.000014	0.000037	0.000025	-167.047705	-76.446166	157.637316
03422	9.595901	-0.557033	-2.261647	0.000767	-0.038704	0.061782	1.000000	0.000010	0.000032	0.000037	-167.026155	-76.448760	157.616359
03423	9.600472	-0.541256	-2.278826	0.019405	-0.024688	0.069320	1.000000	-0.000008	0.000010	0.000021	-167.011668	-76.448535	157.600781
03424	9.547591	-0.569056	-2.283659	0.031144	-0.057140	0.020480	1.000000	0.000001	0.000019	0.000025	-166.997859	-76.450029	157.586702
03425	9.596067	-0.558518	-2.260574	0.000616	-0.038161	0.061784	1.000000	-0.000015	0.000023	0.000031	-166.976552	-76.450607	157.563314
03426	9.591620	-0.575334	-2.242596	-0.018072	-0.051945	0.054247	1.000000	-0.000007	0.000020	0.000025	-166.963861	-76.452177	157.549410
03427	9.596178	-0.559468	-2.259869	0.000538	-0.037756	0.061786	1.000000	-0.000008	0.000013	0.000028	-166.942073	-76.451575	157.526540
03428	9.576340	-0.558049	-2.296728	0.040994	-0.043376	0.050836	1.000000	-0.000015	0.000030	0.000028	-166.927463	-76.454236	157.509785
03429	9.596800	-0.542573	-2.242157	-0.012698	-0.017124	0.057458	1.000000	-0.000014	0.000037	0.000025	-166.903294	-76.455960	157.483854
03430	9.596489	-0.560983	-2.258174	0.000409	-0.037261	0.061788	1.000000	0.000010	0.000032	0.000037	-166.881699	-76.458540	157.462852
03431	9.573011	-0.540194	-2.244072	-0.004136	-0.015848	0.034644	1.000000	-0.000016	0.000014	0.000010	-166.865750	-76.458128	157.445288
03432	9.548240	-0.572830	-2.280002	0.030740	-0.055391	0.020492	1.000000	-0.000006	0.000033	0.000036	-166.846391	-76.460864	157.424634
03433	9.573199	-0.541145	-2.243040	-0.004288	-0.015217	0.034645	1.000000	-0.000015	0.000030	0.000028	-166.818734	-76.461284	157.395200
03434	9.601799	-0.528649	-2.257126	0.005738	-0.002160	0.064994	1.000000	-0.000015	0.000020	0.000024	-166.807143	-76.462921	157.381452
03435	9.573352	-0.542037	-2.242169	-0.004415	-0.014596	0.034646	1.000000	-0.000015	0.000023	0.000031	-166.778911	-76.462648	157.351344
03436	9.601936	-0.529593	-2.256321	0.005611	-0.001538	0.064994	1.000000	-0.000007	0.000020	0.000025	-166.766184	-76.464207	157.337404
03437	9.573463	-0.542985	-2.241465	-0.004545	-0.013982	0.034647	1.000000	-0.000008	0.000013	0.000028	-166.740070	-76.462833	157.310391
03438	9.582572	-0.510741	-2.276332	0.032830	0.013591	0.049714	1.000000	0.000001	0.000016	0.000018	-166.729815	-76.464156	157.299962
03439	9.577665	-0.545359	-2.275072	0.027042	-0.019733	0.046518	1.000000	-0.000007	0.000023	0.000032	-166.701768	-76.463403	157.270812
03440	9.579048	-0.492304	-2.224594	-0.012280	0.040674	0.033507	1.000000	-0.000007	0.000024	0.000015	-166.693185	-76.465652	157.261219
03441	9.602204	-0.531692	-2.254687	0.005009	0.000214	0.064995	1.000000	-0.000009	0.000003	0.000024	-166.673266	-76.462720	157.240123
03442	9.573704	-0.545061	-2.239934	-0.005019	-0.012850	0.034648	1.000000	0.000001	0.000019	0.000025	-166.659441	-76.464176	157.226033
03443	9.582818	-0.513046	-2.274778	0.032214	0.015213	0.049714	1.000000	-0.000009	0.000012	0.000045	-166.628613	-76.462473	157.194005
03444	9.583271	-0.495789	-2.257897	0.019105	0.035347	0.045374	1.000000	-0.000016	0.000010	0.000020	-166.620089	-76.463082	157.183317
03445	9.582923	-0.514157	-2.274081	0.031962	0.015576	0.049714	1.000000	0.000003	0.000042	0.000040	-166.590569	-76.464576	157.154030
03446	9.607414	-0.500331	-2.253943	0.010190	0.034988	0.068187	1.000000	-0.000017	0.000003	0.000023	-166.581519	-76.464332	157.142720
03447	9.583056	-0.515217	-2.273283	0.031593	0.015842	0.049715	1.000000	0.000019	0.000035	0.000027	-166.560340	-76.464932	157.123671
03448	9.582720	-0.533630	-2.289404	0.044697	-0.004295	0.054056	1.000000	-0.000007	0.000023	0.000032	-166.544052	-76.466620	157.106103
03449	9.583231	-0.516450	-2.272263	0.031225	0.016044	0.049716	1.000000	-0.000007	0.000026	0.000039	-166.522959	-76.466066	157.084183
03450	9.574217	-0.549820	-2.236577	-0.006148	-0.011536	0.034649	1.000000	0.000002	0.000032	0.000036	-166.502466	-76.468691	157.063377
03451	9.606972	-0.538949	-2.284796	0.035253	-0.004626	0.076873	1.000000	-0.000006	0.000027	0.000022	-166.489947	-76.468469	157.050241
03452	9.554524	-0.549087	-2.272839	0.033899	-0.016978	0.023714	1.000000	0.000001	0.000021	0.000049	-166.464804	-76.469528	157.024486
03453	9.578553	-0.553166	-2.269445	0.024700	-0.017444	0.046528	1.000000	0.000001	0.000016	0.000018	-166.453837	-76.467403	157.012513
03454	9.554622	-0.550242	-2.272147	0.033365	-0.016726	0.023716	1.000000	-0.000024	0.000020	0.000041	-166.435656	-76.468535	156.990964
03455	9.603082	-0.539979	-2.248970	0.002332	0.002223	0.064996	1.000000	-0.000007	0.000026	0.000039	-166.415653	-76.466636	156.969866
03456	9.549731	-0.585745	-2.270455	0.027193	-0.050399	0.020529	1.000000	-0.000008	0.000016	0.000035	-166.398852	-76.467445	156.951686
03457	9.602762	-0.559068	-2.264832	0.014939	-0.017592	0.069343	1.000000	0.000002	0.000029	0.000029	-166.379302	-76.466553	156.931491
03458	9.602387	-0.577486	-2.281087	0.028042	-0.037728	0.073690	1.000000	-0.000008	0.000016	0.000035	-166.362462	-76.467372	156.913263
03459	9.578439	-0.574697	-2.283833	0.036161	-0.036637	0.050883	1.000000	0.000000	0.000015	0.000035	-166.341267	-76.464327	156.891523
03460	9.594222	-0.575786	-2.211871	-0.036091	-0.024667	0.049923	1.000000	0.000002	0.000029	0.000029	-166.324324	-76.466783	156.874347
03461	9.587702	-0.543258	-2.318169	0.072913	-0.008612	0.065960	1.000000	-0.000017	0.000009	0.000037	-166.303834	-76.462516	156.851168
03462	9.550902	-0.553731	-2.234957	-0.000680	-0.008998	0.011838	1.000000	-0.000008	0.000013	0.000028	-166.290608	-76.463167	156.836640
03463	9.588229	-0.526534	-2.300885	0.059176	0.011916	0.061613	1.000000	0.000002	0.000029	0.000029	-166.270767	-76.461376	156.817412
03464	9.598999	-0.561636	-2.228005	-0.018658	-0.010039	0.057458	1.000000	-0.000015	0.000020	0.000024	-166.259201	-76.462964	156.803722
03465	9.592961	-0.511121	-2.317606	0.077451	0.026059	0.069153	1.000000	0.000001	0.000019	0.000025	-166.241145	-76.461476	156.785845
03466	9.551187	-0.555654	-2.233259	-0.001711	-0.008259	0.011838	1.000000	-0.000015	0.000030	0.000028	-166.226453	-76.464084	156.769042
03467	9.583524	-0.562534	-2.298235	0.052599	-0.021350	0.058435	1.000000	-0.000007	0.000020	0.000025	-166.212424	-76.461754	156.754001
03468	9.579914	-0.543688	-2.246835	0.007704	0.005123	0.042186	1.000000	-0.000015	0.000030	0.000028	-166.197731	-76.464355	156.737198
03469	9.579526	-0.562010	-2.263156	0.020022	-0.014733	0.046543	1.000000	-0.000034	0.000011	0.000036	-166.185151	-76.459709	156.721338
03470	9.579578	-0.562472	-2.262820	0.020017	-0.014737	0.046543	1.000000	-0.000006	0.000027	0.000022	-166.172982	-76.462079	156.708116
03471	9.584702	-0.528849	-2.263191	0.024648	0.019553	0.049728	1.000000	-0.000015	0.000026	0.000038	-166.155086	-76.458044	156.686588
03472	9.584311	-0.547332	-2.279488	0.037741	-0.000582	0.054086	1.000000	0.000000	0.000015	0.000035	-166.137223	-76.458718	156.668290
03473	9.556222	-0.543040	-2.248003	0.013893	0.006723	0.019380	1.000000	-0.000008	0.000016	0.000035	-166.121960	-76.454956	156.652007
03474	9.588992	-0.532254	-2.296388	0.055660	0.013459	0.061631	1.000000	-0.000007	0.000023	0.000032	-166.105755	-76.456554	156.634536
03475	9.565070	-0.529298	-2.299108	0.063788	0.014385	0.038828	1.000000	-0.000016	0.000013	0.000027	-166.094144	-76.453853	156.620351
03476	9.560965	-0.528305	-2.264562	0.031993	0.020723	0.026924	1.000000	0.000009	0.000019	0.000026	-166.079269	-76.455152	156.606185
03477	9.589619	-0.515852	-2.278622	0.040921	0.034002	0.057277	1.000000	-0.000023	0.000028	0.000021	-166.075240	-76.451501	156.597773
03478	9.584614	-0.550371	-2.277482	0.035326	0.000076	0.054095	1.000000	-0.000001	0.000002	0.000024	-166.064141	-76.450978	156.586305
03479	9.589715	-0.516761	-2.278012	0.040047	0.034063	0.057280	1.000000	-0.000015	0.000033	0.000035	-166.052851	-76.449013	156.573998
03480	9.585204	-0.533776	-2.259903	0.021345	0.020268	0.049734	1.000000	0.000001	0.000025	0.000039	-166.031996	-76.450619	156.552719
03481	9.585272	-0.534374	-2.259475	0.020387	0.020221	0.049736	1.000000	-0.000007	0.000020	0.000025	-166.029819	-76.447133	156.551811
03482	9.585338	-0.534881	-2.259075	0.020360	0.020217	0.049736	1.000000	-0.000007	0.000023	0.000032	-166.013781	-76.448659	156.534534
03483	9.566066	-0.515620	-2.279192	0.046677	0.034716	0.034486	1.000000	-0.000006	0.000030	0.000029	-166.008435	-76.445551	156.527473
03484	9.609478	-0.539387	-2.255046	0.010582	0.019496	0.072541	1.000000	-0.000007	0.000020	0.000025	-165.996055	-76.446901	156.513946
03485	9.561625	-0.532976	-2.260678	0.027688	0.020722	0.026937	1.000000	-0.000006	0.000033	0.000036	-165.983806	-76.448592	156.504147
03486	9.590284	-0.520651	-2.274731	0.037646	0.033796	0.057291	1.000000	-0.000025	0.000014	0.000027	-165.973146	-76.449305	156.490392
03487	9.581139	-0.553792	-2.239131	-0.000041	0.006035	0.042189	1.000000	-0.000014	0.000040	0.000032	-165.962447	-76.451551	156.478951
03488	9.589587	-0.557378	-2.306992	0.063502	-0.006645	0.066027	1.000000	-0.000007	0.000026	0.000039	-165.942761	-76.453293	156.457993
03489	9.585941	-0.538734	-2.255597	0.017553	0.019713	0.049743	1.000000	-0.000007	0.000023	0.000032	-165.939423	-76.449490	156.453054
03490	9.580915	-0.573476	-2.254382	0.011963	-0.014221	0.046557	1.000000	-0.000008	0.000016	0.000035	-165.922913	-76.450197	156.435258
03491	9.586022	-0.539921	-2.254970	0.016306	0.019534	0.049745	1.000000	0.000000	0.000012	0.000028	-165.924655	-76.444586	156.438406
03492	9.562064	-0.536974	-2.257874	0.024975	0.020239	0.026945	1.000000	-0.000009	0.000006	0.000031	-165.911414	-76.444236	156.423889
03493	9.605376	-0.560857	-2.234016	-0.011742	0.004851	0.064988	1.000000	0.000009	0.000012	0.000029	-165.906001	-76.441671	156.419811
03494	9.585161	-0.577277	-2.287730	0.041808	-0.020910	0.058487	1.000000	-0.000024	0.000020	0.000041	-165.888304	-76.442625	156.398879
03495	9.585675	-0.560182	-2.270614	0.028538	-0.000840	0.054117	1.000000	0.000001	0.000025	0.000039	-165.870023	-76.443638	156.378529
03496	9.580781	-0.574075	-2.826947	0.563022	-0.100069	0.176584	1.000000	0.000038	0.000051	0.000029	-165.846774	-76.448354	156.359170
03497	9.602097	-0.506501	-1.364615	-0.836393	0.194117	-0.138921	1.000000	0.000023	-0.000007	0.000029	-165.841498	-76.442639	156.357834
03498	9.582574	-0.583597	-2.459479	0.208352	-0.052020	0.095351	1.000000	-0.000124	0.000107	0.000025	-165.832249	-76.453726	156.333872
03499	9.611940	-0.553392	-2.455955	0.204517	-0.018961	0.121353	1.000000	0.000027	0.000033	0.000045	-165.815001	-76.452838	156.319518
03500	9.499078	-0.551925	-2.347045	0.125325	-0.010902	-0.013202	1.000000	-0.000019	0.000069	0.000020	-165.800574	-76.459838	156.302616
03501	9.642245	-0.550046	-2.102701	-0.140453	0.042122	0.070393	1.000000	-0.000001	-0.000004	0.000010	-165.809648	-76.453503	156.311322
03502	9.526676	-0.534300	-2.152061	-0.065171	0.039357	-0.031655	1.000000	-0.000014	0.000037	0.000025	-165.795856	-76.456808	156.295662
03503	9.591549	-0.547640	-2.282045	0.043687	0.012399	0.061693	1.000000	-0.000021	0.000048	0.000029	-165.792011	-76.457422	156.289954
03504	9.579468	-0.525836	-2.162257	-0.064769	0.051516	0.021499	1.000000	-0.000001	-0.000008	0.000020	-165.784485	-76.455814	156.282204
03505	9.580632	-0.531489	-2.370995	0.133294	0.013975	0.070361	1.000000	-0.000027	-0.000013	0.000021	-165.798076	-76.447536	156.294589
03506	9.599557	-0.510813	-2.108630	-0.119680	0.076978	0.027968	1.000000	-0.000001	-0.000005	0.000027	-165.787136	-76.445990	156.283354
03507	9.575906	-0.548740	-2.353538	0.113653	-0.000138	0.062803	1.000000	-0.000024	0.000017	0.000034	-165.788754	-76.442720	156.283915
03508	9.621511	-0.483573	-2.245981	0.011971	0.085253	0.078943	1.000000	-0.000007	0.000020	0.000025	-165.776876	-76.443935	156.271048
03509	9.604595	-0.536874	-2.367479	0.123150	0.012535	0.093175	1.000000	-0.000026	0.000000	0.000033	-165.777818	-76.441903	156.272463
03510	9.587772	-0.531439	-2.230514	-0.003986	0.037833	0.045383	1.000000	-0.000017	0.000003	0.000023	-165.769762	-76.441352	156.262389
03511	9.629516	-0.505685	-2.330603	0.087909	0.051899	0.107222	1.000000	0.000011	0.000036	0.000027	-165.757797	-76.443556	156.247212
03512	9.587510	-0.550171	-2.246148	0.008812	0.017543	0.049758	1.000000	-0.000022	0.000038	0.000025	-165.745457	-76.446817	156.232116
03513	9.552332	-0.547974	-2.354417	0.121330	-0.000537	0.040022	1.000000	-0.000006	0.000030	0.000029	-165.744133	-76.449450	156.236864
03514	9.564697	-0.512176	-2.214582	-0.008961	0.057956	0.018217	1.000000	0.000002	0.000035	0.000043	-165.720776	-76.451921	156.213350
03515	9.588314	-0.534266	-2.227507	-0.005580	0.036795	0.045386	1.000000	-0.000023	0.000037	0.000042	-165.717049	-76.450184	156.205885
03516	9.573353	-0.516457	-2.281749	0.053509	0.044972	0.042124	1.000000	-0.000015	0.000030	0.000028	-165.703220	-76.452498	156.190198
03517	9.572979	-0.534850	-2.297960	0.065875	0.024272	0.046506	1.000000	0.000018	0.000021	0.000033	-165.704138	-76.451320	156.199684
03518	9.579179	-0.568703	-2.191088	-0.043758	0.008566	0.030228	1.000000	-0.000001	0.000002	0.000024	-165.693992	-76.450609	156.189493
03519	9.564633	-0.532946	-2.228885	0.001833	0.036579	0.022597	1.000000	-0.000014	0.000037	0.000025	-165.691260	-76.452418	156.184158
03520	9.597126	-0.539861	-2.293721	0.056583	0.023180	0.069301	1.000000	0.000001	0.000019	0.000025	-165.678436	-76.453565	156.171407
03521	9.597631	-0.522553	-2.276714	0.041741	0.042945	0.064935	1.000000	-0.000008	0.000013	0.000028	-165.690822	-76.445751	156.181789
03522	9.564803	-0.534381	-2.227813	-0.000033	0.036173	0.022599	1.000000	-0.000008	0.000013	0.000028	-165.678853	-76.446018	156.168842
03523	9.564371	-0.552648	-2.244281	0.012762	0.015504	0.026977	1.000000	-0.000016	0.000013	0.000027	-165.682215	-76.446377	156.175744
03524	9.578026	-0.521951	-2.313179	0.081757	0.036762	0.054114	1.000000	0.000002	0.000029	0.000029	-165.666495	-76.448441	156.160158
03525	9.572968	-0.556629	-2.311858	0.075702	0.002457	0.050907	1.000000	-0.000015	0.000023	0.000031	-165.664909	-76.448325	156.157002
03526	9.593651	-0.523603	-2.240866	0.008908	0.048268	0.052979	1.000000	-0.000001	0.000002	0.000024	-165.655005	-76.447535	156.147099
03527	9.568796	-0.556198	-2.277153	0.041986	0.008399	0.038952	1.000000	0.000001	0.000022	0.000032	-165.664410	-76.439840	156.155108
03528	9.597511	-0.544072	-2.291116	0.051807	0.021443	0.069332	1.000000	-0.000007	0.000026	0.000039	-165.645931	-76.441162	156.135615
03529	9.569420	-0.539656	-2.259463	0.027923	0.028102	0.034578	1.000000	-0.000015	0.000030	0.000028	-165.648686	-76.440103	156.137933
03530	9.573703	-0.541696	-2.293335	0.059584	0.021755	0.046552	1.000000	-0.000009	0.000009	0.000038	-165.632932	-76.439549	156.121052
03531	9.584550	-0.559252	-2.203863	-0.032381	0.019558	0.037792	1.000000	-0.000006	0.000030	0.000029	-165.634433	-76.437088	156.120108
03532	9.593083	-0.562729	-2.271903	0.031032	0.006889	0.061746	1.000000	-0.000016	0.000016	0.000034	-165.620318	-76.437439	156.104018
03533	9.569165	-0.559668	-2.274747	0.038888	0.007074	0.038966	1.000000	-0.000025	0.000014	0.000027	-165.630830	-76.434835	156.117678
03534	9.569218	-0.560129	-2.274412	0.038776	0.007044	0.038966	1.000000	-0.000015	0.000023	0.000031	-165.617307	-76.436024	156.102334
03535	9.584765	-0.561337	-2.202398	-0.033769	0.018719	0.037789	1.000000	0.000001	0.000022	0.000032	-165.607620	-76.436601	156.090429
03536	9.569318	-0.561354	-2.273690	0.038383	0.006791	0.038968	1.000000	-0.000009	0.000009	0.000038	-165.591973	-76.436005	156.073669
03537	9.598007	-0.549113	-2.287831	0.047787	0.019410	0.069356	1.000000	-0.000015	0.000020	0.000024	-165.595495	-76.435998	156.079146
03538	9.574107	-0.546065	-2.290614	0.056421	0.020120	0.046574	1.000000	-0.000008	0.000016	0.000035	-165.580361	-76.436264	156.063034
03539	9.569496	-0.562784	-2.272586	0.036906	0.005726	0.038974	1.000000	-0.000005	0.000038	0.000009	-165.594859	-76.436959	156.085322
03540	9.579014	-0.530525	-2.307128	0.074077	0.033309	0.054187	1.000000	0.000000	0.000015	0.000035	-165.578736	-76.437129	156.069223
03541	9.598790	-0.533111	-2.269372	0.032237	0.038296	0.064990	1.000000	-0.000023	0.000028	0.000021	-165.595387	-76.433930	156.091034
03542	9.598916	-0.533308	-2.268789	0.032114	0.038258	0.064991	1.000000	0.000012	0.000033	0.000003	-165.591000	-76.436999	156.088382
03543	9.599493	-0.515855	-2.251536	0.018945	0.058027	0.060613	1.000000	-0.000007	0.000023	0.000032	-165.582901	-76.439230	156.080538
03544	9.575613	-0.512866	-2.254230	0.027577	0.058735	0.037833	1.000000	-0.000007	0.000023	0.000032	-165.568499	-76.440330	156.065384
03545	9.594927	-0.533246	-2.233116	-0.001392	0.043875	0.053004	1.000000	-0.000006	0.000027	0.000022	-165.578950	-76.434919	156.073559
03546	9.575784	-0.513802	-2.253294	0.025867	0.058396	0.037839	1.000000	-0.000015	0.000023	0.000031	-165.565787	-76.436030	156.058690
03547	9.571598	-0.512829	-2.218659	-0.006962	0.063744	0.025850	1.000000	-0.000007	0.000020	0.000025	-165.585521	-76.434153	156.094270
03548	9.575451	-0.532467	-2.269231	0.037782	0.037286	0.042229	1.000000	-0.000024	0.000021	0.000024	-165.577340	-76.435193	156.083647
03549	9.552028	-0.511659	-2.255282	0.032713	0.057548	0.015077	1.000000	-0.000008	0.000019	0.000042	-165.577731	-76.433839	156.088994
03550	9.599511	-0.537239	-2.265342	0.028187	0.035876	0.065011	1.000000	-0.000015	0.000023	0.000031	-165.564921	-76.434924	156.074636
03551	9.575600	-0.534269	-2.268177	0.036446	0.036069	0.042238	1.000000	-0.000009	0.000009	0.000038	-165.565408	-76.433532	156.077513
03552	9.571354	-0.533403	-2.233747	0.004548	0.042310	0.030237	1.000000	-0.000008	0.000013	0.000028	-165.554690	-76.433537	156.066210
03553	9.579925	-0.536843	-2.301878	0.066858	0.029320	0.054251	1.000000	-0.000007	0.000023	0.000032	-165.559581	-76.429689	156.069649
03554	9.600132	-0.521692	-2.247462	0.013063	0.054914	0.060640	1.000000	-0.000016	0.000013	0.000027	-165.550078	-76.429731	156.058618
03555	9.575275	-0.554224	-2.283761	0.046861	0.014959	0.046633	1.000000	-0.000008	0.000016	0.000035	-165.556724	-76.425144	156.067659
03556	9.575821	-0.537170	-2.266558	0.033573	0.035017	0.042252	1.000000	0.000002	0.000035	0.000043	-165.535186	-76.427106	156.046429
03557	9.575873	-0.537771	-2.266196	0.034113	0.034789	0.042251	1.000000	-0.000017	0.000003	0.000023	-165.525720	-76.430261	156.029833
03558	9.579736	-0.557584	-2.316716	0.078849	0.008334	0.058642	1.000000	0.000003	0.000042	0.000040	-165.504477	-76.433135	156.008983
03559	9.576065	-0.538931	-2.265109	0.032787	0.034123	0.042258	1.000000	-0.000006	0.000027	0.000022	-165.518083	-76.430666	156.027121
03560	9.575693	-0.557170	-2.281292	0.045763	0.013959	0.046640	1.000000	-0.000006	0.000030	0.000029	-165.504866	-76.432455	156.013472
03561	9.576251	-0.539955	-2.264079	0.031453	0.033743	0.042264	1.000000	0.000001	0.000022	0.000032	-165.506616	-76.428459	156.014008
03562	9.552371	-0.536918	-2.266825	0.040061	0.034454	0.019493	1.000000	0.000001	0.000019	0.000025	-165.495485	-76.429128	156.003361
03563	9.600324	-0.544702	-2.260111	0.021093	0.032856	0.065040	1.000000	-0.000007	0.000026	0.000039	-165.491344	-76.423388	155.989180
03564	9.547768	-0.554351	-2.248421	0.019847	0.020515	0.011861	1.000000	0.000002	0.000023	0.000015	-165.484290	-76.424718	155.982756
03565	9.548296	-0.537006	-2.231367	0.006190	0.040072	0.007480	1.000000	0.000009	0.000012	0.000029	-165.486747	-76.423704	155.991484
03566	9.576101	-0.560328	-2.278801	0.042120	0.012853	0.046657	1.000000	-0.000006	0.000027	0.000022	-165.477265	-76.425256	155.981625
03567	9.595858	-0.562859	-2.240919	0.000592	0.018412	0.057403	1.000000	-0.000006	0.000027	0.000022	-165.474176	-76.422133	155.967288
03568	9.581028	-0.544931	-2.295376	0.059558	0.026652	0.054305	1.000000	-0.000016	0.000019	0.000041	-165.457645	-76.422280	155.948962
03569	9.571542	-0.578110	-2.260088	0.020127	-0.001412	0.039024	1.000000	-0.000016	0.000010	0.000020	-165.481074	-76.412142	155.971702
03570	9.581075	-0.545847	-2.294965	0.057166	0.026178	0.054321	1.000000	-0.000017	0.000006	0.000030	-165.471506	-76.411064	155.960424
03571	9.600724	-0.548523	-2.257483	0.016031	0.030615	0.065056	1.000000	-0.000009	0.000006	0.000031	-165.488701	-76.410273	155.998106
03572	9.580607	-0.564715	-2.311383	0.069497	0.004942	0.058714	1.000000	-0.000016	0.000016	0.000034	-165.476187	-76.410204	155.984019
03573	9.581655	-0.529648	-2.277442	0.040944	0.044865	0.049954	1.000000	-0.000014	0.000037	0.000025	-165.491518	-76.402084	155.995795
03574	9.557301	-0.544262	-2.296944	0.062651	0.025476	0.031580	1.000000	-0.000001	0.000002	0.000024	-165.483680	-76.400617	155.988336
03575	9.576523	-0.564806	-2.275923	0.034920	0.010152	0.046689	1.000000	-0.000014	0.000036	0.000042	-165.481603	-76.403464	155.996545
03576	9.557907	-0.527604	-2.279430	0.048966	0.044804	0.027198	1.000000	-0.000016	0.000010	0.000020	-165.476541	-76.403046	155.990146
03577	9.573309	-0.528741	-2.207512	-0.024903	0.056177	0.025867	1.000000	-0.000015	0.000023	0.000031	-165.486457	-76.397185	155.999100
03578	9.558030	-0.528546	-2.278692	0.047150	0.044345	0.027209	1.000000	-0.000015	0.000023	0.000031	-165.474777	-76.397839	155.986010
03579	9.582072	-0.532590	-2.275000	0.037545	0.043004	0.049975	1.000000	-0.000005	0.000034	0.000019	-165.483823	-76.398112	156.000854
03580	9.597053	-0.551501	-2.219506	-0.021823	0.034600	0.053017	1.000000	-0.000015	0.000030	0.000028	-165.472676	-76.399615	155.988439
03581	9.610981	-0.520711	-2.288334	0.045944	0.056047	0.080407	1.000000	-0.000024	0.000014	0.000027	-165.472051	-76.393948	155.974094
03582	9.577493	-0.550192	-2.256347	0.017307	0.029113	0.042314	1.000000	-0.000001	0.000002	0.000024	-165.464470	-76.392387	155.966924
03583	9.558867	-0.513014	-2.259954	0.029441	0.062874	0.022845	1.000000	-0.000006	0.000033	0.000036	-165.488268	-76.385961	156.005627
03584	9.587656	-0.500899	-2.273866	0.038978	0.075859	0.053277	1.000000	0.000000	0.000012	0.000028	-165.477850	-76.385324	155.995724
03585	9.577669	-0.551880	-2.255190	0.013602	0.027073	0.042325	1.000000	-0.000006	0.000030	0.000029	-165.498427	-76.383185	156.031530
03586	9.582544	-0.536068	-2.272193	0.031932	0.040841	0.050004	1.000000	-0.000015	0.000023	0.000031	-165.487352	-76.383682	156.019197
03587	9.587407	-0.520260	-2.289260	0.049637	0.054281	0.057690	1.000000	-0.000015	0.000023	0.000031	-165.489982	-76.381620	156.019693
03588	9.583171	-0.519485	-2.254577	0.017637	0.060469	0.045617	1.000000	0.000010	0.000025	0.000040	-165.471993	-76.381978	156.003184
03589	9.582772	-0.537858	-2.270809	0.030531	0.039830	0.050013	1.000000	-0.000006	0.000027	0.000022	-165.474449	-76.384302	156.009192
03590	9.587614	-0.522081	-2.287977	0.048856	0.053597	0.057697	1.000000	-0.000000	0.000008	0.000038	-165.460296	-76.382905	155.995475
03591	9.577613	-0.573238	-2.269218	0.023783	0.005640	0.046725	1.000000	-0.000014	0.000043	0.000039	-165.453289	-76.381415	155.980598
03592	9.578689	-0.538341	-2.235142	-0.002777	0.045764	0.037940	1.000000	0.000001	0.000022	0.000032	-165.440042	-76.381704	155.967973
03593	9.582590	-0.558134	-2.285666	0.041198	0.019043	0.054417	1.000000	-0.000015	0.000023	0.000031	-165.442141	-76.379456	155.969306
03594	9.583145	-0.540909	-2.268507	0.027780	0.039069	0.050024	1.000000	-0.000007	0.000023	0.000032	-165.430051	-76.379810	155.956891
03595	9.578408	-0.557727	-2.250609	0.009188	0.024830	0.042336	1.000000	-0.000015	0.000020	0.000024	-165.427410	-76.382310	155.952443
03596	9.583268	-0.542062	-2.267714	0.027507	0.038599	0.050027	1.000000	0.000001	0.000021	0.000049	-165.406526	-76.382011	155.931883
03597	9.582852	-0.560504	-2.283985	0.040798	0.018044	0.054420	1.000000	-0.000006	0.000027	0.000022	-165.403070	-76.386241	155.931101
03598	9.578572	-0.559438	-2.249485	0.008805	0.024226	0.042338	1.000000	-0.000017	0.000003	0.000023	-165.398332	-76.384747	155.925080
03599	9.583916	-0.525772	-2.249945	0.012950	0.057771	0.045641	1.000000	-0.000006	0.000030	0.000029	-165.404228	-76.381304	155.932566
03600	9.583516	-0.544094	-2.266178	0.025833	0.037603	0.050035	1.000000	-0.000007	0.000023	0.000032	-165.392143	-76.381677	155.920173
03601	9.602719	-0.564694	-2.244979	-0.002711	0.022333	0.065091	1.000000	-0.000006	0.000033	0.000036	-165.398207	-76.379726	155.933207
03602	9.554914	-0.558039	-2.250947	0.014671	0.023866	0.019595	1.000000	-0.000017	0.000009	0.000037	-165.386470	-76.378439	155.920032
03603	9.583727	-0.545748	-2.264886	0.023779	0.035961	0.050046	1.000000	-0.000014	0.000031	0.000011	-165.407213	-76.380521	155.957776
03604	9.583813	-0.546296	-2.264389	0.023505	0.035881	0.050047	1.000000	0.000001	0.000021	0.000049	-165.386619	-76.380198	155.937631
03605	9.588707	-0.530628	-2.281423	0.040899	0.049091	0.057757	1.000000	-0.000006	0.000027	0.000022	-165.400668	-76.377826	155.956419
03606	9.559533	-0.561470	-2.283475	0.044044	0.015882	0.031701	1.000000	-0.000024	0.000014	0.000027	-165.394354	-76.377330	155.948042
03607	9.580154	-0.528634	-2.212266	-0.023271	0.060897	0.033564	1.000000	-0.000007	0.000023	0.000032	-165.395213	-76.378092	155.954416
03608	9.588894	-0.532014	-2.280311	0.039911	0.048351	0.057765	1.000000	-0.000007	0.000020	0.000025	-165.387138	-76.378293	155.946302
03609	9.555371	-0.561487	-2.248150	0.009670	0.021692	0.019606	1.000000	0.000001	0.000019	0.000025	-165.387485	-76.368655	155.924567
03610	9.589019	-0.532942	-2.279572	0.037676	0.048498	0.057773	1.000000	-0.000007	0.000020	0.000025	-165.379422	-76.368773	155.916381
03611	9.560822	-0.528509	-2.248081	0.013594	0.054329	0.022930	1.000000	0.000001	0.000028	0.000046	-165.394461	-76.367257	155.957449
03612	9.584793	-0.532640	-2.244588	0.004453	0.053422	0.045673	1.000000	-0.000016	0.000004	0.000006	-165.398086	-76.366187	155.960291
03613	9.584385	-0.550775	-2.260880	0.015676	0.032760	0.050074	1.000000	-0.000013	0.000043	0.000039	-165.409236	-76.360889	155.974839
03614	9.565401	-0.531294	-2.280996	0.042769	0.047352	0.035056	1.000000	0.000001	0.000016	0.000018	-165.404039	-76.360715	155.970690
03615	9.589861	-0.517592	-2.260794	0.019762	0.066189	0.053403	1.000000	-0.000016	0.000013	0.000027	-165.411411	-76.357159	155.977385
03616	9.589425	-0.535915	-2.277163	0.032615	0.046018	0.057803	1.000000	-0.000015	0.000026	0.000038	-165.397749	-76.357536	155.962605
03617	9.585132	-0.535128	-2.242548	0.001035	0.051606	0.045684	1.000000	-0.000008	0.000016	0.000035	-165.393647	-76.360642	155.967170
03618	9.590009	-0.519330	-2.259766	0.019276	0.065377	0.053410	1.000000	-0.000016	0.000013	0.000027	-165.386720	-76.359924	155.959236
03619	9.590557	-0.502141	-2.242665	0.005839	0.084620	0.049020	1.000000	-0.000007	0.000026	0.000039	-165.388117	-76.362371	155.971602
03620	9.613579	-0.541811	-2.272471	0.023034	0.043539	0.080550	1.000000	-0.000015	0.000024	0.000014	-165.385737	-76.363258	155.968588
03621	9.594609	-0.522228	-2.292615	0.050271	0.057901	0.065543	1.000000	-0.000006	0.000033	0.000036	-165.375368	-76.365816	155.957513
03622	9.585530	-0.537855	-2.240193	-0.000310	0.050147	0.045691	1.000000	0.000003	0.000042	0.000040	-165.356779	-76.367936	155.939901
03623	9.585120	-0.556194	-2.256435	0.012807	0.029482	0.050088	1.000000	-0.000008	0.000010	0.000021	-165.361030	-76.369529	155.949098
03624	9.562230	-0.517469	-2.225860	-0.005006	0.070369	0.018563	1.000000	0.000001	0.000022	0.000032	-165.348752	-76.369685	155.937787
03625	9.614484	-0.526894	-2.253313	0.008508	0.061986	0.076166	1.000000	-0.000008	0.000016	0.000035	-165.348310	-76.368990	155.941158
03626	9.562330	-0.518604	-2.225166	-0.005812	0.069766	0.018567	1.000000	-0.000015	0.000020	0.000024	-165.341896	-76.369185	155.933930
03627	9.590200	-0.541900	-2.272481	0.028739	0.042098	0.057832	1.000000	0.000002	0.000026	0.000022	-165.356081	-76.364749	155.949875
03628	9.561979	-0.537289	-2.241067	0.005561	0.049040	0.022966	1.000000	-0.000016	0.000016	0.000034	-165.345752	-76.364176	155.938542
03629	9.585966	-0.541462	-2.237459	-0.005136	0.048082	0.045700	1.000000	-0.000006	0.000027	0.000022	-165.354600	-76.356953	155.940462
03630	9.585572	-0.559749	-2.253634	0.007724	0.027910	0.050098	1.000000	-0.000006	0.000033	0.000036	-165.340493	-76.358085	155.926382
03631	9.571931	-0.506157	-2.274729	0.037048	0.076073	0.038470	1.000000	-0.000009	0.000003	0.000024	-165.376278	-76.340479	155.956566
03632	9.590514	-0.544443	-2.270544	0.022472	0.041190	0.057852	1.000000	-0.000007	0.000023	0.000032	-165.365584	-76.340497	155.945886
03633	9.537877	-0.553962	-2.259058	0.020942	0.028344	0.004648	1.000000	-0.000007	0.000023	0.000032	-165.371669	-76.339769	155.960676
03634	9.590652	-0.545594	-2.269684	0.021379	0.040426	0.057858	1.000000	-0.000007	0.000023	0.000032	-165.361045	-76.339781	155.950094
03635	9.590722	-0.546054	-2.269280	0.020351	0.039918	0.057862	1.000000	-0.000024	0.000021	0.000024	-165.372268	-76.337189	155.962866
03636	9.566855	-0.542865	-2.272159	0.028877	0.040665	0.035136	1.000000	0.000000	0.000015	0.000035	-165.360148	-76.336235	155.951629
03637	9.566897	-0.543378	-2.271859	0.027904	0.040160	0.035141	1.000000	0.000001	0.000016	0.000018	-165.371033	-76.333528	155.966961
03638	9.591369	-0.529622	-2.251590	0.005481	0.059277	0.053466	1.000000	-0.000015	0.000017	0.000017	-165.368825	-76.333322	155.964060
03639	9.586074	-0.564201	-2.250388	0.000129	0.024844	0.050109	1.000000	0.000002	0.000032	0.000036	-165.359223	-76.336965	155.958587
03640	9.562741	-0.543283	-2.236367	-0.004530	0.045661	0.022983	1.000000	-0.000015	0.000020	0.000024	-165.353415	-76.336912	155.952001
03641	9.561813	-0.579333	-2.269421	0.021537	0.005045	0.031787	1.000000	-0.000015	0.000026	0.000038	-165.348550	-76.338235	155.948095
03642	9.567772	-0.528069	-2.252948	0.013330	0.058955	0.030749	1.000000	-0.000015	0.000023	0.000031	-165.339165	-76.338323	155.937844
03643	9.591221	-0.550052	-2.266203	0.016772	0.037287	0.057879	1.000000	-0.000017	0.000006	0.000030	-165.352128	-76.335383	155.958390
03644	9.562979	-0.545380	-2.234837	-0.006410	0.044221	0.022988	1.000000	0.000011	0.000032	0.000020	-165.343924	-76.336789	155.952502
03645	9.591362	-0.550930	-2.265394	0.014149	0.036416	0.057886	1.000000	-0.000024	0.000014	0.000027	-165.372986	-76.327364	155.994064
03646	9.567961	-0.529838	-2.251727	0.009474	0.057230	0.030763	1.000000	-0.000017	0.000003	0.000023	-165.370180	-76.325396	155.990431
03647	9.572903	-0.514036	-2.268865	0.026695	0.071024	0.038541	1.000000	0.000002	0.000032	0.000036	-165.364642	-76.321188	155.978566
03648	9.567615	-0.548719	-2.267547	0.021006	0.036969	0.035171	1.000000	-0.000014	0.000030	0.000028	-165.355996	-76.322029	155.969200
03649	9.563288	-0.547780	-2.232930	-0.010699	0.042748	0.022991	1.000000	-0.000008	0.000013	0.000028	-165.351655	-76.323626	155.961382
03650	9.592160	-0.535602	-2.246803	-0.001451	0.055661	0.053488	1.000000	-0.000006	0.000027	0.000022	-165.345439	-76.324264	155.955482
03651	9.591727	-0.553912	-2.263118	0.010444	0.035024	0.057896	1.000000	-0.000016	0.000020	0.000041	-165.352217	-76.319675	155.962323
03652	9.578175	-0.500339	-2.284172	0.042791	0.083616	0.046339	1.000000	-0.000007	0.000020	0.000025	-165.345660	-76.319424	155.955986
03653	9.567926	-0.551164	-2.265643	0.018428	0.035141	0.035183	1.000000	0.000001	0.000016	0.000018	-165.355219	-76.319368	155.973377
03654	9.592437	-0.537518	-2.245160	-0.004051	0.054219	0.053495	1.000000	-0.000014	0.000037	0.000025	-165.347125	-76.321058	155.964713
03655	9.569119	-0.516537	-2.231143	-0.008192	0.074318	0.026380	1.000000	-0.000016	0.000016	0.000034	-165.348293	-76.324849	155.980088
03656	9.573088	-0.536197	-2.281704	0.036355	0.047988	0.042974	1.000000	-0.000006	0.000027	0.000022	-165.342246	-76.325491	155.974441
03657	9.572671	-0.554500	-2.297957	0.049687	0.027344	0.047379	1.000000	-0.000007	0.000026	0.000039	-165.334362	-76.329341	155.970851
03658	9.568825	-0.535970	-2.246601	0.004399	0.053440	0.030788	1.000000	-0.000016	0.000016	0.000034	-165.324983	-76.328508	155.960630
03659	9.592807	-0.540322	-2.242905	-0.006565	0.051981	0.053506	1.000000	-0.000006	0.000033	0.000036	-165.339219	-76.321510	155.976276
03660	9.545075	-0.533403	-2.248882	0.010872	0.053624	0.008079	1.000000	-0.000007	0.000020	0.000025	-165.332874	-76.321262	155.970252
03661	9.573959	-0.521197	-2.262769	0.020799	0.066439	0.038587	1.000000	0.000001	0.000016	0.000018	-165.323663	-76.324792	155.957234
03662	9.573523	-0.539526	-2.279090	0.033635	0.046270	0.042992	1.000000	-0.000015	0.000030	0.000045	-165.307614	-76.325053	155.940257
03663	9.550165	-0.518773	-2.265225	0.028009	0.066766	0.015882	1.000000	-0.000009	0.000009	0.000038	-165.313640	-76.318891	155.943050
03664	9.569185	-0.539476	-2.244227	0.000221	0.051871	0.030798	1.000000	-0.000007	0.000023	0.000032	-165.303704	-76.318769	155.933316
03665	9.573672	-0.541444	-2.278010	0.031218	0.045261	0.043005	1.000000	-0.000015	0.000023	0.000031	-165.305795	-76.317766	155.932757
03666	9.568814	-0.558263	-2.260147	0.012342	0.031248	0.035205	1.000000	-0.000007	0.000020	0.000025	-165.299469	-76.317504	155.926728
03667	9.598229	-0.528538	-2.257152	0.007228	0.063663	0.061318	1.000000	-0.000015	0.000030	0.000045	-165.306545	-76.313160	155.938877
03668	9.574375	-0.525395	-2.260034	0.015758	0.064431	0.038610	1.000000	0.000000	0.000009	0.000021	-165.302352	-76.311787	155.935926
03669	9.568997	-0.559831	-2.258984	0.010123	0.030580	0.035210	1.000000	-0.000023	0.000028	0.000021	-165.293568	-76.312106	155.907798
03670	9.593517	-0.546302	-2.238417	-0.012392	0.049634	0.053513	1.000000	-0.000006	0.000033	0.000036	-165.280544	-76.312930	155.894958
03671	9.574648	-0.526762	-2.258561	0.013031	0.064193	0.038615	1.000000	0.000002	0.000026	0.000022	-165.292145	-76.305030	155.899777
03672	9.598122	-0.548702	-2.271629	0.016911	0.043138	0.065732	1.000000	-0.000007	0.000020	0.000025	-165.285928	-76.304675	155.893796
03673	9.569857	-0.544111	-2.240237	-0.005421	0.049701	0.030807	1.000000	-0.000007	0.000026	0.000039	-165.272423	-76.309939	155.880937
03674	9.573848	-0.563826	-2.290773	0.039093	0.023369	0.047436	1.000000	-0.000015	0.000020	0.000024	-165.267289	-76.309704	155.875101
03675	9.593876	-0.548861	-2.236250	-0.016227	0.048165	0.053514	1.000000	-0.000008	0.000013	0.000028	-165.280957	-76.303676	155.891800
03676	9.574479	-0.547136	-2.273254	0.024002	0.042780	0.043036	1.000000	-0.000014	0.000036	0.000042	-165.265608	-76.304663	155.875586
03677	9.574046	-0.565455	-2.289547	0.037101	0.021998	0.047447	1.000000	-0.000024	0.000014	0.000027	-165.272184	-76.306652	155.887266
03678	9.574600	-0.548081	-2.272515	0.023495	0.041932	0.043041	1.000000	0.000001	0.000016	0.000018	-165.268500	-76.306096	155.884898
03679	9.574682	-0.548586	-2.272049	0.021882	0.041716	0.043046	1.000000	-0.000006	0.000033	0.000036	-165.270072	-76.300575	155.878020
03680	9.575264	-0.531505	-2.254836	0.008271	0.061653	0.038637	1.000000	0.000000	0.000015	0.000035	-165.258859	-76.299380	155.867797
03681	9.598688	-0.553739	-2.268013	0.012349	0.040321	0.065751	1.000000	-0.000008	0.000019	0.000042	-165.249057	-76.300155	155.856519
03682	9.555891	-0.530495	-2.291623	0.048308	0.055889	0.028174	1.000000	0.000001	0.000019	0.000025	-165.241833	-76.299697	155.850487
03683	9.575431	-0.533356	-2.253688	0.006803	0.060607	0.038644	1.000000	-0.000006	0.000030	0.000029	-165.246896	-76.298843	155.859805
03684	9.575483	-0.533842	-2.253351	0.006399	0.060488	0.038645	1.000000	-0.000025	0.000007	0.000029	-165.242242	-76.296918	155.853302
03685	9.579965	-0.535741	-2.287290	0.037080	0.053839	0.050891	1.000000	-0.000015	0.000023	0.000031	-165.248355	-76.294422	155.858685
03686	9.575607	-0.534972	-2.252556	0.004980	0.059871	0.038650	1.000000	0.000010	0.000032	0.000037	-165.233385	-76.294970	155.845786
03687	9.599570	-0.539278	-2.248894	-0.003931	0.058434	0.061352	1.000000	-0.000016	0.000010	0.000020	-165.236533	-76.297038	155.852008
03688	9.575699	-0.535881	-2.251947	0.004609	0.059215	0.038654	1.000000	-0.000016	0.000013	0.000027	-165.231228	-76.295887	155.845920
03689	9.575751	-0.536368	-2.251611	0.004343	0.058508	0.038658	1.000000	-0.000015	0.000023	0.000031	-165.234504	-76.297891	155.851837
03690	9.580292	-0.538300	-2.285322	0.035632	0.052240	0.050905	1.000000	-0.000006	0.000030	0.000029	-165.225383	-76.298514	155.843033
03691	9.604789	-0.524817	-2.264827	0.013280	0.070613	0.069199	1.000000	-0.000007	0.000020	0.000025	-165.231676	-76.300903	155.858955
03692	9.580972	-0.521358	-2.267682	0.021824	0.071397	0.046503	1.000000	-0.000015	0.000024	0.000014	-165.230870	-76.301368	155.857743
03693	9.575546	-0.555787	-2.266652	0.014780	0.037014	0.043078	1.000000	-0.000008	0.000013	0.000028	-165.245404	-76.293459	155.872620
03694	9.580585	-0.540074	-2.283674	0.032840	0.050796	0.050922	1.000000	0.000011	0.000032	0.000037	-165.230585	-76.294011	155.859934
03695	9.605050	-0.526718	-2.263279	0.009585	0.069034	0.069215	1.000000	-0.000025	0.000007	0.000029	-165.250046	-76.290425	155.890045
03696	9.576209	-0.539715	-2.248863	-0.000339	0.055909	0.038674	1.000000	-0.000007	0.000020	0.000025	-165.244309	-76.290021	155.884673
03697	9.580757	-0.541669	-2.282575	0.031026	0.049060	0.050937	1.000000	-0.000006	0.000033	0.000036	-165.244256	-76.292648	155.889756
03698	9.576901	-0.523138	-2.231078	-0.014305	0.075096	0.034270	1.000000	-0.000007	0.000023	0.000032	-165.234983	-76.292384	155.880778
03699	9.580915	-0.542769	-2.281647	0.030156	0.048069	0.050944	1.000000	-0.000015	0.000020	0.000024	-165.247317	-76.293638	155.903236
03700	9.582035	-0.507767	-2.247652	0.003276	0.088009	0.042130	1.000000	0.000002	0.000029	0.000029	-165.237408	-76.294152	155.894716
03701	9.600477	-0.546243	-2.243333	-0.012121	0.052293	0.061380	1.000000	-0.000017	0.000010	0.000037	-165.252187	-76.289697	155.916098
03702	9.576617	-0.543077	-2.246315	-0.003576	0.053084	0.038689	1.000000	0.000001	0.000022	0.000032	-165.241960	-76.289335	155.907179
03703	9.576178	-0.561323	-2.262614	0.008666	0.033054	0.043099	1.000000	-0.000006	0.000027	0.000022	-165.239501	-76.286302	155.889348
03704	9.581771	-0.527727	-2.262825	0.013469	0.066874	0.046550	1.000000	-0.000007	0.000023	0.000032	-165.230380	-76.286006	155.880548
03705	9.581324	-0.546111	-2.279131	0.026740	0.046183	0.050963	1.000000	-0.000007	0.000026	0.000039	-165.224735	-76.289562	155.882129
03706	9.576379	-0.563073	-2.261328	0.007872	0.032128	0.043103	1.000000	0.000000	0.000012	0.000028	-165.217648	-76.288207	155.876304
03707	9.582477	-0.511721	-2.244871	-0.000427	0.085586	0.042151	1.000000	-0.000006	0.000027	0.000022	-165.219947	-76.290374	155.882919
03708	9.577028	-0.546465	-2.243738	-0.006055	0.051493	0.038697	1.000000	0.000001	0.000021	0.000049	-165.202145	-76.289418	155.866101
03709	9.581580	-0.548488	-2.277484	0.025232	0.044680	0.050974	1.000000	-0.000023	0.000028	0.000021	-165.211824	-76.291537	155.884883
03710	9.582169	-0.531141	-2.260343	0.011574	0.064572	0.046568	1.000000	-0.000008	0.000013	0.000028	-165.205908	-76.290285	155.879313
03711	9.577212	-0.547920	-2.242598	-0.006647	0.050106	0.038703	1.000000	-0.000015	0.000020	0.000024	-165.204052	-76.294372	155.881781
03712	9.577296	-0.548377	-2.242129	-0.007057	0.049965	0.038704	1.000000	-0.000006	0.000030	0.000029	-165.195383	-76.294993	155.873596
03713	9.586346	-0.551686	-2.310074	0.053743	0.037439	0.063270	1.000000	0.000001	0.000019	0.000025	-165.214589	-76.283419	155.890131
03714	9.582445	-0.533011	-2.258732	0.008390	0.063432	0.046578	1.000000	-0.000007	0.000020	0.000025	-165.209186	-76.282987	155.885177
03715	9.558088	-0.547604	-2.278399	0.029262	0.043565	0.028311	1.000000	-0.000008	0.000022	0.000049	-165.216427	-76.278712	155.901343
03716	9.578065	-0.532950	-2.223744	-0.025077	0.068601	0.034296	1.000000	-0.000007	0.000020	0.000025	-165.211125	-76.278260	155.896515
03717	9.558750	-0.530899	-2.260799	0.014737	0.063256	0.023905	1.000000	-0.000023	0.000028	0.000021	-165.213960	-76.276664	155.891303
03718	9.563290	-0.532625	-2.294724	0.045990	0.057019	0.036201	1.000000	-0.000017	0.000003	0.000023	-165.212511	-76.274437	155.889228
03719	9.582728	-0.535560	-2.256926	0.003676	0.061727	0.046592	1.000000	0.000019	0.000028	0.000030	-165.219694	-76.268916	155.899482
03720	9.582281	-0.553850	-2.273233	0.016487	0.041559	0.051006	1.000000	-0.000007	0.000020	0.000025	-165.214463	-76.268418	155.894694
03721	9.558987	-0.532775	-2.259358	0.012300	0.062002	0.023917	1.000000	-0.000015	0.000023	0.000031	-165.210430	-76.271807	155.893089
03722	9.587966	-0.520814	-2.273065	0.021310	0.074843	0.054486	1.000000	-0.000007	0.000023	0.000032	-165.201619	-76.271456	155.884631
03723	9.559104	-0.533791	-2.258624	0.010987	0.061282	0.023923	1.000000	-0.000008	0.000010	0.000021	-165.213821	-76.268669	155.903022
03724	9.583038	-0.538152	-2.254993	0.001561	0.060185	0.046602	1.000000	-0.000007	0.000026	0.000039	-165.201487	-76.268440	155.890955
03725	9.588180	-0.522518	-2.271772	0.019082	0.073378	0.054502	1.000000	-0.000013	0.000043	0.000039	-165.205668	-76.269114	155.899514
03726	9.602094	-0.559662	-2.233082	-0.027199	0.044401	0.061389	1.000000	0.000009	0.000011	0.000029	-165.197872	-76.267579	155.893964
03727	9.593328	-0.507342	-2.288445	0.036302	0.086277	0.062410	1.000000	-0.000016	0.000013	0.000027	-165.213485	-76.266481	155.921426
03728	9.588876	-0.506454	-2.253906	0.004182	0.092206	0.050102	1.000000	-0.000007	0.000023	0.000032	-165.204867	-76.266114	155.913225
03729	9.559518	-0.537238	-2.256053	0.006678	0.058866	0.023941	1.000000	-0.000006	0.000030	0.000029	-165.210109	-76.262227	155.916956
03730	9.588013	-0.542994	-2.286387	0.028913	0.051679	0.058933	1.000000	-0.000006	0.000030	0.000029	-165.201951	-76.262695	155.909314
03731	9.584115	-0.524345	-2.234945	-0.017628	0.076829	0.042208	1.000000	-0.000007	0.000020	0.000025	-165.226263	-76.257938	155.941181
03732	9.559742	-0.538820	-2.254725	0.004191	0.057629	0.023950	1.000000	-0.000025	0.000013	0.000044	-165.215660	-76.256111	155.928810
03733	9.588686	-0.526932	-2.268616	0.012971	0.070304	0.054534	1.000000	-0.000008	0.000013	0.000028	-165.215539	-76.254073	155.922569
03734	9.564303	-0.541314	-2.288460	0.034790	0.051106	0.036279	1.000000	-0.000008	0.000013	0.000028	-165.210238	-76.252662	155.917667
03735	9.583737	-0.544270	-2.250550	-0.007032	0.055683	0.046626	1.000000	-0.000006	0.000030	0.000029	-165.217537	-76.250312	155.924137
03736	9.565004	-0.524519	-2.270751	0.019936	0.070447	0.031873	1.000000	-0.000014	0.000027	0.000021	-165.214248	-76.250694	155.920535
03737	9.583946	-0.545152	-2.249444	-0.008850	0.055136	0.046628	1.000000	-0.000023	0.000034	0.000035	-165.219629	-76.247118	155.917917
03738	9.584051	-0.545651	-2.248878	-0.009308	0.054984	0.046628	1.000000	0.000002	0.000026	0.000022	-165.214138	-76.247296	155.913984
03739	9.565291	-0.526041	-2.269187	0.018476	0.069537	0.031882	1.000000	-0.000016	0.000020	0.000041	-165.199493	-76.250991	155.889698
03740	9.584168	-0.546854	-2.248088	-0.009405	0.054473	0.046631	1.000000	0.000009	0.000018	0.000026	-165.192416	-76.250241	155.884993
03741	9.589302	-0.530932	-2.265074	0.009137	0.067740	0.054556	1.000000	-0.000023	0.000028	0.000021	-165.196025	-76.255122	155.893466
03742	9.565513	-0.527488	-2.267917	0.017702	0.068563	0.031891	1.000000	-0.000015	0.000023	0.000031	-165.188759	-76.254790	155.885667
03743	9.588935	-0.549690	-2.280916	0.022060	0.046783	0.058975	1.000000	-0.000007	0.000026	0.000039	-165.185374	-76.259059	155.892000
03744	9.589007	-0.550334	-2.280457	0.021612	0.046629	0.058977	1.000000	-0.000007	0.000023	0.000032	-165.176998	-76.258658	155.884056
03745	9.583996	-0.567365	-2.262645	0.003548	0.032237	0.051054	1.000000	0.000001	0.000018	0.000042	-165.162072	-76.262319	155.869242
03746	9.589665	-0.533946	-2.262831	0.008240	0.066043	0.054568	1.000000	-0.000014	0.000030	0.000028	-165.155201	-76.262890	155.861969
03747	9.565855	-0.530476	-2.265777	0.017298	0.066568	0.031905	1.000000	-0.000016	0.000010	0.000020	-165.156500	-76.264786	155.862597
03748	9.584695	-0.551121	-2.244794	-0.010563	0.051481	0.046646	1.000000	-0.000016	0.000016	0.000034	-165.148783	-76.263651	155.854243
03749	9.560904	-0.547805	-2.247621	-0.001820	0.051994	0.023982	1.000000	0.000003	0.000036	0.000026	-165.145452	-76.266557	155.853223
03750	9.579828	-0.568595	-2.226219	-0.029680	0.036902	0.038719	1.000000	-0.000006	0.000033	0.000036	-165.133865	-76.267188	155.842072
03751	9.613934	-0.540341	-2.257234	-0.003173	0.063239	0.077246	1.000000	-0.000007	0.000020	0.000025	-165.146702	-76.263284	155.857241
03752	9.614514	-0.523084	-2.240149	-0.016891	0.083092	0.072836	1.000000	-0.000008	0.000013	0.000028	-165.141491	-76.261918	155.852428
03753	9.595232	-0.521115	-2.277339	0.022953	0.077364	0.062524	1.000000	-0.000015	0.000023	0.000031	-165.149474	-76.260692	155.861280
03754	9.590240	-0.537910	-2.259451	0.004110	0.063253	0.054589	1.000000	-0.000006	0.000027	0.000022	-165.145138	-76.261040	155.857581
03755	9.594883	-0.539686	-2.293143	0.036012	0.056613	0.066940	1.000000	-0.000006	0.000027	0.000022	-165.143468	-76.266045	155.861080
03756	9.565974	-0.552615	-2.278753	0.026203	0.043494	0.036342	1.000000	-0.000009	0.000006	0.000031	-165.137881	-76.263834	155.855790
03757	9.590970	-0.521644	-2.241496	-0.009298	0.081648	0.050191	1.000000	-0.000006	0.000033	0.000036	-165.136868	-76.268996	155.863966
03758	9.566669	-0.535966	-2.261043	0.012569	0.062478	0.031939	1.000000	-0.000023	0.000028	0.000021	-165.134796	-76.269566	155.860680
03759	9.562206	-0.534988	-2.226373	-0.019353	0.067615	0.019596	1.000000	-0.000015	0.000023	0.000031	-165.142287	-76.272177	155.880180
03760	9.590699	-0.540830	-2.256806	0.002852	0.060406	0.054608	1.000000	0.000001	0.000022	0.000032	-165.132898	-76.271756	155.872223
03761	9.591304	-0.523685	-2.239592	-0.010277	0.079893	0.050205	1.000000	-0.000015	0.000023	0.000031	-165.127648	-76.275508	155.863129
03762	9.576063	-0.540848	-2.327740	0.074944	0.048648	0.056653	1.000000	-0.000016	0.000016	0.000034	-165.120084	-76.274425	155.854997
03763	9.615285	-0.528682	-2.235520	-0.020464	0.078270	0.072868	1.000000	-0.000015	0.000023	0.000031	-165.122200	-76.273349	155.853152
03764	9.562014	-0.555583	-2.240979	-0.007937	0.046152	0.024008	1.000000	0.000011	0.000038	0.000034	-165.108937	-76.274697	155.842388
03765	9.571761	-0.541022	-2.292117	0.041114	0.053609	0.044317	1.000000	0.000001	0.000010	0.000004	-165.126216	-76.271457	155.858639
03766	9.567800	-0.522356	-2.240765	-0.004279	0.079488	0.027554	1.000000	-0.000015	0.000030	0.000045	-165.111973	-76.271473	155.843738
03767	9.571884	-0.542082	-2.291351	0.039887	0.052561	0.044328	1.000000	-0.000016	0.000013	0.000027	-165.127724	-76.270176	155.869925
03768	9.592317	-0.509661	-2.219906	-0.027841	0.097413	0.045812	1.000000	-0.000007	0.000023	0.000032	-165.119567	-76.269843	155.862267
03769	9.590769	-0.563398	-2.269833	0.011595	0.036654	0.059036	1.000000	-0.000007	0.000023	0.000032	-165.124615	-76.270960	155.871973
03770	9.591410	-0.546202	-2.252483	-0.002139	0.056481	0.054631	1.000000	-0.000005	0.000037	0.000026	-165.117317	-76.272351	155.865419
03771	9.577857	-0.510137	-2.290116	0.042346	0.085012	0.047900	1.000000	0.000010	0.000018	0.000026	-165.124803	-76.267632	155.865419
03772	9.591593	-0.547348	-2.251427	-0.003892	0.055894	0.054634	1.000000	-0.000014	0.000037	0.000042	-165.111122	-76.268490	155.851224
03773	9.595699	-0.567071	-2.301947	0.039333	0.028981	0.071420	1.000000	-0.000008	0.000013	0.000028	-165.135097	-76.262045	155.884445
03774	9.572976	-0.528173	-2.271352	0.021341	0.069824	0.039954	1.000000	-0.000006	0.000027	0.000022	-165.131114	-76.262403	155.881196
03775	9.591795	-0.548987	-2.250164	-0.006012	0.054285	0.054642	1.000000	-0.000008	0.000019	0.000042	-165.122380	-76.264925	155.871991
03776	9.592376	-0.532035	-2.233024	-0.019756	0.074107	0.050235	1.000000	-0.000008	0.000019	0.000042	-165.110429	-76.263834	155.860353
03777	9.573146	-0.530250	-2.270150	0.020559	0.068261	0.039967	1.000000	-0.000007	0.000026	0.000039	-165.113386	-76.265523	155.870437
03778	9.592521	-0.533277	-2.232101	-0.020604	0.073080	0.050241	1.000000	-0.000023	0.000028	0.000021	-165.111691	-76.266084	155.867614
03779	9.568187	-0.547614	-2.251811	0.001089	0.053690	0.031999	1.000000	-0.000008	0.000019	0.000042	-165.107441	-76.264472	155.864779
03780	9.592082	-0.552062	-2.248188	-0.008412	0.052484	0.054650	1.000000	-0.000016	0.000010	0.000020	-165.107384	-76.263090	155.864388
03781	9.573974	-0.514647	-2.251663	0.005201	0.086806	0.035575	1.000000	0.000003	0.000042	0.000040	-165.103692	-76.265565	155.866118
03782	9.592253	-0.553255	-2.247166	-0.009359	0.051627	0.054653	1.000000	-0.000008	0.000013	0.000028	-165.098969	-76.264223	155.861916
03783	9.568454	-0.549756	-2.250153	-0.000334	0.051982	0.032008	1.000000	-0.000014	0.000027	0.000021	-165.103188	-76.268145	155.870831
03784	9.574211	-0.516095	-2.250325	0.004272	0.085771	0.035584	1.000000	-0.000007	0.000020	0.000025	-165.098883	-76.267677	155.867171
03785	9.573734	-0.534318	-2.266715	0.017519	0.065066	0.039994	1.000000	-0.000007	0.000023	0.000032	-165.099149	-76.270680	155.867290
03786	9.592004	-0.572814	-2.262243	0.002968	0.029878	0.059065	1.000000	-0.000014	0.000030	0.000028	-165.092821	-76.271304	155.860697
03787	9.579046	-0.518964	-2.283147	0.035368	0.078091	0.047985	1.000000	-0.000007	0.000020	0.000025	-165.097992	-76.274380	155.874200
03788	9.573978	-0.535876	-2.265318	0.016572	0.063928	0.040003	1.000000	-0.000007	0.000026	0.000039	-165.086574	-76.274195	155.863266
03789	9.597934	-0.540437	-2.261393	0.005918	0.062306	0.062655	1.000000	-0.000022	0.000034	0.000035	-165.098256	-76.269847	155.870319
03790	9.574670	-0.519310	-2.247632	0.001221	0.083156	0.035608	1.000000	-0.000001	0.000002	0.000024	-165.095685	-76.267442	155.869221
03791	9.592869	-0.557872	-2.243394	-0.013208	0.047629	0.054669	1.000000	-0.000007	0.000026	0.000039	-165.090472	-76.268659	155.864810
03792	9.574249	-0.538269	-2.263604	0.013758	0.062475	0.040017	1.000000	-0.000014	0.000033	0.000035	-165.080665	-76.269406	155.854652
03793	9.598745	-0.525081	-2.242913	-0.008357	0.080955	0.058262	1.000000	-0.000007	0.000023	0.000032	-165.071954	-76.273466	155.841634
03794	9.575499	-0.503946	-2.229088	-0.013049	0.101806	0.031217	1.000000	-0.000007	0.000020	0.000025	-165.067734	-76.273023	155.838067
03795	9.598345	-0.543809	-2.258839	0.004203	0.060152	0.062670	1.000000	0.000002	0.000029	0.000029	-165.067878	-76.275244	155.834582
03796	9.575138	-0.522687	-2.244853	-0.000486	0.081005	0.035626	1.000000	-0.000014	0.000030	0.000028	-165.061633	-76.275886	155.828072
03797	9.574646	-0.540952	-2.261281	0.012210	0.060492	0.040031	1.000000	-0.000017	0.000010	0.000037	-165.063539	-76.273854	155.830432
03798	9.574149	-0.559173	-2.277742	0.025079	0.040321	0.044435	1.000000	-0.000006	0.000027	0.000022	-165.059761	-76.274275	155.827418
03799	9.579927	-0.525678	-2.277909	0.030338	0.073714	0.048036	1.000000	-0.000016	0.000020	0.000041	-165.051133	-76.277803	155.816299
03800	9.579966	-0.526259	-2.277610	0.029896	0.073529	0.048038	1.000000	-0.000016	0.000013	0.000027	-165.047660	-76.276612	155.812416
03801	9.603873	-0.530713	-2.273897	0.020295	0.071773	0.070687	1.000000	-0.000007	0.000023	0.000032	-165.052235	-76.277093	155.821037
03802	9.574920	-0.543614	-2.259482	0.010581	0.058661	0.040044	1.000000	-0.000007	0.000020	0.000025	-165.048072	-76.276673	155.817528
03803	9.575570	-0.526361	-2.242150	-0.003580	0.077738	0.035651	1.000000	-0.000005	0.000037	0.000026	-165.061174	-76.277765	155.843744
03804	9.598409	-0.566299	-2.271869	0.013546	0.036521	0.067091	1.000000	0.000000	0.000015	0.000035	-165.051968	-76.276518	155.835945
03805	9.575121	-0.545299	-2.258225	0.009889	0.056887	0.040055	1.000000	-0.000017	0.000010	0.000037	-165.045163	-76.281287	155.832794
03806	9.599024	-0.549760	-2.254508	0.000377	0.055628	0.062697	1.000000	-0.000006	0.000027	0.000022	-165.041450	-76.281752	155.829880
03807	9.580435	-0.530066	-2.274753	0.027377	0.070030	0.048071	1.000000	-0.000015	0.000030	0.000045	-165.037865	-76.283075	155.822802
03808	9.551483	-0.543160	-2.260261	0.017680	0.056919	0.017423	1.000000	0.000001	0.000022	0.000032	-165.029067	-76.282717	155.815537
03809	9.604432	-0.535334	-2.270452	0.001828	0.005378	0.070967	1.000000	-0.000007	0.000023	0.000032	-166.600674	-76.345336	157.228482
03810	9.599320	-0.552272	-2.252634	-0.017024	-0.008977	0.062835	1.000000	0.000001	0.000022	0.000032	-166.598328	-76.345264	157.227241
03811	9.604566	-0.536446	-2.269622	0.000821	0.004467	0.070967	1.000000	-0.000015	0.000020	0.000024	-166.601948	-76.345254	157.235648
03812	9.575566	-0.549244	-2.255379	-0.008910	-0.008689	0.040217	1.000000	-0.000025	0.000007	0.000029	-166.605593	-76.343592	157.237430
03813	9.576164	-0.532006	-2.238275	-0.022662	0.010882	0.035927	1.000000	0.000010	0.000025	0.000023	-166.606074	-76.344329	157.241144
03814	9.570546	-0.566636	-2.237031	-0.028225	-0.023506	0.032077	1.000000	-0.000013	0.000043	0.000039	-166.599850	-76.346453	157.234197
03815	9.585631	-0.536021	-2.305501	0.039569	-0.002270	0.060782	1.000000	-0.000009	0.000009	0.000038	-166.597866	-76.344703	157.240638
03816	9.575843	-0.551593	-2.253632	-0.010898	-0.010510	0.040213	1.000000	-0.000015	0.000023	0.000031	-166.597796	-76.344813	157.239792
03817	9.581134	-0.535712	-2.270482	0.006930	0.002944	0.048355	1.000000	0.000003	0.000033	0.000019	-166.600190	-76.346274	157.252809
03818	9.581215	-0.536127	-2.270043	0.006426	0.002492	0.048355	1.000000	-0.000016	0.000013	0.000027	-166.603198	-76.345378	157.255015
03819	9.581260	-0.536502	-2.269766	0.005931	0.002037	0.048356	1.000000	-0.000007	0.000017	0.000018	-166.609161	-76.345149	157.264207
03820	9.600555	-0.539632	-2.231684	-0.035323	0.006479	0.058532	1.000000	-0.000014	0.000037	0.000042	-166.602434	-76.346417	157.256638
03821	9.581435	-0.537577	-2.268770	0.004912	0.001131	0.048356	1.000000	0.000001	0.000016	0.000018	-166.607436	-76.345979	157.269338
03822	9.557639	-0.534114	-2.271834	0.013537	0.001900	0.025746	1.000000	-0.000024	0.000020	0.000041	-166.604425	-76.345475	157.264398
03823	9.557695	-0.534666	-2.271469	0.013046	0.001443	0.025747	1.000000	-0.000007	0.000020	0.000025	-166.606861	-76.345418	157.274147
03824	9.576406	-0.555463	-2.250285	-0.014912	-0.014150	0.040203	1.000000	-0.000015	0.000023	0.000031	-166.606790	-76.345529	157.273301
03825	9.558393	-0.517974	-2.253830	-0.001240	0.020561	0.021462	1.000000	-0.000015	0.000023	0.000031	-166.606593	-76.345728	157.267379
03826	9.557908	-0.536226	-2.270204	0.011556	0.000089	0.025749	1.000000	-0.000007	0.000023	0.000032	-166.605383	-76.345747	157.266334
03827	9.582402	-0.523100	-2.249467	-0.011372	0.018429	0.044072	1.000000	-0.000014	0.000033	0.000035	-166.602251	-76.346904	157.262870
03828	9.605202	-0.562945	-2.279270	0.005588	-0.023293	0.075250	1.000000	-0.000016	0.000010	0.000020	-166.608838	-76.345857	157.268748
03829	9.558718	-0.520077	-2.251967	-0.003236	0.018753	0.021465	1.000000	-0.000013	0.000043	0.000039	-166.602580	-76.348018	157.260008
03830	9.605936	-0.546392	-2.261436	-0.008714	-0.004180	0.070964	1.000000	0.000009	0.000011	0.000029	-166.602170	-76.346847	157.261618
03831	9.557747	-0.556629	-2.284694	0.022368	-0.022193	0.030036	1.000000	0.000002	0.000026	0.000022	-166.603880	-76.347543	157.262563
03832	9.582231	-0.543425	-2.264013	-0.000572	-0.003856	0.048357	1.000000	-0.000007	0.000023	0.000032	-166.602669	-76.347562	157.261517
03833	9.588094	-0.509964	-2.264088	0.003966	0.029624	0.052241	1.000000	0.000002	0.000029	0.000029	-166.600752	-76.348477	157.262561
03834	9.577196	-0.560859	-2.245578	-0.019874	-0.018686	0.040187	1.000000	-0.000014	0.000030	0.000028	-166.601181	-76.349444	157.262334
03835	9.582503	-0.544981	-2.262484	-0.002038	-0.005220	0.048356	1.000000	-0.000007	0.000020	0.000025	-166.603392	-76.349429	157.259582
03836	9.586702	-0.564636	-2.312947	0.042377	-0.031795	0.065095	1.000000	-0.000014	0.000037	0.000042	-166.596659	-76.350697	157.252009
03837	9.583170	-0.528533	-2.244920	-0.016324	0.013892	0.044072	1.000000	-0.000002	-0.000012	0.000030	-166.599351	-76.347015	157.255096
03838	9.587855	-0.530459	-2.278902	0.014790	0.007338	0.056531	1.000000	-0.000022	0.000034	0.000035	-166.597338	-76.348224	157.251395
03839	9.583298	-0.529617	-2.244119	-0.017327	0.012988	0.044072	1.000000	-0.000014	0.000030	0.000028	-166.597741	-76.349210	157.249771
03840	9.582242	-0.565519	-2.277338	0.008772	-0.027504	0.052636	1.000000	0.000000	0.000012	0.000028	-166.598469	-76.348131	157.251578
03841	9.588629	-0.514353	-2.260825	-0.000016	0.025996	0.052252	1.000000	-0.000016	0.000017	0.000034	-166.597959	-76.347435	157.256864
03842	9.583428	-0.531227	-2.243185	-0.018831	0.011623	0.044071	1.000000	-0.000008	0.000013	0.000028	-166.599827	-76.346447	157.258870
03843	9.558495	-0.563173	-2.279959	0.016445	-0.027620	0.030034	1.000000	-0.000008	0.000016	0.000035	-166.598093	-76.345711	157.261359
03844	9.607333	-0.536403	-2.239201	-0.028975	0.009460	0.066669	1.000000	-0.000016	0.000017	0.000034	-166.597521	-76.344965	157.259892
03845	9.564397	-0.530278	-2.279825	0.020429	0.005417	0.033939	1.000000	0.000010	0.000025	0.000023	-166.598283	-76.345440	157.269193
03846	9.559254	-0.547001	-2.261951	0.001621	-0.008959	0.025752	1.000000	-0.000023	0.000028	0.000021	-166.603429	-76.346349	157.272837
03847	9.583725	-0.533870	-2.241285	-0.021347	0.009349	0.044068	1.000000	0.000001	0.000018	0.000042	-166.597025	-76.345564	157.266255
03848	9.588424	-0.535977	-2.275211	0.009764	0.002807	0.056539	1.000000	-0.000009	0.000009	0.000038	-166.594814	-76.343870	157.263970
03849	9.583213	-0.552918	-2.257545	-0.009023	-0.011575	0.048347	1.000000	-0.000015	0.000023	0.000031	-166.594660	-76.344097	157.262418
03850	9.588550	-0.537108	-2.274414	0.008777	0.001898	0.056540	1.000000	-0.000006	0.000030	0.000029	-166.593944	-76.344972	157.261989
03851	9.560150	-0.532230	-2.243029	-0.014165	0.008790	0.021470	1.000000	-0.000005	0.000037	0.000026	-166.593677	-76.346794	157.263621
03852	9.541071	-0.530026	-2.280234	0.026107	0.003514	0.011352	1.000000	-0.000025	0.000007	0.000029	-166.597327	-76.345135	157.265408
03853	9.588757	-0.538538	-2.273203	0.007272	0.000536	0.056542	1.000000	-0.000008	0.000013	0.000028	-166.599323	-76.344102	157.271296
03854	9.559717	-0.551362	-2.258932	-0.002365	-0.012578	0.025747	1.000000	-0.000015	0.000023	0.000031	-166.599248	-76.344213	157.270448
03855	9.565588	-0.517777	-2.259176	0.002109	0.020907	0.029670	1.000000	-0.000008	0.000010	0.000021	-166.604803	-76.343058	157.281585
03856	9.606926	-0.577895	-2.268237	-0.008385	-0.036032	0.075210	1.000000	-0.000014	0.000027	0.000021	-166.608805	-76.343876	157.285027
03857	9.579599	-0.537528	-2.203481	-0.057936	0.010887	0.031575	1.000000	-0.000016	0.000013	0.000027	-166.611576	-76.343155	157.280819
03858	9.583773	-0.557083	-2.254142	-0.013512	-0.015659	0.048336	1.000000	-0.000007	0.000023	0.000032	-166.610360	-76.343174	157.279771
03859	9.589103	-0.541347	-2.271077	0.004299	-0.002185	0.056543	1.000000	0.000001	0.000022	0.000032	-166.607863	-76.343208	157.275377
03860	9.589171	-0.541832	-2.270674	0.003795	-0.002637	0.056543	1.000000	-0.000023	0.000021	0.000023	-166.612507	-76.343261	157.278400
03861	9.589274	-0.542264	-2.270137	0.003306	-0.003091	0.056543	1.000000	0.000003	0.000036	0.000026	-166.611054	-76.344977	157.277686
03862	9.594666	-0.526518	-2.286838	0.021094	0.010385	0.064757	1.000000	-0.000006	0.000033	0.000036	-166.606756	-76.346002	157.273584
03863	9.565618	-0.539398	-2.272551	0.011490	-0.002723	0.033954	1.000000	-0.000017	0.000007	0.000030	-166.609172	-76.344354	157.274626
03864	9.589462	-0.543930	-2.268941	0.001813	-0.004452	0.056543	1.000000	-0.000008	0.000013	0.000028	-166.611037	-76.343366	157.276631
03865	9.561551	-0.521433	-2.221019	-0.034426	0.022462	0.017184	1.000000	-0.000015	0.000027	0.000038	-166.607336	-76.343710	157.273672
03866	9.584330	-0.561441	-2.250690	-0.017467	-0.019290	0.048323	1.000000	-0.000006	0.000030	0.000029	-166.606617	-76.344585	157.273241
03867	9.566434	-0.523926	-2.254174	-0.003804	0.015478	0.029680	1.000000	-0.000007	0.000023	0.000032	-166.605249	-76.344708	157.267267
03868	9.594449	-0.547448	-2.301422	0.031438	-0.012348	0.069041	1.000000	-0.000016	0.000010	0.000020	-166.611835	-76.343663	157.273144
03869	9.560659	-0.558977	-2.253067	-0.009778	-0.019367	0.025732	1.000000	0.000009	0.000017	0.000043	-166.604357	-76.342779	157.274482
03870	9.565989	-0.543383	-2.270040	0.008005	-0.005887	0.033956	1.000000	0.000001	0.000022	0.000032	-166.601998	-76.342705	157.273232
03871	9.595189	-0.531645	-2.283455	0.016626	0.006302	0.064769	1.000000	-0.000014	0.000030	0.000028	-166.602242	-76.343786	157.267882
03872	9.566755	-0.526722	-2.252156	-0.006299	0.013218	0.029682	1.000000	-0.000014	0.000030	0.000028	-166.602661	-76.344754	157.267651
03873	9.566236	-0.544985	-2.268613	0.006532	-0.007245	0.033957	1.000000	-0.000009	0.000009	0.000038	-166.600401	-76.343135	157.266750
03874	9.565714	-0.563272	-2.285073	0.019352	-0.027704	0.038231	1.000000	-0.000006	0.000030	0.000029	-166.599679	-76.344010	157.266318
03875	9.590186	-0.550285	-2.264344	-0.003634	-0.009443	0.056539	1.000000	-0.000008	0.000019	0.000042	-166.594208	-76.343460	157.257384
03876	9.590842	-0.533200	-2.247029	-0.017459	0.010113	0.052265	1.000000	0.000011	0.000032	0.000020	-166.595279	-76.344855	157.260840
03877	9.561800	-0.545894	-2.232688	-0.027035	-0.002973	0.021446	1.000000	-0.000024	0.000014	0.000026	-166.599251	-76.344155	157.258132
03878	9.595676	-0.535410	-2.280524	0.013154	0.003129	0.064776	1.000000	-0.000008	0.000013	0.000028	-166.601115	-76.343167	157.260136
03879	9.590429	-0.552258	-2.262836	-0.005625	-0.011253	0.056537	1.000000	-0.000015	0.000023	0.000031	-166.601005	-76.343303	157.259530
03880	9.567229	-0.531025	-2.249131	-0.010257	0.009601	0.029683	1.000000	-0.000008	0.000013	0.000028	-166.602869	-76.342315	157.261534
03881	9.595828	-0.536970	-2.279518	0.011663	0.001770	0.064778	1.000000	-0.000007	0.000023	0.000032	-166.601541	-76.342427	157.259630
03882	9.572073	-0.533391	-2.282571	0.020353	0.002618	0.042199	1.000000	-0.000015	0.000020	0.000024	-166.605042	-76.342389	157.262452
03883	9.566829	-0.550099	-2.264878	0.001589	-0.011765	0.033954	1.000000	0.000001	0.000016	0.000018	-166.609765	-76.342096	157.269688
03884	9.566855	-0.550501	-2.264669	0.001087	-0.012217	0.033954	1.000000	-0.000025	0.000007	0.000029	-166.613414	-76.340439	157.271475
03885	9.562774	-0.532094	-2.213209	-0.044325	0.013415	0.017161	1.000000	0.000003	0.000042	0.000040	-166.604801	-76.342439	157.263502
03886	9.567031	-0.551643	-2.263646	0.000095	-0.013120	0.033953	1.000000	-0.000015	0.000017	0.000017	-166.611882	-76.342251	157.269997
03887	9.596808	-0.522206	-2.260308	-0.004655	0.019057	0.060510	1.000000	0.000002	0.000025	0.000039	-166.605923	-76.342363	157.269128
03888	9.567763	-0.535089	-2.245895	-0.014228	0.005981	0.029681	1.000000	-0.000014	0.000030	0.000028	-166.606340	-76.343331	157.268897
03889	9.591098	-0.557320	-2.258756	-0.010598	-0.015789	0.056526	1.000000	-0.000023	0.000024	0.000031	-166.607366	-76.343579	157.270052
03890	9.596461	-0.541428	-2.275796	0.007167	-0.002308	0.064782	1.000000	0.000000	0.000009	0.000021	-166.611667	-76.342348	157.275526
03891	9.567971	-0.536337	-2.244711	-0.015725	0.004626	0.029679	1.000000	0.000003	0.000030	0.000012	-166.617388	-76.343699	157.281088
03892	9.572798	-0.538230	-2.278388	0.015368	-0.001896	0.042208	1.000000	-0.000016	0.000023	0.000048	-166.609652	-76.343255	157.272275
03893	9.567492	-0.555037	-2.260869	-0.003385	-0.016281	0.033947	1.000000	-0.000017	-0.000003	0.000009	-166.622738	-76.341142	157.279962
03894	9.573441	-0.521348	-2.261104	0.001052	0.017205	0.037941	1.000000	-0.000022	0.000034	0.000035	-166.620717	-76.342354	157.276260
03895	9.567035	-0.573728	-2.276928	0.008947	-0.037189	0.038214	1.000000	0.000001	0.000018	0.000042	-166.614214	-76.341614	157.270629
03896	9.567666	-0.556745	-2.259711	-0.004883	-0.017635	0.033944	1.000000	-0.000007	0.000023	0.000032	-166.612992	-76.341632	157.269577
03897	9.573063	-0.540985	-2.276625	0.012894	-0.004154	0.042211	1.000000	-0.000007	0.000023	0.000032	-166.611641	-76.341734	157.267628
03898	9.598108	-0.510344	-2.239071	-0.023478	0.034081	0.056246	1.000000	0.000010	0.000021	0.000033	-166.608134	-76.341565	157.266173
03899	9.573213	-0.542185	-2.275706	0.011884	-0.005055	0.042212	1.000000	-0.000014	0.000030	0.000028	-166.608582	-76.342504	157.270642
03900	9.597666	-0.529060	-2.255064	-0.011164	0.013171	0.060515	1.000000	-0.000025	0.000007	0.000029	-166.612233	-76.340848	157.272432
03901	9.568566	-0.541909	-2.240833	-0.020713	0.000107	0.029671	1.000000	0.000011	0.000031	0.000037	-166.605659	-76.341684	157.272311
03902	9.591867	-0.564255	-2.253760	-0.017097	-0.021675	0.056506	1.000000	-0.000024	0.000014	0.000026	-166.609805	-76.340884	157.274718
03903	9.597878	-0.530747	-2.253768	-0.012652	0.011810	0.060515	1.000000	-0.000005	0.000040	0.000033	-166.605788	-76.342903	157.267366
03904	9.568824	-0.543512	-2.239340	-0.022194	-0.001248	0.029668	1.000000	-0.000007	0.000020	0.000025	-166.608145	-76.342771	157.269986
03905	9.598051	-0.531734	-2.252796	-0.013653	0.010906	0.060514	1.000000	-0.000023	0.000024	0.000031	-166.609110	-76.343006	157.267389
03906	9.573729	-0.545906	-2.272644	0.008397	-0.008215	0.042214	1.000000	-0.000007	0.000026	0.000039	-166.604306	-76.343174	157.262663
03907	9.579126	-0.530197	-2.289622	0.026158	0.005269	0.050497	1.000000	0.000000	0.000012	0.000028	-166.604953	-76.342147	157.265951
03908	9.569058	-0.545687	-2.237813	-0.024186	-0.003055	0.029663	1.000000	-0.000007	0.000020	0.000025	-166.607310	-76.342016	157.268571
03909	9.597681	-0.551596	-2.268198	-0.002305	-0.010908	0.064779	1.000000	-0.000008	0.000013	0.000028	-166.608988	-76.341135	157.265841
03910	9.550680	-0.526138	-2.258055	0.002307	0.011317	0.015384	1.000000	0.000001	0.000016	0.000018	-166.613781	-76.340759	157.271931
03911	9.569207	-0.547179	-2.236810	-0.025650	-0.004411	0.029658	1.000000	-0.000007	0.000029	0.000046	-166.605247	-76.341203	157.262149
03912	9.574032	-0.549255	-2.270560	0.005433	-0.010928	0.042213	1.000000	-0.000008	0.000016	0.000035	-166.603528	-76.340365	157.260479
03913	9.597895	-0.553968	-2.266713	-0.004280	-0.012721	0.064776	1.000000	-0.000007	0.000023	0.000032	-166.602118	-76.340480	157.254586
03914	9.603341	-0.538161	-2.283548	0.013467	0.000761	0.073070	1.000000	-0.000014	0.000030	0.000028	-166.602530	-76.341449	157.254352
03915	9.575428	-0.515523	-2.235563	-0.022721	0.027721	0.033684	1.000000	0.000001	0.000019	0.000025	-166.603670	-76.341247	157.256864
03916	9.598135	-0.555533	-2.265313	-0.005785	-0.014078	0.064773	1.000000	-0.000023	0.000027	0.000038	-166.601150	-76.341604	157.252543
03917	9.574983	-0.534184	-2.251558	-0.010376	0.006818	0.037948	1.000000	-0.000015	0.000017	0.000017	-166.608073	-76.341494	157.254727
03918	9.579824	-0.535960	-2.285356	0.020703	0.000299	0.050512	1.000000	0.000001	0.000022	0.000032	-166.605704	-76.341418	157.253470
03919	9.545939	-0.547511	-2.236891	-0.020376	-0.006668	0.007085	1.000000	-0.000007	0.000026	0.000039	-166.600702	-76.341686	157.242363
03920	9.603790	-0.541325	-2.280912	0.010479	-0.001954	0.073073	1.000000	0.000002	0.000026	0.000022	-166.602406	-76.342316	157.245395
03921	9.575303	-0.536394	-2.249673	-0.012360	0.005015	0.037947	1.000000	-0.000014	0.000034	0.000035	-166.599129	-76.343478	157.239526
03922	9.574214	-0.572259	-2.282848	0.013804	-0.035442	0.046471	1.000000	-0.000007	0.000020	0.000025	-166.601484	-76.343347	157.242145
03923	9.581404	-0.503427	-2.249331	-0.008444	0.038048	0.041992	1.000000	-0.000016	0.000017	0.000034	-166.600791	-76.342645	157.238734
03924	9.575503	-0.537873	-2.248468	-0.013859	0.003662	0.037945	1.000000	0.000002	0.000023	0.000015	-166.606076	-76.343126	157.245439
03925	9.574996	-0.556141	-2.264813	-0.001017	-0.016792	0.042206	1.000000	0.000002	0.000028	0.000046	-166.596406	-76.343414	157.232961
03926	9.575082	-0.556784	-2.264290	-0.001519	-0.017243	0.042205	1.000000	-0.000006	0.000027	0.000022	-166.599253	-76.344139	157.236195
03927	9.575146	-0.557200	-2.263917	-0.001993	-0.017695	0.042205	1.000000	-0.000016	0.000014	0.000027	-166.601964	-76.343419	157.227457
03928	9.581166	-0.523641	-2.264100	0.002419	0.015788	0.046259	1.000000	-0.000007	0.000020	0.000025	-166.604317	-76.343288	157.230075
03929	9.552042	-0.536352	-2.249874	-0.007074	0.002765	0.015388	1.000000	-0.000007	0.000023	0.000032	-166.603018	-76.343352	157.230212
03930	9.575322	-0.558662	-2.262811	-0.003491	-0.019049	0.042202	1.000000	-0.000007	0.000020	0.000025	-166.605371	-76.343221	157.232830
03931	9.562355	-0.522298	-2.300597	0.041754	0.009718	0.036289	1.000000	-0.000007	0.000020	0.000025	-166.607575	-76.343169	157.232993
03932	9.580839	-0.543161	-2.279390	0.013760	-0.006023	0.050522	1.000000	-0.000023	0.000021	0.000023	-166.612215	-76.343228	157.236018
03933	9.586896	-0.509780	-2.279414	0.018151	0.027464	0.054587	1.000000	0.000002	0.000028	0.000046	-166.602732	-76.343384	157.234005
03934	9.599443	-0.564895	-2.257444	-0.014747	-0.022219	0.064749	1.000000	0.000012	0.000039	0.000017	-166.604275	-76.345632	157.238063
03935	9.581706	-0.527262	-2.260970	-0.001096	0.012630	0.046264	1.000000	-0.000017	0.000010	0.000037	-166.603175	-76.344030	157.238149
03936	9.575751	-0.561799	-2.260218	-0.006499	-0.021755	0.042195	1.000000	-0.000007	0.000020	0.000025	-166.605528	-76.343899	157.240766
03937	9.581789	-0.528335	-2.260368	-0.002098	0.011727	0.046265	1.000000	-0.000008	0.000016	0.000035	-166.603745	-76.343089	157.240870
03938	9.586648	-0.530271	-2.294170	0.028971	0.005210	0.058856	1.000000	-0.000007	0.000023	0.000032	-166.602516	-76.343107	157.239814
03939	9.552111	-0.559300	-2.262636	0.001267	-0.021736	0.019641	1.000000	-0.000007	0.000020	0.000025	-166.604739	-76.343030	157.238719
03940	9.605796	-0.534241	-2.255569	-0.012855	0.009000	0.068815	1.000000	0.000003	0.000035	0.000043	-166.595694	-76.344109	157.230726
03941	9.605905	-0.534811	-2.254971	-0.013353	0.008548	0.068814	1.000000	-0.000022	0.000028	0.000021	-166.600748	-76.345057	157.234225
03942	9.581555	-0.548700	-2.275050	0.008741	-0.010529	0.050524	1.000000	-0.000001	0.000002	0.000024	-166.604554	-76.342969	157.239081
03943	9.581599	-0.549192	-2.274749	0.008253	-0.010982	0.050524	1.000000	-0.000006	0.000030	0.000029	-166.603701	-76.343923	157.237980
03944	9.582292	-0.532010	-2.257373	-0.005590	0.008566	0.046267	1.000000	0.000002	0.000026	0.000022	-166.605401	-76.344552	157.241009
03945	9.605581	-0.554405	-2.270203	-0.002017	-0.013263	0.073070	1.000000	-0.000007	0.000026	0.000039	-166.600537	-76.344718	157.236129
03946	9.581836	-0.550921	-2.273330	0.006744	-0.012335	0.050523	1.000000	-0.000008	0.000016	0.000035	-166.598815	-76.343881	157.234457
03947	9.587899	-0.517528	-2.273444	0.011142	0.021148	0.054613	1.000000	-0.000007	0.000023	0.000032	-166.597434	-76.343965	157.229628
03948	9.558151	-0.547922	-2.276093	0.015018	-0.011853	0.027978	1.000000	0.000010	0.000018	0.000026	-166.597496	-76.343644	157.231836
03949	9.581994	-0.552550	-2.272268	0.005261	-0.013688	0.050523	1.000000	-0.000024	0.000014	0.000026	-166.601479	-76.342921	157.228587
03950	9.582628	-0.535469	-2.255125	-0.008581	0.005861	0.046267	1.000000	-0.000008	0.000019	0.000042	-166.596174	-76.342233	157.223241
03951	9.582657	-0.535963	-2.254888	-0.009077	0.005411	0.046266	1.000000	-0.000008	0.000007	0.000014	-166.605098	-76.340979	157.230183
03952	9.587523	-0.537718	-2.288777	0.021983	-0.001109	0.058875	1.000000	0.000001	0.000022	0.000032	-166.602722	-76.340902	157.228920
03953	9.576722	-0.570918	-2.253809	-0.014959	-0.029426	0.042165	1.000000	-0.000016	0.000014	0.000027	-166.605650	-76.340061	157.232362
03954	9.611396	-0.542824	-2.284708	0.011711	-0.003403	0.081418	1.000000	-0.000008	0.000010	0.000021	-166.611088	-76.338924	157.238035
03955	9.563849	-0.534978	-2.291456	0.029754	-0.001067	0.036337	1.000000	0.000001	0.000022	0.000032	-166.608692	-76.338831	157.241485
03956	9.583497	-0.520758	-2.236431	-0.024930	0.023150	0.042011	1.000000	0.000002	0.000029	0.000029	-166.606807	-76.339611	157.240837
03957	9.606179	-0.560804	-2.266098	-0.008017	-0.018692	0.073058	1.000000	-0.000015	0.000024	0.000031	-166.606612	-76.339766	157.237573
03958	9.582469	-0.557090	-2.269156	0.000757	-0.017749	0.050517	1.000000	-0.000006	0.000027	0.000022	-166.609451	-76.340491	157.240803
03959	9.559343	-0.535831	-2.255410	-0.003800	0.003196	0.023725	1.000000	-0.000008	0.000019	0.000042	-166.604039	-76.339853	157.234513
03960	9.588010	-0.542034	-2.285716	0.017979	-0.004717	0.058882	1.000000	-0.000008	0.000016	0.000035	-166.602316	-76.339015	157.232840
03961	9.560013	-0.519429	-2.237974	-0.018127	0.022295	0.019472	1.000000	-0.000008	0.000013	0.000028	-166.603983	-76.338123	157.229583
03962	9.583278	-0.541889	-2.250829	-0.014570	0.000445	0.046261	1.000000	-0.000014	0.000037	0.000042	-166.597223	-76.339392	157.221997
03963	9.612002	-0.547969	-2.280924	0.007201	-0.007472	0.081420	1.000000	-0.000015	0.000020	0.000024	-166.600675	-76.339349	157.227053
03964	9.559024	-0.556470	-2.270347	0.007052	-0.019052	0.027976	1.000000	0.000001	0.000015	0.000035	-166.597807	-76.338416	157.225175
03965	9.607825	-0.530229	-2.229358	-0.038700	0.017683	0.064542	1.000000	-0.000000	0.000008	0.000038	-166.594339	-76.336683	157.221864
03966	9.565155	-0.523761	-2.270159	0.010928	0.013980	0.032099	1.000000	-0.000013	0.000037	0.000025	-166.595229	-76.338510	157.222238
03967	9.559202	-0.558230	-2.269165	0.005574	-0.020403	0.027974	1.000000	0.000010	0.000018	0.000026	-166.595129	-76.338278	157.221349
03968	9.588521	-0.546621	-2.282475	0.013995	-0.008328	0.058886	1.000000	-0.000006	0.000030	0.000029	-166.594384	-76.339153	157.220904
03969	9.559990	-0.541695	-2.251263	-0.008787	-0.001306	0.023722	1.000000	-0.000006	0.000033	0.000036	-166.590114	-76.340100	157.224185
03970	9.589323	-0.530176	-2.264506	-0.000372	0.010768	0.054636	1.000000	-0.000007	0.000023	0.000032	-166.588879	-76.340119	157.223126
03971	9.583951	-0.547082	-2.246702	-0.019073	-0.003622	0.046253	1.000000	0.000002	0.000029	0.000029	-166.586903	-76.340955	157.222676
03972	9.560226	-0.543512	-2.249821	-0.010282	-0.002659	0.023720	1.000000	0.000001	0.000015	0.000035	-166.584034	-76.340021	157.220798
03973	9.588941	-0.549472	-2.280027	0.011482	-0.010581	0.058887	1.000000	-0.000039	0.000030	0.000019	-166.591364	-76.341157	157.224661
03974	9.565866	-0.528093	-2.266153	0.006924	0.010379	0.032107	1.000000	0.000011	0.000031	0.000037	-166.584745	-76.341989	157.220130
03975	9.608039	-0.553381	-2.241357	-0.030374	-0.006847	0.068778	1.000000	-0.000008	0.000010	0.000021	-166.590119	-76.340860	157.226757
03976	9.589762	-0.533320	-2.261907	-0.003377	0.008059	0.054638	1.000000	-0.000007	0.000023	0.000032	-166.588884	-76.340879	157.225698
03977	9.583758	-0.567883	-2.261021	-0.008734	-0.026325	0.050494	1.000000	-0.000007	0.000023	0.000032	-166.587663	-76.340865	157.230424
03978	9.595368	-0.518171	-2.278355	0.013809	0.021097	0.063033	1.000000	0.000001	0.000022	0.000032	-166.585282	-76.340787	157.229159
03979	9.560731	-0.547243	-2.246768	-0.013777	-0.005813	0.023715	1.000000	-0.000014	0.000034	0.000035	-166.581977	-76.341989	157.224203
03980	9.560796	-0.547752	-2.246368	-0.014279	-0.006264	0.023714	1.000000	0.000000	0.000009	0.000021	-166.586272	-76.340757	157.229673
03981	9.565113	-0.567130	-2.297037	0.030140	-0.032757	0.040608	1.000000	-0.000006	0.000027	0.000022	-166.588958	-76.341561	157.230102
03982	9.584098	-0.570591	-2.258899	-0.011217	-0.028586	0.050486	1.000000	-0.000008	0.000019	0.000042	-166.583652	-76.340872	157.224755
03983	9.566499	-0.532946	-2.262343	0.002442	0.006326	0.032113	1.000000	0.000004	0.000040	0.000016	-166.586138	-76.343286	157.225105
03984	9.590383	-0.537615	-2.258252	-0.007367	0.004444	0.054638	1.000000	-0.000016	0.000017	0.000034	-166.585559	-76.342546	157.223638
03985	9.566046	-0.551635	-2.278297	0.014790	-0.014564	0.036361	1.000000	-0.000007	0.000023	0.000032	-166.584285	-76.342545	157.225949
03986	9.566725	-0.534533	-2.261013	0.000932	0.004976	0.032114	1.000000	-0.000015	0.000024	0.000031	-166.584194	-76.342660	157.225094
03987	9.595444	-0.540672	-2.291210	0.022666	-0.002955	0.067293	1.000000	-0.000024	0.000020	0.000041	-166.581102	-76.342144	157.220855
03988	9.566263	-0.553333	-2.276973	0.013282	-0.015912	0.036361	1.000000	0.000011	0.000032	0.000020	-166.582131	-76.343532	157.224282
03989	9.566930	-0.536078	-2.259779	-0.000568	0.003628	0.032114	1.000000	-0.000017	0.000004	0.000023	-166.588120	-76.341689	157.229682
03990	9.562116	-0.535148	-2.225248	-0.032618	0.009223	0.019455	1.000000	-0.000013	0.000037	0.000025	-166.589004	-76.343517	157.230053
03991	9.590864	-0.541245	-2.255343	-0.010896	0.001289	0.054636	1.000000	0.000001	0.000015	0.000035	-166.586099	-76.342525	157.230886
03992	9.590303	-0.559525	-2.271838	0.001961	-0.019152	0.058881	1.000000	-0.000007	0.000023	0.000032	-166.584861	-76.342543	157.229825
03993	9.567219	-0.538199	-2.258051	-0.002591	0.001832	0.032114	1.000000	-0.000006	0.000030	0.000029	-166.584075	-76.343384	157.232882
03994	9.572823	-0.522463	-2.274756	0.015091	0.015326	0.040534	1.000000	-0.000006	0.000033	0.000036	-166.579740	-76.344408	157.228757
03995	9.614957	-0.547872	-2.249862	-0.022228	-0.001964	0.077153	1.000000	-0.000016	0.000017	0.000034	-166.579068	-76.343691	157.227291
03996	9.572342	-0.541430	-2.290763	0.027453	-0.005561	0.044781	1.000000	0.000010	0.000024	0.000040	-166.571953	-76.343664	157.222141
03997	9.596796	-0.528546	-2.269939	0.004259	0.012529	0.063056	1.000000	-0.000015	0.000017	0.000017	-166.578990	-76.343436	157.231145
03998	9.573105	-0.524772	-2.273038	0.013077	0.013529	0.040539	1.000000	-0.000006	0.000033	0.000036	-166.574654	-76.344460	157.227020
03999	9.620748	-0.533887	-2.265371	-0.006069	0.010172	0.085575	1.000000	0.000001	0.000022	0.000032	-166.572208	-76.344396	157.227181
04000	9.573280	-0.525990	-2.272021	0.012074	0.012628	0.040542	1.000000	-0.000006	0.000030	0.000029	-166.571455	-76.345271	157.226731
04001	9.567246	-0.560493	-2.271084	0.006764	-0.021755	0.036356	1.000000	-0.000015	0.000024	0.000031	-166.571305	-76.345406	157.227071
04002	9.567929	-0.543396	-2.253796	-0.007105	-0.002222	0.032112	1.000000	-0.000007	0.000023	0.000032	-166.570066	-76.345424	157.226009
04003	9.586868	-0.546918	-2.215641	-0.048482	0.001903	0.041950	1.000000	0.000001	0.000022	0.000032	-166.567652	-76.345316	157.227017
04004	9.573581	-0.528340	-2.270207	0.010061	0.010828	0.040546	1.000000	-0.000007	0.000026	0.000039	-166.562828	-76.345483	157.222279
04005	9.597391	-0.533308	-2.266307	0.000233	0.008916	0.063061	1.000000	-0.000000	0.000008	0.000038	-166.559403	-76.343714	157.221058
04006	9.568729	-0.528304	-2.235533	-0.022483	0.015958	0.027868	1.000000	-0.000024	0.000014	0.000026	-166.563554	-76.342922	157.223475
04007	9.597443	-0.534387	-2.265833	-0.000777	0.008013	0.063062	1.000000	-0.000008	0.000016	0.000035	-166.561786	-76.342067	157.223800
04008	9.573739	-0.530715	-2.268983	0.008051	0.009027	0.040550	1.000000	-0.000006	0.000030	0.000029	-166.561030	-76.342941	157.223348
04009	9.592057	-0.551871	-2.247682	-0.019262	-0.008339	0.054620	1.000000	-0.000008	0.000016	0.000035	-166.586818	-76.349214	157.229492
04010	9.568933	-0.530510	-2.234135	-0.023797	0.012659	0.027869	1.000000	-0.000016	0.000014	0.000027	-166.589898	-76.348344	157.231738
04011	9.592753	-0.535301	-2.230219	-0.033631	0.010735	0.050380	1.000000	0.000001	0.000022	0.000032	-166.587487	-76.348283	157.232012
04012	9.597693	-0.537208	-2.264105	-0.002594	0.004239	0.063064	1.000000	-0.000009	0.000006	0.000031	-166.588933	-76.346459	157.233438
04013	9.573974	-0.533555	-2.267327	0.006237	0.005262	0.040554	1.000000	-0.000006	0.000033	0.000036	-166.584575	-76.347468	157.230286
04014	9.574066	-0.534150	-2.266798	0.005736	0.004807	0.040554	1.000000	-0.000015	0.000024	0.000031	-166.584556	-76.347603	157.229468
04015	9.603425	-0.522664	-2.280135	0.014069	0.016825	0.071517	1.000000	-0.000008	0.000016	0.000035	-166.582779	-76.346804	157.227315
04016	9.568655	-0.551700	-2.248688	-0.013428	-0.010048	0.032101	1.000000	-0.000006	0.000033	0.000036	-166.578513	-76.347846	157.223223
04017	9.598069	-0.540231	-2.261793	-0.005103	0.001970	0.063063	1.000000	-0.000006	0.000030	0.000029	-166.577708	-76.348731	157.221549
04018	9.574364	-0.536501	-2.264985	0.003738	0.002993	0.040556	1.000000	0.000000	0.000012	0.000028	-166.578494	-76.347666	157.223380
04019	9.568885	-0.553360	-2.247301	-0.014922	-0.011406	0.032097	1.000000	-0.000006	0.000030	0.000029	-166.577692	-76.348588	157.222463
04020	9.580660	-0.503668	-2.264583	0.007535	0.036015	0.044783	1.000000	0.000001	0.000015	0.000035	-166.574892	-76.347672	157.220616
04021	9.592750	-0.558770	-2.243014	-0.025276	-0.013802	0.054600	1.000000	-0.000024	0.000014	0.000026	-166.579135	-76.346837	157.230215
04022	9.550795	-0.534532	-2.267190	0.011076	0.002665	0.018052	1.000000	0.000009	0.000017	0.000043	-166.571604	-76.345972	157.224484
04023	9.598358	-0.543781	-2.259715	-0.008116	-0.000763	0.063062	1.000000	0.000000	0.000012	0.000028	-166.572280	-76.344915	157.226238
04024	9.575260	-0.522332	-2.246142	-0.012644	0.020251	0.036323	1.000000	-0.000015	0.000021	0.000024	-166.575845	-76.344902	157.229095
04025	9.599097	-0.527162	-2.242114	-0.022483	0.018306	0.058827	1.000000	-0.000007	0.000026	0.000039	-166.570938	-76.345147	157.221868
04026	9.579067	-0.560067	-2.313220	0.044650	-0.026650	0.057495	1.000000	-0.000016	0.000014	0.000027	-166.574017	-76.344278	157.224114
04027	9.598576	-0.545806	-2.258302	-0.010113	-0.002585	0.063059	1.000000	-0.000015	0.000021	0.000024	-166.577512	-76.344246	157.228820
04028	9.580445	-0.525549	-2.278771	0.016893	0.012404	0.049031	1.000000	0.000002	0.000023	0.000015	-166.582850	-76.344744	157.235548
04029	9.575632	-0.524731	-2.243993	-0.015137	0.017980	0.036324	1.000000	-0.000013	0.000044	0.000039	-166.576535	-76.346899	157.228602
04030	9.575095	-0.543017	-2.260335	-0.002261	-0.002455	0.040557	1.000000	0.000009	0.000011	0.000029	-166.576171	-76.345735	157.230223
04031	9.605096	-0.513965	-2.256789	-0.007339	0.029521	0.067302	1.000000	-0.000015	0.000027	0.000038	-166.572495	-76.346048	157.227960
04032	9.551472	-0.539953	-2.263051	0.006101	-0.001866	0.018057	1.000000	-0.000006	0.000030	0.000029	-166.571810	-76.346941	157.227542
04033	9.580263	-0.546108	-2.293097	0.027781	-0.009847	0.053269	1.000000	-0.000007	0.000023	0.000032	-166.570541	-76.347015	157.224816
04034	9.575385	-0.545325	-2.258553	-0.004250	-0.004277	0.040555	1.000000	0.000001	0.000019	0.000025	-166.571810	-76.346806	157.227256
04035	9.581014	-0.529376	-2.275489	0.013413	0.009220	0.049039	1.000000	-0.000015	0.000018	0.000017	-166.578809	-76.346723	157.230946
04036	9.623656	-0.537178	-2.233731	-0.037341	0.011780	0.081318	1.000000	0.000010	0.000024	0.000040	-166.571758	-76.346712	157.225823
04037	9.580530	-0.548356	-2.291444	0.025788	-0.011665	0.053272	1.000000	-0.000015	0.000030	0.000045	-166.564519	-76.347121	157.219667
04038	9.576265	-0.530047	-2.240038	-0.019623	0.013881	0.036323	1.000000	-0.000008	0.000013	0.000028	-166.566451	-76.346154	157.221705
04039	9.581279	-0.531898	-2.273785	0.011401	0.007404	0.049043	1.000000	0.000002	0.000029	0.000029	-166.564579	-76.346927	157.223205
04040	9.552024	-0.544406	-2.259651	0.002121	-0.005494	0.018057	1.000000	-0.000015	0.000021	0.000024	-166.568142	-76.346915	157.226063
04041	9.581430	-0.532892	-2.272916	0.010402	0.006494	0.049045	1.000000	0.000001	0.000022	0.000032	-166.565774	-76.346873	157.225973
04042	9.575915	-0.549817	-2.255212	-0.008242	-0.007917	0.040551	1.000000	-0.000007	0.000023	0.000032	-166.564603	-76.346910	157.224944
04043	9.605317	-0.538513	-2.268451	0.000044	0.004069	0.071540	1.000000	-0.000016	0.000023	0.000048	-166.556725	-76.346559	157.209451
04044	9.576670	-0.533472	-2.237492	-0.022612	0.011151	0.036320	1.000000	0.000002	0.000023	0.000015	-166.562060	-76.347057	157.216177
04045	9.557328	-0.548670	-2.291624	0.031180	-0.013789	0.030784	1.000000	-0.000015	0.000030	0.000045	-166.554738	-76.347566	157.205202
04046	9.581750	-0.535970	-2.270843	0.007924	0.004215	0.049049	1.000000	-0.000001	0.000002	0.000024	-166.558625	-76.345497	157.210100
04047	9.586757	-0.537753	-2.304682	0.038957	-0.002265	0.061781	1.000000	-0.000014	0.000031	0.000028	-166.558974	-76.346550	157.207619
04048	9.576922	-0.535650	-2.235896	-0.024590	0.009328	0.036317	1.000000	-0.000007	0.000023	0.000032	-166.557802	-76.346587	157.206589
04049	9.581972	-0.537609	-2.269515	0.006434	0.002849	0.049050	1.000000	0.000003	0.000032	0.000036	-166.552349	-76.347540	157.204750
04050	9.552742	-0.550208	-2.255207	-0.002828	-0.010037	0.018053	1.000000	-0.000005	0.000037	0.000026	-166.552140	-76.349289	157.204937
04051	9.582187	-0.538797	-2.268328	0.005419	0.001941	0.049051	1.000000	-0.000016	0.000020	0.000041	-166.548080	-76.348649	157.205428
04052	9.582275	-0.539324	-2.267828	0.004918	0.001485	0.049051	1.000000	-0.000005	0.000034	0.000019	-166.551457	-76.350250	157.209293
04053	9.576753	-0.556061	-2.250119	-0.013718	-0.012925	0.040539	1.000000	-0.000008	0.000013	0.000028	-166.553361	-76.349269	157.213111
04054	9.581734	-0.557803	-2.284118	0.017303	-0.019398	0.053279	1.000000	-0.000017	0.000004	0.000023	-166.559547	-76.347397	157.218429
04055	9.558661	-0.536383	-2.270539	0.012806	0.001651	0.026565	1.000000	0.000003	0.000032	0.000036	-166.554004	-76.348394	157.211733
04056	9.582483	-0.541282	-2.266483	0.002922	-0.000336	0.049052	1.000000	-0.000016	0.000014	0.000027	-166.557084	-76.347526	157.213981
04057	9.601307	-0.544738	-2.228406	-0.038479	0.003694	0.058794	1.000000	-0.000007	0.000020	0.000025	-166.559400	-76.347431	157.215028
04058	9.576998	-0.558488	-2.248471	-0.016206	-0.015202	0.040532	1.000000	0.000002	0.000026	0.000022	-166.561146	-76.348077	157.218075
04059	9.617632	-0.514413	-2.296313	0.028291	0.024677	0.088581	1.000000	-0.000009	0.000009	0.000038	-166.558986	-76.346400	157.218634
04060	9.577741	-0.541925	-2.230867	-0.030597	0.003858	0.036304	1.000000	-0.000005	0.000034	0.000019	-166.562361	-76.348001	157.222499
04061	9.582190	-0.561304	-2.281343	0.013815	-0.022584	0.053277	1.000000	-0.000015	0.000024	0.000031	-166.562312	-76.348150	157.224181
04062	9.587862	-0.545445	-2.298268	0.031439	-0.009081	0.061804	1.000000	-0.000024	0.000014	0.000026	-166.566540	-76.347382	157.226639
04063	9.554191	-0.538934	-2.233315	-0.022702	0.004029	0.013817	1.000000	0.000001	0.000019	0.000025	-166.567755	-76.347190	157.229992
04064	9.554256	-0.539443	-2.232915	-0.023201	0.003574	0.013816	1.000000	-0.000015	0.000024	0.000031	-166.567729	-76.347327	157.229171
04065	9.559960	-0.523605	-2.249713	-0.005567	0.017081	0.022346	1.000000	0.000002	0.000026	0.000022	-166.569315	-76.348023	157.227397
04066	9.588148	-0.547459	-2.296597	0.029447	-0.010903	0.061808	1.000000	-0.000007	0.000026	0.000039	-166.564554	-76.348209	157.222688
04067	9.560749	-0.507126	-2.231915	-0.019974	0.036144	0.018123	1.000000	-0.000007	0.000020	0.000025	-166.566973	-76.348031	157.229287
04068	9.612665	-0.535188	-2.275280	0.005641	0.006612	0.080066	1.000000	-0.000007	0.000020	0.000025	-166.569385	-76.347920	157.231934
04069	9.578329	-0.546398	-2.227249	-0.035097	-0.000243	0.036290	1.000000	-0.000017	0.000010	0.000037	-166.568338	-76.346337	157.230181
04070	9.565183	-0.527475	-2.282275	0.023433	0.008803	0.035110	1.000000	-0.000026	-0.000006	0.000018	-166.578774	-76.343561	157.238774
04071	9.583332	-0.548584	-2.261131	-0.004580	-0.007166	0.049049	1.000000	-0.000006	0.000033	0.000036	-166.574481	-76.344625	157.236952
04072	9.613437	-0.519624	-2.257349	-0.009765	0.024752	0.075846	1.000000	0.000002	0.000022	0.000032	-166.572156	-76.344562	157.235710
04073	9.560377	-0.527856	-2.246945	-0.009569	0.013447	0.022349	1.000000	-0.000007	0.000023	0.000032	-166.570869	-76.344643	157.231292
04074	9.583552	-0.550318	-2.259777	-0.006075	-0.008533	0.049047	1.000000	-0.000015	0.000021	0.000024	-166.574428	-76.344631	157.234148
04075	9.564876	-0.547736	-2.297153	0.034344	-0.013437	0.039339	1.000000	-0.000015	0.000024	0.000031	-166.574319	-76.344789	157.231911
04076	9.583676	-0.551334	-2.259004	-0.007072	-0.009444	0.049046	1.000000	-0.000016	0.000017	0.000034	-166.573811	-76.344070	157.230480
04077	9.589404	-0.535565	-2.275764	0.010543	0.004060	0.057595	1.000000	0.000003	0.000036	0.000026	-166.572404	-76.345742	157.231424
04078	9.590113	-0.518517	-2.258454	-0.003358	0.023572	0.053375	1.000000	-0.000017	0.000010	0.000037	-166.571415	-76.344167	157.229384
04079	9.613898	-0.523548	-2.254479	-0.013253	0.021551	0.075850	1.000000	-0.000007	0.000026	0.000039	-166.566533	-76.344433	157.220735
04080	9.589586	-0.537465	-2.274548	0.009052	0.002690	0.057597	1.000000	-0.000007	0.000023	0.000032	-166.565356	-76.344470	157.219702
04081	9.590297	-0.520417	-2.257237	-0.004842	0.022202	0.053377	1.000000	-0.000007	0.000023	0.000032	-166.564113	-76.344539	157.218187
04082	9.560332	-0.550582	-2.260084	-0.000641	-0.010615	0.026568	1.000000	-0.000007	0.000023	0.000032	-166.562935	-76.344576	157.217154
04083	9.584136	-0.555385	-2.256061	-0.010540	-0.012641	0.049039	1.000000	-0.000007	0.000017	0.000018	-166.568845	-76.344401	157.220743
04084	9.594855	-0.540949	-2.307086	0.038573	-0.005144	0.070379	1.000000	-0.000016	0.000023	0.000048	-166.561165	-76.343978	157.211957
04085	9.607331	-0.578424	-2.268620	-0.007547	-0.035092	0.075726	1.000000	0.000001	0.000010	0.000004	-166.573097	-76.343388	157.222933
04086	9.566192	-0.536123	-2.276021	0.015491	0.001521	0.035129	1.000000	-0.000024	0.000020	0.000041	-166.570152	-76.342918	157.218036
04087	9.566246	-0.536819	-2.275633	0.014989	0.001068	0.035130	1.000000	0.000018	0.000021	0.000034	-166.565509	-76.342642	157.218052
04088	9.584370	-0.558094	-2.254397	-0.013034	-0.014922	0.049033	1.000000	-0.000016	0.000014	0.000027	-166.568587	-76.341775	157.220299
04089	9.590061	-0.542244	-2.271409	0.004566	-0.001415	0.057600	1.000000	-0.000008	0.000013	0.000028	-166.570468	-76.340794	157.222655
04090	9.561371	-0.537054	-2.240528	-0.018018	0.005711	0.022344	1.000000	-0.000014	0.000031	0.000028	-166.570918	-76.341787	157.222440
04091	9.590840	-0.525617	-2.253720	-0.009840	0.017639	0.053383	1.000000	0.000000	0.000012	0.000028	-166.571667	-76.340717	157.225543
04092	9.590267	-0.543887	-2.270145	0.003062	-0.002783	0.057601	1.000000	-0.000014	0.000037	0.000042	-166.564946	-76.342006	157.217974
04093	9.566616	-0.540063	-2.273308	0.011987	-0.001656	0.035134	1.000000	0.000001	0.000016	0.000018	-166.569734	-76.341661	157.223766
04094	9.567366	-0.522966	-2.255860	-0.001917	0.017853	0.030918	1.000000	-0.000013	0.000044	0.000039	-166.563491	-76.343806	157.216803
04095	9.586182	-0.526637	-2.217470	-0.043341	0.021819	0.040589	1.000000	0.000001	0.000019	0.000025	-166.564655	-76.343613	157.217673
04096	9.561218	-0.558010	-2.254503	-0.007607	-0.016982	0.026556	1.000000	-0.000015	0.000024	0.000031	-166.564625	-76.343751	157.216850
04097	9.571994	-0.543452	-2.305480	0.041489	-0.009474	0.047933	1.000000	-0.000015	0.000021	0.000024	-166.568154	-76.343726	157.221295
04098	9.597070	-0.513062	-2.267738	0.004747	0.028411	0.061967	1.000000	0.000000	0.000012	0.000028	-166.568930	-76.342660	157.223118
04099	9.590778	-0.547541	-2.267107	-0.000428	-0.005974	0.057600	1.000000	-0.000024	0.000017	0.000033	-166.569467	-76.342129	157.217781
04100	9.562078	-0.542223	-2.236262	-0.022997	0.001162	0.022336	1.000000	-0.000014	0.000024	0.000014	-166.577088	-76.342827	157.224920
04101	9.567198	-0.544074	-2.269898	0.008006	-0.005295	0.035137	1.000000	0.000002	0.000028	0.000047	-166.567520	-76.343082	157.214807
04102	9.591633	-0.531541	-2.248953	-0.015334	0.012622	0.053384	1.000000	-0.000008	0.000013	0.000028	-166.569446	-76.342115	157.216842
04103	9.566648	-0.562857	-2.286094	0.020408	-0.026167	0.039352	1.000000	-0.000007	0.000020	0.000025	-166.571894	-76.341974	157.223760
04104	9.591744	-0.532522	-2.248247	-0.016344	0.011708	0.053383	1.000000	-0.000007	0.000023	0.000032	-166.570713	-76.342011	157.222724
04105	9.573120	-0.529913	-2.285647	0.024088	0.006852	0.043731	1.000000	-0.000015	0.000021	0.000024	-166.574243	-76.341994	157.227001
04106	9.573210	-0.530440	-2.285147	0.023586	0.006397	0.043733	1.000000	-0.000006	0.000033	0.000036	-166.569954	-76.343035	157.222895
04107	9.591973	-0.534160	-2.246880	-0.017835	0.010339	0.053382	1.000000	-0.000016	0.000017	0.000034	-166.569316	-76.342393	157.216397
04108	9.568292	-0.530274	-2.250219	-0.008897	0.011483	0.030924	1.000000	-0.000007	0.000020	0.000025	-166.571720	-76.342282	157.219038
04109	9.597804	-0.518721	-2.263339	-0.000743	0.023389	0.061981	1.000000	-0.000022	0.000028	0.000020	-166.576823	-76.343276	157.219550
04110	9.592176	-0.535620	-2.245668	-0.019331	0.008970	0.053381	1.000000	0.000009	0.000017	0.000043	-166.569273	-76.342404	157.213804
04111	9.592225	-0.536250	-2.245308	-0.019835	0.008513	0.053380	1.000000	-0.000015	0.000021	0.000024	-166.572840	-76.342384	157.219054
04112	9.567914	-0.550016	-2.265444	0.002518	-0.010300	0.035136	1.000000	-0.000007	0.000026	0.000039	-166.568070	-76.342570	157.214339
04113	9.578722	-0.535690	-2.316426	0.051590	-0.002787	0.056560	1.000000	0.000001	0.000015	0.000035	-166.565283	-76.341630	157.214395
04114	9.592379	-0.538160	-2.244193	-0.021344	0.007142	0.053378	1.000000	-0.000008	0.000016	0.000035	-166.563622	-76.340811	157.212751
04115	9.574406	-0.517968	-2.264779	0.005686	0.022261	0.039532	1.000000	-0.000007	0.000020	0.000025	-166.565985	-76.340715	157.214112
04116	9.568095	-0.552414	-2.264096	0.000517	-0.012120	0.035134	1.000000	-0.000016	0.000017	0.000034	-166.565475	-76.339998	157.212681
04117	9.591886	-0.557361	-2.260016	-0.009437	-0.014187	0.057587	1.000000	0.000011	0.000025	0.000023	-166.566048	-76.340516	157.216187
04118	9.574621	-0.519405	-2.263538	0.004178	0.020896	0.039536	1.000000	-0.000022	0.000028	0.000020	-166.571230	-76.341464	157.219859
04119	9.587011	-0.556960	-2.224877	-0.041926	-0.009104	0.044758	1.000000	-0.000007	0.000026	0.000039	-166.566396	-76.341670	157.213543
04120	9.574821	-0.520502	-2.262442	0.003180	0.019986	0.039538	1.000000	-0.000005	0.000037	0.000026	-166.566166	-76.343419	157.213719
04121	9.574926	-0.521028	-2.261878	0.002675	0.019532	0.039539	1.000000	-0.000007	0.000023	0.000032	-166.564990	-76.343439	157.214406
04122	9.592326	-0.559915	-2.257514	-0.011942	-0.016469	0.057580	1.000000	-0.000008	0.000013	0.000028	-166.566915	-76.342472	157.216440
04123	9.574992	-0.522128	-2.261342	0.001671	0.018622	0.039541	1.000000	-0.000017	0.000010	0.000037	-166.565909	-76.340890	157.214889
04124	9.562956	-0.572911	-2.243370	-0.021559	-0.029726	0.026505	1.000000	0.000012	0.000032	0.000020	-166.566963	-76.342288	157.218316
04125	9.569413	-0.539397	-2.243272	-0.017398	0.003745	0.030918	1.000000	-0.000024	0.000014	0.000026	-166.571141	-76.341550	157.219325
04126	9.568830	-0.557538	-2.259732	-0.004483	-0.016670	0.035127	1.000000	-0.000006	0.000033	0.000036	-166.566845	-76.342591	157.215215
04127	9.574608	-0.541823	-2.276602	0.013099	-0.003160	0.043754	1.000000	-0.000009	0.000006	0.000031	-166.568191	-76.340833	157.212270
04128	9.574639	-0.542386	-2.276336	0.012598	-0.003615	0.043754	1.000000	-0.000007	0.000023	0.000032	-166.567005	-76.340871	157.211232
04129	9.574706	-0.542896	-2.275936	0.012098	-0.004070	0.043755	1.000000	-0.000007	0.000020	0.000025	-166.569390	-76.340761	157.214157
04130	9.569728	-0.541993	-2.241303	-0.019888	0.001467	0.030914	1.000000	-0.000005	0.000034	0.000019	-166.572745	-76.342362	157.218010
04131	9.575544	-0.526067	-2.258092	-0.002313	0.014977	0.039547	1.000000	-0.000016	0.000014	0.000027	-166.575771	-76.341537	157.219409
04132	9.599332	-0.531011	-2.253992	-0.012281	0.012889	0.061993	1.000000	0.000003	0.000029	0.000029	-166.573910	-76.342328	157.218763
04133	9.593662	-0.547816	-2.236359	-0.030848	-0.001538	0.053355	1.000000	-0.000024	0.000014	0.000026	-166.578171	-76.341577	157.223338
04134	9.551370	-0.540814	-2.277455	0.019071	-0.004714	0.021313	1.000000	0.000011	0.000031	0.000037	-166.571571	-76.342414	157.218801
04135	9.598874	-0.550224	-2.269656	-0.000345	-0.008443	0.066199	1.000000	-0.000016	0.000011	0.000020	-166.578040	-76.341537	157.216456
04136	9.581605	-0.512278	-2.273377	0.013273	0.026660	0.048192	1.000000	-0.000015	0.000024	0.000031	-166.578004	-76.341676	157.215630
04137	9.575916	-0.529175	-2.255784	-0.005295	0.012237	0.039550	1.000000	-0.000008	0.000016	0.000035	-166.576408	-76.340859	157.217510
04138	9.580396	-0.548678	-2.306446	0.039103	-0.014167	0.056608	1.000000	-0.000007	0.000023	0.000032	-166.575221	-76.340896	157.216471
04139	9.576047	-0.530221	-2.254985	-0.006291	0.011325	0.039551	1.000000	0.000002	0.000023	0.000015	-166.580492	-76.341423	157.221703
04140	9.576150	-0.530747	-2.254421	-0.006793	0.010869	0.039551	1.000000	-0.000014	0.000037	0.000042	-166.573759	-76.342713	157.214127
04141	9.581327	-0.532745	-2.288020	0.024197	0.004420	0.052406	1.000000	-0.000024	0.000020	0.000041	-166.570761	-76.342310	157.206906
04142	9.576304	-0.532034	-2.253466	-0.007783	0.009956	0.039551	1.000000	0.000011	0.000025	0.000023	-166.571332	-76.342852	157.209723
04143	9.546912	-0.544410	-2.239486	-0.016857	-0.002821	0.008459	1.000000	-0.000015	0.000024	0.000031	-166.571253	-76.343031	157.207063
04144	9.605269	-0.538838	-2.282982	0.013219	0.001405	0.074848	1.000000	-0.000007	0.000023	0.000032	-166.570065	-76.343068	157.206023
04145	9.577148	-0.516054	-2.235401	-0.022689	0.028543	0.035347	1.000000	-0.000009	0.000006	0.000031	-166.571473	-76.341302	157.206087
04146	9.594473	-0.554994	-2.231102	-0.037310	-0.007486	0.053330	1.000000	-0.000007	0.000023	0.000032	-166.570284	-76.341339	157.205047
04147	9.606741	-0.505241	-2.248176	-0.015122	0.039945	0.066442	1.000000	-0.000006	0.000027	0.000022	-166.573186	-76.342076	157.209938
04148	9.575984	-0.552781	-2.268165	0.002646	-0.012739	0.043754	1.000000	-0.000009	0.000006	0.000031	-166.574632	-76.340254	157.211364
04149	9.600396	-0.540358	-2.247228	-0.020749	0.005109	0.061986	1.000000	0.000002	0.000028	0.000047	-166.565015	-76.340552	157.198300
04150	9.581872	-0.537833	-2.284542	0.019710	0.000315	0.052417	1.000000	-0.000006	0.000027	0.000022	-166.567888	-76.341297	157.201543
04151	9.575506	-0.572264	-2.283823	0.014585	-0.034065	0.047956	1.000000	-0.000008	0.000016	0.000035	-166.566170	-76.340537	157.197588
04152	9.582673	-0.521318	-2.266809	0.005297	0.019358	0.048216	1.000000	-0.000006	0.000030	0.000029	-166.565455	-76.341430	157.197152
04153	9.601365	-0.525048	-2.228471	-0.036156	0.023235	0.057780	1.000000	-0.000007	0.000023	0.000032	-166.564208	-76.341531	157.193009
04154	9.582852	-0.522492	-2.265785	0.004305	0.018444	0.048219	1.000000	-0.000006	0.000033	0.000036	-166.559904	-76.342572	157.188895
04155	9.577148	-0.539454	-2.248108	-0.014248	0.004022	0.039548	1.000000	-0.000008	0.000016	0.000035	-166.558274	-76.341754	157.189268
04156	9.606716	-0.528143	-2.261142	-0.006193	0.015870	0.070652	1.000000	0.000012	0.000032	0.000020	-166.559315	-76.343151	157.192686
04157	9.601022	-0.545012	-2.243425	-0.024755	0.001446	0.061978	1.000000	-0.000024	0.000020	0.000041	-166.556446	-76.342623	157.192538
04158	9.581822	-0.560029	-2.297774	0.029133	-0.023287	0.056625	1.000000	-0.000015	0.000024	0.000031	-166.556408	-76.342762	157.191711
04159	9.577471	-0.541598	-2.246213	-0.016272	0.002196	0.039545	1.000000	0.000003	0.000033	0.000019	-166.558690	-76.344215	157.200488
04160	9.583355	-0.525767	-2.262897	0.001270	0.015710	0.048224	1.000000	-0.000007	0.000023	0.000032	-166.557498	-76.344252	157.199447
04161	9.559052	-0.539445	-2.283096	0.023697	-0.003029	0.029997	1.000000	-0.000015	0.000024	0.000031	-166.557467	-76.344410	157.200133
04162	9.601436	-0.547619	-2.241017	-0.027271	-0.000846	0.061971	1.000000	-0.000014	0.000031	0.000028	-166.557902	-76.345405	157.199910
04163	9.582960	-0.544903	-2.278295	0.013202	-0.005611	0.052426	1.000000	-0.000014	0.000031	0.000028	-166.558284	-76.346429	157.198172
04164	9.583064	-0.545430	-2.277731	0.012701	-0.006067	0.052427	1.000000	0.000003	0.000029	0.000029	-166.556412	-76.347219	157.197519
04165	9.560736	-0.506215	-2.247346	-0.005157	0.035055	0.021602	1.000000	-0.000017	0.000004	0.000023	-166.562625	-76.345356	157.204740
04166	9.577991	-0.545041	-2.243163	-0.019769	-0.000999	0.039539	1.000000	-0.000008	0.000013	0.000028	-166.564547	-76.344390	157.206772
04167	9.583201	-0.546743	-2.276843	0.011199	-0.007437	0.052428	1.000000	-0.000005	0.000034	0.000019	-166.567925	-76.346004	157.211642
04168	9.583300	-0.547227	-2.276311	0.010698	-0.007893	0.052428	1.000000	0.000002	0.000022	0.000032	-166.565578	-76.345938	157.210384
04169	9.584740	-0.512530	-2.241928	-0.016666	0.031550	0.044031	1.000000	-0.000021	0.000038	0.000025	-166.567652	-76.347900	157.212067
04170	9.583498	-0.548207	-2.275237	0.009697	-0.008805	0.052428	1.000000	-0.000016	0.000017	0.000034	-166.567138	-76.347184	157.210635
04171	9.578414	-0.547411	-2.240780	-0.022269	-0.003285	0.039533	1.000000	-0.000015	0.000021	0.000024	-166.570693	-76.347187	157.213655
04172	9.560563	-0.527140	-2.261394	0.004773	0.011917	0.025808	1.000000	0.000001	0.000015	0.000035	-166.567872	-76.346265	157.211791
04173	9.584342	-0.532256	-2.257193	-0.005239	0.009774	0.048231	1.000000	-0.000022	0.000034	0.000035	-166.565885	-76.347513	157.208474
04174	9.583799	-0.550397	-2.273439	0.007694	-0.010630	0.052428	1.000000	0.000004	0.000036	0.000027	-166.564484	-76.349159	157.208424
04175	9.584546	-0.533242	-2.256093	-0.006238	0.008861	0.048231	1.000000	-0.000008	0.000010	0.000021	-166.569985	-76.348065	157.213144
04176	9.584592	-0.533711	-2.255788	-0.006740	0.008405	0.048231	1.000000	-0.000007	0.000023	0.000032	-166.568790	-76.348102	157.212100
04177	9.578862	-0.550579	-2.238084	-0.025267	-0.006026	0.039525	1.000000	-0.000006	0.000030	0.000029	-166.568083	-76.349006	157.212613
04178	9.560389	-0.547869	-2.275482	0.015211	-0.010762	0.030008	1.000000	0.000001	0.000019	0.000025	-166.569325	-76.348793	157.215034
04179	9.590656	-0.518902	-2.271594	0.009773	0.021011	0.056940	1.000000	-0.000006	0.000027	0.000022	-166.572259	-76.349493	157.222400
04180	9.554736	-0.565126	-2.257340	-0.003819	-0.025646	0.021298	1.000000	-0.000023	0.000027	0.000038	-166.569781	-76.349883	157.218107
04181	9.590806	-0.519961	-2.270720	0.008765	0.020098	0.056943	1.000000	-0.000008	0.000013	0.000028	-166.571756	-76.348902	157.221770
04182	9.590222	-0.538016	-2.287161	0.021702	-0.000304	0.061140	1.000000	-0.000013	0.000038	0.000025	-166.572662	-76.350753	157.222151
04183	9.560784	-0.550283	-2.273237	0.012711	-0.013036	0.030009	1.000000	-0.000008	0.000013	0.000028	-166.574502	-76.349839	157.221478
04184	9.556342	-0.531878	-2.221905	-0.032689	0.012424	0.012902	1.000000	-0.000007	0.000020	0.000025	-166.576897	-76.349728	157.224114
04185	9.591744	-0.504320	-2.252227	-0.006668	0.038213	0.052753	1.000000	0.000001	0.000015	0.000035	-166.574103	-76.348855	157.223490
04186	9.554424	-0.585822	-2.271954	0.006642	-0.048326	0.025483	1.000000	-0.000015	0.000024	0.000031	-166.574061	-76.348995	157.222662
04187	9.597718	-0.489166	-2.268566	0.010344	0.051276	0.061478	1.000000	0.000003	0.000029	0.000029	-166.572199	-76.349786	157.222314
04188	9.561102	-0.552876	-2.271271	0.010219	-0.015315	0.030009	1.000000	-0.000040	0.000023	0.000022	-166.579210	-76.350088	157.225817
04189	9.603385	-0.561001	-2.229329	-0.040791	-0.013222	0.061916	1.000000	-0.000008	0.000013	0.000028	-166.581110	-76.349148	157.227605
04190	9.568399	-0.502188	-2.253952	0.000353	0.037640	0.030348	1.000000	-0.000006	0.000027	0.000022	-166.583977	-76.349893	157.230845
04191	9.566824	-0.625199	-2.231613	-0.041405	-0.080272	0.030429	1.000000	-0.000006	0.000030	0.000029	-166.583331	-76.350765	157.233013
04192	9.616321	-0.424870	-2.301035	0.048417	0.110871	0.083487	1.000000	-0.000007	0.000023	0.000032	-166.582134	-76.350802	157.231967
04193	9.521244	-0.651793	-2.131856	-0.131797	-0.095497	-0.035303	1.000000	-0.000015	0.000021	0.000024	-166.585646	-76.350862	157.231891
04194	9.615110	-0.461051	-2.334120	0.074309	0.070068	0.091887	1.000000	-0.000008	0.000016	0.000035	-166.583975	-76.350043	157.230240
04195	9.572898	-0.610879	-2.247273	-0.025373	-0.068121	0.039140	1.000000	-0.000015	0.000018	0.000017	-166.591056	-76.349934	157.234326
04196	9.591854	-0.527192	-2.264615	0.001269	0.013242	0.056958	1.000000	-0.000023	0.000027	0.000038	-166.588577	-76.350325	157.230032
04197	9.568910	-0.505698	-2.250998	-0.003132	0.034444	0.030359	1.000000	0.000002	0.000022	0.000032	-166.586228	-76.350307	157.227271
04198	9.580305	-0.561004	-2.229305	-0.035744	-0.015629	0.039482	1.000000	0.000011	0.000025	0.000023	-166.586784	-76.350844	157.230077
04199	9.603799	-0.496207	-2.297609	0.035788	0.039823	0.074441	1.000000	-0.000031	0.000025	0.000030	-166.589068	-76.351204	157.229947
04200	9.568091	-0.612187	-2.210865	-0.059311	-0.064443	0.026184	1.000000	0.000003	0.000029	0.000029	-166.587187	-76.351992	157.229288
04201	9.568328	-0.455474	-2.338487	0.089879	0.070315	0.047123	1.000000	-0.000014	0.000028	0.000021	-166.591213	-76.352869	157.232571
04202	9.563096	-0.611809	-2.175683	-0.091754	-0.059395	0.013236	1.000000	-0.000006	0.000030	0.000029	-166.590487	-76.353761	157.232129
04203	9.580497	-0.493605	-2.299333	0.043331	0.039721	0.052050	1.000000	0.000010	0.000018	0.000026	-166.590522	-76.353496	157.231925
04204	9.582132	-0.528808	-2.192655	-0.065624	0.021510	0.031086	1.000000	-0.000041	0.000015	0.000042	-166.589405	-76.352384	157.226856
04205	9.567511	-0.562796	-2.298106	0.033221	-0.029031	0.042938	1.000000	0.000018	0.000026	0.000048	-166.577568	-76.352448	157.217377
04206	9.599835	-0.481307	-2.243416	-0.012613	0.062527	0.057335	1.000000	-0.000015	0.000018	0.000017	-166.584707	-76.352293	157.223912
04207	9.555909	-0.596445	-2.262927	-0.003781	-0.057899	0.025433	1.000000	-0.000015	0.000024	0.000031	-166.584720	-76.352432	157.225292
04208	9.622954	-0.504464	-2.255885	-0.009724	0.039936	0.083931	1.000000	-0.000000	0.000008	0.000038	-166.581420	-76.350654	157.222818
04209	9.567025	-0.582550	-2.313699	0.044705	-0.051016	0.047127	1.000000	-0.000007	0.000017	0.000018	-166.592004	-76.351114	157.226523
04210	9.593506	-0.517241	-2.241767	-0.019135	0.026560	0.052775	1.000000	-0.000006	0.000033	0.000036	-166.587694	-76.352155	157.222395
04211	9.598116	-0.536812	-2.292246	0.025260	0.000195	0.069911	1.000000	0.000002	0.000025	0.000040	-166.581776	-76.352255	157.217553
04212	9.562751	-0.565629	-2.261166	-0.001685	-0.026478	0.029990	1.000000	-0.000007	0.000026	0.000039	-166.576992	-76.352441	157.212820
04213	9.569396	-0.532234	-2.260928	0.002364	0.006985	0.034564	1.000000	-0.000022	0.000028	0.000020	-166.582166	-76.353399	157.216783
04214	9.569447	-0.532746	-2.260592	0.001864	0.006530	0.034564	1.000000	-0.000000	0.000008	0.000038	-166.578875	-76.351622	157.214306
04215	9.575396	-0.517036	-2.277351	0.019361	0.020049	0.043330	1.000000	-0.000005	0.000037	0.000026	-166.578667	-76.353394	157.214510
04216	9.586737	-0.572260	-2.255585	-0.013237	-0.030047	0.052382	1.000000	-0.000007	0.000020	0.000025	-166.581067	-76.353285	157.217142
04217	9.588182	-0.537623	-2.221238	-0.040637	0.009376	0.044007	1.000000	-0.000014	0.000034	0.000035	-166.577886	-76.354435	157.213385
04218	9.558024	-0.567508	-2.224229	-0.036120	-0.023253	0.017025	1.000000	-0.000023	0.000024	0.000031	-166.579005	-76.354682	157.212770
04219	9.593556	-0.539972	-2.254374	-0.010193	0.002500	0.056962	1.000000	-0.000007	0.000023	0.000032	-166.577796	-76.354739	157.211708
04220	9.575133	-0.537309	-2.291909	0.030309	-0.002168	0.047525	1.000000	0.000001	0.000015	0.000035	-166.574975	-76.353817	157.209835
04221	9.564081	-0.552957	-2.240257	-0.019623	-0.010646	0.025791	1.000000	-0.000015	0.000024	0.000031	-166.575004	-76.353963	157.211906
04222	9.575941	-0.520861	-2.274185	0.015853	0.016858	0.043343	1.000000	-0.000015	0.000024	0.000031	-166.574967	-76.354105	157.211072
04223	9.582006	-0.574921	-2.218420	-0.048177	-0.027295	0.039403	1.000000	-0.000007	0.000023	0.000032	-166.573824	-76.354136	157.211583
04224	9.575382	-0.539531	-2.290345	0.028303	-0.003992	0.047530	1.000000	-0.000008	0.000013	0.000028	-166.575752	-76.353172	157.213611
04225	9.587998	-0.559752	-2.234904	-0.031187	-0.014230	0.048177	1.000000	-0.000007	0.000026	0.000039	-166.570942	-76.353377	157.208723
04226	9.569585	-0.557053	-2.272442	0.009320	-0.018884	0.038750	1.000000	-0.000008	0.000013	0.000028	-166.572870	-76.352413	157.210750
04227	9.569615	-0.557522	-2.272202	0.008817	-0.019340	0.038750	1.000000	-0.000016	0.000014	0.000027	-166.575981	-76.351533	157.214807
04228	9.576269	-0.524141	-2.272052	0.012842	0.014123	0.043351	1.000000	0.000003	0.000029	0.000030	-166.574100	-76.352322	157.214138
04229	9.587512	-0.579506	-2.250437	-0.019735	-0.035998	0.052351	1.000000	0.000009	0.000011	0.000029	-166.573752	-76.351150	157.217776
04230	9.575709	-0.542748	-2.288216	0.025297	-0.006725	0.047537	1.000000	-0.000022	0.000028	0.000020	-166.578932	-76.352106	157.221447
04231	9.570558	-0.542011	-2.253675	-0.006638	-0.001231	0.034564	1.000000	-0.000008	0.000019	0.000042	-166.573686	-76.351459	157.216771
04232	9.569944	-0.560236	-2.270146	0.006321	-0.021621	0.038747	1.000000	-0.000006	0.000030	0.000029	-166.572961	-76.352352	157.216321
04233	9.575923	-0.544434	-2.286922	0.023795	-0.008095	0.047540	1.000000	-0.000008	0.000013	0.000028	-166.574978	-76.351375	157.220695
04234	9.570056	-0.561190	-2.269439	0.005319	-0.022535	0.038745	1.000000	-0.000015	0.000021	0.000024	-166.578531	-76.351370	157.223544
04235	9.581285	-0.546628	-2.320251	0.054231	-0.014953	0.060520	1.000000	0.000003	0.000029	0.000030	-166.576658	-76.352160	157.224876
04236	9.571595	-0.526981	-2.234640	-0.022606	0.016418	0.030380	1.000000	-0.000023	0.000021	0.000023	-166.581368	-76.352260	157.227944
04237	9.600590	-0.533387	-2.264444	-0.001247	0.008242	0.065747	1.000000	0.000011	0.000031	0.000037	-166.574671	-76.353108	157.221347
04238	9.582273	-0.530658	-2.301694	0.039267	0.003613	0.056345	1.000000	-0.000013	0.000038	0.000025	-166.575570	-76.354961	157.221718
04239	9.571204	-0.546115	-2.249940	-0.010640	-0.004883	0.034560	1.000000	-0.000024	0.000014	0.000026	-166.579829	-76.354210	157.225229
04240	9.577179	-0.530316	-2.266776	0.006829	0.008647	0.043364	1.000000	0.000002	0.000022	0.000032	-166.577476	-76.354142	157.223956
04241	9.601604	-0.517870	-2.245638	-0.016717	0.026342	0.061567	1.000000	-0.000007	0.000020	0.000025	-166.579859	-76.354059	157.226374
04242	9.577997	-0.513788	-2.249045	-0.007634	0.027665	0.039185	1.000000	-0.000007	0.000023	0.000032	-166.578663	-76.354097	157.225320
04243	9.571449	-0.548253	-2.248377	-0.012638	-0.006709	0.034556	1.000000	-0.000007	0.000023	0.000032	-166.577483	-76.354134	157.225395
04244	9.583382	-0.516092	-2.282310	0.022794	0.020808	0.052177	1.000000	-0.000023	0.000021	0.000023	-166.582193	-76.354234	157.228464
04245	9.601201	-0.537576	-2.260860	-0.005266	0.004578	0.065748	1.000000	-0.000015	0.000030	0.000045	-166.575044	-76.354650	157.222540
04246	9.571650	-0.549936	-2.247110	-0.014142	-0.008080	0.034553	1.000000	-0.000008	0.000013	0.000028	-166.576970	-76.353686	157.224567
04247	9.577618	-0.534187	-2.264012	0.003328	0.005450	0.043368	1.000000	-0.000008	0.000016	0.000035	-166.575275	-76.352912	157.222410
04248	9.600650	-0.556969	-2.276770	0.006703	-0.016725	0.069927	1.000000	-0.000007	0.000023	0.000032	-166.574077	-76.352949	157.221355
04249	9.583677	-0.518992	-2.280415	0.020292	0.018525	0.052187	1.000000	-0.000007	0.000020	0.000025	-166.576448	-76.352867	157.223800
04250	9.577115	-0.553454	-2.279754	0.015299	-0.015849	0.047547	1.000000	-0.000007	0.000026	0.000039	-166.571656	-76.353052	157.219062
04251	9.601532	-0.541233	-2.258581	-0.008268	0.001830	0.065747	1.000000	-0.000008	0.000019	0.000042	-166.566417	-76.352377	157.214840
04252	9.601583	-0.541840	-2.258218	-0.008770	0.001372	0.065746	1.000000	-0.000007	0.000020	0.000025	-166.568811	-76.352268	157.217469
04253	9.577972	-0.537629	-2.261696	0.000332	0.002711	0.043369	1.000000	0.000001	0.000016	0.000018	-166.573590	-76.351940	157.220166
04254	9.549127	-0.532265	-2.230950	-0.021999	0.009992	0.007989	1.000000	-0.000005	0.000033	0.000036	-166.569266	-76.352980	157.216029
04255	9.577430	-0.556289	-2.277738	0.012801	-0.018130	0.047547	1.000000	-0.000008	0.000013	0.000028	-166.571194	-76.352016	157.219150
04256	9.578838	-0.521600	-2.243660	-0.014643	0.021270	0.039192	1.000000	0.000000	0.000009	0.000021	-166.575556	-76.350799	157.224640
04257	9.601855	-0.544282	-2.256472	-0.011274	-0.000914	0.065744	1.000000	-0.000007	0.000023	0.000032	-166.574321	-76.350830	157.222961
04258	9.578252	-0.540200	-2.259897	-0.002174	0.000431	0.043370	1.000000	0.000001	0.000019	0.000025	-166.575557	-76.350615	157.225369
04259	9.613883	-0.512926	-2.290014	0.023634	0.026147	0.083411	1.000000	0.000001	0.000021	0.000050	-166.565534	-76.350026	157.214681
04260	9.602036	-0.546125	-2.255257	-0.012774	-0.002289	0.065742	1.000000	-0.000014	0.000025	0.000014	-166.573145	-76.350731	157.221814
04261	9.583701	-0.543300	-2.292784	0.027760	-0.006879	0.056382	1.000000	0.000009	0.000017	0.000043	-166.565541	-76.349880	157.214645
04262	9.579169	-0.525237	-2.241394	-0.017638	0.018530	0.039193	1.000000	-0.000024	0.000020	0.000041	-166.562595	-76.349421	157.209745
04263	9.571871	-0.577307	-2.257711	-0.009133	-0.035773	0.038703	1.000000	-0.000007	0.000023	0.000032	-166.561374	-76.349521	157.206814
04264	9.602279	-0.548637	-2.253611	-0.014766	-0.004123	0.065738	1.000000	0.000003	0.000029	0.000030	-166.559483	-76.350309	157.206138
04265	9.579432	-0.526942	-2.239870	-0.019130	0.017157	0.039193	1.000000	-0.000013	0.000038	0.000025	-166.560361	-76.352169	157.206622
04266	9.602503	-0.549552	-2.252435	-0.015768	-0.005039	0.065737	1.000000	-0.000015	0.000021	0.000024	-166.563912	-76.352165	157.209470
04267	9.573634	-0.544216	-2.221736	-0.038069	0.002255	0.030346	1.000000	-0.000006	0.000026	0.000039	-166.559060	-76.352409	157.202110
04268	9.585625	-0.511976	-2.255774	-0.002676	0.029775	0.048040	1.000000	-0.000016	0.000005	0.000006	-166.572924	-76.351110	157.215409
04269	9.567027	-0.578734	-2.221086	-0.043535	-0.032573	0.025666	1.000000	-0.000008	0.000013	0.000028	-166.574774	-76.350175	157.216321
04270	9.579010	-0.546749	-2.255106	-0.008144	-0.005052	0.043365	1.000000	-0.000008	0.000019	0.000042	-166.569513	-76.349504	157.210980
04271	9.579078	-0.547328	-2.254677	-0.008641	-0.005509	0.043364	1.000000	-0.000006	0.000027	0.000022	-166.572345	-76.350274	157.213203
04272	9.561475	-0.526823	-2.275233	0.018419	0.009843	0.029852	1.000000	0.000002	0.000019	0.000025	-166.573578	-76.350058	157.215609
04273	9.584466	-0.549617	-2.288074	0.021777	-0.012360	0.056392	1.000000	-0.000009	0.000009	0.000038	-166.571452	-76.348398	157.213367
04274	9.584495	-0.550205	-2.287811	0.021276	-0.012817	0.056392	1.000000	0.000002	0.000019	0.000025	-166.572685	-76.348183	157.215773
04275	9.608896	-0.537896	-2.266708	-0.002321	0.004828	0.074585	1.000000	0.000009	0.000014	0.000036	-166.568709	-76.347164	157.215255
04276	9.596973	-0.571048	-2.232062	-0.038703	-0.023609	0.056863	1.000000	-0.000023	0.000021	0.000023	-166.573414	-76.347267	157.218323
04277	9.585332	-0.534259	-2.269907	0.006297	0.005741	0.052222	1.000000	0.000009	0.000011	0.000029	-166.572986	-76.346090	157.219357
04278	9.579402	-0.551059	-2.252387	-0.012142	-0.008706	0.043358	1.000000	-0.000006	0.000027	0.000022	-166.575843	-76.346836	157.222584
04279	9.633523	-0.526944	-2.244315	-0.027443	0.021090	0.092775	1.000000	0.000004	0.000036	0.000027	-166.574498	-76.348447	157.226582
04280	9.561947	-0.530978	-2.272281	0.014413	0.006202	0.029862	1.000000	-0.000007	0.000017	0.000018	-166.580481	-76.348191	157.232891
04281	9.586360	-0.518488	-2.251159	-0.009189	0.023834	0.048053	1.000000	0.000010	0.000018	0.000026	-166.580562	-76.347913	157.235302
04282	9.562065	-0.531870	-2.271576	0.013419	0.005289	0.029864	1.000000	-0.000015	0.000021	0.000024	-166.584110	-76.347911	157.238149
04283	9.562149	-0.532354	-2.271109	0.012920	0.004833	0.029865	1.000000	0.000003	0.000029	0.000030	-166.582222	-76.348707	157.238353
04284	9.568229	-0.516559	-2.287797	0.030351	0.018370	0.038739	1.000000	-0.000007	0.000020	0.000025	-166.584611	-76.348597	157.240979
04285	9.586627	-0.520288	-2.249607	-0.011181	0.022005	0.048055	1.000000	-0.000008	0.000007	0.000014	-166.593628	-76.347409	157.246780
04286	9.562997	-0.516176	-2.253225	-0.002050	0.023387	0.025697	1.000000	0.000009	0.000017	0.000043	-166.586048	-76.346526	157.240995
04287	9.591297	-0.540220	-2.300082	0.032720	-0.004761	0.065273	1.000000	-0.000015	0.000018	0.000017	-166.593053	-76.346432	157.244260
04288	9.592081	-0.523074	-2.282699	0.018736	0.014705	0.061105	1.000000	0.000003	0.000029	0.000030	-166.591158	-76.347219	157.243583
04289	9.591452	-0.541286	-2.299183	0.031721	-0.005675	0.065275	1.000000	-0.000016	0.000020	0.000041	-166.587028	-76.346680	157.238172
04290	9.585520	-0.558213	-2.281570	0.013291	-0.020122	0.056394	1.000000	-0.000006	0.000030	0.000029	-166.586290	-76.347573	157.237716
04291	9.567948	-0.537798	-2.302140	0.040359	-0.004745	0.042923	1.000000	-0.000016	0.000017	0.000034	-166.585812	-76.346890	157.235963
04292	9.586371	-0.541685	-2.263751	-0.001190	-0.001117	0.052225	1.000000	-0.000030	0.000032	0.000027	-166.588549	-76.348103	157.236172
04293	9.585763	-0.559701	-2.280186	0.011794	-0.021493	0.056393	1.000000	-0.000015	0.000024	0.000031	-166.588444	-76.348250	157.234630
04294	9.556886	-0.554421	-2.249427	-0.010474	-0.014170	0.020983	1.000000	0.000011	0.000031	0.000037	-166.581795	-76.349077	157.230046
04295	9.562265	-0.556281	-2.283094	0.020438	-0.020555	0.034040	1.000000	-0.000016	0.000014	0.000027	-166.584836	-76.348235	157.232091
04296	9.562353	-0.556809	-2.282595	0.019938	-0.021010	0.034040	1.000000	-0.000004	0.000040	0.000033	-166.580969	-76.350131	157.228550
04297	9.586104	-0.562035	-2.278174	0.009793	-0.023319	0.056391	1.000000	0.000002	0.000019	0.000025	-166.582206	-76.349914	157.231079
04298	9.562553	-0.557845	-2.281503	0.018938	-0.021921	0.034040	1.000000	-0.000005	0.000037	0.000026	-166.581932	-76.351662	157.231222
04299	9.604660	-0.566530	-2.238990	-0.032259	-0.020159	0.065677	1.000000	-0.000022	0.000037	0.000042	-166.576309	-76.353078	157.222130
04300	9.586438	-0.563612	-2.276377	0.008293	-0.024689	0.056389	1.000000	0.000002	0.000023	0.000015	-166.581598	-76.353571	157.228819
04301	9.587275	-0.546486	-2.258762	-0.005699	-0.005224	0.052222	1.000000	-0.000003	0.000047	0.000030	-166.578199	-76.356289	157.228846
04302	9.588135	-0.529471	-2.241022	-0.019688	0.014238	0.048056	1.000000	0.000004	0.000036	0.000027	-166.576764	-76.357931	157.228766
04303	9.580814	-0.581396	-2.257142	-0.011115	-0.040053	0.047484	1.000000	-0.000014	0.000031	0.000028	-166.577113	-76.359025	157.226052
04304	9.570029	-0.527076	-2.277849	0.020381	0.009257	0.038777	1.000000	-0.000007	0.000023	0.000032	-166.575906	-76.359063	157.224992
04305	9.564091	-0.543863	-2.260176	0.001976	-0.005193	0.029873	1.000000	0.000004	0.000033	0.000020	-166.578016	-76.360618	157.226723
04306	9.595279	-0.497521	-2.239041	-0.017240	0.046317	0.052796	1.000000	-0.000015	0.000021	0.000024	-166.581565	-76.360616	157.229573
