// Start Time: Unknown
// Update Rate: 100.0Hz
// Filter Profile: human (46.1)
// Firmware Version: 4.4.0
PacketCounter	Acc_X	Acc_Y	Acc_Z	FreeAcc_X	FreeAcc_Y	FreeAcc_Z	OriInc_q0	OriInc_q1	OriInc_q2	OriInc_q3	Roll	Pitch	Yaw
36145	1.448969	-0.192259	9.709635	-0.000000	0.000000	0.006350	1.000000	-0.000045	0.000024	0.000009	-1.131705	-8.487349	45.176464
36146	1.431414	-0.176026	9.706131	-0.008022	-0.012986	-0.000007	1.000000	-0.000051	0.000038	0.000019	-1.022462	-8.472661	45.726642
36147	1.430861	-0.176931	9.706197	-0.008022	-0.012986	-0.000007	1.000000	-0.000037	0.000018	0.000015	-1.026955	-8.470555	45.728377
36148	1.432790	-0.180589	9.682080	-0.001721	-0.011103	-0.023507	1.000000	-0.000047	0.000015	0.000015	-1.032825	-8.469014	45.730151
36149	1.412719	-0.195882	9.706617	-0.007939	-0.037324	-0.001923	1.000000	-0.000051	0.000024	0.000014	-1.038939	-8.466178	45.731778
36150	1.424937	-0.174257	9.754649	-0.020756	-0.016739	0.046992	1.000000	-0.000049	0.000047	0.000036	-1.045221	-8.460669	45.735877
36151	1.431106	-0.183572	9.682273	-0.001719	-0.011091	-0.023507	1.000000	-0.000041	0.000014	0.000010	-1.050086	-8.459034	45.736967
36152	1.445371	-0.198894	9.710038	0.015522	-0.013325	0.006329	1.000000	-0.000047	0.000028	0.000020	-1.055871	-8.455583	45.739243
36153	1.444857	-0.199831	9.710095	0.015522	-0.013325	0.006329	1.000000	-0.000045	0.000024	0.000009	-1.061172	-8.452834	45.740215
36154	1.432011	-0.189151	9.658271	0.004633	-0.009148	-0.047007	1.000000	-0.000049	0.000019	0.000027	-1.067471	-8.450423	45.743281
36155	1.443829	-0.201742	9.710209	0.015515	-0.013287	0.006329	1.000000	-0.000041	0.000042	0.000019	-1.072462	-8.445620	45.745422
36156	1.446037	-0.171125	9.682222	-0.001863	0.013362	-0.021592	1.000000	-0.000047	0.000015	0.000015	-1.078450	-8.443760	45.747210
36157	1.442969	-0.203711	9.710295	0.015494	-0.013233	0.006329	1.000000	-0.000059	0.000016	0.000003	-1.085307	-8.441865	45.747545
36158	1.445144	-0.173356	9.682316	-0.001896	0.013415	-0.021592	1.000000	-0.000059	0.000044	0.000013	-1.092648	-8.436716	45.748984
36159	1.424882	-0.188603	9.706856	-0.008114	-0.012806	-0.000007	1.000000	-0.000035	0.000013	0.000004	-1.096700	-8.435169	45.749419
36160	1.426886	-0.192060	9.682731	-0.001790	-0.010873	-0.023507	1.000000	-0.000035	0.000013	0.000004	-1.101054	-8.433499	45.749898
36161	1.441686	-0.173068	9.706599	-0.008264	0.011584	0.001907	1.000000	-0.000051	0.000024	0.000014	-1.107164	-8.430665	45.751519
36162	1.440703	-0.208408	9.710532	0.015429	-0.013081	0.006329	1.000000	-0.000051	0.000024	0.000014	-1.113515	-8.427668	45.753176
36163	1.458006	-0.157894	9.706416	-0.008402	0.035971	0.003822	1.000000	-0.000035	0.000041	0.000014	-1.117693	-8.422954	45.754660
36164	1.422724	-0.192822	9.707090	-0.008164	-0.012688	-0.000007	1.000000	-0.000041	0.000000	0.000005	-1.122644	-8.422902	45.755243
36165	1.442253	-0.179286	9.682639	-0.001946	0.013532	-0.021592	1.000000	-0.000037	0.000018	0.000015	-1.127133	-8.420798	45.756973
36166	1.427176	-0.165717	9.654973	-0.019177	0.015804	-0.051428	1.000000	-0.000051	0.000024	0.000014	-1.133316	-8.417912	45.758605
36167	1.458305	-0.198341	9.686295	0.021626	0.013173	-0.015256	1.000000	-0.000039	0.000023	0.000027	-1.138241	-8.415251	45.761630
36168	1.438696	-0.179160	9.706932	-0.008298	0.011639	0.001907	1.000000	-0.000037	0.000018	0.000015	-1.142631	-8.413273	45.763345
36169	1.460372	-0.168377	9.658358	0.004267	0.039741	-0.043178	1.000000	-0.000041	0.000014	0.000010	-1.147491	-8.411640	45.764430
36170	1.440245	-0.183533	9.682858	-0.001962	0.013424	-0.021592	1.000000	-0.000041	0.000028	0.000014	-1.152065	-8.408872	45.765981
36171	1.422346	-0.201478	9.683208	-0.001834	-0.010914	-0.023507	1.000000	-0.000043	0.000019	0.000021	-1.157364	-8.406683	45.768362
36172	1.441423	-0.188084	9.658835	0.004414	0.015201	-0.045092	1.000000	-0.000049	0.000047	0.000013	-1.162586	-8.401557	45.769665
36173	1.438507	-0.186209	9.683065	-0.001931	0.013318	-0.021592	1.000000	-0.000037	0.000018	0.000015	-1.167069	-8.399452	45.771392
36174	1.440386	-0.189711	9.658958	0.004408	0.015067	-0.045092	1.000000	-0.000039	0.000023	0.000003	-1.171037	-8.397384	45.771617
36175	1.454857	-0.170831	9.682906	-0.002066	0.037523	-0.019677	1.000000	-0.000055	0.000048	0.000018	-1.177640	-8.391852	45.773637
36176	1.417456	-0.168984	9.703883	-0.031872	0.011400	-0.004428	1.000000	-0.000047	0.000028	0.000020	-1.182284	-8.389772	45.775805
36177	1.451316	-0.170075	9.707212	-0.008426	0.035362	0.003824	1.000000	-0.000045	0.000024	0.000009	-1.187572	-8.387034	45.776769
36178	1.450750	-0.171080	9.707279	-0.008303	0.035116	0.003825	1.000000	-0.000055	0.000034	0.000014	-1.192577	-8.383607	45.778045
36179	1.417975	-0.174594	9.679938	-0.025401	0.013036	-0.027927	1.000000	-0.000039	0.000037	0.000008	-1.197113	-8.379359	45.778878
36180	1.434905	-0.158520	9.679721	-0.025350	0.036999	-0.026009	1.000000	-0.000060	0.000016	0.000027	-1.202078	-8.378306	45.781671
36181	1.449154	-0.174026	9.707465	-0.008116	0.034737	0.003826	1.000000	-0.000039	0.000023	0.000003	-1.206537	-8.375639	45.781979
36182	1.450920	-0.177785	9.683372	-0.001560	0.036166	-0.019672	1.000000	-0.000065	0.000031	0.000014	-1.211478	-8.373127	45.783145
36183	1.433420	-0.161687	9.679889	-0.025129	0.036539	-0.026007	1.000000	-0.000047	0.000028	0.000020	-1.217174	-8.369813	45.785399
36184	1.428140	-0.157225	9.728282	-0.037643	0.032200	0.020995	1.000000	-0.000047	0.000042	0.000025	-1.219883	-8.366593	45.787733
36185	1.414590	-0.180711	9.680321	-0.024820	0.011632	-0.027924	1.000000	-0.000047	0.000028	0.000020	-1.225573	-8.363289	45.789987
36186	1.430952	-0.198921	9.683932	-0.000976	0.010621	-0.021589	1.000000	-0.000047	0.000028	0.000020	-1.227538	-8.361565	45.791748
36187	1.477617	-0.177566	9.735336	0.009659	0.055138	0.035588	1.000000	-0.000047	0.000028	0.000020	-1.233225	-8.358271	45.794003
36188	1.410848	-0.180830	9.704633	-0.030723	0.008350	-0.004422	1.000000	-0.000043	0.000005	-0.000007	-1.234203	-8.360161	45.792559
36189	1.429493	-0.201852	9.684087	-0.000802	0.009855	-0.021588	1.000000	-0.000063	0.000053	0.000035	-1.242001	-8.354024	45.796523
36190	1.461001	-0.200291	9.711599	0.016594	0.031343	0.010170	1.000000	-0.000031	0.000004	0.000005	-1.241977	-8.354842	45.796545
36191	1.429166	-0.169230	9.680389	-0.024212	0.033979	-0.025995	1.000000	-0.000041	0.000028	0.000014	-1.246839	-8.351662	45.798151
36192	1.443220	-0.184744	9.708151	-0.006823	0.031182	0.003839	1.000000	-0.000053	0.000029	0.000026	-1.250566	-8.349853	45.800352
36193	1.445596	-0.154133	9.680264	-0.024184	0.057782	-0.024066	1.000000	-0.000043	0.000019	0.000021	-1.255818	-8.347701	45.802729
36194	1.427223	-0.206443	9.684325	-0.000142	0.008213	-0.021586	1.000000	-0.000049	0.000020	0.000003	-1.258471	-8.346736	45.802256
36195	1.459262	-0.170615	9.708068	-0.006739	0.054986	0.005769	1.000000	-0.000051	0.000038	0.000019	-1.264603	-8.342354	45.804391
36196	1.443738	-0.191304	9.684188	-0.000093	0.031664	-0.019656	1.000000	-0.000041	0.000000	0.000005	-1.265017	-8.345301	45.804203
36197	1.475616	-0.189582	9.711660	0.017012	0.053715	0.012105	1.000000	-0.000037	0.000018	0.000015	-1.269461	-8.343255	45.805930
36198	1.441111	-0.155992	9.704671	-0.030174	0.053438	-0.000552	1.000000	-0.000051	0.000052	0.000024	-1.271578	-8.341782	45.807665
36199	1.459641	-0.176870	9.684140	-0.000265	0.054942	-0.017720	1.000000	-0.000043	0.000019	-0.000002	-1.276399	-8.339698	45.807340
36200	1.441681	-0.194800	9.684424	0.000162	0.029528	-0.019649	1.000000	-0.000043	0.000032	0.000026	-1.276006	-8.339246	45.809591
36201	1.460999	-0.181283	9.660097	0.006370	0.055744	-0.041213	1.000000	-0.000041	0.000014	0.000010	-1.280789	-8.337742	45.810684
36202	1.438535	-0.193912	9.708668	-0.006050	0.026557	0.003853	1.000000	-0.000051	0.000024	0.000014	-1.282025	-8.338763	45.811575
36203	1.425624	-0.182887	9.656898	-0.016954	0.030722	-0.049476	1.000000	-0.000035	0.000041	0.000014	-1.286129	-8.334191	45.813064
36204	1.457005	-0.181170	9.684458	0.000443	0.051696	-0.017702	1.000000	-0.000041	0.000028	0.000014	-1.285349	-8.334338	45.814103
36205	1.458956	-0.184704	9.660341	0.006776	0.053574	-0.041201	1.000000	-0.000045	0.000010	0.000004	-1.290487	-8.333330	45.814555
36206	1.439043	-0.199839	9.684714	0.000742	0.026361	-0.019640	1.000000	-0.000031	0.000004	0.000005	-1.289351	-8.336244	45.814402
36207	1.438501	-0.200672	9.684778	0.000734	0.026333	-0.019640	1.000000	-0.000051	0.000052	0.000024	-1.295484	-8.330403	45.817073
36208	1.438321	-0.167329	9.681129	-0.022842	0.049438	-0.024018	1.000000	-0.000045	0.000024	0.000009	-1.293543	-8.333967	45.817659
36209	1.437160	-0.202618	9.684936	0.000853	0.024680	-0.019636	1.000000	-0.000051	0.000038	0.000019	-1.299578	-8.329764	45.819813
36210	1.437117	-0.169267	9.681274	-0.023019	0.048270	-0.024012	1.000000	-0.000045	0.000024	0.000009	-1.300944	-8.332498	45.819496
36211	1.436608	-0.170200	9.681333	-0.023036	0.048227	-0.024012	1.000000	-0.000047	0.000028	0.000020	-1.306561	-8.329451	45.821777
36212	1.397027	-0.165717	9.726378	-0.058919	0.019318	0.014710	1.000000	-0.000053	0.000029	0.000026	-1.307418	-8.329792	45.824105
36213	1.450096	-0.186912	9.709142	-0.005571	0.044757	0.005821	1.000000	-0.000051	0.000024	0.000014	-1.313390	-8.327230	45.825743
36214	1.434861	-0.173413	9.681535	-0.022308	0.045911	-0.023999	1.000000	-0.000059	0.000044	0.000013	-1.313456	-8.324966	45.827031
36215	1.434227	-0.174283	9.681614	-0.022320	0.045860	-0.023999	1.000000	-0.000027	0.000021	0.000015	-1.316593	-8.322744	45.828775
36216	1.431440	-0.172496	9.705823	-0.028344	0.043050	-0.000495	1.000000	-0.000057	0.000025	0.000020	-1.318507	-8.322284	45.830165
36217	1.431011	-0.173530	9.705867	-0.028354	0.042998	-0.000495	1.000000	-0.000043	0.000019	0.000021	-1.323625	-8.320362	45.832566
36218	1.466691	-0.211507	9.688811	0.025391	0.042881	-0.011336	1.000000	-0.000035	0.000027	0.000009	-1.321397	-8.321566	45.832683
36219	1.412999	-0.157831	9.702479	-0.051688	0.042053	-0.006815	1.000000	-0.000041	0.000041	0.000019	-1.326175	-8.317071	45.834839
36220	1.446382	-0.193195	9.709573	-0.004188	0.040266	0.005842	1.000000	-0.000041	0.000000	0.000005	-1.325327	-8.319869	45.834768
36221	1.445933	-0.193993	9.709624	-0.004199	0.040207	0.005842	1.000000	-0.000037	0.000045	0.000025	-1.329727	-8.314903	45.837567
36222	1.413354	-0.197388	9.682177	-0.021212	0.017238	-0.025944	1.000000	-0.000058	0.000011	0.000015	-1.332223	-8.317186	45.837961
36223	1.430474	-0.181429	9.682037	-0.021353	0.041511	-0.023977	1.000000	-0.000051	0.000024	0.000014	-1.338123	-8.314679	45.839603
36224	1.444557	-0.197030	9.709767	-0.003582	0.037539	0.005853	1.000000	-0.000045	0.000024	0.000009	-1.334311	-8.316741	45.840786
36225	1.463314	-0.217968	9.689179	0.026320	0.039014	-0.011322	1.000000	-0.000057	0.000025	0.000020	-1.340954	-8.314186	45.843082
36226	1.429236	-0.184450	9.682163	-0.020331	0.038177	-0.023962	1.000000	-0.000043	0.000005	0.000016	-1.337308	-8.318338	45.845095
36227	1.463405	-0.185593	9.685532	0.003113	0.062035	-0.015664	1.000000	-0.000047	0.000015	0.000015	-1.342633	-8.317018	45.846867
36228	1.459875	-0.218264	9.713436	0.021655	0.034114	0.012184	1.000000	-0.000049	0.000047	0.000013	-1.338202	-8.312068	45.849960
36229	1.443012	-0.167598	9.706313	-0.025622	0.059130	0.001524	1.000000	-0.000045	0.000010	0.000004	-1.343000	-8.311262	45.850430
36230	1.442154	-0.202747	9.710007	-0.001465	0.032696	0.005870	1.000000	-0.000037	0.000018	0.000015	-1.338467	-8.314557	45.852316
36231	1.444773	-0.171831	9.682213	-0.018832	0.059260	-0.021963	1.000000	-0.000041	0.000014	0.000010	-1.342818	-8.313324	45.853435
36232	1.473397	-0.202016	9.737611	0.015824	0.052862	0.037680	1.000000	-0.000043	0.000032	0.000026	-1.340396	-8.316195	45.855576
36233	1.426354	-0.190576	9.682470	-0.018534	0.033094	-0.023940	1.000000	-0.000037	0.000018	0.000015	-1.344315	-8.314558	45.857347
36234	1.442739	-0.208719	9.686039	0.005644	0.031693	-0.017619	1.000000	-0.000049	0.000033	0.000008	-1.343288	-8.312499	45.858713
36235	1.457394	-0.190024	9.710107	-0.000794	0.053946	0.007871	1.000000	-0.000047	0.000015	0.000015	-1.348357	-8.311225	45.860487
36236	1.442509	-0.176113	9.682474	-0.018095	0.054535	-0.021934	1.000000	-0.000027	0.000021	0.000015	-1.344595	-8.316384	45.861961
36237	1.458666	-0.194338	9.686075	0.005500	0.054012	-0.015617	1.000000	-0.000063	0.000053	0.000035	-1.351814	-8.310732	45.865968
36238	1.456162	-0.158449	9.706683	-0.024594	0.075414	0.003571	1.000000	-0.000039	0.000023	0.000003	-1.350925	-8.314053	45.865201
36239	1.423070	-0.195939	9.682846	-0.017993	0.028575	-0.023924	1.000000	-0.000041	0.000028	0.000014	-1.355211	-8.311394	45.866861
36240	1.437689	-0.177156	9.706934	-0.024151	0.049482	0.001581	1.000000	-0.000045	0.000024	0.000009	-1.353185	-8.313574	45.868172
36241	1.439508	-0.180589	9.682838	-0.017812	0.051304	-0.021916	1.000000	-0.000037	0.000032	0.000020	-1.357065	-8.310468	45.870478
36242	1.436513	-0.178861	9.707076	-0.023627	0.047736	0.001591	1.000000	-0.000049	0.000033	0.000008	-1.353974	-8.311265	45.872003
36243	1.455706	-0.165382	9.682873	-0.017418	0.073883	-0.019899	1.000000	-0.000049	0.000033	0.000008	-1.358970	-8.308014	45.872902
36244	1.420801	-0.166039	9.679551	-0.040194	0.048859	-0.028212	1.000000	-0.000039	0.000022	0.000027	-1.356518	-8.307163	45.876928
36245	1.419880	-0.201227	9.683206	-0.016456	0.023978	-0.023909	1.000000	-0.000045	0.000010	0.000004	-1.360985	-8.306581	45.877422
36246	1.472003	-0.150919	9.682893	-0.016472	0.094852	-0.017856	1.000000	-0.000039	0.000023	0.000003	-1.355003	-8.311323	45.877684
36247	1.419617	-0.168615	9.679681	-0.039758	0.046406	-0.028198	1.000000	-0.000049	0.000033	0.000031	-1.360304	-8.308127	45.881298
36248	1.438270	-0.189427	9.659094	-0.009691	0.047034	-0.045380	1.000000	-0.000041	0.000028	0.000014	-1.360558	-8.308311	45.882499
36249	1.450602	-0.168113	9.707353	-0.022444	0.067217	0.003635	1.000000	-0.000047	0.000014	0.000015	-1.365377	-8.307252	45.884295
36250	1.412885	-0.200611	9.731763	-0.028047	0.014331	0.023100	1.000000	-0.000051	0.000024	0.000014	-1.360285	-8.312054	45.886224
36251	1.415223	-0.169797	9.704072	-0.045415	0.040847	-0.004682	1.000000	-0.000041	0.000041	0.000019	-1.364317	-8.307991	45.888426
36252	1.433734	-0.190642	9.683502	-0.015069	0.040147	-0.021859	1.000000	-0.000055	0.000034	0.000014	-1.359405	-8.311971	45.891005
36253	1.445430	-0.203783	9.735369	-0.004095	0.035542	0.031444	1.000000	-0.000045	0.000010	0.000004	-1.363606	-8.311610	45.891525
36254	1.448131	-0.172983	9.707637	-0.020844	0.059776	0.003687	1.000000	-0.000049	0.000019	0.000026	-1.356606	-8.317188	45.896032
36255	1.427896	-0.188417	9.731929	-0.026988	0.033204	0.025148	1.000000	-0.000043	0.000018	0.000021	-1.360751	-8.315878	45.898499
36256	1.467202	-0.160445	9.683468	-0.014621	0.083539	-0.017750	1.000000	-0.000051	0.000024	0.000014	-1.357154	-8.322904	45.900292
36257	1.447059	-0.175806	9.707746	-0.020768	0.056943	0.003704	1.000000	-0.000037	0.000004	0.000010	-1.360378	-8.323352	45.901599
36258	1.434095	-0.198859	9.659525	-0.006858	0.034605	-0.045326	1.000000	-0.000049	0.000019	0.000026	-1.353114	-8.325021	45.907449
36259	1.448685	-0.180329	9.683660	-0.013269	0.056643	-0.019777	1.000000	-0.000055	0.000034	0.000014	-1.358321	-8.322074	45.909043
36260	1.445784	-0.178802	9.707881	-0.018440	0.053432	0.003728	1.000000	-0.000049	0.000020	0.000003	-1.354136	-8.320131	45.911616
36261	1.430309	-0.199252	9.683835	-0.011930	0.030845	-0.021821	1.000000	-0.000037	0.000018	0.000015	-1.357220	-8.318989	45.913442
36262	1.464127	-0.200351	9.687314	0.012210	0.053565	-0.013461	1.000000	-0.000045	0.000037	0.000014	-1.354543	-8.316935	45.915388
36263	1.446653	-0.184086	9.683893	-0.011311	0.053674	-0.019758	1.000000	-0.000057	0.000025	0.000020	-1.359997	-8.314985	45.917746
36264	1.446228	-0.185117	9.683937	-0.011101	0.052397	-0.019751	1.000000	-0.000043	0.000018	0.000021	-1.359108	-8.317358	45.919208
36265	1.463268	-0.168948	9.683919	-0.011182	0.076432	-0.017688	1.000000	-0.000041	0.000028	0.000014	-1.362548	-8.315132	45.920915
36266	1.430754	-0.172120	9.656399	-0.027185	0.053197	-0.049534	1.000000	-0.000047	0.000028	0.000020	-1.357871	-8.312804	45.926232
36267	1.442290	-0.185306	9.708279	-0.016136	0.048443	0.003758	1.000000	-0.000047	0.000028	0.000020	-1.362048	-8.310467	45.928584
36268	1.446523	-0.191290	9.660015	-0.003514	0.050001	-0.043224	1.000000	-0.000041	0.000028	0.000014	-1.356489	-8.317900	45.928638
36269	1.443580	-0.189679	9.684243	-0.009748	0.047644	-0.019725	1.000000	-0.000053	0.000029	0.000002	-1.360956	-8.315581	45.928943
36270	1.442840	-0.190721	9.684333	-0.008849	0.046537	-0.019719	1.000000	-0.000049	0.000046	0.000036	-1.358741	-8.311127	45.935592
36271	1.442249	-0.191659	9.684403	-0.008769	0.046218	-0.019718	1.000000	-0.000041	0.000014	0.000010	-1.361930	-8.310529	45.936779
36272	1.439449	-0.189952	9.708611	-0.013377	0.042378	0.003791	1.000000	-0.000041	0.000028	0.000014	-1.352131	-8.307947	45.942470
36273	1.422138	-0.173504	9.705176	-0.036865	0.042439	-0.002496	1.000000	-0.000043	0.000018	0.000021	-1.355621	-8.306774	45.944945
36274	1.458431	-0.177252	9.684500	-0.007752	0.067287	-0.017618	1.000000	-0.000047	0.000028	0.000020	-1.359378	-8.310871	45.943772
36275	1.438030	-0.192683	9.708767	-0.013816	0.040575	0.003798	1.000000	-0.000045	0.000024	0.000009	-1.362901	-8.309197	45.944840
36276	1.437451	-0.193485	9.708837	-0.013407	0.038451	0.003807	1.000000	-0.000033	0.000035	0.000026	-1.356546	-8.312362	45.948859
36277	1.439849	-0.162673	9.681227	-0.030755	0.064881	-0.023886	1.000000	-0.000065	0.000030	0.000013	-1.362426	-8.309935	45.950466
36278	1.439438	-0.163567	9.681273	-0.030494	0.063512	-0.023876	1.000000	-0.000023	0.000011	0.000016	-1.358506	-8.313308	45.950632
36279	1.438356	-0.198634	9.684841	-0.006667	0.038434	-0.019682	1.000000	-0.000049	0.000033	0.000008	-1.362360	-8.310607	45.951590
36280	1.420949	-0.182246	9.681424	-0.029059	0.035942	-0.025954	1.000000	-0.000045	0.000024	0.000009	-1.350515	-8.315198	45.956775
36281	1.417952	-0.180630	9.705659	-0.035251	0.033491	-0.002455	1.000000	-0.000045	0.000037	0.000014	-1.353855	-8.312080	45.958384
36282	1.456446	-0.186789	9.660864	0.001475	0.058732	-0.041046	1.000000	-0.000037	0.000031	0.000020	-1.343611	-8.317548	45.962681
36283	1.436698	-0.167788	9.681608	-0.028299	0.056648	-0.023827	1.000000	-0.000043	0.000018	0.000021	-1.346781	-8.316641	45.965187
36284	1.433839	-0.166142	9.705825	-0.035471	0.052167	-0.000320	1.000000	-0.000041	0.000027	0.000014	-1.345555	-8.327257	45.962353
36285	1.435758	-0.169444	9.681719	-0.029083	0.053833	-0.023814	1.000000	-0.000039	0.000023	0.000003	-1.347899	-8.326003	45.962813
36286	1.449737	-0.185155	9.709413	-0.011801	0.049239	0.005977	1.000000	-0.000051	0.000024	0.000014	-1.345349	-8.332166	45.963370
36287	1.449451	-0.186114	9.709438	-0.011711	0.048805	0.005979	1.000000	-0.000043	0.000005	0.000016	-1.348406	-8.333040	45.965377
36288	1.434611	-0.172118	9.681842	-0.028153	0.048945	-0.023785	1.000000	-0.000038	0.000037	0.000008	-1.339524	-8.335278	45.968441
36289	1.431660	-0.170450	9.706072	-0.034348	0.046396	-0.000287	1.000000	-0.000043	0.000018	0.000021	-1.342540	-8.334618	45.970979
36290	1.448082	-0.188808	9.709590	-0.010291	0.045514	0.005996	1.000000	-0.000057	0.000025	0.000020	-1.345486	-8.331818	45.973998
36291	1.449979	-0.192372	9.685481	-0.003902	0.047171	-0.017498	1.000000	-0.000047	0.000028	0.000020	-1.348946	-8.330018	45.976411
36292	1.430172	-0.173452	9.706238	-0.032608	0.043872	-0.000269	1.000000	-0.000041	0.000027	0.000014	-1.342227	-8.328754	45.980143
36293	1.448869	-0.194339	9.685607	-0.002621	0.045124	-0.017488	1.000000	-0.000065	0.000030	0.000013	-1.347589	-8.326696	45.981791
36294	1.463484	-0.175866	9.709826	-0.009131	0.064650	0.008166	1.000000	-0.000037	0.000018	0.000015	-1.341268	-8.336256	45.982709
36295	1.428823	-0.176343	9.706385	-0.032459	0.040259	-0.000253	1.000000	-0.000041	0.000014	0.000010	-1.343716	-8.336208	45.983958
36296	1.470027	-0.185003	9.637405	0.010941	0.068461	-0.062304	1.000000	-0.000047	0.000028	0.000020	-1.336071	-8.337121	45.989787
36297	1.430196	-0.180656	9.682339	-0.024943	0.039817	-0.023735	1.000000	-0.000045	0.000037	0.000014	-1.338917	-8.334402	45.991444
36298	1.443888	-0.196413	9.710064	-0.007144	0.035178	0.006041	1.000000	-0.000045	0.000037	0.000014	-1.333421	-8.337037	45.993919
36299	1.445682	-0.199760	9.685973	-0.000744	0.036807	-0.017453	1.000000	-0.000041	0.000027	0.000014	-1.335773	-8.335472	45.995701
36300	1.428384	-0.183319	9.682557	-0.024984	0.035098	-0.023717	1.000000	-0.000049	0.000020	0.000003	-1.335498	-8.344845	45.992940
36301	1.442338	-0.199111	9.710239	-0.007568	0.032050	0.006052	1.000000	-0.000041	0.000027	0.000038	-1.338285	-8.343384	45.997443
36302	1.427426	-0.185216	9.682662	-0.025438	0.033021	-0.023711	1.000000	-0.000051	0.000024	0.000014	-1.340323	-8.349554	45.994808
36303	1.444621	-0.169061	9.682716	-0.025498	0.056820	-0.021537	1.000000	-0.000033	0.000008	0.000016	-1.341813	-8.350367	45.996850
36304	1.444227	-0.169855	9.682761	-0.024784	0.055251	-0.021527	1.000000	-0.000043	0.000032	0.000026	-1.337601	-8.350346	45.999911
36305	1.440534	-0.202606	9.710434	-0.007212	0.027857	0.006065	1.000000	-0.000041	0.000027	0.000014	-1.339896	-8.348957	46.001715
36306	1.444903	-0.208396	9.662156	0.005062	0.030351	-0.040918	1.000000	-0.000045	0.000023	0.000009	-1.339007	-8.355059	46.001293
36307	1.440083	-0.169990	9.707137	-0.031157	0.050241	0.001982	1.000000	-0.000041	0.000041	0.000019	-1.341351	-8.352154	46.003631
36308	1.424601	-0.190284	9.682980	-0.025225	0.026508	-0.023691	1.000000	-0.000041	0.000000	0.000005	-1.341866	-8.360879	46.000321
36309	1.478397	-0.176996	9.662404	0.004422	0.076341	-0.036534	1.000000	-0.000051	0.000051	0.000024	-1.345453	-8.356847	46.003196
36310	1.424093	-0.157903	9.679697	-0.047886	0.049437	-0.027762	1.000000	-0.000049	0.000019	0.000026	-1.342073	-8.355799	46.008700
36311	1.439829	-0.210490	9.686618	-0.000445	0.023756	-0.017412	1.000000	-0.000039	0.000023	0.000003	-1.343876	-8.355066	46.009222
36312	1.423188	-0.159656	9.679801	-0.046256	0.047083	-0.027743	1.000000	-0.000047	0.000028	0.000020	-1.335530	-8.353128	46.016855
36313	1.456312	-0.195176	9.686782	0.001040	0.045712	-0.015208	1.000000	-0.000034	0.000027	0.000009	-1.336868	-8.351914	46.018021
36314	1.438859	-0.178629	9.683402	-0.021710	0.044905	-0.021466	1.000000	-0.000045	0.000037	0.000014	-1.333577	-8.349279	46.023224
36315	1.455747	-0.162490	9.683532	-0.021759	0.068662	-0.019261	1.000000	-0.000041	0.000027	0.000014	-1.335691	-8.347972	46.025036
36316	1.422561	-0.199908	9.659327	-0.012755	0.019561	-0.047151	1.000000	-0.000055	0.000034	0.000013	-1.320905	-8.345423	46.036112
36317	1.453956	-0.198739	9.687063	0.004540	0.040718	-0.015187	1.000000	-0.000037	0.000018	0.000015	-1.322429	-8.345210	46.038039
36318	1.434132	-0.179919	9.707839	-0.025316	0.036775	0.002059	1.000000	-0.000057	0.000038	0.000025	-1.320424	-8.349907	46.038632
36319	1.419252	-0.165937	9.680273	-0.042508	0.038779	-0.027689	1.000000	-0.000035	0.000013	0.000004	-1.321469	-8.350304	46.039272
36320	1.433357	-0.181672	9.707921	-0.025168	0.034047	0.002069	1.000000	-0.000047	0.000014	0.000015	-1.318262	-8.357630	46.039266
36321	1.450461	-0.165633	9.708031	-0.025205	0.057759	0.004296	1.000000	-0.000047	0.000028	0.000020	-1.320942	-8.356354	46.041737
36322	1.432451	-0.183467	9.708020	-0.024461	0.030846	0.002082	1.000000	-0.000033	0.000022	0.000021	-1.311867	-8.362459	46.046289
36323	1.446464	-0.199219	9.735678	-0.006993	0.027622	0.031832	1.000000	-0.000047	0.000014	0.000015	-1.314413	-8.362813	46.048238
36324	1.417258	-0.170396	9.680488	-0.040619	0.031037	-0.027654	1.000000	-0.000055	0.000034	0.000013	-1.309033	-8.362298	46.051009
36325	1.450961	-0.171754	9.684090	-0.017053	0.054317	-0.019161	1.000000	-0.000043	0.000032	0.000026	-1.311193	-8.360620	46.054135
36326	1.447264	-0.204517	9.711695	0.000497	0.024766	0.008352	1.000000	-0.000039	0.000023	0.000003	-1.304676	-8.368926	46.053364
36327	1.415547	-0.173056	9.680691	-0.040293	0.027159	-0.027641	1.000000	-0.000043	0.000032	0.000026	-1.306781	-8.367324	46.056499
36328	1.444516	-0.169509	9.732611	-0.028844	0.045260	0.027851	1.000000	-0.000047	0.000014	0.000015	-1.304484	-8.369150	46.060515
36329	1.449160	-0.175232	9.684298	-0.016180	0.049056	-0.019132	1.000000	-0.000041	0.000014	0.000009	-1.306070	-8.369673	46.061826
36330	1.428804	-0.190739	9.708418	-0.020847	0.020442	0.002117	1.000000	-0.000051	0.000024	0.000014	-1.297508	-8.369875	46.070819
36331	1.445820	-0.174743	9.708563	-0.020872	0.044097	0.004377	1.000000	-0.000047	0.000028	0.000020	-1.299878	-8.368745	46.073306
36332	1.430153	-0.195184	9.684372	-0.014136	0.020935	-0.021372	1.000000	-0.000055	0.000034	0.000013	-1.300652	-8.368197	46.074496
36333	1.463993	-0.196480	9.687967	0.009437	0.044183	-0.012864	1.000000	-0.000037	0.000018	0.000015	-1.301776	-8.368260	46.076454
36334	1.444352	-0.177607	9.708730	-0.019458	0.041236	0.004392	1.000000	-0.000049	0.000019	0.000026	-1.299162	-8.366843	46.081498
36335	1.448068	-0.217700	9.663790	0.016987	0.020340	-0.038618	1.000000	-0.000042	0.000033	0.000002	-1.300672	-8.365220	46.081922
36336	1.443351	-0.179401	9.708846	-0.018759	0.040403	0.004397	1.000000	-0.000043	0.000018	0.000021	-1.302956	-8.361587	46.085985
36337	1.462097	-0.199996	9.688181	0.011254	0.041587	-0.012855	1.000000	-0.000038	0.000036	0.000008	-1.304112	-8.359461	46.087052
36338	1.424622	-0.197993	9.708887	-0.019363	0.013221	0.002133	1.000000	-0.000037	0.000031	0.000020	-1.303579	-8.369120	46.085054
36339	1.458554	-0.199262	9.712478	0.004207	0.036459	0.010651	1.000000	-0.000051	0.000010	0.000009	-1.306238	-8.370074	46.086367
36340	1.458245	-0.200052	9.712509	0.004185	0.034546	0.010658	1.000000	-0.000026	0.000021	0.000015	-1.301772	-8.375797	46.087363
36341	1.441586	-0.149057	9.705815	-0.043046	0.059001	0.000461	1.000000	-0.000045	0.000037	0.000014	-1.303716	-8.373728	46.089094
36342	1.427813	-0.206215	9.660733	-0.005638	0.012293	-0.044844	1.000000	-0.000057	0.000011	0.000015	-1.297433	-8.377890	46.093896
36343	1.459888	-0.170913	9.685195	-0.012100	0.057967	-0.016771	1.000000	-0.000047	0.000042	0.000025	-1.299743	-8.375301	46.096925
36344	1.441675	-0.188874	9.685158	0.006306	-0.004174	-0.018999	1.000000	-0.000047	0.000028	0.000020	-1.070712	-8.458051	45.789650
36345	1.441127	-0.189840	9.685221	0.006610	-0.005170	-0.019000	1.000000	-0.000047	0.000028	0.000020	-1.071021	-8.457748	45.790204
36346	1.423091	-0.207756	9.685151	0.007006	-0.030418	-0.021389	1.000000	-0.000045	0.000023	0.000009	-1.070950	-8.457682	45.789271
36347	1.455095	-0.172232	9.709648	0.000971	0.014851	0.006885	1.000000	-0.000038	0.000036	0.000008	-1.070069	-8.456422	45.788417
36348	1.437125	-0.189945	9.709569	0.001312	-0.010389	0.004493	1.000000	-0.000033	0.000008	0.000016	-1.069047	-8.458289	45.788242
36349	1.440086	-0.158680	9.682120	-0.015842	0.015792	-0.022796	1.000000	-0.000037	0.000018	0.000015	-1.068116	-8.459170	45.788262
36350	1.456108	-0.177094	9.685653	0.008076	0.014285	-0.016606	1.000000	-0.000067	0.000063	0.000011	-1.070664	-8.454727	45.786481
36351	1.437870	-0.195218	9.685598	0.008440	-0.011007	-0.019006	1.000000	-0.000045	0.000009	0.000027	-1.070922	-8.456566	45.787908
36352	1.435061	-0.193774	9.709798	0.002553	-0.014372	0.004487	1.000000	-0.000045	0.000023	0.000009	-1.070591	-8.456852	45.787518
36353	1.437741	-0.162639	9.682403	-0.014603	0.011822	-0.022788	1.000000	-0.000042	0.000033	0.000002	-1.070080	-8.456057	45.786014
36354	1.451470	-0.178482	9.710077	0.003089	0.007921	0.006893	1.000000	-0.000041	0.000027	0.000014	-1.069618	-8.455918	45.786649
36355	1.436054	-0.198753	9.685796	0.009661	-0.015026	-0.019012	1.000000	-0.000051	0.000010	0.000009	-1.070236	-8.457652	45.786015
36356	1.450871	-0.180260	9.710134	0.003683	0.005864	0.006894	1.000000	-0.000035	0.000013	0.000004	-1.068687	-8.459388	45.787625
36357	1.450417	-0.181191	9.710184	0.003988	0.004866	0.006894	1.000000	-0.000055	0.000033	0.000037	-1.070243	-8.458478	45.790124
36358	1.434824	-0.201497	9.685921	0.010554	-0.018054	-0.019018	1.000000	-0.000038	0.000023	0.000003	-1.069397	-8.458731	45.788347
36359	1.449380	-0.182954	9.710306	0.004594	0.002888	0.006895	1.000000	-0.000041	0.000027	0.000014	-1.068894	-8.458507	45.788253
36360	1.417036	-0.185834	9.682606	-0.012474	-0.019579	-0.025203	1.000000	-0.000051	0.000024	0.000014	-1.069292	-8.459165	45.791840
36361	1.436574	-0.172130	9.658652	-0.006025	0.006080	-0.046273	1.000000	-0.000041	0.000027	0.000014	-1.068789	-8.458942	45.791746
36362	1.450411	-0.188125	9.686299	0.011693	0.002132	-0.016600	1.000000	-0.000055	0.000020	0.000009	-1.069688	-8.459681	45.792412
36363	1.413073	-0.186303	9.706938	-0.017760	-0.024961	-0.001714	1.000000	-0.000037	0.000031	0.000020	-1.068816	-8.458997	45.792968
36364	1.469320	-0.175351	9.662430	0.018437	0.026788	-0.037661	1.000000	-0.000055	0.000034	0.000013	-1.069903	-8.458146	45.793913
36365	1.428778	-0.205555	9.710483	0.006455	-0.027532	0.004458	1.000000	-0.000035	0.000012	0.000027	-1.068981	-8.459602	45.795342
36366	1.463317	-0.172567	9.710892	0.006632	0.020047	0.009332	1.000000	-0.000059	0.000043	0.000013	-1.070541	-8.457634	45.795399
36367	1.447815	-0.192843	9.686595	0.013195	-0.002868	-0.016602	1.000000	-0.000037	0.000004	0.000010	-1.069549	-8.460090	45.794878
36368	1.430755	-0.176272	9.683199	-0.010102	-0.003300	-0.022776	1.000000	-0.000045	0.000023	0.000009	-1.069352	-8.460287	45.795203
36369	1.444540	-0.192258	9.710848	0.007619	-0.007242	0.006891	1.000000	-0.000047	0.000028	0.000020	-1.069658	-8.459993	45.795756
36370	1.446632	-0.195550	9.686717	0.014077	-0.005818	-0.016604	1.000000	-0.000047	0.000014	0.000015	-1.070259	-8.461283	45.795826
36371	1.449700	-0.164459	9.659324	-0.003092	0.020430	-0.043819	1.000000	-0.000049	0.000006	-0.000002	-1.070434	-8.463557	45.793891
36372	1.461151	-0.178084	9.711119	0.008422	0.014089	0.009341	1.000000	-0.000041	0.000027	0.000014	-1.069962	-8.463405	45.794845
36373	1.428697	-0.180857	9.683419	-0.008636	-0.008241	-0.022777	1.000000	-0.000045	0.000037	0.000014	-1.069886	-8.462079	45.794638
36374	1.448288	-0.167231	9.659488	-0.002204	0.017441	-0.043813	1.000000	-0.000057	0.000011	0.000015	-1.071341	-8.463811	45.795672
36375	1.427863	-0.182806	9.683505	-0.008039	-0.010236	-0.022779	1.000000	-0.000034	0.000027	0.000009	-1.070027	-8.463666	45.794930
36376	1.444172	-0.200962	9.686974	0.015850	-0.011839	-0.016612	1.000000	-0.000039	0.000022	0.000026	-1.069516	-8.464298	45.798468
36377	1.444448	-0.167423	9.683816	-0.007516	0.012027	-0.020315	1.000000	-0.000041	0.000027	0.000014	-1.069011	-8.464080	45.798373
36378	1.423852	-0.182910	9.707853	-0.013380	-0.015565	0.000712	1.000000	-0.000041	0.000027	0.000014	-1.069015	-8.463590	45.795386
36379	1.440235	-0.201132	9.711307	0.010541	-0.017138	0.006876	1.000000	-0.000041	0.000014	0.000009	-1.068450	-8.464942	45.794752
36380	1.442351	-0.204266	9.687176	0.016997	-0.015704	-0.016620	1.000000	-0.000041	0.000027	0.000014	-1.068225	-8.464773	45.794691
36381	1.456882	-0.185917	9.711613	0.011060	0.005180	0.009347	1.000000	-0.000051	0.000024	0.000014	-1.068898	-8.464945	45.794591
36382	1.456414	-0.186947	9.711664	0.011344	0.004202	0.009347	1.000000	-0.000051	0.000024	0.000014	-1.069744	-8.465118	45.794548
36383	1.424106	-0.189681	9.683926	-0.005727	-0.018093	-0.022788	1.000000	-0.000034	0.000027	0.000009	-1.068429	-8.464975	45.793806
36384	1.436093	-0.168800	9.732553	-0.017880	0.000381	0.026678	1.000000	-0.000034	0.000027	0.000009	-1.067281	-8.464912	45.793352
36385	1.454908	-0.189296	9.711844	0.012230	0.001215	0.009347	1.000000	-0.000045	0.000023	0.000009	-1.067144	-8.465158	45.792605
36386	1.440151	-0.175122	9.684320	-0.004930	0.003223	-0.020306	1.000000	-0.000047	0.000028	0.000020	-1.067617	-8.464994	45.793711
36387	1.438746	-0.210426	9.687580	0.019041	-0.022643	-0.016637	1.000000	-0.000045	0.000037	0.000014	-1.067538	-8.463672	45.793503
36388	1.439020	-0.176982	9.684455	-0.004350	0.001300	-0.020306	1.000000	-0.000047	0.000014	0.000015	-1.068187	-8.464787	45.791493
36389	1.401738	-0.175243	9.705042	-0.033801	-0.025821	-0.005465	1.000000	-0.000053	0.000029	0.000002	-1.068847	-8.464390	45.789982
36390	1.470086	-0.176938	9.712338	0.013641	0.020590	0.011841	1.000000	-0.000031	0.000003	0.000005	-1.067102	-8.466901	45.788483
36391	1.435393	-0.177355	9.708743	-0.009625	-0.004107	0.003187	1.000000	-0.000055	0.000033	0.000013	-1.068202	-8.465970	45.788270
36392	1.417184	-0.195424	9.708585	-0.009272	-0.029376	0.000685	1.000000	-0.000055	0.000033	0.000013	-1.069354	-8.464972	45.788119
36393	1.456758	-0.167091	9.660777	0.003306	0.023066	-0.041294	1.000000	-0.000047	0.000028	0.000020	-1.069656	-8.464687	45.788669
36394	1.433731	-0.180385	9.708933	-0.008702	-0.007021	0.003186	1.000000	-0.000041	0.000014	0.000009	-1.069325	-8.465746	45.785653
36395	1.433319	-0.181347	9.708976	-0.008397	-0.008019	0.003186	1.000000	-0.000053	0.000028	0.000025	-1.070436	-8.465389	45.786849
36396	1.432773	-0.182314	9.709038	-0.008113	-0.008955	0.003185	1.000000	-0.000041	0.000027	0.000014	-1.070272	-8.465003	45.785533
36397	1.448981	-0.200454	9.712506	0.015811	-0.010549	0.009336	1.000000	-0.000030	0.000031	0.000014	-1.068585	-8.464401	45.785443
36398	1.451582	-0.169256	9.685272	-0.001374	0.015774	-0.017792	1.000000	-0.000059	0.000043	0.000013	-1.070125	-8.462415	45.786073
36399	1.451023	-0.170319	9.685337	-0.001069	0.014778	-0.017790	1.000000	-0.000047	0.000014	0.000015	-1.070367	-8.463699	45.786082
36400	1.481660	-0.203801	9.716342	0.040298	0.010164	0.018001	1.000000	-0.000045	0.000023	0.000009	-1.070338	-8.463825	45.784993
36401	1.464394	-0.187249	9.713005	0.016984	0.009763	0.011853	1.000000	-0.000041	0.000027	0.000014	-1.069829	-8.463614	45.784896
36402	1.449666	-0.173028	9.685492	-0.000184	0.011847	-0.017786	1.000000	-0.000051	0.000024	0.000014	-1.070742	-8.463798	45.784255
36403	1.434273	-0.193308	9.661092	0.006336	-0.010975	-0.043806	1.000000	-0.000053	0.000015	0.000021	-1.071793	-8.465011	45.784909
36404	1.451422	-0.177305	9.661398	0.006572	0.012326	-0.041276	1.000000	-0.000041	0.000027	0.000014	-1.071452	-8.464867	45.785363
36405	1.429076	-0.156164	9.706417	-0.029093	0.007014	-0.000436	1.000000	-0.000038	0.000023	0.000003	-1.070503	-8.465190	45.783967
36406	1.430982	-0.159383	9.682320	-0.022611	0.008501	-0.023926	1.000000	-0.000059	0.000043	0.000013	-1.072097	-8.463055	45.783037
36407	1.429670	-0.194853	9.685496	0.001352	-0.017381	-0.020320	1.000000	-0.000051	0.000010	0.000009	-1.072707	-8.464803	45.782393
36408	1.429342	-0.195805	9.685525	0.001640	-0.018316	-0.020322	1.000000	-0.000045	0.000023	0.000009	-1.072880	-8.464861	45.779176
36409	1.407069	-0.174781	9.730531	-0.034020	-0.023643	0.020518	1.000000	-0.000043	0.000018	0.000021	-1.072751	-8.465687	45.779836
36410	1.466076	-0.165924	9.662010	0.008344	0.030710	-0.038725	1.000000	-0.000044	0.000037	0.000014	-1.072621	-8.464462	45.780526
36411	1.441914	-0.213502	9.713280	0.019998	-0.024405	0.009304	1.000000	-0.000026	0.000034	0.000020	-1.070564	-8.463404	45.781087
36412	1.442186	-0.179886	9.710238	-0.003335	-0.000540	0.005712	1.000000	-0.000049	0.000019	0.000003	-1.070599	-8.464166	45.781819
36413	1.444308	-0.183254	9.686105	0.003139	0.000941	-0.017779	1.000000	-0.000063	0.000025	0.000025	-1.072884	-8.464206	45.783006
36414	1.444030	-0.184208	9.686128	0.003421	-0.000025	-0.017779	1.000000	-0.000031	0.000003	0.000005	-1.071294	-8.466706	45.781326
36415	1.443637	-0.184962	9.686172	0.003726	-0.001021	-0.017780	1.000000	-0.000044	0.000037	0.000014	-1.071211	-8.465394	45.781116
36416	1.457216	-0.201017	9.713809	0.021497	-0.005126	0.011847	1.000000	-0.000041	0.000027	0.000014	-1.070615	-8.465176	45.781661
36417	1.443280	-0.152343	9.683224	-0.019310	0.021873	-0.021352	1.000000	-0.000047	0.000028	0.000020	-1.070913	-8.464899	45.782209
36418	1.441971	-0.187717	9.686367	0.004638	-0.003993	-0.017781	1.000000	-0.000051	0.000024	0.000014	-1.071733	-8.465032	45.781150
36419	1.456472	-0.169534	9.710900	-0.001255	0.016796	0.008278	1.000000	-0.000047	0.000028	0.000020	-1.072030	-8.464756	45.781697
36420	1.458558	-0.172521	9.686782	0.005220	0.018297	-0.015211	1.000000	-0.000026	0.000021	0.000015	-1.069906	-8.465227	45.781547
36421	1.421219	-0.170748	9.707325	-0.024231	-0.008855	-0.000424	1.000000	-0.000063	0.000025	0.000025	-1.072190	-8.465271	45.782733
36422	1.442564	-0.193585	9.662412	0.012010	-0.005476	-0.041275	1.000000	-0.000030	0.000031	0.000014	-1.070543	-8.464741	45.783334
36423	1.473621	-0.192648	9.690367	0.029745	0.014684	-0.009076	1.000000	-0.000047	0.000041	0.000025	-1.070897	-8.462900	45.784422
36424	1.421826	-0.175672	9.683387	-0.017178	-0.009331	-0.023916	1.000000	-0.000043	0.000032	0.000026	-1.070927	-8.462142	45.785124
36425	1.436285	-0.157472	9.707941	-0.023063	0.011445	0.002157	1.000000	-0.000051	0.000024	0.000014	-1.071592	-8.462328	45.785018
36426	1.452535	-0.175904	9.711377	0.000865	0.009842	0.008287	1.000000	-0.000047	0.000028	0.000020	-1.071972	-8.461975	45.784898
36427	1.417666	-0.176381	9.707743	-0.022426	-0.014807	-0.000427	1.000000	-0.000047	0.000028	0.000020	-1.072268	-8.461702	45.785444
36428	1.451266	-0.177842	9.711531	0.001454	0.007876	0.008289	1.000000	-0.000048	0.000046	0.000013	-1.072830	-8.459246	45.783866
36429	1.420694	-0.217011	9.662595	0.014129	-0.036643	-0.043876	1.000000	-0.000035	0.000012	0.000027	-1.071903	-8.460723	45.785288
36430	1.418399	-0.181385	9.683784	-0.015406	-0.015226	-0.023920	1.000000	-0.000059	0.000043	0.000013	-1.073642	-8.458726	45.784527
36431	1.401011	-0.164908	9.680485	-0.038728	-0.015591	-0.030046	1.000000	-0.000038	0.000023	0.000003	-1.072688	-8.459055	45.783129
36432	1.434018	-0.200643	9.687289	0.008825	-0.017861	-0.017799	1.000000	-0.000047	0.000028	0.000020	-1.072937	-8.458849	45.785162
36433	1.411522	-0.179702	9.732339	-0.026807	-0.023275	0.023056	1.000000	-0.000042	0.000032	0.000002	-1.072410	-8.458073	45.783653
36434	1.447841	-0.183294	9.711941	0.003235	0.001920	0.008292	1.000000	-0.000047	0.000028	0.000020	-1.072886	-8.457770	45.783591
36435	1.447397	-0.184156	9.711991	0.003540	0.000921	0.008292	1.000000	-0.000037	0.000017	0.000015	-1.071946	-8.458675	45.783602
36436	1.431907	-0.204217	9.687527	0.010029	-0.021808	-0.017808	1.000000	-0.000055	0.000033	0.000013	-1.073059	-8.457682	45.783091
36437	1.429340	-0.168580	9.708780	-0.019469	-0.000427	0.002172	1.000000	-0.000038	0.000050	0.000013	-1.072220	-8.454882	45.782777
36438	1.425251	-0.201678	9.736062	-0.001674	-0.028847	0.029166	1.000000	-0.000049	0.000018	0.000026	-1.073024	-8.455568	45.783422
36439	1.445144	-0.187813	9.712256	0.004761	-0.003036	0.008291	1.000000	-0.000039	0.000009	-0.000002	-1.072011	-8.457463	45.781482
36440	1.462589	-0.171687	9.712613	0.005043	0.020276	0.010910	1.000000	-0.000043	0.000004	0.000016	-1.071989	-8.459716	45.780426
36441	1.429672	-0.208571	9.687764	0.011539	-0.026726	-0.017822	1.000000	-0.000037	0.000031	0.000020	-1.071106	-8.459057	45.780979
36442	1.429933	-0.175050	9.684820	-0.011798	-0.002788	-0.021316	1.000000	-0.000047	0.000028	0.000020	-1.071452	-8.458682	45.781281
36443	1.426007	-0.208184	9.712062	0.006004	-0.031246	0.005661	1.000000	-0.000045	0.000023	0.000009	-1.071305	-8.458944	45.780527
36444	1.429024	-0.176895	9.684921	-0.011175	-0.004768	-0.021317	1.000000	-0.000049	0.000019	0.000003	-1.071513	-8.459563	45.779415
36445	1.474352	-0.191436	9.740435	0.024071	0.012115	0.040520	1.000000	-0.000044	0.000037	0.000013	-1.071423	-8.458261	45.779203
36446	1.445531	-0.161710	9.685414	-0.010573	0.017501	-0.018683	1.000000	-0.000037	0.000017	0.000015	-1.070377	-8.459165	45.780756
36447	1.441596	-0.194854	9.712645	0.007232	-0.010969	0.008283	1.000000	-0.000055	0.000033	0.000013	-1.071464	-8.458254	45.780536
36448	1.441043	-0.195850	9.712707	0.007535	-0.011965	0.008282	1.000000	-0.000045	0.000023	0.000009	-1.071335	-8.458516	45.780224
36449	1.441483	-0.162355	9.709761	-0.015806	0.011955	0.004812	1.000000	-0.000043	0.000018	0.000021	-1.071201	-8.459355	45.780878
36450	1.437550	-0.195477	9.736982	0.001993	-0.016527	0.031768	1.000000	-0.000043	0.000031	0.000026	-1.071157	-8.458671	45.783342
36451	1.445795	-0.168466	9.661506	-0.002918	0.015089	-0.042162	1.000000	-0.000045	0.000010	0.000004	-1.070951	-8.460499	45.782044
36452	1.438600	-0.233638	9.715854	0.032394	-0.040870	0.011734	1.000000	-0.000026	0.000021	0.000015	-1.068869	-8.460959	45.782292
36453	1.437316	-0.163362	9.734119	-0.020733	0.005403	0.028307	1.000000	-0.000037	0.000017	0.000015	-1.067926	-8.461869	45.782302
36454	1.437050	-0.164182	9.734144	-0.020424	0.004404	0.028308	1.000000	-0.000045	0.000010	0.000004	-1.067716	-8.463676	45.781590
36455	1.430954	-0.195040	9.785466	-0.008754	-0.026669	0.078735	1.000000	-0.000033	-0.000006	0.000011	-1.066289	-8.467254	45.781167
36456	1.404560	-0.201581	9.709158	-0.013632	-0.043535	-0.000496	1.000000	-0.000027	-0.000006	0.000005	-1.064091	-8.470758	45.779085
36457	1.437381	-0.166097	9.734063	-0.019495	0.001425	0.028311	1.000000	-0.000027	-0.000020	0.000000	-1.061798	-8.475969	45.777473
36458	1.443097	-0.170986	9.685617	-0.006910	0.005610	-0.018665	1.000000	-0.000033	-0.000033	0.000001	-1.060334	-8.482572	45.775849
36459	1.443482	-0.171510	9.685551	-0.006606	0.004614	-0.018665	1.000000	-0.000021	-0.000007	-0.000000	-1.057290	-8.486287	45.774136
36460	1.444514	-0.137922	9.682548	-0.029943	0.028570	-0.022097	1.000000	-0.000060	-0.000012	0.000016	-1.059120	-8.490474	45.773419
36461	1.480965	-0.176017	9.664989	0.023759	0.028843	-0.033380	1.000000	-0.000042	-0.000028	0.000018	-1.058827	-8.496583	45.773851
36462	1.450517	-0.143902	9.634042	-0.017055	0.031735	-0.069065	1.000000	-0.000023	-0.000016	0.000006	-1.056025	-8.501403	45.775292
36463	1.449767	-0.179027	9.636968	0.006890	0.005817	-0.065639	1.000000	-0.000049	0.000005	0.000021	-1.056641	-8.503740	45.776047
36464	1.464530	-0.160909	9.661558	0.001054	0.026482	-0.039472	1.000000	-0.000043	0.000018	0.000021	-1.056420	-8.504617	45.778704
36465	1.466140	-0.198352	9.640328	0.031134	0.003158	-0.059541	1.000000	-0.000045	-0.000005	0.000022	-1.056610	-8.508059	45.779569
36466	1.460710	-0.195102	9.688705	0.019167	-0.003012	-0.012566	1.000000	-0.000053	0.000028	0.000025	-1.057830	-8.507654	45.780007
36467	1.443560	-0.178733	9.685408	-0.004160	-0.003344	-0.018663	1.000000	-0.000053	0.000014	0.000020	-1.058871	-8.508889	45.780653
36468	1.460555	-0.162838	9.685879	-0.003859	0.019928	-0.015974	1.000000	-0.000048	0.000046	0.000013	-1.059185	-8.506447	45.780561
36469	1.441355	-0.214954	9.688508	0.020097	-0.030265	-0.015260	1.000000	-0.000030	0.000030	0.000014	-1.057490	-8.505864	45.780471
36470	1.493411	-0.165079	9.689815	0.020382	0.041521	-0.007184	1.000000	-0.000059	0.000043	0.000013	-1.058901	-8.503872	45.781696
36471	1.441623	-0.148203	9.682827	-0.026568	0.017594	-0.022061	1.000000	-0.000055	0.000033	0.000013	-1.059983	-8.502968	45.781476
36472	1.454184	-0.199078	9.713352	0.014878	-0.011605	0.010914	1.000000	-0.000057	0.000038	0.000025	-1.061574	-8.501504	45.782111
36473	1.417295	-0.163163	9.730964	-0.038209	-0.013881	0.022218	1.000000	-0.000054	0.000047	0.000018	-1.062713	-8.499038	45.782436
36474	1.438519	-0.185836	9.686025	-0.002018	-0.010294	-0.018667	1.000000	-0.000041	0.000027	0.000014	-1.062279	-8.498764	45.781414
36475	1.455485	-0.169845	9.686522	-0.001721	0.012974	-0.015962	1.000000	-0.000051	0.000037	0.000019	-1.062993	-8.497403	45.781848
36476	1.449480	-0.166765	9.734982	-0.013670	0.006727	0.031013	1.000000	-0.000059	0.000042	0.000036	-1.064953	-8.495477	45.785296
36477	1.454077	-0.171986	9.686696	-0.001115	0.010978	-0.015960	1.000000	-0.000038	0.000023	0.000003	-1.063992	-8.495814	45.783896
36478	1.472690	-0.192603	9.665937	0.028950	0.011950	-0.033359	1.000000	-0.000063	0.000052	0.000035	-1.066434	-8.492683	45.785269
36479	1.454350	-0.210760	9.665591	0.029259	-0.013308	-0.036074	1.000000	-0.000057	0.000024	0.000020	-1.067898	-8.492818	45.785802
36480	1.468590	-0.192912	9.690296	0.023439	0.007337	-0.009872	1.000000	-0.000057	0.000051	0.000030	-1.069502	-8.489776	45.787045
36481	1.449940	-0.211010	9.689990	0.023747	-0.017922	-0.012592	1.000000	-0.000058	0.000056	0.000018	-1.071064	-8.486210	45.787258
36482	1.452409	-0.179756	9.663055	0.006528	0.008658	-0.039442	1.000000	-0.000044	0.000050	0.000018	-1.071054	-8.483391	45.788339
36483	1.430979	-0.195525	9.686951	0.000714	-0.019236	-0.018680	1.000000	-0.000048	0.000073	0.000023	-1.071496	-8.477874	45.789107
36484	1.447491	-0.179654	9.687543	0.001017	0.004023	-0.015954	1.000000	-0.000056	0.000038	0.000001	-1.072527	-8.476414	45.788201
36485	1.408662	-0.212398	9.710942	-0.004792	-0.048139	0.002072	1.000000	-0.000044	0.000064	0.000023	-1.072543	-8.472001	45.789078
36486	1.441855	-0.213951	9.714874	0.019158	-0.025551	0.010880	1.000000	-0.000050	0.000051	0.000024	-1.073286	-8.468996	45.789536
36487	1.407523	-0.180025	9.708324	-0.027807	-0.025183	-0.001282	1.000000	-0.000052	0.000042	0.000007	-1.073980	-8.467063	45.788558
36488	1.404117	-0.178841	9.732599	-0.033622	-0.028818	0.022202	1.000000	-0.000038	0.000036	0.000008	-1.073134	-8.465798	45.787567
36489	1.420237	-0.197290	9.735997	-0.009681	-0.030503	0.028278	1.000000	-0.000057	0.000024	0.000020	-1.074596	-8.465938	45.788096
36490	1.454840	-0.164572	9.737005	-0.009384	0.017037	0.033761	1.000000	-0.000051	0.000037	0.000019	-1.075428	-8.464526	45.788103
36491	1.427007	-0.205752	9.663577	0.009267	-0.024510	-0.042185	1.000000	-0.000061	0.000020	0.000014	-1.077257	-8.465125	45.787976
36492	1.473878	-0.151972	9.713444	-0.002662	0.041977	0.013026	1.000000	-0.000048	0.000046	0.000013	-1.077709	-8.462663	45.787128
36493	1.438995	-0.152258	9.709710	-0.025994	0.017410	0.004206	1.000000	-0.000035	0.000012	0.000027	-1.076777	-8.464162	45.788542
36494	1.440382	-0.189753	9.688410	0.004073	-0.005856	-0.015956	1.000000	-0.000063	0.000024	0.000025	-1.079058	-8.464105	45.788567
36495	1.442565	-0.192911	9.664276	0.010490	-0.004185	-0.039442	1.000000	-0.000045	0.000023	0.000009	-1.078902	-8.464380	45.787808
36496	1.436863	-0.189670	9.712682	-0.001435	-0.010503	0.007528	1.000000	-0.000043	0.000018	0.000021	-1.078838	-8.465199	45.788332
36497	1.459327	-0.177816	9.664855	0.011096	0.018098	-0.036684	1.000000	-0.000047	0.000027	0.000020	-1.079122	-8.464951	45.788872
36498	1.456089	-0.176716	9.689108	0.005295	0.014440	-0.013198	1.000000	-0.000048	0.000033	0.000008	-1.079406	-8.464061	45.787720
36499	1.454602	-0.212008	9.692006	0.029232	-0.011510	-0.009891	1.000000	-0.000040	0.000027	0.000014	-1.078881	-8.463879	45.787616
36500	1.440875	-0.163130	9.661746	-0.011624	0.015825	-0.042750	1.000000	-0.000055	0.000033	0.000013	-1.079966	-8.462976	45.787871
36501	1.453976	-0.179578	9.689373	0.006210	0.011453	-0.013194	1.000000	-0.000044	0.000064	0.000023	-1.079977	-8.458571	45.788749
36502	1.451188	-0.144172	9.710874	-0.023236	0.032728	0.006996	1.000000	-0.000058	0.000043	0.000013	-1.081517	-8.456627	45.789543
36503	1.452132	-0.181556	9.689612	0.006808	0.009459	-0.013193	1.000000	-0.000034	0.000040	0.000014	-1.080240	-8.454953	45.789341
36504	1.434666	-0.165023	9.686389	-0.016536	0.009156	-0.019258	1.000000	-0.000062	0.000039	0.000007	-1.082121	-8.453485	45.789783
36505	1.433008	-0.200623	9.689284	0.007400	-0.016796	-0.015971	1.000000	-0.000057	0.000037	0.000025	-1.083636	-8.452072	45.790854
36506	1.415581	-0.184225	9.686050	-0.015943	-0.017076	-0.022037	1.000000	-0.000051	0.000037	0.000019	-1.084434	-8.450704	45.791032
36507	1.451736	-0.188002	9.665806	0.014112	0.008174	-0.036675	1.000000	-0.000061	0.000047	0.000024	-1.086372	-8.448189	45.791994
36508	1.448457	-0.187198	9.690055	0.008312	0.004497	-0.013190	1.000000	-0.000059	0.000015	0.000026	-1.088275	-8.449317	45.792622
36509	1.447941	-0.188397	9.690109	0.008616	0.003501	-0.013190	1.000000	-0.000057	0.000037	0.000025	-1.089789	-8.447906	45.793692
36510	1.447217	-0.189431	9.690197	0.008923	0.002489	-0.013190	1.000000	-0.000044	0.000037	0.000013	-1.089612	-8.446681	45.795142
36511	1.441152	-0.186272	9.738650	-0.002975	-0.003914	0.033779	1.000000	-0.000044	0.000037	0.000013	-1.089509	-8.445402	45.794927
36512	1.426357	-0.171898	9.711247	-0.020209	-0.001491	0.004235	1.000000	-0.000065	0.000043	0.000018	-1.091857	-8.443309	45.794840
36513	1.428301	-0.174987	9.687154	-0.013804	0.000219	-0.019249	1.000000	-0.000042	0.000032	0.000002	-1.091314	-8.442553	45.793326
36514	1.444449	-0.193417	9.690531	0.010140	-0.001481	-0.013191	1.000000	-0.000051	0.000023	0.000014	-1.091987	-8.442748	45.793269
36515	1.441175	-0.192427	9.714781	0.004346	-0.005190	0.010293	1.000000	-0.000051	0.000037	0.000019	-1.092691	-8.441405	45.793696
36516	1.426659	-0.178066	9.687340	-0.012887	-0.002757	-0.019248	1.000000	-0.000059	0.000015	0.000026	-1.094536	-8.442552	45.794862
36517	-0.018566	1.184132	6.578672	-1.628245	0.208816	-3.332977	0.999999	-0.000488	-0.000920	-0.000899	-1.129925	-8.552939	45.691133
36518	2.243447	0.276617	8.743907	0.302976	0.974922	-0.839220	0.999998	-0.001544	-0.001087	0.000761	-1.314654	-8.678416	45.782478
36519	4.498295	-3.610586	17.214938	3.618102	-0.835008	7.959035	0.999986	-0.002012	0.004768	0.001097	-1.556333	-8.131961	45.894049
36520	-1.603091	0.422443	5.822663	-2.084587	-1.353005	-4.292238	0.999985	0.004637	-0.002481	-0.001211	-1.000329	-8.422723	45.762607
36521	1.705956	1.729871	10.621322	-1.265647	1.432711	0.913945	0.999999	0.000764	0.000617	-0.000377	-0.900883	-8.355718	45.716005
36522	1.276137	-2.189461	9.447951	1.362477	-1.483035	-0.240332	0.999995	-0.003048	0.000420	0.000743	-1.256707	-8.309039	45.802980
36523	0.988978	0.672145	9.694886	-0.915804	0.293925	-0.091813	0.999997	0.002343	-0.000796	-0.000474	-0.975160	-8.404222	45.748191
36524	1.186196	0.987504	10.207226	-1.066914	0.599893	0.437744	0.999998	-0.002126	0.000072	0.000127	-1.215284	-8.398584	45.765196
36525	1.422700	-2.557388	8.939432	1.757439	-1.579090	-0.707984	1.000000	-0.000664	-0.000020	0.000342	-1.291786	-8.402903	45.803137
36526	2.091750	0.626926	11.248661	-0.322131	0.903619	1.605736	0.999998	0.001701	-0.000401	-0.000205	-1.088262	-8.452084	45.781829
36527	1.365029	-0.211199	8.819463	0.061765	0.013672	-0.885940	0.999999	-0.001032	-0.000071	-0.000135	-1.198887	-8.463505	45.764670
36528	1.568935	-0.496153	8.839347	0.399117	-0.043009	-0.830447	1.000000	0.000542	-0.000228	-0.000052	-1.130494	-8.492658	45.761275
36529	1.862124	0.686316	9.983478	-0.371389	0.878476	0.321350	1.000000	0.000403	0.000065	-0.000099	-1.077172	-8.488400	45.747957
36530	1.481983	-0.368382	9.017340	0.232773	-0.039003	-0.670003	1.000000	-0.000533	0.000063	0.000028	-1.133344	-8.484027	45.749334
36531	1.604597	-0.200606	9.485478	0.141144	0.125295	-0.192207	1.000000	0.000092	0.000096	0.000097	-1.119037	-8.475798	45.758623
36532	1.692985	0.052305	9.647872	0.004363	0.350393	-0.023532	1.000000	-0.000046	0.000120	0.000101	-1.120679	-8.464793	45.768416
36533	1.575597	-0.395483	9.671625	0.240937	-0.045763	-0.008652	1.000000	-0.000169	0.000141	0.000037	-1.135197	-8.451499	45.770686
36534	1.262658	-0.525324	9.475179	0.141808	-0.338345	-0.246355	1.000000	0.000017	0.000143	0.000032	-1.128401	-8.438040	45.772449
36535	1.474534	0.038434	10.119525	-0.187404	0.148869	0.410973	1.000000	-0.000032	0.000188	0.000069	-1.127733	-8.419240	45.778263
36536	1.409708	-0.206190	9.861576	-0.025718	-0.042886	0.151146	1.000000	-0.000059	0.000103	-0.000003	-1.129029	-8.410461	45.776014
36537	1.088498	-0.258039	9.756144	-0.196453	-0.296516	0.000938	1.000000	0.000029	0.000115	0.000011	-1.120463	-8.400154	45.775382
36538	1.358086	-0.085470	9.846811	-0.143304	0.007217	0.126669	1.000000	-0.000059	0.000015	0.000026	-1.122372	-8.401342	45.776664
36539	1.349910	-0.296925	10.035422	-0.020132	-0.163738	0.316128	1.000000	-0.000048	-0.000001	0.000033	-1.122996	-8.404289	45.778807
36540	1.498017	-0.296519	9.657470	0.124809	-0.024871	-0.036057	1.000000	-0.000038	-0.000065	0.000008	-1.122238	-8.414576	45.778238
36541	1.423991	-0.115673	9.732903	-0.064678	0.040867	0.024216	1.000000	0.000003	-0.000016	-0.000063	-1.115430	-8.419471	45.769290
36542	1.399188	-0.191564	9.637524	-0.016459	-0.022474	-0.072281	1.000000	-0.000004	-0.000031	-0.000016	-1.110364	-8.425935	45.765856
36543	1.323829	-0.150337	9.699509	-0.105344	-0.053855	-0.022815	1.000000	-0.000032	-0.000018	-0.000041	-1.107959	-8.430968	45.759459
36544	1.499403	-0.016394	9.708349	-0.081253	0.162633	0.009098	1.000000	-0.000033	-0.000019	0.000006	-1.106537	-8.436052	45.758478
36545	1.503774	-0.154783	9.498009	0.044618	0.087516	-0.195629	1.000000	-0.000043	-0.000009	0.000011	-1.106280	-8.440042	45.758025
36546	1.481858	-0.140248	9.691488	-0.003691	0.064258	-0.007772	1.000000	-0.000057	0.000024	0.000020	-1.107759	-8.440170	45.758545
36547	1.509109	-0.167050	9.598060	0.044562	0.073679	-0.095659	1.000000	-0.000092	0.000009	0.000037	-1.113560	-8.442036	45.761067
36548	1.340011	-0.173241	9.702773	-0.080183	-0.059533	-0.016797	1.000000	-0.000054	0.000060	0.000023	-1.114753	-8.438036	45.761932
36549	1.436473	-0.172352	9.763008	-0.021036	0.004407	0.056914	1.000000	-0.000047	0.000040	0.000048	-1.115544	-8.436314	45.765719
36550	1.410486	-0.144209	9.683995	-0.049799	0.013268	-0.025585	1.000000	-0.000058	0.000043	0.000012	-1.117041	-8.434310	45.765376
36551	1.413648	-0.223919	9.789373	-0.002885	-0.049614	0.080638	1.000000	-0.000043	0.000030	0.000049	-1.117409	-8.433691	45.769271
36552	1.375262	-0.151439	9.828605	-0.085640	-0.029755	0.112409	1.000000	-0.000033	0.000021	0.000021	-1.116094	-8.434128	45.769924
36553	1.394311	-0.276848	9.791432	0.021338	-0.100843	0.080859	1.000000	-0.000043	0.000004	0.000015	-1.115892	-8.436563	45.770018
36554	1.351095	-0.305388	9.862644	0.003397	-0.158734	0.145488	1.000000	-0.000007	-0.000028	0.000019	-1.111665	-8.442543	45.770572
36555	1.325938	-0.205564	9.802344	-0.078704	-0.102685	0.080218	1.000000	-0.000012	-0.000058	0.000003	-1.107680	-8.452163	45.769376
36556	1.283863	-0.227858	9.724998	-0.083873	-0.142984	-0.002064	1.000000	-0.000019	-0.000112	-0.000011	-1.104314	-8.467840	45.766622
36557	1.391598	-0.231886	9.712250	-0.006493	-0.070681	0.001236	1.000000	0.000001	-0.000106	0.000012	-1.099023	-8.482902	45.766608
36558	1.437143	-0.098791	9.656973	-0.064874	0.057406	-0.049247	1.000000	-0.000010	-0.000103	-0.000023	-1.094475	-8.497572	45.762457
36559	1.520143	-0.144674	9.546178	0.036734	0.092493	-0.145662	1.000000	-0.000049	-0.000083	0.000026	-1.095222	-8.509933	45.764011
36560	1.525019	-0.218335	9.502817	0.096429	0.047191	-0.186403	1.000000	-0.000047	-0.000060	0.000025	-1.095668	-8.519574	45.765356
36561	1.567320	-0.154968	9.452953	0.085284	0.125315	-0.230628	1.000000	-0.000048	-0.000014	0.000028	-1.096236	-8.524086	45.766950
36562	1.563532	-0.188504	9.479763	0.103148	0.096542	-0.204040	1.000000	-0.000053	0.000028	0.000025	-1.097348	-8.523719	45.768125
36563	1.508668	-0.274855	9.480601	0.126997	-0.002140	-0.209704	1.000000	-0.000074	0.000080	0.000033	-1.100985	-8.517410	45.770064
36564	1.498036	-0.199702	9.572371	0.055792	0.035561	-0.121976	1.000000	-0.000057	0.000098	0.000009	-1.102279	-8.509107	45.769223
36565	1.457016	-0.162255	9.614561	-0.003332	0.030420	-0.087048	1.000000	-0.000085	0.000136	0.000041	-1.107293	-8.496385	45.771934
36566	1.392456	-0.242950	9.688107	0.002326	-0.076759	-0.022310	1.000000	-0.000046	0.000128	0.000019	-1.107520	-8.484593	45.772207
36567	1.413653	-0.236987	9.789065	0.002057	-0.065606	0.080545	1.000000	-0.000051	0.000097	0.000004	-1.107958	-8.476400	45.770717
36568	1.389018	-0.251027	9.836969	-0.009781	-0.096548	0.124562	1.000000	-0.000047	0.000060	-0.000006	-1.107755	-8.472532	45.771594
36569	1.423249	-0.217945	9.838439	-0.009422	-0.049085	0.130427	1.000000	-0.000023	0.000044	-0.000009	-1.104834	-8.470423	45.768704
36570	1.404245	-0.164547	9.856851	-0.062458	-0.027201	0.144815	1.000000	-0.000028	0.000013	-0.000025	-1.102191	-8.471961	45.767352
36571	1.479474	-0.135663	9.813720	-0.026305	0.049428	0.112695	1.000000	-0.000021	-0.000034	-0.000010	-1.099030	-8.478798	45.764528
36572	1.482468	-0.138089	9.789487	-0.019943	0.051252	0.089222	1.000000	-0.000033	0.000007	0.000016	-1.097617	-8.480900	45.767426
36573	1.466273	-0.121180	9.786152	-0.043286	0.051001	0.083218	1.000000	-0.000030	-0.000056	-0.000004	-1.095594	-8.490270	45.765442
36574	1.512567	-0.129907	9.693161	0.004910	0.084855	-0.001731	1.000000	-0.000020	-0.000054	0.000020	-1.092807	-8.499446	45.769559
36575	1.463957	-0.148540	9.664279	-0.012430	0.038997	-0.037113	1.000000	-0.000027	-0.000007	0.000028	-1.091027	-8.503174	45.771181
36576	1.524240	-0.138697	9.596275	0.029744	0.094292	-0.095627	1.000000	-0.000038	-0.000011	0.000028	-1.090447	-8.507247	45.772786
36577	1.473523	-0.121364	9.589056	-0.017282	0.070585	-0.110589	1.000000	-0.000042	-0.000016	0.000046	-1.090669	-8.511891	45.776440
36578	1.460389	-0.177535	9.542557	0.018729	0.026097	-0.157450	1.000000	-0.000060	0.000014	0.000049	-1.092975	-8.513144	45.780411
36579	1.445247	-0.197600	9.517702	0.025055	0.003744	-0.183887	1.000000	-0.000064	0.000010	0.000043	-1.095636	-8.514882	45.783726
36580	1.455773	-0.212614	9.569397	0.036903	-0.003723	-0.130928	1.000000	-0.000054	0.000060	0.000023	-1.096820	-8.510887	45.784595
36581	1.484380	-0.176268	9.619302	0.025155	0.038023	-0.078041	1.000000	-0.000056	0.000064	0.000035	-1.098433	-8.506397	45.786764
36582	1.484967	-0.213802	9.597823	0.055133	0.014909	-0.098482	1.000000	-0.000064	0.000056	0.000023	-1.100792	-8.502809	45.787618
36583	1.452242	-0.222502	9.718257	0.025154	-0.024671	0.015934	1.000000	-0.000053	0.000088	0.000010	-1.101612	-8.495660	45.786882
36584	1.432160	-0.169618	9.736884	-0.027869	-0.002780	0.030380	1.000000	-0.000045	0.000083	-0.000007	-1.101205	-8.489086	45.784210
36585	1.426944	-0.203086	9.763815	-0.009990	-0.031655	0.056881	1.000000	-0.000051	0.000070	-0.000006	-1.101527	-8.484012	45.781623
36586	1.370860	-0.218354	9.783527	-0.039447	-0.083230	0.068398	1.000000	-0.000047	0.000074	-0.000001	-1.101505	-8.478471	45.779698
36587	1.405762	-0.151082	9.782586	-0.062703	-0.010772	0.071336	1.000000	-0.000043	0.000064	0.000000	-1.101038	-8.474042	45.777877
36588	1.366858	-0.183996	9.805452	-0.068504	-0.063116	0.088846	1.000000	-0.000063	0.000025	0.000002	-1.102850	-8.474066	45.776327
36589	1.418585	-0.168801	9.810139	-0.044482	-0.016430	0.100812	1.000000	-0.000039	-0.000005	-0.000007	-1.101761	-8.477541	45.773817
36590	1.427967	-0.140813	9.735020	-0.049655	0.016236	0.027374	1.000000	-0.000049	-0.000009	0.000016	-1.102324	-8.481430	45.773992
36591	1.428189	-0.141823	9.734973	-0.049350	0.015235	0.027377	1.000000	-0.000048	-0.000014	0.000028	-1.102891	-8.485951	45.775576
36592	1.472788	-0.185337	9.644643	0.022446	0.024267	-0.054537	1.000000	-0.000048	-0.000014	0.000028	-1.103461	-8.490418	45.777154
36593	1.455372	-0.203243	9.643867	0.022716	-0.000956	-0.057531	1.000000	-0.000050	-0.000010	0.000039	-1.104469	-8.494424	45.780038
36594	1.489652	-0.205159	9.647800	0.046712	0.021512	-0.048541	1.000000	-0.000064	0.000010	0.000043	-1.107134	-8.496124	45.783342
36595	1.457982	-0.207389	9.619651	0.029368	-0.000035	-0.081010	1.000000	-0.000037	0.000003	0.000033	-1.106582	-8.498697	45.785495
36596	1.468743	-0.222165	9.671297	0.041245	-0.007600	-0.028067	1.000000	-0.000045	0.000035	0.000037	-1.106939	-8.497479	45.787982
36597	1.402203	-0.223661	9.639270	0.000209	-0.052593	-0.069538	1.000000	-0.000057	0.000037	0.000025	-1.108437	-8.496110	45.789047
36598	1.449393	-0.241270	9.670770	0.041817	-0.033835	-0.031080	1.000000	-0.000056	0.000064	0.000035	-1.109975	-8.491711	45.794201
36599	1.411458	-0.239664	9.691099	0.012391	-0.061189	-0.016609	1.000000	-0.000034	0.000026	0.000009	-1.108629	-8.491623	45.793451
36600	1.425790	-0.221633	9.716091	0.006689	-0.040877	0.009874	1.000000	-0.000030	0.000030	0.000014	-1.106899	-8.491128	45.795879
36601	1.390806	-0.221613	9.712205	-0.016697	-0.065323	0.000866	1.000000	-0.000040	0.000041	-0.000004	-1.105953	-8.489356	45.793615
36602	1.427146	-0.225009	9.692074	0.013333	-0.039982	-0.013611	1.000000	-0.000048	0.000032	0.000008	-1.106120	-8.488683	45.795678
36603	1.408167	-0.172015	9.710616	-0.039677	-0.018111	0.000910	1.000000	-0.000034	0.000026	0.000009	-1.104774	-8.488596	45.794928
36604	1.424457	-0.190327	9.713883	-0.015706	-0.019888	0.006894	1.000000	-0.000044	0.000010	-0.000020	-1.104044	-8.490342	45.792041
36605	1.424279	-0.191028	9.713895	-0.015402	-0.020887	0.006892	1.000000	-0.000032	0.000008	-0.000008	-1.102200	-8.492324	45.789440
36606	1.464837	-0.161691	9.667049	-0.002964	0.032409	-0.034003	1.000000	-0.000048	0.000020	-0.000021	-1.101919	-8.493071	45.787601
36607	1.428363	-0.125682	9.684834	-0.056007	0.030052	-0.022489	1.000000	-0.000051	0.000023	0.000014	-1.102553	-8.493321	45.787472
36608	1.481619	-0.146729	9.667906	-0.002323	0.054634	-0.030963	1.000000	-0.000044	0.000023	0.000008	-1.102335	-8.493679	45.789061
36609	1.493174	-0.127307	9.717110	-0.014048	0.071997	0.019028	1.000000	-0.000061	0.000033	0.000019	-1.104197	-8.492770	45.789466
36610	1.512088	-0.147818	9.696207	0.015941	0.073135	0.001541	1.000000	-0.000049	0.000018	0.000026	-1.104805	-8.493674	45.793284
36611	1.461566	-0.201213	9.669762	0.022173	0.002403	-0.031049	1.000000	-0.000049	0.000018	0.000026	-1.105460	-8.494510	45.794562
36612	1.475864	-0.183552	9.694784	0.016488	0.022679	-0.004532	1.000000	-0.000046	0.000040	0.000025	-1.105707	-8.492777	45.797346
36613	1.490035	-0.165834	9.719832	0.010799	0.042962	0.021990	1.000000	-0.000043	0.000031	0.000025	-1.105609	-8.492119	45.798535
36614	1.437538	-0.182863	9.715136	-0.012629	-0.005708	0.009921	1.000000	-0.000041	0.000026	0.000037	-1.105512	-8.492110	45.802802
36615	1.439861	-0.185391	9.691002	-0.006297	-0.003759	-0.013553	1.000000	-0.000026	0.000020	0.000015	-1.103378	-8.492671	45.802817
36616	1.419022	-0.201062	9.714462	-0.012051	-0.031925	0.006867	1.000000	-0.000032	0.000021	0.000021	-1.102051	-8.493148	45.805016
36617	1.437312	-0.150579	9.712840	-0.035334	0.016309	0.007001	1.000000	-0.000043	0.000017	0.000020	-1.101898	-8.494045	45.805652
36618	1.435953	-0.185825	9.715314	-0.011411	-0.009717	0.009919	1.000000	-0.000037	0.000017	0.000015	-1.100893	-8.495094	45.807984
36619	1.421548	-0.170764	9.687977	-0.028741	-0.006970	-0.019528	1.000000	-0.000034	0.000040	0.000014	-1.099600	-8.493458	45.807785
36620	1.421018	-0.171722	9.688038	-0.028427	-0.007971	-0.019527	1.000000	-0.000059	0.000014	0.000026	-1.101366	-8.494673	45.810163
36621	1.444085	-0.159563	9.640451	-0.016041	0.021179	-0.063409	1.000000	-0.000053	0.000002	-0.000008	-1.101866	-8.497448	45.807522
36622	1.454779	-0.174514	9.692082	-0.004120	0.013452	-0.010489	1.000000	-0.000044	0.000036	0.000013	-1.101669	-8.496253	45.809307
36623	1.459867	-0.179003	9.643761	0.008228	0.018389	-0.057434	1.000000	-0.000047	0.000014	0.000015	-1.101880	-8.497607	45.809284
36624	1.458478	-0.214479	9.646213	0.032155	-0.007621	-0.054537	1.000000	-0.000057	0.000024	0.000019	-1.103295	-8.497826	45.810699
36625	1.472839	-0.197048	9.671250	0.026474	0.012634	-0.027991	1.000000	-0.000059	0.000028	0.000031	-1.105176	-8.497510	45.812508
36626	1.489808	-0.181403	9.672131	0.026821	0.035857	-0.024912	1.000000	-0.000058	0.000042	0.000012	-1.106619	-8.495546	45.812797
36627	1.471420	-0.199372	9.671418	0.027088	0.010642	-0.027990	1.000000	-0.000054	0.000033	0.000013	-1.107669	-8.494704	45.812559
36628	1.467657	-0.198504	9.695735	0.021358	0.006651	-0.004517	1.000000	-0.000033	0.000067	0.000024	-1.106473	-8.490110	45.815899
36629	1.446129	-0.214652	9.719253	0.015609	-0.021547	0.015870	1.000000	-0.000071	0.000043	0.000024	-1.109558	-8.488053	45.816834
36630	1.425985	-0.196330	9.740317	-0.013768	-0.024747	0.033376	1.000000	-0.000030	0.000030	0.000014	-1.107806	-8.487598	45.818443
36631	1.429814	-0.235018	9.694426	0.022193	-0.044792	-0.010698	1.000000	-0.000042	0.000045	0.000007	-1.107295	-8.485323	45.817478
36632	1.428381	-0.165224	9.713919	-0.030778	0.001242	0.007030	1.000000	-0.000040	0.000027	0.000014	-1.106755	-8.485287	45.819102
36633	1.409251	-0.217346	9.715533	-0.006887	-0.048989	0.006802	1.000000	-0.000043	0.000017	0.000020	-1.106599	-8.486190	45.819736
36634	1.440387	-0.217162	9.743783	0.011100	-0.029572	0.039327	1.000000	-0.000037	0.000017	0.000015	-1.105622	-8.487205	45.820916
36635	1.391986	-0.201424	9.712383	-0.029944	-0.050195	0.000833	1.000000	-0.000047	0.000014	0.000015	-1.105832	-8.488563	45.820890
36636	1.446586	-0.187781	9.693060	0.000106	-0.000583	-0.010479	1.000000	-0.000019	0.000001	0.000017	-1.102801	-8.491434	45.823385
36637	1.428918	-0.205262	9.692221	0.000373	-0.025796	-0.013584	1.000000	-0.000041	-0.000001	0.000027	-1.102613	-8.494478	45.824870
36638	1.412207	-0.188680	9.689011	-0.022985	-0.025999	-0.019544	1.000000	-0.000057	0.000010	0.000014	-1.103961	-8.496265	45.825893
36639	1.431310	-0.209040	9.668050	0.006991	-0.024792	-0.037061	1.000000	-0.000044	0.000023	0.000008	-1.103783	-8.496584	45.825121
36640	1.454190	-0.196654	9.620544	0.019359	0.004445	-0.080894	1.000000	-0.000049	0.000018	0.000026	-1.104416	-8.497397	45.827568
36641	1.448085	-0.194146	9.668976	0.007644	-0.002565	-0.033952	1.000000	-0.000048	0.000032	0.000008	-1.104656	-8.496619	45.826690
36642	1.481738	-0.195866	9.673088	0.031649	0.019847	-0.024881	1.000000	-0.000048	0.000032	0.000008	-1.104887	-8.495860	45.827297
36643	1.464544	-0.179223	9.669959	0.008290	0.019657	-0.030833	1.000000	-0.000047	0.000027	0.000020	-1.105150	-8.495669	45.827824
36644	1.443347	-0.195412	9.693392	0.002542	-0.008577	-0.010483	1.000000	-0.000060	0.000047	0.000024	-1.107050	-8.493282	45.829821
36645	1.476779	-0.197111	9.697545	0.026550	0.013832	-0.001408	1.000000	-0.000033	0.000041	-0.000010	-1.105287	-8.491579	45.826918
36646	1.437171	-0.159195	9.739627	-0.032489	0.008401	0.033632	1.000000	-0.000044	0.000036	0.000013	-1.105161	-8.490395	45.828001
36647	1.421620	-0.178586	9.714675	-0.026218	-0.013789	0.007034	1.000000	-0.000038	0.000036	0.000008	-1.104228	-8.489223	45.827142
36648	1.456349	-0.145651	9.716461	-0.025844	0.033637	0.013297	1.000000	-0.000034	0.000026	0.000009	-1.102920	-8.489195	45.827612
36649	1.417717	-0.178366	9.738994	-0.031622	-0.018815	0.030502	1.000000	-0.000044	0.000023	0.000008	-1.102740	-8.489518	45.826839
36650	1.434989	-0.162426	9.739895	-0.031281	0.004399	0.033638	1.000000	-0.000043	0.000017	0.000020	-1.102617	-8.490437	45.828241
36651	1.454211	-0.182642	9.718916	-0.001309	0.005619	0.016117	1.000000	-0.000043	0.000004	0.000015	-1.102406	-8.492899	45.828318
36652	1.455085	-0.149263	9.716595	-0.024628	0.029636	0.013313	1.000000	-0.000059	0.000014	0.000026	-1.104202	-8.494179	45.830759
36653	1.442931	-0.170583	9.667355	-0.012364	0.010502	-0.036766	1.000000	-0.000041	-0.000001	0.000027	-1.104014	-8.497229	45.832241
36654	1.459694	-0.188996	9.670507	0.011609	0.008695	-0.030821	1.000000	-0.000035	-0.000015	0.000017	-1.102957	-8.501868	45.833379
36655	1.462427	-0.191725	9.646311	0.017912	0.010742	-0.054290	1.000000	-0.000063	0.000024	0.000025	-1.105197	-8.502021	45.834523
36656	1.461967	-0.192877	9.646358	0.018222	0.009748	-0.054289	1.000000	-0.000051	0.000023	0.000014	-1.105786	-8.502269	45.835238
36657	1.476413	-0.175361	9.671461	0.012571	0.029917	-0.027665	1.000000	-0.000049	0.000018	0.000026	-1.106435	-8.503124	45.836508
36658	1.458294	-0.193133	9.670636	0.012830	0.004718	-0.030820	1.000000	-0.000046	0.000028	-0.000004	-1.106259	-8.502848	45.834930
36659	1.474190	-0.211597	9.673910	0.036800	0.002905	-0.024879	1.000000	-0.000042	0.000045	0.000007	-1.105743	-8.500582	45.833966
36660	1.488410	-0.193956	9.699057	0.031152	0.023066	0.001750	1.000000	-0.000048	0.000019	0.000003	-1.105942	-8.501351	45.833158
36661	1.436993	-0.176472	9.691871	-0.015921	-0.000502	-0.013290	1.000000	-0.000044	0.000036	0.000013	-1.105814	-8.500127	45.832939
36662	1.452647	-0.195184	9.695174	0.008052	-0.002321	-0.007352	1.000000	-0.000066	0.000061	0.000011	-1.108098	-8.496013	45.833651
36663	1.465470	-0.212132	9.722666	0.026030	-0.007201	0.022053	1.000000	-0.000038	0.000036	0.000008	-1.107163	-8.494846	45.832792
36664	1.431605	-0.177693	9.716384	-0.020994	-0.006557	0.010179	1.000000	-0.000042	0.000032	0.000002	-1.106580	-8.494108	45.832003
36665	1.441918	-0.192780	9.768019	-0.009005	-0.014510	0.063050	1.000000	-0.000042	0.000031	0.000025	-1.106475	-8.493473	45.833188
36666	1.449943	-0.198851	9.695504	0.009277	-0.006297	-0.007355	1.000000	-0.000055	0.000019	0.000008	-1.107504	-8.494135	45.833246
36667	1.446645	-0.198250	9.719739	0.003591	-0.010365	0.016112	1.000000	-0.000053	0.000027	0.000025	-1.108571	-8.493897	45.834409
36668	1.466758	-0.184144	9.696493	0.009930	0.015910	-0.004175	1.000000	-0.000047	0.000013	0.000015	-1.108771	-8.495289	45.835457
36669	1.431098	-0.218764	9.694709	0.010142	-0.033499	-0.010542	1.000000	-0.000049	0.000018	0.000026	-1.109419	-8.496150	45.836725
36670	1.434752	-0.186959	9.668269	-0.007197	-0.006392	-0.036758	1.000000	-0.000045	0.000009	0.000003	-1.109199	-8.498093	45.836344
36671	1.468761	-0.188710	9.672375	0.016822	0.015991	-0.027639	1.000000	-0.000049	0.000018	0.000026	-1.109847	-8.498954	45.837612
36672	1.467296	-0.224069	9.674677	0.040737	-0.010047	-0.024900	1.000000	-0.000039	0.000021	0.000026	-1.109323	-8.499507	45.839879
36673	1.433596	-0.189616	9.668389	-0.006297	-0.009386	-0.036759	1.000000	-0.000036	0.000030	0.000020	-1.108410	-8.498931	45.840425
36674	1.455237	-0.211413	9.623263	0.029647	-0.005028	-0.077766	1.000000	-0.000044	0.000036	0.000013	-1.108309	-8.497679	45.840643
36675	1.448971	-0.208950	9.671709	0.017980	-0.012198	-0.030834	1.000000	-0.000044	0.000023	0.000008	-1.108125	-8.498009	45.839867
36676	1.452463	-0.176958	9.645318	0.000639	0.014937	-0.057028	1.000000	-0.000037	0.000023	-0.000020	-1.106716	-8.498331	45.836216
36677	1.428443	-0.191011	9.692859	-0.011073	-0.016446	-0.013297	1.000000	-0.000024	0.000043	0.000014	-1.104242	-8.496319	45.836041
36678	1.459032	-0.190986	9.721253	0.006971	0.002832	0.019299	1.000000	-0.000058	0.000042	0.000012	-1.105692	-8.494382	45.836755
36679	1.441898	-0.174350	9.718143	-0.016394	0.002666	0.013375	1.000000	-0.000041	0.000013	0.000009	-1.105089	-8.495809	45.836084
36680	1.424956	-0.157574	9.715009	-0.039769	0.002499	0.007453	1.000000	-0.000044	0.000023	0.000008	-1.104942	-8.496189	45.836222
36681	1.443904	-0.177880	9.694046	-0.009813	0.003769	-0.010090	1.000000	-0.000058	0.000029	0.000007	-1.106347	-8.495820	45.835317
36682	1.458276	-0.160432	9.719220	-0.015446	0.023871	0.016593	1.000000	-0.000043	0.000017	0.000020	-1.106239	-8.496760	45.836622
36683	1.426592	-0.162288	9.690949	-0.032883	0.002616	-0.016009	1.000000	-0.000057	0.000010	0.000014	-1.107615	-8.498530	45.836566
36684	1.462334	-0.200048	9.673121	0.020739	0.003052	-0.027634	1.000000	-0.000026	0.000020	0.000015	-1.105474	-8.499127	45.837480
36685	1.443426	-0.147050	9.691990	-0.032225	0.024822	-0.012783	1.000000	-0.000044	0.000036	0.000013	-1.105343	-8.497911	45.837260
36686	1.441747	-0.182580	9.694280	-0.008306	-0.001207	-0.010088	1.000000	-0.000063	0.000024	0.000025	-1.107631	-8.498066	45.838705
36687	1.456167	-0.165147	9.719458	-0.013926	0.018879	0.016606	1.000000	-0.000036	0.000017	0.000015	-1.106663	-8.499044	45.838694
36688	1.458736	-0.167576	9.695299	-0.007644	0.020996	-0.006857	1.000000	-0.000041	0.000013	0.000009	-1.106045	-8.500485	45.838634
36689	1.443525	-0.186910	9.670201	-0.001417	-0.001079	-0.033553	1.000000	-0.000046	0.000027	0.000020	-1.106301	-8.500312	45.839156
36690	1.456852	-0.203853	9.697592	0.016591	-0.006048	-0.004173	1.000000	-0.000047	0.000013	0.000015	-1.106447	-8.501691	45.839543
36691	1.420466	-0.167792	9.715496	-0.036422	-0.008484	0.007462	1.000000	-0.000038	0.000022	0.000003	-1.105454	-8.502080	45.838127
36692	1.473644	-0.188952	9.698645	0.017255	0.016162	-0.000935	1.000000	-0.000067	0.000033	0.000024	-1.108133	-8.501120	45.839721
36693	1.424140	-0.207676	9.669415	-0.000250	-0.029255	-0.036797	1.000000	-0.000045	0.000009	0.000003	-1.107893	-8.503003	45.838387
36694	1.441444	-0.191619	9.670419	0.000110	-0.006052	-0.033554	1.000000	-0.000030	0.000030	0.000014	-1.106167	-8.502483	45.839093
36695	1.475155	-0.193312	9.674608	0.024141	0.016303	-0.024397	1.000000	-0.000053	0.000027	0.000025	-1.107230	-8.502257	45.840253
36696	1.420939	-0.174263	9.691572	-0.028931	-0.010320	-0.016002	1.000000	-0.000050	0.000023	0.000014	-1.107922	-8.502514	45.840812
36697	1.454632	-0.176057	9.695765	-0.004898	0.012031	-0.006840	1.000000	-0.000044	0.000036	0.000013	-1.107788	-8.501302	45.840591
36698	1.459712	-0.180296	9.647468	0.007341	0.017319	-0.053766	1.000000	-0.000054	0.000033	0.000013	-1.108833	-8.500503	45.841221
36699	1.434717	-0.229307	9.697097	0.019268	-0.039206	-0.007446	1.000000	-0.000047	0.000013	0.000015	-1.109035	-8.501881	45.841186
36700	1.455949	-0.180570	9.671756	0.001984	0.012189	-0.030300	1.000000	-0.000042	0.000032	0.000002	-1.108453	-8.501149	45.840530
36701	1.437787	-0.198150	9.670832	0.002231	-0.013001	-0.033561	1.000000	-0.000036	0.000017	0.000015	-1.107484	-8.502131	45.840518
36702	1.449253	-0.178942	9.720247	-0.009348	0.003892	0.016629	1.000000	-0.000042	0.000031	0.000025	-1.107402	-8.501551	45.842517
36703	1.436834	-0.199957	9.670936	0.002830	-0.014993	-0.033564	1.000000	-0.000055	0.000019	0.000008	-1.108385	-8.502285	45.841715
36704	1.464938	-0.198492	9.723494	0.014935	0.001039	0.022533	1.000000	-0.000038	0.000022	0.000003	-1.107400	-8.502683	45.840505
36705	1.435964	-0.201581	9.671032	0.003435	-0.016982	-0.033568	1.000000	-0.000034	0.000026	0.000009	-1.106040	-8.502624	45.839751
36706	1.447426	-0.182321	9.720456	-0.008130	-0.000106	0.016630	1.000000	-0.000039	0.000021	0.000026	-1.105519	-8.503110	45.841499
36707	1.470511	-0.169528	9.673111	0.004159	0.029415	-0.027017	1.000000	-0.000036	0.000017	0.000015	-1.104549	-8.504094	45.841487
36708	1.437405	-0.205577	9.647006	0.010299	-0.016802	-0.057036	1.000000	-0.000048	0.000046	0.000013	-1.104848	-8.501826	45.841842
36709	1.445693	-0.184901	9.720665	-0.007221	-0.003108	0.016631	1.000000	-0.000042	0.000031	0.000025	-1.104738	-8.501209	45.843025
36710	1.448055	-0.187461	9.696536	-0.000957	-0.000933	-0.006832	1.000000	-0.000050	0.000023	0.000014	-1.105377	-8.501483	45.843399
36711	1.413344	-0.187555	9.692434	-0.024388	-0.025261	-0.016016	1.000000	-0.000044	0.000023	0.000008	-1.105187	-8.501823	45.842620
36712	1.447131	-0.189264	9.696639	-0.000353	-0.002924	-0.006832	1.000000	-0.000040	0.000026	0.000014	-1.104674	-8.501717	45.842730
36713	1.443668	-0.188557	9.720896	-0.006007	-0.007099	0.016629	1.000000	-0.000048	0.000032	0.000008	-1.104902	-8.500961	45.841847
36714	1.445988	-0.191038	9.696774	0.000254	-0.004918	-0.006833	1.000000	-0.000040	0.000026	0.000014	-1.104358	-8.500854	45.842023
36715	1.431965	-0.175823	9.669477	-0.017160	-0.001868	-0.036189	1.000000	-0.000045	0.000009	0.000003	-1.104115	-8.502741	45.840686
36716	1.483519	-0.160873	9.674693	0.006947	0.044655	-0.023696	1.000000	-0.000054	0.000032	0.000013	-1.105155	-8.501912	45.840837
36717	1.444937	-0.193715	9.696878	0.001169	-0.007907	-0.006835	1.000000	-0.000029	-0.000002	0.000016	-1.103351	-8.505090	45.841032
36718	1.447578	-0.196109	9.672710	0.007430	-0.005723	-0.030297	1.000000	-0.000052	0.000028	0.000002	-1.103903	-8.504815	45.839896
36719	1.427441	-0.177930	9.693840	-0.021897	-0.009042	-0.012728	1.000000	-0.000052	0.000040	0.000030	-1.105015	-8.503053	45.841611
36720	1.477650	-0.197514	9.701214	0.025826	0.012411	0.002362	1.000000	-0.000050	0.000023	0.000014	-1.105619	-8.503348	45.842040
36721	1.444033	-0.163122	9.694994	-0.021223	0.013151	-0.009417	1.000000	-0.000040	0.000026	0.000014	-1.105064	-8.503239	45.841922
36722	1.443556	-0.163973	9.695050	-0.020915	0.012155	-0.009415	1.000000	-0.000044	0.000023	0.000008	-1.104864	-8.503564	45.841433
36723	1.425381	-0.181610	9.694074	-0.020676	-0.013029	-0.012729	1.000000	-0.000040	0.000026	0.000014	-1.104309	-8.503456	45.841315
36724	1.442689	-0.165708	9.695150	-0.020310	0.010158	-0.009411	1.000000	-0.000047	0.000013	0.000015	-1.104508	-8.504872	45.841780
36725	1.458636	-0.184360	9.698359	0.003673	0.008288	-0.003523	1.000000	-0.000050	0.000050	0.000024	-1.105229	-8.502070	45.842754
36726	1.455205	-0.183751	9.722610	-0.001975	0.004082	0.019937	1.000000	-0.000043	0.000004	0.000015	-1.105023	-8.504563	45.843487
36727	1.423624	-0.185419	9.694261	-0.019466	-0.017019	-0.012733	1.000000	-0.000054	0.000019	0.000008	-1.106002	-8.505305	45.842681
36728	1.443822	-0.171246	9.671155	-0.013154	0.009382	-0.032865	1.000000	-0.000050	0.000023	0.000014	-1.106647	-8.505625	45.842936
36729	1.459903	-0.189825	9.674341	0.010829	0.007511	-0.026981	1.000000	-0.000040	0.000026	0.000014	-1.106092	-8.505520	45.842817
36730	1.456566	-0.189120	9.698579	0.005191	0.003288	-0.003521	1.000000	-0.000043	0.000017	0.000020	-1.105861	-8.506484	45.844084
36731	1.473906	-0.173390	9.699664	0.005564	0.026475	-0.000185	1.000000	-0.000061	0.000019	0.000014	-1.107645	-8.507174	45.843914
36732	1.455562	-0.191398	9.698685	0.005804	0.001288	-0.003521	1.000000	-0.000060	0.000046	0.000024	-1.109504	-8.504775	45.845173
36733	1.454944	-0.192391	9.698758	0.006108	0.000290	-0.003521	1.000000	-0.000036	0.000017	0.000015	-1.108531	-8.505766	45.845158
36734	1.451513	-0.191663	9.723009	0.000472	-0.003927	0.019937	1.000000	-0.000044	0.000036	0.000013	-1.108404	-8.504526	45.845343
36735	1.451030	-0.192585	9.723063	0.000778	-0.004928	0.019937	1.000000	-0.000047	0.000013	0.000015	-1.108602	-8.505915	45.845302
36736	1.487762	-0.195972	9.703109	0.030773	0.020594	0.005703	1.000000	-0.000048	0.000032	0.000008	-1.108795	-8.505219	45.844720
36737	1.452877	-0.196035	9.698995	0.007327	-0.003705	-0.003523	1.000000	-0.000048	0.000032	0.000008	-1.109018	-8.504471	45.843835
36738	1.469973	-0.180114	9.700138	0.007704	0.019478	-0.000170	1.000000	-0.000036	0.000030	0.000020	-1.108084	-8.503922	45.844522
36739	1.451694	-0.197846	9.699135	0.007937	-0.005703	-0.003524	1.000000	-0.000058	0.000029	0.000007	-1.109476	-8.503573	45.843609
36740	1.451081	-0.198770	9.699208	0.008253	-0.006697	-0.003525	1.000000	-0.000032	0.000034	0.000026	-1.108158	-8.502510	45.845345
36741	1.450455	-0.199431	9.699288	0.008558	-0.007695	-0.003526	1.000000	-0.000030	0.000030	0.000014	-1.106430	-8.502010	45.845253
36742	1.430411	-0.181044	9.720423	-0.020764	-0.011057	0.014058	1.000000	-0.000052	0.000028	0.000002	-1.107019	-8.501777	45.844241
36743	1.472931	-0.187424	9.652118	0.021107	0.020977	-0.047077	1.000000	-0.000035	0.000025	0.000032	-1.106124	-8.501819	45.846187
36744	1.463640	-0.183697	9.724747	0.003597	0.010235	0.023296	1.000000	-0.000046	0.000027	0.000020	-1.106391	-8.501677	45.847082
36745	1.445449	-0.201391	9.723715	0.003828	-0.014945	0.019926	1.000000	-0.000044	0.000022	0.000008	-1.106196	-8.502026	45.846299
36746	1.449052	-0.169457	9.697548	-0.013539	0.012382	-0.006028	1.000000	-0.000053	0.000027	0.000025	-1.107266	-8.501816	45.848148
36747	1.447423	-0.204796	9.699629	0.010373	-0.013687	-0.003534	1.000000	-0.000032	0.000021	0.000021	-1.105928	-8.502361	45.848795
36748	1.448199	-0.171164	9.697645	-0.012942	0.010384	-0.006025	1.000000	-0.000048	0.000019	0.000002	-1.106133	-8.503222	45.847648
36749	1.449372	-0.208317	9.675544	0.016903	-0.012425	-0.026994	1.000000	-0.000070	0.000043	0.000023	-1.109189	-8.501228	45.848567
36750	1.429493	-0.190140	9.696656	-0.012409	-0.015785	-0.009405	1.000000	-0.000029	-0.000002	0.000016	-1.107403	-8.504401	45.849110
36751	1.466482	-0.193377	9.676695	0.017586	0.009766	-0.023613	1.000000	-0.000050	0.000023	0.000014	-1.108014	-8.504700	45.848963
36752	1.446511	-0.175240	9.697824	-0.011727	0.006393	-0.006020	1.000000	-0.000053	0.000027	0.000025	-1.109060	-8.504531	45.850229
36753	1.448922	-0.177773	9.673695	-0.005491	0.008666	-0.029475	1.000000	-0.000046	0.000027	0.000020	-1.109307	-8.504381	45.850745
36754	1.430726	-0.195523	9.672641	-0.005252	-0.016509	-0.032867	1.000000	-0.000050	0.000023	0.000014	-1.109853	-8.504642	45.851178
36755	1.444888	-0.178175	9.698013	-0.010800	0.003398	-0.006017	1.000000	-0.000040	0.000040	0.000019	-1.109345	-8.503000	45.851618
36756	1.458095	-0.195309	9.725353	0.007250	-0.001789	0.023299	1.000000	-0.000053	0.000000	0.000015	-1.110282	-8.505976	45.852051
36757	1.444073	-0.180380	9.698093	-0.010200	0.001391	-0.006016	1.000000	-0.000070	0.000043	0.000023	-1.113335	-8.503986	45.852968
36758	1.443416	-0.181409	9.698172	-0.009891	0.000395	-0.006016	1.000000	-0.000028	0.000024	0.000026	-1.111621	-8.504065	45.854498
36759	1.445989	-0.183691	9.674023	-0.003660	0.002681	-0.029471	1.000000	-0.000047	0.000013	0.000014	-1.111814	-8.505462	45.854453
36760	1.442778	-0.183210	9.698233	-0.009288	-0.001602	-0.006015	1.000000	-0.000053	0.000014	0.000020	-1.112834	-8.506840	45.855256
36761	1.445421	-0.185685	9.674070	-0.003059	0.000689	-0.029470	1.000000	-0.000043	0.000017	0.000020	-1.112664	-8.507788	45.855875
36762	1.459724	-0.168325	9.699440	-0.008595	0.020585	-0.002603	1.000000	-0.000042	0.000030	0.000025	-1.112563	-8.507145	45.857390
36763	1.456219	-0.167696	9.723698	-0.014213	0.016294	0.020854	1.000000	-0.000040	0.000026	0.000014	-1.112001	-8.507050	45.857269
36764	1.426234	-0.205202	9.673104	-0.002231	-0.026464	-0.032888	1.000000	-0.000061	0.000019	0.000013	-1.113795	-8.507785	45.857396
36765	1.474843	-0.189011	9.702701	0.015999	0.016680	0.003257	1.000000	-0.000050	0.000023	0.000014	-1.114403	-8.508089	45.857247
36766	1.443103	-0.190436	9.674324	-0.001549	-0.004294	-0.029471	1.000000	-0.000038	0.000022	0.000003	-1.113381	-8.508581	45.856308
36767	1.436714	-0.188465	9.722756	-0.013088	-0.011894	0.017436	1.000000	-0.000059	0.000027	0.000031	-1.115239	-8.508335	45.858095
36768	1.456894	-0.174311	9.699759	-0.006770	0.014579	-0.002591	1.000000	-0.000050	0.000023	0.000014	-1.115795	-8.508619	45.858439
36769	1.438684	-0.192121	9.698669	-0.006549	-0.010590	-0.006019	1.000000	-0.000053	0.000027	0.000025	-1.116846	-8.508425	45.859590
36770	1.438119	-0.193114	9.698733	-0.006241	-0.011580	-0.006020	1.000000	-0.000042	0.000030	0.000025	-1.116743	-8.507786	45.861067
36771	1.437558	-0.194039	9.698798	-0.005936	-0.012578	-0.006021	1.000000	-0.000046	0.000027	0.000020	-1.116987	-8.507643	45.861582
36772	1.471367	-0.195935	9.703091	0.018149	0.009683	0.003262	1.000000	-0.000048	0.000019	0.000002	-1.117116	-8.508398	45.860488
36773	1.420234	-0.178269	9.695783	-0.029003	-0.013655	-0.011870	1.000000	-0.000049	0.000017	0.000026	-1.117751	-8.509299	45.861741
36774	1.456924	-0.181636	9.675902	0.001002	0.011920	-0.026035	1.000000	-0.000044	0.000036	0.000013	-1.117549	-8.508063	45.861919
36775	1.435628	-0.197848	9.699007	-0.004695	-0.016566	-0.006026	1.000000	-0.000046	0.000027	0.000020	-1.117792	-8.507921	45.862433
36776	1.472353	-0.201313	9.679121	0.025295	0.009001	-0.020189	1.000000	-0.000057	0.000023	0.000019	-1.119173	-8.508230	45.862928
36777	1.440714	-0.202794	9.650710	0.007740	-0.011920	-0.052934	1.000000	-0.000040	0.000013	0.000009	-1.118558	-8.509682	45.862245
36778	1.431509	-0.199375	9.723306	-0.009710	-0.022912	0.017421	1.000000	-0.000054	0.000019	0.000008	-1.119514	-8.510550	45.861657
36779	1.457723	-0.188029	9.651944	0.008422	0.010248	-0.049483	1.000000	-0.000050	0.000023	0.000014	-1.120120	-8.510858	45.861506
36780	1.454270	-0.187631	9.676187	0.002818	0.005935	-0.026030	1.000000	-0.000053	0.000027	0.000025	-1.121203	-8.510590	45.862915
36781	1.434301	-0.169395	9.697345	-0.026476	0.002528	-0.008418	1.000000	-0.000038	0.000022	0.000003	-1.120195	-8.510999	45.861494
36782	1.453279	-0.189365	9.676302	0.003430	0.003960	-0.026029	1.000000	-0.000042	0.000030	0.000025	-1.120127	-8.510332	45.862682
36783	1.446961	-0.187225	9.724724	-0.008086	-0.003715	0.020874	1.000000	-0.000032	0.000008	-0.000008	-1.118261	-8.512334	45.860063
36784	1.439016	-0.174549	9.649107	-0.013746	0.006234	-0.055317	1.000000	-0.000040	0.000026	0.000014	-1.117716	-8.512277	45.860374
36785	1.446054	-0.188823	9.724828	-0.007482	-0.005717	0.020873	1.000000	-0.000048	0.000032	0.000008	-1.117928	-8.511544	45.859484
36786	1.451433	-0.192583	9.676516	0.004635	-0.000008	-0.026029	1.000000	-0.000040	0.000026	0.000014	-1.117451	-8.511405	45.859523
36787	1.434312	-0.175658	9.673508	-0.018749	-0.000075	-0.031864	1.000000	-0.000038	0.000035	0.000008	-1.116495	-8.510273	45.858662
36788	1.447373	-0.192920	9.700832	-0.000673	-0.005356	-0.002579	1.000000	-0.000059	0.000014	0.000025	-1.118316	-8.511638	45.860196
36789	1.433420	-0.177754	9.673602	-0.018151	-0.002070	-0.031863	1.000000	-0.000052	0.000028	0.000002	-1.118891	-8.511354	45.858642
36790	1.464177	-0.178113	9.702127	0.000035	0.016814	0.000901	1.000000	-0.000028	0.000024	0.000026	-1.117167	-8.511436	45.860303
36791	1.446081	-0.195573	9.700972	0.000247	-0.008349	-0.002581	1.000000	-0.000040	0.000013	0.000009	-1.116551	-8.512892	45.859618
36792	1.426197	-0.177317	9.722123	-0.029036	-0.011773	0.015037	1.000000	-0.000046	0.000026	0.000020	-1.116772	-8.512726	45.860209
36793	1.462853	-0.180669	9.702279	0.000956	0.013820	0.000906	1.000000	-0.000048	0.000032	0.000008	-1.116983	-8.511994	45.859319
36794	1.448750	-0.165328	9.675081	-0.016516	0.017126	-0.028371	1.000000	-0.000046	0.000026	0.000020	-1.117202	-8.511801	45.859822
36795	1.464883	-0.183857	9.678200	0.007478	0.015195	-0.022541	1.000000	-0.000034	0.000012	0.000003	-1.115778	-8.513307	45.858502
36796	1.427132	-0.182416	9.698166	-0.021900	-0.012401	-0.008414	1.000000	-0.000058	0.000040	0.000036	-1.117644	-8.511536	45.861315
36797	1.429699	-0.184613	9.674024	-0.015695	-0.010026	-0.031864	1.000000	-0.000018	0.000002	-0.000007	-1.114193	-8.514233	45.858827
36798	1.460656	-0.184987	9.702529	0.002498	0.008825	0.000911	1.000000	-0.000064	0.000029	0.000013	-1.116356	-8.513852	45.858777
36799	1.431845	-0.187945	9.649922	-0.009186	-0.008642	-0.055314	1.000000	-0.000046	0.000026	0.000020	-1.116595	-8.513719	45.859289
36800	1.441859	-0.203799	9.701431	0.003009	-0.017344	-0.002593	1.000000	-0.000046	0.000026	0.000020	-1.116797	-8.513642	45.859956
36801	1.439608	-0.168925	9.723821	-0.026178	0.003379	0.018539	1.000000	-0.000050	0.000023	0.000014	-1.117399	-8.513957	45.859802
36802	1.460398	-0.224828	9.680415	0.033222	-0.016893	-0.020223	1.000000	-0.000040	0.000026	0.000014	-1.116790	-8.513786	45.860279
36803	1.441769	-0.172229	9.699721	-0.019655	0.004770	-0.004907	1.000000	-0.000057	0.000010	0.000014	-1.118146	-8.515594	45.860197
36804	1.444285	-0.174545	9.675587	-0.013448	0.007175	-0.028354	1.000000	-0.000034	0.000039	0.000014	-1.116855	-8.513932	45.860400
36805	1.457262	-0.191921	9.702904	0.004653	0.001845	0.000914	1.000000	-0.000071	0.000016	0.000013	-1.119793	-8.515046	45.860185
36806	1.462860	-0.195730	9.654565	0.016751	0.007627	-0.045981	1.000000	-0.000028	0.000024	0.000026	-1.118047	-8.515161	45.861851
36807	1.456447	-0.193725	9.702991	0.005268	-0.000157	0.000914	1.000000	-0.000048	0.000019	0.000002	-1.118204	-8.515975	45.860397
36808	1.456011	-0.194605	9.703039	0.005574	-0.001137	0.000914	1.000000	-0.000040	0.000026	0.000014	-1.117706	-8.515809	45.860640
36809	1.473404	-0.178720	9.704312	0.005980	0.022023	0.004441	1.000000	-0.000044	0.000009	0.000003	-1.117449	-8.517716	45.859287
36810	1.424075	-0.196753	9.674614	-0.011718	-0.022953	-0.031880	1.000000	-0.000046	0.000026	0.000020	-1.117630	-8.517643	45.859903
36811	1.435334	-0.178170	9.724288	-0.023094	-0.006600	0.018545	1.000000	-0.000044	0.000022	0.000008	-1.117424	-8.518009	45.859114
36812	1.454550	-0.198061	9.703188	0.006786	-0.005143	0.000912	1.000000	-0.000033	0.000007	0.000015	-1.116062	-8.520141	45.859321
36813	1.437560	-0.181386	9.700179	-0.016602	-0.005190	-0.004902	1.000000	-0.000070	0.000042	0.000023	-1.119102	-8.518178	45.860232
36814	1.473967	-0.184866	9.680405	0.013389	0.020440	-0.018996	1.000000	-0.000036	0.000043	0.000025	-1.118274	-8.516048	45.861555
36815	1.418561	-0.199994	9.699077	-0.016095	-0.031327	-0.008445	1.000000	-0.000041	-0.000001	0.000004	-1.117603	-8.519049	45.860304
36816	1.455558	-0.203182	9.679221	0.013904	-0.005703	-0.022538	1.000000	-0.000040	0.000026	0.000014	-1.117010	-8.518909	45.860418
36817	1.439783	-0.151878	9.674422	-0.033074	0.019366	-0.030611	1.000000	-0.000046	0.000026	0.000020	-1.117247	-8.518781	45.860928
36818	1.451552	-0.203682	9.703521	0.008630	-0.011105	0.000905	1.000000	-0.000050	0.000023	0.000014	-1.117880	-8.519040	45.861033
36819	1.452354	-0.170172	9.701773	-0.014654	0.013008	-0.001352	1.000000	-0.000044	0.000022	0.000008	-1.117673	-8.519408	45.860243
36820	1.437091	-0.189244	9.676382	-0.008570	-0.008724	-0.028350	1.000000	-0.000054	0.000032	0.000013	-1.118662	-8.518662	45.860250
36821	1.451025	-0.172217	9.701936	-0.014044	0.011007	-0.001348	1.000000	-0.000050	0.000049	0.000024	-1.119363	-8.515903	45.861222
36822	1.463996	-0.189411	9.729240	0.004093	0.005635	0.027904	1.000000	-0.000030	0.000003	0.000004	-1.117494	-8.518352	45.860729
36823	1.435313	-0.191965	9.676592	-0.007637	-0.011695	-0.028352	1.000000	-0.000054	0.000046	0.000018	-1.118556	-8.516041	45.861035
36824	1.446319	-0.173554	9.726329	-0.018990	0.004602	0.022101	1.000000	-0.000046	0.000026	0.000020	-1.118827	-8.515886	45.861768
36825	1.428004	-0.191229	9.725119	-0.018792	-0.020550	0.018535	1.000000	-0.000048	0.000032	0.000008	-1.119032	-8.515163	45.860876
36826	1.433472	-0.194887	9.676806	-0.006735	-0.014678	-0.028356	1.000000	-0.000046	0.000026	0.000020	-1.119282	-8.515097	45.861431
36827	1.447681	-0.177702	9.702337	-0.012202	0.005037	-0.001341	1.000000	-0.000040	0.000026	0.000014	-1.118711	-8.515021	45.861306
36828	1.429425	-0.195239	9.701112	-0.011992	-0.020096	-0.004915	1.000000	-0.000040	0.000026	0.000014	-1.118149	-8.514817	45.861440
36829	1.449716	-0.180785	9.678263	-0.005700	0.006503	-0.024783	1.000000	-0.000050	0.000023	0.000014	-1.118746	-8.515141	45.861283
36830	1.462741	-0.198197	9.705547	0.012424	0.001083	0.004460	1.000000	-0.000050	0.000023	0.000014	-1.119300	-8.515494	45.861412
36831	1.442692	-0.180096	9.726749	-0.016844	-0.002398	0.022105	1.000000	-0.000048	0.000032	0.000008	-1.119504	-8.514773	45.860519
36832	1.427497	-0.199002	9.701320	-0.010770	-0.024089	-0.004922	1.000000	-0.000036	0.000017	0.000015	-1.118533	-8.515756	45.860599
36833	1.447850	-0.184475	9.678473	-0.004479	0.002517	-0.024781	1.000000	-0.000046	0.000026	0.000019	-1.118768	-8.515634	45.861107
36834	1.444307	-0.184024	9.702722	-0.010049	-0.001927	-0.001337	1.000000	-0.000040	0.000026	0.000014	-1.118228	-8.515521	45.861118
36835	1.460503	-0.202617	9.705793	0.013952	-0.003897	0.004457	1.000000	-0.000043	0.000003	0.000015	-1.117999	-8.518031	45.861163
36836	1.425713	-0.202440	9.701511	-0.009557	-0.028072	-0.004931	1.000000	-0.000040	0.000053	0.000024	-1.117546	-8.514906	45.862459
36837	1.442674	-0.186651	9.702914	-0.009140	-0.004922	-0.001338	1.000000	-0.000052	0.000028	0.000002	-1.118111	-8.514634	45.860899
36838	1.445080	-0.189064	9.678799	-0.002959	-0.002441	-0.024780	1.000000	-0.000056	0.000036	0.000024	-1.119598	-8.513305	45.861999
36839	1.444638	-0.190077	9.678845	-0.002655	-0.003437	-0.024780	1.000000	-0.000044	0.000009	0.000003	-1.119337	-8.515217	45.860641
36840	1.447416	-0.192343	9.654676	0.003521	-0.000962	-0.048223	1.000000	-0.000049	0.000017	0.000026	-1.119960	-8.516138	45.862248
36841	1.443993	-0.191968	9.678904	-0.002046	-0.005428	-0.024781	1.000000	-0.000044	0.000022	0.000008	-1.119750	-8.516512	45.861455
36842	1.461364	-0.176071	9.680263	-0.001617	0.017730	-0.021173	1.000000	-0.000036	0.000017	0.000015	-1.118758	-8.517460	45.861676
36843	1.422342	-0.209155	9.701863	-0.007413	-0.035035	-0.004952	1.000000	-0.000060	0.000032	0.000018	-1.120572	-8.516649	45.862049
36844	1.439655	-0.193393	9.703231	-0.006996	-0.011882	-0.001342	1.000000	-0.000034	0.000012	0.000003	-1.119180	-8.518158	45.860893
36845	1.454016	-0.176354	9.728777	-0.012443	0.007782	0.025715	1.000000	-0.000063	0.000023	0.000025	-1.121388	-8.518394	45.862001
36846	1.438912	-0.195391	9.703301	-0.006389	-0.013867	-0.001344	1.000000	-0.000036	0.000016	0.000015	-1.120456	-8.519374	45.861966
36847	1.441444	-0.197517	9.679172	-0.000218	-0.011378	-0.024786	1.000000	-0.000044	0.000036	0.000013	-1.120296	-8.518211	45.861738
36848	1.440931	-0.198401	9.679230	0.000091	-0.012370	-0.024787	1.000000	-0.000043	0.000017	0.000020	-1.120108	-8.519146	45.862327
36849	1.458260	-0.182614	9.680609	0.000514	0.010778	-0.021163	1.000000	-0.000046	0.000026	0.000019	-1.120341	-8.519030	45.862833
36850	1.436942	-0.198968	9.703520	-0.005153	-0.017849	-0.001350	1.000000	-0.000046	0.000026	0.000019	-1.120550	-8.518840	45.863863
36851	1.443747	-0.168058	9.653518	-0.016702	0.013274	-0.050382	1.000000	-0.000048	0.000032	0.000007	-1.120750	-8.518124	45.862968
36852	1.435741	-0.201074	9.703655	-0.004558	-0.019845	-0.001353	1.000000	-0.000066	0.000033	0.000024	-1.123426	-8.517331	45.863882
36853	1.435315	-0.201993	9.703698	-0.004254	-0.020843	-0.001355	1.000000	-0.000022	0.000010	0.000016	-1.120860	-8.519045	45.863990
36854	1.439448	-0.169635	9.677842	-0.021669	0.006789	-0.026937	1.000000	-0.000057	0.000010	0.000014	-1.122205	-8.520891	45.864063
36855	1.471918	-0.206141	9.683950	0.026035	0.003813	-0.015380	1.000000	-0.000040	0.000039	0.000019	-1.121681	-8.519285	45.864502
36856	1.435316	-0.170179	9.702158	-0.026920	0.001285	-0.003496	1.000000	-0.000044	0.000022	0.000008	-1.121443	-8.519687	45.863915
36857	1.451313	-0.188858	9.705238	-0.002916	-0.000705	0.002282	1.000000	-0.000046	0.000026	0.000019	-1.121674	-8.519573	45.864421
36858	1.453855	-0.191029	9.681110	0.003244	0.001824	-0.021157	1.000000	-0.000040	0.000026	0.000014	-1.121179	-8.519461	45.864383
36859	1.448616	-0.154713	9.727868	-0.031746	0.018932	0.023596	1.000000	-0.000030	0.000016	0.000009	-1.119386	-8.520531	45.863724
36860	1.452888	-0.192664	9.681222	0.003861	-0.000151	-0.021158	1.000000	-0.000058	0.000040	0.000036	-1.121312	-8.518679	45.866370
36861	1.428585	-0.207719	9.728280	-0.007672	-0.032324	0.022064	1.000000	-0.000030	0.000003	0.000004	-1.119470	-8.521286	45.865144
36862	1.469791	-0.177763	9.682681	0.004603	0.021997	-0.017500	1.000000	-0.000058	0.000042	0.000012	-1.120856	-8.519391	45.865031
36863	1.448473	-0.194263	9.705556	-0.001072	-0.006661	0.002280	1.000000	-0.000051	0.000009	0.000008	-1.121398	-8.521262	45.864304
36864	1.434629	-0.178714	9.678395	-0.018606	-0.003140	-0.026929	1.000000	-0.000044	0.000036	0.000013	-1.121180	-8.520094	45.864120
36865	1.453556	-0.198672	9.657299	0.011253	-0.001606	-0.044597	1.000000	-0.000046	0.000026	0.000019	-1.121411	-8.519983	45.864625
36866	1.430485	-0.179278	9.702708	-0.023868	-0.008667	-0.003491	1.000000	-0.000044	0.000022	0.000008	-1.121235	-8.520456	45.863902
36867	1.449576	-0.199329	9.681584	0.005992	-0.007133	-0.021161	1.000000	-0.000056	0.000023	0.000019	-1.122633	-8.520747	45.864373
36868	1.442963	-0.197784	9.730011	-0.005405	-0.015209	0.025712	1.000000	-0.000040	0.000026	0.000014	-1.122005	-8.520706	45.864407
36869	1.429281	-0.181985	9.702835	-0.022950	-0.011669	-0.003492	1.000000	-0.000030	0.000003	0.000004	-1.120161	-8.523314	45.863180
36870	1.466137	-0.185342	9.683093	0.007038	0.014021	-0.017487	1.000000	-0.000070	0.000042	0.000023	-1.123242	-8.521295	45.864086
36871	1.450873	-0.204307	9.657584	0.013064	-0.007568	-0.044602	1.000000	-0.000030	0.000016	0.000009	-1.121449	-8.522367	45.863426
36872	1.462117	-0.185916	9.707389	0.001801	0.008484	0.005952	1.000000	-0.000050	0.000022	0.000014	-1.122031	-8.522691	45.863364
36873	1.430486	-0.187000	9.678851	-0.015878	-0.012095	-0.026931	1.000000	-0.000040	0.000026	0.000014	-1.121455	-8.522627	45.863236
36874	1.447740	-0.171195	9.680304	-0.015443	0.011037	-0.023245	1.000000	-0.000046	0.000026	0.000019	-1.121655	-8.522542	45.863926
36875	1.463682	-0.189992	9.683374	0.008564	0.009033	-0.017483	1.000000	-0.000052	0.000027	0.000025	-1.122690	-8.522391	45.865063
36876	1.445475	-0.207692	9.682021	0.008751	-0.016090	-0.021174	1.000000	-0.000048	0.000018	0.000002	-1.122804	-8.523134	45.863783
36877	1.443121	-0.173028	9.704667	-0.020363	0.004501	0.000195	1.000000	-0.000058	0.000042	0.000012	-1.124217	-8.521291	45.863418
36878	1.442612	-0.173845	9.704728	-0.020051	0.003508	0.000196	1.000000	-0.000022	0.000010	0.000016	-1.121641	-8.522961	45.863713
36879	1.461676	-0.193781	9.683602	0.009802	0.005058	-0.017481	1.000000	-0.000068	0.000038	0.000012	-1.124220	-8.521519	45.863313
36880	1.475775	-0.176973	9.709265	0.004402	0.024635	0.009656	1.000000	-0.000044	0.000022	0.000008	-1.123996	-8.521855	45.862780
36881	1.423218	-0.193444	9.703505	-0.019263	-0.023612	-0.003506	1.000000	-0.000044	0.000035	0.000013	-1.123829	-8.520703	45.862551
36882	1.471526	-0.177477	9.733597	-0.000824	0.019083	0.033095	1.000000	-0.000040	0.000026	0.000014	-1.123285	-8.520561	45.862544
36883	1.439746	-0.178434	9.705070	-0.018514	-0.001463	0.000199	1.000000	-0.000040	0.000039	0.000019	-1.122757	-8.518964	45.862982
36884	1.439049	-0.179389	9.705156	-0.018182	-0.002443	0.000200	1.000000	-0.000054	0.000032	0.000013	-1.123716	-8.518025	45.862912
36885	1.456470	-0.163687	9.706612	-0.017742	0.020689	0.003914	1.000000	-0.000043	0.000003	0.000015	-1.123483	-8.520547	45.862948
36886	1.438260	-0.181383	9.705236	-0.017580	-0.004438	0.000200	1.000000	-0.000058	0.000042	0.000012	-1.124925	-8.518733	45.862478
36887	1.457237	-0.201342	9.684117	0.012269	-0.002877	-0.017483	1.000000	-0.000036	0.000016	0.000015	-1.123935	-8.519764	45.862449
36888	1.437277	-0.183116	9.705349	-0.016962	-0.006422	0.000200	1.000000	-0.000040	0.000026	0.000014	-1.123369	-8.519621	45.862765
36889	1.453309	-0.201753	9.708395	0.007049	-0.008442	0.005949	1.000000	-0.000043	0.000017	0.000020	-1.123185	-8.520609	45.863368
36890	1.470564	-0.186029	9.709886	0.007493	0.014687	0.009674	1.000000	-0.000050	0.000036	0.000019	-1.123812	-8.519406	45.863983
36891	1.438790	-0.187092	9.681344	-0.010209	-0.005828	-0.023234	1.000000	-0.000042	0.000030	0.000025	-1.123678	-8.518859	45.865153
36892	1.449771	-0.168839	9.731229	-0.021433	0.010119	0.027363	1.000000	-0.000042	0.000031	0.000002	-1.123030	-8.518191	45.863882
36893	1.454225	-0.206512	9.684461	0.014111	-0.008848	-0.017489	1.000000	-0.000035	0.000011	0.000027	-1.122074	-8.519826	45.865252
36894	1.434304	-0.188255	9.705690	-0.015116	-0.012429	0.000197	1.000000	-0.000039	0.000027	-0.000009	-1.120912	-8.519681	45.862716
36895	1.454563	-0.173667	9.683023	-0.008839	0.014296	-0.019497	1.000000	-0.000050	0.000036	0.000019	-1.121549	-8.518490	45.863118
36896	1.433081	-0.190123	9.705834	-0.014494	-0.014427	0.000196	1.000000	-0.000046	0.000026	0.000019	-1.121709	-8.518343	45.863608
36897	1.432552	-0.191104	9.705893	-0.014189	-0.015425	0.000195	1.000000	-0.000052	0.000028	0.000002	-1.122262	-8.518085	45.862041
36898	1.449931	-0.175339	9.707387	-0.013753	0.007695	0.003939	1.000000	-0.000040	0.000013	0.000009	-1.121644	-8.519628	45.861376
36899	1.436342	-0.159552	9.680230	-0.031324	0.011334	-0.025232	1.000000	-0.000040	0.000013	0.000009	-1.121014	-8.521107	45.860677
36900	1.416720	-0.211710	9.680367	-0.007594	-0.038930	-0.026991	1.000000	-0.000058	0.000040	0.000036	-1.122933	-8.519336	45.863092
36901	1.430908	-0.194892	9.706061	-0.012978	-0.019413	0.000189	1.000000	-0.000044	0.000009	0.000003	-1.122663	-8.521259	45.861725
36902	1.448176	-0.179038	9.707581	-0.012541	0.003715	0.003943	1.000000	-0.000036	0.000043	0.000025	-1.121828	-8.519252	45.862662
36903	1.453882	-0.182304	9.659269	-0.000579	0.009948	-0.042918	1.000000	-0.000051	0.000009	0.000008	-1.122364	-8.521133	45.861926
36904	1.463708	-0.198698	9.710671	0.011787	0.000695	0.009681	1.000000	-0.000048	0.000032	0.000007	-1.122566	-8.520341	45.861385
36905	1.415595	-0.181840	9.679107	-0.029642	-0.018733	-0.028984	1.000000	-0.000040	0.000026	0.000014	-1.121985	-8.520287	45.861254
36906	1.465871	-0.201715	9.686591	0.018241	0.002323	-0.013750	1.000000	-0.000053	0.000013	0.000020	-1.122904	-8.521591	45.862094
36907	1.446090	-0.183911	9.707801	-0.010988	-0.001261	0.003946	1.000000	-0.000063	0.000010	0.000019	-1.125051	-8.523387	45.862621
36908	1.448668	-0.186208	9.683674	-0.004845	0.001385	-0.019484	1.000000	-0.000047	0.000045	0.000013	-1.125301	-8.521027	45.862675
36909	1.444827	-0.185817	9.707953	-0.010365	-0.003241	0.003946	1.000000	-0.000030	0.000029	0.000014	-1.123553	-8.520572	45.862580
36910	1.466992	-0.206786	9.662625	0.025313	0.001997	-0.037182	1.000000	-0.000050	0.000022	0.000014	-1.124123	-8.520790	45.862709
36911	1.448303	-0.154323	9.682381	-0.027477	0.023572	-0.021437	1.000000	-0.000046	0.000026	0.000019	-1.124346	-8.520694	45.863209
36912	1.462887	-0.207478	9.686920	0.020094	-0.003641	-0.013754	1.000000	-0.000040	0.000026	0.000014	-1.123733	-8.520710	45.863311
36913	1.445978	-0.190587	9.683991	-0.003311	-0.003594	-0.019484	1.000000	-0.000050	0.000022	0.000014	-1.124317	-8.521060	45.863143
36914	1.442380	-0.190402	9.708228	-0.008812	-0.008225	0.003944	1.000000	-0.000046	0.000026	0.000019	-1.124500	-8.520876	45.863880
36915	1.462682	-0.175824	9.685608	-0.002539	0.018538	-0.015698	1.000000	-0.000044	0.000035	0.000013	-1.124328	-8.519734	45.863649
36916	1.459212	-0.175640	9.709828	-0.008031	0.013896	0.007733	1.000000	-0.000053	-0.000000	0.000015	-1.125165	-8.522577	45.863831
36917	1.462099	-0.177649	9.685663	-0.001908	0.016545	-0.015694	1.000000	-0.000028	0.000024	0.000026	-1.123451	-8.522728	45.865136
36918	1.426203	-0.211850	9.682696	-0.001891	-0.032667	-0.023281	1.000000	-0.000057	0.000009	0.000014	-1.124818	-8.524443	45.865032
36919	1.448023	-0.162957	9.658582	-0.019180	0.019272	-0.044842	1.000000	-0.000050	0.000036	0.000019	-1.125451	-8.523260	45.865432
36920	1.460686	-0.180567	9.685822	-0.000968	0.013571	-0.015689	1.000000	-0.000042	0.000030	0.000025	-1.125242	-8.522679	45.866714
36921	1.425962	-0.180296	9.681401	-0.024526	-0.010490	-0.025212	1.000000	-0.000044	0.000022	0.000008	-1.125019	-8.523072	45.865913
36922	1.446498	-0.165667	9.658765	-0.018264	0.016281	-0.044835	1.000000	-0.000042	0.000017	0.000020	-1.124838	-8.524140	45.866392
36923	1.456252	-0.181962	9.710156	-0.005878	0.006912	0.007742	1.000000	-0.000034	0.000026	0.000009	-1.123449	-8.524133	45.865629
36924	1.440954	-0.200721	9.684535	0.000099	-0.014518	-0.019494	1.000000	-0.000058	0.000040	0.000035	-1.125363	-8.522294	45.868086
36925	1.451868	-0.182764	9.734492	-0.011069	0.001268	0.031170	1.000000	-0.000038	0.000022	0.000003	-1.124334	-8.522730	45.866653
36926	1.438276	-0.166898	9.707366	-0.028659	0.005009	0.002026	1.000000	-0.000044	0.000009	0.000003	-1.124120	-8.524569	45.865400
36927	1.436480	-0.202313	9.708862	-0.004796	-0.021159	0.003928	1.000000	-0.000050	0.000036	0.000019	-1.124751	-8.523388	45.865800
36928	1.456836	-0.187815	9.686264	0.001485	0.005648	-0.015681	1.000000	-0.000050	0.000022	0.000014	-1.125363	-8.523615	45.865760
36929	1.436750	-0.169773	9.707542	-0.027732	0.002034	0.002030	1.000000	-0.000041	0.000031	0.000002	-1.124743	-8.522962	45.864228
36930	1.436281	-0.170620	9.707597	-0.027427	0.001037	0.002031	1.000000	-0.000042	0.000017	0.000020	-1.124558	-8.523956	45.864836
36931	1.452506	-0.189317	9.710577	-0.003410	-0.001021	0.007745	1.000000	-0.000043	0.000003	0.000015	-1.124320	-8.526489	45.864864
36932	1.459807	-0.158084	9.660808	-0.015039	0.030524	-0.040989	1.000000	-0.000054	0.000032	0.000013	-1.125315	-8.525704	45.864702
36933	1.472567	-0.175685	9.688020	0.003171	0.024784	-0.011849	1.000000	-0.000038	0.000022	0.000003	-1.124285	-8.526142	45.863269
36934	1.450995	-0.192098	9.710748	-0.002490	-0.004018	0.007745	1.000000	-0.000048	0.000043	0.000036	-1.124975	-8.524069	45.865660
36935	1.453534	-0.194209	9.686634	0.003621	-0.001327	-0.015680	1.000000	-0.000048	0.000018	0.000002	-1.125111	-8.524908	45.864188
36936	1.433540	-0.176073	9.707905	-0.025582	-0.004939	0.002035	1.000000	-0.000034	0.000026	0.000009	-1.123720	-8.524813	45.863497
36937	1.418431	-0.194618	9.682230	-0.019632	-0.026353	-0.025230	1.000000	-0.000044	0.000022	0.000008	-1.123495	-8.525210	45.862695
36938	1.473073	-0.181146	9.664158	0.010510	0.023490	-0.035263	1.000000	-0.000042	0.000030	0.000025	-1.123310	-8.524712	45.864035
36939	1.435109	-0.179837	9.683905	-0.018863	-0.004244	-0.021389	1.000000	-0.000054	0.000032	0.000013	-1.124300	-8.523980	45.863764
36940	1.434598	-0.180787	9.683963	-0.018566	-0.005240	-0.021389	1.000000	-0.000038	0.000020	0.000026	-1.123781	-8.524571	45.865022
36941	1.447627	-0.198348	9.711125	-0.000350	-0.011008	0.007740	1.000000	-0.000043	0.000003	0.000015	-1.123542	-8.527106	45.865047
36942	1.451719	-0.165999	9.685585	-0.017792	0.016875	-0.017536	1.000000	-0.000058	0.000041	0.000012	-1.124917	-8.525274	45.864727
36943	1.467425	-0.184875	9.688630	0.006227	0.014807	-0.011830	1.000000	-0.000048	0.000032	0.000007	-1.125101	-8.524583	45.863825
36944	1.429538	-0.183496	9.708357	-0.015423	-0.011255	0.002051	1.000000	-0.000044	0.000022	0.000008	-1.099073	-8.486465	45.894100
36945	1.453136	-0.169941	9.661612	-0.003393	0.019280	-0.040950	1.000000	-0.000042	0.000030	0.000025	-1.098878	-8.485860	45.895274
36946	1.475983	-0.203182	9.740133	0.027035	0.005031	0.040700	1.000000	-0.000044	0.000022	0.000008	-1.098592	-8.486170	45.894625
36947	1.449168	-0.170661	9.685886	-0.008528	0.013584	-0.017518	1.000000	-0.000050	0.000009	0.000008	-1.099069	-8.487982	45.893887
36948	1.434133	-0.189438	9.660172	-0.002580	-0.007791	-0.044808	1.000000	-0.000054	0.000032	0.000013	-1.100010	-8.487139	45.894042
36949	1.464578	-0.190519	9.688951	0.015837	0.010542	-0.011836	1.000000	-0.000042	0.000030	0.000025	-1.099814	-8.486536	45.895216
36950	1.461095	-0.190173	9.713169	0.010372	0.005821	0.011592	1.000000	-0.000030	0.000003	0.000004	-1.097940	-8.489142	45.893874
36951	1.429800	-0.190944	9.684478	-0.007407	-0.014491	-0.021383	1.000000	-0.000056	0.000023	0.000019	-1.099270	-8.489384	45.894339
36952	1.450287	-0.176373	9.661925	-0.001163	0.012347	-0.040938	1.000000	-0.000040	0.000026	0.000014	-1.098641	-8.489290	45.894342
36953	1.445135	-0.210675	9.687547	0.016950	-0.017542	-0.015710	1.000000	-0.000050	0.000036	0.000019	-1.099215	-8.488041	45.894747
36954	1.411754	-0.175951	9.681716	-0.030179	-0.016403	-0.027063	1.000000	-0.000044	0.000022	0.000008	-1.098963	-8.488393	45.893922
36955	1.455478	-0.193636	9.737630	0.006197	-0.002894	0.035018	1.000000	-0.000037	0.000035	0.000008	-1.097927	-8.487224	45.893066
36956	1.430183	-0.196457	9.660617	-0.000051	-0.015719	-0.044817	1.000000	-0.000040	0.000026	0.000014	-1.097296	-8.487133	45.892961
36957	1.444151	-0.179860	9.686469	-0.005345	0.003654	-0.017507	1.000000	-0.000070	0.000042	0.000023	-1.100248	-8.485159	45.893859
36958	1.440543	-0.179797	9.710698	-0.010797	-0.001077	0.005919	1.000000	-0.000030	0.000003	0.000004	-1.098369	-8.487704	45.892745
36959	1.456662	-0.198481	9.713668	0.013247	-0.003143	0.011590	1.000000	-0.000052	0.000026	0.000025	-1.099337	-8.487506	45.893878
36960	1.442884	-0.182566	9.686607	-0.004388	0.000679	-0.017506	1.000000	-0.000030	0.000029	0.000014	-1.097539	-8.486994	45.893726
36961	1.421408	-0.198875	9.709248	-0.009994	-0.028162	0.002024	1.000000	-0.000044	0.000022	0.000008	-1.097258	-8.487318	45.892928
36962	1.459752	-0.167623	9.688318	-0.003591	0.022797	-0.013608	1.000000	-0.000050	0.000022	0.000014	-1.097807	-8.487606	45.892769
36963	1.431521	-0.169486	9.635446	-0.015621	0.006284	-0.070023	1.000000	-0.000042	0.000016	0.000020	-1.097561	-8.488538	45.893369
36964	1.438034	-0.184851	9.710975	-0.008868	-0.007047	0.005918	1.000000	-0.000026	0.000020	0.000015	-1.095305	-8.489094	45.893908
36965	1.440609	-0.186898	9.686863	-0.002782	-0.004285	-0.017506	1.000000	-0.000070	0.000042	0.000023	-1.098255	-8.487124	45.894805
36966	1.461082	-0.172278	9.664351	0.003458	0.022585	-0.037023	1.000000	-0.000022	0.000010	0.000016	-1.095672	-8.488786	45.894816
36967	1.452922	-0.205319	9.714086	0.015814	-0.011105	0.011580	1.000000	-0.000042	0.000030	0.000025	-1.095474	-8.488188	45.895988
36968	1.439156	-0.189450	9.687029	-0.001819	-0.007250	-0.017508	1.000000	-0.000046	0.000026	0.000019	-1.095642	-8.487973	45.896956
36969	1.435556	-0.189244	9.711257	-0.007260	-0.012009	0.005915	1.000000	-0.000036	0.000016	0.000015	-1.094591	-8.488945	45.896925
36970	1.472531	-0.192299	9.691678	0.022713	0.013775	-0.007931	1.000000	-0.000040	0.000026	0.000014	-1.093907	-8.488839	45.897042
36971	1.439304	-0.157545	9.685856	-0.024414	0.014945	-0.019251	1.000000	-0.000054	0.000018	0.000008	-1.094789	-8.489567	45.896202
36972	1.434334	-0.191780	9.711388	-0.006297	-0.015001	0.005912	1.000000	-0.000026	0.000020	0.000015	-1.092584	-8.490163	45.896325
36973	1.464802	-0.192814	9.740196	0.012155	0.003241	0.038916	1.000000	-0.000056	0.000036	0.000024	-1.093959	-8.488882	45.897359
36974	1.470426	-0.196059	9.691922	0.023988	0.009803	-0.007930	1.000000	-0.000058	0.000041	0.000012	-1.095342	-8.486996	45.896987
36975	1.432508	-0.194767	9.711598	-0.005339	-0.017981	0.005907	1.000000	-0.000040	0.000012	0.000009	-1.094650	-8.488411	45.896286
36976	1.469577	-0.197851	9.692015	0.024632	0.007816	-0.007929	1.000000	-0.000038	0.000020	0.000026	-1.094035	-8.488891	45.897894
36977	1.431819	-0.196432	9.711666	-0.004694	-0.019970	0.005904	1.000000	-0.000042	0.000016	0.000020	-1.093788	-8.489827	45.898492
36978	1.452443	-0.181726	9.689163	0.001548	0.006906	-0.013583	1.000000	-0.000044	0.000022	0.000008	-1.093468	-8.490205	45.897782
36979	1.448785	-0.181469	9.713399	-0.003886	0.002123	0.009839	1.000000	-0.000034	0.000025	0.000008	-1.092019	-8.490130	45.897023
36980	1.453082	-0.148705	9.687969	-0.021366	0.030104	-0.015293	1.000000	-0.000033	0.000007	0.000015	-1.090553	-8.492176	45.897424
36981	1.464446	-0.200784	9.716408	0.020486	-0.000957	0.015490	1.000000	-0.000044	0.000035	0.000013	-1.090317	-8.490975	45.897198
36982	1.450610	-0.184980	9.689376	0.002827	0.002924	-0.013582	1.000000	-0.000055	0.000030	0.000036	-1.091709	-8.490380	45.899595
36983	1.430604	-0.167012	9.710677	-0.026329	-0.000775	0.004190	1.000000	-0.000034	0.000012	0.000003	-1.090212	-8.491834	45.898263
36984	1.428715	-0.202331	9.712002	-0.002461	-0.026945	0.005888	1.000000	-0.000050	0.000035	0.000019	-1.090859	-8.490597	45.898426
36985	1.452326	-0.188746	9.665364	0.009531	0.003757	-0.037002	1.000000	-0.000046	0.000026	0.000019	-1.091018	-8.490447	45.898927
36986	1.451820	-0.189625	9.665422	0.009852	0.002770	-0.037002	1.000000	-0.000040	0.000026	0.000014	-1.090383	-8.490318	45.899042
36987	1.431762	-0.171657	9.686734	-0.019304	-0.000932	-0.019228	1.000000	-0.000050	0.000022	0.000013	-1.090903	-8.490609	45.898871
36988	1.464064	-0.208291	9.692630	0.028466	-0.004110	-0.007937	1.000000	-0.000040	0.000026	0.000014	-1.090318	-8.490478	45.898612
36989	1.447142	-0.191145	9.689775	0.005060	-0.004005	-0.013583	1.000000	-0.000030	0.000029	0.000014	-1.088507	-8.489964	45.898524
36990	1.462838	-0.209891	9.692781	0.029110	-0.006089	-0.007940	1.000000	-0.000057	0.000041	0.000012	-1.089868	-8.488040	45.898441
36991	1.450536	-0.159442	9.664495	-0.012105	0.023022	-0.038678	1.000000	-0.000030	0.000016	0.000009	-1.088010	-8.489055	45.897779
36992	1.448733	-0.194724	9.665784	0.011765	-0.003159	-0.037004	1.000000	-0.000050	0.000022	0.000013	-1.088543	-8.489374	45.897756
36993	1.448353	-0.195667	9.665822	0.012085	-0.004150	-0.037005	1.000000	-0.000042	0.000016	0.000020	-1.088293	-8.490314	45.898352
36994	1.444673	-0.195573	9.690055	0.006660	-0.008959	-0.013587	1.000000	-0.000048	0.000031	0.000007	-1.088443	-8.489540	45.897660
36995	1.410007	-0.195227	9.685509	-0.016923	-0.032935	-0.023205	1.000000	-0.000042	0.000016	0.000020	-1.088194	-8.490481	45.898256
36996	1.440517	-0.196465	9.714337	0.001539	-0.014776	0.009828	1.000000	-0.000054	0.000032	0.000013	-1.089190	-8.489778	45.897554
36997	1.464111	-0.182836	9.667738	0.013520	0.015976	-0.033026	1.000000	-0.000044	0.000035	0.000013	-1.088952	-8.488582	45.897327
36998	1.460259	-0.182725	9.691998	0.008090	0.011150	-0.009607	1.000000	-0.000042	0.000030	0.000025	-1.088784	-8.488043	45.898434
36999	1.456572	-0.182645	9.716232	0.002671	0.006322	0.013811	1.000000	-0.000048	0.000018	0.000002	-1.088857	-8.488816	45.896961
37000	1.444762	-0.202176	9.666225	0.014292	-0.011083	-0.037013	1.000000	-0.000046	0.000026	0.000019	-1.089028	-8.488675	45.897573
37001	1.428006	-0.185247	9.663350	-0.009117	-0.010965	-0.042649	1.000000	-0.000046	0.000013	0.000014	-1.089137	-8.490058	45.897496
37002	1.437522	-0.202058	9.714666	0.003448	-0.020753	0.009817	1.000000	-0.000042	0.000030	0.000025	-1.088952	-8.489522	45.898688
37003	1.427011	-0.186977	9.663464	-0.008485	-0.012949	-0.042651	1.000000	-0.000036	0.000029	0.000020	-1.087945	-8.488975	45.899229
37004	1.458830	-0.153704	9.691118	-0.013549	0.030380	-0.011235	1.000000	-0.000054	0.000032	0.000013	-1.088884	-8.488213	45.898894
37005	1.439222	-0.205756	9.690655	0.010143	-0.019892	-0.013606	1.000000	-0.000043	0.000003	0.000015	-1.088585	-8.490685	45.898914
37006	1.437325	-0.171170	9.713632	-0.018830	0.000456	0.008183	1.000000	-0.000044	0.000009	0.000003	-1.088267	-8.492594	45.897612
37007	1.440172	-0.173093	9.689491	-0.012773	0.003315	-0.015232	1.000000	-0.000048	0.000030	0.000031	-1.088869	-8.491974	45.899411
37008	1.436433	-0.173136	9.713729	-0.018194	-0.001537	0.008184	1.000000	-0.000050	0.000022	0.000013	-1.089401	-8.492319	45.899211
37009	1.455598	-0.192997	9.692500	0.011592	0.000209	-0.009604	1.000000	-0.000050	0.000022	0.000013	-1.089917	-8.492617	45.899037
37010	1.476161	-0.178444	9.670087	0.017816	0.027152	-0.029006	1.000000	-0.000058	0.000028	0.000007	-1.091232	-8.492337	45.897928
37011	1.438342	-0.177234	9.689688	-0.011510	-0.000664	-0.015230	1.000000	-0.000046	0.000013	0.000014	-1.091341	-8.493723	45.897850
37012	1.454335	-0.195990	9.692629	0.012531	-0.002777	-0.009606	1.000000	-0.000040	0.000026	0.000014	-1.090739	-8.493666	45.897344
37013	1.437492	-0.179157	9.689779	-0.010879	-0.002650	-0.015230	1.000000	-0.000063	0.000023	0.000024	-1.092863	-8.493892	45.898427
37014	1.433876	-0.179209	9.713997	-0.016299	-0.007519	0.008185	1.000000	-0.000036	0.000016	0.000015	-1.091821	-8.494947	45.898213
37015	1.452938	-0.198834	9.692781	0.013483	-0.005765	-0.009609	1.000000	-0.000040	0.000039	0.000019	-1.091220	-8.493317	45.898657
37016	1.453854	-0.165209	9.691676	-0.009741	0.018442	-0.011201	1.000000	-0.000042	0.000016	0.000020	-1.090961	-8.494267	45.899496
37017	1.445503	-0.198691	9.741248	0.002670	-0.015506	0.037217	1.000000	-0.000046	0.000026	0.000019	-1.091117	-8.494128	45.899993
37018	1.431958	-0.182677	9.714215	-0.015024	-0.011499	0.008183	1.000000	-0.000042	0.000016	0.000020	-1.090915	-8.495119	45.900457
37019	1.434910	-0.184539	9.690061	-0.008976	-0.008614	-0.015231	1.000000	-0.000046	0.000013	0.000014	-1.091022	-8.496507	45.900378
37020	1.471884	-0.187736	9.670563	0.020991	0.017226	-0.028989	1.000000	-0.000044	0.000034	0.000037	-1.091256	-8.495452	45.902994
37021	1.448498	-0.168806	9.716094	-0.013871	0.009592	0.012222	1.000000	-0.000038	0.000022	0.000003	-1.090161	-8.495826	45.901561
37022	1.467674	-0.188514	9.694856	0.015907	0.011373	-0.005575	1.000000	-0.000050	0.000022	0.000013	-1.090754	-8.496055	45.901258
37023	1.432925	-0.188160	9.690285	-0.007693	-0.012567	-0.015234	1.000000	-0.000044	0.000035	0.000013	-1.090510	-8.494867	45.901030
37024	1.500746	-0.191641	9.699629	0.040478	0.032335	0.004088	1.000000	-0.000044	0.000022	0.000008	-1.090225	-8.495159	45.900322
37025	1.431993	-0.189913	9.690389	-0.007047	-0.014546	-0.015237	1.000000	-0.000042	0.000016	0.000020	-1.089972	-8.496109	45.900915
37026	1.449450	-0.174135	9.692180	-0.006529	0.008540	-0.011184	1.000000	-0.000038	0.000022	0.000003	-1.088866	-8.496438	45.899798
37027	1.448862	-0.174847	9.692255	-0.006208	0.007547	-0.011183	1.000000	-0.000033	0.000039	0.000014	-1.087458	-8.494848	45.899614
37028	1.430664	-0.192172	9.690540	-0.006079	-0.017514	-0.015241	1.000000	-0.000041	-0.000001	0.000003	-1.086741	-8.497775	45.898520
37029	1.448084	-0.176365	9.692344	-0.005567	0.005567	-0.011182	1.000000	-0.000036	0.000043	0.000025	-1.085778	-8.495710	45.899636
37030	1.442725	-0.210798	9.717728	0.012568	-0.024543	0.013775	1.000000	-0.000050	0.000022	0.000013	-1.086323	-8.496060	45.899414
37031	1.430628	-0.160268	9.689588	-0.028668	0.004716	-0.016788	1.000000	-0.000040	0.000026	0.000014	-1.085671	-8.495960	45.899282
37032	1.479139	-0.214828	9.698314	0.042865	0.000312	0.000032	1.000000	-0.000048	0.000031	0.000007	-1.085758	-8.495164	45.898823
37033	1.428163	-0.196631	9.690820	-0.004476	-0.022476	-0.015250	1.000000	-0.000053	0.000013	0.000020	-1.086669	-8.496520	45.899370
37034	1.479929	-0.182372	9.697260	0.019961	0.023534	-0.001502	1.000000	-0.000046	0.000013	0.000014	-1.086806	-8.497933	45.899305
37035	1.430918	-0.199496	9.666676	0.001873	-0.020543	-0.038665	1.000000	-0.000046	0.000013	0.000014	-1.086912	-8.499325	45.899224
37036	1.444861	-0.182882	9.692704	-0.003332	-0.001377	-0.011179	1.000000	-0.000039	0.000052	0.000024	-1.086407	-8.496173	45.900227
37037	1.447585	-0.184511	9.668592	0.002703	0.001552	-0.034589	1.000000	-0.000030	0.000003	0.000004	-1.084497	-8.498723	45.898985
37038	1.444076	-0.184536	9.692789	-0.002684	-0.003363	-0.011180	1.000000	-0.000062	0.000022	0.000024	-1.086590	-8.498934	45.900342
37039	1.427327	-0.167744	9.689948	-0.026099	-0.003212	-0.016780	1.000000	-0.000048	0.000018	0.000002	-1.086656	-8.499715	45.898863
37040	1.459602	-0.204417	9.695753	0.021700	-0.006495	-0.005581	1.000000	-0.000040	0.000026	0.000014	-1.085976	-8.499592	45.899016
37041	1.439392	-0.186526	9.717123	-0.007426	-0.010274	0.012228	1.000000	-0.000050	0.000035	0.000019	-1.086534	-8.498374	45.899415
37042	1.479597	-0.190611	9.673490	0.028244	0.019524	-0.024901	1.000000	-0.000042	0.000016	0.000020	-1.086332	-8.499325	45.900039
37043	1.441604	-0.189299	9.693065	-0.001079	-0.008323	-0.011182	1.000000	-0.000046	0.000039	0.000025	-1.086531	-8.497669	45.901111
37044	1.441045	-0.190244	9.693130	-0.000749	-0.009314	-0.011183	1.000000	-0.000048	0.000018	0.000002	-1.086565	-8.498403	45.899976
37045	1.424306	-0.173311	9.690295	-0.024165	-0.009157	-0.016779	1.000000	-0.000050	0.000022	0.000013	-1.087075	-8.498711	45.899798
37046	1.477862	-0.194246	9.673683	0.029535	0.015559	-0.024897	1.000000	-0.000030	0.000003	0.000004	-1.085178	-8.501262	45.898656
37047	1.440035	-0.192895	9.693228	0.000212	-0.012292	-0.011186	1.000000	-0.000056	0.000035	0.000024	-1.086539	-8.500011	45.899682
37048	1.457254	-0.177470	9.695100	0.000728	0.010781	-0.007081	1.000000	-0.000058	0.000028	0.000007	-1.087846	-8.499694	45.898704
37049	1.438932	-0.195047	9.693349	0.000847	-0.014277	-0.011189	1.000000	-0.000044	0.000022	0.000008	-1.087552	-8.500038	45.897897
37050	1.436593	-0.160628	9.716528	-0.028068	0.006011	0.010738	1.000000	-0.000050	0.000035	0.000019	-1.088152	-8.498749	45.898286
37051	1.458888	-0.181289	9.671115	0.007399	0.011769	-0.030485	1.000000	-0.000046	0.000026	0.000019	-1.088302	-8.498620	45.898779
37052	1.455052	-0.181419	9.695357	0.002021	0.006829	-0.007077	1.000000	-0.000054	0.000032	0.000013	-1.089228	-8.497793	45.898777
37053	1.451308	-0.181450	9.719587	-0.003360	0.001876	0.016330	1.000000	-0.000036	0.000016	0.000015	-1.088168	-8.498785	45.898739
37054	1.454028	-0.183276	9.695476	0.002657	0.004842	-0.007076	1.000000	-0.000057	0.000041	0.000012	-1.089518	-8.496951	45.898286
37055	1.422518	-0.183750	9.666686	-0.015264	-0.015092	-0.040191	1.000000	-0.000038	0.000022	0.000003	-1.088418	-8.497331	45.896851
37056	1.438522	-0.202565	9.669583	0.008798	-0.017241	-0.034608	1.000000	-0.000053	0.000013	0.000019	-1.089314	-8.498671	45.897589
37057	1.449421	-0.185198	9.719798	-0.002075	-0.002106	0.016330	1.000000	-0.000040	0.000026	0.000014	-1.088659	-8.498578	45.897455
37058	1.434267	-0.203549	9.693865	0.003739	-0.023186	-0.011207	1.000000	-0.000050	0.000035	0.000019	-1.089244	-8.497336	45.897993
37059	1.448302	-0.187093	9.719928	-0.001432	-0.004090	0.016330	1.000000	-0.000048	0.000018	0.000002	-1.089306	-8.498120	45.896512
37060	1.451161	-0.188833	9.695799	0.004595	-0.001106	-0.007076	1.000000	-0.000040	0.000026	0.000014	-1.088640	-8.497975	45.896686
37061	1.450621	-0.189683	9.695863	0.004916	-0.002100	-0.007076	1.000000	-0.000042	0.000029	0.000025	-1.088430	-8.497411	45.897852
37062	1.468089	-0.173997	9.697739	0.005434	0.020972	-0.002936	1.000000	-0.000044	0.000009	0.000003	-1.088161	-8.499302	45.896312
37063	1.415565	-0.190085	9.691261	-0.018401	-0.026974	-0.016799	1.000000	-0.000042	0.000043	0.000030	-1.087998	-8.497216	45.898056
37064	1.436068	-0.175264	9.669002	-0.012178	0.000077	-0.036059	1.000000	-0.000044	0.000022	0.000008	-1.087709	-8.497561	45.897267
37065	1.448738	-0.193201	9.696075	0.006188	-0.006068	-0.007078	1.000000	-0.000042	0.000016	0.000020	-1.087452	-8.498523	45.897854
37066	1.462915	-0.176664	9.722136	0.001023	0.012998	0.020475	1.000000	-0.000044	0.000022	0.000008	-1.087125	-8.498924	45.897089
37067	1.449538	-0.160504	9.695138	-0.016702	0.017162	-0.008502	1.000000	-0.000046	0.000013	0.000014	-1.087227	-8.500323	45.897002
