// Start Time: Unknown
// Update Rate: 100.0Hz
// Filter Profile: human (46.1)
// Firmware Version: 4.4.0
PacketCounter	Acc_X	Acc_Y	Acc_Z	FreeAcc_X	FreeAcc_Y	FreeAcc_Z	OriInc_q0	OriInc_q1	OriInc_q2	OriInc_q3	Roll	Pitch	Yaw
04048	9.867446	-0.775127	0.722640	0.000000	0.000000	0.111501	1.000000	0.000023	0.000016	0.000031	-47.003299	-83.872037	49.595351
04049	9.850323	-0.793522	0.699177	0.000000	0.000000	0.094249	1.000000	0.000032	0.000045	0.000023	-48.628430	-83.874474	51.189486
04050	9.847739	-0.761873	0.727172	-0.018281	0.020574	0.091172	1.000000	0.000026	0.000023	0.000039	-47.818359	-83.870725	50.395803
04051	9.884081	-0.789508	0.697029	0.015914	-0.001863	0.127332	1.000000	0.000031	0.000013	0.000046	-47.837778	-83.865784	50.418956
04052	9.867093	-0.777538	0.724865	-0.013147	0.007023	0.111490	1.000000	0.000034	0.000029	0.000014	-47.787049	-83.867094	50.377251
04053	9.867014	-0.778021	0.725421	-0.013147	0.007023	0.111490	1.000000	0.000026	0.000023	0.000039	-47.793883	-83.862027	50.387137
04054	9.886441	-0.793069	0.722752	-0.008005	-0.006815	0.131805	1.000000	0.000026	0.000023	0.000039	-47.756375	-83.862928	50.359240
04055	9.854998	-0.800960	0.750787	-0.037171	-0.017692	0.103184	1.000000	0.000029	0.000030	0.000039	-47.757217	-83.857303	50.363372
04056	9.871812	-0.814130	0.724046	-0.008121	-0.027813	0.119024	1.000000	0.000035	0.000028	0.000030	-47.745190	-83.853364	50.356408
04057	9.869243	-0.782543	0.751789	-0.037014	0.002911	0.115965	1.000000	0.000024	0.000016	0.000039	-47.758043	-83.848856	50.372073
04058	9.878383	-0.759857	0.703840	0.010881	0.028501	0.119799	1.000000	0.000030	0.000038	0.000023	-47.725769	-83.845604	50.345253
04059	9.863862	-0.780097	0.704550	0.010745	0.007701	0.107017	1.000000	0.000041	0.000018	0.000038	-47.733932	-83.840990	50.358144
04060	9.854531	-0.804054	0.753603	-0.037090	-0.018875	0.103182	1.000000	0.000029	0.000030	0.000039	-47.713896	-83.837898	50.344317
04061	9.846748	-0.768984	0.733078	-0.018267	0.017038	0.091179	1.000000	0.000029	0.000030	0.000039	-47.714762	-83.832274	50.348474
04062	9.885685	-0.798283	0.727335	-0.007870	-0.008945	0.131804	1.000000	0.000033	0.000021	0.000030	-47.681720	-83.832089	50.324021
04063	9.866086	-0.784513	0.731034	-0.013042	0.003574	0.111492	1.000000	0.000028	0.000030	0.000031	-47.676717	-83.827120	50.322226
04064	9.885493	-0.799573	0.728532	-0.007782	-0.009246	0.131804	1.000000	0.000029	0.000030	0.000047	-47.669620	-83.821853	50.320102
04065	9.854032	-0.807414	0.756538	-0.036946	-0.020123	0.103181	1.000000	0.000033	0.000021	0.000030	-47.671248	-83.817670	50.325536
04066	9.865796	-0.786599	0.732700	-0.012861	0.002232	0.111493	1.000000	0.000026	0.000023	0.000039	-47.638665	-83.816881	50.301576
04067	9.851254	-0.807010	0.733298	-0.012992	-0.018564	0.098705	1.000000	0.000026	0.000023	0.000039	-47.645546	-83.811816	50.311510
04068	9.868200	-0.789682	0.757993	-0.036528	-0.001305	0.115968	1.000000	0.000020	0.000033	0.000023	-47.594239	-83.810704	50.267775
04069	9.865524	-0.788401	0.734428	-0.012669	0.001299	0.111493	1.000000	0.000035	0.000028	0.000030	-47.589958	-83.805962	50.267540
04070	9.865434	-0.789030	0.734962	-0.012567	0.000604	0.111493	1.000000	0.000033	0.000021	0.000038	-47.569617	-83.803831	50.255198
04071	9.865343	-0.789740	0.735419	-0.012567	0.000604	0.111493	1.000000	0.000033	0.000021	0.000038	-47.577181	-83.798993	50.266652
04072	9.845745	-0.776033	0.739098	-0.017855	0.012538	0.091186	1.000000	0.000028	0.000030	0.000031	-47.556694	-83.797057	50.252789
04073	9.865164	-0.790939	0.736524	-0.012679	0.000013	0.111493	1.000000	0.000033	0.000021	0.000030	-47.558425	-83.792878	50.258326
04074	9.870126	-0.825673	0.733894	-0.007314	-0.033262	0.119008	1.000000	0.000031	0.000013	0.000046	-47.566378	-83.786587	50.270331
04075	9.876866	-0.770997	0.712949	0.011620	0.023459	0.119812	1.000000	0.000041	0.000018	0.000038	-47.574610	-83.781973	50.283288
04076	9.864905	-0.792980	0.737808	-0.011669	-0.000006	0.111495	1.000000	0.000028	0.000031	0.000023	-47.533122	-83.775359	50.246069
04077	9.876708	-0.772055	0.714002	0.012318	0.023397	0.119811	1.000000	0.000016	0.000018	0.000031	-47.539436	-83.771273	50.254269
04078	9.867324	-0.795817	0.762965	-0.035189	-0.002991	0.115972	1.000000	0.000033	0.000021	0.000030	-47.514605	-83.767528	50.235650
04079	9.864660	-0.794700	0.739229	-0.011331	-0.000381	0.111495	1.000000	0.000026	0.000023	0.000039	-47.521536	-83.762458	50.245629
04080	9.845074	-0.780984	0.742820	-0.015795	0.011537	0.091191	1.000000	0.000033	0.000021	0.000030	-47.473164	-83.758318	50.205103
04081	9.895860	-0.788915	0.712966	0.018556	0.009888	0.140117	1.000000	0.000033	0.000045	0.000039	-47.462337	-83.751564	50.198050
04082	9.842289	-0.780587	0.720013	0.008154	0.013680	0.086713	1.000000	0.000026	0.000023	0.000039	-47.449653	-83.748254	50.191328
04083	9.888059	-0.754599	0.692955	0.037447	0.045348	0.128130	1.000000	0.000026	0.000023	0.000039	-47.456521	-83.743190	50.201252
04084	9.864173	-0.798072	0.742090	-0.010313	-0.001634	0.111496	1.000000	0.000033	0.000021	0.000030	-47.444037	-83.739016	50.193546
04085	9.866653	-0.800381	0.766859	-0.034169	-0.004246	0.115975	1.000000	0.000028	0.000030	0.000031	-47.439222	-83.734039	50.191939
04086	9.853833	-0.761755	0.697842	0.031394	0.036555	0.095034	1.000000	0.000029	0.000030	0.000039	-47.467026	-83.733535	50.224400
04087	9.829913	-0.805286	0.747124	-0.016573	-0.010254	0.078394	1.000000	0.000036	0.000028	0.000038	-47.468907	-83.728156	50.230410
04088	9.875693	-0.779308	0.720127	0.013081	0.021419	0.119815	1.000000	0.000026	0.000023	0.000039	-47.461118	-83.721702	50.225556
04089	9.863691	-0.801283	0.745030	-0.010904	-0.001984	0.111495	1.000000	0.000028	0.000031	0.000023	-47.450754	-83.717390	50.218306
04090	9.872960	-0.778711	0.697052	0.037204	0.023663	0.115337	1.000000	0.000026	0.000023	0.000039	-47.434138	-83.712981	50.206724
04091	9.860950	-0.800821	0.721843	0.013219	0.000260	0.107017	1.000000	0.000041	0.000018	0.000038	-47.442513	-83.708376	50.219817
04092	9.855846	-0.767498	0.725348	0.008076	0.033426	0.099513	1.000000	0.000029	0.000030	0.000039	-47.441734	-83.703731	50.222770
04093	9.858196	-0.800450	0.698817	0.036990	0.002725	0.102539	1.000000	0.000021	0.000033	0.000031	-47.436599	-83.698532	50.219991
04094	9.877694	-0.784853	0.747798	-0.010741	0.017758	0.124294	1.000000	0.000028	0.000030	0.000031	-47.419726	-83.696424	50.208894
04095	9.860573	-0.803342	0.724196	0.012990	-0.000414	0.107017	1.000000	0.000023	0.000016	0.000031	-47.426862	-83.692585	50.218753
04096	9.877524	-0.786172	0.748659	-0.010692	0.017431	0.124295	1.000000	0.000017	0.000018	0.000048	-47.431524	-83.688453	50.226923
04097	9.862944	-0.806485	0.749291	-0.010816	-0.003357	0.111495	1.000000	0.000028	0.000031	0.000023	-47.421136	-83.684140	50.219655
04098	9.874771	-0.785826	0.725668	0.013202	0.019389	0.119819	1.000000	0.000032	0.000037	0.000055	-47.404001	-83.679441	50.209991
04099	9.891709	-0.768617	0.750373	-0.010536	0.037557	0.137097	1.000000	0.000040	0.000019	0.000022	-47.400561	-83.676157	50.211124
04100	9.874594	-0.787157	0.726641	0.013451	0.018491	0.119820	1.000000	0.000031	0.000013	0.000047	-47.379210	-83.674293	50.198789
04101	9.860006	-0.807606	0.727161	0.013330	-0.002304	0.107017	1.000000	0.000026	0.000023	0.000039	-47.385883	-83.669269	50.208554
04102	9.874412	-0.788613	0.727536	0.013259	0.018074	0.119821	1.000000	0.000026	0.000023	0.000031	-47.381071	-83.667389	50.208158
04103	9.852307	-0.773066	0.706886	0.031923	0.033222	0.095045	1.000000	0.000026	0.000023	0.000031	-47.382106	-83.663032	50.212202
04104	9.871697	-0.788092	0.704348	0.036524	0.019706	0.115348	1.000000	0.000043	0.000025	0.000038	-47.374905	-83.664444	50.215192
04105	9.842713	-0.797498	0.756436	-0.016502	0.006191	0.091195	1.000000	0.000024	0.000016	0.000039	-47.387442	-83.660048	50.230621
04106	9.871531	-0.789382	0.705230	0.036419	0.019357	0.115349	1.000000	0.000025	0.000023	0.000023	-47.375416	-83.658123	50.222470
04107	9.842548	-0.798572	0.757450	-0.016606	0.005842	0.091195	1.000000	0.000021	0.000033	0.000031	-47.370001	-83.653027	50.219501
04108	9.861930	-0.813552	0.754975	-0.011256	-0.007374	0.111492	1.000000	0.000026	0.000023	0.000031	-47.341663	-83.651039	50.198229
04109	9.871280	-0.791035	0.706891	0.036564	0.018646	0.115350	1.000000	0.000033	0.000021	0.000030	-47.343076	-83.646967	50.203543
04110	9.842285	-0.800270	0.759071	-0.016902	0.004567	0.091195	1.000000	0.000028	0.000030	0.000031	-47.337420	-83.646261	50.203553
04111	9.905065	-0.787095	0.704977	0.041398	0.026294	0.148459	1.000000	0.000031	0.000037	0.000047	-47.338367	-83.639564	50.208218
04112	9.870973	-0.793144	0.708814	0.035429	0.017472	0.115356	1.000000	0.000019	0.000025	0.000040	-47.352382	-83.639343	50.226590
04113	9.851401	-0.779476	0.712452	0.030219	0.029988	0.095060	1.000000	0.000029	0.000030	0.000039	-47.353636	-83.633904	50.231248
04114	9.865832	-0.760465	0.712767	0.030232	0.050197	0.107874	1.000000	0.000045	0.000009	0.000029	-47.346802	-83.633651	50.232888
04115	9.875767	-0.798559	0.758655	-0.012424	0.011587	0.124301	1.000000	0.000026	0.000023	0.000039	-47.353614	-83.628781	50.242882
04116	9.851156	-0.781374	0.713754	0.030057	0.028739	0.095064	1.000000	0.000026	0.000023	0.000031	-47.334499	-83.627438	50.230400
04117	9.851072	-0.781936	0.714306	0.030038	0.028709	0.095065	1.000000	0.000035	0.000028	0.000030	-47.330211	-83.622897	50.230307
04118	9.870451	-0.796902	0.711869	0.034978	0.015626	0.115361	1.000000	0.000035	0.000028	0.000030	-47.317987	-83.621485	50.224283
04119	9.889921	-0.781330	0.760740	-0.012647	0.031106	0.137117	1.000000	0.000026	0.000023	0.000039	-47.324577	-83.616635	50.234081
04120	9.867838	-0.765947	0.740069	0.005967	0.045987	0.112354	1.000000	0.000019	0.000025	0.000040	-47.323114	-83.612833	50.235045
04121	9.853238	-0.786158	0.740638	0.005844	0.025177	0.099539	1.000000	0.000023	0.000016	0.000023	-47.323924	-83.609832	50.238647
04122	9.872624	-0.801155	0.738023	0.010541	0.012033	0.119833	1.000000	0.000026	0.000023	0.000039	-47.330456	-83.609274	50.249949
04123	9.865073	-0.766206	0.717106	0.029295	0.047959	0.107888	1.000000	0.000031	0.000013	0.000047	-47.349148	-83.604562	50.272530
04124	9.872443	-0.802589	0.738884	0.009468	0.011835	0.119835	1.000000	0.000035	0.000028	0.000022	-47.376625	-83.605113	50.300618
04125	9.886880	-0.783458	0.739402	0.009538	0.032588	0.132652	1.000000	0.000021	0.000033	0.000031	-47.371892	-83.600152	50.298376
04126	9.884368	-0.751679	0.767172	-0.020026	0.062421	0.129647	1.000000	0.000035	0.000028	0.000030	-47.364515	-83.601538	50.298778
04127	9.852709	-0.789850	0.743741	0.003585	0.023472	0.099544	1.000000	0.000033	0.000021	0.000039	-47.372557	-83.596987	50.310856
04128	9.881592	-0.781922	0.692553	0.055210	0.036562	0.123735	1.000000	0.000016	0.000018	0.000032	-47.420802	-83.599865	50.358938
04129	9.874506	-0.807343	0.765745	-0.016525	0.007850	0.124299	1.000000	0.000048	0.000015	0.000046	-47.436612	-83.595167	50.380524
04130	9.881417	-0.783261	0.693526	0.054548	0.035848	0.123742	1.000000	0.000030	0.000038	0.000023	-47.421830	-83.595595	50.371126
04131	9.852349	-0.792329	0.745872	0.001485	0.022316	0.099547	1.000000	0.000021	0.000033	0.000031	-47.418205	-83.590774	50.370010
04132	9.864276	-0.771760	0.722096	0.024760	0.044540	0.107916	1.000000	0.000027	0.000023	0.000047	-47.418221	-83.592928	50.379726
04133	9.849648	-0.792096	0.722703	0.024590	0.023724	0.095093	1.000000	0.000033	0.000021	0.000030	-47.421428	-83.589197	50.386936
04134	9.874026	-0.810478	0.768619	-0.017812	0.005080	0.124299	1.000000	0.000026	0.000023	0.000031	-47.390031	-83.587898	50.363075
04135	9.866534	-0.775220	0.747756	0.000892	0.041001	0.112378	1.000000	0.000033	0.000021	0.000022	-47.387179	-83.584822	50.364167
04136	9.863955	-0.774086	0.723990	0.024008	0.042801	0.107926	1.000000	0.000033	0.000021	0.000039	-47.396321	-83.586514	50.380214
04137	9.832397	-0.781437	0.751718	-0.005198	0.031886	0.079264	1.000000	0.000013	0.000012	0.000015	-47.398144	-83.584814	50.383765
04138	9.897805	-0.769927	0.721713	0.029520	0.050378	0.141045	1.000000	0.000031	0.000037	0.000039	-47.361065	-83.580065	50.352993
04139	9.846680	-0.793657	0.701318	0.047945	0.023983	0.090644	1.000000	0.000031	0.000014	0.000031	-47.369439	-83.576923	50.365183
04140	9.868548	-0.810412	0.722908	0.029634	0.008463	0.115387	1.000000	0.000041	0.000018	0.000038	-47.352121	-83.572333	50.352347
04141	9.849013	-0.796606	0.726391	0.024395	0.020969	0.095099	1.000000	0.000018	0.000026	0.000031	-47.353254	-83.568126	50.355847
04142	9.863466	-0.777650	0.726821	0.023257	0.040544	0.107937	1.000000	0.000036	0.000028	0.000039	-47.364478	-83.572671	50.377069
04143	9.865868	-0.779969	0.751600	-0.000673	0.037836	0.112390	1.000000	0.000026	0.000023	0.000031	-47.366499	-83.568788	50.382339
04144	9.880320	-0.761084	0.752008	-0.001051	0.057989	0.125226	1.000000	0.000036	0.000027	0.000047	-47.372101	-83.567194	50.393390
04145	9.865673	-0.781395	0.752677	-0.001214	0.037160	0.112393	1.000000	0.000033	0.000021	0.000031	-47.374799	-83.563554	50.400182
04146	9.863097	-0.780363	0.728925	0.022676	0.038414	0.107947	1.000000	0.000026	0.000023	0.000039	-47.333408	-83.564627	50.370654
04147	9.882443	-0.795484	0.726517	0.027787	0.025779	0.128232	1.000000	0.000021	0.000033	0.000031	-47.328502	-83.560019	50.368481
04148	9.845962	-0.768738	0.757324	-0.007070	0.048118	0.092114	1.000000	0.000025	0.000023	0.000023	-47.345597	-83.559179	50.384103
04149	9.862835	-0.782101	0.730599	0.021892	0.038142	0.107950	1.000000	0.000026	0.000023	0.000039	-47.353099	-83.554693	50.394983
04150	9.882175	-0.797295	0.728176	0.025798	0.025099	0.128239	1.000000	0.000029	0.000030	0.000039	-47.389419	-83.555926	50.432573
04151	9.862642	-0.783401	0.731808	0.020532	0.037595	0.107955	1.000000	0.000028	0.000031	0.000023	-47.380500	-83.552233	50.427093
04152	9.881998	-0.798442	0.729320	0.024740	0.024091	0.128244	1.000000	0.000024	0.000016	0.000039	-47.400575	-83.555530	50.453201
04153	9.845414	-0.802701	0.708763	0.043244	0.018473	0.090678	1.000000	0.000039	0.000035	0.000047	-47.403770	-83.549597	50.461189
04154	9.864836	-0.787077	0.757706	-0.005136	0.033022	0.112406	1.000000	0.000025	0.000023	0.000023	-47.398906	-83.552638	50.462824
04155	9.859799	-0.784251	0.709835	0.042477	0.038259	0.103526	1.000000	0.000021	0.000033	0.000031	-47.395350	-83.548169	50.462000
04156	9.859712	-0.784825	0.710405	0.040937	0.037532	0.103535	1.000000	0.000033	0.000021	0.000031	-47.434929	-83.552955	50.505786
04157	9.862101	-0.787049	0.735189	0.016953	0.034797	0.107972	1.000000	0.000028	0.000030	0.000031	-47.432608	-83.548785	50.507042
04158	9.883906	-0.803833	0.757089	-0.003470	0.018141	0.132693	1.000000	0.000029	0.000030	0.000039	-47.455841	-83.555990	50.540149
04159	9.861912	-0.788350	0.736326	0.015078	0.033281	0.107980	1.000000	0.000023	0.000016	0.000031	-47.465297	-83.553070	50.552760
04160	9.861836	-0.788916	0.736732	0.014564	0.032291	0.107984	1.000000	0.000033	0.000021	0.000031	-47.454748	-83.555226	50.549698
04161	9.864226	-0.791126	0.761426	-0.009443	0.029529	0.112414	1.000000	0.000033	0.000021	0.000031	-47.458954	-83.552016	50.558175
04162	9.859216	-0.788299	0.713443	0.037235	0.034506	0.103561	1.000000	0.000025	0.000023	0.000023	-47.484985	-83.553667	50.584663
04163	9.873708	-0.769218	0.713887	0.037146	0.055169	0.116412	1.000000	0.000021	0.000033	0.000031	-47.482737	-83.549465	50.585232
04164	9.861506	-0.791098	0.738817	0.011112	0.031273	0.107992	1.000000	0.000041	0.000018	0.000038	-47.559904	-83.554761	50.664300
04165	9.861426	-0.791732	0.739203	0.010932	0.031181	0.107992	1.000000	0.000023	0.000016	0.000031	-47.570713	-83.551980	50.678266
04166	9.844371	-0.779548	0.766892	-0.019063	0.040222	0.092133	1.000000	0.000029	0.000030	0.000039	-47.582063	-83.553846	50.695983
04167	9.861238	-0.793023	0.740322	0.009770	0.030213	0.107997	1.000000	0.000035	0.000028	0.000031	-47.582244	-83.550224	50.700660
04168	9.861146	-0.793583	0.740949	0.008601	0.029291	0.108000	1.000000	0.000028	0.000030	0.000031	-47.594147	-83.553707	50.719782
04169	9.858602	-0.792498	0.717268	0.032264	0.031856	0.103587	1.000000	0.000033	0.000021	0.000031	-47.600353	-83.550705	50.730264
04170	9.870644	-0.771918	0.693361	0.054853	0.054965	0.112038	1.000000	0.000026	0.000023	0.000039	-47.650716	-83.551924	50.779765
04171	9.875462	-0.775941	0.742322	0.006911	0.049537	0.120860	1.000000	0.000026	0.000023	0.000039	-47.662536	-83.548069	50.795085
04172	9.877755	-0.809094	0.715689	0.035217	0.017980	0.123877	1.000000	0.000031	0.000013	0.000039	-47.672375	-83.550171	50.813396
04173	9.838825	-0.780744	0.722064	0.024695	0.043037	0.083319	1.000000	0.000028	0.000030	0.000031	-47.672852	-83.546450	50.817552
04174	9.892158	-0.790816	0.716661	0.033903	0.038871	0.136741	1.000000	0.000029	0.000030	0.000039	-47.728312	-83.543918	50.867200
04175	9.860493	-0.798249	0.744615	0.004605	0.027943	0.108007	1.000000	0.000036	0.000028	0.000039	-47.735774	-83.539749	50.879201
04176	9.872550	-0.777681	0.720705	0.028347	0.050807	0.116465	1.000000	0.000023	0.000016	0.000031	-47.731404	-83.539008	50.879072
04177	9.872479	-0.778158	0.721169	0.028122	0.050716	0.116466	1.000000	0.000042	0.000026	0.000022	-47.728164	-83.536376	50.881045
04178	9.857809	-0.798215	0.721804	0.026610	0.028486	0.103614	1.000000	0.000016	0.000018	0.000032	-47.744105	-83.544336	50.907485
04179	9.843196	-0.787572	0.773746	-0.026506	0.035626	0.092134	1.000000	0.000021	0.000033	0.000031	-47.744719	-83.540472	50.910940
04180	9.874666	-0.781594	0.746968	0.001959	0.046514	0.120877	1.000000	0.000041	0.000018	0.000046	-47.783965	-83.537112	50.948592
04181	9.852724	-0.766087	0.726124	0.020441	0.061670	0.096202	1.000000	0.000025	0.000023	0.000023	-47.785671	-83.534666	50.953614
04182	9.891479	-0.795512	0.720817	0.029099	0.036144	0.136766	1.000000	0.000035	0.000028	0.000022	-47.829721	-83.538120	50.998074
04183	9.837967	-0.786609	0.727368	0.018516	0.040472	0.083344	1.000000	0.000033	0.000020	0.000039	-47.843957	-83.534618	51.016610
04184	9.871884	-0.782357	0.724755	0.023492	0.048124	0.116491	1.000000	0.000027	0.000023	0.000047	-47.847772	-83.531936	51.023406
04185	9.871791	-0.783009	0.725324	0.023237	0.048031	0.116492	1.000000	0.000028	0.000031	0.000023	-47.844352	-83.528967	51.023525
04186	9.874141	-0.785279	0.750039	-0.001366	0.044510	0.120887	1.000000	0.000031	0.000013	0.000047	-47.864364	-83.530532	51.049985
04187	9.852229	-0.769766	0.728945	0.017106	0.059670	0.096220	1.000000	0.000035	0.000004	0.000022	-47.879439	-83.529713	51.069569
04188	9.869139	-0.783131	0.702156	0.045387	0.049133	0.112117	1.000000	0.000035	0.000028	0.000031	-47.884056	-83.530373	51.079982
04189	9.871482	-0.785395	0.726945	0.021256	0.046366	0.116504	1.000000	0.000026	0.000023	0.000039	-47.897714	-83.526686	51.097121
04190	9.856778	-0.805676	0.727579	0.021521	0.025198	0.103635	1.000000	0.000033	0.000020	0.000039	-47.878553	-83.522569	51.079970
04191	9.873735	-0.788299	0.752212	-0.002557	0.043178	0.120892	1.000000	0.000028	0.000031	0.000023	-47.875009	-83.519616	51.079979
04192	9.873663	-0.788612	0.752828	-0.003163	0.043212	0.120892	1.000000	0.000042	0.000026	0.000014	-47.885780	-83.518454	51.089594
04193	9.851766	-0.772950	0.731818	0.015317	0.058381	0.096231	1.000000	0.000019	0.000001	0.000039	-47.916603	-83.516373	51.123133
04194	9.871105	-0.788057	0.729183	0.020053	0.044646	0.116515	1.000000	0.000025	0.000023	0.000023	-47.890226	-83.519211	51.105988
04195	9.854038	-0.775854	0.756789	-0.009204	0.054472	0.100621	1.000000	0.000041	0.000018	0.000054	-47.916090	-83.514623	51.137167
04196	9.873347	-0.791024	0.754430	-0.004610	0.041357	0.120899	1.000000	0.000020	0.000033	0.000015	-47.903992	-83.515045	51.126333
04197	9.870839	-0.789836	0.730858	0.019000	0.043931	0.116520	1.000000	0.000028	0.000030	0.000031	-47.906188	-83.511444	51.132162
04198	9.851351	-0.775947	0.734239	0.012825	0.055376	0.096252	1.000000	0.000031	0.000013	0.000039	-47.923409	-83.516157	51.157833
04199	9.870665	-0.791124	0.731813	0.017687	0.042676	0.116528	1.000000	0.000028	0.000030	0.000031	-47.925658	-83.512615	51.163748
04200	9.875408	-0.795000	0.780881	-0.030618	0.037107	0.125279	1.000000	0.000019	0.000025	0.000040	-47.946957	-83.510355	51.183877
04201	9.868064	-0.790815	0.708619	0.040722	0.045025	0.112157	1.000000	0.000047	0.000016	0.000030	-47.957040	-83.508031	51.199878
04202	9.872820	-0.794486	0.757694	-0.005911	0.039595	0.120906	1.000000	0.000030	0.000038	0.000023	-47.893702	-83.499475	51.136506
04203	9.850909	-0.778842	0.737086	0.012579	0.054770	0.096256	1.000000	0.000021	0.000033	0.000031	-47.895038	-83.495617	51.140628
04204	9.870223	-0.794038	0.734613	0.015382	0.041240	0.116538	1.000000	0.000029	0.000006	0.000039	-47.976541	-83.504560	51.226181
04205	9.860542	-0.757394	0.689333	0.057764	0.079825	0.100405	1.000000	0.000031	0.000038	0.000031	-47.973450	-83.500468	51.226972
04206	9.887079	-0.777307	0.759885	-0.009976	0.059500	0.133785	1.000000	0.000028	0.000030	0.000031	-48.028208	-83.498711	51.276570
04207	9.848136	-0.779759	0.715024	0.032331	0.056609	0.091899	1.000000	0.000026	0.000023	0.000039	-48.042736	-83.495050	51.294527
04208	9.872259	-0.798131	0.761154	-0.011468	0.038070	0.120907	1.000000	0.000043	0.000026	0.000030	-48.066732	-83.497489	51.322670
04209	9.862600	-0.761484	0.715845	0.030907	0.076659	0.104789	1.000000	0.000024	0.000016	0.000039	-48.087261	-83.494411	51.346387
04210	9.847876	-0.781759	0.716431	0.030403	0.055054	0.091913	1.000000	0.000026	0.000023	0.000039	-48.084224	-83.494950	51.349638
04211	9.881810	-0.777506	0.713873	0.035257	0.063095	0.125073	1.000000	0.000026	0.000023	0.000039	-48.098943	-83.491337	51.367803
04212	9.850095	-0.784724	0.741715	0.004843	0.051934	0.096278	1.000000	0.000035	0.000028	0.000031	-48.139311	-83.493264	51.410194
04213	9.850006	-0.785274	0.742323	0.004542	0.051843	0.096278	1.000000	0.000035	0.000028	0.000031	-48.143884	-83.490012	51.419195
04214	9.866904	-0.798884	0.715680	0.032801	0.042802	0.112196	1.000000	0.000024	0.000016	0.000039	-48.214092	-83.483991	51.477659
04215	9.866823	-0.799450	0.716160	0.032496	0.042727	0.112197	1.000000	0.000035	0.000028	0.000023	-48.213736	-83.481345	51.481568
04216	9.866747	-0.799845	0.716774	0.031989	0.042103	0.112201	1.000000	0.000035	0.000028	0.000023	-48.204009	-83.481910	51.476555
04217	9.864311	-0.767989	0.744285	0.002738	0.072704	0.109162	1.000000	0.000019	0.000025	0.000048	-48.224621	-83.477376	51.499763
04218	9.866567	-0.801213	0.717728	0.030471	0.040486	0.112213	1.000000	0.000045	0.000009	0.000030	-48.231808	-83.485568	51.522067
04219	9.847083	-0.787430	0.721104	0.025055	0.053007	0.091940	1.000000	0.000032	0.000037	0.000055	-48.247125	-83.479564	51.541432
04220	9.864022	-0.770210	0.745814	0.000690	0.070505	0.109179	1.000000	0.000025	0.000023	0.000023	-48.244813	-83.480241	51.541633
04221	9.827508	-0.774163	0.725174	0.019123	0.064963	0.071671	1.000000	0.000029	0.000030	0.000039	-48.254841	-83.476125	51.555304
04222	9.883221	-0.786002	0.744091	0.002657	0.057333	0.129457	1.000000	0.000026	0.000023	0.000031	-48.353362	-83.484020	51.655087
04223	9.846763	-0.759012	0.774625	-0.031746	0.079796	0.093245	1.000000	0.000028	0.000030	0.000031	-48.358798	-83.480648	51.664074
04224	9.846626	-0.790426	0.724059	0.019509	0.051110	0.091962	1.000000	0.000042	0.000026	0.000022	-48.390809	-83.485570	51.701599
04225	9.863538	-0.803980	0.697420	0.048128	0.041083	0.107906	1.000000	0.000024	0.000016	0.000039	-48.413602	-83.482673	51.727545
04226	9.895150	-0.767172	0.721828	0.023016	0.079234	0.138030	1.000000	0.000021	0.000033	0.000032	-48.438346	-83.484956	51.754830
04227	9.851132	-0.795358	0.774169	-0.030220	0.044950	0.100627	1.000000	0.000035	0.000028	0.000031	-48.445108	-83.481884	51.765986
04228	9.894964	-0.768307	0.723173	0.022256	0.078573	0.138037	1.000000	0.000031	0.000038	0.000031	-48.432014	-83.480385	51.755854
04229	9.848549	-0.794910	0.751338	-0.007099	0.046964	0.096301	1.000000	0.000028	0.000030	0.000031	-48.438092	-83.477091	51.765489
04230	9.860745	-0.774384	0.727466	0.016018	0.070341	0.104871	1.000000	0.000033	0.000021	0.000031	-48.469912	-83.475795	51.795588
04231	9.863044	-0.776515	0.752192	-0.008221	0.067587	0.109196	1.000000	0.000026	0.000023	0.000031	-48.481997	-83.473037	51.810960
04232	9.831247	-0.814558	0.728870	0.014716	0.027857	0.079086	1.000000	0.000028	0.000030	0.000031	-48.483404	-83.475626	51.819378
04233	9.879853	-0.790827	0.726222	0.019458	0.056613	0.125155	1.000000	0.000034	0.000020	0.000047	-48.507168	-83.471785	51.847446
04234	9.862767	-0.778541	0.753728	-0.009314	0.065741	0.109207	1.000000	0.000016	0.000018	0.000032	-48.479060	-83.470702	51.823139
04235	9.879689	-0.792073	0.727088	0.019287	0.055706	0.125161	1.000000	0.000025	0.000023	0.000023	-48.485407	-83.468639	51.832723
04236	9.879597	-0.792717	0.727639	0.020223	0.055235	0.125162	1.000000	0.000036	0.000027	0.000047	-48.439170	-83.461302	51.789929
04237	9.860117	-0.778936	0.731110	0.014794	0.067766	0.104890	1.000000	0.000021	0.000033	0.000040	-48.449605	-83.457084	51.803165
04238	9.881759	-0.795820	0.753020	-0.004597	0.052199	0.129485	1.000000	0.000031	0.000013	0.000039	-48.477127	-83.456120	51.829764
04239	9.859935	-0.780394	0.732002	0.013854	0.067405	0.104894	1.000000	0.000026	0.000023	0.000039	-48.494047	-83.452666	51.850066
04240	9.859844	-0.781058	0.732515	0.013027	0.067093	0.104898	1.000000	0.000018	0.000026	0.000032	-48.517293	-83.452405	51.871437
04241	9.881491	-0.797714	0.754529	-0.006131	0.051714	0.129487	1.000000	0.000028	0.000031	0.000023	-48.517764	-83.449746	51.875358
04242	9.874370	-0.762521	0.733369	0.011329	0.087632	0.117803	1.000000	0.000045	0.000009	0.000030	-48.577399	-83.451864	51.935340
04243	9.840238	-0.767981	0.736979	0.005885	0.079448	0.084629	1.000000	0.000026	0.000047	0.000031	-48.571645	-83.447228	51.932739
04244	9.893547	-0.778324	0.731797	0.014386	0.075076	0.138078	1.000000	0.000031	0.000013	0.000039	-48.655075	-83.448130	52.012283
04245	9.857051	-0.782393	0.711004	0.032818	0.069565	0.100597	1.000000	0.000036	0.000028	0.000039	-48.668119	-83.444369	52.029716
04246	9.842318	-0.771529	0.762871	-0.021803	0.076378	0.088936	1.000000	0.000026	0.000023	0.000031	-48.725546	-83.448524	52.089110
04247	9.861560	-0.817712	0.709329	0.035695	0.035664	0.107979	1.000000	0.000031	0.000013	0.000031	-48.745078	-83.446562	52.112459
04248	9.856810	-0.784151	0.712402	0.017418	-0.001070	0.100880	1.000000	0.000043	0.000026	0.000030	-46.984549	-83.807971	49.782651
04249	9.873771	-0.766830	0.736925	-0.006795	0.016457	0.118180	1.000000	0.000024	0.000016	0.000039	-46.995835	-83.808202	49.793363
04250	9.859005	-0.786908	0.737535	-0.007556	-0.004758	0.105129	1.000000	0.000025	0.000023	0.000023	-46.994148	-83.809100	49.788756
04251	9.873611	-0.767913	0.737939	-0.007852	0.015222	0.118181	1.000000	0.000021	0.000033	0.000032	-46.986999	-83.808629	49.780606
04252	9.875834	-0.801065	0.711656	0.020340	-0.016435	0.121072	1.000000	0.000026	0.000023	0.000031	-46.983127	-83.808654	49.778538
04253	9.871083	-0.767611	0.714770	0.015148	0.016366	0.113939	1.000000	0.000026	0.000023	0.000039	-46.988519	-83.808322	49.783601
04254	9.878002	-0.803986	0.736880	-0.004511	-0.020216	0.125314	1.000000	0.000033	0.000020	0.000039	-46.991015	-83.808081	49.791503
04255	9.858551	-0.790081	0.740213	-0.009905	-0.008040	0.105125	1.000000	0.000036	0.000028	0.000039	-46.991212	-83.807411	49.792453
04256	9.870799	-0.769761	0.716375	0.013646	0.014390	0.113944	1.000000	0.000036	0.000028	0.000039	-46.994508	-83.806979	49.800573
04257	9.875362	-0.804436	0.714393	0.017834	-0.019719	0.121071	1.000000	0.000028	0.000031	0.000023	-46.982128	-83.807389	49.787950
04258	9.855922	-0.790319	0.717853	0.012392	-0.007500	0.100885	1.000000	0.000021	0.000033	0.000032	-46.978524	-83.806938	49.783593
04259	9.872893	-0.772869	0.742361	-0.011822	0.010026	0.118184	1.000000	0.000020	0.000009	0.000023	-46.983835	-83.809039	49.787924
04260	9.855779	-0.791398	0.718629	0.011343	-0.008766	0.100885	1.000000	0.000033	0.000020	0.000039	-46.993357	-83.808960	49.798211
04261	9.889741	-0.787248	0.716106	0.015932	-0.001633	0.134135	1.000000	0.000033	0.000020	0.000039	-46.999459	-83.808854	49.804820
04262	9.889658	-0.787908	0.716528	0.015501	-0.002272	0.134136	1.000000	0.000016	0.000018	0.000032	-47.001753	-83.809183	49.806443
04263	9.855525	-0.793356	0.719949	0.009915	-0.010706	0.100884	1.000000	0.000026	0.000023	0.000031	-47.001212	-83.809503	49.805494
04264	9.836091	-0.779300	0.723304	0.004575	0.001539	0.080702	1.000000	0.000028	0.000030	0.000031	-46.995125	-83.808880	49.796199
04265	9.872396	-0.776534	0.745134	-0.014760	0.006225	0.118183	1.000000	0.000033	0.000021	0.000031	-46.995292	-83.809427	49.796794
04266	9.889319	-0.790287	0.718575	0.013507	-0.004845	0.134138	1.000000	0.000026	0.000023	0.000039	-47.001492	-83.809256	49.807935
04267	9.857517	-0.797308	0.746207	-0.015996	-0.015708	0.105108	1.000000	0.000030	0.000013	0.000031	-47.007563	-83.810367	49.814188
04268	9.869821	-0.776791	0.722240	0.007710	0.006647	0.113958	1.000000	0.000028	0.000031	0.000023	-46.990378	-83.810710	49.804798
04269	9.855028	-0.796758	0.722988	0.007005	-0.014621	0.100882	1.000000	0.000033	0.000021	0.000031	-46.990549	-83.811257	49.805396
04270	9.891330	-0.794069	0.744733	-0.012284	-0.009937	0.138359	1.000000	0.000033	0.000020	0.000039	-46.994717	-83.810896	49.811784
04271	9.854863	-0.798030	0.723833	0.006063	-0.015914	0.100881	1.000000	0.000030	0.000013	0.000031	-47.000792	-83.812007	49.818042
04272	9.869496	-0.779187	0.724096	0.005814	0.004042	0.113961	1.000000	0.000036	0.000028	0.000039	-46.999001	-83.811197	49.820953
04273	9.835349	-0.784656	0.727593	0.000243	-0.004367	0.080702	1.000000	0.000033	0.000021	0.000031	-46.999177	-83.811743	49.821557
04274	9.905703	-0.777076	0.746490	-0.013944	0.007998	0.151438	1.000000	0.000021	0.000033	0.000032	-46.986340	-83.811165	49.816314
04275	9.854507	-0.800514	0.725945	0.004206	-0.018579	0.100877	1.000000	0.000041	0.000018	0.000038	-46.993169	-83.811285	49.824488
04276	9.871468	-0.783104	0.750539	-0.020076	-0.001042	0.118175	1.000000	0.000028	0.000031	0.000023	-46.983995	-83.811854	49.818142
04277	9.869058	-0.782087	0.726929	0.003349	0.000744	0.113963	1.000000	0.000028	0.000030	0.000031	-46.977561	-83.811610	49.811545
04278	9.883696	-0.763189	0.727301	0.002968	0.020731	0.127053	1.000000	0.000026	0.000023	0.000031	-46.981666	-83.812105	49.816921
04279	9.873491	-0.817358	0.725510	0.006919	-0.033999	0.121046	1.000000	0.000028	0.000030	0.000031	-46.975234	-83.811861	49.810326
04280	9.854069	-0.803352	0.728745	0.001535	-0.021783	0.100871	1.000000	0.000031	0.000013	0.000039	-46.988514	-83.812406	49.827948
04281	9.851702	-0.771370	0.755944	-0.027542	0.008602	0.097997	1.000000	0.000033	0.000021	0.000031	-46.988699	-83.812952	49.828560
04282	9.868634	-0.785074	0.729466	0.000764	-0.002514	0.113963	1.000000	0.000035	0.000028	0.000031	-46.980902	-83.812990	49.828900
04283	9.853812	-0.805023	0.730367	0.000062	-0.023770	0.100867	1.000000	0.000030	0.000038	0.000023	-46.962628	-83.812836	49.810629
04284	9.866140	-0.784699	0.706460	0.023730	-0.001369	0.109761	1.000000	0.000031	0.000013	0.000047	-46.979520	-83.812436	49.830168
04285	9.868370	-0.786847	0.731121	-0.000695	-0.004458	0.113963	1.000000	0.000025	0.000023	0.000023	-46.973049	-83.813409	49.823210
04286	9.870603	-0.788923	0.755803	-0.025059	-0.007546	0.118161	1.000000	0.000024	0.000016	0.000039	-46.981824	-83.813412	49.834864
04287	9.865897	-0.786574	0.707764	0.022296	-0.003329	0.109764	1.000000	0.000035	0.000028	0.000031	-46.976112	-83.813395	49.829826
04288	9.868114	-0.788714	0.732572	-0.002142	-0.006372	0.113961	1.000000	0.000026	0.000023	0.000039	-46.983493	-83.812909	49.836498
04289	9.865719	-0.787794	0.708884	0.021287	-0.004593	0.109766	1.000000	0.000028	0.000031	0.000023	-46.971124	-83.813319	49.823887
04290	9.850883	-0.807969	0.709618	0.020701	-0.025830	0.096660	1.000000	0.000041	0.000018	0.000054	-46.985494	-83.811634	49.840820
04291	9.867839	-0.790787	0.734037	-0.003521	-0.008316	0.113959	1.000000	0.000030	0.000013	0.000031	-46.991590	-83.812743	49.847098
04292	9.860885	-0.755668	0.712734	0.015291	0.026989	0.102710	1.000000	0.000018	0.000026	0.000024	-46.985496	-83.813207	49.838350
04293	9.869986	-0.793351	0.759220	-0.028433	-0.011996	0.118148	1.000000	0.000033	0.000020	0.000039	-46.991634	-83.813098	49.844994
04294	9.865301	-0.791022	0.711104	0.018899	-0.007775	0.109769	1.000000	0.000023	0.000016	0.000031	-46.998801	-83.813992	49.853934
04295	9.862925	-0.790085	0.687287	0.042330	-0.006003	0.105582	1.000000	0.000050	0.000023	0.000030	-46.994537	-83.814428	49.852017
04296	9.891326	-0.842588	0.730958	0.003425	-0.057862	0.141168	1.000000	0.000007	0.000013	0.000048	-47.017043	-83.814071	49.874834
04297	9.850329	-0.781338	0.763562	-0.035296	-0.001677	0.097976	1.000000	0.000033	0.000021	0.000031	-47.017246	-83.814617	49.875465
04298	9.916099	-0.770772	0.733877	-0.001800	0.015545	0.160348	1.000000	0.000040	0.000019	0.000022	-47.014529	-83.815858	49.872954
04299	9.738785	-0.759505	0.727727	-0.008171	0.012317	-0.017273	1.000000	0.000089	0.000066	0.000036	-46.977050	-83.812379	49.842134
04300	9.986226	-0.826664	0.651989	0.088326	-0.030063	0.228452	1.000000	-0.000078	0.000017	0.000077	-47.025978	-83.809091	49.880518
04301	9.879482	-0.714066	0.816293	-0.089334	0.065619	0.125527	1.000000	0.000111	-0.000029	0.000001	-47.034786	-83.816014	49.898819
04302	9.771532	-0.847690	0.769646	-0.043452	-0.074278	0.025319	1.000000	-0.000024	0.000064	0.000051	-47.024281	-83.811495	49.883822
04303	9.857639	-0.730026	0.745552	-0.018761	0.051013	0.099874	1.000000	0.000083	0.000077	0.000004	-46.956462	-83.809843	49.821758
04304	9.917714	-0.838435	0.660596	0.076228	-0.048043	0.161895	1.000000	-0.000031	0.000018	0.000050	-46.980876	-83.808845	49.841209
04305	9.859754	-0.732861	0.770744	-0.043679	0.047314	0.104052	1.000000	0.000043	-0.000023	0.000038	-47.018703	-83.812233	49.880820
04306	9.817659	-0.824483	0.744903	-0.016244	-0.046102	0.067530	1.000000	0.000026	0.000047	0.000031	-47.000620	-83.810294	49.859201
04307	9.842548	-0.720783	0.798923	-0.073390	0.056566	0.088068	1.000000	0.000016	0.000043	0.000024	-46.980921	-83.809686	49.837835
04308	9.868562	-0.833836	0.716658	0.016560	-0.050216	0.116795	1.000000	0.000074	0.000023	0.000020	-46.966005	-83.810767	49.831042
04309	9.895723	-0.794141	0.692471	0.040418	-0.007295	0.138886	1.000000	-0.000022	0.000023	0.000050	-46.984818	-83.809540	49.844091
04310	9.880904	-0.783058	0.743921	-0.012767	0.000181	0.127067	1.000000	0.000057	-0.000003	0.000021	-46.995557	-83.812601	49.857124
04311	9.846774	-0.788254	0.747096	-0.018288	-0.008138	0.093778	1.000000	0.000026	0.000023	0.000031	-46.995045	-83.812919	49.856203
04312	9.865979	-0.803499	0.745150	-0.013921	-0.021667	0.113930	1.000000	0.000050	0.000047	0.000030	-46.971105	-83.811060	49.833630
04313	9.856774	-0.767170	0.699912	0.028863	0.015988	0.098585	1.000000	0.000005	0.000030	0.000049	-46.980291	-83.809387	49.840054
04314	9.878275	-0.784075	0.721752	0.009245	0.000013	0.122902	1.000000	0.000040	-0.000006	0.000030	-46.999115	-83.812024	49.864459
04315	9.827114	-0.776204	0.751693	-0.025008	0.002214	0.073620	1.000000	0.000021	0.000008	0.000039	-47.016352	-83.812812	49.880872
04316	9.853124	-0.827169	0.771297	-0.040003	-0.047227	0.104940	1.000000	0.000023	0.000040	0.000031	-47.002048	-83.811449	49.865525
04317	9.878042	-0.785875	0.722986	0.007802	-0.001920	0.122903	1.000000	0.000033	0.000021	0.000023	-46.996331	-83.812648	49.860158
04318	9.841611	-0.789619	0.702236	0.026159	-0.007777	0.085454	1.000000	0.000038	0.000035	0.000031	-46.989036	-83.812135	49.854393
04319	9.926729	-0.762771	0.721048	0.011963	0.025035	0.169342	1.000000	0.000016	0.000018	0.000032	-46.993701	-83.812788	49.857566
04320	9.863010	-0.806903	0.724900	0.005997	-0.024364	0.109758	1.000000	0.000059	0.000028	0.000029	-46.986707	-83.812764	49.853067
04321	9.877688	-0.788266	0.725211	0.005716	-0.004446	0.122904	1.000000	0.000010	0.000020	0.000056	-47.008455	-83.811225	49.872720
04322	9.853803	-0.739973	0.730744	-0.004158	0.041381	0.095756	1.000000	0.000053	0.000014	0.000005	-46.995565	-83.814253	49.860709
04323	9.845693	-0.826644	0.702565	0.028198	-0.044443	0.092455	1.000000	0.000007	0.000062	0.000041	-46.974464	-83.810755	49.836919
04324	9.881929	-0.824061	0.724633	0.008826	-0.039838	0.129899	1.000000	0.000028	0.000006	0.000031	-46.984616	-83.812116	49.847939
04325	9.932994	-0.802012	0.745934	-0.010391	-0.014686	0.180494	1.000000	0.000036	0.000004	0.000038	-47.003322	-83.813358	49.867493
04326	9.806872	-0.767860	0.760116	-0.035220	0.008235	0.053458	1.000000	0.000067	0.000025	0.000029	-46.994664	-83.813461	49.863732
04327	9.915726	-0.821426	0.723269	0.012348	-0.034142	0.163192	1.000000	-0.000028	0.000073	0.000059	-46.981772	-83.807517	49.844125
04328	9.863520	-0.690096	0.736935	-0.011386	0.091632	0.101938	1.000000	0.000111	0.000019	0.000002	-46.955552	-83.810459	49.826969
04329	9.864359	-0.876615	0.652849	0.082487	-0.089936	0.111292	1.000000	-0.000028	0.000049	0.000075	-46.972975	-83.805121	49.837928
04330	9.940473	-0.719496	0.778483	-0.045746	0.067297	0.183817	1.000000	0.000011	0.000004	0.000032	-46.991209	-83.806970	49.858191
04331	9.798255	-0.857917	0.734517	-0.004917	-0.080132	0.050116	1.000000	0.000021	0.000008	0.000039	-47.008441	-83.807757	49.874598
04332	9.895952	-0.747824	0.830688	-0.099840	0.033063	0.145630	1.000000	0.000028	0.000030	0.000031	-47.002856	-83.807358	49.869604
04333	9.812850	-0.870875	0.684629	0.046744	-0.089570	0.061975	1.000000	0.000059	0.000052	0.000022	-46.969149	-83.806196	49.839155
04334	9.918577	-0.736985	0.708255	0.023943	0.051329	0.158257	1.000000	-0.000010	0.000035	0.000041	-46.968574	-83.804358	49.835358
04335	9.842262	-0.802004	0.736392	-0.006162	-0.020998	0.089591	1.000000	0.000064	-0.000006	0.000029	-46.984279	-83.807162	49.855177
04336	9.844438	-0.804151	0.760806	-0.030692	-0.023984	0.093721	1.000000	-0.000000	0.000015	0.000049	-47.010543	-83.806720	49.878228
04337	9.861388	-0.786904	0.785345	-0.054910	-0.006459	0.111017	1.000000	0.000052	0.000030	0.000030	-47.000466	-83.806592	49.870746
04338	9.805660	-0.807308	0.716369	0.011193	-0.028080	0.052149	1.000000	0.000031	0.000037	0.000039	-46.996203	-83.805017	49.866704
04339	9.920391	-0.772998	0.684011	0.049825	0.017005	0.161118	1.000000	0.000045	0.000033	0.000022	-46.979464	-83.805316	49.851646
04340	9.890716	-0.812286	0.684813	0.048867	-0.024729	0.134776	1.000000	0.000033	-0.000003	0.000030	-46.999460	-83.807646	49.873005
04341	9.852108	-0.752080	0.741160	-0.013566	0.029287	0.095791	1.000000	0.000021	0.000009	0.000031	-47.010768	-83.809088	49.883410
04342	9.871322	-0.767383	0.738826	-0.009287	0.015721	0.115928	1.000000	0.000040	0.000018	0.000030	-47.012479	-83.809582	49.884558
04343	9.824584	-0.793426	0.766634	-0.038941	-0.015448	0.073563	1.000000	0.000033	0.000021	0.000031	-47.012729	-83.810125	49.885235
04344	9.873395	-0.770010	0.764031	-0.034183	0.012068	0.120050	1.000000	0.000019	0.000025	0.000040	-47.016432	-83.809272	49.888218
04345	9.839213	-0.806379	0.716649	0.012752	-0.024936	0.085452	1.000000	0.000046	0.000041	0.000006	-46.981919	-83.810320	49.855478
04346	9.888047	-0.782786	0.713999	0.017441	0.002577	0.131945	1.000000	0.000026	-0.000001	0.000047	-47.013693	-83.811175	49.888070
04347	9.856111	-0.789654	0.741351	-0.011982	-0.008030	0.102748	1.000000	0.000041	0.000018	0.000038	-47.020622	-83.811289	49.896340
04348	9.887887	-0.784161	0.714713	0.016426	0.001303	0.131947	1.000000	0.000011	0.000028	0.000024	-47.014639	-83.811712	49.888425
04349	9.890031	-0.786073	0.739631	-0.008022	-0.001722	0.136062	1.000000	0.000045	0.000033	0.000030	-47.003830	-83.811357	49.879375
04350	9.868445	-0.770380	0.718601	0.010672	0.012987	0.111818	1.000000	0.000025	0.000023	0.000023	-46.998643	-83.812290	49.876066
04351	9.889867	-0.787116	0.740721	-0.009035	-0.003009	0.136061	1.000000	0.000033	0.000020	0.000039	-47.004835	-83.812176	49.882762
04352	9.887553	-0.786321	0.716946	0.014429	-0.001262	0.131950	1.000000	0.000050	0.000023	0.000030	-47.001261	-83.812407	49.880780
04353	9.829657	-0.742607	0.725354	-0.000277	0.037017	0.071562	1.000000	0.000018	0.000026	0.000032	-47.000028	-83.812495	49.878301
04354	9.870316	-0.774332	0.744995	-0.015227	0.008070	0.115930	1.000000	0.000046	0.000032	0.000054	-47.006859	-83.809957	49.886801
04355	9.865756	-0.772316	0.697144	0.032175	0.012145	0.107717	1.000000	0.000021	0.000033	0.000032	-46.999727	-83.809483	49.878670
04356	9.853058	-0.762355	0.773240	-0.044922	0.017414	0.099906	1.000000	0.000028	0.000030	0.000031	-46.995019	-83.809184	49.874285
04357	9.835908	-0.781073	0.749766	-0.021704	-0.001414	0.082607	1.000000	0.000026	0.000023	0.000047	-47.006399	-83.808187	49.885410
04358	9.867691	-0.775775	0.723136	0.006700	0.007876	0.111826	1.000000	0.000026	0.000023	0.000031	-47.007345	-83.808436	49.886300
04359	9.872041	-0.810521	0.721272	0.010690	-0.026302	0.118755	1.000000	0.000018	0.000026	0.000032	-47.006116	-83.808524	49.883826
04360	9.852685	-0.796338	0.724474	0.005479	-0.013945	0.098629	1.000000	0.000028	0.000030	0.000031	-46.999951	-83.808132	49.877851
04361	9.869623	-0.778996	0.749300	-0.018734	0.003582	0.115927	1.000000	0.000033	0.000045	0.000039	-46.987708	-83.806103	49.866020
04362	9.869527	-0.810999	0.699005	0.033139	-0.025862	0.114655	1.000000	0.000030	0.000013	0.000031	-46.995280	-83.807167	49.874845
04363	9.882057	-0.759425	0.726059	0.004445	0.025191	0.125033	1.000000	0.000026	0.000047	0.000031	-46.976364	-83.805567	49.855428
04364	9.854503	-0.800148	0.751409	-0.020456	-0.018864	0.102720	1.000000	0.000045	0.000009	0.000030	-46.983565	-83.806933	49.864742
04365	9.847786	-0.765207	0.729995	-0.001477	0.016367	0.091708	1.000000	0.000038	0.000035	0.000039	-46.977974	-83.805693	49.860151
04366	9.847704	-0.765762	0.730526	-0.002012	0.015746	0.091709	1.000000	0.000030	0.000014	0.000023	-46.980833	-83.807470	49.863423
04367	9.852043	-0.769104	0.779460	-0.050417	0.010393	0.099890	1.000000	0.000033	0.000020	0.000039	-46.987036	-83.807355	49.870131
04368	9.834903	-0.787809	0.755878	-0.027190	-0.008425	0.082590	1.000000	0.000033	0.000020	0.000039	-46.993227	-83.807146	49.878442
04369	9.866708	-0.751160	0.780076	-0.051160	0.029636	0.113097	1.000000	0.000024	0.000016	0.000039	-47.004579	-83.807366	49.889214
04370	9.847370	-0.768409	0.732240	-0.003931	0.013179	0.091712	1.000000	0.000035	0.000028	0.000031	-46.997499	-83.807024	49.880998
04371	9.866535	-0.783909	0.730104	0.000276	-0.000478	0.111832	1.000000	0.000031	0.000013	0.000047	-47.015532	-83.806814	49.899363
04372	9.847186	-0.769858	0.733186	-0.004892	0.011881	0.091714	1.000000	0.000021	0.000033	0.000032	-47.007194	-83.806200	49.891871
04373	9.866346	-0.785248	0.731223	-0.000688	-0.001779	0.111832	1.000000	0.000011	0.000028	0.000032	-47.005216	-83.806061	49.887812
04374	9.900365	-0.781249	0.728912	0.003759	0.005100	0.145166	1.000000	0.000033	0.000021	0.000031	-47.005968	-83.806517	49.889296
04375	9.866191	-0.786326	0.732145	-0.001682	-0.003067	0.111831	1.000000	0.000023	0.000016	0.000023	-47.005465	-83.808049	49.888060
04376	9.880969	-0.767451	0.732403	-0.001956	0.016824	0.125051	1.000000	0.000028	0.000030	0.000031	-47.000572	-83.807784	49.883470
04377	9.831924	-0.791970	0.736018	-0.007638	-0.011859	0.078494	1.000000	0.000033	0.000021	0.000031	-47.000855	-83.808325	49.884180
04378	9.861549	-0.753871	0.736010	-0.007608	0.028562	0.104939	1.000000	0.000026	0.000023	0.000039	-47.005802	-83.807731	49.886591
04379	9.878530	-0.767920	0.709520	0.020544	0.017228	0.120980	1.000000	0.000045	0.000009	0.000030	-47.013498	-83.809287	49.896138
04380	9.865790	-0.789228	0.734427	-0.004140	-0.006278	0.111829	1.000000	0.000018	0.000026	0.000032	-47.011608	-83.809287	49.894369
04381	9.876183	-0.767686	0.686200	0.043526	0.018259	0.116913	1.000000	0.000035	0.000028	0.000031	-47.005993	-83.809265	49.889430
04382	9.867799	-0.823241	0.709016	0.023275	-0.038776	0.114641	1.000000	0.000029	0.000030	0.000039	-47.005307	-83.808235	49.888315
04383	9.880366	-0.771812	0.735943	-0.005370	0.012296	0.125057	1.000000	0.000026	0.000023	0.000039	-47.010768	-83.807892	49.893442
04384	9.878093	-0.771018	0.712236	0.018113	0.013984	0.120990	1.000000	0.000028	0.000031	0.000023	-46.997876	-83.808179	49.880676
04385	9.863134	-0.791120	0.712974	0.017365	-0.007186	0.107759	1.000000	0.000024	0.000015	0.000055	-47.021094	-83.807084	49.903466
04386	9.882276	-0.806661	0.710976	0.021564	-0.020861	0.127869	1.000000	0.000030	0.000038	0.000023	-47.002374	-83.806820	49.885125
04387	9.877810	-0.773066	0.713938	0.016638	0.012030	0.120995	1.000000	0.000026	0.000023	0.000039	-47.007836	-83.806477	49.890254
04388	9.865033	-0.794452	0.738957	-0.008057	-0.011459	0.111822	1.000000	0.000026	0.000023	0.000031	-47.006963	-83.806710	49.889911
04389	9.877641	-0.774304	0.714930	0.015657	0.010727	0.120998	1.000000	0.000026	0.000023	0.000031	-47.006498	-83.807023	49.889037
04390	9.862677	-0.794238	0.715820	0.014887	-0.010424	0.107760	1.000000	0.000031	0.000038	0.000031	-46.995510	-83.806222	49.878465
04391	9.875278	-0.774161	0.691918	0.038603	0.011758	0.116943	1.000000	0.000033	0.000020	0.000039	-47.001734	-83.806105	49.885193
04392	9.898776	-0.792337	0.738454	-0.005154	-0.006566	0.145164	1.000000	0.000035	0.000028	0.000031	-46.996799	-83.806015	49.880166
04393	9.845330	-0.782705	0.744430	-0.015240	-0.001647	0.091710	1.000000	0.000029	0.000030	0.000039	-46.996368	-83.805109	49.879651
04394	9.879343	-0.778736	0.742348	-0.010824	0.005190	0.125058	1.000000	0.000030	0.000038	0.000023	-46.979121	-83.804877	49.861173
04395	9.857845	-0.763062	0.721353	0.007979	0.019900	0.100902	1.000000	0.000021	0.000033	0.000032	-46.972005	-83.804401	49.853061
04396	9.845057	-0.815889	0.695591	0.035591	-0.032479	0.090461	1.000000	0.000033	0.000020	0.000039	-46.978813	-83.804238	49.860155
04397	9.864187	-0.799884	0.744362	-0.012580	-0.017260	0.111809	1.000000	0.000033	0.000021	0.000031	-46.979114	-83.804777	49.860883
04398	9.861930	-0.799166	0.720614	0.010890	-0.015595	0.107759	1.000000	0.000036	0.000028	0.000039	-46.979313	-83.804075	49.863724
04399	9.864000	-0.801172	0.745463	-0.013574	-0.018563	0.111805	1.000000	0.000018	0.000026	0.000032	-46.978093	-83.804161	49.861259
04400	9.863910	-0.801747	0.746034	-0.014077	-0.019209	0.111803	1.000000	0.000035	0.000028	0.000031	-46.972874	-83.804127	49.858317
04401	9.861649	-0.801040	0.722377	0.009389	-0.017547	0.107757	1.000000	0.000029	0.000030	0.000039	-46.972452	-83.803220	49.857811
04402	9.859368	-0.768945	0.749509	-0.019476	0.013055	0.104955	1.000000	0.000026	0.000023	0.000039	-46.978683	-83.802852	49.864655
04403	9.863598	-0.803781	0.747960	-0.015583	-0.021151	0.111797	1.000000	0.000026	0.000047	0.000031	-46.959793	-83.801251	49.845267
04404	9.844267	-0.789588	0.751186	-0.020707	-0.008731	0.091696	1.000000	0.000040	0.000018	0.000038	-46.966355	-83.801212	49.852882
04405	9.878301	-0.785704	0.748846	-0.016301	-0.001942	0.125052	1.000000	0.000033	0.000021	0.000031	-46.966665	-83.801751	49.853618
04406	9.858997	-0.771427	0.751832	-0.021461	0.010487	0.104954	1.000000	0.000033	0.000021	0.000031	-46.968442	-83.802267	49.855755
04407	9.858916	-0.772076	0.752235	-0.021959	0.009837	0.104954	1.000000	0.000024	0.000016	0.000039	-46.979807	-83.802483	49.866537
04408	9.875896	-0.786311	0.725849	0.006158	-0.001556	0.121014	1.000000	0.000026	0.000023	0.000039	-46.985569	-83.802037	49.871676
04409	9.856586	-0.772282	0.728697	0.001022	0.010857	0.100919	1.000000	0.000029	0.000006	0.000047	-47.009519	-83.802384	49.895706
04410	9.858666	-0.774252	0.753271	-0.023461	0.007918	0.104952	1.000000	0.000040	0.000018	0.000022	-47.005944	-83.803797	49.893811
04411	9.875645	-0.788241	0.727169	0.004644	-0.003500	0.121015	1.000000	0.000026	0.000047	0.000031	-46.987044	-83.802197	49.874414
04412	9.858492	-0.775228	0.754541	-0.024426	0.006616	0.104950	1.000000	0.000028	0.000006	0.000023	-46.991977	-83.804400	49.880687
04413	9.875493	-0.789312	0.728074	0.003677	-0.004806	0.121015	1.000000	0.000026	0.000023	0.000039	-46.997453	-83.804054	49.885829
04414	9.841282	-0.794458	0.731339	-0.001699	-0.012860	0.087651	1.000000	0.000026	0.000023	0.000031	-46.996879	-83.804239	49.884068
04415	9.875323	-0.790539	0.729049	0.002695	-0.006097	0.121014	1.000000	0.000033	0.000021	0.000031	-46.997200	-83.804777	49.884816
04416	9.892282	-0.773255	0.753532	-0.021454	0.011433	0.138312	1.000000	0.000034	0.000020	0.000047	-47.006871	-83.803825	49.897015
04417	9.853791	-0.775891	0.707984	0.021098	0.007964	0.096901	1.000000	0.000019	0.000001	0.000039	-47.030040	-83.805163	49.919103
04418	9.860144	-0.812232	0.730382	0.001013	-0.028537	0.107736	1.000000	0.000022	0.000032	0.000048	-47.034159	-83.803213	49.921482
04419	9.855748	-0.778621	0.733273	-0.003841	0.004378	0.100924	1.000000	0.000035	0.000028	0.000015	-47.016745	-83.804505	49.904594
04420	9.874883	-0.793873	0.731379	0.000286	-0.009347	0.121012	1.000000	0.000035	0.000028	0.000031	-47.011274	-83.804416	49.900306
04421	9.904635	-0.787400	0.680674	0.052616	0.001982	0.146346	1.000000	0.000029	0.000030	0.000039	-47.010854	-83.803508	49.899803
04422	9.853344	-0.778992	0.710787	0.018647	0.004728	0.096908	1.000000	0.000026	0.000023	0.000031	-47.010445	-83.803796	49.900451
04423	9.874603	-0.795821	0.733050	-0.001209	-0.011303	0.121010	1.000000	0.000033	0.000020	0.000039	-47.016697	-83.803675	49.907205
04424	9.878775	-0.799167	0.782131	-0.049648	-0.016522	0.129036	1.000000	0.000043	0.000025	0.000038	-47.017953	-83.803145	49.910200
04425	9.872273	-0.795924	0.709881	0.021772	-0.010310	0.116996	1.000000	0.000029	0.000030	0.000039	-47.017535	-83.802236	49.909699
04426	9.852966	-0.781723	0.713033	0.016652	0.002143	0.096912	1.000000	0.000021	0.000033	0.000032	-47.011379	-83.801739	49.903118
04427	9.872082	-0.797073	0.711243	0.020762	-0.011603	0.116997	1.000000	0.000045	0.000033	0.000022	-46.994778	-83.802037	49.888204
04428	9.867699	-0.763528	0.714165	0.015944	0.021333	0.110204	1.000000	0.000022	0.000032	0.000048	-46.999486	-83.800112	49.891058
04429	9.854802	-0.784895	0.739278	-0.008799	-0.002080	0.100921	1.000000	0.000033	0.000021	0.000031	-46.999821	-83.800649	49.891820
04430	9.888841	-0.781104	0.737027	-0.004426	0.004658	0.134296	1.000000	0.000019	0.000025	0.000040	-47.005024	-83.800030	49.896330
04431	9.873825	-0.801080	0.737786	-0.005197	-0.016471	0.121001	1.000000	0.000033	0.000021	0.000031	-47.005362	-83.800567	49.897095
04432	9.873726	-0.801826	0.738299	-0.005708	-0.017108	0.121000	1.000000	0.000012	0.000028	0.000048	-47.016180	-83.799078	49.905975
04433	9.850164	-0.753325	0.743617	-0.015126	0.028919	0.094135	1.000000	0.000052	0.000031	0.000014	-46.994453	-83.800262	49.886696
04434	9.854352	-0.787980	0.741992	-0.011301	-0.005289	0.100917	1.000000	0.000026	0.000023	0.000039	-47.000570	-83.799826	49.891458
04435	9.856373	-0.789949	0.766865	-0.035776	-0.008216	0.104915	1.000000	0.000021	0.000033	0.000032	-46.993466	-83.799348	49.883359
04436	9.839235	-0.808542	0.743358	-0.012557	-0.027061	0.087614	1.000000	0.000023	0.000016	0.000031	-46.998352	-83.800158	49.889185
04437	9.866904	-0.769275	0.718963	0.011473	0.015502	0.110221	1.000000	0.000026	0.000023	0.000039	-47.003837	-83.799810	49.894337
04438	9.853984	-0.790540	0.744156	-0.013289	-0.007885	0.100913	1.000000	0.000031	0.000038	0.000031	-46.992340	-83.799005	49.884305
04439	9.851778	-0.789884	0.720418	0.010190	-0.006264	0.096919	1.000000	0.000031	0.000013	0.000039	-47.004496	-83.799444	49.896713
04440	9.890039	-0.788798	0.766755	-0.033406	-0.004089	0.138285	1.000000	0.000021	0.000033	0.000040	-47.003995	-83.798247	49.895146
04441	9.870765	-0.774551	0.769604	-0.038489	0.008375	0.118208	1.000000	0.000042	0.000001	0.000030	-47.017689	-83.800359	49.910438
04442	9.851515	-0.791837	0.721865	0.008685	-0.008196	0.096919	1.000000	0.000011	0.000052	0.000032	-46.997851	-83.798303	49.889767
04443	9.851421	-0.792338	0.722601	0.008187	-0.008848	0.096919	1.000000	0.000040	0.000018	0.000022	-46.993065	-83.799724	49.886169
04444	9.868396	-0.774901	0.747027	-0.015999	0.008699	0.114217	1.000000	0.000016	0.000018	0.000040	-47.003234	-83.799648	49.896122
04445	9.883250	-0.756346	0.747198	-0.016219	0.028510	0.127530	1.000000	0.000026	0.000023	0.000039	-47.008726	-83.799299	49.901280
04446	9.853267	-0.795607	0.748228	-0.017240	-0.013064	0.100902	1.000000	0.000026	0.000023	0.000031	-47.006990	-83.799473	49.900006
04447	9.863931	-0.774302	0.699805	0.030502	0.011275	0.106252	1.000000	0.000023	0.000016	0.000031	-47.012457	-83.800344	49.904814
04448	9.868046	-0.777552	0.748897	-0.017835	0.006393	0.114216	1.000000	0.000021	0.000033	0.000040	-47.016565	-83.797432	49.906410
04449	9.887184	-0.824709	0.696071	0.038486	-0.036451	0.133078	1.000000	0.000042	0.000001	0.000030	-47.030302	-83.799536	49.921738
04450	9.863706	-0.776092	0.700998	0.029120	0.009626	0.106257	1.000000	0.000025	0.000023	0.000023	-47.024948	-83.800480	49.916103
04451	9.865723	-0.777886	0.725877	0.004641	0.006715	0.110237	1.000000	0.000021	0.000033	0.000032	-47.017873	-83.799996	49.908027
04452	9.865626	-0.778633	0.726389	0.004157	0.006059	0.110237	1.000000	0.000024	0.000015	0.000047	-47.034483	-83.799511	49.926548
04453	9.884719	-0.794276	0.724365	0.008222	-0.007727	0.130306	1.000000	0.000026	0.000023	0.000031	-47.034088	-83.799813	49.925738
04454	9.865443	-0.780028	0.727376	0.003156	0.004773	0.110238	1.000000	0.000029	0.000030	0.000039	-47.034583	-83.798843	49.925178
04455	9.865346	-0.780672	0.727999	0.002658	0.004122	0.110239	1.000000	0.000035	0.000028	0.000031	-47.029082	-83.798811	49.920348
04456	9.846108	-0.798028	0.680275	0.049838	-0.012467	0.088971	1.000000	0.000043	0.000025	0.000038	-47.030764	-83.798328	49.924056
04457	9.880113	-0.762650	0.729008	0.001943	0.023280	0.123569	1.000000	0.000023	0.000040	0.000032	-47.017802	-83.797282	49.910344
04458	9.882113	-0.764597	0.753812	-0.022537	0.020386	0.127538	1.000000	0.000021	0.000008	0.000039	-47.035383	-83.797998	49.927126
04459	9.882070	-0.796804	0.703529	0.029200	-0.009358	0.126338	1.000000	0.000045	0.000033	0.000022	-47.018869	-83.798290	49.912294
04460	9.845716	-0.768891	0.733214	-0.004392	0.014034	0.090176	1.000000	0.000024	0.000015	0.000047	-47.036758	-83.797843	49.930489
04461	9.903140	-0.814453	0.726417	0.008756	-0.026055	0.150366	1.000000	0.000029	0.000030	0.000039	-47.036388	-83.796925	49.930029
04462	9.864680	-0.785352	0.731988	-0.000839	-0.000403	0.110240	1.000000	0.000031	0.000037	0.000039	-47.030506	-83.795404	49.924086
04463	9.845408	-0.771086	0.735054	-0.005881	0.012096	0.090178	1.000000	0.000026	0.000023	0.000031	-47.030120	-83.795706	49.923284
04464	9.862408	-0.785300	0.708962	0.022166	0.000547	0.106280	1.000000	0.000038	0.000035	0.000031	-47.018387	-83.795025	49.912176
04465	9.849422	-0.806425	0.734172	-0.002607	-0.022794	0.096900	1.000000	0.000018	0.000026	0.000032	-47.017211	-83.795100	49.909749
04466	9.864304	-0.787811	0.734411	-0.002820	-0.002988	0.110239	1.000000	0.000026	0.000023	0.000039	-47.023299	-83.794706	49.915319
04467	9.864226	-0.788443	0.734776	-0.003318	-0.003639	0.110239	1.000000	0.000045	0.000008	0.000030	-47.031176	-83.796247	49.925036
04468	9.864141	-0.789083	0.735234	-0.003824	-0.004284	0.110238	1.000000	0.000021	0.000033	0.000040	-47.030535	-83.795106	49.924375
04469	9.844866	-0.774815	0.738381	-0.008856	0.008224	0.090180	1.000000	0.000031	0.000038	0.000031	-47.018374	-83.794286	49.912300
04470	9.880986	-0.772301	0.760701	-0.028517	0.012621	0.127536	1.000000	0.000028	0.000030	0.000031	-47.012282	-83.794008	49.906846
04471	9.863847	-0.790882	0.737236	-0.005319	-0.006233	0.110237	1.000000	0.000033	0.000021	0.000031	-47.012691	-83.794536	49.907675
04472	9.863765	-0.791430	0.737750	-0.005830	-0.006877	0.110236	1.000000	0.000043	0.000025	0.000030	-47.008760	-83.794750	49.906224
04473	9.882843	-0.807003	0.735803	-0.001801	-0.020693	0.130291	1.000000	0.000024	0.000016	0.000039	-47.020179	-83.794952	49.917050
04474	9.844440	-0.777625	0.741092	-0.011340	0.004996	0.090180	1.000000	0.000035	0.000028	0.000015	-47.002659	-83.796158	49.900259
04475	9.878509	-0.773775	0.738963	-0.007019	0.011615	0.123587	1.000000	0.000026	0.000023	0.000039	-47.008191	-83.795800	49.905450
04476	9.863388	-0.761983	0.790482	-0.060029	0.019677	0.111420	1.000000	0.000043	0.000025	0.000030	-47.004199	-83.795996	49.903567
04477	9.844194	-0.779296	0.742612	-0.012840	0.003056	0.090178	1.000000	0.000030	0.000013	0.000031	-47.010503	-83.797084	49.910040
04478	9.876204	-0.774286	0.716044	0.015470	0.011906	0.119647	1.000000	0.000026	0.000023	0.000031	-47.010308	-83.797336	49.909201
04479	9.863196	-0.795375	0.741098	-0.009314	-0.011408	0.110229	1.000000	0.000033	0.000021	0.000031	-47.010724	-83.797863	49.910037
04480	9.861045	-0.794682	0.717410	0.014183	-0.009831	0.106290	1.000000	0.000038	0.000035	0.000031	-46.999179	-83.797252	49.900759
04481	9.895104	-0.791008	0.715286	0.018495	-0.003230	0.139702	1.000000	0.000024	0.000016	0.000039	-47.010605	-83.797454	49.911592
04482	9.841709	-0.781034	0.720825	0.008678	0.002057	0.086240	1.000000	0.000035	0.000028	0.000031	-47.005418	-83.797359	49.906656
04483	9.894938	-0.792224	0.716225	0.017498	-0.004526	0.139703	1.000000	0.000030	0.000013	0.000031	-47.011730	-83.798446	49.913136
04484	9.860707	-0.797131	0.719339	0.012194	-0.012422	0.106290	1.000000	0.000011	0.000028	0.000032	-47.009869	-83.798275	49.909897
04485	9.843516	-0.784091	0.746533	-0.016803	-0.002112	0.090173	1.000000	0.000033	0.000020	0.000039	-47.016205	-83.798142	49.916728
04486	9.894683	-0.794130	0.717644	0.016004	-0.006476	0.139705	1.000000	0.000033	0.000021	0.000031	-47.016768	-83.798616	49.917699
04487	9.856297	-0.764879	0.722810	0.006499	0.019245	0.099612	1.000000	0.000024	0.000016	0.000039	-47.028200	-83.798817	49.928538
04488	9.860357	-0.799831	0.721135	0.010203	-0.015018	0.106288	1.000000	0.000026	0.000023	0.000039	-47.033858	-83.798452	49.935025
04489	9.862317	-0.801808	0.745852	-0.014289	-0.017887	0.110214	1.000000	0.000024	0.000016	0.000039	-47.045291	-83.798653	49.945865
04490	9.877245	-0.782969	0.746140	-0.014494	0.001889	0.123585	1.000000	0.000030	0.000038	0.000007	-47.015821	-83.799820	49.917486
04491	9.875102	-0.782236	0.722581	0.009002	0.003454	0.119662	1.000000	0.000022	0.000032	0.000048	-47.020584	-83.798014	49.921397
04492	9.877053	-0.784209	0.747372	-0.015485	0.000596	0.123584	1.000000	0.000030	0.000013	0.000031	-47.027007	-83.799036	49.927663
04493	9.855780	-0.768585	0.725924	0.003519	0.015356	0.099620	1.000000	0.000028	0.000030	0.000031	-47.020745	-83.798776	49.921237
04494	9.861863	-0.804676	0.748760	-0.016778	-0.021119	0.110203	1.000000	0.000036	0.000028	0.000039	-47.021139	-83.798031	49.922495
04495	9.859731	-0.804094	0.724940	0.006719	-0.019558	0.106283	1.000000	0.000023	0.000016	0.000031	-47.026664	-83.798891	49.927353
04496	9.895849	-0.801526	0.747139	-0.012977	-0.015197	0.143621	1.000000	0.000038	0.000035	0.000023	-47.009254	-83.798896	49.911188
04497	9.859563	-0.805078	0.726140	0.005730	-0.020855	0.106281	1.000000	0.000018	0.000026	0.000032	-47.008083	-83.798969	49.908766
04498	9.855356	-0.771443	0.728637	0.001065	0.012124	0.099625	1.000000	0.000030	0.000013	0.000031	-47.014245	-83.799968	49.914731
04499	9.876436	-0.788424	0.751083	-0.018948	-0.003939	0.123577	1.000000	0.000046	0.000032	0.000055	-47.021440	-83.797620	49.923905
04500	9.842168	-0.793492	0.754331	-0.024220	-0.011792	0.090151	1.000000	0.000026	0.000023	0.000031	-47.020750	-83.797855	49.923317
04501	9.861223	-0.809042	0.752472	-0.020239	-0.025650	0.110186	1.000000	0.000026	0.000023	0.000031	-47.020385	-83.798154	49.922537
04502	9.874124	-0.789236	0.728305	0.003586	-0.003680	0.119665	1.000000	0.000024	0.000016	0.000039	-47.031147	-83.798262	49.933284
04503	9.837841	-0.793025	0.707071	0.022305	-0.009329	0.082330	1.000000	0.000026	0.000023	0.000039	-47.036693	-83.797901	49.938489
04504	9.888964	-0.771311	0.729079	0.002915	0.015434	0.133057	1.000000	0.000030	0.000038	0.000023	-47.018171	-83.797640	49.919986
04505	9.856734	-0.777528	0.756585	-0.026362	0.005387	0.103534	1.000000	0.000024	0.000015	0.000055	-47.041428	-83.796519	49.942796
04506	9.858713	-0.811338	0.730702	0.001297	-0.026675	0.106269	1.000000	0.000035	0.000028	0.000031	-47.036634	-83.796437	49.938116
04507	9.854527	-0.777678	0.733216	-0.003360	0.006300	0.099630	1.000000	0.000030	0.000013	0.000031	-47.042974	-83.797522	49.944625
04508	9.890685	-0.807001	0.704706	0.029081	-0.018580	0.135796	1.000000	0.000028	0.000030	0.000031	-47.036907	-83.797173	49.937670
04509	9.854360	-0.778815	0.734243	-0.004347	0.005014	0.099630	1.000000	0.000033	0.000021	0.000031	-47.037356	-83.797698	49.938538
04510	9.869314	-0.760140	0.734407	-0.004534	0.024775	0.113031	1.000000	0.000033	0.000021	0.000031	-47.038086	-83.798201	49.940101
04511	9.860306	-0.815522	0.757486	-0.025195	-0.032103	0.110156	1.000000	0.000036	0.000027	0.000047	-47.044460	-83.796845	49.947293
04512	9.849996	-0.746504	0.737873	-0.009989	0.036704	0.093003	1.000000	0.000035	0.000028	0.000023	-47.033376	-83.797456	49.937651
04513	9.869048	-0.761973	0.736070	-0.006026	0.022827	0.113035	1.000000	0.000033	0.000021	0.000031	-47.033829	-83.797981	49.938524
04514	9.853926	-0.781854	0.736841	-0.006833	0.001785	0.099630	1.000000	0.000026	0.000023	0.000039	-47.039627	-83.797562	49.943204
04515	9.866864	-0.762071	0.712646	0.016986	0.023723	0.109146	1.000000	0.000030	0.000013	0.000031	-47.045976	-83.798647	49.949721
04516	9.872886	-0.798159	0.735335	-0.003374	-0.012748	0.119657	1.000000	0.000019	0.000025	0.000040	-47.050689	-83.798051	49.954326
04517	9.872793	-0.798828	0.735850	-0.003873	-0.013400	0.119656	1.000000	0.000026	0.000023	0.000031	-47.050334	-83.798350	49.953556
04518	9.851571	-0.783210	0.714373	0.015208	0.001367	0.095741	1.000000	0.000026	0.000023	0.000031	-47.048865	-83.798571	49.953117
04519	9.868548	-0.765753	0.738853	-0.008978	0.018928	0.113041	1.000000	0.000033	0.000021	0.000031	-47.049325	-83.799095	49.953997
04520	9.885569	-0.780214	0.712723	0.018994	0.007224	0.129183	1.000000	0.000019	0.000025	0.000040	-47.053306	-83.798425	49.957470
04521	9.853324	-0.786222	0.740234	-0.010268	-0.002767	0.099627	1.000000	0.000028	0.000031	0.000023	-47.041150	-83.798825	49.945078
04522	9.887421	-0.782473	0.738057	-0.005996	0.003742	0.133067	1.000000	0.000045	0.000008	0.000030	-47.048885	-83.800291	49.954733
04523	9.849156	-0.784867	0.692530	0.036759	0.000300	0.091864	1.000000	0.000021	0.000033	0.000032	-47.041820	-83.799804	49.946670
04524	9.874191	-0.804193	0.763779	-0.031305	-0.020129	0.123526	1.000000	0.000029	0.000030	0.000047	-47.047165	-83.798155	49.952070
04525	9.864006	-0.767118	0.693434	0.036094	0.019393	0.105289	1.000000	0.000033	0.000021	0.000031	-47.047630	-83.798679	49.952955
04526	9.867985	-0.801998	0.691898	0.039708	-0.014889	0.111891	1.000000	0.000026	0.000023	0.000039	-47.053766	-83.798287	49.958553
04527	9.884943	-0.784707	0.716468	0.015522	0.002672	0.129191	1.000000	0.000029	0.000030	0.000039	-47.053428	-83.797365	49.958125
04528	9.850686	-0.789390	0.719758	0.010266	-0.005111	0.095747	1.000000	0.000044	0.000033	0.000014	-47.031711	-83.798310	49.938137
04529	9.869636	-0.773125	0.768871	-0.037925	0.010280	0.116918	1.000000	0.000010	0.000045	0.000048	-47.028943	-83.795489	49.933099
04530	9.871573	-0.807008	0.743259	-0.010305	-0.021840	0.119637	1.000000	0.000026	0.000023	0.000039	-47.034362	-83.795115	49.939613
04531	9.867437	-0.773431	0.745664	-0.014910	0.011151	0.113045	1.000000	0.000030	0.000013	0.000031	-47.040725	-83.796198	49.946143
04532	9.867428	-0.805780	0.695446	0.036710	-0.018796	0.111896	1.000000	0.000033	0.000021	0.000023	-47.035537	-83.797365	49.941903
04533	9.871339	-0.808706	0.744513	-0.011805	-0.023788	0.119631	1.000000	0.000033	0.000020	0.000039	-47.041917	-83.797228	49.948777
04534	9.880268	-0.754732	0.722451	0.007936	0.031757	0.122612	1.000000	0.000028	0.000030	0.000031	-47.035291	-83.796928	49.943027
04535	9.850043	-0.793726	0.723773	0.006795	-0.009661	0.095746	1.000000	0.000031	0.000038	0.000031	-47.023164	-83.796106	49.930990
04536	9.865018	-0.775103	0.724058	0.006646	0.010081	0.109181	1.000000	0.000016	0.000018	0.000032	-47.027242	-83.796597	49.932607
04537	9.864945	-0.775668	0.724443	0.006149	0.009429	0.109182	1.000000	0.000047	0.000016	0.000030	-47.029359	-83.797572	49.936814
04538	9.849794	-0.795435	0.725279	0.005363	-0.011598	0.095745	1.000000	0.000021	0.000033	0.000032	-47.020979	-83.796930	49.926915
04539	9.866757	-0.777976	0.749922	-0.018820	0.005968	0.113043	1.000000	0.000035	0.000028	0.000031	-47.015564	-83.796894	49.922173
04540	9.851600	-0.797749	0.750778	-0.019651	-0.015057	0.099602	1.000000	0.000026	0.000023	0.000031	-47.015702	-83.797208	49.922906
04541	9.864603	-0.778025	0.726570	0.004187	0.006831	0.109186	1.000000	0.000031	0.000013	0.000039	-47.027980	-83.797630	49.935424
04542	9.877617	-0.758308	0.702288	0.028043	0.028717	0.118775	1.000000	0.000023	0.000016	0.000031	-47.032908	-83.798423	49.940401
04543	9.864453	-0.779172	0.727378	0.003209	0.005529	0.109187	1.000000	0.000035	0.000028	0.000023	-47.021586	-83.799047	49.929679
04544	9.866335	-0.780993	0.752325	-0.021302	0.002723	0.113040	1.000000	0.000022	0.000032	0.000048	-47.026491	-83.797230	49.934423
04545	9.851156	-0.800856	0.753292	-0.022126	-0.018301	0.099591	1.000000	0.000028	0.000031	0.000023	-47.014350	-83.797628	49.922047
04546	9.862140	-0.747893	0.755394	-0.026358	0.035082	0.106478	1.000000	0.000045	0.000008	0.000030	-47.022165	-83.799095	49.931401
04547	9.881226	-0.795401	0.703000	0.029639	-0.008194	0.125348	1.000000	0.000021	0.000033	0.000032	-47.015106	-83.798606	49.923345
04548	9.885087	-0.798395	0.752128	-0.018888	-0.013151	0.133043	1.000000	0.000024	0.000016	0.000039	-47.026740	-83.798798	49.934925
04549	9.863914	-0.783003	0.730566	0.000231	0.001633	0.109189	1.000000	0.000036	0.000027	0.000047	-47.033148	-83.797439	49.942151
04550	9.865784	-0.784887	0.755493	-0.024270	-0.001164	0.113033	1.000000	0.000028	0.000030	0.000031	-47.026703	-83.797120	49.935645
04551	9.863725	-0.784297	0.731737	-0.000754	0.000335	0.109189	1.000000	0.000033	0.000021	0.000031	-47.027191	-83.797642	49.936553
04552	9.882728	-0.799981	0.730004	0.003139	-0.013608	0.129194	1.000000	0.000036	0.000028	0.000039	-47.027522	-83.796949	49.938896
04553	9.861506	-0.752582	0.759000	-0.029818	0.030540	0.106483	1.000000	0.000024	0.000016	0.000039	-47.038983	-83.797143	49.949761
04554	9.880576	-0.800138	0.706744	0.026163	-0.012765	0.125353	1.000000	0.000030	0.000038	0.000023	-47.020686	-83.796945	49.931843
04555	9.861394	-0.785430	0.709890	0.021280	-0.000125	0.105351	1.000000	0.000025	0.000048	0.000015	-46.990038	-83.796658	49.900560
04556	9.861232	-0.754070	0.761093	-0.031294	0.028592	0.106485	1.000000	0.000031	0.000013	0.000047	-47.008053	-83.796404	49.920010
04557	9.861214	-0.786739	0.710934	0.020289	-0.001430	0.105353	1.000000	0.000026	0.000023	0.000031	-47.007718	-83.796700	49.919260
04558	9.861123	-0.787389	0.711484	0.019794	-0.002073	0.105353	1.000000	0.000036	0.000028	0.000039	-47.008474	-83.795955	49.920145
04559	9.880116	-0.803082	0.709837	0.023673	-0.016025	0.125354	1.000000	0.000035	0.000028	0.000031	-47.003081	-83.795918	49.915424
04560	9.862900	-0.789751	0.736965	-0.005203	-0.005513	0.109186	1.000000	0.000018	0.000026	0.000032	-47.001450	-83.795915	49.912279
04561	9.845750	-0.808292	0.713706	0.017981	-0.024385	0.091886	1.000000	0.000033	0.000045	0.000023	-46.977548	-83.795192	49.888649
04562	9.860749	-0.789683	0.714109	0.017818	-0.004671	0.105356	1.000000	0.000026	0.000023	0.000039	-46.983379	-83.794799	49.893921
04563	9.862610	-0.791637	0.738818	-0.006698	-0.007459	0.109184	1.000000	0.000031	0.000013	0.000047	-47.001577	-83.794558	49.912429
04564	9.877630	-0.773109	0.738907	-0.006868	0.012251	0.122656	1.000000	0.000025	0.000023	0.000023	-46.995841	-83.795530	49.906759
04565	9.849292	-0.813197	0.764360	-0.032058	-0.031246	0.099531	1.000000	0.000019	0.000025	0.000040	-47.000588	-83.794938	49.910328
04566	9.894574	-0.788362	0.713443	0.020529	-0.000230	0.138830	1.000000	0.000036	0.000028	0.000039	-47.000752	-83.794206	49.911860
04567	9.862235	-0.794339	0.740925	-0.008690	-0.010058	0.109180	1.000000	0.000029	0.000030	0.000039	-47.000443	-83.793280	49.911461
04568	9.881227	-0.810077	0.739132	-0.004840	-0.024025	0.129173	1.000000	0.000013	0.000011	0.000032	-47.011525	-83.794528	49.922326
04569	9.877177	-0.776396	0.741510	-0.009361	0.008990	0.122658	1.000000	0.000052	0.000030	0.000030	-47.001922	-83.794382	49.915320
04570	9.846863	-0.815372	0.742727	-0.010545	-0.032358	0.095695	1.000000	0.000026	0.000023	0.000039	-47.008105	-83.794020	49.921558
04571	9.896063	-0.792763	0.740454	-0.006009	-0.005625	0.142650	1.000000	0.000021	0.000033	0.000032	-47.001062	-83.793530	49.913518
04572	9.874953	-0.777147	0.718961	0.013174	0.009174	0.118843	1.000000	0.000026	0.000023	0.000031	-47.000245	-83.793739	49.912168
04573	9.876821	-0.778852	0.743676	-0.011344	0.006396	0.122658	1.000000	0.000030	0.000013	0.000031	-47.006642	-83.794819	49.918731
04574	9.859688	-0.797467	0.720087	0.011844	-0.012476	0.105358	1.000000	0.000026	0.000023	0.000031	-47.006169	-83.795080	49.918251
04575	9.878602	-0.781134	0.768888	-0.036355	0.002973	0.126468	1.000000	0.000026	0.000023	0.000031	-47.005846	-83.795375	49.917513
04576	9.840444	-0.783547	0.723374	0.006508	-0.000454	0.085369	1.000000	0.000028	0.000030	0.000031	-46.999319	-83.795085	49.911814
04577	9.893620	-0.795109	0.719169	0.015045	-0.007414	0.138837	1.000000	0.000033	0.000021	0.000031	-46.999833	-83.795606	49.912747
04578	9.857338	-0.766655	0.748339	-0.018167	0.016471	0.102668	1.000000	0.000016	0.000018	0.000032	-47.004661	-83.796240	49.917181
04579	9.880269	-0.816583	0.744761	-0.010321	-0.031184	0.129149	1.000000	0.000021	0.000033	0.000032	-46.997616	-83.795749	49.909140
04580	9.855213	-0.766936	0.725105	0.004862	0.017293	0.098865	1.000000	0.000041	0.000018	0.000055	-47.016868	-83.794499	49.930479
04581	9.872246	-0.781700	0.699108	0.032727	0.005426	0.115049	1.000000	0.000028	0.000030	0.000031	-47.010663	-83.794234	49.924113
04582	9.876023	-0.784519	0.748301	-0.015824	0.000548	0.122654	1.000000	0.000026	0.000023	0.000031	-47.010929	-83.794522	49.923983
04583	9.860809	-0.804248	0.749173	-0.016667	-0.020443	0.109154	1.000000	0.000035	0.000028	0.000031	-47.005564	-83.794483	49.919291
04584	9.869991	-0.750284	0.726884	0.003234	0.035036	0.112370	1.000000	0.000030	0.000013	0.000031	-47.011157	-83.795489	49.925753
04585	9.888971	-0.766100	0.725061	0.007071	0.021045	0.132356	1.000000	0.000034	0.000020	0.000047	-47.023488	-83.794686	49.938647
04586	9.873755	-0.785911	0.725859	0.006225	0.000056	0.118854	1.000000	0.000025	0.000023	0.000023	-47.017405	-83.795647	49.932523
04587	9.871747	-0.785143	0.702286	0.029751	0.001514	0.115060	1.000000	0.000025	0.000048	0.000015	-46.986776	-83.795361	49.901263
04588	9.858455	-0.805900	0.727547	0.004859	-0.021577	0.105349	1.000000	0.000038	0.000011	0.000039	-47.001100	-83.796061	49.917094
04589	9.854443	-0.772363	0.729785	0.000383	0.011452	0.098874	1.000000	0.000033	0.000020	0.000039	-47.007534	-83.795919	49.924019
04590	9.871490	-0.787002	0.703825	0.028231	-0.000431	0.115064	1.000000	0.000028	0.000030	0.000031	-47.001769	-83.795633	49.917978
04591	9.854264	-0.773589	0.730902	-0.000614	0.010158	0.098876	1.000000	0.000026	0.000023	0.000031	-47.001457	-83.795927	49.917251
04592	9.873218	-0.789497	0.729256	0.003209	-0.003829	0.118855	1.000000	0.000036	0.000027	0.000055	-47.014262	-83.793841	49.930262
04593	9.877031	-0.824550	0.727919	0.006679	-0.038165	0.125320	1.000000	0.000033	0.000021	0.000031	-47.014796	-83.794361	49.931215
04594	9.869094	-0.756759	0.732320	-0.001744	0.028550	0.112391	1.000000	0.000041	0.000042	0.000047	-47.009080	-83.791845	49.927673
04595	9.872906	-0.791730	0.731062	0.001724	-0.005786	0.118854	1.000000	0.000030	0.000013	0.000031	-47.015501	-83.792924	49.934259
04596	9.891879	-0.807329	0.729432	0.005523	-0.019794	0.138830	1.000000	0.000030	0.000038	0.000023	-46.998140	-83.792813	49.917807
04597	9.853685	-0.777609	0.734441	-0.003598	0.006269	0.098878	1.000000	0.000026	0.000023	0.000031	-46.997833	-83.793107	49.917085
04598	9.838444	-0.797410	0.735334	-0.004438	-0.014696	0.085359	1.000000	0.000029	0.000030	0.000039	-46.997559	-83.792097	49.915950
04599	9.851589	-0.777818	0.711241	0.019446	0.007076	0.095100	1.000000	0.000033	0.000021	0.000031	-46.998098	-83.792617	49.916908
04600	9.872450	-0.794754	0.733928	-0.000773	-0.009024	0.118852	1.000000	0.000029	0.000030	0.000047	-47.004008	-83.790980	49.922236
04601	9.855208	-0.781461	0.760964	-0.029604	0.001595	0.102654	1.000000	0.000033	0.000021	0.000031	-47.004549	-83.791499	49.923197
04602	9.889407	-0.809996	0.708617	0.026552	-0.021594	0.135048	1.000000	0.000030	0.000038	0.000023	-46.987168	-83.791334	49.905837
04603	9.837968	-0.800496	0.738337	-0.006932	-0.017926	0.085352	1.000000	0.000021	0.000033	0.000032	-46.980137	-83.790842	49.897811
04604	9.887236	-0.777988	0.735989	-0.002436	0.008705	0.132376	1.000000	0.000038	0.000011	0.000039	-46.994207	-83.791500	49.913252
04605	9.837799	-0.801788	0.739197	-0.007941	-0.019216	0.085349	1.000000	0.000026	0.000023	0.000031	-46.993906	-83.791793	49.912535
04606	9.904223	-0.793254	0.710317	0.024879	-0.003880	0.148577	1.000000	0.000023	0.000016	0.000031	-47.000199	-83.792683	49.919029
04607	9.875635	-0.801107	0.786256	-0.052363	-0.017742	0.126381	1.000000	0.000028	0.000030	0.000031	-46.994015	-83.792417	49.912685
04608	9.852692	-0.784549	0.740352	-0.009092	-0.000836	0.098877	1.000000	0.000026	0.000023	0.000047	-47.005772	-83.791359	49.924399
04609	9.852599	-0.785278	0.740826	-0.009589	-0.001486	0.098876	1.000000	0.000033	0.000021	0.000031	-47.006324	-83.791878	49.925370
04610	9.871555	-0.800966	0.739200	-0.005814	-0.015506	0.118842	1.000000	0.000035	0.000028	0.000031	-47.001955	-83.791855	49.921728
04611	9.869579	-0.800376	0.715437	0.017719	-0.014074	0.115079	1.000000	0.000025	0.000023	0.000023	-46.995758	-83.792811	49.915045
04612	9.867516	-0.767849	0.741979	-0.010723	0.016894	0.112412	1.000000	0.000031	0.000013	0.000047	-47.013673	-83.792478	49.932978
04613	9.865532	-0.767503	0.718136	0.012813	0.018324	0.108653	1.000000	0.000028	0.000030	0.000031	-47.007493	-83.792212	49.926637
04614	9.850270	-0.787216	0.719130	0.011952	-0.002634	0.095114	1.000000	0.000021	0.000033	0.000032	-47.000835	-83.791711	49.919316
04615	9.886277	-0.784877	0.741535	-0.007939	0.001561	0.132377	1.000000	0.000033	0.000021	0.000031	-47.001393	-83.792230	49.920293
04616	9.884303	-0.784447	0.717676	0.015594	0.002992	0.128621	1.000000	0.000033	0.000020	0.000039	-47.008137	-83.792064	49.927630
04617	9.867070	-0.770954	0.744689	-0.013213	0.013652	0.112414	1.000000	0.000028	0.000031	0.000023	-46.996060	-83.792460	49.915321
04618	9.868971	-0.804638	0.719041	0.014228	-0.018617	0.115077	1.000000	0.000030	0.000013	0.000031	-47.003013	-83.793539	49.922401
04619	9.865016	-0.771116	0.721342	0.009820	0.014430	0.108663	1.000000	0.000022	0.000032	0.000048	-47.007786	-83.791722	49.926320
04620	9.864914	-0.771843	0.721962	0.009312	0.013786	0.108664	1.000000	0.000043	0.000025	0.000031	-47.004033	-83.791917	49.924114
04621	9.870566	-0.807736	0.745009	-0.011316	-0.022639	0.118824	1.000000	0.000026	0.000023	0.000031	-47.003745	-83.792209	49.923410
04622	9.881899	-0.787139	0.696442	0.036619	0.001159	0.124878	1.000000	0.000031	0.000013	0.000039	-47.016251	-83.792607	49.936350
04623	9.870386	-0.809120	0.745890	-0.012316	-0.023937	0.118820	1.000000	0.000029	0.000030	0.000039	-47.015978	-83.791678	49.935987
04624	9.866448	-0.775516	0.748182	-0.016704	0.009122	0.112414	1.000000	0.000023	0.000016	0.000031	-47.021496	-83.792468	49.940985
04625	9.866359	-0.776175	0.748676	-0.017202	0.008471	0.112414	1.000000	0.000029	0.000030	0.000039	-47.021223	-83.791539	49.940622
04626	9.849201	-0.794876	0.725317	0.005984	-0.010416	0.095114	1.000000	0.000035	0.000028	0.000031	-47.015350	-83.791461	49.936029
04627	9.883332	-0.791477	0.723311	0.010110	-0.004172	0.128628	1.000000	0.000030	0.000013	0.000031	-47.021808	-83.792537	49.942651
04628	9.862345	-0.775928	0.701612	0.029378	0.010651	0.104934	1.000000	0.000021	0.000033	0.000040	-47.021488	-83.791413	49.942074
04629	9.864120	-0.777642	0.726572	0.004844	0.007936	0.108674	1.000000	0.000035	0.000028	0.000031	-47.016178	-83.791372	49.937438
04630	9.884921	-0.794504	0.749319	-0.015439	-0.008186	0.132365	1.000000	0.000026	0.000023	0.000039	-47.021820	-83.790993	49.943167
04631	9.863936	-0.778942	0.727670	0.003850	0.006634	0.108675	1.000000	0.000035	0.000028	0.000031	-47.016512	-83.790952	49.938533
04632	9.880986	-0.793775	0.701853	0.031631	-0.005362	0.124894	1.000000	0.000029	0.000030	0.000047	-47.022835	-83.789348	49.944678
04633	9.863739	-0.780380	0.728799	0.002847	0.005341	0.108676	1.000000	0.000047	0.000016	0.000030	-47.025134	-83.790317	49.949065
04634	9.846599	-0.798908	0.705406	0.026003	-0.013541	0.091378	1.000000	0.000030	0.000038	0.000023	-47.008067	-83.790185	49.932134
04635	9.861701	-0.780307	0.705801	0.025876	0.006100	0.104947	1.000000	0.000021	0.000033	0.000032	-47.001047	-83.789693	49.924120
04636	9.884334	-0.798393	0.752917	-0.018458	-0.012069	0.132356	1.000000	0.000027	0.000023	0.000056	-47.018743	-83.787934	49.941174
04637	9.863350	-0.783071	0.731177	0.000844	0.002753	0.108678	1.000000	0.000033	0.000020	0.000039	-47.025221	-83.787788	49.948142
04638	9.859450	-0.749453	0.733416	-0.003523	0.035830	0.102303	1.000000	0.000026	0.000023	0.000031	-47.025637	-83.788026	49.947487
04639	9.865032	-0.785427	0.756468	-0.024196	-0.000584	0.112403	1.000000	0.000026	0.000023	0.000039	-47.031256	-83.787654	49.952761
04640	9.864922	-0.786252	0.757053	-0.024706	-0.001228	0.112401	1.000000	0.000022	0.000032	0.000048	-47.036738	-83.785850	49.957410
04641	9.861112	-0.784889	0.708939	0.022879	0.002218	0.104956	1.000000	0.000047	0.000016	0.000030	-47.039055	-83.786818	49.961815
04642	9.862897	-0.786405	0.733700	-0.001662	-0.000481	0.108678	1.000000	0.000025	0.000023	0.000023	-47.032959	-83.787782	49.955984
04643	9.883676	-0.803127	0.756516	-0.021973	-0.016608	0.132342	1.000000	0.000021	0.000033	0.000032	-47.025943	-83.787289	49.947975
04644	9.845562	-0.773432	0.761275	-0.030932	0.009614	0.092451	1.000000	0.000033	0.000020	0.000039	-47.033000	-83.787119	49.955161
04645	9.862631	-0.788224	0.735335	-0.003161	-0.002424	0.108677	1.000000	0.000026	0.000023	0.000031	-47.032733	-83.787410	49.954478
04646	9.860698	-0.787843	0.711416	0.020382	-0.001024	0.104962	1.000000	0.000031	0.000013	0.000039	-47.045530	-83.787787	49.967345
04647	9.864309	-0.790563	0.760536	-0.028202	-0.005758	0.112391	1.000000	0.000028	0.000030	0.000031	-47.039380	-83.787520	49.961035
04648	9.879531	-0.804251	0.710354	0.022885	-0.016442	0.124906	1.000000	0.000033	0.000021	0.000031	-47.046225	-83.793702	49.964622
04649	9.877495	-0.771586	0.737061	-0.005498	0.014585	0.122264	1.000000	0.000024	0.000040	0.000032	-47.033327	-83.792667	49.950983
04650	9.879335	-0.805497	0.711661	0.021907	-0.017756	0.124906	1.000000	0.000026	0.000023	0.000039	-47.037873	-83.792234	49.955494
04651	9.875473	-0.771862	0.713763	0.017573	0.015309	0.118559	1.000000	0.000045	0.000008	0.000030	-47.046114	-83.793775	49.965565
04652	9.879179	-0.806694	0.712469	0.020905	-0.019063	0.124905	1.000000	0.000028	0.000030	0.000031	-47.040058	-83.793501	49.959660
04653	9.877152	-0.774025	0.739094	-0.007470	0.011971	0.122266	1.000000	0.000026	0.000023	0.000031	-47.039806	-83.793808	49.958990
04654	9.861843	-0.793763	0.739918	-0.008347	-0.008954	0.108671	1.000000	0.000033	0.000020	0.000039	-47.046319	-83.793647	49.966498
04655	9.859916	-0.793392	0.716071	0.015199	-0.007576	0.104968	1.000000	0.000026	0.000023	0.000031	-47.046068	-83.793953	49.965830
04656	9.859822	-0.794051	0.716639	0.014703	-0.008229	0.104968	1.000000	0.000029	0.000030	0.000039	-47.045681	-83.793024	49.965993
04657	9.882403	-0.811919	0.763726	-0.029690	-0.026394	0.132301	1.000000	0.000047	0.000016	0.000030	-47.048045	-83.794007	49.970443
04658	9.861486	-0.796338	0.741912	-0.010345	-0.011560	0.108666	1.000000	0.000026	0.000023	0.000039	-47.053873	-83.793636	49.976421
04659	9.874784	-0.776982	0.717732	0.013585	0.010083	0.118572	1.000000	0.000026	0.000023	0.000039	-47.059518	-83.793278	49.981718
04660	9.861287	-0.797815	0.742973	-0.011331	-0.012861	0.108663	1.000000	0.000029	0.000030	0.000039	-47.058832	-83.792289	49.981005
04661	9.855601	-0.763172	0.720911	0.008406	0.022238	0.098642	1.000000	0.000033	0.000021	0.000031	-47.059459	-83.792821	49.982049
04662	9.859283	-0.798089	0.719564	0.011727	-0.012140	0.104968	1.000000	0.000038	0.000011	0.000039	-47.072411	-83.793413	49.996222
04663	9.874420	-0.779735	0.719740	0.011612	0.007472	0.118576	1.000000	0.000031	0.000037	0.000039	-47.066273	-83.791939	49.990249
04664	9.876143	-0.781483	0.744705	-0.012929	0.004805	0.122267	1.000000	0.000026	0.000023	0.000039	-47.071890	-83.791518	49.995252
04665	9.836257	-0.750694	0.724930	0.002246	0.033103	0.078719	1.000000	0.000047	0.000016	0.000030	-47.074271	-83.792500	49.999719
04666	9.858925	-0.800659	0.721613	0.009728	-0.014742	0.104967	1.000000	0.000025	0.000023	0.000023	-47.068550	-83.793471	49.993853
04667	9.893066	-0.797307	0.719796	0.013798	-0.008602	0.138508	1.000000	0.000021	0.000033	0.000032	-47.061538	-83.792993	49.985846
04668	9.873989	-0.782768	0.722363	0.009116	0.004217	0.118581	1.000000	0.000023	0.000016	0.000040	-47.073173	-83.793165	49.996892
04669	9.841501	-0.788291	0.749515	-0.020001	-0.005241	0.088721	1.000000	0.000026	0.000023	0.000031	-47.072930	-83.793471	49.996232
04670	9.872004	-0.783005	0.698938	0.032183	0.004929	0.114901	1.000000	0.000033	0.000021	0.000031	-47.073162	-83.793912	49.996271
04671	9.854762	-0.769284	0.725861	0.003457	0.015736	0.098657	1.000000	0.000028	0.000030	0.000023	-47.061135	-83.794324	49.984014
04672	9.894468	-0.801199	0.746630	-0.012753	-0.013875	0.142187	1.000000	0.000040	0.000018	0.000031	-47.063217	-83.795085	49.987855
04673	9.860159	-0.805693	0.749415	-0.017817	-0.021308	0.108639	1.000000	0.000023	0.000016	0.000040	-47.074762	-83.795283	49.998795
04674	9.854506	-0.771077	0.727433	0.001953	0.013790	0.098661	1.000000	0.000026	0.000047	0.000032	-47.056180	-83.793664	49.979897
04675	9.873393	-0.786875	0.726036	0.005624	-0.000344	0.118584	1.000000	0.000030	0.000013	0.000031	-47.062711	-83.794752	49.986589
04676	9.871498	-0.786537	0.702113	0.029181	0.001015	0.114911	1.000000	0.000026	0.000023	0.000039	-47.068424	-83.794345	49.991763
04677	9.838985	-0.792036	0.729420	0.000071	-0.008414	0.085036	1.000000	0.000021	0.000033	0.000032	-47.061413	-83.793868	49.983757
04678	9.873121	-0.788777	0.727671	0.004132	-0.002296	0.118585	1.000000	0.000035	0.000028	0.000031	-47.056131	-83.793807	49.979465
04679	9.838793	-0.793258	0.730683	-0.000922	-0.009714	0.085035	1.000000	0.000029	0.000030	0.000039	-47.055895	-83.792889	49.979138
04680	9.891910	-0.805308	0.726741	0.007291	-0.017085	0.138504	1.000000	0.000030	0.000013	0.000031	-47.062749	-83.793946	49.986198
04681	9.853887	-0.775345	0.731277	-0.001528	0.009241	0.098666	1.000000	0.000028	0.000030	0.000023	-47.050729	-83.794358	49.973948
04682	9.838541	-0.794979	0.732205	-0.002425	-0.011658	0.085033	1.000000	0.000026	0.000023	0.000039	-47.056675	-83.794003	49.980193
04683	9.887948	-0.772683	0.729957	0.002020	0.014693	0.132219	1.000000	0.000025	0.000023	0.000023	-47.050547	-83.794972	49.973579
04684	9.838375	-0.796132	0.733177	-0.003413	-0.012955	0.085031	1.000000	0.000033	0.000020	0.000039	-47.056879	-83.794774	49.980055
04685	9.885978	-0.773012	0.706508	0.025086	0.015385	0.128560	1.000000	0.000023	0.000016	0.000040	-47.068429	-83.794971	49.991001
04686	9.858968	-0.813733	0.756362	-0.024324	-0.029752	0.108604	1.000000	0.000035	0.000028	0.000031	-47.063460	-83.794968	49.987640
04687	9.882094	-0.740032	0.709262	0.020328	0.047817	0.122290	1.000000	0.000029	0.000030	0.000039	-47.063227	-83.794050	49.987317
04688	9.858759	-0.815105	0.757608	-0.025334	-0.031058	0.108597	1.000000	0.000036	0.000028	0.000039	-47.064118	-83.793397	49.990116
04689	9.870336	-0.794833	0.709065	0.022675	-0.007483	0.114926	1.000000	0.000023	0.000016	0.000040	-47.075669	-83.793594	50.001062
04690	9.856775	-0.815437	0.734326	-0.002284	-0.030367	0.104936	1.000000	0.000030	0.000038	0.000023	-47.058064	-83.793449	49.983729
04691	9.870054	-0.763637	0.760544	-0.030187	0.020977	0.115967	1.000000	0.000040	0.000018	0.000039	-47.065498	-83.793538	49.992483
04692	9.885341	-0.777576	0.710408	0.021578	0.010802	0.128574	1.000000	0.000028	0.000030	0.000031	-47.059212	-83.793217	49.986080
04693	9.852812	-0.782919	0.737657	-0.007516	0.001429	0.098667	1.000000	0.000033	0.000021	0.000031	-47.059870	-83.793746	49.987155
04694	9.886963	-0.779767	0.735744	-0.003478	0.007510	0.132227	1.000000	0.000033	0.000020	0.000039	-47.066572	-83.793576	49.994322
04695	9.854522	-0.817621	0.712713	0.019280	-0.031633	0.101277	1.000000	0.000021	0.000033	0.000040	-47.065455	-83.792432	49.992281
04696	9.867806	-0.765926	0.738901	-0.008611	0.019724	0.112319	1.000000	0.000026	0.000023	0.000031	-47.065564	-83.792699	49.991647
04697	9.884898	-0.780785	0.713049	0.019079	0.007538	0.128583	1.000000	0.000033	0.000021	0.000031	-47.066227	-83.793228	49.992727
04698	9.867652	-0.766994	0.739854	-0.009606	0.018417	0.112320	1.000000	0.000025	0.000023	0.000023	-47.059976	-83.794192	49.986691
04699	9.854170	-0.819862	0.714997	0.017277	-0.034240	0.101272	1.000000	0.000026	0.000047	0.000032	-47.041192	-83.792599	49.967427
04700	9.884629	-0.782436	0.714962	0.017588	0.005563	0.128587	1.000000	0.000040	0.000018	0.000039	-47.048083	-83.792696	49.977372
04701	9.852076	-0.787899	0.742178	-0.011498	-0.003782	0.098663	1.000000	0.000029	0.000030	0.000039	-47.047861	-83.791777	49.977059
04702	9.855541	-0.790469	0.791386	-0.060115	-0.008387	0.105939	1.000000	0.000033	0.000021	0.000031	-47.048470	-83.792286	49.978392
04703	9.865403	-0.769127	0.718578	0.011971	0.017122	0.108686	1.000000	0.000028	0.000030	0.000031	-47.042358	-83.792032	49.972120
04704	9.868972	-0.804070	0.717582	0.015176	-0.017284	0.114928	1.000000	0.000036	0.000028	0.000039	-47.043516	-83.791364	49.974489
04705	9.851717	-0.790174	0.744523	-0.013502	-0.006385	0.098659	1.000000	0.000027	0.000031	0.000007	-47.019731	-83.793106	49.950338
04706	9.868690	-0.772677	0.769054	-0.037656	0.011221	0.115957	1.000000	0.000027	0.000023	0.000056	-47.037246	-83.791387	49.967742
04707	9.868698	-0.805873	0.719328	0.013676	-0.019243	0.114926	1.000000	0.000035	0.000028	0.000031	-47.032030	-83.791357	49.963201
04708	9.849674	-0.791102	0.721785	0.009062	-0.006357	0.095025	1.000000	0.000023	0.000016	0.000023	-47.032211	-83.792852	49.962124
04709	9.866654	-0.773607	0.746243	-0.015093	0.011245	0.112324	1.000000	0.000029	0.000030	0.000039	-47.031995	-83.791933	49.961817
04710	9.864787	-0.773388	0.722458	0.008473	0.012567	0.108697	1.000000	0.000033	0.000020	0.000039	-47.038669	-83.791753	49.968706
04711	9.885422	-0.790255	0.745201	-0.011983	-0.003590	0.132223	1.000000	0.000030	0.000013	0.000031	-47.045232	-83.792838	49.975429
04712	9.864633	-0.774613	0.723245	0.007491	0.011261	0.108699	1.000000	0.000026	0.000023	0.000031	-47.044469	-83.793080	49.974124
04713	9.849244	-0.794205	0.724238	0.006583	-0.009613	0.095024	1.000000	0.000038	0.000035	0.000031	-47.033368	-83.792493	49.963956
04714	9.866210	-0.776776	0.748820	-0.017571	0.007989	0.112323	1.000000	0.000026	0.000023	0.000040	-47.038986	-83.792138	49.970074
04715	9.881553	-0.790753	0.698542	0.034156	-0.002282	0.124977	1.000000	0.000020	0.000009	0.000023	-47.044655	-83.794220	49.974743
04716	9.830061	-0.780659	0.727579	0.000989	0.001971	0.075128	1.000000	0.000035	0.000028	0.000031	-47.039393	-83.794199	49.971000
04717	9.883160	-0.792768	0.723832	0.009091	-0.005556	0.128598	1.000000	0.000026	0.000023	0.000031	-47.039177	-83.794502	49.970366
04718	9.865894	-0.779000	0.750675	-0.019570	0.005385	0.112321	1.000000	0.000035	0.000028	0.000031	-47.034318	-83.794444	49.966098
04719	9.864044	-0.778704	0.726872	0.003996	0.006690	0.108705	1.000000	0.000033	0.000020	0.000039	-47.040892	-83.794306	49.973157
04720	9.862194	-0.778502	0.703013	0.027551	0.007993	0.105092	1.000000	0.000026	0.000023	0.000040	-47.047011	-83.793988	49.979725
04721	9.882804	-0.795212	0.726016	0.007074	-0.008170	0.128598	1.000000	0.000037	0.000035	0.000015	-47.024131	-83.794733	49.957642
04722	9.863782	-0.780417	0.728594	0.002481	0.004737	0.108707	1.000000	0.000026	0.000023	0.000040	-47.030320	-83.794359	49.963347
04723	9.882634	-0.796287	0.727140	0.006066	-0.009472	0.128597	1.000000	0.000025	0.000023	0.000023	-47.024214	-83.795327	49.956755
04724	9.861873	-0.780638	0.705141	0.025547	0.005390	0.105099	1.000000	0.000038	0.000011	0.000039	-47.037937	-83.795945	49.971446
04725	9.861796	-0.781279	0.705505	0.025048	0.004735	0.105100	1.000000	0.000033	0.000021	0.000031	-47.038625	-83.796472	49.972551
04726	9.865218	-0.783628	0.754723	-0.023586	0.000189	0.112314	1.000000	0.000028	0.000030	0.000023	-47.026953	-83.796850	49.960309
04727	9.882307	-0.798570	0.729089	0.004059	-0.012076	0.128596	1.000000	0.000029	0.000030	0.000039	-47.026745	-83.795929	49.960010
04728	9.863281	-0.783856	0.731674	-0.000528	0.000841	0.108708	1.000000	0.000028	0.000030	0.000023	-47.015496	-83.796338	49.948356
04729	9.897446	-0.780726	0.729854	0.003462	0.006829	0.142291	1.000000	0.000023	0.000016	0.000040	-47.027072	-83.796531	49.959324
04730	9.863088	-0.785246	0.732790	-0.001516	-0.000461	0.108708	1.000000	0.000041	0.000042	0.000047	-47.021609	-83.793993	49.954986
04731	9.862995	-0.785897	0.733338	-0.002016	-0.001114	0.108708	1.000000	0.000020	0.000009	0.000023	-47.027285	-83.796075	49.959660
04732	9.880099	-0.800851	0.707548	0.025628	-0.013397	0.124994	1.000000	0.000038	0.000035	0.000039	-47.021724	-83.794812	49.955867
04733	9.861077	-0.786194	0.710083	0.021061	-0.000482	0.105111	1.000000	0.000033	0.000021	0.000031	-47.022419	-83.795339	49.956979
04734	9.862725	-0.787763	0.734967	-0.003505	-0.003078	0.108707	1.000000	0.000029	0.000030	0.000039	-47.022050	-83.794413	49.957327
04735	9.879820	-0.802721	0.709328	0.024128	-0.015365	0.124995	1.000000	0.000035	0.000028	0.000023	-47.010965	-83.795048	49.946849
04736	9.858956	-0.754419	0.737794	-0.008149	0.029403	0.102532	1.000000	0.000045	0.000033	0.000023	-46.995472	-83.795306	49.932396
04737	9.860733	-0.788374	0.712446	0.019064	-0.003087	0.105114	1.000000	0.000023	0.000016	0.000040	-47.007048	-83.795498	49.943364
04738	9.862389	-0.789871	0.737204	-0.005512	-0.005676	0.108705	1.000000	0.000025	0.000023	0.000023	-47.001239	-83.796477	49.937673
04739	9.865882	-0.824844	0.736254	-0.002377	-0.040105	0.114873	1.000000	0.000022	0.000033	0.000048	-47.006032	-83.794664	49.941609
04740	9.860334	-0.757881	0.764231	-0.034211	0.024866	0.106125	1.000000	0.000033	0.000021	0.000031	-47.006704	-83.795155	49.942722
04741	9.879288	-0.806325	0.712638	0.021116	-0.019281	0.124995	1.000000	0.000036	0.000028	0.000039	-47.007412	-83.794458	49.944174
04742	9.860277	-0.791666	0.715102	0.016552	-0.006347	0.105117	1.000000	0.000026	0.000023	0.000031	-47.007882	-83.794786	49.944395
04743	9.860203	-0.792080	0.715655	0.016053	-0.007001	0.105118	1.000000	0.000035	0.000028	0.000015	-46.990907	-83.796086	49.927959
04744	9.875461	-0.773582	0.715823	0.015978	0.012537	0.118835	1.000000	0.000026	0.000023	0.000040	-46.996579	-83.795713	49.933889
04745	9.863482	-0.795048	0.765394	-0.033091	-0.012165	0.112280	1.000000	0.000019	0.000026	0.000032	-46.995470	-83.795788	49.931528
04746	9.842750	-0.779498	0.743479	-0.013555	0.002703	0.088823	1.000000	0.000026	0.000023	0.000040	-47.001007	-83.795395	49.936939
04747	9.842660	-0.780058	0.744081	-0.014054	0.002052	0.088823	1.000000	0.000045	0.000033	0.000023	-46.984952	-83.795697	49.922584
04748	9.861479	-0.796008	0.742760	-0.010499	-0.012190	0.108695	1.000000	0.000033	0.000020	0.000047	-46.997007	-83.794830	49.935389
04749	9.876716	-0.777833	0.742922	-0.010574	0.007344	0.122418	1.000000	0.000029	0.000030	0.000039	-46.996816	-83.793907	49.935106
04750	9.878468	-0.811907	0.717640	0.016613	-0.025167	0.124990	1.000000	0.000026	0.000023	0.000031	-46.996659	-83.794184	49.934709
04751	9.859352	-0.764565	0.770223	-0.039680	0.017717	0.106120	1.000000	0.000025	0.000023	0.000023	-46.990565	-83.795150	49.928130
04752	9.891943	-0.793023	0.693951	0.040117	-0.004367	0.135145	1.000000	0.000043	0.000025	0.000031	-46.986300	-83.795289	49.925024
04753	9.855753	-0.763925	0.722572	0.007480	0.020260	0.098978	1.000000	0.000009	0.000021	0.000040	-46.996062	-83.795030	49.932510
04754	9.842023	-0.784483	0.747848	-0.017524	-0.002492	0.088817	1.000000	0.000021	0.000033	0.000032	-46.989207	-83.794558	49.925232
04755	9.874487	-0.780435	0.721784	0.010508	0.005350	0.118849	1.000000	0.000040	0.000018	0.000023	-46.984936	-83.795974	49.922144
04756	9.876131	-0.781896	0.746433	-0.014064	0.002779	0.122416	1.000000	0.000021	0.000009	0.000040	-47.002234	-83.796714	49.939029
04757	9.858976	-0.800732	0.722904	0.009084	-0.016140	0.105116	1.000000	0.000029	0.000030	0.000039	-47.002046	-83.795790	49.938750
04758	9.874245	-0.782402	0.722973	0.009005	0.003383	0.118851	1.000000	0.000038	0.000011	0.000031	-47.009815	-83.797141	49.948361
04759	9.860510	-0.802916	0.748176	-0.016002	-0.019362	0.108676	1.000000	0.000021	0.000033	0.000040	-47.008712	-83.795992	49.946334
04760	9.872353	-0.782852	0.699718	0.032084	0.003993	0.115292	1.000000	0.000019	0.000026	0.000032	-47.007846	-83.796021	49.943731
04761	9.889335	-0.765272	0.724259	0.007938	0.021604	0.132593	1.000000	0.000028	0.000030	0.000023	-46.995870	-83.796430	49.931530
04762	9.839615	-0.788618	0.727482	0.002555	-0.005784	0.085249	1.000000	0.000027	0.000023	0.000056	-47.013718	-83.794748	49.949661
04763	9.842937	-0.791197	0.776413	-0.046100	-0.010251	0.092362	1.000000	0.000025	-0.000001	0.000031	-47.032113	-83.796943	49.967695
04764	9.872014	-0.785427	0.701609	0.030106	0.001374	0.115299	1.000000	0.000033	0.000045	0.000023	-47.007312	-83.796132	49.943232
04765	9.856559	-0.804894	0.702716	0.029174	-0.019453	0.101555	1.000000	0.000026	0.000023	0.000031	-47.007121	-83.796431	49.942624
04766	9.856344	-0.772917	0.753373	-0.023058	0.009881	0.102547	1.000000	0.000026	0.000023	0.000031	-47.007026	-83.796712	49.942182
04767	9.854568	-0.772626	0.729456	0.000523	0.011132	0.098995	1.000000	0.000023	0.000016	0.000032	-47.012726	-83.797568	49.947206
04768	9.858016	-0.807507	0.728435	0.003587	-0.023308	0.105105	1.000000	0.000043	0.000025	0.000031	-47.009038	-83.797756	49.944880
04769	9.871597	-0.788258	0.704294	0.027601	-0.001892	0.115306	1.000000	0.000004	0.000031	0.000032	-47.006095	-83.797380	49.939020
04770	9.873205	-0.789712	0.729204	0.003020	-0.004446	0.118855	1.000000	0.000050	0.000023	0.000030	-47.002829	-83.797797	49.938512
04771	9.869595	-0.755959	0.731279	-0.001042	0.028695	0.112751	1.000000	0.000021	0.000033	0.000032	-46.995834	-83.797314	49.930525
04772	9.859330	-0.810854	0.755127	-0.022491	-0.027808	0.108644	1.000000	0.000026	0.000023	0.000048	-47.007485	-83.796218	49.941557
04773	9.867711	-0.756502	0.708091	0.022049	0.029293	0.109211	1.000000	0.000028	0.000030	0.000023	-46.995516	-83.796626	49.929364
04774	9.871139	-0.791401	0.707194	0.025101	-0.005162	0.115311	1.000000	0.000026	0.000023	0.000040	-47.001361	-83.796293	49.935648
04775	9.853842	-0.777559	0.734012	-0.003471	0.005924	0.098999	1.000000	0.000038	0.000035	0.000031	-46.990323	-83.795702	49.925544
04776	9.870809	-0.760031	0.758654	-0.027616	0.023542	0.116299	1.000000	0.000028	0.000030	0.000031	-46.984346	-83.795450	49.919728
04777	9.858846	-0.813894	0.758177	-0.025004	-0.031071	0.108628	1.000000	0.000019	0.000026	0.000032	-46.983242	-83.795523	49.917373
04778	9.887829	-0.775791	0.733566	-0.000546	0.010481	0.132615	1.000000	0.000026	0.000023	0.000040	-46.988785	-83.795192	49.923503
04779	9.867169	-0.760386	0.711474	0.019053	0.025356	0.109228	1.000000	0.000031	0.000013	0.000047	-47.007198	-83.794939	49.942207
04780	9.887661	-0.777263	0.734277	-0.001547	0.009171	0.132616	1.000000	0.000030	0.000014	0.000023	-47.007971	-83.796689	49.943484
04781	9.851649	-0.780493	0.712508	0.017616	0.003890	0.095466	1.000000	0.000023	0.000016	0.000032	-47.013680	-83.797545	49.948516
04782	9.872135	-0.797295	0.735409	-0.002986	-0.012298	0.118848	1.000000	0.000033	0.000021	0.000031	-47.014292	-83.798076	49.950252
04783	9.887436	-0.778992	0.735471	-0.003046	0.007204	0.132617	1.000000	0.000033	0.000020	0.000039	-47.020931	-83.797932	49.957374
04784	9.834205	-0.767766	0.740078	-0.011948	0.013699	0.079150	1.000000	0.000035	0.000028	0.000023	-47.010506	-83.798573	49.947510
04785	9.885594	-0.779208	0.712232	0.020029	0.007783	0.129090	1.000000	0.000019	0.000026	0.000032	-47.009402	-83.798646	49.945156
04786	9.870089	-0.798984	0.713288	0.019088	-0.013023	0.115318	1.000000	0.000032	0.000037	0.000056	-47.015132	-83.795810	49.951339
04787	9.885393	-0.780601	0.713495	0.019031	0.006474	0.129093	1.000000	0.000039	0.000018	0.000007	-46.999124	-83.798559	49.936382
04788	9.868125	-0.766557	0.740036	-0.009544	0.017596	0.112772	1.000000	0.000031	0.000013	0.000047	-47.018477	-83.798372	49.956613
04789	9.868032	-0.767374	0.740435	-0.010042	0.016943	0.112773	1.000000	0.000026	0.000023	0.000040	-47.024195	-83.798003	49.961981
04790	9.849208	-0.785282	0.692625	0.037190	-0.000100	0.091953	1.000000	0.000033	0.000021	0.000031	-47.024990	-83.798490	49.963007
04791	9.886733	-0.784056	0.739538	-0.007073	0.001983	0.132617	1.000000	0.000033	0.000020	0.000039	-47.031637	-83.798346	49.970137
04792	9.852369	-0.788268	0.742313	-0.011984	-0.005159	0.098992	1.000000	0.000028	0.000030	0.000031	-47.025692	-83.798106	49.964555
04793	9.866004	-0.769219	0.718117	0.012050	0.016208	0.109258	1.000000	0.000033	0.000020	0.000047	-47.038232	-83.797294	49.977645
04794	9.871051	-0.805111	0.741420	-0.009021	-0.020125	0.118832	1.000000	0.000030	0.000013	0.000031	-47.044828	-83.798347	49.984330
04795	9.850438	-0.789528	0.719263	0.010610	-0.005241	0.095475	1.000000	0.000040	0.000018	0.000039	-47.052409	-83.798426	49.993227
04796	9.886287	-0.787471	0.741860	-0.009574	-0.001281	0.132615	1.000000	0.000019	0.000026	0.000032	-47.051489	-83.798458	49.990683
04797	9.869128	-0.806235	0.718416	0.013566	-0.020209	0.115315	1.000000	0.000033	0.000020	0.000039	-47.058140	-83.798312	49.997817
04798	9.870698	-0.807714	0.743290	-0.011016	-0.022735	0.118824	1.000000	0.000035	0.000028	0.000031	-47.052590	-83.798272	49.993453
04799	9.850085	-0.792063	0.721311	0.008622	-0.007851	0.095476	1.000000	0.000026	0.000023	0.000031	-47.052421	-83.798570	49.992867
04800	9.868857	-0.808026	0.720123	0.012070	-0.022175	0.115312	1.000000	0.000038	0.000035	0.000031	-47.041494	-83.797967	49.982834
04801	9.849891	-0.793280	0.722628	0.007624	-0.009154	0.095475	1.000000	0.000029	0.000030	0.000040	-47.041322	-83.797040	49.982572
04802	9.867008	-0.808429	0.697047	0.035159	-0.021613	0.111806	1.000000	0.000025	0.000023	0.000023	-47.035473	-83.797962	49.975874
04803	9.849723	-0.794428	0.723654	0.006628	-0.010452	0.095475	1.000000	0.000040	0.000018	0.000039	-47.043064	-83.798040	49.984780
04804	9.866701	-0.776970	0.748122	-0.017499	0.007173	0.112775	1.000000	0.000028	0.000030	0.000031	-47.036597	-83.797731	49.978220
04805	9.882173	-0.791223	0.698203	0.034120	-0.003444	0.125606	1.000000	0.000025	0.000023	0.000023	-47.030539	-83.798696	49.971679
04806	9.849472	-0.796078	0.725251	0.005143	-0.012400	0.095473	1.000000	0.000026	0.000023	0.000032	-47.030590	-83.798948	49.970943
04807	9.864807	-0.777736	0.725341	0.005096	0.007080	0.109275	1.000000	0.000026	0.000023	0.000032	-47.030423	-83.799245	49.970359
04808	9.899002	-0.774875	0.723540	0.008992	0.012884	0.142911	1.000000	0.000031	0.000013	0.000039	-47.043067	-83.799568	49.982195
04809	9.864645	-0.778971	0.726220	0.004107	0.005785	0.109276	1.000000	0.000028	0.000030	0.000023	-47.031115	-83.799977	49.970021
04810	9.864562	-0.779536	0.726749	0.003617	0.005140	0.109277	1.000000	0.000040	0.000018	0.000039	-47.038653	-83.799981	49.978434
04811	9.864483	-0.780104	0.727206	0.003118	0.004486	0.109277	1.000000	0.000025	0.000023	0.000023	-47.032596	-83.800946	49.971893
04812	9.881471	-0.762575	0.751619	-0.021026	0.022108	0.126578	1.000000	0.000033	0.000020	0.000039	-47.039515	-83.800847	49.979862
04813	9.898595	-0.777820	0.725942	0.006490	0.009609	0.142916	1.000000	0.000033	0.000021	0.000031	-47.040289	-83.801368	49.981053
04814	9.862588	-0.781172	0.704269	0.025713	0.004373	0.105790	1.000000	0.000026	0.000023	0.000040	-47.045786	-83.800951	49.986268
04815	9.846929	-0.768034	0.755291	-0.026891	0.013722	0.092940	1.000000	0.000035	0.000028	0.000031	-47.040667	-83.800916	49.981826
04816	9.879478	-0.764367	0.729281	0.001077	0.021345	0.123093	1.000000	0.000033	0.000020	0.000039	-47.047515	-83.800769	49.989331
04817	9.843477	-0.767706	0.707581	0.020298	0.016110	0.085969	1.000000	0.000033	0.000021	0.000031	-47.048294	-83.801290	49.990526
04818	9.845029	-0.769167	0.732401	-0.004310	0.013614	0.089455	1.000000	0.000026	0.000023	0.000040	-47.054720	-83.800979	49.997000
04819	9.880978	-0.799863	0.705235	0.027111	-0.012601	0.125620	1.000000	0.000026	0.000047	0.000032	-47.035932	-83.799382	49.977744
04820	9.843182	-0.769689	0.709518	0.018778	0.014152	0.085975	1.000000	0.000026	0.000023	0.000040	-47.042175	-83.799053	49.984083
04821	9.880767	-0.801263	0.706593	0.026098	-0.013913	0.125621	1.000000	0.000038	0.000035	0.000039	-47.037061	-83.797793	49.979974
04822	9.844610	-0.771950	0.735101	-0.006305	0.011021	0.089457	1.000000	0.000026	0.000023	0.000040	-47.042965	-83.797335	49.984702
04823	9.880581	-0.802657	0.707620	0.025103	-0.015212	0.125622	1.000000	0.000030	0.000013	0.000031	-47.049645	-83.798411	49.991537
04824	9.864910	-0.789568	0.758483	-0.027503	-0.005826	0.112753	1.000000	0.000026	0.000023	0.000048	-47.061781	-83.797391	50.003607
04825	9.861558	-0.788708	0.710264	0.020189	-0.002809	0.105803	1.000000	0.000033	0.000021	0.000031	-47.062571	-83.797911	50.004813
04826	9.861474	-0.789200	0.710888	0.019670	-0.003460	0.105804	1.000000	0.000031	0.000038	0.000023	-47.045651	-83.797825	49.987967
04827	9.881843	-0.805931	0.734210	-0.001028	-0.019662	0.129094	1.000000	0.000021	0.000033	0.000032	-47.038662	-83.797340	49.979988
04828	9.876734	-0.771384	0.711852	0.019149	0.015348	0.119636	1.000000	0.000035	0.000028	0.000031	-47.033099	-83.797236	49.975038
04829	9.862826	-0.791644	0.737144	-0.005911	-0.007250	0.109275	1.000000	0.000033	0.000021	0.000031	-47.033891	-83.797756	49.976246
04830	9.881584	-0.807657	0.735793	-0.002519	-0.021623	0.129090	1.000000	0.000023	0.000016	0.000032	-47.039657	-83.798614	49.981756
04831	9.862660	-0.792960	0.737950	-0.006911	-0.008557	0.109273	1.000000	0.000033	0.000020	0.000047	-47.052227	-83.797796	49.994874
04832	9.862555	-0.793690	0.738571	-0.007412	-0.009205	0.109272	1.000000	0.000031	0.000037	0.000031	-47.040476	-83.796961	49.983182
04833	9.881290	-0.809790	0.737390	-0.004025	-0.023582	0.129085	1.000000	0.000023	0.000016	0.000040	-47.052106	-83.797143	49.994199
04834	9.860754	-0.794221	0.715268	0.015680	-0.008681	0.105808	1.000000	0.000035	0.000028	0.000031	-47.047533	-83.797103	49.990288
04835	9.841841	-0.779291	0.717604	0.011297	0.004393	0.085996	1.000000	0.000011	0.000028	0.000024	-47.039604	-83.797618	49.980210
04836	9.860595	-0.795155	0.716430	0.014672	-0.009998	0.105808	1.000000	0.000042	0.000025	0.000023	-47.029625	-83.798551	49.972876
04837	9.863743	-0.797196	0.765638	-0.034027	-0.014293	0.112724	1.000000	0.000033	0.000021	0.000031	-47.030425	-83.799070	49.974092
04838	9.877503	-0.778171	0.741329	-0.009972	0.006983	0.123109	1.000000	0.000033	0.000020	0.000039	-47.037774	-83.798948	49.981877
04839	9.846490	-0.816605	0.742714	-0.011408	-0.033877	0.095418	1.000000	0.000028	0.000030	0.000031	-47.031735	-83.798687	49.975682
04840	9.861879	-0.798112	0.742809	-0.011455	-0.014420	0.109262	1.000000	0.000047	0.000016	0.000014	-47.023501	-83.801019	49.969357
04841	9.877275	-0.779706	0.742755	-0.011486	0.005028	0.123108	1.000000	0.000023	0.000016	0.000040	-47.035140	-83.801201	49.980384
04842	9.875577	-0.779604	0.718922	0.012124	0.006196	0.119657	1.000000	0.000021	0.000033	0.000032	-47.028038	-83.800653	49.971798
04843	9.877115	-0.780713	0.743824	-0.012477	0.003727	0.123108	1.000000	0.000039	0.000018	0.000007	-47.012115	-83.803403	49.956928
04844	9.877050	-0.781114	0.744264	-0.012991	0.003083	0.123107	1.000000	0.000033	0.000020	0.000039	-47.019720	-83.803266	49.964928
04845	9.841073	-0.784424	0.722520	0.006274	-0.002115	0.086001	1.000000	0.000033	0.000021	0.000031	-47.020527	-83.803785	49.966152
04846	9.875276	-0.781568	0.720921	0.010105	0.003596	0.119660	1.000000	0.000028	0.000030	0.000031	-47.015100	-83.803500	49.960056
04847	9.842500	-0.786345	0.747986	-0.018830	-0.005217	0.089446	1.000000	0.000026	0.000023	0.000032	-47.014956	-83.803794	49.959495
04848	9.859635	-0.801619	0.722410	0.009274	-0.016886	0.105805	1.000000	0.000026	0.000023	0.000032	-47.020312	-83.797603	49.958397
04849	9.857799	-0.768598	0.748641	-0.018709	0.014502	0.103302	1.000000	0.000052	0.000030	0.000031	-47.011262	-83.797445	49.951934
04850	9.856120	-0.768310	0.724873	0.004886	0.015656	0.099859	1.000000	0.000025	0.000023	0.000023	-47.005794	-83.798426	49.946266
04851	9.873259	-0.783521	0.699396	0.032346	0.003055	0.116222	1.000000	0.000021	0.000033	0.000032	-46.998827	-83.797925	49.938292
04852	9.890229	-0.766146	0.723890	0.008212	0.020694	0.133524	1.000000	0.000033	0.000020	0.000047	-47.011859	-83.797128	49.952072
04853	9.855839	-0.770377	0.726501	0.003386	0.013703	0.099863	1.000000	0.000026	0.000023	0.000040	-47.017624	-83.796739	49.957468
04854	9.855898	-0.803865	0.677081	0.054464	-0.017200	0.098927	1.000000	0.000028	0.000030	0.000031	-47.011662	-83.796481	49.951694
04855	9.889946	-0.768284	0.725481	0.006715	0.018732	0.133529	1.000000	0.000033	0.000020	0.000039	-47.018383	-83.796316	49.958877
04856	9.874373	-0.787896	0.726382	0.005714	-0.002011	0.119664	1.000000	0.000026	0.000023	0.000040	-47.025044	-83.796023	49.965847
04857	9.877460	-0.789985	0.775653	-0.042995	-0.006251	0.126530	1.000000	0.000028	0.000030	0.000023	-47.013149	-83.796416	49.953713
04858	9.858730	-0.807832	0.727817	0.004239	-0.023404	0.105796	1.000000	0.000045	0.000008	0.000031	-47.021641	-83.797921	49.964470
04859	9.874123	-0.789764	0.727752	0.004220	-0.003970	0.119665	1.000000	0.000026	0.000023	0.000056	-47.039181	-83.796192	49.981769
04860	9.856795	-0.775853	0.754350	-0.024236	0.007348	0.103298	1.000000	0.000035	0.000028	0.000031	-47.034578	-83.796206	49.978528
04861	9.856855	-0.809346	0.704907	0.026833	-0.023572	0.102364	1.000000	0.000033	0.000020	0.000039	-47.041304	-83.796040	49.985717
04862	9.875423	-0.792620	0.753638	-0.021412	-0.007714	0.123090	1.000000	0.000033	0.000021	0.000031	-47.042948	-83.796583	49.987867
04863	9.854950	-0.776971	0.731531	-0.001637	0.007191	0.099870	1.000000	0.000028	0.000030	0.000031	-47.036942	-83.796307	49.981688
04864	9.854855	-0.777632	0.732098	-0.002128	0.006535	0.099871	1.000000	0.000026	0.000023	0.000040	-47.042273	-83.795919	49.987309
04865	9.873569	-0.793695	0.730976	0.001204	-0.007888	0.119663	1.000000	0.000028	0.000030	0.000023	-47.030385	-83.796312	49.975183
04866	9.873498	-0.794177	0.731415	0.000708	-0.008546	0.119663	1.000000	0.000045	0.000008	0.000031	-47.038697	-83.797833	49.986065
04867	9.871832	-0.794002	0.707667	0.024317	-0.007415	0.116242	1.000000	0.000026	0.000047	0.000032	-47.019949	-83.796222	49.966835
04868	9.871739	-0.794584	0.708311	0.023823	-0.008056	0.116243	1.000000	0.000030	0.000013	0.000031	-47.026901	-83.797205	49.973147
04869	9.871498	-0.762368	0.758743	-0.028229	0.021584	0.117172	1.000000	0.000029	0.000030	0.000040	-47.026783	-83.796259	49.972921
04870	9.837269	-0.799189	0.711450	0.018521	-0.015655	0.082571	1.000000	0.000033	0.000021	0.000023	-47.021828	-83.797407	49.968137
04871	9.871486	-0.796315	0.709889	0.022328	-0.010012	0.116245	1.000000	0.000028	0.000030	0.000031	-47.015825	-83.797130	49.961962
04872	9.888463	-0.778854	0.734379	-0.001799	0.007633	0.133546	1.000000	0.000026	0.000023	0.000040	-47.021854	-83.796757	49.967955
04873	9.854076	-0.782802	0.737057	-0.006599	0.000691	0.099871	1.000000	0.000028	0.000030	0.000023	-47.009967	-83.797150	49.955831
04874	9.874367	-0.799504	0.760174	-0.027405	-0.015521	0.123066	1.000000	0.000045	0.000008	0.000031	-47.019012	-83.798710	49.967247
04875	9.853927	-0.783924	0.737857	-0.007606	-0.000612	0.099870	1.000000	0.000026	0.000023	0.000040	-47.024789	-83.798319	49.972654
04876	9.870904	-0.766459	0.762344	-0.031732	0.017039	0.117170	1.000000	0.000028	0.000030	0.000031	-47.019202	-83.798053	49.966858
04877	9.872531	-0.800653	0.737379	-0.004800	-0.015699	0.119653	1.000000	0.000035	0.000028	0.000031	-47.014166	-83.798001	49.962483
04878	9.852093	-0.784998	0.715223	0.015001	-0.000787	0.096464	1.000000	0.000033	0.000021	0.000031	-47.015302	-83.798500	49.963962
04879	9.869078	-0.767528	0.739616	-0.009117	0.016861	0.113765	1.000000	0.000026	0.000023	0.000040	-47.021081	-83.798108	49.969371
04880	9.889493	-0.817303	0.712903	0.021610	-0.029679	0.136028	1.000000	0.000043	0.000025	0.000031	-47.017008	-83.798286	49.966949
04881	9.867344	-0.768103	0.716245	0.014000	0.017323	0.110365	1.000000	0.000023	0.000016	0.000040	-47.028680	-83.798450	49.977988
04882	9.853311	-0.788255	0.741459	-0.011111	-0.005163	0.099865	1.000000	0.000025	0.000023	0.000023	-47.022934	-83.799458	49.972487
04883	9.884414	-0.783992	0.691247	0.040904	0.003978	0.126750	1.000000	0.000021	0.000033	0.000032	-47.015969	-83.798957	49.964517
04884	9.867087	-0.769864	0.717898	0.012497	0.015365	0.110370	1.000000	0.000036	0.000028	0.000039	-47.017033	-83.798221	49.966156
04885	9.866979	-0.770594	0.718590	0.012000	0.014713	0.110372	1.000000	0.000031	0.000037	0.000040	-47.011035	-83.796718	49.960313
04886	9.868441	-0.771880	0.743566	-0.012614	0.012296	0.113768	1.000000	0.000033	0.000021	0.000023	-47.005982	-83.797923	49.956380
04887	9.866810	-0.771663	0.719762	0.011002	0.013404	0.110375	1.000000	0.000028	0.000030	0.000031	-46.999990	-83.797645	49.950215
04888	9.851210	-0.790999	0.720750	0.009997	-0.007304	0.096467	1.000000	0.000033	0.000021	0.000023	-46.995613	-83.798858	49.946254
04889	9.886957	-0.789056	0.743702	-0.010334	-0.003463	0.133543	1.000000	0.000010	0.000045	0.000048	-46.992605	-83.796012	49.940966
04890	9.864979	-0.772886	0.697244	0.033606	0.013206	0.106990	1.000000	0.000030	0.000013	0.000031	-46.999542	-83.797078	49.948171
04891	9.866433	-0.774174	0.722241	0.008995	0.010799	0.110380	1.000000	0.000026	0.000047	0.000032	-46.980813	-83.795465	49.928962
04892	9.886643	-0.791134	0.745669	-0.011826	-0.005428	0.133540	1.000000	0.000033	0.000020	0.000048	-46.992743	-83.794626	49.942321
04893	9.852234	-0.795256	0.748274	-0.016600	-0.012319	0.099851	1.000000	0.000036	0.000028	0.000039	-46.993613	-83.793902	49.943917
04894	9.869373	-0.810727	0.722832	0.010793	-0.025033	0.116238	1.000000	0.000026	0.000023	0.000032	-46.993574	-83.794176	49.943566
04895	9.866041	-0.776957	0.724597	0.007015	0.008184	0.110384	1.000000	0.000028	0.000030	0.000032	-46.987592	-83.793898	49.937411
04896	9.884719	-0.793226	0.723459	0.010296	-0.006282	0.130155	1.000000	0.000024	0.000016	0.000048	-47.005124	-83.793354	49.954204
04897	9.881382	-0.759608	0.725198	0.006523	0.026934	0.124307	1.000000	0.000038	0.000035	0.000031	-46.994230	-83.792744	49.944234
04898	9.851753	-0.798524	0.751109	-0.019095	-0.015560	0.099842	1.000000	0.000035	0.000028	0.000031	-46.989627	-83.792705	49.940349
04899	9.884445	-0.795097	0.725144	0.008790	-0.008240	0.130155	1.000000	0.000030	0.000013	0.000031	-46.996388	-83.793762	49.947245
04900	9.850046	-0.799069	0.727726	0.004021	-0.015117	0.096463	1.000000	0.000014	0.000035	0.000040	-46.994450	-83.792386	49.943779
04901	9.868707	-0.815356	0.726710	0.007287	-0.029594	0.116228	1.000000	0.000026	0.000023	0.000040	-47.000240	-83.791993	49.949198
04902	9.882457	-0.763607	0.752281	-0.020102	0.021928	0.127690	1.000000	0.000033	0.000020	0.000039	-47.007304	-83.791869	49.957171
04903	9.849758	-0.801211	0.729264	0.002516	-0.017072	0.096460	1.000000	0.000033	0.000021	0.000031	-47.008187	-83.792370	49.958451
04904	9.866737	-0.783650	0.753800	-0.021601	0.000583	0.113760	1.000000	0.000031	0.000037	0.000031	-46.996489	-83.791543	49.947070
04905	9.863592	-0.782920	0.705616	0.026136	0.003408	0.107021	1.000000	0.000038	0.000011	0.000039	-47.010112	-83.792153	49.961725
04906	9.854202	-0.838281	0.754223	-0.019844	-0.054633	0.105654	1.000000	0.000027	0.000047	0.000048	-47.003093	-83.789181	49.954470
04907	9.866426	-0.785845	0.755589	-0.023093	-0.001367	0.113756	1.000000	0.000030	0.000013	0.000031	-47.009862	-83.790237	49.961374
04908	9.863307	-0.784984	0.707300	0.024658	0.001452	0.107025	1.000000	0.000018	0.000026	0.000024	-47.002439	-83.790912	49.952644
04909	9.866268	-0.786936	0.756510	-0.024078	-0.002667	0.113754	1.000000	0.000033	0.000020	0.000039	-47.009206	-83.790742	49.959873
04910	9.845887	-0.771453	0.734326	-0.004212	0.012258	0.090630	1.000000	0.000021	0.000033	0.000040	-47.008540	-83.789578	49.958317
04911	9.863029	-0.786986	0.708952	0.023158	-0.000503	0.107029	1.000000	0.000026	0.000023	0.000032	-47.008455	-83.789855	49.957797
04912	9.883223	-0.803791	0.732184	0.002272	-0.016719	0.130148	1.000000	0.000033	0.000021	0.000031	-47.010181	-83.790366	49.959453
04913	9.845641	-0.773198	0.735791	-0.005714	0.010317	0.090632	1.000000	0.000023	0.000016	0.000024	-47.010102	-83.791868	49.958612
04914	9.898631	-0.785906	0.732718	0.001772	0.002009	0.144090	1.000000	0.000031	0.000038	0.000023	-46.992642	-83.791723	49.941421
04915	9.862716	-0.789058	0.711007	0.021147	-0.003104	0.107033	1.000000	0.000040	0.000018	0.000039	-47.000396	-83.791777	49.950468
04916	9.864125	-0.790465	0.735985	-0.003467	-0.005479	0.110388	1.000000	0.000024	0.000040	0.000040	-46.993297	-83.790021	49.942961
04917	9.865527	-0.791884	0.761004	-0.028087	-0.007854	0.113741	1.000000	0.000026	0.000023	0.000040	-46.999094	-83.789626	49.948387
04918	9.877979	-0.772318	0.712411	0.020160	0.014971	0.120985	1.000000	0.000028	0.000030	0.000023	-46.987513	-83.790036	49.936892
04919	9.863843	-0.792298	0.737786	-0.004968	-0.007433	0.110386	1.000000	0.000026	0.000023	0.000032	-46.987432	-83.790311	49.936377
04920	9.863748	-0.792960	0.738354	-0.005462	-0.008087	0.110385	1.000000	0.000029	0.000030	0.000040	-46.987035	-83.789360	49.936370
04921	9.877713	-0.774070	0.714192	0.018671	0.013008	0.120990	1.000000	0.000028	0.000030	0.000023	-46.975196	-83.789751	49.924296
04922	9.863577	-0.794038	0.739475	-0.006467	-0.009386	0.110384	1.000000	0.000030	0.000013	0.000031	-46.982429	-83.790821	49.931631
04923	9.896296	-0.790937	0.713449	0.021392	-0.002155	0.140744	1.000000	0.000041	0.000018	0.000055	-47.001950	-83.789532	49.952573
04924	9.863387	-0.795568	0.740365	-0.007467	-0.010681	0.110382	1.000000	0.000028	0.000030	0.000023	-46.990423	-83.789900	49.940578
04925	9.878874	-0.777272	0.740487	-0.007454	0.008691	0.124339	1.000000	0.000026	0.000023	0.000032	-46.990346	-83.790175	49.940066
04926	9.842969	-0.780437	0.718742	0.011948	0.003590	0.087290	1.000000	0.000021	0.000033	0.000032	-46.982988	-83.789657	49.932108
04927	9.863102	-0.797327	0.742260	-0.008955	-0.012638	0.110378	1.000000	0.000031	0.000037	0.000040	-46.977033	-83.788151	49.926309
04928	9.877079	-0.778533	0.718094	0.015176	0.008443	0.121001	1.000000	0.000026	0.000023	0.000032	-46.977275	-83.788449	49.926271
04929	9.862918	-0.798564	0.743379	-0.009960	-0.013939	0.110375	1.000000	0.000033	0.000021	0.000031	-46.978183	-83.788948	49.927577
04930	9.862831	-0.799056	0.744003	-0.010463	-0.014583	0.110374	1.000000	0.000031	0.000038	0.000023	-46.960877	-83.788770	49.910152
04931	9.859755	-0.798313	0.695887	0.037288	-0.011820	0.103704	1.000000	0.000040	0.000018	0.000039	-46.968649	-83.788823	49.919218
04932	9.878219	-0.781563	0.744704	-0.010955	0.004138	0.124339	1.000000	0.000021	0.000033	0.000040	-46.968155	-83.787651	49.917654
04933	9.876627	-0.781580	0.721006	0.012672	0.005191	0.121007	1.000000	0.000028	0.000030	0.000032	-46.962207	-83.787370	49.911535
04934	9.840730	-0.784719	0.699279	0.032074	0.000106	0.083964	1.000000	0.000035	0.000028	0.000031	-46.957577	-83.787314	49.907527
04935	9.856222	-0.766586	0.699375	0.032094	0.019469	0.097938	1.000000	0.000026	0.000023	0.000040	-46.963386	-83.786918	49.912963
04936	9.846664	-0.821854	0.747842	-0.013997	-0.038493	0.096390	1.000000	0.000031	0.000013	0.000048	-46.982261	-83.786679	49.932531
04937	9.896479	-0.800518	0.745861	-0.009763	-0.012999	0.144077	1.000000	0.000028	0.000030	0.000023	-46.970439	-83.787069	49.920475
04938	9.860599	-0.803577	0.723985	0.009651	-0.018075	0.107035	1.000000	0.000030	0.000013	0.000031	-46.977356	-83.788074	49.927122
04939	9.860505	-0.804158	0.724628	0.009152	-0.018727	0.107034	1.000000	0.000026	0.000047	0.000032	-46.958674	-83.786458	49.907964
04940	9.879130	-0.820392	0.723774	0.012353	-0.033269	0.126772	1.000000	0.000040	0.000018	0.000039	-46.966042	-83.786517	49.917279
04941	9.860314	-0.805459	0.725780	0.008159	-0.020036	0.107032	1.000000	0.000026	0.000023	0.000032	-46.965975	-83.786790	49.916777
04942	9.858570	-0.772307	0.751783	-0.019658	0.011515	0.104596	1.000000	0.000035	0.000028	0.000031	-46.961811	-83.786802	49.913469
04943	9.857013	-0.772238	0.727877	0.003973	0.012557	0.101277	1.000000	0.000030	0.000013	0.000031	-46.968608	-83.787856	49.920400
04944	9.856920	-0.772976	0.728351	0.003464	0.011901	0.101278	1.000000	0.000029	0.000030	0.000048	-46.974775	-83.786302	49.927142
04945	9.874072	-0.788667	0.702996	0.030781	-0.000952	0.117698	1.000000	0.000033	0.000021	0.000031	-46.975700	-83.786800	49.928465
04946	9.856748	-0.774209	0.729373	0.002474	0.010602	0.101280	1.000000	0.000025	0.000023	0.000024	-46.969660	-83.787716	49.921897
04947	9.875388	-0.790388	0.728333	0.005659	-0.003945	0.121014	1.000000	0.000026	0.000023	0.000040	-46.975473	-83.787319	49.927338
04948	9.840970	-0.794232	0.730892	0.000960	-0.010697	0.087292	1.000000	0.000028	0.000030	0.000032	-46.969652	-83.787011	49.921209
04949	9.859605	-0.810477	0.729815	0.004140	-0.025246	0.107023	1.000000	0.000038	0.000011	0.000039	-46.983325	-83.787616	49.935910
04950	9.856409	-0.776753	0.731253	0.000488	0.008011	0.101283	1.000000	0.000033	0.000021	0.000031	-46.984500	-83.788076	49.937170
04951	9.856335	-0.777326	0.731636	-0.000009	0.007360	0.101283	1.000000	0.000030	0.000013	0.000031	-46.991310	-83.789129	49.944113
04952	9.856264	-0.777891	0.731999	-0.000518	0.006718	0.101284	1.000000	0.000040	0.000018	0.000031	-46.994052	-83.789855	49.947854
04953	9.874899	-0.794070	0.730948	0.002655	-0.007838	0.121013	1.000000	0.000019	0.000026	0.000032	-46.992998	-83.789904	49.945533
04954	9.871700	-0.760375	0.732530	-0.000991	0.025414	0.115282	1.000000	0.000026	0.000023	0.000040	-46.999010	-83.789513	49.951386
04955	9.840399	-0.798569	0.733851	-0.002539	-0.015228	0.087286	1.000000	0.000030	0.000013	0.000031	-47.005828	-83.790565	49.958337
04956	9.890266	-0.777136	0.731794	0.001686	0.010201	0.135012	1.000000	0.000033	0.000021	0.000023	-47.000641	-83.791713	49.953635
04957	9.872929	-0.762725	0.758225	-0.026608	0.021783	0.118586	1.000000	0.000029	0.000030	0.000040	-47.000577	-83.790760	49.953464
04958	9.874472	-0.797142	0.733374	0.000151	-0.011092	0.121010	1.000000	0.000026	0.000023	0.000032	-47.001176	-83.791046	49.953572
04959	9.835506	-0.765894	0.712540	0.016465	0.017757	0.078263	1.000000	0.000026	0.000023	0.000032	-47.001120	-83.791319	49.953081
04960	9.871209	-0.764000	0.735360	-0.003983	0.021522	0.115290	1.000000	0.000047	0.000015	0.000039	-47.010597	-83.791558	49.964166
04961	9.872760	-0.798486	0.710309	0.022780	-0.011366	0.117713	1.000000	0.000023	0.000016	0.000040	-47.022302	-83.791713	49.975235
04962	9.855412	-0.784174	0.736739	-0.005517	0.000231	0.101284	1.000000	0.000007	0.000038	0.000032	-47.013815	-83.790797	49.964306
04963	9.874011	-0.800455	0.735964	-0.002362	-0.014340	0.121006	1.000000	0.000045	0.000032	0.000039	-47.009868	-83.789737	49.962181
04964	9.855208	-0.785484	0.738073	-0.006506	-0.001065	0.101284	1.000000	0.000026	0.000023	0.000032	-47.009759	-83.789967	49.961488
04965	9.853674	-0.785379	0.714279	0.017130	-0.000050	0.097994	1.000000	0.000028	0.000030	0.000023	-46.997950	-83.790356	49.949447
04966	9.855030	-0.786650	0.739210	-0.007513	-0.002366	0.101283	1.000000	0.000026	0.000023	0.000048	-47.010129	-83.789325	49.961470
04967	9.854930	-0.787384	0.739757	-0.008011	-0.003016	0.101282	1.000000	0.000035	0.000028	0.000031	-47.005197	-83.789267	49.957200
04968	9.839227	-0.806616	0.740732	-0.009048	-0.023648	0.087265	1.000000	0.000040	0.000018	0.000023	-47.001595	-83.790682	49.954911
