// Start Time: Unknown
// Update Rate: 100.0Hz
// Filter Profile: human (46.1)
// Firmware Version: 4.4.0
PacketCounter	Acc_X	Acc_Y	Acc_Z	FreeAcc_X	FreeAcc_Y	FreeAcc_Z	OriInc_q0	OriInc_q1	OriInc_q2	OriInc_q3	Roll	Pitch	Yaw
06015	1.504380	-0.254403	9.688922	-0.000000	0.000000	-0.004370	1.000000	-0.000049	0.000019	0.000021	-1.501117	-8.823834	41.636731
06016	1.497003	-0.272403	9.672860	0.004784	0.002573	-0.020884	1.000000	-0.000050	0.000026	0.000018	-1.608201	-8.761737	42.558119
06017	1.474897	-0.275039	9.684031	-0.011298	-0.014083	-0.013141	1.000000	-0.000041	0.000019	0.000019	-1.613164	-8.759513	42.560213
06018	1.481523	-0.259058	9.700158	-0.019789	0.001781	0.003355	1.000000	-0.000059	0.000012	0.000008	-1.620033	-8.758069	42.561151
06019	1.517575	-0.273711	9.661816	0.020868	0.019227	-0.028627	1.000000	-0.000047	0.000022	0.000028	-1.625928	-8.755513	42.564272
06020	1.511277	-0.276732	9.703682	0.012580	0.010260	0.011859	1.000000	-0.000031	0.000022	0.000024	-1.629908	-8.752921	42.566941
06021	1.502045	-0.260102	9.689133	-0.003707	0.018434	-0.004388	1.000000	-0.000046	0.000014	0.000030	-1.635675	-8.751186	42.570378
06022	1.508652	-0.244114	9.705272	-0.012203	0.034285	0.012108	1.000000	-0.000048	0.000019	0.000021	-1.641529	-8.749070	42.572687
06023	1.494435	-0.279069	9.673067	0.004782	0.002549	-0.020884	1.000000	-0.000050	0.000016	0.000014	-1.647454	-8.747232	42.574201
06024	1.492242	-0.245620	9.674620	-0.019997	0.026553	-0.020635	1.000000	-0.000047	0.000011	0.000023	-1.653070	-8.746002	42.576809
06025	1.531364	-0.279824	9.692667	0.028660	0.026863	0.004116	1.000000	-0.000046	0.000014	0.000030	-1.658836	-8.744266	42.580244
06026	1.500607	-0.265042	9.689222	-0.003716	0.018303	-0.004388	1.000000	-0.000048	0.000008	0.000016	-1.664324	-8.743577	42.582027
06027	1.500306	-0.266033	9.689241	-0.003716	0.018303	-0.004388	1.000000	-0.000047	0.000022	0.000028	-1.670217	-8.741019	42.585146
06028	1.499971	-0.266942	9.689268	-0.003715	0.018196	-0.004388	1.000000	-0.000039	0.000012	0.000021	-1.674579	-8.740036	42.587482
06029	1.521375	-0.266134	9.678165	0.012368	0.034853	-0.012130	1.000000	-0.000046	0.000014	0.000030	-1.680344	-8.738299	42.590917
06030	1.475725	-0.236107	9.701996	-0.044585	0.025421	0.003605	1.000000	-0.000050	0.000026	0.000018	-1.685719	-8.735942	42.592815
06031	1.520603	-0.268134	9.678231	0.012360	0.034694	-0.012130	1.000000	-0.000047	0.000011	0.000023	-1.691500	-8.734565	42.595447
06032	1.491691	-0.287790	9.673235	0.004799	0.001947	-0.020884	1.000000	-0.000048	0.000019	0.000021	-1.696322	-8.733124	42.597596
06033	1.498261	-0.271832	9.689397	-0.003694	0.017814	-0.004387	1.000000	-0.000048	0.000019	0.000021	-1.702229	-8.730925	42.599910
06034	1.496023	-0.238382	9.690992	-0.028446	0.041615	-0.004135	1.000000	-0.000046	0.000014	0.000030	-1.706834	-8.730016	42.603170
06035	1.497627	-0.273811	9.689439	-0.003665	0.017574	-0.004386	1.000000	-0.000050	0.000016	0.000014	-1.712756	-8.728176	42.604681
06036	1.518890	-0.273197	9.678359	0.012484	0.033916	-0.012127	1.000000	-0.000058	0.000026	0.000020	-1.718096	-8.726140	42.606653
06037	1.518519	-0.274198	9.678389	0.012484	0.033916	-0.012127	1.000000	-0.000039	0.000012	0.000021	-1.722927	-8.724735	42.609060
06038	1.516384	-0.240658	9.679985	-0.012267	0.057576	-0.011872	1.000000	-0.000047	0.000011	0.000023	-1.726929	-8.724742	42.611406
06039	1.503282	-0.260848	9.705670	-0.012061	0.032742	0.012114	1.000000	-0.000050	0.000016	0.000014	-1.732852	-8.722901	42.612917
06040	1.496097	-0.278706	9.689536	-0.003508	0.016359	-0.004384	1.000000	-0.000040	0.000009	0.000014	-1.735202	-8.723645	42.614136
06041	1.517429	-0.278000	9.678451	0.012574	0.033017	-0.012124	1.000000	-0.000058	0.000026	0.000020	-1.742182	-8.720652	42.616355
06042	1.486616	-0.263201	9.675024	-0.019751	0.023946	-0.020628	1.000000	-0.000037	0.000004	0.000024	-1.744137	-8.722214	42.618678
06043	1.502233	-0.264727	9.705728	-0.011956	0.031631	0.012118	1.000000	-0.000055	0.000011	0.000025	-1.750860	-8.720868	42.621531
06044	1.509687	-0.297803	9.662339	0.021183	0.015962	-0.028622	1.000000	-0.000031	0.000022	0.000024	-1.751951	-8.720328	42.623679
06045	1.507394	-0.264363	9.663978	-0.003599	0.040003	-0.028364	1.000000	-0.000064	0.000018	0.000024	-1.759754	-8.718189	42.626439
06046	1.506927	-0.265452	9.664021	-0.003533	0.039309	-0.028361	1.000000	-0.000041	0.000029	0.000023	-1.761529	-8.717252	42.628539
06047	1.500584	-0.268664	9.705875	-0.011820	0.030329	0.012122	1.000000	-0.000050	0.000016	0.000014	-1.767446	-8.715423	42.630049
06048	1.491412	-0.252160	9.691354	-0.028070	0.037815	-0.004118	1.000000	-0.000048	0.000019	0.000021	-1.770197	-8.715804	42.631721
06049	1.514674	-0.285877	9.678653	0.012789	0.030435	-0.012116	1.000000	-0.000047	0.000011	0.000023	-1.775987	-8.714433	42.634350
06050	1.490632	-0.254173	9.691422	-0.027992	0.036888	-0.004115	1.000000	-0.000054	0.000037	0.000006	-1.777923	-8.713462	42.634315
06051	1.492034	-0.289554	9.689844	-0.003215	0.012845	-0.004379	1.000000	-0.000039	0.000012	0.000021	-1.782762	-8.712075	42.636722
06052	1.489756	-0.256023	9.691508	-0.027916	0.035921	-0.004111	1.000000	-0.000045	0.000027	0.000042	-1.784112	-8.712283	42.640721
06053	1.519795	-0.272746	9.694997	0.004449	0.044398	0.004397	1.000000	-0.000040	0.000019	0.000019	-1.789085	-8.710087	42.642812
06054	1.503658	-0.273149	9.664316	-0.003001	0.035844	-0.028348	1.000000	-0.000056	0.000018	0.000022	-1.790671	-8.709899	42.645073
06055	1.487526	-0.273625	9.633631	-0.010800	0.028170	-0.061096	1.000000	-0.000048	0.000019	0.000021	-1.796560	-8.707715	42.647385
06056	1.509862	-0.258231	9.680551	-0.011257	0.050787	-0.011834	1.000000	-0.000040	0.000019	0.000019	-1.796608	-8.708068	42.648872
06057	1.487906	-0.260771	9.691665	-0.027338	0.034119	-0.004103	1.000000	-0.000040	0.000009	0.000014	-1.801431	-8.707033	42.650475
06058	1.518031	-0.277505	9.695138	0.005294	0.041548	0.004409	1.000000	-0.000049	0.000029	0.000025	-1.801843	-8.706677	42.652558
06059	1.500097	-0.243444	9.666095	-0.027284	0.057920	-0.028065	1.000000	-0.000047	0.000001	0.000019	-1.807478	-8.706491	42.654701
06060	1.510576	-0.296478	9.678975	0.014111	0.024486	-0.012101	1.000000	-0.000060	0.000020	0.000006	-1.807923	-8.707595	42.654690
06061	1.477831	-0.247317	9.677220	-0.043037	0.040043	-0.020329	1.000000	-0.000048	0.000019	0.000021	-1.813776	-8.705409	42.657000
06062	1.495090	-0.283458	9.706302	-0.010297	0.022728	0.012144	1.000000	-0.000056	0.000018	0.000022	-1.815948	-8.706247	42.658325
06063	1.536178	-0.246612	9.685825	-0.002914	0.080095	-0.003026	1.000000	-0.000043	0.000023	0.000009	-1.821013	-8.703577	42.659293
06064	1.478619	-0.284749	9.675640	-0.017532	0.013952	-0.020604	1.000000	-0.000044	0.000007	0.000033	-1.819510	-8.704606	42.662953
06065	1.506956	-0.267111	9.680763	-0.009932	0.046461	-0.011811	1.000000	-0.000047	0.000021	0.000028	-1.825338	-8.702027	42.666060
06066	1.500662	-0.270452	9.722594	-0.018085	0.035934	0.028672	1.000000	-0.000046	0.000014	0.000030	-1.824035	-8.705772	42.668121
06067	1.506233	-0.269085	9.680821	-0.009804	0.044942	-0.011803	1.000000	-0.000047	0.000021	0.000028	-1.829851	-8.703242	42.671235
06068	1.512808	-0.253191	9.697050	-0.017693	0.059428	0.004727	1.000000	-0.000050	0.000016	0.000013	-1.827414	-8.704184	42.672652
06069	1.505531	-0.271072	9.680875	-0.009194	0.043569	-0.011797	1.000000	-0.000045	0.000017	0.000037	-1.833035	-8.702108	42.676884
06070	1.519096	-0.238361	9.713302	-0.025608	0.073982	0.021263	1.000000	-0.000058	0.000015	0.000015	-1.832121	-8.702876	42.678438
06071	1.504904	-0.273208	9.680912	-0.008617	0.042285	-0.011790	1.000000	-0.000046	0.000014	0.000030	-1.837731	-8.701140	42.681864
06072	1.482954	-0.275897	9.692005	-0.024216	0.023978	-0.004065	1.000000	-0.000047	0.000011	0.000023	-1.834454	-8.704182	42.684080
06073	1.502416	-0.240589	9.682657	-0.032902	0.064667	-0.011478	1.000000	-0.000034	0.000026	0.000014	-1.838416	-8.701117	42.685624
06074	1.519568	-0.276626	9.711723	-0.000022	0.046959	0.020978	1.000000	-0.000056	0.000018	0.000022	-1.838474	-8.702857	42.686979
06075	1.503426	-0.277033	9.681033	-0.007816	0.039308	-0.011777	1.000000	-0.000047	0.000021	0.000028	-1.844200	-8.700314	42.690090
06076	1.524781	-0.276229	9.669983	0.008641	0.054999	-0.019489	1.000000	-0.000039	0.000012	0.000021	-1.843231	-8.701156	42.691561
06077	1.493998	-0.261370	9.666571	-0.023715	0.046512	-0.027994	1.000000	-0.000056	0.000018	0.000022	-1.849925	-8.698982	42.694089
06078	1.516316	-0.246179	9.713542	-0.023667	0.068840	0.021305	1.000000	-0.000040	0.000019	0.000019	-1.847047	-8.698083	42.696146
06079	1.502049	-0.280927	9.681135	-0.006672	0.037159	-0.011768	1.000000	-0.000056	0.000018	0.000022	-1.853697	-8.695875	42.698668
06080	1.508629	-0.265136	9.697382	-0.014952	0.051570	0.004776	1.000000	-0.000048	0.000019	0.000021	-1.852613	-8.698449	42.699375
06081	1.508360	-0.266207	9.697395	-0.014929	0.051545	0.004777	1.000000	-0.000056	0.000008	0.000018	-1.859141	-8.697453	42.701417
06082	1.485344	-0.283363	9.650469	-0.013659	0.026781	-0.044515	1.000000	-0.000038	0.000025	0.000033	-1.855842	-8.697161	42.704475
06083	1.522411	-0.283336	9.670151	0.010263	0.051041	-0.019469	1.000000	-0.000055	0.000011	0.000025	-1.862303	-8.695802	42.707317
06084	1.500352	-0.286208	9.681243	-0.005509	0.032763	-0.011752	1.000000	-0.000058	0.000026	0.000020	-1.861073	-8.697878	42.708381
06085	1.492183	-0.255118	9.724804	-0.038520	0.047690	0.029048	1.000000	-0.000031	0.000012	0.000019	-1.864667	-8.696471	42.710559
06086	1.499672	-0.287955	9.681297	-0.005464	0.031157	-0.011747	1.000000	-0.000048	0.000019	0.000021	-1.863696	-8.700469	42.710972
06087	1.497440	-0.254519	9.683071	-0.030223	0.055152	-0.011411	1.000000	-0.000047	0.000021	0.000028	-1.869297	-8.697985	42.714088
06088	1.536293	-0.288960	9.701024	0.018487	0.054735	0.013310	1.000000	-0.000048	0.000019	0.000021	-1.872269	-8.698226	42.714715
06089	1.496671	-0.256516	9.683138	-0.030171	0.054462	-0.011407	1.000000	-0.000048	0.000019	0.000021	-1.877961	-8.696081	42.717026
06090	1.483379	-0.276730	9.708722	-0.029116	0.028237	0.012517	1.000000	-0.000040	0.000019	0.000019	-1.873780	-8.695504	42.719244
06091	1.504871	-0.275916	9.697665	-0.013015	0.044881	0.004812	1.000000	-0.000047	0.000001	0.000018	-1.879171	-8.695341	42.721384
06092	1.502639	-0.242575	9.699456	-0.037416	0.067149	0.005169	1.000000	-0.000061	0.000040	0.000015	-1.877146	-8.696107	42.722360
06093	1.538612	-0.256924	9.661140	0.003239	0.084656	-0.026790	1.000000	-0.000028	0.000008	0.000029	-1.880574	-8.695208	42.725664
06094	1.503692	-0.278756	9.697767	-0.012099	0.041215	0.004829	1.000000	-0.000047	0.000021	0.000028	-1.876327	-8.697828	42.728218
06095	1.472790	-0.263797	9.694384	-0.044447	0.032697	-0.003674	1.000000	-0.000039	0.000022	0.000026	-1.880887	-8.695351	42.731115
06096	1.508939	-0.278280	9.656034	-0.003555	0.048868	-0.035626	1.000000	-0.000064	0.000008	0.000020	-1.881443	-8.698786	42.732464
06097	1.522548	-0.245826	9.688551	-0.020487	0.080422	-0.002503	1.000000	-0.000055	0.000021	0.000029	-1.887897	-8.696380	42.735809
06098	1.523926	-0.281350	9.686814	0.005563	0.054594	-0.002853	1.000000	-0.000051	0.000023	0.000011	-1.880951	-8.695342	42.738878
06099	1.480085	-0.285790	9.708962	-0.026537	0.021143	0.012542	1.000000	-0.000047	0.000021	0.000028	-1.886346	-8.692885	42.741995
06100	1.499597	-0.250483	9.699725	-0.034713	0.060137	0.005224	1.000000	-0.000034	0.000016	0.000010	-1.880665	-8.695552	42.743203
06101	1.508015	-0.268925	9.714231	-0.018361	0.051823	0.021421	1.000000	-0.000048	0.000019	0.000020	-1.886035	-8.693474	42.745520
06102	1.470301	-0.270939	9.694565	-0.042337	0.025687	-0.003644	1.000000	-0.000055	0.000011	0.000025	-1.884874	-8.699991	42.745934
06103	1.520428	-0.251737	9.688732	-0.018637	0.074776	-0.002455	1.000000	-0.000047	0.000011	0.000023	-1.890091	-8.698821	42.748581
06104	1.507252	-0.271957	9.714265	-0.018437	0.047946	0.021440	1.000000	-0.000039	0.000012	0.000021	-1.886811	-8.705179	42.748705
06105	1.491305	-0.271994	9.683543	-0.026238	0.040286	-0.011327	1.000000	-0.000039	0.000012	0.000021	-1.891053	-8.704068	42.751142
06106	1.521501	-0.288784	9.686976	0.006644	0.047871	-0.002818	1.000000	-0.000046	0.000014	0.000030	-1.891033	-8.703577	42.754511
06107	1.512444	-0.272162	9.672529	-0.009633	0.056012	-0.019009	1.000000	-0.000050	0.000016	0.000013	-1.896377	-8.702002	42.756046
06108	1.503422	-0.255617	9.658077	-0.024634	0.062603	-0.035186	1.000000	-0.000055	0.000011	0.000025	-1.890529	-8.701538	42.761185
06109	1.511915	-0.274206	9.672554	-0.008276	0.054248	-0.018998	1.000000	-0.000038	0.000014	0.000028	-1.894663	-8.700010	42.764415
06110	1.511582	-0.275112	9.672580	-0.007140	0.053170	-0.018991	1.000000	-0.000048	0.000019	0.000020	-1.891232	-8.697155	42.768041
06111	1.511252	-0.276098	9.672604	-0.007080	0.053056	-0.018990	1.000000	-0.000046	0.000014	0.000030	-1.896247	-8.695604	42.771485
06112	1.495148	-0.276287	9.641899	-0.014352	0.043959	-0.051751	1.000000	-0.000050	0.000026	0.000018	-1.893125	-8.696367	42.772478
06113	1.487085	-0.245447	9.685517	-0.047298	0.058701	-0.010891	1.000000	-0.000055	0.000001	0.000020	-1.898923	-8.696407	42.774859
06114	1.525987	-0.280045	9.703403	0.001650	0.057184	0.013799	1.000000	-0.000049	0.000029	0.000025	-1.896417	-8.698805	42.776630
06115	1.501133	-0.262362	9.658252	-0.022444	0.057770	-0.035151	1.000000	-0.000023	0.000012	0.000017	-1.898506	-8.697606	42.778614
06116	1.494951	-0.265716	9.700037	-0.030040	0.046468	0.005314	1.000000	-0.000057	0.000005	0.000011	-1.893425	-8.702768	42.780012
06117	1.525133	-0.282698	9.703461	0.002408	0.054767	0.013812	1.000000	-0.000047	0.000021	0.000028	-1.898374	-8.700515	42.783155
06118	1.507218	-0.248438	9.674599	-0.029584	0.070031	-0.018530	1.000000	-0.000047	0.000021	0.000028	-1.896223	-8.700139	42.785808
06119	1.515597	-0.266975	9.689081	-0.013193	0.061619	-0.002355	1.000000	-0.000038	0.000014	0.000028	-1.900054	-8.698680	42.789045
06120	1.517116	-0.302303	9.687252	0.011870	0.036320	-0.002773	1.000000	-0.000047	0.000011	0.000023	-1.899192	-8.701191	42.789751
06121	1.506266	-0.251224	9.674675	-0.029164	0.068446	-0.018518	1.000000	-0.000047	0.000021	0.000028	-1.904066	-8.698962	42.792896
06122	1.499714	-0.254881	9.716508	-0.036901	0.057387	0.021944	1.000000	-0.000059	0.000033	0.000017	-1.901096	-8.700529	42.793272
06123	1.500953	-0.290414	9.714706	-0.012035	0.033179	0.021511	1.000000	-0.000047	0.000021	0.000028	-1.905890	-8.698349	42.796423
06124	1.513597	-0.271967	9.689255	-0.011173	0.055911	-0.002318	1.000000	-0.000039	0.000012	0.000021	-1.896382	-8.701031	42.800450
06125	1.484657	-0.291461	9.683998	-0.018677	0.023240	-0.011254	1.000000	-0.000058	0.000015	0.000015	-1.902032	-8.699617	42.802220
06126	1.513028	-0.274025	9.689286	-0.010622	0.053729	-0.002305	1.000000	-0.000046	0.000014	0.000030	-1.897240	-8.703816	42.805268
06127	1.512695	-0.274932	9.689312	-0.010532	0.053519	-0.002304	1.000000	-0.000040	0.000019	0.000019	-1.900914	-8.702038	42.807404
06128	1.490609	-0.277568	9.700374	-0.026121	0.034811	0.005373	1.000000	-0.000048	0.000019	0.000020	-1.896211	-8.705775	42.809419
06129	1.487430	-0.258356	9.644208	-0.034152	0.052090	-0.051229	1.000000	-0.000053	0.000030	0.000008	-1.901027	-8.702786	42.810347
06130	1.533195	-0.276143	9.678390	0.006770	0.065692	-0.009942	1.000000	-0.000040	0.000005	0.000049	-1.893562	-8.708318	42.817683
06131	1.489448	-0.280630	9.700464	-0.025248	0.032015	0.005385	1.000000	-0.000058	0.000025	0.000020	-1.899098	-8.705866	42.819958
06132	1.489040	-0.281721	9.700495	-0.024546	0.029776	0.005394	1.000000	-0.000050	0.000016	0.000013	-1.892398	-8.709934	42.822277
06133	1.523376	-0.261551	9.664046	-0.008663	0.071240	-0.026078	1.000000	-0.000039	0.000022	0.000026	-1.895809	-8.707939	42.825235
06134	1.486569	-0.249038	9.702444	-0.049008	0.051790	0.005879	1.000000	-0.000039	0.000012	0.000021	-1.892070	-8.712540	42.826558
06135	1.518434	-0.300398	9.703980	0.008269	0.035941	0.013896	1.000000	-0.000055	0.000021	0.000029	-1.897330	-8.710647	42.829965
06136	1.500530	-0.266165	9.675167	-0.023419	0.050474	-0.018393	1.000000	-0.000050	0.000026	0.000018	-1.890541	-8.711531	42.834195
06137	1.500133	-0.267241	9.675199	-0.023312	0.050193	-0.018392	1.000000	-0.000054	0.000014	0.000032	-1.895584	-8.710478	42.837920
06138	1.506785	-0.251556	9.691544	-0.030308	0.063455	-0.001736	1.000000	-0.000053	0.000017	-0.000003	-1.884853	-8.712047	42.840339
06139	1.492584	-0.286003	9.658906	-0.013256	0.031689	-0.035015	1.000000	-0.000039	0.000012	0.000021	-1.887867	-8.711317	42.842820
06140	1.492988	-0.272886	9.717055	-0.028402	0.037099	0.022070	1.000000	-0.000061	0.000040	0.000015	-1.884513	-8.704306	42.848035
06141	1.504716	-0.268705	9.633543	-0.011918	0.055375	-0.058800	1.000000	-0.000044	-0.000003	0.000028	-1.888154	-8.705188	42.851359
06142	1.514209	-0.273298	9.706055	-0.011286	0.051918	0.014428	1.000000	-0.000058	0.000015	0.000015	-1.884250	-8.705751	42.855587
06143	1.489564	-0.255854	9.660896	-0.035358	0.052459	-0.034489	1.000000	-0.000055	0.000011	0.000025	-1.889025	-8.705012	42.858500
06144	1.504936	-0.257842	9.691666	-0.026753	0.058601	-0.001695	1.000000	-0.000048	0.000019	0.000020	-1.886338	-8.704824	42.861454
06145	1.519342	-0.274019	9.664336	-0.002097	0.059301	-0.025995	1.000000	-0.000060	0.000016	0.000041	-1.891985	-8.703395	42.866195
06146	1.512892	-0.277826	9.706132	-0.009511	0.048686	0.014447	1.000000	-0.000051	0.000023	0.000011	-1.889305	-8.702714	42.867681
06147	1.496787	-0.277901	9.675417	-0.017238	0.040938	-0.018336	1.000000	-0.000047	0.000021	0.000028	-1.893154	-8.700765	42.870860
06148	1.490396	-0.281465	9.717208	-0.023555	0.030790	0.022104	1.000000	-0.000039	0.000012	0.000021	-1.886900	-8.694702	42.877251
06149	1.533607	-0.278925	9.695198	0.008698	0.063951	0.006806	1.000000	-0.000047	0.000011	0.000023	-1.890562	-8.693853	42.879929
06150	1.511583	-0.281634	9.706226	-0.006623	0.046361	0.014460	1.000000	-0.000048	0.000019	0.000020	-1.889880	-8.691928	42.882171
06151	1.508504	-0.262206	9.650100	-0.014645	0.063657	-0.042094	1.000000	-0.000042	0.000026	0.000016	-1.892823	-8.689387	42.883993
06152	1.501999	-0.265805	9.691907	-0.022633	0.052426	-0.001650	1.000000	-0.000048	0.000019	0.000020	-1.889775	-8.694156	42.883821
06153	1.523312	-0.265015	9.680939	-0.006417	0.068836	-0.009294	1.000000	-0.000043	0.000023	0.000009	-1.892685	-8.692031	42.884848
06154	1.524674	-0.300361	9.679015	0.019108	0.043411	-0.009834	1.000000	-0.000046	0.000014	0.000030	-1.889353	-8.692862	42.888840
06155	1.506893	-0.266206	9.650242	-0.013412	0.059671	-0.042067	1.000000	-0.000074	0.000025	0.000024	-1.895983	-8.690490	42.891555
06156	1.507376	-0.253251	9.708399	-0.029297	0.064597	0.015044	1.000000	-0.000034	0.000016	0.000010	-1.890864	-8.691262	42.893194
06157	1.521769	-0.269178	9.681067	-0.004619	0.065294	-0.009269	1.000000	-0.000055	0.000021	0.000029	-1.895418	-8.689306	42.896585
06158	1.499645	-0.271976	9.692100	-0.020515	0.046032	-0.001613	1.000000	-0.000048	0.000019	0.000020	-1.889800	-8.696591	42.897075
06159	1.483697	-0.272064	9.661356	-0.028228	0.038276	-0.034400	1.000000	-0.000055	0.000011	0.000025	-1.894176	-8.695896	42.899990
06160	1.520778	-0.272390	9.681133	-0.002998	0.061492	-0.009244	1.000000	-0.000048	0.000019	0.000020	-1.890767	-8.691767	42.905227
06161	1.505642	-0.258389	9.708533	-0.027286	0.060068	0.015078	1.000000	-0.000048	0.000019	0.000020	-1.894276	-8.690176	42.907598
06162	1.505372	-0.259379	9.708548	-0.026541	0.058582	0.015089	1.000000	-0.000048	0.000008	0.000016	-1.890582	-8.691878	42.908731
06163	1.498109	-0.277085	9.692193	-0.017886	0.042516	-0.001592	1.000000	-0.000047	0.000021	0.000028	-1.894020	-8.689940	42.911906
06164	1.517753	-0.242094	9.683213	-0.025942	0.081792	-0.008636	1.000000	-0.000065	0.000015	0.000017	-1.892428	-8.690935	42.914885
06165	1.503491	-0.276597	9.650480	-0.008833	0.050037	-0.042008	1.000000	-0.000040	0.000019	0.000019	-1.894895	-8.689332	42.917036
06166	1.518764	-0.278517	9.681275	0.000412	0.055893	-0.009210	1.000000	-0.000048	0.000019	0.000020	-1.888737	-8.687430	42.921572
06167	1.487882	-0.263450	9.677934	-0.031761	0.047062	-0.017670	1.000000	-0.000041	0.000029	0.000023	-1.891236	-8.684628	42.924208
06168	1.510057	-0.248750	9.725121	-0.031349	0.066644	0.031839	1.000000	-0.000054	0.000014	0.000032	-1.879001	-8.692694	42.929073
06169	1.494085	-0.248643	9.694385	-0.039041	0.058873	-0.000948	1.000000	-0.000032	0.000019	0.000017	-1.880306	-8.691123	42.931011
06170	1.495565	-0.283965	9.692387	-0.014103	0.032902	-0.001549	1.000000	-0.000053	0.000004	0.000027	-1.877831	-8.697980	42.933137
06171	1.486633	-0.267295	9.678020	-0.030249	0.040803	-0.017637	1.000000	-0.000047	0.000021	0.000028	-1.880975	-8.696160	42.936327
06172	1.508002	-0.266729	9.667056	-0.013228	0.055276	-0.025249	1.000000	-0.000065	0.000015	0.000017	-1.874699	-8.699258	42.939435
06173	1.507735	-0.267795	9.667068	-0.013000	0.054840	-0.025246	1.000000	-0.000039	0.000012	0.000021	-1.876699	-8.698619	42.941919
06174	1.501334	-0.271457	9.708843	-0.019774	0.044521	0.015179	1.000000	-0.000048	0.000018	0.000020	-1.873368	-8.694232	42.947441
06175	1.507164	-0.269686	9.667104	-0.011442	0.053518	-0.025237	1.000000	-0.000048	0.000008	0.000016	-1.876288	-8.693932	42.949335
06176	1.492195	-0.255693	9.694493	-0.034560	0.050951	-0.000887	1.000000	-0.000047	0.000011	0.000023	-1.870238	-8.692565	42.953872
06177	1.515431	-0.289371	9.681479	0.006528	0.043291	-0.009148	1.000000	-0.000048	0.000008	0.000016	-1.873087	-8.692245	42.955762
06178	1.497730	-0.254895	9.652776	-0.026147	0.058002	-0.041290	1.000000	-0.000049	0.000029	0.000025	-1.870273	-8.696365	42.957821
06179	1.499851	-0.276414	9.708932	-0.017607	0.039764	0.015203	1.000000	-0.000050	0.000016	0.000013	-1.873217	-8.695275	42.959404
06180	1.469076	-0.261237	9.705585	-0.049359	0.028771	0.006760	1.000000	-0.000031	0.000022	0.000024	-1.863532	-8.700098	42.963523
06181	1.520810	-0.276448	9.698022	-0.000702	0.053525	0.007600	1.000000	-0.000056	0.000018	0.000022	-1.867329	-8.698730	42.966137
06182	1.513477	-0.294207	9.681639	0.008188	0.036212	-0.009121	1.000000	-0.000048	0.000018	0.000020	-1.864186	-8.701278	42.967191
06183	1.511386	-0.260859	9.683721	-0.016387	0.059723	-0.008456	1.000000	-0.000055	0.000021	0.000029	-1.867929	-8.699583	42.970613
06184	1.511057	-0.261845	9.683746	-0.016734	0.058343	-0.008448	1.000000	-0.000039	0.000012	0.000021	-1.868188	-8.705243	42.967834
06185	1.482048	-0.281071	9.678333	-0.024063	0.025434	-0.017568	1.000000	-0.000040	0.000019	0.000019	-1.870060	-8.703901	42.970017
06186	1.517211	-0.247017	9.700240	-0.024714	0.071544	0.008304	1.000000	-0.000059	0.000033	0.000017	-1.867738	-8.707017	42.968772
06187	1.502979	-0.281348	9.667424	-0.007589	0.039768	-0.025168	1.000000	-0.000036	-0.000003	0.000026	-1.869195	-8.708194	42.971904
06188	1.509753	-0.265561	9.683848	-0.014660	0.053459	-0.008417	1.000000	-0.000047	0.000021	0.000028	-1.861006	-8.707516	42.978510
06189	1.509355	-0.266557	9.683883	-0.014408	0.052956	-0.008414	1.000000	-0.000048	0.000018	0.000020	-1.863696	-8.706249	42.980919
06190	1.495822	-0.286966	9.709248	-0.012629	0.026420	0.015256	1.000000	-0.000042	0.000026	0.000016	-1.857003	-8.702721	42.985062
06191	1.517153	-0.286252	9.698310	0.003643	0.042701	0.007652	1.000000	-0.000057	0.000015	0.000015	-1.860589	-8.701814	42.986883
06192	1.508167	-0.269571	9.683985	-0.011444	0.049079	-0.008390	1.000000	-0.000048	0.000018	0.000020	-1.852595	-8.701907	42.991846
06193	1.485959	-0.272383	9.694996	-0.027179	0.031766	-0.000783	1.000000	-0.000057	0.000028	0.000027	-1.856191	-8.699470	42.994963
06194	1.507195	-0.271756	9.684075	-0.009822	0.046018	-0.008373	1.000000	-0.000051	0.000023	0.000011	-1.845657	-8.701176	42.997048
06195	1.470235	-0.259559	9.722482	-0.049985	0.027509	0.023591	1.000000	-0.000047	0.000021	0.000028	-1.848077	-8.699558	43.000261
06196	1.513349	-0.256946	9.700585	-0.016706	0.059764	0.008400	1.000000	-0.000034	0.000016	0.000010	-1.841114	-8.697522	43.004892
06197	1.484462	-0.276144	9.695119	-0.023982	0.026807	-0.000760	1.000000	-0.000047	0.000001	0.000018	-1.843270	-8.698240	43.007120
06198	1.512942	-0.258662	9.700603	-0.015493	0.057057	0.008418	1.000000	-0.000039	0.000022	0.000026	-1.835041	-8.700356	43.011953
06199	1.512514	-0.259659	9.700643	-0.015199	0.056506	0.008421	1.000000	-0.000055	0.000021	0.000029	-1.838288	-8.698770	43.015386
06200	1.526866	-0.275657	9.673276	0.011092	0.056403	-0.015940	1.000000	-0.000047	0.000021	0.000028	-1.830937	-8.693374	43.024633
06201	1.498478	-0.281245	9.726027	-0.012617	0.029477	0.032063	1.000000	-0.000049	0.000029	0.000025	-1.833293	-8.690894	43.027527
06202	1.512924	-0.297071	9.698645	0.012166	0.030203	0.007692	1.000000	-0.000037	0.000004	0.000024	-1.834511	-8.690678	43.030233
06203	1.480572	-0.247423	9.697411	-0.044764	0.045181	0.000011	1.000000	-0.000042	0.000026	0.000016	-1.835955	-8.688511	43.032101
06204	1.494979	-0.263175	9.670039	-0.020052	0.043641	-0.024349	1.000000	-0.000039	0.000012	0.000021	-1.827666	-8.696920	43.031952
06205	1.510239	-0.265315	9.700845	-0.011770	0.050305	0.008460	1.000000	-0.000059	0.000023	0.000013	-1.830947	-8.695230	43.033463
06206	1.481185	-0.284757	9.695371	-0.018371	0.016884	-0.000726	1.000000	-0.000047	0.000011	0.000023	-1.828446	-8.693761	43.037520
06207	1.502632	-0.283937	9.684435	-0.002068	0.033131	-0.008316	1.000000	-0.000040	0.000019	0.000019	-1.829673	-8.692469	43.039706
06208	1.509199	-0.268219	9.700927	-0.009840	0.047418	0.008476	1.000000	-0.000047	0.000021	0.000027	-1.827214	-8.692332	43.042176
06209	1.478383	-0.253165	9.697597	-0.041926	0.038406	0.000052	1.000000	-0.000051	0.000023	0.000011	-1.829496	-8.690603	43.043465
06210	1.508390	-0.270226	9.700997	-0.008958	0.044977	0.008489	1.000000	-0.000046	0.000014	0.000030	-1.824846	-8.693929	43.046938
06211	1.522771	-0.286044	9.673620	0.015773	0.045627	-0.015890	1.000000	-0.000042	0.000026	0.000016	-1.826127	-8.691847	43.048816
06212	1.498992	-0.254187	9.686748	-0.023855	0.050924	-0.007509	1.000000	-0.000039	0.000012	0.000021	-1.818016	-8.692692	43.053470
06213	1.513477	-0.270070	9.659353	0.000880	0.051574	-0.031891	1.000000	-0.000056	0.000018	0.000022	-1.820998	-8.691491	43.056100
06214	1.498329	-0.256328	9.686794	-0.012522	0.005797	-0.007358	1.000000	-0.000056	0.000018	0.000022	-1.588701	-8.821670	42.535276
06215	1.499610	-0.291745	9.684671	0.012520	-0.019336	-0.008287	1.000000	-0.000040	0.000019	0.000019	-1.587830	-8.821522	42.534924
06216	1.506210	-0.276122	9.701170	0.004757	-0.004758	0.008593	1.000000	-0.000056	0.000018	0.000022	-1.588276	-8.821103	42.536628
06217	1.497364	-0.259296	9.686865	-0.011202	0.002876	-0.007355	1.000000	-0.000037	0.000004	0.000024	-1.587160	-8.822604	42.536894
06218	1.527461	-0.276279	9.690248	0.021660	0.010012	0.001069	1.000000	-0.000051	0.000023	0.000011	-1.587376	-8.822214	42.536254
06219	1.489781	-0.277733	9.670434	-0.002149	-0.014641	-0.024243	1.000000	-0.000039	0.000012	0.000021	-1.586382	-8.822891	42.536211
06220	1.503530	-0.245392	9.703394	-0.018357	0.015545	0.009537	1.000000	-0.000044	0.000007	0.000032	-1.586529	-8.824339	42.537199
06221	1.496234	-0.263067	9.686937	-0.009682	-0.000985	-0.007353	1.000000	-0.000058	0.000025	0.000020	-1.587669	-8.823423	42.536976
06222	1.511480	-0.265428	9.717745	-0.001188	0.004881	0.025482	1.000000	-0.000056	0.000008	0.000018	-1.588057	-8.825044	42.540283
06223	1.510460	-0.280235	9.659535	0.015504	-0.001876	-0.031767	1.000000	-0.000054	0.000014	0.000032	-1.588938	-8.825427	42.541485
06224	1.482272	-0.286035	9.712212	-0.008178	-0.029333	0.016101	1.000000	-0.000055	0.000011	0.000025	-1.589646	-8.825928	42.542412
06225	1.525490	-0.283725	9.690344	0.024465	0.003153	0.001067	1.000000	-0.000056	0.000018	0.000022	-1.590663	-8.825836	42.542499
06226	1.494860	-0.268702	9.686995	-0.007601	-0.005879	-0.007353	1.000000	-0.000048	0.000008	0.000016	-1.590740	-8.826651	42.540901
06227	1.510196	-0.270914	9.717794	0.000910	0.000099	0.025483	1.000000	-0.000049	0.000016	0.000013	-1.590825	-8.826881	42.539962
06228	1.494289	-0.270594	9.687030	-0.006802	-0.007699	-0.007354	1.000000	-0.000036	0.000017	0.000035	-1.590298	-8.826491	42.538521
06229	1.509502	-0.272728	9.717851	0.001712	-0.001728	0.025483	1.000000	-0.000048	0.000018	0.000020	-1.590369	-8.826372	42.538388
06230	1.480540	-0.292026	9.712298	-0.005780	-0.035024	0.016084	1.000000	-0.000045	0.000004	0.000025	-1.590123	-8.828256	42.541240
06231	1.513605	-0.237378	9.678345	-0.014133	0.030269	-0.013881	1.000000	-0.000056	0.000018	0.000022	-1.591139	-8.828165	42.541326
06232	1.507923	-0.289539	9.659657	0.019177	-0.010426	-0.031779	1.000000	-0.000057	0.000015	0.000015	-1.592064	-8.828350	42.540565
06233	1.508343	-0.277084	9.717907	0.003320	-0.005646	0.025481	1.000000	-0.000055	0.000021	0.000029	-1.593066	-8.827910	42.541458
06234	1.483774	-0.258838	9.672867	-0.020783	-0.004898	-0.023280	1.000000	-0.000024	0.000019	0.000015	-1.590374	-8.827802	42.540242
06235	1.520758	-0.259117	9.692760	0.003860	0.017782	0.002053	1.000000	-0.000049	0.000016	0.000013	-1.590459	-8.828033	42.539302
06236	1.476049	-0.277259	9.656425	-0.011732	-0.022338	-0.040200	1.000000	-0.000058	0.000025	0.000020	-1.591736	-8.827054	42.538363
06237	1.520055	-0.261272	9.692813	0.004663	0.015879	0.002055	1.000000	-0.000045	0.000004	0.000025	-1.591562	-8.828586	42.538847
06238	1.534655	-0.277082	9.665375	0.029427	0.016121	-0.022371	1.000000	-0.000046	0.000014	0.000030	-1.591631	-8.828922	42.539026
06239	1.490830	-0.281527	9.687252	-0.002413	-0.018298	-0.007366	1.000000	-0.000049	0.000016	0.000013	-1.591715	-8.829152	42.538086
06240	1.497466	-0.265951	9.703790	-0.010252	-0.003708	0.009561	1.000000	-0.000048	0.000018	0.000020	-1.591821	-8.828965	42.537179
06241	1.497207	-0.266926	9.703803	-0.009847	-0.004672	0.009561	1.000000	-0.000044	0.000007	0.000032	-1.591633	-8.830148	42.538470
06242	1.511793	-0.282662	9.676365	0.014950	-0.004404	-0.014871	1.000000	-0.000043	0.000013	0.000004	-1.590868	-8.830438	42.535704
06243	1.511511	-0.283580	9.676382	0.015354	-0.005366	-0.014872	1.000000	-0.000049	0.000016	0.000013	-1.590951	-8.830669	42.534764
06244	1.504937	-0.287591	9.718130	0.007690	-0.016095	0.025467	1.000000	-0.000047	0.000021	0.000027	-1.591668	-8.830206	42.532712
06245	1.503798	-0.302133	9.659915	0.024326	-0.022742	-0.031811	1.000000	-0.000049	0.000016	0.000013	-1.591751	-8.830437	42.531772
06246	1.524355	-0.253442	9.709519	0.000029	0.022936	0.019002	1.000000	-0.000047	0.000021	0.000027	-1.591925	-8.829714	42.530889
06247	1.464898	-0.256608	9.700597	-0.039952	-0.018357	0.001151	1.000000	-0.000049	0.000016	0.000013	-1.592007	-8.829945	42.529949
06248	1.501018	-0.270708	9.662266	0.000941	-0.001306	-0.030780	1.000000	-0.000048	0.000029	0.000025	-1.592543	-8.828311	42.527828
06249	1.492705	-0.240330	9.706297	-0.031252	0.012061	0.010602	1.000000	-0.000047	0.000021	0.000027	-1.592598	-8.827844	42.528502
06250	1.493948	-0.275729	9.704059	-0.006186	-0.013100	0.009556	1.000000	-0.000046	0.000014	0.000030	-1.592318	-8.828007	42.529862
06251	1.492949	-0.290227	9.645817	0.010433	-0.019716	-0.047729	1.000000	-0.000052	0.000010	-0.000001	-1.592427	-8.828934	42.527306
06252	1.484786	-0.259944	9.689829	-0.021801	-0.006251	-0.006341	1.000000	-0.000058	0.000025	0.000020	-1.594204	-8.827804	42.522914
06253	1.477383	-0.277485	9.673329	-0.013168	-0.022736	-0.023292	1.000000	-0.000036	0.000017	0.000035	-1.593179	-8.827787	42.524485
06254	1.514369	-0.277975	9.693238	0.011489	-0.000134	0.002063	1.000000	-0.000049	0.000016	0.000013	-1.593299	-8.828169	42.524543
06255	1.498481	-0.277568	9.662465	0.003743	-0.007941	-0.030783	1.000000	-0.000040	0.000019	0.000019	-1.592423	-8.828023	42.524190
06256	1.513626	-0.279808	9.693301	0.012272	-0.001988	0.002062	1.000000	-0.000047	0.000021	0.000027	-1.592907	-8.827378	42.521997
06257	1.474293	-0.246790	9.675741	-0.036210	-0.002317	-0.022228	1.000000	-0.000047	0.000021	0.000027	-1.592961	-8.826912	42.522670
06258	1.504236	-0.264003	9.679116	-0.003303	0.004715	-0.013826	1.000000	-0.000056	0.000018	0.000022	-1.593759	-8.827052	42.525467
06259	1.503900	-0.265079	9.679139	-0.002899	0.003753	-0.013825	1.000000	-0.000049	0.000016	0.000013	-1.593840	-8.827283	42.524526
06260	1.512197	-0.284022	9.693402	0.013925	-0.005900	0.002058	1.000000	-0.000055	0.000011	0.000025	-1.594555	-8.827868	42.524984
06261	1.503367	-0.267208	9.679163	-0.002052	0.001825	-0.013825	1.000000	-0.000049	0.000016	0.000013	-1.594636	-8.828099	42.524043
06262	1.516278	-0.248497	9.654030	-0.001913	0.026266	-0.037185	1.000000	-0.000038	0.000014	0.000028	-1.593585	-8.828565	42.526367
06263	1.502710	-0.269094	9.679213	-0.001256	-0.000119	-0.013824	1.000000	-0.000055	0.000021	0.000029	-1.594582	-8.828128	42.527259
06264	1.500804	-0.235744	9.681548	-0.025446	0.023142	-0.012729	1.000000	-0.000047	0.000011	0.000023	-1.594594	-8.828728	42.527041
06265	1.502156	-0.271130	9.679243	-0.000442	-0.002022	-0.013824	1.000000	-0.000047	0.000011	0.000023	-1.594539	-8.829436	42.527215
06266	1.516651	-0.286825	9.651797	0.024324	-0.001728	-0.038277	1.000000	-0.000040	0.000019	0.000019	-1.593714	-8.829108	42.525050
06267	1.486658	-0.258160	9.706767	-0.023961	-0.005148	0.010628	1.000000	-0.000047	0.000021	0.000027	-1.593767	-8.828643	42.525724
06268	1.501033	-0.274100	9.679333	0.000744	-0.004847	-0.013825	1.000000	-0.000063	0.000021	0.000031	-1.596023	-8.828290	42.525189
06269	1.507576	-0.258666	9.695938	-0.007064	0.009691	0.003155	1.000000	-0.000043	0.000023	0.000009	-1.595280	-8.827667	42.523722
06270	1.484659	-0.274810	9.648598	-0.006596	-0.013538	-0.046677	1.000000	-0.000056	0.000018	0.000022	-1.596291	-8.827369	42.523228
06271	1.535487	-0.242512	9.701687	0.001695	0.040020	0.012670	1.000000	-0.000050	0.000026	0.000018	-1.596478	-8.826427	42.522787
06272	1.499315	-0.278279	9.679480	0.002358	-0.008622	-0.013828	1.000000	-0.000048	0.000018	0.000020	-1.596863	-8.826231	42.520267
06273	1.507606	-0.297232	9.693721	0.019147	-0.018299	0.002034	1.000000	-0.000052	0.000006	0.000034	-1.597616	-8.827447	42.521773
06274	1.520541	-0.278660	9.668608	0.019279	0.006238	-0.021299	1.000000	-0.000051	0.000023	0.000011	-1.598111	-8.826732	42.518623
06275	1.513848	-0.282798	9.710352	0.011733	-0.004684	0.019021	1.000000	-0.000047	0.000021	0.000027	-1.598162	-8.826269	42.519296
06276	1.504973	-0.265797	9.696150	-0.004282	0.003112	0.003161	1.000000	-0.000039	0.000011	0.000021	-1.597474	-8.826937	42.517629
06277	1.497664	-0.283204	9.679593	0.004323	-0.013342	-0.013834	1.000000	-0.000047	0.000021	0.000027	-1.597525	-8.826474	42.518302
06278	1.495778	-0.249856	9.681972	-0.019842	0.009944	-0.012694	1.000000	-0.000055	0.000011	0.000025	-1.598491	-8.827007	42.516688
06279	1.503952	-0.268841	9.696224	-0.003051	0.000255	0.003162	1.000000	-0.000050	0.000026	0.000018	-1.598676	-8.826066	42.516246
06280	1.502026	-0.235427	9.698621	-0.027205	0.023546	0.004311	1.000000	-0.000047	0.000011	0.000023	-1.598688	-8.826521	42.513731
06281	1.509547	-0.267587	9.654575	0.005725	0.008347	-0.037154	1.000000	-0.000040	0.000019	0.000019	-1.597809	-8.826377	42.513379
06282	1.516199	-0.251995	9.671193	-0.002070	0.022847	-0.020149	1.000000	-0.000046	0.000014	0.000030	-1.597657	-8.826850	42.515077
06283	1.480951	-0.274343	9.707196	-0.017549	-0.020319	0.010622	1.000000	-0.000044	0.000007	0.000032	-1.597465	-8.828038	42.516364
06284	1.524191	-0.271938	9.685441	0.015178	0.012176	-0.004298	1.000000	-0.000058	0.000025	0.000020	-1.598343	-8.826941	42.517040
06285	1.509125	-0.258331	9.712934	-0.008744	0.009957	0.020172	1.000000	-0.000054	0.000001	0.000020	-1.599121	-8.828852	42.516929
06286	1.494933	-0.292278	9.679745	0.008037	-0.021941	-0.013852	1.000000	-0.000039	0.000022	0.000026	-1.598340	-8.828289	42.515880
06287	1.486174	-0.275324	9.665540	-0.007950	-0.014158	-0.029696	1.000000	-0.000054	0.000001	0.000020	-1.599118	-8.830200	42.515769
06288	1.514745	-0.258159	9.671258	0.000440	0.017111	-0.020137	1.000000	-0.000048	0.000018	0.000020	-1.599119	-8.829849	42.514969
06289	1.501187	-0.278727	9.696373	0.001097	-0.009335	0.003158	1.000000	-0.000039	0.000011	0.000021	-1.598117	-8.830531	42.514923
06290	1.521088	-0.243500	9.687916	-0.006933	0.030652	-0.003114	1.000000	-0.000051	0.000023	0.000011	-1.598263	-8.829954	42.514475
06291	1.522332	-0.278893	9.685536	0.018047	0.005466	-0.004297	1.000000	-0.000044	0.000007	0.000032	-1.598070	-8.831143	42.515761
06292	1.485413	-0.266794	9.723933	-0.021967	-0.013564	0.027630	1.000000	-0.000042	0.000026	0.000016	-1.596898	-8.830248	42.518739
06293	1.506128	-0.279329	9.654776	0.010682	-0.003231	-0.037156	1.000000	-0.000055	0.000011	0.000025	-1.597783	-8.830987	42.519129
06294	1.499580	-0.283594	9.696481	0.003155	-0.014236	0.003152	1.000000	-0.000049	0.000016	0.000013	-1.597823	-8.831300	42.519385
06295	1.514647	-0.286151	9.727332	0.011773	-0.008495	0.036009	1.000000	-0.000056	0.000028	0.000027	-1.598935	-8.830041	42.519969
06296	1.518859	-0.249551	9.688112	-0.004445	0.024765	-0.003096	1.000000	-0.000042	0.000026	0.000016	-1.597905	-8.829078	42.521906
06297	1.511468	-0.267022	9.671530	0.004139	0.008342	-0.020126	1.000000	-0.000057	0.000015	0.000015	-1.598923	-8.829338	42.521181
06298	1.519629	-0.286027	9.685752	0.020935	-0.001372	-0.004301	1.000000	-0.000043	0.000020	0.000044	-1.598892	-8.828977	42.522735
06299	1.458622	-0.254521	9.679147	-0.043725	-0.018283	-0.021058	1.000000	-0.000044	0.000020	0.000002	-1.598158	-8.828701	42.520460
06300	1.518178	-0.240209	9.746541	-0.018920	0.026330	0.054256	1.000000	-0.000046	0.000001	0.000018	-1.598005	-8.830589	42.520274
06301	1.490040	-0.306938	9.680046	0.014183	-0.036458	-0.013902	1.000000	-0.000040	0.000019	0.000019	-1.597123	-8.830447	42.519921
06302	1.510002	-0.271697	9.671629	0.006141	0.003553	-0.020125	1.000000	-0.000047	0.000011	0.000023	-1.597132	-8.831186	42.520195
06303	1.560888	-0.239545	9.724865	0.014564	0.056914	0.039384	1.000000	-0.000050	0.000026	0.000018	-1.597313	-8.830246	42.519753
06304	1.502968	-0.276924	9.713377	-0.000958	-0.008449	0.020177	1.000000	-0.000047	0.000011	0.000023	-1.597202	-8.830988	42.520654
06305	1.441355	-0.258597	9.648447	-0.049546	-0.030719	-0.053922	1.000000	-0.000039	0.000022	0.000026	-1.596306	-8.830499	42.521109
06306	1.462709	-0.257779	9.637619	-0.032984	-0.014938	-0.061361	1.000000	-0.000051	0.000023	0.000011	-1.596383	-8.829827	42.520176
06307	1.554766	-0.280941	9.764222	0.032881	0.018720	0.078461	1.000000	-0.000036	-0.000003	0.000026	-1.595139	-8.832163	42.520741
06308	1.470926	-0.277575	9.651796	-0.015780	-0.025651	-0.045553	1.000000	-0.000055	0.000011	0.000025	-1.595951	-8.832962	42.521896
06309	1.537341	-0.246970	9.735871	0.000897	0.034333	0.046847	1.000000	-0.000039	0.000022	0.000026	-1.595055	-8.832474	42.522351
06310	1.502832	-0.316973	9.711007	0.026089	-0.038485	0.018919	1.000000	-0.000053	0.000004	0.000027	-1.595733	-8.833892	42.522502
06311	1.490297	-0.244355	9.643451	-0.022973	0.012455	-0.051737	1.000000	-0.000040	0.000029	0.000023	-1.594957	-8.832578	42.522651
06312	1.507577	-0.268111	9.730169	-0.005842	-0.000754	0.037228	1.000000	-0.000055	0.000011	0.000025	-1.595869	-8.833407	42.523893
06313	1.485683	-0.331635	9.621908	0.035105	-0.053367	-0.071319	1.000000	-0.000045	0.000014	0.000030	-1.595795	-8.833773	42.524872
06314	1.520251	-0.250456	9.705174	-0.005295	0.022886	0.013998	1.000000	-0.000051	0.000023	0.000011	-1.596128	-8.833060	42.521945
06315	1.519867	-0.251305	9.705212	-0.004889	0.021921	0.014000	1.000000	-0.000033	0.000016	0.000010	-1.594315	-8.833236	42.520567
06316	1.496394	-0.280085	9.599436	0.011469	-0.006423	-0.093293	1.000000	-0.000036	0.000017	0.000035	-1.593347	-8.833248	42.522173
06317	1.510644	-0.235070	9.691112	-0.020491	0.028800	-0.001791	1.000000	-0.000059	0.000023	0.000013	-1.594482	-8.832682	42.521140
06318	1.482931	-0.288802	9.682865	-0.003512	-0.028588	-0.012711	1.000000	-0.000055	0.000021	0.000029	-1.595416	-8.832317	42.522596
06319	1.489451	-0.273380	9.699564	-0.011263	-0.014122	0.004360	1.000000	-0.000042	0.000026	0.000016	-1.594652	-8.831349	42.521937
06320	1.517656	-0.256166	9.705431	-0.002844	0.017090	0.014011	1.000000	-0.000051	0.000033	0.000016	-1.594841	-8.829459	42.521135
06321	1.511666	-0.308167	9.686319	0.030270	-0.023536	-0.004354	1.000000	-0.000064	0.000018	0.000024	-1.596784	-8.829402	42.521433
06322	1.488102	-0.276646	9.699679	-0.010005	-0.017014	0.004357	1.000000	-0.000048	0.000008	0.000016	-1.596659	-8.830402	42.520937
06323	1.508203	-0.241399	9.691336	-0.018018	0.023008	-0.001770	1.000000	-0.000039	0.000011	0.000021	-1.595654	-8.831087	42.520889
06324	1.479174	-0.260591	9.685532	-0.025567	-0.010120	-0.011430	1.000000	-0.000057	0.000012	0.000050	-1.597191	-8.831475	42.523981
06325	1.523918	-0.292656	9.661342	0.031670	-0.001823	-0.027572	1.000000	-0.000051	0.000023	0.000011	-1.597382	-8.830881	42.522731
06326	1.493956	-0.264386	9.716405	-0.016500	-0.005426	0.021438	1.000000	-0.000055	0.000011	0.000025	-1.598352	-8.831551	42.521784
06327	1.538129	-0.309460	9.633849	0.056760	-0.002396	-0.052081	1.000000	-0.000049	0.000016	0.000013	-1.598422	-8.831784	42.520840
06328	1.499683	-0.263041	9.674768	-0.007795	0.002765	-0.018847	1.000000	-0.000040	0.000019	0.000019	-1.597299	-8.831709	42.523222
06329	1.514738	-0.265559	9.705634	0.000875	0.008391	0.014022	1.000000	-0.000051	0.000023	0.000011	-1.597489	-8.831116	42.521972
06330	1.514316	-0.266712	9.705669	0.001270	0.007420	0.014023	1.000000	-0.000059	0.000019	0.000048	-1.599284	-8.830919	42.525695
06331	1.469608	-0.284323	9.669045	-0.014592	-0.032287	-0.028529	1.000000	-0.000042	0.000026	0.000016	-1.598518	-8.829952	42.525037
06332	1.526822	-0.248879	9.680753	0.001793	0.031065	-0.009161	1.000000	-0.000039	0.000011	0.000021	-1.597544	-8.830745	42.525912
06333	1.506135	-0.286093	9.689088	0.010608	-0.010890	-0.003075	1.000000	-0.000065	0.000025	0.000022	-1.599605	-8.829863	42.525904
06334	1.505600	-0.287187	9.689139	0.011038	-0.011862	-0.003077	1.000000	-0.000040	0.000029	0.000023	-1.598688	-8.828472	42.525947
06335	1.474760	-0.271930	9.685894	-0.021110	-0.020740	-0.011436	1.000000	-0.000056	0.000028	0.000027	-1.599793	-8.827217	42.526531
06336	1.533402	-0.271061	9.695084	0.019851	0.018381	0.006616	1.000000	-0.000038	0.000014	0.000028	-1.598838	-8.827503	42.526382
06337	1.510542	-0.286728	9.647601	0.020112	-0.004545	-0.043362	1.000000	-0.000045	0.000027	0.000042	-1.598853	-8.826357	42.528671
06338	1.516936	-0.271270	9.664360	0.012381	0.009895	-0.026254	1.000000	-0.000043	0.000033	0.000014	-1.598205	-8.824570	42.528330
06339	1.524859	-0.290218	9.678557	0.029198	0.000088	-0.010492	1.000000	-0.000047	0.000021	0.000027	-1.598247	-8.824114	42.529002
06340	1.492713	-0.240623	9.677846	-0.027527	0.015478	-0.017495	1.000000	-0.000060	0.000020	0.000006	-1.599571	-8.823972	42.526843
06341	1.500695	-0.259656	9.692030	-0.010709	0.005667	-0.001734	1.000000	-0.000040	0.000029	0.000023	-1.598790	-8.822661	42.526994
06342	1.517170	-0.296622	9.720342	0.022529	-0.013004	0.029780	1.000000	-0.000049	0.000016	0.000013	-1.598815	-8.822892	42.526517
06343	1.454828	-0.230656	9.716331	-0.066720	-0.005526	0.014435	1.000000	-0.000048	0.000018	0.000020	-1.598870	-8.822781	42.526380
06344	1.470006	-0.233369	9.747181	-0.058028	0.000071	0.047310	1.000000	-0.000056	0.000008	0.000018	-1.599867	-8.823788	42.524378
06345	1.478468	-0.252594	9.761281	-0.041207	-0.009753	0.063065	1.000000	-0.000062	-0.000010	0.000017	-1.601475	-8.826902	42.523969
06346	1.476431	-0.232358	9.705449	-0.049360	0.008393	0.007042	1.000000	-0.000053	0.000004	0.000027	-1.602334	-8.828341	42.523007
06347	1.491298	-0.248089	9.677875	-0.024689	0.008798	-0.017479	1.000000	-0.000054	-0.000009	0.000015	-1.602998	-8.831427	42.522383
06348	1.504773	-0.229406	9.652876	-0.024542	0.033450	-0.040622	1.000000	-0.000052	-0.000004	0.000030	-1.603545	-8.833771	42.523977
06349	1.497144	-0.259822	9.577759	-0.000051	0.011959	-0.115148	1.000000	-0.000053	0.000004	0.000027	-1.604302	-8.835342	42.524666
06350	1.519327	-0.246093	9.625323	0.000527	0.032896	-0.065140	1.000000	-0.000039	0.000021	0.000026	-1.603363	-8.834894	42.526317
06351	1.511840	-0.263371	9.608661	0.009049	0.016558	-0.082270	1.000000	-0.000048	0.000028	0.000025	-1.603522	-8.833613	42.526685
06352	1.497784	-0.284085	9.633687	0.009752	-0.010023	-0.059134	1.000000	-0.000039	0.000042	0.000035	-1.602740	-8.830656	42.526777
06353	1.519322	-0.270366	9.681357	0.010341	0.010903	-0.009123	1.000000	-0.000049	0.000049	0.000034	-1.603111	-8.827033	42.528154
06354	1.505161	-0.290926	9.706397	0.011035	-0.015685	0.014007	1.000000	-0.000019	0.000031	0.000043	-1.600260	-8.825365	42.529550
06355	1.517982	-0.272145	9.681517	0.011165	0.008985	-0.009122	1.000000	-0.000073	0.000025	0.000024	-1.603258	-8.824512	42.529756
06356	1.504042	-0.293101	9.706505	0.011853	-0.017609	0.014003	1.000000	-0.000039	0.000032	0.000030	-1.602454	-8.822802	42.530017
06357	1.518912	-0.295720	9.737405	0.020566	-0.012084	0.046878	1.000000	-0.000046	0.000024	0.000035	-1.602480	-8.822003	42.531497
06358	1.540231	-0.294989	9.726635	0.037123	0.003700	0.039488	1.000000	-0.000050	0.000026	0.000018	-1.602606	-8.821063	42.531661
06359	1.509470	-0.279695	9.723391	0.004964	-0.005139	0.031144	1.000000	-0.000050	0.000026	0.000018	-1.602777	-8.820126	42.531219
06360	1.530951	-0.279034	9.712597	0.021527	0.010665	0.023757	1.000000	-0.000056	0.000008	0.000018	-1.603674	-8.821114	42.529766
06361	1.522357	-0.262196	9.698482	0.005511	0.018589	0.008030	1.000000	-0.000064	0.000008	0.000019	-1.605505	-8.822231	42.529555
06362	1.471518	-0.283082	9.703374	-0.018251	-0.031259	0.005646	1.000000	-0.000043	0.000013	0.000004	-1.604565	-8.822700	42.527207
06363	1.514981	-0.280747	9.681742	0.014444	0.001295	-0.009122	1.000000	-0.000073	0.000005	0.000014	-1.607350	-8.824189	42.526403
06364	1.469842	-0.251037	9.705984	-0.041974	-0.008928	0.007076	1.000000	-0.000046	0.000001	0.000018	-1.607189	-8.826109	42.526493
06365	1.477646	-0.282916	9.661663	-0.009220	-0.023855	-0.034622	1.000000	-0.000046	0.000001	0.000018	-1.607016	-8.827996	42.526154
06366	1.504966	-0.231317	9.670229	-0.025264	0.031564	-0.023402	1.000000	-0.000037	0.000004	0.000023	-1.605748	-8.829383	42.525899
06367	1.543587	-0.266406	9.687600	0.024135	0.029558	0.000659	1.000000	-0.000027	-0.000000	0.000031	-1.603545	-8.831354	42.527051
06368	1.490712	-0.265302	9.636742	-0.008241	-0.001083	-0.057722	1.000000	-0.000027	0.000020	0.000040	-1.601437	-8.830953	42.529906
06369	1.512649	-0.251370	9.684391	-0.007609	0.019765	-0.007675	1.000000	-0.000029	0.000027	0.000038	-1.599565	-8.829757	42.531764
06370	1.519762	-0.283051	9.640173	0.025138	0.004863	-0.049385	1.000000	-0.000038	0.000044	0.000042	-1.598887	-8.826543	42.532878
06371	1.489395	-0.254643	9.695381	-0.022943	0.001088	-0.000296	1.000000	-0.000029	0.000027	0.000038	-1.597014	-8.825347	42.534736
06372	1.525413	-0.268183	9.657096	0.017835	0.018301	-0.032215	1.000000	-0.000034	0.000036	0.000019	-1.595485	-8.823229	42.534559
06373	1.496493	-0.274202	9.709636	-0.005722	-0.009747	0.015414	1.000000	-0.000043	0.000033	0.000014	-1.594832	-8.821437	42.533597
06374	1.509188	-0.255435	9.684824	-0.005589	0.014962	-0.007665	1.000000	-0.000060	0.000040	0.000015	-1.596130	-8.818865	42.532896
06375	1.486708	-0.258379	9.695695	-0.021332	-0.002763	-0.000293	1.000000	-0.000061	0.000027	0.000003	-1.597386	-8.817816	42.530747
06376	1.538248	-0.274257	9.688230	0.027801	0.020898	0.000672	1.000000	-0.000069	0.000027	0.000005	-1.599658	-8.816694	42.526254
06377	1.508084	-0.246392	9.743397	-0.020266	0.017099	0.049773	1.000000	-0.000062	0.000024	-0.000004	-1.600927	-8.815989	42.523295
06378	1.492202	-0.245917	9.712588	-0.028180	0.009705	0.016892	1.000000	-0.000074	0.000026	-0.000018	-1.603161	-8.815117	42.518739
06379	1.497380	-0.196569	9.732074	-0.060373	0.048351	0.035564	1.000000	-0.000065	0.000015	0.000017	-1.605107	-8.815408	42.518222
06380	1.454378	-0.248459	9.692558	-0.051872	-0.015411	-0.008622	1.000000	-0.000057	0.000005	0.000011	-1.605986	-8.816928	42.518119
06381	1.467698	-0.229918	9.667669	-0.051748	0.009322	-0.031683	1.000000	-0.000073	0.000005	0.000014	-1.608768	-8.818418	42.517311
06382	1.476539	-0.236614	9.740151	-0.050791	0.004410	0.041454	1.000000	-0.000064	0.000008	0.000019	-1.610573	-8.819500	42.516454
06383	1.497827	-0.248810	9.670903	-0.018355	0.015235	-0.023347	1.000000	-0.000050	-0.000011	0.000032	-1.611089	-8.822729	42.517745
06384	1.504985	-0.233420	9.687634	-0.026011	0.029591	-0.006151	1.000000	-0.000033	-0.000008	0.000035	-1.609555	-8.825541	42.520164
06385	1.534581	-0.263457	9.632473	0.022849	0.031493	-0.055261	1.000000	-0.000053	0.000014	0.000032	-1.610413	-8.825945	42.521354
06386	1.527950	-0.268032	9.674120	0.015468	0.020165	-0.015013	1.000000	-0.000040	0.000005	0.000049	-1.610053	-8.827221	42.522702
06387	1.519360	-0.250867	9.660058	-0.000559	0.028146	-0.030698	1.000000	-0.000042	0.000012	0.000046	-1.609824	-8.827739	42.525599
06388	1.478660	-0.311207	9.734670	0.000699	-0.049965	0.038434	1.000000	-0.000029	0.000027	0.000038	-1.607829	-8.826585	42.528558
06389	1.484505	-0.308488	9.693092	0.008895	-0.040546	-0.001815	1.000000	-0.000047	0.000031	0.000032	-1.607968	-8.824965	42.529735
06390	1.491148	-0.293263	9.709901	0.001229	-0.026188	0.015386	1.000000	-0.000053	0.000003	0.000027	-1.608693	-8.826539	42.530210
06391	1.463556	-0.346719	9.701162	0.018059	-0.083518	0.004005	1.000000	-0.000047	0.000011	0.000023	-1.608623	-8.827257	42.530374
06392	1.519039	-0.290046	9.657468	0.025999	-0.000953	-0.032216	1.000000	-0.000055	0.000011	0.000025	-1.609414	-8.827901	42.529654
06393	1.489984	-0.309194	9.651462	0.018319	-0.034001	-0.042074	1.000000	-0.000055	0.000011	0.000025	-1.610284	-8.828648	42.530034
06394	1.563574	-0.323060	9.633174	0.083616	0.006381	-0.048460	1.000000	-0.000040	0.000019	0.000019	-1.609364	-8.828486	42.529482
06395	1.532087	-0.260764	9.691116	0.011081	0.026801	0.002209	1.000000	-0.000073	0.000025	0.000024	-1.612353	-8.827636	42.529686
06396	1.527360	-0.346988	9.668868	0.068564	-0.038044	-0.018093	1.000000	-0.000042	0.000026	0.000016	-1.611501	-8.826661	42.529375
06397	1.495186	-0.297020	9.668410	0.011879	-0.022533	-0.024873	1.000000	-0.000040	0.000032	-0.000012	-1.610060	-8.825041	42.525468
06398	1.501509	-0.281647	9.685291	0.004218	-0.008188	-0.007656	1.000000	-0.000054	0.000037	0.000006	-1.610448	-8.822826	42.524690
06399	1.487428	-0.302560	9.710187	0.004907	-0.034886	0.015358	1.000000	-0.000053	0.000027	0.000001	-1.610757	-8.821749	42.522326
06400	1.544484	-0.267426	9.722314	0.021495	0.028298	0.035108	1.000000	-0.000039	0.000035	-0.000005	-1.609245	-8.819811	42.520365
06401	1.506677	-0.268273	9.702300	-0.002627	0.004223	0.009565	1.000000	-0.000057	0.000025	0.000020	-1.610351	-8.818905	42.520138
06402	1.521668	-0.270981	9.733194	0.006172	0.009608	0.042456	1.000000	-0.000027	0.000014	0.000001	-1.607603	-8.819274	42.515538
06403	1.504440	-0.235600	9.705154	-0.026298	0.026591	0.011134	1.000000	-0.000063	0.000034	0.000001	-1.608972	-8.817398	42.513085
06404	1.510997	-0.220291	9.722014	-0.033941	0.040944	0.028368	1.000000	-0.000036	0.000011	-0.000004	-1.607198	-8.818188	42.508456
06405	1.497182	-0.241019	9.746864	-0.033249	0.014230	0.051374	1.000000	-0.000049	0.000026	0.000018	-1.607362	-8.817254	42.508014
06406	1.464689	-0.203880	9.687955	-0.074086	0.024887	-0.012828	1.000000	-0.000047	0.000011	0.000023	-1.607137	-8.817951	42.509099
06407	1.472925	-0.222959	9.701995	-0.057242	0.014943	0.002832	1.000000	-0.000041	0.000002	0.000042	-1.606802	-8.819644	42.511487
06408	1.489575	-0.260164	9.730064	-0.023930	-0.004002	0.034143	1.000000	-0.000044	0.000007	0.000032	-1.606438	-8.820781	42.512820
06409	1.479215	-0.221343	9.660346	-0.048642	0.023468	-0.037390	1.000000	-0.000053	-0.000000	0.000062	-1.607841	-8.822675	42.517560
06410	1.488987	-0.274847	9.671563	-0.007291	-0.010765	-0.023327	1.000000	-0.000032	-0.000005	0.000042	-1.606384	-8.825095	42.519122
06411	1.531165	-0.237903	9.652812	0.000932	0.046102	-0.036404	1.000000	-0.000052	0.000016	0.000039	-1.607225	-8.825162	42.521120
06412	1.517391	-0.258665	9.677638	0.001639	0.019358	-0.013418	1.000000	-0.000026	0.000013	0.000043	-1.604963	-8.825636	42.524908
06413	1.509986	-0.275635	9.660853	0.010089	0.003104	-0.030663	1.000000	-0.000036	0.000027	0.000040	-1.604027	-8.824477	42.526983
06414	1.517733	-0.294536	9.674958	0.026949	-0.006850	-0.015020	1.000000	-0.000030	0.000035	0.000035	-1.602232	-8.822385	42.527062
06415	1.515783	-0.260909	9.677830	0.002867	0.016476	-0.013413	1.000000	-0.000038	0.000024	0.000033	-1.601309	-8.821567	42.528327
06416	1.481289	-0.317845	9.710637	0.011900	-0.051328	0.015280	1.000000	-0.000048	0.000028	0.000025	-1.601390	-8.820271	42.528506
06417	1.472532	-0.300687	9.696638	-0.004140	-0.043289	-0.000365	1.000000	-0.000047	0.000011	0.000023	-1.601316	-8.820992	42.528668
06418	1.501019	-0.283888	9.702733	0.004398	-0.012215	0.009558	1.000000	-0.000074	0.000026	-0.000018	-1.603499	-8.820167	42.525478
06419	1.522625	-0.283405	9.691972	0.020957	0.003594	0.002229	1.000000	-0.000059	-0.000000	-0.000004	-1.604418	-8.822282	42.522614
06420	1.507488	-0.270008	9.719589	-0.002816	0.001145	0.026815	1.000000	-0.000052	0.000030	0.000009	-1.604685	-8.820764	42.519270
06421	1.535302	-0.265942	9.667250	0.021493	0.027458	-0.020732	1.000000	-0.000086	0.000023	0.000002	-1.608767	-8.820140	42.516953
06422	1.514327	-0.303586	9.675212	0.030231	-0.014577	-0.015038	1.000000	-0.000069	0.000027	0.000005	-1.610885	-8.819108	42.515233
06423	1.497694	-0.255995	9.705681	-0.018036	0.007255	0.011186	1.000000	-0.000061	0.000017	-0.000001	-1.612026	-8.819227	42.512575
06424	1.475319	-0.258944	9.716485	-0.033796	-0.010471	0.018510	1.000000	-0.000061	0.000037	0.000008	-1.613460	-8.816996	42.509744
06425	1.488198	-0.240143	9.691784	-0.033681	0.014359	-0.004438	1.000000	-0.000049	0.000026	0.000018	-1.613621	-8.816064	42.509301
06426	1.496098	-0.259297	9.705839	-0.016828	0.004375	0.011190	1.000000	-0.000043	0.000019	0.000044	-1.613504	-8.815757	42.511703
06427	1.495827	-0.260255	9.705855	-0.016424	0.003411	0.011191	1.000000	-0.000044	0.000007	0.000032	-1.613298	-8.816967	42.512977
06428	1.518681	-0.293696	9.692285	0.024627	-0.005081	0.002219	1.000000	-0.000029	0.000027	0.000038	-1.611340	-8.815762	42.515051
06429	1.518303	-0.294504	9.692319	0.025031	-0.006045	0.002218	1.000000	-0.000043	0.000009	0.000039	-1.611121	-8.816631	42.517135
06430	1.518066	-0.295292	9.692332	0.025446	-0.007003	0.002216	1.000000	-0.000026	0.000013	0.000043	-1.608992	-8.817024	42.518000
06431	1.509386	-0.277835	9.678359	0.009402	0.001065	-0.013403	1.000000	-0.000035	0.000020	0.000042	-1.607937	-8.816697	42.520378
06432	1.481954	-0.318405	9.727903	0.010393	-0.051513	0.032459	1.000000	-0.000027	0.000020	0.000040	-1.605936	-8.816295	42.521474
06433	1.502048	-0.283098	9.720058	0.002484	-0.011405	0.026809	1.000000	-0.000047	0.000021	0.000027	-1.605964	-8.815849	42.522144
06434	1.494730	-0.300191	9.703213	0.010924	-0.027640	0.009522	1.000000	-0.000035	0.000010	0.000037	-1.604718	-8.816666	42.524293
06435	1.486334	-0.282882	9.689195	-0.005123	-0.019565	-0.006093	1.000000	-0.000049	-0.000005	0.000004	-1.604564	-8.819238	42.522324
06436	1.515988	-0.312923	9.633937	0.043636	-0.017494	-0.055297	1.000000	-0.000067	0.000009	0.000003	-1.606509	-8.820232	42.521015
06437	1.521470	-0.263575	9.653678	0.011551	0.021104	-0.036325	1.000000	-0.000060	0.000010	0.000001	-1.607529	-8.821177	42.518657
06438	1.505877	-0.262744	9.622817	0.003526	0.013930	-0.069223	1.000000	-0.000061	0.000017	-0.000001	-1.608623	-8.821283	42.516292
06439	1.498963	-0.267748	9.664456	-0.003795	0.002401	-0.029014	1.000000	-0.000070	0.000024	-0.000002	-1.610818	-8.820601	42.513546
06440	1.488800	-0.216371	9.653400	-0.044310	0.034803	-0.042923	1.000000	-0.000053	0.000027	0.000001	-1.611160	-8.819485	42.510141
06441	1.483080	-0.255539	9.692175	-0.027161	-0.001038	-0.004408	1.000000	-0.000053	0.000027	0.000001	-1.611461	-8.818406	42.507777
06442	1.482590	-0.256563	9.692223	-0.026753	-0.002008	-0.004407	1.000000	-0.000051	0.000023	0.000011	-1.611583	-8.817824	42.507226
06443	1.474350	-0.226952	9.736765	-0.058531	0.010746	0.037504	1.000000	-0.000049	0.000016	0.000013	-1.611636	-8.818060	42.506274
06444	1.510660	-0.240712	9.698440	-0.017780	0.028085	0.005596	1.000000	-0.000057	0.000025	0.000020	-1.612643	-8.817125	42.506260
06445	1.496766	-0.261657	9.723190	-0.017081	0.001282	0.028497	1.000000	-0.000039	0.000011	0.000021	-1.611626	-8.817821	42.506206
06446	1.510008	-0.242515	9.698497	-0.016971	0.026149	0.005602	1.000000	-0.000036	0.000017	0.000035	-1.610550	-8.817871	42.508983
06447	1.518030	-0.261514	9.712505	-0.000110	0.016122	0.021198	1.000000	-0.000034	0.000012	0.000045	-1.609376	-8.818375	42.511662
06448	1.510796	-0.278478	9.695626	0.008307	-0.000081	0.003888	1.000000	-0.000035	0.000010	0.000037	-1.608201	-8.819184	42.512936
06449	1.510662	-0.279336	9.695622	0.008712	-0.001045	0.003887	1.000000	-0.000041	0.000002	0.000042	-1.607864	-8.820884	42.515319
06450	1.502169	-0.262078	9.681645	-0.007334	0.007058	-0.011701	1.000000	-0.000045	0.000014	0.000030	-1.607735	-8.821251	42.516269
06451	1.503272	-0.297413	9.678728	0.017529	-0.018212	-0.013431	1.000000	-0.000044	0.000007	0.000032	-1.607528	-8.822464	42.517540
06452	1.473008	-0.281901	9.675470	-0.014686	-0.026875	-0.021722	1.000000	-0.000046	0.000001	0.000018	-1.607375	-8.824324	42.516300
06453	1.503199	-0.299381	9.678679	0.018336	-0.020130	-0.013436	1.000000	-0.000052	-0.000004	0.000029	-1.608004	-8.826733	42.517275
06454	1.503285	-0.300470	9.678632	0.018749	-0.021088	-0.013439	1.000000	-0.000053	-0.000007	0.000022	-1.608627	-8.829421	42.516569
06455	1.510333	-0.285329	9.695499	0.011155	-0.006821	0.003882	1.000000	-0.000046	0.000001	0.000018	-1.608445	-8.831314	42.516219
06456	1.530208	-0.262538	9.629202	0.018974	0.028714	-0.059185	1.000000	-0.000052	0.000020	0.000004	-1.608575	-8.831019	42.513658
06457	1.472593	-0.287008	9.675383	-0.012652	-0.031677	-0.021734	1.000000	-0.000049	0.000016	0.000013	-1.608626	-8.831255	42.512706
06458	1.508791	-0.300682	9.637065	0.028076	-0.014309	-0.053646	1.000000	-0.000053	0.000037	0.000006	-1.608953	-8.829029	42.512156
06459	1.500382	-0.271235	9.681670	-0.003671	-0.001603	-0.011696	1.000000	-0.000060	0.000020	0.000006	-1.610074	-8.828805	42.510307
06460	1.514692	-0.286576	9.654088	0.020898	-0.001000	-0.036318	1.000000	-0.000034	0.000036	0.000019	-1.608430	-8.826587	42.508872
06461	1.499071	-0.273070	9.681821	-0.002853	-0.003524	-0.011697	1.000000	-0.000056	0.000042	-0.000003	-1.608961	-8.823851	42.505906
06462	1.513164	-0.288528	9.654270	0.021718	-0.002918	-0.036320	1.000000	-0.000053	0.000037	0.000006	-1.609319	-8.821528	42.502878
06463	1.533434	-0.241058	9.705119	-0.001843	0.041776	0.015696	1.000000	-0.000046	0.000038	0.000004	-1.608780	-8.819252	42.500810
06464	1.512182	-0.278074	9.712957	0.006847	-0.000290	0.021209	1.000000	-0.000043	0.000033	0.000014	-1.608107	-8.817473	42.500300
06465	1.488498	-0.246311	9.726699	-0.033360	0.006275	0.030270	1.000000	-0.000040	0.000019	0.000019	-1.607204	-8.817342	42.499945
06466	1.474524	-0.267224	9.751407	-0.032645	-0.020580	0.053117	1.000000	-0.000051	0.000023	0.000011	-1.607319	-8.816716	42.498298
06467	1.509614	-0.246394	9.716052	-0.016374	0.021127	0.022993	1.000000	-0.000039	0.000011	0.000021	-1.606300	-8.817414	42.498243
06468	1.465655	-0.250881	9.737490	-0.048289	-0.013407	0.037556	1.000000	-0.000054	0.000011	0.000025	-1.607138	-8.818127	42.498043
06469	1.495778	-0.268302	9.740708	-0.015256	-0.006696	0.045835	1.000000	-0.000033	-0.000008	0.000035	-1.605755	-8.820970	42.499700
06470	1.494212	-0.247035	9.685118	-0.023632	0.012131	-0.009907	1.000000	-0.000042	-0.000011	0.000030	-1.605303	-8.824187	42.501438
06471	1.509204	-0.262331	9.657427	0.000916	0.012749	-0.034536	1.000000	-0.000044	-0.000004	0.000028	-1.604990	-8.826570	42.502198
06472	1.486027	-0.230651	9.671109	-0.039275	0.019311	-0.025456	1.000000	-0.000045	0.000004	0.000025	-1.604694	-8.828101	42.503231
06473	1.517401	-0.282538	9.671331	0.018202	0.001703	-0.018983	1.000000	-0.000053	0.000003	0.000027	-1.605437	-8.829684	42.503903
06474	1.516880	-0.295740	9.612786	0.034264	-0.003757	-0.076526	1.000000	-0.000037	0.000004	0.000023	-1.604270	-8.831168	42.503505
06475	1.517453	-0.272218	9.729868	0.003370	0.004273	0.038559	1.000000	-0.000057	0.000025	0.000020	-1.605363	-8.830267	42.503277
06476	1.516221	-0.297698	9.612829	0.035070	-0.005682	-0.076529	1.000000	-0.000039	0.000011	0.000021	-1.604278	-8.830992	42.504222
06477	1.485988	-0.269970	9.668186	-0.012804	-0.009821	-0.027259	1.000000	-0.000060	0.000040	0.000015	-1.605603	-8.828434	42.503393
06478	1.507600	-0.257103	9.716088	-0.011868	0.010480	0.023016	1.000000	-0.000052	0.000030	0.000009	-1.605827	-8.826999	42.502142
06479	1.469823	-0.257837	9.695978	-0.036126	-0.013342	-0.002623	1.000000	-0.000059	0.000033	0.000017	-1.607036	-8.825270	42.501613
06480	1.506380	-0.259319	9.716218	-0.011044	0.008545	0.023019	1.000000	-0.000048	0.000028	0.000025	-1.607106	-8.823963	42.501802
06481	1.492344	-0.280350	9.740896	-0.010336	-0.018342	0.045826	1.000000	-0.000053	0.000017	-0.000003	-1.607296	-8.824049	42.498927
06482	1.483895	-0.263227	9.726959	-0.026380	-0.010177	0.030288	1.000000	-0.000058	-0.000001	0.000038	-1.608765	-8.826073	42.499752
06483	1.512585	-0.246732	9.733204	-0.017773	0.020835	0.040398	1.000000	-0.000075	0.000019	0.000009	-1.611761	-8.825907	42.498327
06484	1.498236	-0.280192	9.699307	-0.001429	-0.010503	0.005646	1.000000	-0.000049	0.000016	0.000013	-1.611781	-8.826092	42.496636
06485	1.489659	-0.262907	9.685401	-0.017496	-0.002328	-0.009887	1.000000	-0.000045	0.000014	0.000030	-1.611686	-8.826482	42.497605
06486	1.534774	-0.282637	9.719528	0.024062	0.010399	0.031293	1.000000	-0.000056	0.000018	0.000022	-1.612623	-8.826385	42.497929
06487	1.512122	-0.297563	9.671708	0.023918	-0.011790	-0.019002	1.000000	-0.000040	0.000019	0.000019	-1.611718	-8.826256	42.497573
06488	1.481643	-0.281951	9.668511	-0.008309	-0.020392	-0.027271	1.000000	-0.000045	0.000014	0.000030	-1.611612	-8.826582	42.497462
06489	1.518799	-0.283450	9.688665	0.016775	0.001471	-0.001620	1.000000	-0.000055	-0.000016	0.000043	-1.612932	-8.830343	42.500056
06490	1.466671	-0.269551	9.696137	-0.031628	-0.023917	-0.002627	1.000000	-0.000022	0.000025	0.000029	-1.610152	-8.829439	42.500074
06491	1.510064	-0.266853	9.674774	0.001113	0.008703	-0.017144	1.000000	-0.000054	0.000011	0.000025	-1.611009	-8.830195	42.500445
06492	1.548354	-0.302529	9.691899	0.050648	0.006222	0.006642	1.000000	-0.000030	0.000002	0.000014	-1.608863	-8.831969	42.499152
06493	1.502792	-0.284465	9.657800	0.009891	-0.008397	-0.034536	1.000000	-0.000031	0.000012	0.000019	-1.606901	-8.832640	42.498883
06494	1.487566	-0.270951	9.685501	-0.013823	-0.010994	-0.009887	1.000000	-0.000046	0.000024	0.000035	-1.606823	-8.831908	42.502417
06495	1.502013	-0.286266	9.657868	0.010700	-0.010334	-0.034539	1.000000	-0.000048	0.000018	0.000020	-1.606856	-8.831808	42.502274
06496	1.486751	-0.273005	9.685569	-0.013005	-0.012915	-0.009888	1.000000	-0.000055	0.000021	0.000029	-1.607783	-8.831332	42.502298
06497	1.486178	-0.274103	9.685626	-0.012601	-0.013877	-0.009889	1.000000	-0.000053	0.000037	0.000006	-1.608177	-8.829084	42.500446
06498	1.469144	-0.238540	9.657864	-0.045140	0.003490	-0.040913	1.000000	-0.000045	0.000014	0.000030	-1.608041	-8.829446	42.501501
06499	1.529139	-0.272734	9.664307	0.020553	0.017784	-0.024391	1.000000	-0.000065	0.000015	0.000017	-1.609965	-8.829741	42.500973
06500	1.498459	-0.257459	9.661144	-0.011693	0.009198	-0.032650	1.000000	-0.000060	0.000040	0.000015	-1.611303	-8.827199	42.501532
06501	1.535021	-0.259027	9.681407	0.013412	0.031023	-0.006981	1.000000	-0.000052	0.000020	0.000004	-1.611476	-8.826946	42.499467
06502	1.512694	-0.261878	9.692134	-0.002348	0.013267	0.000268	1.000000	-0.000057	0.000025	0.000020	-1.612553	-8.826015	42.499015
06503	1.482367	-0.234361	9.747548	-0.050168	0.009031	0.049586	1.000000	-0.000051	0.000033	0.000016	-1.612817	-8.824258	42.498274
06504	1.488411	-0.231395	9.706038	-0.042115	0.018882	0.009428	1.000000	-0.000049	0.000026	0.000018	-1.612920	-8.823267	42.496889
06505	1.504455	-0.268913	9.733876	-0.008754	-0.000440	0.040432	1.000000	-0.000039	0.000021	0.000026	-1.612000	-8.822802	42.497345
06506	1.502805	-0.235382	9.737020	-0.032765	0.022935	0.042351	1.000000	-0.000040	0.000019	0.000019	-1.611125	-8.822649	42.496550
06507	1.495602	-0.252339	9.720029	-0.024422	0.006815	0.024935	1.000000	-0.000046	0.000001	0.000018	-1.610938	-8.824545	42.496193
06508	1.510160	-0.267700	9.692370	0.000100	0.007495	0.000275	1.000000	-0.000055	0.000031	0.000034	-1.611966	-8.822929	42.497524
06509	1.464909	-0.237893	9.716850	-0.056253	-0.002724	0.016685	1.000000	-0.000041	-0.000008	0.000037	-1.611522	-8.825808	42.499388
06510	1.494567	-0.267422	9.661476	-0.007625	-0.000393	-0.032641	1.000000	-0.000044	0.000016	0.000037	-1.611355	-8.825814	42.500927
06511	1.509511	-0.270640	9.692390	0.001326	0.004603	0.000277	1.000000	-0.000045	0.000014	0.000030	-1.611257	-8.826207	42.501895
06512	1.509231	-0.271688	9.692404	0.001754	0.003638	0.000277	1.000000	-0.000053	0.000013	0.000032	-1.611999	-8.826529	42.501768
06513	1.523886	-0.287028	9.664723	0.026261	0.004327	-0.024389	1.000000	-0.000048	0.000008	0.000016	-1.611927	-8.827596	42.501112
06514	1.508743	-0.273797	9.692420	0.002569	0.001712	0.000277	1.000000	-0.000056	0.000018	0.000022	-1.612880	-8.827492	42.501305
06515	1.494335	-0.306957	9.658424	0.018829	-0.029534	-0.034590	1.000000	-0.000047	0.000021	0.000027	-1.612898	-8.827056	42.501974
06516	1.492800	-0.273742	9.661572	-0.005154	-0.006156	-0.032641	1.000000	-0.000067	0.000009	0.000003	-1.614738	-8.827930	42.498003
06517	1.507812	-0.277078	9.692472	0.003805	-0.001181	0.000277	1.000000	-0.000037	0.000014	0.000028	-1.613701	-8.828295	42.498758
06518	1.485556	-0.279748	9.703175	-0.011957	-0.018945	0.007508	1.000000	-0.000051	0.000023	0.000011	-1.613823	-8.827682	42.497620
06519	1.507039	-0.279068	9.692535	0.004620	-0.003111	0.000276	1.000000	-0.000056	0.000018	0.000022	-1.614792	-8.827612	42.497690
06520	1.506603	-0.280068	9.692574	0.005042	-0.004080	0.000276	1.000000	-0.000041	0.000026	0.000016	-1.613904	-8.826600	42.496604
06521	1.469323	-0.268486	9.730987	-0.034823	-0.023508	0.032177	1.000000	-0.000049	0.000026	0.000018	-1.614049	-8.825673	42.496162
06522	1.512528	-0.266066	9.709711	-0.002051	0.009143	0.017721	1.000000	-0.000059	0.000033	0.000017	-1.615260	-8.823794	42.492644
06523	1.505129	-0.283166	9.692713	0.006271	-0.006953	0.000273	1.000000	-0.000044	0.000006	0.000032	-1.615046	-8.825017	42.493910
06524	1.504942	-0.284045	9.692716	0.006685	-0.007928	0.000272	1.000000	-0.000039	0.000011	0.000021	-1.613930	-8.825723	42.495028
06525	1.504644	-0.284945	9.692736	0.007089	-0.008892	0.000271	1.000000	-0.000048	0.000018	0.000020	-1.613959	-8.825625	42.494884
06526	1.489493	-0.271662	9.720446	-0.016590	-0.011526	0.024947	1.000000	-0.000048	0.000008	0.000016	-1.613873	-8.826648	42.493800
06527	1.524883	-0.250856	9.685255	-0.000319	0.030332	-0.004964	1.000000	-0.000056	0.000008	0.000017	-1.614738	-8.827744	42.493355
06528	1.503914	-0.287956	9.692761	0.008324	-0.011780	0.000267	1.000000	-0.000039	0.000021	0.000026	-1.613747	-8.827209	42.492497
06529	1.503631	-0.288923	9.692776	0.008728	-0.012744	0.000266	1.000000	-0.000052	0.000006	0.000034	-1.614471	-8.828462	42.493974
06530	1.473222	-0.273402	9.689593	-0.023521	-0.021282	-0.007977	1.000000	-0.000050	0.000023	0.000011	-1.614570	-8.827842	42.492989
06531	1.501829	-0.256603	9.695993	-0.014850	0.009675	0.002266	1.000000	-0.000044	0.000006	0.000032	-1.614355	-8.829066	42.494254
06532	1.509962	-0.275739	9.709840	0.002061	-0.000516	0.017725	1.000000	-0.000030	0.000002	0.000014	-1.612244	-8.830792	42.491453
06533	1.494568	-0.274127	9.678947	-0.006116	-0.007360	-0.015198	1.000000	-0.000037	0.000014	0.000028	-1.611204	-8.831158	42.492207
06534	1.493105	-0.240657	9.682156	-0.030099	0.016031	-0.013184	1.000000	-0.000046	0.000011	0.000023	-1.611091	-8.831862	42.492480
06535	1.515910	-0.274151	9.668324	0.010875	0.007517	-0.022414	1.000000	-0.000040	0.000019	0.000019	-1.610179	-8.831736	42.492125
06536	1.500659	-0.260814	9.696062	-0.012778	0.004867	0.002272	1.000000	-0.000048	0.000018	0.000020	-1.610119	-8.831529	42.490566
06537	1.515204	-0.275968	9.668383	0.011705	0.005595	-0.022413	1.000000	-0.000041	0.000016	0.000011	-1.609220	-8.831738	42.489398
06538	1.536663	-0.275125	9.657771	0.028297	0.021445	-0.029625	1.000000	-0.000048	0.000028	0.000025	-1.609359	-8.830390	42.488651
06539	1.492493	-0.279648	9.679109	-0.003658	-0.013119	-0.015202	1.000000	-0.000051	0.000010	-0.000001	-1.609423	-8.831300	42.486071
06540	1.490848	-0.246460	9.682358	-0.027633	0.010271	-0.013169	1.000000	-0.000065	0.000035	0.000026	-1.611491	-8.829248	42.486750
06541	1.476732	-0.267738	9.706887	-0.026918	-0.016746	0.009485	1.000000	-0.000048	0.000008	0.000016	-1.611414	-8.830316	42.486091
06542	1.542119	-0.263519	9.674953	0.022030	0.032703	-0.012140	1.000000	-0.000058	0.000023	0.000013	-1.612515	-8.829700	42.484921
06543	1.520147	-0.254503	9.744251	-0.009220	0.019079	0.052686	1.000000	-0.000048	0.000018	0.000020	-1.612541	-8.829604	42.484777
06544	1.511604	-0.237215	9.730439	-0.025299	0.027366	0.037250	1.000000	-0.000057	0.000015	0.000015	-1.613476	-8.829857	42.484579
06545	1.497224	-0.270343	9.696332	-0.009110	-0.003796	0.002277	1.000000	-0.000055	0.000021	0.000029	-1.614428	-8.829454	42.485459
06546	1.482042	-0.257180	9.724063	-0.032772	-0.006464	0.026971	1.000000	-0.000048	0.000008	0.000016	-1.614348	-8.830490	42.484614
06547	1.524590	-0.220170	9.705995	-0.024388	0.050537	0.014624	1.000000	-0.000036	-0.000003	0.000026	-1.613090	-8.832852	42.485151
06548	1.490002	-0.277303	9.737884	-0.015449	-0.017659	0.042404	1.000000	-0.000047	0.000021	0.000027	-1.613031	-8.832327	42.484118
06549	1.496296	-0.274218	9.696367	-0.007470	-0.007646	0.002276	1.000000	-0.000056	0.000018	0.000022	-1.613995	-8.832259	42.484186
06550	1.495973	-0.275196	9.696389	-0.007055	-0.008612	0.002276	1.000000	-0.000037	0.000014	0.000028	-1.612898	-8.832589	42.484616
06551	1.502312	-0.272010	9.654870	0.000920	0.001413	-0.037851	1.000000	-0.000055	0.000021	0.000029	-1.613850	-8.832186	42.485496
06552	1.509030	-0.257010	9.671967	-0.006541	0.015532	-0.020350	1.000000	-0.000040	0.000009	0.000014	-1.612724	-8.833176	42.484395
06553	1.517028	-0.276279	9.685797	0.010357	0.005293	-0.004924	1.000000	-0.000046	0.000011	0.000023	-1.612634	-8.833909	42.484548
06554	1.516775	-0.277247	9.685809	0.010787	0.004320	-0.004924	1.000000	-0.000045	0.000014	0.000030	-1.612387	-8.834237	42.484597
06555	1.516384	-0.278314	9.685839	0.011191	0.003356	-0.004924	1.000000	-0.000057	0.000025	0.000020	-1.613464	-8.833340	42.484367
06556	1.500674	-0.276905	9.654985	0.002988	-0.003409	-0.037851	1.000000	-0.000041	0.000026	0.000016	-1.612603	-8.832347	42.483853
06557	1.493568	-0.282086	9.696561	-0.004172	-0.015380	0.002269	1.000000	-0.000057	0.000015	0.000015	-1.613578	-8.832615	42.483108
06558	1.500305	-0.267274	9.713660	-0.011636	-0.001267	0.019780	1.000000	-0.000058	0.000013	0.000008	-1.614526	-8.833188	42.481958
06559	1.506730	-0.264153	9.672133	-0.003671	0.008786	-0.020340	1.000000	-0.000049	0.000016	0.000013	-1.614562	-8.833428	42.481001
06560	1.484518	-0.266908	9.682789	-0.019440	-0.008986	-0.013148	1.000000	-0.000049	0.000016	0.000013	-1.614538	-8.833638	42.480086
06561	1.514243	-0.284442	9.685996	0.013644	-0.002435	-0.004927	1.000000	-0.000039	0.000021	0.000026	-1.613610	-8.833178	42.480543
06562	1.505659	-0.266877	9.672225	-0.002457	0.005910	-0.020337	1.000000	-0.000040	0.000019	0.000019	-1.612778	-8.833026	42.481101
06563	1.505225	-0.267873	9.672265	-0.002053	0.004948	-0.020336	1.000000	-0.000057	0.000025	0.000020	-1.613855	-8.832130	42.480871
06564	1.498206	-0.273074	9.713823	-0.009189	-0.007053	0.019780	1.000000	-0.000041	0.000006	0.000007	-1.612781	-8.833448	42.478505
06565	1.512718	-0.288101	9.686126	0.015267	-0.006278	-0.004931	1.000000	-0.000043	0.000033	0.000014	-1.612095	-8.831665	42.477555
06566	1.489228	-0.256360	9.700094	-0.024867	0.000308	0.004376	1.000000	-0.000040	0.000009	0.000014	-1.610978	-8.832694	42.477392
06567	1.481990	-0.273196	9.683000	-0.016597	-0.015720	-0.013151	1.000000	-0.000045	0.000014	0.000030	-1.610873	-8.833094	42.478357
06568	1.540785	-0.272995	9.692660	0.024823	0.022705	0.005412	1.000000	-0.000036	0.000007	0.000030	-1.609729	-8.834185	42.477846
06569	1.480283	-0.240541	9.686343	-0.040143	0.006741	-0.011020	1.000000	-0.000041	0.000026	0.000016	-1.608927	-8.833231	42.477193
06570	1.533189	-0.290648	9.675595	0.033508	0.005706	-0.012119	1.000000	-0.000042	-0.000001	0.000034	-1.608501	-8.835271	42.479067
06571	1.501831	-0.240686	9.675725	-0.023138	0.021617	-0.018195	1.000000	-0.000054	0.000011	0.000025	-1.609347	-8.836034	42.479430
06572	1.509783	-0.260062	9.689531	-0.006219	0.011352	-0.002799	1.000000	-0.000039	0.000011	0.000021	-1.608314	-8.836643	42.478426
06573	1.509416	-0.260971	9.689563	-0.005815	0.010389	-0.002797	1.000000	-0.000049	0.000026	0.000018	-1.608450	-8.835718	42.477985
06574	1.500908	-0.243548	9.675797	-0.021906	0.018734	-0.018186	1.000000	-0.000048	0.000008	0.000016	-1.608297	-8.836792	42.477777
06575	1.508887	-0.263009	9.689591	-0.004999	0.008452	-0.002795	1.000000	-0.000054	0.000011	0.000025	-1.609143	-8.837555	42.478140
06576	1.501651	-0.279987	9.672477	0.003268	-0.007574	-0.020338	1.000000	-0.000046	0.000011	0.000023	-1.608967	-8.838301	42.479120
06577	1.515127	-0.260779	9.648081	0.003353	0.017600	-0.042899	1.000000	-0.000049	0.000016	0.000013	-1.609001	-8.838541	42.478162
06578	1.499837	-0.247525	9.675862	-0.020269	0.014863	-0.018176	1.000000	-0.000038	0.000024	0.000033	-1.607938	-8.837741	42.479587
06579	1.507666	-0.266854	9.689676	-0.003360	0.004573	-0.002792	1.000000	-0.000051	0.000010	-0.000001	-1.607996	-8.838649	42.477004
06580	1.499153	-0.249511	9.675917	-0.019448	0.012940	-0.018172	1.000000	-0.000057	0.000025	0.000020	-1.609021	-8.837695	42.476262
06581	1.492060	-0.254929	9.717470	-0.026575	0.000878	0.021933	1.000000	-0.000054	0.000011	0.000025	-1.609866	-8.838460	42.476625
06582	1.506667	-0.270138	9.689740	-0.002127	0.001681	-0.002791	1.000000	-0.000048	0.000018	0.000020	-1.609846	-8.838334	42.476678
06583	1.506305	-0.271206	9.689767	-0.001723	0.000718	-0.002790	1.000000	-0.000056	0.000018	0.000022	-1.610804	-8.838269	42.476744
06584	1.498029	-0.242213	9.734680	-0.033177	0.013017	0.039495	1.000000	-0.000047	0.000021	0.000027	-1.610717	-8.837762	42.476405
06585	1.512363	-0.269041	9.648288	0.006630	0.009904	-0.042890	1.000000	-0.000056	0.000008	0.000017	-1.611574	-8.838861	42.475954
06586	1.505401	-0.274377	9.689818	-0.000485	-0.002179	-0.002790	1.000000	-0.000045	0.000014	0.000030	-1.611428	-8.839252	42.476705
06587	1.511837	-0.271126	9.648312	0.007441	0.007980	-0.042888	1.000000	-0.000052	0.000016	0.000039	-1.612248	-8.839349	42.478693
06588	1.504813	-0.276388	9.689852	0.000337	-0.004114	-0.002791	1.000000	-0.000039	0.000011	0.000021	-1.611126	-8.840022	42.478425
06589	1.496365	-0.258927	9.676101	-0.015767	0.004271	-0.018158	1.000000	-0.000056	0.000018	0.000022	-1.612083	-8.839957	42.478491
06590	1.533205	-0.260822	9.696411	0.009498	0.025811	0.007616	1.000000	-0.000052	0.000006	0.000034	-1.612816	-8.841169	42.480065
06591	1.482176	-0.281374	9.700481	-0.014635	-0.023811	0.004367	1.000000	-0.000054	0.000011	0.000025	-1.613659	-8.841934	42.480427
06592	1.496710	-0.296492	9.672751	0.009810	-0.023001	-0.020367	1.000000	-0.000041	0.000026	0.000016	-1.612731	-8.840959	42.479798
06593	1.503361	-0.281503	9.689930	0.002377	-0.008937	-0.002795	1.000000	-0.000046	0.000011	0.000023	-1.612636	-8.841696	42.479949
06594	1.510082	-0.266507	9.707102	-0.005048	0.005118	0.014781	1.000000	-0.000040	0.000019	0.000019	-1.611671	-8.841572	42.479959
06595	1.494522	-0.264860	9.676225	-0.013321	-0.001510	-0.018153	1.000000	-0.000047	0.000021	0.000027	-1.611677	-8.841145	42.480627
06596	1.516118	-0.263988	9.665646	0.003278	0.014341	-0.025308	1.000000	-0.000039	0.000011	0.000021	-1.610603	-8.841836	42.480837
06597	1.501921	-0.285192	9.690045	0.004004	-0.012801	-0.002799	1.000000	-0.000055	0.000031	0.000034	-1.611648	-8.840275	42.482233
06598	1.508377	-0.270311	9.707261	-0.003402	0.001252	0.014783	1.000000	-0.000041	0.000026	0.000016	-1.610754	-8.839239	42.480218
06599	1.485666	-0.284554	9.659244	-0.003852	-0.020378	-0.035738	1.000000	-0.000048	0.000028	0.000025	-1.610874	-8.837982	42.480590
06600	1.492250	-0.269665	9.676443	-0.011259	-0.006326	-0.018153	1.000000	-0.000049	0.000016	0.000013	-1.610812	-8.838157	42.478402
06601	1.500119	-0.289021	9.690211	0.005657	-0.016661	-0.002806	1.000000	-0.000039	0.000011	0.000021	-1.609778	-8.838865	42.478342
06602	1.498701	-0.255501	9.693648	-0.018253	0.006752	-0.000562	1.000000	-0.000040	0.000019	0.000019	-1.608712	-8.838680	42.476716
06603	1.498121	-0.256359	9.693715	-0.017849	0.005788	-0.000560	1.000000	-0.000044	0.000040	0.000011	-1.608132	-8.836067	42.475473
06604	1.505745	-0.275671	9.707519	-0.000915	-0.004560	0.014783	1.000000	-0.000039	0.000011	0.000021	-1.607010	-8.836732	42.475680
06605	1.504335	-0.242312	9.710960	-0.024846	0.018863	0.017039	1.000000	-0.000056	0.000018	0.000022	-1.607965	-8.836668	42.475745
06606	1.483187	-0.279329	9.718158	-0.016289	-0.023309	0.021927	1.000000	-0.000033	0.000016	0.000010	-1.606082	-8.836817	42.474731
06607	1.511758	-0.262521	9.724771	-0.007512	0.007548	0.032382	1.000000	-0.000047	0.000021	0.000027	-1.606087	-8.836392	42.475399
06608	1.510088	-0.240742	9.669539	-0.016111	0.027169	-0.023034	1.000000	-0.000054	0.000011	0.000024	-1.606860	-8.837084	42.474861
06609	1.502748	-0.257505	9.652390	-0.007891	0.011207	-0.040635	1.000000	-0.000031	0.000022	0.000024	-1.604988	-8.836600	42.475108
06610	1.495578	-0.262943	9.693931	-0.014956	-0.000968	-0.000554	1.000000	-0.000071	0.000017	0.000026	-1.607697	-8.836520	42.474302
06611	1.508995	-0.243924	9.669630	-0.014876	0.024280	-0.023025	1.000000	-0.000047	0.000021	0.000027	-1.607701	-8.836095	42.474969
06612	1.516740	-0.263294	9.683403	0.002064	0.013917	-0.007693	1.000000	-0.000036	0.000017	0.000035	-1.606533	-8.836080	42.476030
06613	1.524537	-0.282669	9.697165	0.018985	0.003557	0.007636	1.000000	-0.000049	0.000016	0.000013	-1.606561	-8.836320	42.475070
06614	1.486003	-0.248467	9.680312	-0.029837	0.004563	-0.015878	1.000000	-0.000047	0.000021	0.000027	-1.606534	-8.835914	42.477122
06615	1.523753	-0.284725	9.697228	0.019795	0.001621	0.007635	1.000000	-0.000054	0.000021	0.000029	-1.607475	-8.835518	42.477999
06616	1.485198	-0.250593	9.680381	-0.029022	0.002641	-0.015875	1.000000	-0.000048	0.000018	0.000020	-1.607459	-8.835389	42.477714
06617	1.523030	-0.286940	9.697276	0.020612	-0.000309	0.007633	1.000000	-0.000065	0.000015	0.000017	-1.609361	-8.835687	42.477175
06618	1.514520	-0.269362	9.683584	0.004506	0.008132	-0.007687	1.000000	-0.000022	0.000025	0.000029	-1.606508	-8.834807	42.477884
06619	1.498976	-0.256298	9.711430	-0.019089	0.005335	0.017069	1.000000	-0.000076	0.000039	0.000019	-1.609675	-8.832310	42.477482
06620	1.498436	-0.257556	9.711480	-0.018666	0.004359	0.017070	1.000000	-0.000049	0.000016	0.000013	-1.609584	-8.832517	42.476480
06621	1.526835	-0.252359	9.659426	0.005409	0.031465	-0.030131	1.000000	-0.000048	0.000018	0.000020	-1.609599	-8.832425	42.476333
06622	1.519595	-0.257697	9.700971	-0.001659	0.019240	0.009942	1.000000	-0.000041	0.000026	0.000016	-1.608731	-8.831500	42.476500
06623	1.512141	-0.274454	9.683813	0.006546	0.003295	-0.007685	1.000000	-0.000048	0.000018	0.000020	-1.608745	-8.831408	42.476354
06624	1.489916	-0.277280	9.694403	-0.009227	-0.014507	-0.000557	1.000000	-0.000054	0.000011	0.000024	-1.609440	-8.832165	42.475920
06625	1.504537	-0.292322	9.666640	0.015169	-0.013626	-0.025318	1.000000	-0.000040	0.000019	0.000019	-1.608516	-8.832044	42.475563
06626	1.481338	-0.260792	9.680703	-0.024936	-0.007025	-0.015866	1.000000	-0.000058	-0.000002	0.000038	-1.609978	-8.834188	42.478118
06627	1.496312	-0.264577	9.711619	-0.015805	-0.002436	0.017075	1.000000	-0.000049	0.000016	0.000013	-1.610004	-8.834429	42.477157
06628	1.502525	-0.261230	9.670185	-0.007913	0.007880	-0.022990	1.000000	-0.000057	0.000045	0.000029	-1.611208	-8.831102	42.476449
06629	1.495175	-0.266602	9.711739	-0.014975	-0.004361	0.017076	1.000000	-0.000032	0.000009	0.000012	-1.609246	-8.832115	42.475363
06630	1.511144	-0.304425	9.739172	0.018496	-0.024194	0.047676	1.000000	-0.000045	0.000014	0.000030	-1.609021	-8.832470	42.476018
06631	1.523478	-0.262157	9.659696	0.009512	0.021812	-0.030108	1.000000	-0.000048	0.000008	0.000016	-1.608933	-8.833541	42.475352
06632	1.509317	-0.283410	9.683995	0.010246	-0.005416	-0.007689	1.000000	-0.000045	0.000024	0.000035	-1.608873	-8.832811	42.477634
06633	1.508896	-0.284395	9.684032	0.010650	-0.006380	-0.007690	1.000000	-0.000048	0.000018	0.000020	-1.608885	-8.832720	42.477487
06634	1.486592	-0.287071	9.694629	-0.005131	-0.024186	-0.000573	1.000000	-0.000040	0.000019	0.000019	-1.607836	-8.832622	42.477169
06635	1.506962	-0.251808	9.687635	-0.012844	0.016077	-0.005334	1.000000	-0.000039	0.000031	0.000030	-1.607000	-8.831009	42.478145
06636	1.521422	-0.266928	9.659889	0.011551	0.016989	-0.030100	1.000000	-0.000065	0.000015	0.000017	-1.608908	-8.831226	42.477628
06637	1.484228	-0.255640	9.698268	-0.028223	-0.002664	0.001786	1.000000	-0.000032	0.000019	0.000017	-1.607046	-8.831078	42.477061
06638	1.498810	-0.270589	9.670505	-0.003829	-0.001765	-0.022984	1.000000	-0.000057	0.000015	0.000015	-1.607946	-8.831328	42.476541
06639	1.483557	-0.257615	9.698318	-0.027405	-0.004596	0.001787	1.000000	-0.000048	0.000018	0.000020	-1.607957	-8.831238	42.476394
06640	1.505134	-0.256832	9.687787	-0.010791	0.011260	-0.005324	1.000000	-0.000048	0.000018	0.000020	-1.607886	-8.831116	42.475770
06641	1.505667	-0.292166	9.684303	0.013921	-0.014108	-0.007703	1.000000	-0.000049	0.000036	0.000023	-1.608111	-8.829033	42.475848
06642	1.460228	-0.262371	9.709008	-0.042377	-0.024314	0.008899	1.000000	-0.000045	0.000014	0.000030	-1.608023	-8.829420	42.477132
06643	1.488840	-0.245776	9.715715	-0.033553	0.006499	0.019454	1.000000	-0.000047	0.000021	0.000027	-1.608022	-8.828998	42.477798
06644	1.518088	-0.274929	9.660189	0.014812	0.009290	-0.030094	1.000000	-0.000060	0.000040	0.000015	-1.609251	-8.826401	42.476959
06645	1.502730	-0.261897	9.688025	-0.008758	0.006448	-0.005318	1.000000	-0.000037	0.000004	0.000023	-1.608099	-8.827943	42.477190
06646	1.487678	-0.248751	9.715818	-0.032301	0.003614	0.019460	1.000000	-0.000048	0.000008	0.000016	-1.607957	-8.828862	42.474742
06647	1.524282	-0.261983	9.677482	0.008274	0.021360	-0.012422	1.000000	-0.000048	0.000018	0.000020	-1.607968	-8.828772	42.474594
06648	1.495027	-0.280598	9.670805	0.000251	-0.011377	-0.022990	1.000000	-0.000054	0.000011	0.000024	-1.608786	-8.829554	42.475738
06649	1.494930	-0.270306	9.729548	-0.014555	-0.008752	0.034734	1.000000	-0.000041	0.000016	0.000011	-1.607872	-8.829766	42.474567
06650	1.501451	-0.266931	9.688086	-0.006708	0.001642	-0.005314	1.000000	-0.000071	0.000017	0.000026	-1.610688	-8.829730	42.475130
06651	1.508227	-0.252351	9.705343	-0.014072	0.015617	0.012366	1.000000	-0.000044	0.000006	0.000032	-1.610461	-8.830970	42.476384
06652	1.508045	-0.253229	9.705348	-0.013653	0.014644	0.012368	1.000000	-0.000038	0.000011	0.000021	-1.609330	-8.831653	42.476323
06653	1.507584	-0.265373	9.646636	0.001950	0.010114	-0.045359	1.000000	-0.000048	0.000018	0.000020	-1.609340	-8.831563	42.476175
06654	1.500266	-0.270903	9.688159	-0.005068	-0.002216	-0.005314	1.000000	-0.000048	0.000028	0.000025	-1.609423	-8.830254	42.476350
06655	1.492781	-0.287594	9.670946	0.003099	-0.018110	-0.023000	1.000000	-0.000040	0.000019	0.000019	-1.608495	-8.830135	42.475992
06656	1.499508	-0.272794	9.688223	-0.004247	-0.004151	-0.005314	1.000000	-0.000054	0.000011	0.000024	-1.609237	-8.830881	42.476687
06657	1.492171	-0.289700	9.670978	0.003918	-0.020043	-0.023004	1.000000	-0.000054	0.000021	0.000029	-1.610171	-8.830489	42.477562
06658	1.498760	-0.275003	9.688277	-0.003437	-0.006077	-0.005314	1.000000	-0.000050	0.000023	0.000011	-1.610295	-8.829886	42.476623
06659	1.491414	-0.280488	9.729800	-0.010457	-0.018433	0.034725	1.000000	-0.000041	0.000026	0.000016	-1.609479	-8.828937	42.475972
06660	1.512707	-0.290931	9.660565	0.021339	-0.006101	-0.030104	1.000000	-0.000057	0.000025	0.000020	-1.610480	-8.828019	42.475485
06661	1.519560	-0.265100	9.736594	-0.001193	0.011383	0.045328	1.000000	-0.000052	0.000006	0.000034	-1.611189	-8.829290	42.476947
06662	1.490190	-0.294875	9.671127	0.005961	-0.024857	-0.023017	1.000000	-0.000048	0.000018	0.000020	-1.611121	-8.829129	42.476323
06663	1.503770	-0.264348	9.705715	-0.009145	0.004020	0.012383	1.000000	-0.000048	0.000028	0.000025	-1.611230	-8.827879	42.476695
06664	1.503336	-0.265346	9.705755	-0.008725	0.003041	0.012384	1.000000	-0.000049	0.000016	0.000013	-1.611130	-8.828110	42.476090
06665	1.517933	-0.280398	9.677964	0.015632	0.003993	-0.012408	1.000000	-0.000056	0.000018	0.000022	-1.612075	-8.828050	42.476151
06666	1.524530	-0.265469	9.695286	0.008281	0.017936	0.005298	1.000000	-0.000022	0.000024	0.000029	-1.609229	-8.827266	42.478021
06667	1.488416	-0.288308	9.730030	-0.007179	-0.026197	0.034711	1.000000	-0.000046	0.000001	0.000018	-1.609025	-8.829169	42.477645
06668	1.516932	-0.283005	9.678045	0.016861	0.001109	-0.012409	1.000000	-0.000055	0.000031	0.000034	-1.610032	-8.827468	42.477742
06669	1.486485	-0.267266	9.674964	-0.015476	-0.007182	-0.020563	1.000000	-0.000045	0.000014	0.000030	-1.609915	-8.827880	42.478701
06670	1.538184	-0.272132	9.726338	0.018719	0.019490	0.038251	1.000000	-0.000049	0.000026	0.000018	-1.610006	-8.826947	42.478735
06671	1.507588	-0.267471	9.664510	0.001537	0.007727	-0.027645	1.000000	-0.000047	0.000021	0.000027	-1.610002	-8.826529	42.479400
06672	1.486390	-0.304535	9.671412	0.010029	-0.034476	-0.023049	1.000000	-0.000049	0.000006	0.000008	-1.609935	-8.827862	42.477910
06673	1.515046	-0.287997	9.678193	0.018891	-0.003699	-0.012414	1.000000	-0.000044	0.000026	0.000042	-1.609906	-8.826784	42.480204
06674	1.514556	-0.288990	9.678240	0.019308	-0.004667	-0.012415	1.000000	-0.000050	0.000023	0.000011	-1.609961	-8.826149	42.478886
06675	1.484226	-0.273244	9.675144	-0.013032	-0.012947	-0.020565	1.000000	-0.000054	0.000011	0.000024	-1.610793	-8.826920	42.479239
06676	1.498928	-0.277235	9.706104	-0.003817	-0.008529	0.012384	1.000000	-0.000057	0.000025	0.000020	-1.611806	-8.825985	42.478372
06677	1.520561	-0.276362	9.695604	0.012791	0.007341	0.005307	1.000000	-0.000028	0.000007	0.000028	-1.609703	-8.827171	42.479206
06678	1.498375	-0.278941	9.706141	-0.003000	-0.010473	0.012382	1.000000	-0.000049	0.000016	0.000013	-1.609634	-8.827434	42.478712
06679	1.504942	-0.275378	9.664700	0.004801	0.000029	-0.027643	1.000000	-0.000056	0.000018	0.000022	-1.610577	-8.827375	42.478772
06680	1.518655	-0.244988	9.699328	-0.010255	0.028864	0.007820	1.000000	-0.000049	0.000016	0.000013	-1.610592	-8.827535	42.476955
06681	1.489310	-0.263471	9.692576	-0.018320	-0.003829	-0.002838	1.000000	-0.000047	0.000021	0.000027	-1.610586	-8.827117	42.477620
06682	1.495944	-0.248812	9.709913	-0.025646	0.010112	0.014897	1.000000	-0.000056	0.000018	0.000022	-1.611577	-8.826992	42.477728
06683	1.510493	-0.263827	9.682118	-0.001305	0.011095	-0.009908	1.000000	-0.000047	0.000021	0.000027	-1.611571	-8.826575	42.478393
06684	1.488029	-0.266603	9.692687	-0.017096	-0.006715	-0.002838	1.000000	-0.000052	0.000030	0.000009	-1.611728	-8.825151	42.476623
06685	1.495748	-0.286189	9.706335	-0.000148	-0.017216	0.012373	1.000000	-0.000046	0.000001	0.000018	-1.611522	-8.827055	42.476245
06686	1.501462	-0.248185	9.668567	-0.016622	0.017736	-0.025114	1.000000	-0.000048	0.000018	0.000020	-1.611508	-8.826937	42.476633
06687	1.524217	-0.270727	9.713155	0.009145	0.012576	0.023047	1.000000	-0.000053	0.000013	0.000032	-1.612326	-8.827380	42.477800
06688	1.500857	-0.250290	9.668607	-0.015828	0.015814	-0.025109	1.000000	-0.000049	0.000016	0.000013	-1.612395	-8.827676	42.478540
06689	1.516654	-0.288542	9.695862	0.017667	-0.004236	0.005301	1.000000	-0.000050	0.000009	0.000041	-1.613090	-8.828621	42.480814
06690	1.478385	-0.254158	9.679145	-0.031216	-0.002957	-0.018042	1.000000	-0.000053	0.000017	-0.000003	-1.613157	-8.828689	42.477984
06691	1.516051	-0.290507	9.695897	0.018486	-0.006176	0.005299	1.000000	-0.000036	0.000017	0.000035	-1.612090	-8.828746	42.479548
06692	1.507472	-0.272901	9.682338	0.002347	0.002408	-0.009902	1.000000	-0.000060	0.000040	0.000015	-1.613343	-8.826178	42.478676
06693	1.485006	-0.275757	9.692894	-0.013455	-0.015395	-0.002842	1.000000	-0.000046	0.000011	0.000023	-1.613237	-8.826923	42.478819
06694	1.521580	-0.288975	9.654570	0.027094	0.002446	-0.034718	1.000000	-0.000058	0.000023	0.000013	-1.614224	-8.826316	42.477414
06695	1.505241	-0.241733	9.686159	-0.020694	0.023942	-0.007338	1.000000	-0.000040	0.000018	0.000019	-1.613292	-8.826201	42.477056
06696	1.520905	-0.279952	9.713413	0.012821	0.003864	0.023050	1.000000	-0.000056	0.000018	0.000022	-1.614189	-8.826079	42.476586
06697	1.497469	-0.259474	9.668890	-0.012156	0.007151	-0.025094	1.000000	-0.000046	0.000021	0.000027	-1.614182	-8.825663	42.477251
06698	1.512115	-0.263465	9.699865	-0.002910	0.011489	0.007860	1.000000	-0.000056	0.000018	0.000022	-1.615069	-8.825590	42.477507
06699	1.482736	-0.281992	9.693063	-0.010999	-0.021181	-0.002850	1.000000	-0.000046	0.000021	0.000027	-1.615061	-8.825174	42.478172
06700	1.519371	-0.284140	9.713531	0.014458	-0.000003	0.023049	1.000000	-0.000049	0.000016	0.000013	-1.615061	-8.825364	42.477505
06701	1.487964	-0.244937	9.655409	-0.027078	0.012874	-0.040275	1.000000	-0.000046	0.000021	0.000027	-1.615053	-8.824948	42.478170
06702	1.503487	-0.283180	9.682662	0.006439	-0.007224	-0.009906	1.000000	-0.000048	0.000028	0.000025	-1.615111	-8.823640	42.477888
06703	1.510144	-0.268405	9.700037	-0.000866	0.006671	0.007865	1.000000	-0.000040	0.000008	0.000014	-1.614079	-8.824684	42.477007
06704	1.517907	-0.287934	9.713648	0.016098	-0.003872	0.023045	1.000000	-0.000049	0.000016	0.000013	-1.614042	-8.824910	42.475800
06705	1.480620	-0.287811	9.693215	-0.008550	-0.026960	-0.002861	1.000000	-0.000053	0.000013	0.000032	-1.614859	-8.825356	42.476965
06706	1.516312	-0.255502	9.717443	-0.007337	0.018628	0.025645	1.000000	-0.000024	0.000019	0.000015	-1.612011	-8.825121	42.475827
06707	1.494063	-0.268947	9.669158	-0.008076	-0.002462	-0.025088	1.000000	-0.000046	0.000001	0.000018	-1.611803	-8.827026	42.475446
06708	1.514784	-0.233827	9.662438	-0.015725	0.037857	-0.029525	1.000000	-0.000044	0.000026	0.000042	-1.611807	-8.825956	42.478262
06709	1.508456	-0.273768	9.700150	0.001577	0.000885	0.007867	1.000000	-0.000040	0.000008	0.000014	-1.610774	-8.827001	42.477381
06710	1.507190	-0.240358	9.703935	-0.022270	0.024342	0.010482	1.000000	-0.000046	0.000021	0.000027	-1.610705	-8.826618	42.478361
06711	1.514724	-0.270903	9.658764	0.009743	0.010531	-0.032131	1.000000	-0.000048	0.000018	0.000020	-1.610708	-8.826532	42.478211
06712	1.492389	-0.273658	9.669285	-0.006061	-0.007271	-0.025088	1.000000	-0.000048	0.000018	0.000020	-1.610722	-8.826422	42.478636
06713	1.470027	-0.276492	9.679805	-0.021867	-0.025077	-0.018048	1.000000	-0.000054	0.000021	0.000029	-1.611649	-8.826037	42.479509
06714	1.513630	-0.273996	9.658848	0.010959	0.007645	-0.032129	1.000000	-0.000045	0.000014	0.000030	-1.611472	-8.826459	42.480257
06715	1.506236	-0.279750	9.700324	0.004014	-0.004917	0.007865	1.000000	-0.000052	0.000030	0.000009	-1.611708	-8.825038	42.478709
06716	1.475764	-0.263722	9.697284	-0.028346	-0.013136	-0.000258	1.000000	-0.000031	0.000021	0.000024	-1.609797	-8.824580	42.479117
06717	1.519225	-0.261089	9.676361	0.004477	0.019593	-0.014331	1.000000	-0.000056	0.000028	0.000027	-1.610834	-8.823363	42.479698
06718	1.504777	-0.282665	9.700466	0.005239	-0.007835	0.007863	1.000000	-0.000056	0.000018	0.000022	-1.611650	-8.823333	42.479981
06719	1.496460	-0.265077	9.686909	-0.010915	0.000803	-0.007294	1.000000	-0.000049	0.000016	0.000013	-1.611664	-8.823575	42.479015
06720	1.511078	-0.279937	9.659077	0.013403	0.001851	-0.032130	1.000000	-0.000048	0.000018	0.000020	-1.611586	-8.823449	42.478686
06721	1.502815	-0.251401	9.704334	-0.017781	0.013703	0.010512	1.000000	-0.000049	0.000016	0.000013	-1.611599	-8.823691	42.477720
06722	1.495453	-0.267954	9.686986	-0.009678	-0.002099	-0.007292	1.000000	-0.000040	0.000018	0.000019	-1.610582	-8.823562	42.477667
06723	1.525117	-0.285814	9.690095	0.023495	0.004175	0.000826	1.000000	-0.000054	0.000011	0.000024	-1.611408	-8.824337	42.478015
06724	1.486866	-0.251318	9.673453	-0.025435	0.005576	-0.022439	1.000000	-0.000046	0.000021	0.000027	-1.611367	-8.823992	42.479670
06725	1.509455	-0.274068	9.718004	0.000404	0.000211	0.025665	1.000000	-0.000056	0.000018	0.000022	-1.612304	-8.823936	42.479727
06726	1.494165	-0.272096	9.687069	-0.008073	-0.005958	-0.007293	1.000000	-0.000046	0.000011	0.000023	-1.612233	-8.824687	42.480939
06727	1.508868	-0.276024	9.718040	0.001209	-0.001718	0.025665	1.000000	-0.000040	0.000018	0.000019	-1.611298	-8.824574	42.480581
06728	1.508502	-0.287744	9.659250	0.016642	-0.005855	-0.032136	1.000000	-0.000045	0.000013	0.000030	-1.611100	-8.824925	42.480863
06729	1.515238	-0.273165	9.676653	0.009365	0.008002	-0.014319	1.000000	-0.000057	0.000015	0.000015	-1.612048	-8.825197	42.480105
06730	1.521888	-0.258610	9.694072	0.002089	0.021840	0.003502	1.000000	-0.000050	0.000023	0.000011	-1.612111	-8.824671	42.479619
06731	1.492548	-0.277078	9.687177	-0.006040	-0.010789	-0.007295	1.000000	-0.000054	0.000011	0.000024	-1.612936	-8.825447	42.479967
06732	1.529160	-0.279337	9.707684	0.019465	0.010276	0.018640	1.000000	-0.000041	0.000026	0.000016	-1.612058	-8.824519	42.480137
06733	1.491790	-0.278886	9.687242	-0.005229	-0.012723	-0.007297	1.000000	-0.000037	0.000014	0.000028	-1.611000	-8.824911	42.480886
06734	1.498522	-0.264239	9.704656	-0.012511	0.001121	0.010530	1.000000	-0.000057	0.000015	0.000015	-1.611984	-8.825237	42.481249
06735	1.469153	-0.282698	9.697753	-0.020644	-0.031503	-0.000280	1.000000	-0.000046	0.000021	0.000027	-1.611972	-8.824826	42.481913
06736	1.504738	-0.261369	9.663302	-0.004373	0.010855	-0.029446	1.000000	-0.000039	0.000021	0.000026	-1.610904	-8.824415	42.482562
06737	1.490297	-0.282807	9.687358	-0.003616	-0.016595	-0.007302	1.000000	-0.000054	0.000021	0.000029	-1.611827	-8.824033	42.483434
06738	1.518972	-0.266404	9.694319	0.005328	0.014110	0.003515	1.000000	-0.000042	0.000013	0.000004	-1.610969	-8.824525	42.481521
06739	1.481861	-0.265994	9.673829	-0.019375	-0.008868	-0.022428	1.000000	-0.000046	0.000001	0.000018	-1.610759	-8.826432	42.481136
06740	1.518608	-0.268259	9.694324	0.006131	0.012187	0.003517	1.000000	-0.000046	0.000021	0.000027	-1.610796	-8.826025	42.482559
06741	1.489163	-0.286637	9.687420	-0.002009	-0.020429	-0.007309	1.000000	-0.000050	0.000023	0.000011	-1.610917	-8.825436	42.481302
06742	1.517744	-0.270329	9.694402	0.006945	0.010251	0.003519	1.000000	-0.000054	0.000021	0.000029	-1.611787	-8.825062	42.481933
06743	1.494537	-0.238784	9.708755	-0.033094	0.016876	0.013258	1.000000	-0.000040	0.000008	0.000014	-1.610752	-8.826109	42.481050
06744	1.495197	-0.273977	9.704899	-0.008450	-0.008526	0.010530	1.000000	-0.000048	0.000018	0.000020	-1.610739	-8.825966	42.480620
06745	1.501820	-0.270169	9.663514	-0.000738	0.002223	-0.029439	1.000000	-0.000054	0.000020	0.000029	-1.611662	-8.825585	42.481491
06746	1.509340	-0.289937	9.677087	0.016249	-0.008403	-0.014328	1.000000	-0.000050	0.000023	0.000011	-1.611668	-8.824974	42.480052
06747	1.500035	-0.237935	9.667475	-0.024145	0.024735	-0.026698	1.000000	-0.000046	0.000021	0.000027	-1.611654	-8.824565	42.480717
06748	1.522590	-0.260567	9.712001	0.001745	0.019242	0.021374	1.000000	-0.000033	0.000016	0.000010	-1.609742	-8.824737	42.479084
06749	1.507321	-0.258276	9.681069	-0.006761	0.013149	-0.011585	1.000000	-0.000045	0.000013	0.000030	-1.609618	-8.825159	42.480038
06750	1.500073	-0.274830	9.663653	0.001317	-0.002599	-0.029440	1.000000	-0.000047	0.000008	0.000015	-1.609442	-8.826165	42.478851
06751	1.476901	-0.243286	9.678019	-0.038719	0.004031	-0.019682	1.000000	-0.000048	0.000018	0.000020	-1.609439	-8.826082	42.478700
06752	1.506516	-0.261188	9.681116	-0.005536	0.010252	-0.011581	1.000000	-0.000045	0.000013	0.000030	-1.609294	-8.826555	42.480833
06753	1.499133	-0.267151	9.722554	-0.012429	-0.002455	0.028383	1.000000	-0.000058	0.000023	0.000013	-1.610349	-8.825995	42.479782
06754	1.527749	-0.261625	9.670722	0.011481	0.025183	-0.018579	1.000000	-0.000056	0.000018	0.000022	-1.611294	-8.825963	42.480251
06755	1.469369	-0.286798	9.715623	-0.020186	-0.036022	0.017517	1.000000	-0.000052	0.000016	0.000039	-1.612093	-8.826089	42.482228
06756	1.483106	-0.267360	9.691668	-0.020138	-0.010451	-0.004579	1.000000	-0.000049	0.000015	0.000013	-1.612120	-8.826303	42.481332
06757	1.512675	-0.285362	9.694764	0.013052	-0.004231	0.003517	1.000000	-0.000054	0.000020	0.000029	-1.613040	-8.825924	42.482203
06758	1.475306	-0.285135	9.674286	-0.011676	-0.027154	-0.022449	1.000000	-0.000054	0.000020	0.000029	-1.613912	-8.825531	42.483374
06759	1.503910	-0.268767	9.681314	-0.002705	0.003514	-0.011575	1.000000	-0.000039	0.000021	0.000026	-1.612961	-8.825094	42.483831
06760	1.510572	-0.254101	9.698789	-0.009936	0.017319	0.006299	1.000000	-0.000049	0.000015	0.000013	-1.612918	-8.825296	42.482700
06761	1.495280	-0.251932	9.667857	-0.018461	0.011270	-0.026661	1.000000	-0.000048	0.000018	0.000020	-1.612915	-8.825214	42.482548
06762	1.481051	-0.273477	9.691812	-0.017692	-0.016250	-0.004582	1.000000	-0.000055	-0.000002	0.000012	-1.613556	-8.827509	42.481309
06763	1.509937	-0.257181	9.698806	-0.008715	0.014411	0.006305	1.000000	-0.000049	0.000015	0.000013	-1.613563	-8.827753	42.480342
06764	1.495520	-0.289290	9.663937	0.006967	-0.016079	-0.029455	1.000000	-0.000046	0.000021	0.000027	-1.613561	-8.827362	42.481533
06765	1.517071	-0.277969	9.712382	0.008665	0.002792	0.021389	1.000000	-0.000058	0.000023	0.000013	-1.614614	-8.826803	42.480482
06766	1.479690	-0.277649	9.691901	-0.016048	-0.020111	-0.004586	1.000000	-0.000046	0.000021	0.000027	-1.614417	-8.826281	42.479815
06767	1.508327	-0.261377	9.698945	-0.007065	0.010544	0.006311	1.000000	-0.000055	0.000018	0.000022	-1.615348	-8.826228	42.479869
06768	1.500020	-0.243784	9.685472	-0.023234	0.019283	-0.008763	1.000000	-0.000054	0.000020	0.000029	-1.616286	-8.825813	42.480644
06769	1.478486	-0.280922	9.691990	-0.014836	-0.022993	-0.004591	1.000000	-0.000050	0.000023	0.000011	-1.616402	-8.825225	42.479386
06770	1.529203	-0.262800	9.688595	0.010382	0.024521	-0.000670	1.000000	-0.000047	0.000008	0.000015	-1.616250	-8.826229	42.478103
06771	1.507607	-0.299858	9.695116	0.018779	-0.017759	0.003493	1.000000	-0.000047	0.000041	0.000037	-1.616429	-8.823507	42.479820
06772	1.506304	-0.266713	9.699114	-0.005022	0.005731	0.006317	1.000000	-0.000062	0.000000	0.000021	-1.618068	-8.825462	42.479756
06773	1.506057	-0.267756	9.699123	-0.004618	0.004766	0.006317	1.000000	-0.000037	0.000024	0.000033	-1.617104	-8.824701	42.481029
06774	1.520635	-0.282345	9.671261	0.019637	0.005915	-0.018561	1.000000	-0.000041	0.000016	0.000011	-1.616156	-8.824906	42.479904
06775	1.519411	-0.248885	9.675268	-0.004166	0.029408	-0.015725	1.000000	-0.000040	0.000018	0.000019	-1.615215	-8.824796	42.479546
06776	1.504929	-0.270313	9.699228	-0.003403	0.001875	0.006319	1.000000	-0.000046	0.000021	0.000027	-1.615216	-8.824386	42.480586
06777	1.518681	-0.250613	9.675338	-0.003360	0.027486	-0.015719	1.000000	-0.000034	0.000013	0.000003	-1.613363	-8.824898	42.478389
06778	1.497257	-0.287740	9.681800	0.005027	-0.014785	-0.011586	1.000000	-0.000071	0.000017	0.000026	-1.616219	-8.824876	42.479229
06779	1.503992	-0.273181	9.699293	-0.002193	-0.001008	0.006319	1.000000	-0.000023	0.000012	0.000017	-1.613298	-8.825541	42.478747
06780	1.496652	-0.289539	9.681840	0.005830	-0.016719	-0.011590	1.000000	-0.000059	0.000020	0.000006	-1.614338	-8.825354	42.477387
06781	1.517374	-0.254548	9.675440	-0.001751	0.023640	-0.015708	1.000000	-0.000046	0.000021	0.000027	-1.614320	-8.824949	42.478051
06782	1.525031	-0.274267	9.688935	0.015239	0.012964	-0.000654	1.000000	-0.000045	0.000003	0.000025	-1.614121	-8.826474	42.478635
06783	1.487874	-0.273778	9.668405	-0.009538	-0.009872	-0.026647	1.000000	-0.000048	0.000018	0.000020	-1.614115	-8.826394	42.478482
06784	1.516588	-0.257446	9.675487	-0.000527	0.020751	-0.015702	1.000000	-0.000045	0.000013	0.000030	-1.613902	-8.826833	42.479841
06785	1.487163	-0.275649	9.668461	-0.008725	-0.011806	-0.026648	1.000000	-0.000041	0.000026	0.000016	-1.613070	-8.825891	42.479193
06786	1.523705	-0.278015	9.689037	0.016896	0.009100	-0.000652	1.000000	-0.000045	0.000013	0.000030	-1.612833	-8.826159	42.479014
06787	1.530351	-0.263719	9.706552	0.009686	0.022863	0.017269	1.000000	-0.000073	0.000025	0.000023	-1.615740	-8.825333	42.479190
06788	1.500103	-0.258447	9.644653	-0.007844	0.011925	-0.048660	1.000000	-0.000049	0.000015	0.000013	-1.615763	-8.825520	42.477968
06789	1.536787	-0.250409	9.724078	0.002890	0.035664	0.035198	1.000000	-0.000045	0.000003	0.000025	-1.615538	-8.827106	42.478394
06790	1.492747	-0.265388	9.686027	-0.014265	-0.001874	-0.008727	1.000000	-0.000045	0.000003	0.000025	-1.615232	-8.828596	42.478322
06791	1.514607	-0.264641	9.675603	0.002359	0.014029	-0.015690	1.000000	-0.000054	0.000010	0.000024	-1.616050	-8.829377	42.478664
06792	1.492308	-0.267394	9.686040	-0.013452	-0.003797	-0.008726	1.000000	-0.000040	0.000018	0.000019	-1.615092	-8.829235	42.478201
06793	1.513879	-0.266448	9.675667	0.003172	0.012106	-0.015688	1.000000	-0.000041	0.000026	0.000016	-1.614258	-8.828294	42.477553
06794	1.506358	-0.272493	9.717088	-0.003664	-0.000755	0.024240	1.000000	-0.000055	0.000018	0.000022	-1.615167	-8.828239	42.477653
06795	1.484077	-0.285782	9.668641	-0.004634	-0.021402	-0.026661	1.000000	-0.000049	0.000015	0.000013	-1.615170	-8.828484	42.476683
06796	1.511955	-0.235365	9.679792	-0.019800	0.033664	-0.012777	1.000000	-0.000065	0.000015	0.000017	-1.616949	-8.828832	42.476288
06797	1.512484	-0.270784	9.675765	0.004794	0.008238	-0.015684	1.000000	-0.000048	0.000018	0.000020	-1.616941	-8.828753	42.476135
06798	1.505026	-0.287348	9.658293	0.012804	-0.007425	-0.033625	1.000000	-0.000057	0.000025	0.000020	-1.617997	-8.827810	42.475642
06799	1.473849	-0.237215	9.659340	-0.043790	0.008968	-0.038776	1.000000	-0.000055	0.000018	0.000022	-1.618923	-8.827759	42.475695
06800	1.512022	-0.308271	9.671819	0.030200	-0.019115	-0.018605	1.000000	-0.000040	0.000028	0.000023	-1.618020	-8.826515	42.476153
06801	1.502899	-0.256187	9.662462	-0.010171	0.014148	-0.030704	1.000000	-0.000054	0.000010	0.000024	-1.618837	-8.827298	42.476495
06802	1.495464	-0.262334	9.703859	-0.016999	0.001248	0.009218	1.000000	-0.000050	0.000023	0.000011	-1.618891	-8.826762	42.475685
06803	1.510016	-0.277029	9.675974	0.007223	0.002450	-0.015683	1.000000	-0.000046	0.000021	0.000027	-1.618870	-8.826359	42.476349
06804	1.487681	-0.279703	9.686404	-0.008595	-0.015376	-0.008732	1.000000	-0.000038	0.000011	0.000021	-1.617843	-8.827057	42.476736
06805	1.516319	-0.263434	9.693555	0.000436	0.015230	0.002270	1.000000	-0.000059	0.000030	0.000010	-1.618997	-8.825666	42.475394
06806	1.500915	-0.261197	9.662636	-0.008139	0.009331	-0.030696	1.000000	-0.000046	0.000021	0.000027	-1.618878	-8.825221	42.475064
06807	1.508473	-0.281044	9.676098	0.008853	-0.001402	-0.015684	1.000000	-0.000054	0.000010	0.000024	-1.619694	-8.826004	42.475405
06808	1.486114	-0.283875	9.686523	-0.006958	-0.019248	-0.008737	1.000000	-0.000045	0.000023	0.000035	-1.619566	-8.825297	42.476877
06809	1.514769	-0.267603	9.693683	0.002079	0.011352	0.002275	1.000000	-0.000049	0.000015	0.000013	-1.619567	-8.825542	42.475907
06810	1.507449	-0.284047	9.676171	0.010081	-0.004298	-0.015686	1.000000	-0.000045	0.000013	0.000030	-1.619423	-8.825910	42.476583
06811	1.492115	-0.271331	9.704127	-0.013327	-0.007441	0.009221	1.000000	-0.000046	0.000021	0.000027	-1.619402	-8.825508	42.477246
06812	1.484823	-0.287851	9.686604	-0.005330	-0.023108	-0.008745	1.000000	-0.000056	0.000005	0.000010	-1.620153	-8.826961	42.476493
06813	1.476666	-0.270014	9.673187	-0.021519	-0.014287	-0.023748	1.000000	-0.000037	0.000024	0.000033	-1.619185	-8.826207	42.477767
06814	1.498144	-0.258799	9.721737	-0.018432	0.000596	0.027192	1.000000	-0.000046	0.000021	0.000027	-1.597860	-8.835115	42.483341
06815	1.512785	-0.273452	9.693829	0.005779	0.001823	0.002280	1.000000	-0.000045	0.000013	0.000030	-1.597686	-8.835566	42.484299
06816	1.504606	-0.255612	9.680423	-0.010393	0.010653	-0.012710	1.000000	-0.000048	0.000018	0.000020	-1.597602	-8.835397	42.483129
06817	1.482150	-0.258226	9.690863	-0.026208	-0.007194	-0.005775	1.000000	-0.000033	0.000026	0.000014	-1.595787	-8.834447	42.482283
06818	1.504604	-0.291539	9.676390	0.014597	-0.015764	-0.015703	1.000000	-0.000045	0.000013	0.000030	-1.595565	-8.834930	42.483919
06819	1.510516	-0.242788	9.698073	-0.016750	0.022403	0.005278	1.000000	-0.000049	0.000015	0.000013	-1.595521	-8.835194	42.482955
06820	1.495274	-0.240561	9.667130	-0.025357	0.016567	-0.027689	1.000000	-0.000062	0.000020	0.000031	-1.597310	-8.834825	42.483876
06821	1.524795	-0.258738	9.670187	0.007870	0.022675	-0.019634	1.000000	-0.000049	0.000015	0.000013	-1.597266	-8.835089	42.482912
06822	1.517367	-0.264869	9.711566	0.001081	0.009685	0.020267	1.000000	-0.000045	0.000013	0.000030	-1.597071	-8.835537	42.484444
06823	1.480146	-0.264323	9.691005	-0.023759	-0.013024	-0.005775	1.000000	-0.000055	0.000018	0.000022	-1.597950	-8.835507	42.484502
06824	1.494778	-0.279044	9.663089	0.000436	-0.011763	-0.030695	1.000000	-0.000048	0.000018	0.000020	-1.597970	-8.835417	42.484792
06825	1.500654	-0.230238	9.684813	-0.030900	0.026397	-0.009682	1.000000	-0.000041	0.000016	0.000011	-1.596991	-8.835652	42.483622
06826	1.531015	-0.282694	9.683718	0.026490	0.008022	-0.004652	1.000000	-0.000071	0.000017	0.000026	-1.599757	-8.835741	42.485060
06827	1.515640	-0.270260	9.711687	0.003106	0.004827	0.020270	1.000000	-0.000046	0.000021	0.000027	-1.599690	-8.835360	42.485730
06828	1.500442	-0.267755	9.680741	-0.005507	-0.000984	-0.012701	1.000000	-0.000038	0.000011	0.000021	-1.598552	-8.836037	42.484949
06829	1.477983	-0.270449	9.691166	-0.021324	-0.018834	-0.005779	1.000000	-0.000050	0.000033	0.000016	-1.598712	-8.834312	42.484227
06830	1.507349	-0.288504	9.694240	0.011913	-0.012742	0.002266	1.000000	-0.000048	0.000018	0.000020	-1.598636	-8.834228	42.483832
06831	1.506178	-0.255300	9.698427	-0.011847	0.010757	0.005305	1.000000	-0.000055	0.000018	0.000022	-1.599514	-8.834199	42.483890
06832	1.512949	-0.251244	9.657105	-0.004242	0.021844	-0.034583	1.000000	-0.000054	0.000020	0.000029	-1.600341	-8.833776	42.484031
06833	1.484164	-0.293627	9.704698	-0.003079	-0.032536	0.009179	1.000000	-0.000054	0.000020	0.000029	-1.601207	-8.833424	42.484906
06834	1.512149	-0.253201	9.657179	-0.003416	0.019901	-0.034579	1.000000	-0.000024	0.000019	0.000015	-1.598257	-8.833248	42.484069
06835	1.504648	-0.259151	9.698562	-0.010190	0.006866	0.005310	1.000000	-0.000049	0.000015	0.000013	-1.598210	-8.833512	42.483104
06836	1.520047	-0.308123	9.666466	0.038170	-0.016329	-0.022675	1.000000	-0.000057	0.000025	0.000020	-1.599207	-8.832570	42.482759
06837	1.496810	-0.276633	9.681054	-0.001810	-0.009707	-0.012704	1.000000	-0.000041	0.000016	0.000011	-1.598227	-8.832805	42.481589
06838	1.518548	-0.275822	9.670698	0.014812	0.006203	-0.019618	1.000000	-0.000053	0.000013	0.000031	-1.599008	-8.833333	42.483793
06839	1.481341	-0.275215	9.650116	-0.010057	-0.016451	-0.045678	1.000000	-0.000048	0.000018	0.000020	-1.598951	-8.833275	42.483645
06840	1.502802	-0.264235	9.698711	-0.008142	0.002025	0.005314	1.000000	-0.000049	0.000025	0.000018	-1.598989	-8.832300	42.482356
06841	1.524397	-0.263365	9.688384	0.008490	0.017936	-0.001595	1.000000	-0.000040	0.000018	0.000018	-1.597997	-8.832213	42.482003
06842	1.494975	-0.281537	9.681196	0.000232	-0.014546	-0.012710	1.000000	-0.000055	0.000018	0.000022	-1.598860	-8.832123	42.481837
06843	1.516571	-0.270558	9.729776	0.002144	0.003902	0.038288	1.000000	-0.000038	0.000011	0.000021	-1.597759	-8.832870	42.481771
06844	1.486443	-0.264629	9.667863	-0.015556	-0.006637	-0.027657	1.000000	-0.000054	0.000030	0.000034	-1.598706	-8.831320	42.482998
06845	1.486001	-0.265605	9.667904	-0.015150	-0.007605	-0.027657	1.000000	-0.000037	0.000014	0.000028	-1.597594	-8.831745	42.483749
06846	1.514745	-0.249315	9.675157	-0.006063	0.022953	-0.016530	1.000000	-0.000048	0.000018	0.000020	-1.597596	-8.831615	42.483874
06847	1.478220	-0.282880	9.650373	-0.006792	-0.024151	-0.045691	1.000000	-0.000049	0.000025	0.000018	-1.597645	-8.830725	42.483439
06848	1.492639	-0.287338	9.681386	0.002690	-0.020351	-0.012720	1.000000	-0.000048	0.000018	0.000020	-1.597521	-8.830616	42.482615
06849	1.499380	-0.272996	9.698998	-0.004447	-0.006699	0.005315	1.000000	-0.000054	0.000010	0.000024	-1.598288	-8.831422	42.482958
06850	1.506120	-0.258579	9.716615	-0.011583	0.006951	0.023353	1.000000	-0.000040	0.000018	0.000018	-1.597301	-8.831337	42.483054
06851	1.512830	-0.254240	9.675328	-0.004016	0.018103	-0.016519	1.000000	-0.000051	0.000030	0.000009	-1.597468	-8.829935	42.481515
06852	1.491037	-0.291369	9.681513	0.004314	-0.024234	-0.012730	1.000000	-0.000057	0.000025	0.000020	-1.598430	-8.829073	42.481273
06853	1.511928	-0.256309	9.675414	-0.003201	0.016162	-0.016515	1.000000	-0.000038	0.000011	0.000021	-1.597329	-8.829821	42.481206
06854	1.497311	-0.277789	9.699181	-0.002394	-0.011557	0.005311	1.000000	-0.000040	0.000028	0.000023	-1.596372	-8.828490	42.480870
06855	1.503363	-0.239157	9.662117	-0.018980	0.024093	-0.031437	1.000000	-0.000047	0.000008	0.000015	-1.596216	-8.829588	42.480190
06856	1.488946	-0.260859	9.685843	-0.018190	-0.003628	-0.009615	1.000000	-0.000054	0.000010	0.000024	-1.596989	-8.830375	42.480760
06857	1.518504	-0.279004	9.688871	0.015056	0.002417	-0.001587	1.000000	-0.000048	0.000018	0.000020	-1.596929	-8.830318	42.480612
06858	1.488213	-0.262989	9.685898	-0.017382	-0.005565	-0.009615	1.000000	-0.000060	0.000027	0.000003	-1.598070	-8.829273	42.478806
06859	1.509779	-0.262284	9.675590	-0.000747	0.010352	-0.016507	1.000000	-0.000046	0.000021	0.000027	-1.597999	-8.828895	42.479475
06860	1.517364	-0.282130	9.688959	0.016270	-0.000508	-0.001589	1.000000	-0.000046	0.000001	0.000018	-1.597682	-8.830890	42.479634
06861	1.509367	-0.264208	9.675602	0.000064	0.008399	-0.016505	1.000000	-0.000048	0.000018	0.000020	-1.597621	-8.830834	42.479485
06862	1.501772	-0.270494	9.716964	-0.006660	-0.004741	0.023359	1.000000	-0.000046	0.000021	0.000027	-1.597482	-8.830406	42.479338
06863	1.500764	-0.247278	9.662317	-0.015723	0.016340	-0.031415	1.000000	-0.000046	0.000021	0.000027	-1.597410	-8.830029	42.480007
06864	1.508177	-0.267147	9.675707	0.001300	0.005492	-0.016503	1.000000	-0.000048	0.000018	0.000020	-1.597359	-8.829934	42.480166
06865	1.514895	-0.252914	9.693350	-0.005818	0.019119	0.001563	1.000000	-0.000061	0.000013	0.000033	-1.599047	-8.830449	42.481529
06866	1.500673	-0.284754	9.658090	0.009646	-0.011043	-0.034569	1.000000	-0.000050	0.000003	0.000001	-1.598869	-8.832146	42.479152
06867	1.485521	-0.272066	9.686061	-0.013701	-0.014307	-0.009618	1.000000	-0.000038	0.000011	0.000021	-1.597767	-8.832895	42.479085
06868	1.499407	-0.252364	9.662396	-0.013670	0.011517	-0.031405	1.000000	-0.000057	0.000025	0.000020	-1.598757	-8.831949	42.478052
06869	1.499673	-0.287691	9.658159	0.010870	-0.013936	-0.034574	1.000000	-0.000049	0.000025	0.000018	-1.598803	-8.831059	42.477617
06870	1.506299	-0.273329	9.675827	0.003756	-0.000321	-0.016502	1.000000	-0.000049	0.000015	0.000013	-1.598731	-8.831351	42.477527
06871	1.513066	-0.258953	9.693477	-0.003356	0.013296	0.001574	1.000000	-0.000046	0.000011	0.000023	-1.598562	-8.832130	42.477664
06872	1.513533	-0.294097	9.689203	0.021182	-0.012151	-0.001605	1.000000	-0.000040	0.000018	0.000018	-1.597622	-8.832012	42.477270
06873	1.512437	-0.260750	9.693527	-0.002544	0.011364	0.001577	1.000000	-0.000049	0.000015	0.000013	-1.597571	-8.832278	42.476303
06874	1.505081	-0.277313	9.675903	0.005386	-0.004199	-0.016503	1.000000	-0.000071	0.000017	0.000026	-1.600237	-8.832306	42.476516
06875	1.519463	-0.282096	9.706917	0.014896	-0.000494	0.016471	1.000000	-0.000044	0.000026	0.000042	-1.600141	-8.831290	42.478821
06876	1.475195	-0.296540	9.668660	-0.002510	-0.037608	-0.027715	1.000000	-0.000038	0.000011	0.000021	-1.598998	-8.831976	42.478505
06877	1.511034	-0.264894	9.693633	-0.000895	0.007471	0.001581	1.000000	-0.000041	0.000016	0.000011	-1.598013	-8.832213	42.477334
06878	1.510725	-0.265798	9.693657	-0.000470	0.006513	0.001581	1.000000	-0.000049	0.000015	0.000013	-1.597953	-8.832347	42.475264
06879	1.502582	-0.247866	9.680354	-0.016682	0.015456	-0.013303	1.000000	-0.000046	0.000021	0.000027	-1.597879	-8.831971	42.475933
06880	1.495681	-0.288463	9.717387	0.000732	-0.022241	0.023337	1.000000	-0.000046	0.000021	0.000027	-1.597785	-8.831602	42.476862
06881	1.509854	-0.278675	9.634776	0.015377	0.001263	-0.056356	1.000000	-0.000042	0.000009	0.000039	-1.597486	-8.832575	42.478919
06882	1.501652	-0.250844	9.680422	-0.015442	0.012541	-0.013297	1.000000	-0.000058	0.000013	0.000008	-1.598287	-8.833118	42.476584
06883	1.531146	-0.269039	9.683440	0.017818	0.018542	-0.005285	1.000000	-0.000046	0.000021	0.000027	-1.598212	-8.832743	42.477253
06884	1.515673	-0.256572	9.711471	-0.005497	0.015247	0.019682	1.000000	-0.000057	0.000025	0.000020	-1.599147	-8.831817	42.476092
06885	1.501133	-0.288137	9.676200	0.009913	-0.014857	-0.016517	1.000000	-0.000034	0.000023	0.000007	-1.597334	-8.831191	42.474431
06886	1.492210	-0.235799	9.667258	-0.030424	0.018580	-0.028164	1.000000	-0.000047	0.000018	0.000020	-1.597220	-8.831184	42.474479
06887	1.493086	-0.295345	9.717579	0.003612	-0.029071	0.023319	1.000000	-0.000046	0.000021	0.000027	-1.597145	-8.830810	42.475148
06888	1.499181	-0.256683	9.680652	-0.012986	0.006707	-0.013288	1.000000	-0.000046	0.000021	0.000027	-1.597026	-8.830440	42.476153
06889	1.498794	-0.257662	9.680686	-0.012580	0.005737	-0.013287	1.000000	-0.000047	0.000018	0.000020	-1.596962	-8.830385	42.476003
06890	1.469308	-0.275749	9.673376	-0.020908	-0.026690	-0.024534	1.000000	-0.000050	0.000023	0.000011	-1.596971	-8.829821	42.474952
06891	1.521042	-0.292150	9.666035	0.028589	-0.003807	-0.023391	1.000000	-0.000054	-0.000009	0.000014	-1.597540	-8.832937	42.474226
06892	1.527124	-0.243720	9.688068	-0.002608	0.034273	-0.002030	1.000000	-0.000054	0.000030	0.000034	-1.598478	-8.831398	42.475225
06893	1.497558	-0.261880	9.680764	-0.010943	0.001854	-0.013283	1.000000	-0.000047	0.000018	0.000020	-1.598413	-8.831345	42.475075
06894	1.497144	-0.262858	9.680801	-0.010530	0.000881	-0.013283	1.000000	-0.000045	0.000023	0.000035	-1.598283	-8.830632	42.476559
06895	1.481892	-0.260128	9.649863	-0.019258	-0.004693	-0.046259	1.000000	-0.000042	0.000023	0.000009	-1.597402	-8.830035	42.475102
06896	1.526162	-0.281825	9.683863	0.023151	0.005886	-0.005280	1.000000	-0.000046	0.000011	0.000022	-1.597181	-8.830792	42.474569
06897	1.480961	-0.252060	9.708904	-0.033026	-0.004381	0.011695	1.000000	-0.000041	0.000026	0.000016	-1.596289	-8.829875	42.473931
06898	1.503265	-0.285436	9.694258	0.007747	-0.012945	0.001572	1.000000	-0.000050	0.000023	0.000011	-1.596303	-8.829195	42.471647
06899	1.502447	-0.262109	9.639677	-0.001377	0.008342	-0.053110	1.000000	-0.000054	0.000010	0.000024	-1.597064	-8.830004	42.471985
06900	1.509648	-0.272256	9.711982	0.001081	-0.000348	0.019695	1.000000	-0.000046	0.000021	0.000027	-1.596967	-8.829615	42.472328
06901	1.502299	-0.288518	9.694316	0.008970	-0.015861	0.001567	1.000000	-0.000046	0.000011	0.000022	-1.596794	-8.830396	42.472462
06902	1.494256	-0.270538	9.681036	-0.007241	-0.006875	-0.013282	1.000000	-0.000047	0.000018	0.000020	-1.596688	-8.830303	42.472271
06903	1.501549	-0.290479	9.694374	0.009792	-0.017806	0.001563	1.000000	-0.000048	0.000028	0.000025	-1.596717	-8.829097	42.472655
06904	1.515331	-0.270815	9.670821	0.009805	0.008088	-0.020130	1.000000	-0.000057	0.000025	0.000020	-1.597730	-8.828230	42.472980
06905	1.485419	-0.279073	9.722485	-0.013114	-0.022107	0.026540	1.000000	-0.000042	0.000033	0.000014	-1.596944	-8.826479	42.472056
06906	1.506359	-0.253791	9.657667	-0.006006	0.016109	-0.034970	1.000000	-0.000045	0.000033	0.000039	-1.596903	-8.824637	42.473741
06907	1.498731	-0.260227	9.698988	-0.012685	0.002805	0.004854	1.000000	-0.000046	0.000001	0.000018	-1.596634	-8.826572	42.473341
06908	1.491494	-0.276556	9.681292	-0.004798	-0.012687	-0.013286	1.000000	-0.000059	0.000020	0.000005	-1.597641	-8.826295	42.471096
06909	1.520254	-0.260554	9.688711	0.004373	0.017768	-0.001987	1.000000	-0.000045	0.000013	0.000030	-1.597457	-8.826757	42.472048
06910	1.497944	-0.263224	9.699029	-0.011453	-0.000120	0.004856	1.000000	-0.000038	0.000011	0.000021	-1.596248	-8.827557	42.472333
06911	1.534814	-0.275802	9.660730	0.028902	0.018182	-0.026971	1.000000	-0.000046	0.000011	0.000022	-1.596074	-8.828339	42.472467
06912	1.504727	-0.259671	9.657765	-0.003567	0.010300	-0.034960	1.000000	-0.000055	0.000018	0.000022	-1.596998	-8.828309	42.472468
06913	1.519090	-0.264588	9.688784	0.006000	0.013872	-0.001982	1.000000	-0.000061	0.000023	0.000038	-1.598775	-8.827677	42.474361
06914	1.489176	-0.272948	9.740428	-0.016916	-0.016362	0.044672	1.000000	-0.000042	0.000033	0.000014	-1.598017	-8.825966	42.473980
06915	1.489070	-0.283863	9.681453	-0.001967	-0.019489	-0.013296	1.000000	-0.000072	0.000005	0.000013	-1.600663	-8.827473	42.473086
06916	1.495940	-0.269724	9.699160	-0.009022	-0.005950	0.004857	1.000000	-0.000038	0.000011	0.000021	-1.599507	-8.828231	42.472826
06917	1.473583	-0.272405	9.709477	-0.024855	-0.023822	0.011691	1.000000	-0.000047	0.000018	0.000020	-1.599439	-8.828179	42.472675
06918	1.502618	-0.266166	9.657917	-0.001137	0.004481	-0.034955	1.000000	-0.000057	0.000015	0.000015	-1.600293	-8.828481	42.471887
06919	1.539114	-0.269161	9.678633	0.024679	0.024933	-0.008809	1.000000	-0.000047	0.000018	0.000020	-1.600225	-8.828429	42.471736
06920	1.508958	-0.252871	9.675691	-0.007793	0.017057	-0.016793	1.000000	-0.000040	0.000018	0.000018	-1.599259	-8.828364	42.471848
06921	1.516253	-0.272763	9.689002	0.009247	0.006092	-0.001976	1.000000	-0.000049	0.000025	0.000018	-1.599297	-8.827478	42.471413
06922	1.507952	-0.254709	9.675800	-0.006981	0.015126	-0.016789	1.000000	-0.000042	0.000033	0.000014	-1.598549	-8.825696	42.470703
06923	1.485355	-0.257416	9.686148	-0.022815	-0.002745	-0.009959	1.000000	-0.000046	0.000021	0.000027	-1.598469	-8.825326	42.471371
06924	1.485124	-0.258286	9.686161	-0.022413	-0.003732	-0.009958	1.000000	-0.000033	0.000001	0.000039	-1.597076	-8.827194	42.474272
06925	1.477612	-0.264929	9.727440	-0.029068	-0.017105	0.029847	1.000000	-0.000071	0.000017	0.000025	-1.599805	-8.827230	42.474730
06926	1.536572	-0.276004	9.678844	0.027518	0.018120	-0.008802	1.000000	-0.000045	0.000003	0.000025	-1.599471	-8.828876	42.475142
06927	1.506563	-0.259683	9.675884	-0.004952	0.010252	-0.016781	1.000000	-0.000040	0.000018	0.000018	-1.598469	-8.828796	42.474788
06928	1.513987	-0.279489	9.689164	0.012090	-0.000723	-0.001977	1.000000	-0.000038	0.000011	0.000021	-1.597376	-8.829539	42.475445
06929	1.506002	-0.261309	9.675928	-0.004140	0.008315	-0.016779	1.000000	-0.000041	0.000016	0.000011	-1.596385	-8.829777	42.474272
06930	1.476609	-0.279219	9.668497	-0.012523	-0.024040	-0.028136	1.000000	-0.000045	0.000013	0.000030	-1.596239	-8.830186	42.475134
06931	1.520072	-0.267025	9.706971	0.005863	0.010865	0.016201	1.000000	-0.000057	0.000025	0.000020	-1.597208	-8.829330	42.474902
06932	1.497898	-0.279708	9.658267	0.004534	-0.009064	-0.034960	1.000000	-0.000064	0.000015	0.000017	-1.599028	-8.829594	42.474192
06933	1.490365	-0.286323	9.699542	-0.002111	-0.022466	0.004837	1.000000	-0.000041	0.000006	0.000006	-1.597941	-8.830985	42.472484
06934	1.460317	-0.270003	9.696592	-0.034570	-0.030311	-0.003141	1.000000	-0.000046	0.000021	0.000027	-1.597850	-8.830506	42.472619
06935	1.511175	-0.252172	9.693797	-0.009124	0.017014	0.001413	1.000000	-0.000046	0.000011	0.000022	-1.597673	-8.831290	42.472751
06936	1.503995	-0.268344	9.676047	-0.001277	0.001564	-0.016775	1.000000	-0.000045	0.000003	0.000025	-1.597426	-8.832898	42.473407
06937	1.503662	-0.269323	9.676072	-0.000871	0.000594	-0.016775	1.000000	-0.000051	0.000030	0.000009	-1.597578	-8.831496	42.471869
