// Start Time: Unknown
// Update Rate: 100.0Hz
// Filter Profile: human (46.1)
// Firmware Version: 4.4.0
PacketCounter	Acc_X	Acc_Y	Acc_Z	FreeAcc_X	FreeAcc_Y	FreeAcc_Z	OriInc_q0	OriInc_q1	OriInc_q2	OriInc_q3	Roll	Pitch	Yaw
55683	9.555740	-0.192374	2.432664	-0.000000	0.000000	0.049718	1.000000	0.000016	0.000019	0.000015	-4.519381	-75.675655	-2.471488
55684	9.548670	-0.159408	2.426295	-0.000000	0.000000	0.040708	1.000000	0.000033	0.000020	0.000015	-3.757754	-75.714705	-3.098127
55685	9.557619	-0.197127	2.409480	0.017826	-0.023608	0.045895	1.000000	0.000026	0.000016	0.000015	-4.140455	-75.694661	-2.777603
55686	9.544166	-0.217541	2.412438	0.009628	-0.043260	0.033952	1.000000	0.000033	0.000020	0.000015	-4.142734	-75.692285	-2.771345
55687	9.555357	-0.193064	2.434112	-0.005147	-0.016326	0.049703	1.000000	0.000026	0.000017	0.000024	-4.150147	-75.690051	-2.760678
55688	9.548299	-0.160075	2.427707	0.003545	0.015852	0.040695	1.000000	0.000033	0.000019	0.000006	-4.148533	-75.687837	-2.758393
55689	9.553074	-0.189081	2.458814	-0.028139	-0.009047	0.053510	1.000000	0.000022	0.000025	0.000041	-4.163481	-75.684630	-2.740423
55690	9.543716	-0.218512	2.414128	0.009646	-0.043253	0.033952	1.000000	0.000009	0.000031	-0.000004	-4.159777	-75.681132	-2.743138
55691	9.657614	-0.431030	2.489041	-0.058777	-0.246941	0.166601	1.000000	0.000074	0.000024	0.000005	-4.153488	-75.678342	-2.740860
55692	9.628321	0.094130	2.538790	-0.051430	0.281112	0.141066	1.000000	-0.000075	0.000025	0.000041	-4.179682	-75.675109	-2.722646
55693	9.434285	-0.321293	2.200784	0.177142	-0.169402	-0.122881	1.000000	0.000224	0.000005	-0.000028	-4.141295	-75.674338	-2.735783
55694	9.481967	-0.147815	2.646226	-0.219198	0.054590	0.030129	1.000000	-0.000106	-0.000013	0.000011	-4.158824	-75.675730	-2.730271
55695	9.487822	-0.173421	2.253130	0.157950	-0.017044	-0.060754	1.000000	0.000035	0.000064	0.000010	-4.159318	-75.667775	-2.725745
55696	9.554348	-0.248686	2.697670	-0.260954	-0.039974	0.114806	1.000000	0.000083	0.000040	0.000030	-4.161769	-75.662957	-2.713373
55697	9.694264	-0.224952	2.232507	0.224766	-0.072701	0.135058	1.000000	-0.000043	0.000031	0.000014	-4.175476	-75.658250	-2.704507
55698	9.496520	-0.144876	2.300411	0.120356	0.017298	-0.041199	1.000000	0.000047	0.000009	0.000007	-4.173019	-75.657137	-2.701434
55699	9.579317	-0.169293	2.536670	-0.089203	0.020357	0.097827	1.000000	0.000012	0.000010	0.000025	-4.186757	-75.656858	-2.686060
55700	9.623283	-0.184468	2.419235	0.033457	-0.008898	0.111681	1.000000	0.000052	0.000048	0.000020	-4.188209	-75.651166	-2.678361
55701	9.465749	-0.263629	2.371167	0.032130	-0.091101	-0.051386	1.000000	0.000009	0.000032	0.000014	-4.196189	-75.647965	-2.669353
55702	9.510872	-0.098189	2.519350	-0.079128	0.090280	0.025962	1.000000	0.000043	0.000034	0.000022	-4.199970	-75.643847	-2.660419
55703	9.600024	-0.301136	2.316412	0.114991	-0.136076	0.065833	1.000000	0.000043	0.000033	0.000005	-4.199900	-75.640316	-2.655626
55704	9.573479	-0.208409	2.446703	-0.005573	-0.028061	0.070655	1.000000	-0.000022	0.000009	0.000034	-4.217326	-75.638969	-2.640273
55705	9.557558	-0.071207	2.519718	-0.063446	0.117615	0.070788	1.000000	0.000081	0.000028	0.000014	-4.222000	-75.636800	-2.626430
55706	9.516984	-0.265235	2.403480	0.016130	-0.088669	0.006270	1.000000	0.000054	0.000028	-0.000012	-4.209311	-75.633684	-2.633089
55707	9.576697	-0.197768	2.321556	0.117780	-0.031556	0.042615	1.000000	-0.000025	-0.000001	0.000035	-4.235538	-75.634256	-2.609524
55708	9.544549	-0.111310	2.601951	-0.149425	0.087946	0.079274	1.000000	0.000054	0.000030	0.000005	-4.230590	-75.630813	-2.608282
55709	9.547529	-0.300850	2.289058	0.130417	-0.137025	0.008200	1.000000	0.000030	0.000009	0.000008	-4.235387	-75.630180	-2.600029
55710	9.884189	-0.368709	2.582847	-0.074137	-0.173459	0.408303	1.000000	0.000018	0.000225	0.000052	-4.249227	-75.604008	-2.583661
55711	9.223879	0.053558	2.245662	0.134681	0.214386	-0.322603	1.000000	0.000050	-0.000300	-0.000035	-4.253975	-75.639694	-2.573900
55712	9.539780	-0.248323	2.204369	0.216621	-0.093809	-0.021233	1.000000	-0.000042	0.000206	0.000020	-4.260867	-75.615952	-2.571780
55713	9.539951	-0.189018	2.669240	-0.221871	0.019875	0.092948	1.000000	0.000170	0.000024	0.000013	-4.256389	-75.617000	-2.556727
55714	9.603520	-0.197566	2.478151	-0.022041	-0.011553	0.107355	1.000000	-0.000098	0.000100	0.000041	-4.282701	-75.605209	-2.541123
55715	9.647550	-0.212881	2.360938	0.100336	-0.040374	0.121238	1.000000	0.000118	-0.000024	-0.000007	-4.276701	-75.609749	-2.533938
55716	9.572302	-0.229789	2.532069	-0.084697	-0.035881	0.091084	1.000000	-0.000117	0.000038	0.000049	-4.310452	-75.604950	-2.512870
55717	9.570415	-0.171049	2.296690	0.148054	-0.004331	0.029820	1.000000	0.000182	-0.000014	0.000000	-4.302275	-75.608201	-2.500609
55718	9.515905	-0.286940	2.488448	-0.063060	-0.096362	0.026717	1.000000	-0.000102	0.000043	0.000022	-4.322225	-75.603081	-2.492060
55719	9.545215	-0.062918	2.324887	0.127698	0.107426	0.010364	1.000000	0.000096	0.000017	-0.000003	-4.325011	-75.604015	-2.479214
55720	9.550924	-0.264534	2.388286	0.044841	-0.085479	0.035395	1.000000	-0.000014	-0.000006	0.000018	-4.334946	-75.604519	-2.470645
55721	9.508865	-0.187283	2.544814	-0.107569	0.010736	0.032006	1.000000	0.000037	0.000029	0.000005	-4.344856	-75.605112	-2.457079
55722	9.534683	-0.260781	2.336865	0.090665	-0.086945	0.006852	1.000000	0.000057	0.000007	0.000016	-4.345281	-75.604192	-2.449848
55723	9.531052	-0.204798	2.525977	-0.085666	-0.008381	0.049161	1.000000	0.000011	0.000044	0.000021	-4.367054	-75.602609	-2.427565
55724	9.588505	-0.199817	2.406150	0.045179	-0.017970	0.075009	1.000000	0.000053	0.000031	0.000014	-4.365951	-75.599018	-2.422413
55725	9.543938	-0.251508	2.462516	-0.025893	-0.061721	0.046801	1.000000	0.000040	0.000039	0.000004	-4.376891	-75.597575	-2.407819
55726	9.581289	-0.166722	2.400497	0.053365	0.014873	0.065987	1.000000	0.000002	0.000012	0.000016	-4.383392	-75.596104	-2.400850
55727	9.588297	-0.133148	2.469708	-0.007799	0.057055	0.089298	1.000000	0.000061	0.000000	0.000017	-4.399480	-75.598281	-2.378783
55728	9.570492	-0.211337	2.458111	-0.009894	-0.021715	0.070668	1.000000	0.000033	0.000020	0.000015	-4.401730	-75.595921	-2.372597
55729	9.561283	-0.240808	2.413108	0.027474	-0.055390	0.051155	1.000000	0.000037	-0.000003	0.000026	-4.421625	-75.598634	-2.348041
55730	9.563501	-0.178743	2.451524	-0.001625	0.011005	0.061640	1.000000	0.000002	0.000012	0.000016	-4.428135	-75.597153	-2.341072
55731	9.536103	-0.199777	2.378414	0.059386	-0.017420	0.017379	1.000000	0.000057	0.000007	0.000016	-4.441609	-75.597969	-2.321455
55732	9.553687	-0.188691	2.328146	0.113563	-0.012316	0.021729	1.000000	0.000013	0.000009	0.000016	-4.447176	-75.596820	-2.314241
55733	9.542998	-0.166266	2.448050	-0.001846	0.024631	0.040678	1.000000	0.000026	0.000032	0.000005	-4.457483	-75.595782	-2.301054
55734	9.573755	-0.201717	2.333320	0.112616	-0.024276	0.042696	1.000000	0.000040	0.000023	0.000014	-4.458619	-75.592977	-2.295220
55735	9.551713	-0.204094	2.432210	0.011550	-0.014275	0.045923	1.000000	0.000029	0.000044	0.000021	-4.474859	-75.593124	-2.275885
55736	9.584644	-0.177430	2.356132	0.096911	0.003212	0.058423	1.000000	0.000018	0.000047	0.000021	-4.480333	-75.587554	-2.268129
55737	9.533089	-0.196178	2.405802	0.034234	-0.008555	0.021178	1.000000	0.000039	0.000040	0.000012	-4.490733	-75.587702	-2.253711
55738	9.566602	-0.188872	2.408132	0.041915	-0.001393	0.054070	1.000000	0.000043	0.000034	0.000013	-4.490588	-75.583738	-2.248825
55739	9.532760	-0.196372	2.407090	0.033331	-0.008111	0.021181	1.000000	0.000039	0.000024	0.000023	-4.504947	-75.586138	-2.229268
55740	9.566358	-0.189021	2.409090	0.041009	-0.000948	0.054073	1.000000	0.000044	0.000015	-0.000002	-4.498489	-75.584434	-2.230737
55741	9.571035	-0.217456	2.440244	0.008305	-0.025378	0.066891	1.000000	0.000040	0.000023	0.000006	-4.505406	-75.587768	-2.220071
55742	9.575172	-0.226566	2.392924	0.054293	-0.039939	0.059334	1.000000	0.000012	0.000026	0.000014	-4.509529	-75.584699	-2.214398
55743	9.550483	-0.204805	2.436977	0.007914	-0.012423	0.045929	1.000000	0.000029	0.000026	0.000014	-4.521205	-75.586899	-2.198758
55744	9.563731	-0.184781	2.434927	0.016101	0.007245	0.057857	1.000000	0.000025	0.000034	0.000022	-4.526930	-75.582830	-2.189860
55745	9.550170	-0.205124	2.438178	0.007289	-0.011975	0.045930	1.000000	0.000037	0.000029	0.000005	-4.533840	-75.583155	-2.180012
55746	9.550048	-0.205189	2.438650	0.007295	-0.011972	0.045930	1.000000	0.000016	0.000019	0.000015	-4.538118	-75.580801	-2.173752
55747	9.532226	-0.216598	2.489627	-0.047578	-0.016615	0.041547	1.000000	0.000032	0.000037	0.000022	-4.552799	-75.580469	-2.156609
55748	9.563112	-0.185238	2.437324	0.014789	0.008156	0.057859	1.000000	0.000013	0.000041	-0.000005	-4.547816	-75.575783	-2.160330
55749	9.560790	-0.180694	2.461934	-0.009068	0.015938	0.061630	1.000000	0.000026	0.000033	0.000013	-4.560536	-75.577008	-2.147920
55750	9.545080	-0.196629	2.489078	-0.040245	0.003562	0.053472	1.000000	0.000019	0.000030	0.000022	-4.567471	-75.573331	-2.138649
55751	9.565210	-0.209811	2.493936	-0.041085	-0.008635	0.074437	1.000000	0.000036	0.000031	0.000022	-4.578913	-75.571490	-2.122500
55752	9.567227	-0.214508	2.470514	-0.018082	-0.015914	0.070668	1.000000	0.000043	0.000017	0.000015	-4.580239	-75.569401	-2.116081
55753	9.533444	-0.221841	2.469214	-0.026158	-0.022757	0.037774	1.000000	0.000044	0.000016	0.000007	-4.584801	-75.570004	-2.106495
55754	9.530780	-0.197874	2.414792	0.028549	-0.005156	0.021198	1.000000	0.000047	0.000011	0.000025	-4.590126	-75.568495	-2.095557
55755	9.578282	-0.189937	2.492559	-0.033417	0.011738	0.086361	1.000000	0.000057	0.000007	0.000016	-4.598953	-75.568292	-2.081575
55756	9.528534	-0.193461	2.439074	0.005449	0.002500	0.024966	1.000000	0.000037	0.000012	0.000007	-4.597570	-75.566757	-2.078727
55757	9.564324	-0.190644	2.417025	0.036111	0.002753	0.054092	1.000000	0.000030	0.000009	0.000008	-4.605772	-75.565735	-2.069666
55758	9.548723	-0.206321	2.443738	0.004946	-0.009619	0.045934	1.000000	0.000030	0.000009	0.000008	-4.605574	-75.564594	-2.066442
55759	9.550832	-0.210887	2.419988	0.027229	-0.016535	0.042169	1.000000	0.000024	0.000005	0.000008	-4.614320	-75.568209	-2.057412
55760	9.557350	-0.157600	2.410484	0.044134	0.035307	0.045052	1.000000	0.000017	0.000001	0.000008	-4.616382	-75.567928	-2.053477
55761	9.543876	-0.177808	2.413381	0.035847	0.015836	0.033127	1.000000	0.000013	0.000024	-0.000003	-4.617210	-75.565797	-2.051030
55762	9.575324	-0.166028	2.439302	0.020524	0.030308	0.069785	1.000000	0.000026	0.000017	0.000024	-4.624569	-75.563570	-2.040543
55763	9.579558	-0.175404	2.391749	0.065827	0.015869	0.062259	1.000000	0.000023	0.000006	0.000017	-4.631588	-75.566789	-2.029743
55764	9.563942	-0.191223	2.418490	0.034656	0.003497	0.054097	1.000000	0.000010	0.000015	0.000007	-4.633284	-75.564996	-2.027019
55765	9.577278	-0.171124	2.416141	0.042257	0.023301	0.066025	1.000000	0.000026	0.000016	0.000015	-4.639185	-75.566438	-2.018091
55766	9.595346	-0.179627	2.444568	0.018739	0.018105	0.090755	1.000000	0.000030	0.000009	0.000016	-4.642817	-75.565177	-2.010951
55767	9.556857	-0.158646	2.412371	0.042188	0.036034	0.045058	1.000000	0.000026	0.000017	0.000024	-4.654866	-75.566615	-1.999674
55768	9.577035	-0.171876	2.417053	0.041660	0.023553	0.066027	1.000000	0.000022	0.000024	0.000023	-4.662078	-75.563689	-1.989787
55769	9.554507	-0.154694	2.437005	0.018394	0.043427	0.048819	1.000000	0.000020	0.000012	0.000016	-4.667939	-75.566832	-1.982911
55770	9.531898	-0.204592	2.394804	0.048015	-0.010475	0.017451	1.000000	0.000036	0.000015	0.000033	-4.678229	-75.564869	-1.968248
55771	9.534046	-0.142733	2.433364	0.018437	0.055974	0.027851	1.000000	0.000004	0.000025	0.000041	-4.695471	-75.564530	-1.951252
55772	9.563184	-0.193838	2.421277	0.032176	0.004045	0.054105	1.000000	0.000025	0.000034	0.000022	-4.701425	-75.560476	-1.942321
55773	9.563050	-0.194281	2.421771	0.031522	0.003996	0.054108	1.000000	0.000008	0.000017	0.000033	-4.712712	-75.562011	-1.929676
55774	9.594461	-0.182967	2.447794	0.016168	0.018476	0.090759	1.000000	0.000008	0.000034	0.000031	-4.724557	-75.557857	-1.916730
55775	9.549333	-0.215594	2.425482	0.023185	-0.015631	0.042181	1.000000	0.000022	0.000024	0.000032	-4.735879	-75.555602	-1.905317
55776	9.562620	-0.195715	2.423352	0.031370	0.004053	0.054108	1.000000	0.000019	0.000029	0.000014	-4.739131	-75.552111	-1.899955
55777	9.562513	-0.195905	2.423761	0.030674	0.004067	0.054110	1.000000	0.000020	0.000012	0.000016	-4.743274	-75.554593	-1.895050
55778	9.548990	-0.216437	2.426758	0.022488	-0.015584	0.042183	1.000000	0.000005	0.000023	0.000023	-4.752618	-75.551760	-1.885057
55779	9.528600	-0.203701	2.422900	0.022515	-0.002885	0.021215	1.000000	0.000040	0.000022	0.000006	-4.754327	-75.552161	-1.885377
55780	9.569061	-0.229632	2.431833	0.021429	-0.027848	0.063153	1.000000	0.000030	0.000010	0.000025	-4.762047	-75.550778	-1.874242
55781	9.541881	-0.183835	2.420806	0.030197	0.016908	0.033144	1.000000	0.000037	0.000013	0.000016	-4.766457	-75.552077	-1.868724
55782	9.548645	-0.217097	2.428058	0.021464	-0.015226	0.042186	1.000000	0.000026	0.000016	0.000015	-4.770208	-75.550118	-1.862101
55783	9.550727	-0.221943	2.404464	0.043515	-0.022516	0.038439	1.000000	0.000019	0.000013	0.000024	-4.777799	-75.553899	-1.851717
55784	9.580039	-0.205837	2.454119	0.005154	-0.000725	0.078834	1.000000	0.000030	0.000010	0.000025	-4.785552	-75.552565	-1.840574
55785	9.568633	-0.230753	2.433410	0.019034	-0.027526	0.063159	1.000000	0.000029	0.000043	0.000003	-4.785299	-75.553133	-1.841203
55786	9.550371	-0.222406	2.405834	0.042558	-0.022308	0.038444	1.000000	0.000050	0.000020	0.000015	-4.785901	-75.550796	-1.835033
55787	9.543707	-0.208792	2.478123	-0.027374	-0.000287	0.049680	1.000000	0.000001	0.000046	0.000012	-4.791563	-75.551020	-1.830971
55788	9.561308	-0.198002	2.428341	0.026774	0.004807	0.054121	1.000000	0.000033	0.000021	0.000024	-4.798086	-75.548612	-1.820777
55789	9.536478	-0.243170	2.410247	0.033581	-0.041673	0.026519	1.000000	0.000047	0.000027	0.000014	-4.801676	-75.544307	-1.815640
55790	9.549811	-0.223025	2.407998	0.041749	-0.021979	0.038448	1.000000	0.000010	0.000015	0.000007	-4.803764	-75.542670	-1.812802
55791	9.534098	-0.238753	2.434940	0.010054	-0.034193	0.030264	1.000000	0.000029	0.000026	0.000014	-4.808816	-75.542545	-1.806477
55792	9.560850	-0.198441	2.430109	0.026408	0.005168	0.054122	1.000000	0.000040	0.000023	0.000014	-4.810458	-75.539862	-1.800532
55793	9.549483	-0.223236	2.409281	0.040458	-0.021632	0.038454	1.000000	0.000044	0.000016	0.000007	-4.811158	-75.542450	-1.796885
55794	9.547232	-0.218601	2.433474	0.017440	-0.014298	0.042195	1.000000	0.000027	0.000015	0.000007	-4.811227	-75.540789	-1.794136
55795	9.520022	-0.172683	2.422617	0.026520	0.030336	0.012184	1.000000	0.000009	0.000032	0.000014	-4.814540	-75.538181	-1.787631
55796	9.560443	-0.198503	2.431703	0.025389	0.005386	0.054125	1.000000	0.000037	0.000011	-0.000002	-4.809788	-75.537023	-1.788557
55797	9.542268	-0.189980	2.403851	0.048619	0.010564	0.029416	1.000000	0.000030	0.000025	-0.000003	-4.803494	-75.536079	-1.789173
55798	9.575882	-0.182685	2.405884	0.056228	0.017769	0.062316	1.000000	0.000020	0.000012	0.000016	-4.808446	-75.534624	-1.782179
55799	9.573601	-0.178339	2.430151	0.032646	0.025244	0.066056	1.000000	0.000029	0.000027	0.000023	-4.817839	-75.534763	-1.772231
55800	9.571311	-0.173969	2.454452	0.009629	0.032577	0.069794	1.000000	0.000026	0.000016	0.000015	-4.821706	-75.532915	-1.765583
55801	9.570938	-0.154803	2.376170	0.086758	0.042864	0.049545	1.000000	0.000033	0.000020	0.000015	-4.824332	-75.534012	-1.759293
55802	9.559835	-0.199043	2.434047	0.023816	0.005680	0.054128	1.000000	0.000029	0.000026	0.000014	-4.826899	-75.531017	-1.753617
55803	9.573147	-0.178967	2.431896	0.030561	0.025401	0.066063	1.000000	0.000029	0.000026	0.000014	-4.829035	-75.536306	-1.748373
55804	9.575188	-0.183722	2.408562	0.053517	0.018127	0.062330	1.000000	0.000019	0.000029	0.000014	-4.832542	-75.533044	-1.742958
55805	9.539171	-0.186637	2.431250	0.022042	0.018275	0.033163	1.000000	0.000033	0.000021	0.000024	-4.838314	-75.535508	-1.733917
55806	9.539046	-0.186928	2.431716	0.021998	0.018305	0.033163	1.000000	0.000029	0.000027	0.000023	-4.844712	-75.532447	-1.724337
55807	9.541111	-0.191746	2.408300	0.043854	0.010719	0.029438	1.000000	0.000033	0.000020	0.000015	-4.839182	-75.536680	-1.718379
55808	9.552270	-0.167143	2.429901	0.028982	0.037713	0.045099	1.000000	0.000033	0.000021	0.000024	-4.845658	-75.534426	-1.708225
55809	9.538715	-0.187548	2.432967	0.019939	0.018053	0.033168	1.000000	0.000033	0.000020	0.000015	-4.847275	-75.537097	-1.703880
55810	9.574507	-0.185274	2.411150	0.050487	0.017955	0.062346	1.000000	0.000025	0.000019	0.000041	-4.862547	-75.534926	-1.685543
55811	9.545326	-0.221447	2.440683	0.010265	-0.013786	0.042206	1.000000	0.000037	0.000013	0.000016	-4.871037	-75.538402	-1.682014
55812	9.558675	-0.201500	2.438399	0.018381	0.005910	0.054140	1.000000	0.000012	0.000027	0.000023	-4.879503	-75.535517	-1.672343
55813	9.560749	-0.206475	2.414950	0.040766	-0.001280	0.050419	1.000000	0.000026	0.000017	0.000024	-4.888909	-75.536932	-1.664069
55814	9.560637	-0.206748	2.415366	0.040699	-0.001246	0.050419	1.000000	0.000012	0.000026	0.000014	-4.893587	-75.534238	-1.658297
55815	9.558314	-0.202298	2.439746	0.017172	0.005922	0.054142	1.000000	0.000029	0.000026	0.000014	-4.891795	-75.534154	-1.654550
55816	9.560413	-0.207064	2.416228	0.040101	-0.001353	0.050422	1.000000	0.000030	0.000009	0.000016	-4.895859	-75.533318	-1.647301
55817	9.542456	-0.218096	2.467083	-0.014272	-0.006315	0.045927	1.000000	0.000016	0.000035	0.000004	-4.896555	-75.530409	-1.649070
55818	9.546710	-0.227513	2.419847	0.031655	-0.020900	0.038488	1.000000	0.000026	0.000017	0.000024	-4.904304	-75.528620	-1.638517
55819	9.546620	-0.227906	2.420163	0.030719	-0.020526	0.038492	1.000000	0.000036	0.000015	0.000033	-4.922504	-75.532142	-1.626281
55820	9.557788	-0.203315	2.441720	0.015838	0.006489	0.054144	1.000000	0.000023	0.000022	0.000006	-4.922519	-75.529994	-1.624131
55821	9.568822	-0.245728	2.401597	0.051503	-0.040350	0.055754	1.000000	0.000033	0.000037	0.000013	-4.920522	-75.534803	-1.620262
55822	9.537250	-0.190542	2.438472	0.014779	0.018951	0.033175	1.000000	0.000033	0.000020	0.000015	-4.923396	-75.532903	-1.613958
55823	9.543933	-0.223775	2.445911	0.004051	-0.013107	0.042211	1.000000	0.000033	0.000020	0.000015	-4.926310	-75.542034	-1.608223
55824	9.559505	-0.208424	2.419699	0.035123	-0.000718	0.050441	1.000000	0.000036	0.000014	0.000024	-4.933212	-75.540819	-1.597386
55825	9.559381	-0.208572	2.420179	0.034859	-0.001005	0.050442	1.000000	0.000016	0.000035	0.000004	-4.924958	-75.538228	-1.595828
55826	9.559242	-0.208594	2.420724	0.034757	-0.000970	0.050442	1.000000	0.000050	0.000020	0.000015	-4.925688	-75.536370	-1.589658
55827	9.545675	-0.228906	2.423795	0.025954	-0.020539	0.038505	1.000000	0.000016	0.000019	0.000015	-4.931630	-75.537706	-1.584151
55828	9.577070	-0.217275	2.449779	0.010438	-0.006014	0.075121	1.000000	0.000022	0.000024	0.000023	-4.939215	-75.535397	-1.574223
55829	9.522993	-0.211865	2.444149	0.002437	-0.000231	0.021241	1.000000	0.000023	0.000023	0.000015	-4.952720	-75.538637	-1.570201
55830	9.536352	-0.191823	2.441883	0.010505	0.019473	0.033180	1.000000	0.000033	0.000020	0.000015	-4.955656	-75.536897	-1.563884
55831	9.560889	-0.214158	2.398987	0.055332	-0.007324	0.046749	1.000000	0.000029	0.000026	0.000014	-4.964936	-75.537104	-1.560107
55832	9.556313	-0.204915	2.447355	0.009229	0.007364	0.054152	1.000000	0.000023	0.000039	0.000004	-4.963559	-75.533294	-1.559542
55833	9.569657	-0.184877	2.445152	0.017652	0.026802	0.066090	1.000000	0.000030	0.000010	0.000025	-4.965604	-75.530388	-1.548884
55834	9.551553	-0.176701	2.417169	0.041140	0.032010	0.041417	1.000000	0.000017	0.000017	-0.000002	-4.962965	-75.529037	-1.550278
55835	9.551456	-0.176598	2.417561	0.041242	0.032347	0.041416	1.000000	0.000040	0.000022	0.000006	-4.968210	-75.525877	-1.550523
55836	9.551334	-0.176618	2.418040	0.041141	0.032394	0.041416	1.000000	0.000029	0.000026	0.000014	-4.971074	-75.523321	-1.544792
55837	9.551218	-0.176744	2.418491	0.038655	0.032887	0.041425	1.000000	0.000033	0.000020	0.000015	-4.983323	-75.535631	-1.541081
55838	9.584821	-0.169590	2.420626	0.046107	0.040116	0.074337	1.000000	0.000040	0.000023	0.000014	-4.985365	-75.533555	-1.535053
55839	9.569024	-0.185220	2.447601	0.014646	0.027832	0.066093	1.000000	0.000033	0.000020	0.000015	-4.988325	-75.532809	-1.530650
55840	9.530675	-0.164272	2.415261	0.038738	0.045520	0.020453	1.000000	0.000019	0.000013	0.000024	-4.997598	-75.531766	-1.519619
55841	9.568831	-0.185674	2.448324	0.012596	0.027440	0.066096	1.000000	0.000047	0.000027	0.000014	-4.985658	-75.539721	-1.512751
55842	9.550703	-0.177425	2.420474	0.036065	0.032647	0.041435	1.000000	0.000027	0.000015	0.000007	-4.986022	-75.538729	-1.509946
55843	9.534922	-0.193047	2.447362	0.003902	0.020631	0.033182	1.000000	0.000016	0.000019	0.000015	-4.997043	-75.542249	-1.507328
55844	9.570757	-0.190728	2.425569	0.034315	0.020530	0.062411	1.000000	0.000026	0.000017	0.000024	-5.005161	-75.540931	-1.496673
55845	9.536940	-0.198228	2.424240	0.025944	0.013568	0.029498	1.000000	0.000023	0.000023	0.000015	-5.012776	-75.542953	-1.493179
55846	9.557075	-0.211323	2.429030	0.025174	0.001141	0.050471	1.000000	0.000026	0.000016	0.000015	-5.017129	-75.541845	-1.486413
55847	9.548016	-0.173716	2.446107	0.011257	0.041029	0.045122	1.000000	0.000026	0.000016	0.000015	-5.030246	-75.538352	-1.485408
55848	9.554703	-0.207028	2.453456	0.002302	0.008952	0.054154	1.000000	0.000013	0.000009	0.000016	-5.036979	-75.538016	-1.477872
55849	9.568050	-0.187165	2.451260	0.009384	0.028817	0.066096	1.000000	0.000039	0.000042	0.000030	-5.048255	-75.539445	-1.468483
55850	9.536400	-0.199371	2.426271	0.024663	0.014362	0.029500	1.000000	0.000016	0.000019	0.000015	-5.053721	-75.537992	-1.461924
55851	9.569998	-0.192296	2.428439	0.032885	0.021500	0.062413	1.000000	0.000029	0.000026	0.000014	-5.055115	-75.530951	-1.460331
55852	9.556393	-0.212678	2.431593	0.024553	0.001908	0.050472	1.000000	0.000033	0.000021	0.000023	-5.062356	-75.529195	-1.449965
55853	9.536062	-0.200056	2.427543	0.023756	0.014699	0.029502	1.000000	0.000026	0.000017	0.000024	-5.075900	-75.535435	-1.443438
55854	9.569665	-0.193045	2.429694	0.031166	0.021942	0.062418	1.000000	0.000029	0.000026	0.000014	-5.079194	-75.533168	-1.437585
55855	9.531378	-0.191053	2.476135	-0.023186	0.029798	0.036855	1.000000	0.000033	0.000020	0.000015	-5.088495	-75.535602	-1.434400
55856	9.558203	-0.218329	2.409292	0.044987	-0.004668	0.046803	1.000000	0.000029	0.000011	0.000033	-5.101063	-75.534909	-1.419074
55857	9.535667	-0.200797	2.429034	0.021623	0.015173	0.029506	1.000000	0.000024	0.000020	-0.000011	-5.092167	-75.538652	-1.427428
55858	9.571491	-0.198306	2.407379	0.052005	0.015065	0.058751	1.000000	0.000029	0.000028	0.000031	-5.103216	-75.536081	-1.413733
55859	9.557904	-0.218662	2.410448	0.043377	-0.004091	0.046811	1.000000	0.000047	0.000009	0.000007	-5.112377	-75.537552	-1.414446
55860	9.535371	-0.201185	2.430165	0.020874	0.015825	0.029507	1.000000	0.000016	0.000020	0.000024	-5.121990	-75.535983	-1.403882
55861	9.535271	-0.201394	2.430536	0.019716	0.016172	0.029508	1.000000	0.000016	0.000018	0.000006	-5.129819	-75.540674	-1.404664
55862	9.555411	-0.214307	2.435308	0.018896	0.003778	0.050484	1.000000	0.000044	0.000016	0.000007	-5.128865	-75.539804	-1.401720
55863	9.557549	-0.219096	2.411816	0.040917	-0.003460	0.046821	1.000000	0.000033	0.000021	0.000023	-5.137274	-75.542872	-1.395791
55864	9.573180	-0.203892	2.385613	0.071930	0.008904	0.055101	1.000000	0.000009	0.000016	0.000015	-5.144312	-75.541967	-1.388728
55865	9.548398	-0.181761	2.429230	0.025068	0.036314	0.041457	1.000000	0.000033	0.000020	0.000015	-5.150124	-75.548675	-1.384716
55866	9.568503	-0.194823	2.434121	0.024222	0.023925	0.062433	1.000000	0.000029	0.000026	0.000014	-5.153806	-75.546615	-1.378747
55867	9.570606	-0.199642	2.410784	0.047407	0.016547	0.058772	1.000000	0.000029	0.000026	0.000014	-5.155624	-75.542275	-1.376352
55868	9.532294	-0.197542	2.457223	-0.006286	0.024205	0.033173	1.000000	0.000023	0.000022	0.000006	-5.156621	-75.540774	-1.373920
55869	9.568135	-0.195095	2.435546	0.023069	0.024344	0.062435	1.000000	0.000023	0.000023	0.000015	-5.166931	-75.544947	-1.371605
55870	9.547781	-0.182281	2.431615	0.023548	0.036907	0.041458	1.000000	0.000036	0.000030	0.000014	-5.169567	-75.542492	-1.365981
55871	9.547639	-0.182385	2.432165	0.020900	0.036776	0.041465	1.000000	0.000029	0.000026	0.000014	-5.166760	-75.554824	-1.362301
55872	9.536249	-0.207373	2.411533	0.035473	0.009838	0.025869	1.000000	0.000029	0.000026	0.000014	-5.170494	-75.552892	-1.356322
55873	9.547392	-0.182694	2.433111	0.020625	0.036681	0.041465	1.000000	0.000043	0.000017	0.000024	-5.171057	-75.550996	-1.349255
55874	9.527082	-0.170042	2.428998	0.021095	0.049241	0.020489	1.000000	0.000026	0.000017	0.000024	-5.179933	-75.550021	-1.338371
55875	9.544947	-0.178564	2.457706	-0.003352	0.044647	0.045112	1.000000	0.000039	0.000024	0.000023	-5.195960	-75.551768	-1.332939
55876	9.533608	-0.203612	2.436870	0.011215	0.017709	0.029519	1.000000	0.000040	0.000006	0.000016	-5.200402	-75.552101	-1.325012
55877	9.567269	-0.196451	2.438838	0.017843	0.024860	0.062444	1.000000	0.000027	0.000015	0.000007	-5.198688	-75.555548	-1.326622
55878	9.526778	-0.170752	2.430138	0.018995	0.049896	0.020490	1.000000	0.000023	0.000007	0.000025	-5.209031	-75.555779	-1.314685
55879	9.567198	-0.196817	2.439087	0.017159	0.025233	0.062444	1.000000	0.000038	-0.000005	0.000009	-5.215366	-75.559031	-1.316566
55880	9.553698	-0.217154	2.441768	0.008734	0.005685	0.050498	1.000000	0.000026	-0.000000	0.000026	-5.225993	-75.560017	-1.303959
55881	9.553624	-0.217357	2.442040	0.006967	0.005686	0.050499	1.000000	0.000047	0.000027	0.000014	-5.224815	-75.567136	-1.302027
55882	9.582781	-0.181928	2.413144	0.046144	0.037676	0.070759	1.000000	0.000002	0.000012	0.000016	-5.233260	-75.566929	-1.294517
55883	9.562463	-0.169361	2.409067	0.045868	0.049836	0.049787	1.000000	0.000029	0.000028	0.000031	-5.234796	-75.568981	-1.282739
55884	9.569016	-0.202671	2.416835	0.036737	0.017814	0.058815	1.000000	0.000026	0.000032	0.000005	-5.234588	-75.566612	-1.281300
55885	9.582379	-0.182561	2.414691	0.044005	0.037611	0.070769	1.000000	0.000029	0.000026	0.000014	-5.239605	-75.568980	-1.280481
55886	9.548519	-0.189917	2.413479	0.036259	0.030534	0.037842	1.000000	0.000019	0.000029	0.000014	-5.244409	-75.566857	-1.274747
55887	9.559641	-0.165105	2.435144	0.020940	0.057707	0.053424	1.000000	0.000030	0.000026	0.000005	-5.245306	-75.567127	-1.277696
55888	9.548226	-0.189942	2.414638	0.035474	0.030763	0.037844	1.000000	0.000023	0.000039	0.000004	-5.244964	-75.564041	-1.276883
55889	9.527892	-0.177143	2.410641	0.035735	0.043502	0.016867	1.000000	0.000030	0.000010	0.000025	-5.258432	-75.565274	-1.272554
55890	9.543546	-0.180901	2.462972	-0.011165	0.045942	0.045101	1.000000	0.000023	0.000006	0.000017	-5.265120	-75.565826	-1.264476
55891	9.568191	-0.203362	2.420041	0.033467	0.018795	0.058825	1.000000	0.000040	0.000022	0.000006	-5.264981	-75.566846	-1.266706
55892	9.534376	-0.210523	2.418654	0.025721	0.011725	0.025897	1.000000	0.000027	0.000015	0.000007	-5.266524	-75.566438	-1.263549
55893	9.554519	-0.223550	2.423383	0.025805	-0.000650	0.046873	1.000000	0.000030	0.000009	0.000016	-5.272553	-75.560542	-1.262673
55894	9.565731	-0.198807	2.444672	0.010819	0.026504	0.062450	1.000000	0.000040	0.000006	0.000016	-5.277257	-75.560992	-1.254674
55895	9.572386	-0.231876	2.452028	0.002289	-0.005832	0.071479	1.000000	0.000031	0.000008	-0.000001	-5.267760	-75.557731	-1.260188
55896	9.567909	-0.203385	2.421154	0.033974	0.018965	0.058823	1.000000	0.000047	0.000009	0.000007	-5.267467	-75.557925	-1.256485
55897	9.536318	-0.234156	2.474475	-0.030008	-0.005278	0.042174	1.000000	0.000030	0.000009	0.000007	-5.270973	-75.566161	-1.255345
55898	9.531855	-0.205793	2.443533	0.001674	0.019516	0.029522	1.000000	0.000034	0.000002	0.000008	-5.273004	-75.567222	-1.250878
55899	9.533984	-0.229398	2.498610	-0.054151	0.002077	0.045791	1.000000	0.000027	0.000015	0.000007	-5.267929	-75.570839	-1.251443
55900	9.551955	-0.218730	2.448438	-0.000213	0.006988	0.050501	1.000000	0.000030	0.000009	0.000007	-5.269722	-75.571173	-1.247636
55901	9.549671	-0.213895	2.472386	-0.024632	0.014762	0.054117	1.000000	0.000034	0.000001	-0.000000	-5.273170	-75.579538	-1.251800
55902	9.545244	-0.185537	2.441309	0.007047	0.039551	0.041473	1.000000	0.000037	-0.000004	0.000018	-5.279303	-75.581239	-1.242757
55903	9.585665	-0.211400	2.450253	0.005971	0.014764	0.083431	1.000000	0.000045	-0.000002	-0.000000	-5.277882	-75.579310	-1.247981
55904	9.587970	-0.216034	2.426238	0.028705	0.007448	0.079815	1.000000	0.000045	-0.000018	0.000011	-5.280653	-75.582673	-1.241539
55905	9.597084	-0.167374	2.392339	0.068567	0.051557	0.079126	1.000000	0.000031	0.000007	-0.000010	-5.267614	-75.583663	-1.251283
55906	9.549780	-0.194571	2.393592	0.052603	0.024859	0.034243	1.000000	0.000050	0.000020	0.000015	-5.269905	-75.582606	-1.244669
55907	9.563205	-0.174383	2.391226	0.060534	0.044300	0.046198	1.000000	0.000017	0.000017	-0.000002	-5.261588	-75.582332	-1.251560
55908	9.545202	-0.166236	2.363118	0.084001	0.049444	0.021607	1.000000	0.000023	0.000006	0.000017	-5.268416	-75.582892	-1.243454
55909	9.563085	-0.174550	2.391694	0.059346	0.044725	0.046204	1.000000	0.000016	0.000018	0.000006	-5.275964	-75.586380	-1.246422
55910	9.531518	-0.186551	2.366513	0.074583	0.030232	0.009662	1.000000	0.000013	0.000025	0.000006	-5.278372	-75.584894	-1.244162
55911	9.576393	-0.154639	2.389781	0.065593	0.064923	0.058166	1.000000	0.000026	0.000017	0.000024	-5.295607	-75.593033	-1.239401
55912	9.560497	-0.170190	2.416802	0.034137	0.052843	0.049819	1.000000	0.000019	0.000029	0.000005	-5.296957	-75.591200	-1.237495
55913	9.589650	-0.134732	2.388081	0.071831	0.084925	0.070131	1.000000	0.000026	0.000033	0.000013	-5.303825	-75.597528	-1.231371
55914	9.578280	-0.159765	2.367435	0.086308	0.057967	0.054577	1.000000	0.000037	0.000013	0.000016	-5.308583	-75.597420	-1.223951
55915	9.544463	-0.167147	2.366036	0.078750	0.050909	0.021643	1.000000	0.000039	0.000024	0.000023	-5.316095	-75.594900	-1.220073
55916	9.553330	-0.137576	2.411451	0.040786	0.085545	0.040797	1.000000	0.000030	0.000026	0.000005	-5.316607	-75.593462	-1.217872
55917	9.541956	-0.162693	2.390815	0.053554	0.058775	0.025253	1.000000	0.000032	0.000021	0.000032	-5.332707	-75.602296	-1.207425
55918	9.546235	-0.191386	2.422383	0.021318	0.034255	0.037873	1.000000	0.000029	0.000027	0.000023	-5.340960	-75.600546	-1.197373
55919	9.573163	-0.151398	2.417362	0.035886	0.073666	0.061789	1.000000	0.000033	0.000021	0.000023	-5.349550	-75.609129	-1.190323
55920	9.546012	-0.192172	2.423200	0.019132	0.034531	0.037877	1.000000	0.000018	0.000015	0.000042	-5.368036	-75.608625	-1.171006
55921	9.566077	-0.205480	2.428206	0.017960	0.021995	0.058859	1.000000	0.000016	0.000035	0.000004	-5.364671	-75.606912	-1.176312
55922	9.563636	-0.200813	2.452694	-0.005292	0.029572	0.062446	1.000000	0.000009	0.000033	0.000013	-5.370955	-75.604717	-1.170735
55923	9.563474	-0.201086	2.453300	-0.005284	0.029809	0.062445	1.000000	0.000019	0.000030	0.000022	-5.383018	-75.601028	-1.169633
55924	9.554334	-0.231236	2.408963	0.032129	-0.004615	0.043316	1.000000	0.000001	0.000031	0.000031	-5.398177	-75.598839	-1.155834
55925	9.527157	-0.204372	2.476509	-0.036083	0.030498	0.033091	1.000000	0.000002	0.000029	0.000014	-5.409015	-75.595917	-1.156723
55926	9.540548	-0.184425	2.474299	-0.028112	0.050249	0.045046	1.000000	0.000029	0.000026	0.000014	-5.413566	-75.594385	-1.150567
55927	9.538118	-0.247347	2.437063	-0.000379	-0.015697	0.034948	1.000000	0.000026	0.000016	0.000015	-5.432578	-75.597850	-1.152872
55928	9.540333	-0.252437	2.413450	0.022303	-0.023043	0.031366	1.000000	0.000006	0.000006	0.000025	-5.445905	-75.598519	-1.140577
55929	9.560555	-0.198054	2.479483	-0.031888	0.038592	0.066016	1.000000	0.000038	-0.000005	0.000009	-5.444037	-75.609521	-1.138383
55930	9.565088	-0.207672	2.431912	0.013749	0.023767	0.058861	1.000000	0.000037	0.000013	0.000016	-5.449169	-75.609571	-1.130868
55931	9.551496	-0.227878	2.434869	0.005531	0.004511	0.046904	1.000000	0.000057	0.000007	0.000016	-5.458144	-75.608441	-1.132126
55932	9.555977	-0.237551	2.387508	0.051166	-0.010328	0.039754	1.000000	0.000023	0.000023	0.000014	-5.464033	-75.607373	-1.125539
55933	9.549052	-0.223351	2.459321	-0.019958	0.012565	0.050475	1.000000	0.000030	0.000009	0.000016	-5.476396	-75.619272	-1.122010
55934	9.551249	-0.228177	2.435810	0.002703	0.005211	0.046905	1.000000	0.000040	0.000022	0.000006	-5.476448	-75.618412	-1.119423
55935	9.555739	-0.237818	2.388434	0.048277	-0.009743	0.039769	1.000000	0.000023	0.000006	0.000017	-5.481644	-75.619572	-1.118004
55936	9.553417	-0.233127	2.412414	0.025018	-0.002110	0.043338	1.000000	0.000030	0.000009	0.000007	-5.484239	-75.620271	-1.113983
55937	9.548808	-0.223534	2.460251	-0.022718	0.013638	0.050468	1.000000	0.000030	0.000009	0.000007	-5.500491	-75.629936	-1.115406
55938	9.575812	-0.250874	2.393419	0.045030	-0.021184	0.060767	1.000000	0.000034	0.000002	0.000008	-5.503443	-75.631443	-1.110677
55939	9.566864	-0.212863	2.410041	0.030382	0.018135	0.055303	1.000000	0.000014	0.000006	-0.000010	-5.490985	-75.635295	-1.117547
55940	9.569127	-0.217533	2.386301	0.053028	0.010771	0.051745	1.000000	0.000034	0.000002	0.000008	-5.493900	-75.636816	-1.112835
55941	9.569127	-0.217467	2.386308	0.052117	0.010722	0.051750	1.000000	0.000028	-0.000003	0.000000	-5.489328	-75.642411	-1.113305
55942	9.562469	-0.184234	2.379066	0.060887	0.042927	0.042725	1.000000	0.000031	0.000008	-0.000001	-5.488155	-75.643391	-1.113191
55943	9.553479	-0.213901	2.334238	0.097941	0.008427	0.023659	1.000000	0.000027	-0.000002	0.000009	-5.491829	-75.646989	-1.109318
55944	9.558019	-0.155764	2.348300	0.092022	0.067751	0.030150	1.000000	0.000044	0.000032	-0.000004	-5.486759	-75.645259	-1.111695
55945	9.575790	-0.163711	2.377220	0.068276	0.063015	0.054688	1.000000	0.000013	0.000024	-0.000003	-5.487997	-75.642416	-1.119590
55946	9.569044	-0.130420	2.370327	0.077060	0.095218	0.045662	1.000000	0.000051	0.000018	-0.000003	-5.483437	-75.642174	-1.120621
55947	9.573262	-0.158613	2.402035	0.044558	0.070298	0.058247	1.000000	0.000022	0.000040	0.000012	-5.475552	-75.640016	-1.116794
55948	9.586629	-0.138677	2.399957	0.052513	0.090052	0.070207	1.000000	0.000036	0.000031	0.000022	-5.483167	-75.638098	-1.107024
55949	9.575210	-0.163782	2.379550	0.065844	0.063186	0.054703	1.000000	0.000033	0.000037	0.000013	-5.489165	-75.641795	-1.105783
55950	9.563797	-0.121265	2.420626	0.028714	0.110418	0.052774	1.000000	0.000022	0.000041	0.000021	-5.497500	-75.638811	-1.096960
55951	9.568214	-0.131188	2.373631	0.075579	0.095663	0.045669	1.000000	0.000029	0.000027	0.000023	-5.510479	-75.630068	-1.097580
55952	9.572395	-0.159581	2.405421	0.043208	0.071274	0.058246	1.000000	0.000023	0.000039	0.000004	-5.511171	-75.627419	-1.096598
55953	9.565600	-0.126815	2.398714	0.050715	0.103195	0.049229	1.000000	0.000021	0.000025	0.000040	-5.521681	-75.633431	-1.084028
55954	9.551910	-0.147438	2.402015	0.042127	0.083730	0.037268	1.000000	0.000019	0.000030	0.000022	-5.531433	-75.631594	-1.074158
55955	9.571894	-0.160841	2.407331	0.041375	0.071262	0.058254	1.000000	0.000001	0.000048	0.000029	-5.541827	-75.625371	-1.070944
55956	9.565068	-0.128286	2.400755	0.050182	0.103462	0.049229	1.000000	0.000018	0.000031	0.000031	-5.555422	-75.623321	-1.057168
55957	9.544415	-0.202108	2.414277	0.024258	0.032072	0.034333	1.000000	0.000015	0.000038	0.000030	-5.562544	-75.620106	-1.046506
55958	9.555457	-0.177589	2.436121	0.009270	0.059354	0.049837	1.000000	0.000011	0.000044	0.000021	-5.571804	-75.616737	-1.038011
55959	9.555270	-0.177925	2.436833	0.009187	0.059488	0.049836	1.000000	0.000019	0.000030	0.000022	-5.581391	-75.613575	-1.036049
55960	9.548130	-0.231478	2.447697	-0.008530	0.007977	0.046900	1.000000	0.000035	0.000049	0.000029	-5.591295	-75.609538	-1.024134
55961	9.545625	-0.227172	2.472238	-0.032420	0.015657	0.050438	1.000000	0.000021	0.000025	0.000040	-5.608591	-75.611695	-1.013152
55962	9.561330	-0.212487	2.446232	-0.001501	0.027876	0.058860	1.000000	0.000008	0.000034	0.000031	-5.623125	-75.609290	-0.999692
55963	9.543003	-0.223174	2.497185	-0.055382	0.023166	0.053976	1.000000	0.000040	0.000022	0.000006	-5.615912	-75.604871	-1.003515
55964	9.563378	-0.217683	2.423407	0.021442	0.020304	0.055323	1.000000	0.000049	0.000022	0.000032	-5.626783	-75.603833	-0.988920
55965	9.536141	-0.258279	2.429348	0.002821	-0.018681	0.031401	1.000000	0.000016	0.000020	0.000024	-5.639044	-75.613300	-0.979352
55966	9.563161	-0.218492	2.424193	0.019068	0.020677	0.055327	1.000000	0.000025	0.000018	0.000032	-5.653173	-75.612777	-0.964256
55967	9.533581	-0.254273	2.454045	-0.019689	-0.011038	0.034934	1.000000	0.000025	0.000034	0.000022	-5.657526	-75.604192	-0.963931
55968	9.513319	-0.241585	2.449798	-0.019142	0.001557	0.013946	1.000000	0.000043	0.000001	0.000026	-5.667398	-75.605675	-0.951113
55969	9.578373	-0.290482	2.416190	0.023045	-0.050818	0.069846	1.000000	0.000022	0.000024	0.000023	-5.674726	-75.609277	-0.943237
55970	9.533319	-0.255234	2.454965	-0.021442	-0.010687	0.034931	1.000000	0.000012	0.000010	0.000025	-5.687338	-75.609739	-0.931287
55971	9.533267	-0.255481	2.455141	-0.021797	-0.010779	0.034930	1.000000	0.000013	0.000008	0.000008	-5.686577	-75.610789	-0.927851
55972	9.517713	-0.252200	2.402989	0.024650	-0.013280	0.006887	1.000000	0.000044	-0.000001	0.000009	-5.688786	-75.612686	-0.922860
55973	9.535543	-0.260223	2.431485	0.000721	-0.018025	0.031402	1.000000	0.000031	0.000008	-0.000001	-5.687903	-75.612470	-0.930015
55974	9.569251	-0.253001	2.433422	0.007826	-0.010715	0.064354	1.000000	0.000034	0.000002	0.000008	-5.691046	-75.614009	-0.925313
55975	9.580863	-0.209415	2.375630	0.070263	0.025273	0.060247	1.000000	0.000038	-0.000006	0.000000	-5.673465	-75.619839	-0.924365
55976	9.558411	-0.191423	2.394753	0.047866	0.045410	0.042786	1.000000	0.000038	-0.000006	0.000000	-5.672938	-75.622342	-0.922925
55977	9.596780	-0.193858	2.348934	0.100371	0.037744	0.068698	1.000000	0.000051	0.000002	0.000008	-5.677272	-75.626760	-0.928044
55978	9.576580	-0.180677	2.344499	0.100927	0.050333	0.047713	1.000000	0.000028	0.000013	-0.000011	-5.672200	-75.627216	-0.932561
55979	9.594344	-0.188590	2.373274	0.078075	0.045101	0.072215	1.000000	0.000040	0.000022	0.000006	-5.661365	-75.618888	-0.938187
55980	9.574076	-0.175451	2.369105	0.078639	0.057688	0.051230	1.000000	0.000041	0.000022	-0.000003	-5.657783	-75.618294	-0.939589
55981	9.551455	-0.157541	2.388879	0.055888	0.077789	0.033768	1.000000	0.000033	0.000037	0.000013	-5.660447	-75.618038	-0.945084
55982	9.533446	-0.149449	2.361122	0.079404	0.082815	0.009261	1.000000	0.000026	0.000032	0.000004	-5.661381	-75.616156	-0.943546
55983	9.567019	-0.142445	2.363593	0.086357	0.089815	0.042219	1.000000	0.000025	0.000034	0.000022	-5.662803	-75.614721	-0.940537
55984	9.568794	-0.165951	2.419279	0.030980	0.073047	0.058279	1.000000	0.000016	0.000035	0.000004	-5.664626	-75.612491	-0.939304
55985	9.541871	-0.120133	2.407944	0.039823	0.117391	0.028276	1.000000	0.000025	0.000035	0.000030	-5.670044	-75.615307	-0.932397
55986	9.548293	-0.153604	2.415968	0.030329	0.085498	0.037296	1.000000	0.000019	0.000030	0.000022	-5.679771	-75.613460	-0.922670
55987	9.550478	-0.158696	2.392705	0.051658	0.077909	0.033790	1.000000	0.000029	0.000026	0.000014	-5.680351	-75.619781	-0.924336
55988	9.568206	-0.166911	2.421536	0.027499	0.073182	0.058288	1.000000	0.000010	0.000015	0.000007	-5.684963	-75.619925	-0.920976
55989	9.561546	-0.133960	2.414435	0.035631	0.105311	0.049272	1.000000	0.000026	0.000016	0.000015	-5.689968	-75.624204	-0.924593
55990	9.550185	-0.159049	2.393853	0.049953	0.078291	0.033796	1.000000	0.000036	0.000030	0.000013	-5.693808	-75.622556	-0.918890
55991	9.550070	-0.159173	2.394303	0.048546	0.078017	0.033805	1.000000	0.000026	0.000016	0.000015	-5.689784	-75.628699	-0.914428
55992	9.565469	-0.162637	2.446909	0.001426	0.080867	0.061798	1.000000	0.000033	0.000021	0.000023	-5.698841	-75.628039	-0.903747
55993	9.567657	-0.167880	2.423638	0.024010	0.073770	0.058293	1.000000	0.000025	0.000035	0.000030	-5.719176	-75.626033	-0.903585
55994	9.585289	-0.176277	2.452800	-0.000170	0.069064	0.082781	1.000000	0.000022	0.000040	0.000012	-5.723699	-75.623312	-0.898873
55995	9.533563	-0.175582	2.423164	0.014013	0.067078	0.025335	1.000000	0.000029	0.000028	0.000031	-5.739594	-75.633143	-0.889067
55996	9.553561	-0.189038	2.428373	0.012757	0.054792	0.046323	1.000000	0.000018	0.000031	0.000031	-5.753252	-75.631239	-0.875438
55997	9.575882	-0.207478	2.409814	0.034457	0.034534	0.063820	1.000000	0.000018	0.000032	0.000039	-5.761779	-75.628987	-0.866953
55998	9.546201	-0.243311	2.439816	-0.005433	0.003096	0.043368	1.000000	0.000008	0.000033	0.000022	-5.772470	-75.626927	-0.857558
55999	9.557246	-0.218968	2.461572	-0.020391	0.030176	0.058832	1.000000	0.000003	0.000043	0.000047	-5.788490	-75.623403	-0.848012
56000	9.523315	-0.226680	2.460413	-0.028115	0.023177	0.025870	1.000000	0.000019	0.000030	0.000022	-5.798264	-75.621687	-0.838340
56001	9.532094	-0.265129	2.444444	-0.015114	-0.016534	0.031393	1.000000	0.000029	0.000012	0.000042	-5.810624	-75.623933	-0.828909
56002	9.545623	-0.245409	2.441866	-0.007148	0.003204	0.043367	1.000000	0.000013	0.000008	0.000008	-5.815553	-75.624932	-0.824898
56003	9.523091	-0.227910	2.461165	-0.030698	0.023305	0.025862	1.000000	0.000032	0.000005	0.000043	-5.831558	-75.632854	-0.813777
56004	9.534270	-0.270994	2.421184	0.005585	-0.023769	0.027906	1.000000	0.000027	0.000014	-0.000002	-5.830335	-75.633280	-0.814475
56005	9.565623	-0.258921	2.447025	-0.010703	-0.009366	0.064352	1.000000	0.000034	0.000002	0.000008	-5.821639	-75.637168	-0.817003
56006	9.567953	-0.263800	2.423273	0.011883	-0.016818	0.060870	1.000000	0.000034	0.000002	0.000008	-5.824738	-75.638906	-0.812419
56007	9.547789	-0.250828	2.418704	0.011342	-0.004311	0.039884	1.000000	0.000024	0.000005	0.000008	-5.826570	-75.646877	-0.817132
56008	9.581490	-0.243746	2.420710	0.018355	0.002986	0.072850	1.000000	0.000030	0.000009	0.000007	-5.829420	-75.647894	-0.813245
56009	9.561297	-0.230607	2.416273	0.017785	0.015390	0.051865	1.000000	0.000055	0.000012	-0.000002	-5.820588	-75.655395	-0.819494
56010	9.594968	-0.223357	2.418414	0.024787	0.022686	0.084832	1.000000	0.000027	0.000015	0.000007	-5.823173	-75.655692	-0.816310
56011	9.556909	-0.202381	2.385766	0.049194	0.039913	0.039386	1.000000	0.000009	0.000033	0.000013	-5.825695	-75.654320	-0.816357
56012	9.561022	-0.230663	2.417353	0.016636	0.015655	0.051867	1.000000	0.000034	0.000002	0.000008	-5.828804	-75.656120	-0.811791
56013	9.556755	-0.202462	2.386378	0.047437	0.040243	0.039393	1.000000	0.000030	0.000025	0.000005	-5.830669	-75.661382	-0.819197
56014	9.574415	-0.210489	2.415374	0.023180	0.035576	0.063849	1.000000	0.000037	0.000029	0.000005	-5.830688	-75.660150	-0.817517
56015	9.536366	-0.189349	2.382722	0.047286	0.052909	0.018409	1.000000	0.000034	0.000019	0.000006	-5.830585	-75.662337	-0.821446
56016	9.536266	-0.189327	2.383121	0.046922	0.053058	0.018410	1.000000	0.000023	0.000022	0.000006	-5.832941	-75.661921	-0.818975
56017	9.545069	-0.159395	2.428301	0.009090	0.087936	0.037317	1.000000	0.000044	0.000016	0.000006	-5.831267	-75.661790	-0.825969
56018	9.567460	-0.177364	2.409561	0.030693	0.068026	0.054843	1.000000	0.000039	0.000024	0.000023	-5.839262	-75.660914	-0.815762
56019	9.547242	-0.164289	2.405208	0.030503	0.080444	0.033858	1.000000	0.000048	0.000007	-0.000010	-5.828257	-75.666975	-0.824098
56020	9.547184	-0.164117	2.405451	0.030137	0.080594	0.033858	1.000000	0.000043	0.000017	0.000015	-5.832669	-75.667072	-0.817123
56021	9.564884	-0.172271	2.434253	0.005667	0.075651	0.058306	1.000000	0.000043	0.000017	0.000015	-5.830138	-75.668264	-0.811390
56022	9.580757	-0.157139	2.407971	0.036550	0.087749	0.066832	1.000000	0.000027	0.000015	0.000007	-5.832752	-75.668620	-0.808251
56023	9.549275	-0.169125	2.382697	0.052546	0.073009	0.030402	1.000000	0.000030	0.000025	0.000005	-5.831683	-75.663327	-0.815947
56024	9.573992	-0.124216	2.401399	0.045900	0.119944	0.057823	1.000000	0.000012	0.000027	0.000023	-5.842635	-75.662157	-0.805973
56025	9.549025	-0.169480	2.383673	0.051835	0.073176	0.030405	1.000000	0.000023	0.000022	0.000006	-5.842057	-75.661684	-0.813105
56026	9.557792	-0.139627	2.428936	0.013941	0.108179	0.049296	1.000000	0.000029	0.000026	0.000014	-5.847104	-75.660659	-0.807162
56027	9.544039	-0.160099	2.432302	0.004043	0.088315	0.037317	1.000000	0.000018	0.000032	0.000039	-5.853778	-75.665644	-0.792469
56028	9.543873	-0.160537	2.432924	0.003675	0.088465	0.037316	1.000000	0.000009	0.000033	0.000013	-5.860589	-75.663952	-0.787145
56029	9.566219	-0.178739	2.414381	0.025646	0.068285	0.054856	1.000000	0.000012	0.000027	0.000023	-5.865605	-75.660513	-0.785966
56030	9.518731	-0.206172	2.415839	0.009614	0.041720	0.009898	1.000000	0.000019	0.000029	0.000014	-5.871508	-75.659157	-0.780358
56031	9.529854	-0.181421	2.437285	-0.005724	0.069200	0.025329	1.000000	0.000026	0.000017	0.000024	-5.884367	-75.661355	-0.779075
56032	9.545733	-0.166825	2.411018	0.025166	0.081273	0.033866	1.000000	0.000035	0.000017	0.000050	-5.905324	-75.661052	-0.756087
56033	9.565764	-0.180272	2.416066	0.024210	0.068946	0.054855	1.000000	0.000033	0.000020	0.000015	-5.909768	-75.658515	-0.761255
56034	9.538454	-0.220478	2.422017	0.007173	0.029960	0.030886	1.000000	0.000027	0.000015	0.000007	-5.912411	-75.658858	-0.758174
56035	9.551970	-0.200673	2.419568	0.015261	0.049234	0.042872	1.000000	0.000015	0.000021	0.000032	-5.917018	-75.657519	-0.754951
56036	9.551866	-0.201065	2.419946	0.014896	0.049385	0.042872	1.000000	0.000043	0.000017	0.000024	-5.925258	-75.657398	-0.744153
56037	9.538139	-0.221506	2.423165	0.005329	0.029502	0.030889	1.000000	0.000022	0.000025	0.000032	-5.927877	-75.661367	-0.732402
56038	9.555787	-0.229899	2.452054	-0.018968	0.024878	0.055317	1.000000	0.000026	0.000016	0.000015	-5.934304	-75.661524	-0.725442
56039	9.540311	-0.227015	2.400098	0.026925	0.021937	0.027451	1.000000	0.000026	0.000017	0.000024	-5.939526	-75.664906	-0.716898
56040	9.541958	-0.250647	2.455623	-0.028637	0.005403	0.043327	1.000000	0.000011	0.000028	0.000031	-5.954263	-75.663571	-0.703121
56041	9.560228	-0.240927	2.405533	0.024662	0.009688	0.048443	1.000000	0.000016	0.000003	0.000026	-5.964320	-75.668077	-0.696507
56042	9.553661	-0.208171	2.398245	0.033630	0.041834	0.039443	1.000000	0.000016	0.000019	0.000015	-5.971648	-75.667910	-0.689869
56043	9.557676	-0.236465	2.429992	0.001048	0.017360	0.051878	1.000000	0.000030	0.000026	0.000014	-5.969875	-75.666555	-0.693339
56044	9.517319	-0.210545	2.421018	0.002699	0.042368	0.009900	1.000000	0.000016	0.000018	0.000006	-5.973345	-75.666588	-0.690636
56045	9.573473	-0.221439	2.404162	0.031608	0.029150	0.060436	1.000000	0.000027	0.000015	0.000007	-5.966302	-75.666646	-0.695951
56046	9.526020	-0.248628	2.405417	0.015575	0.002597	0.015469	1.000000	0.000033	0.000020	0.000015	-5.971529	-75.666420	-0.689447
56047	9.539562	-0.228644	2.402919	0.024289	0.022018	0.027458	1.000000	0.000020	0.000012	0.000007	-5.968639	-75.662796	-0.695420
56048	9.550736	-0.203549	2.424194	0.009336	0.049398	0.042879	1.000000	0.000034	0.000018	-0.000003	-5.966164	-75.662954	-0.696769
56049	9.570766	-0.216565	2.429260	0.007008	0.036825	0.063869	1.000000	0.000043	0.000017	0.000024	-5.967225	-75.668319	-0.695405
56050	9.573037	-0.221529	2.405889	0.029556	0.029300	0.060442	1.000000	0.000030	0.000025	-0.000003	-5.964459	-75.667749	-0.697479
56051	9.532688	-0.195441	2.396902	0.030845	0.054274	0.018467	1.000000	0.000050	0.000020	0.000015	-5.966902	-75.669758	-0.699891
56052	9.563964	-0.183444	2.422947	0.014866	0.069231	0.054871	1.000000	0.000027	0.000015	0.000007	-5.969441	-75.670147	-0.696942
56053	9.583989	-0.196399	2.428039	0.013219	0.056306	0.075864	1.000000	0.000040	0.000022	0.000006	-5.954396	-75.671059	-0.702066
56054	9.570273	-0.216476	2.431209	0.004502	0.036891	0.063870	1.000000	0.000037	0.000013	0.000016	-5.959836	-75.671597	-0.694916
56055	9.543559	-0.170472	2.419356	0.015322	0.081041	0.033888	1.000000	0.000020	0.000029	0.000005	-5.952247	-75.665825	-0.703169
56056	9.561162	-0.178680	2.448373	-0.008999	0.076434	0.058298	1.000000	0.000022	0.000024	0.000023	-5.962122	-75.665038	-0.693138
56057	9.577050	-0.163594	2.422248	0.021493	0.087989	0.066874	1.000000	0.000048	0.000025	-0.000004	-5.946002	-75.666651	-0.699963
56058	9.534351	-0.200485	2.375982	0.051314	0.046085	0.015058	1.000000	0.000027	0.000015	0.000007	-5.948430	-75.667030	-0.697079
56059	9.559103	-0.155508	2.394594	0.043561	0.092799	0.042474	1.000000	0.000009	0.000033	0.000013	-5.949399	-75.672009	-0.697078
56060	9.545353	-0.175754	2.397883	0.034845	0.073380	0.030478	1.000000	0.000026	0.000016	0.000015	-5.955667	-75.672213	-0.690287
56061	9.540475	-0.165886	2.445858	-0.009744	0.088504	0.037311	1.000000	0.000030	0.000025	0.000005	-5.948179	-75.661897	-0.694805
56062	9.542750	-0.170887	2.422515	0.012809	0.080966	0.033893	1.000000	0.000033	0.000020	0.000015	-5.953255	-75.661656	-0.688441
56063	9.556255	-0.150929	2.420181	0.021638	0.099987	0.045893	1.000000	0.000036	0.000030	0.000013	-5.941104	-75.655176	-0.693589
56064	9.556148	-0.151216	2.420584	0.021274	0.100126	0.045892	1.000000	0.000029	0.000011	0.000033	-5.955253	-75.655658	-0.678311
56065	9.562525	-0.184479	2.428539	0.011149	0.067902	0.054885	1.000000	0.000037	0.000029	0.000005	-5.946065	-75.656616	-0.684257
56066	9.539898	-0.166476	2.448066	-0.011099	0.088154	0.037313	1.000000	0.000050	0.000020	0.000015	-5.949002	-75.656306	-0.678039
56067	9.584809	-0.202612	2.410357	0.033320	0.047652	0.072456	1.000000	0.000026	0.000017	0.000024	-5.949609	-75.650244	-0.677106
56068	9.562185	-0.184881	2.429847	0.011077	0.067904	0.054885	1.000000	0.000019	0.000029	0.000013	-5.955199	-75.648859	-0.671829
56069	9.550809	-0.210159	2.409406	0.025246	0.040292	0.039475	1.000000	0.000022	0.000024	0.000023	-5.952915	-75.648216	-0.670034
56070	9.561901	-0.185438	2.430922	0.010308	0.067669	0.054888	1.000000	0.000025	0.000034	0.000022	-5.961139	-75.646224	-0.661272
56071	9.536896	-0.230936	2.413259	0.016126	0.021148	0.027477	1.000000	0.000019	0.000014	0.000033	-5.979523	-75.646659	-0.659415
56072	9.564085	-0.191266	2.407919	0.032466	0.060392	0.051474	1.000000	0.000026	0.000017	0.000024	-5.989501	-75.646569	-0.648838
56073	9.534300	-0.226716	2.437747	-0.008289	0.029056	0.030888	1.000000	0.000022	0.000024	0.000023	-5.997529	-75.650258	-0.649171
56074	9.550230	-0.211978	2.411540	0.022615	0.041047	0.039478	1.000000	0.000026	0.000017	0.000024	-6.007519	-75.650185	-0.638604
56075	9.552538	-0.217292	2.388096	0.045014	0.033306	0.036072	1.000000	0.000026	0.000017	0.000024	-6.013383	-75.650993	-0.636426
56076	9.550034	-0.212554	2.412265	0.021733	0.041146	0.039479	1.000000	0.000023	0.000023	0.000014	-6.019253	-75.650376	-0.630500
56077	9.549926	-0.212696	2.412683	0.021694	0.040967	0.039480	1.000000	0.000033	0.000020	0.000015	-6.016900	-75.648190	-0.634827
56078	9.572322	-0.230838	2.394082	0.043181	0.020968	0.057062	1.000000	0.000023	0.000023	0.000014	-6.022755	-75.647563	-0.628921
56079	9.563361	-0.192913	2.410661	0.030130	0.060715	0.051479	1.000000	0.000043	0.000017	0.000015	-6.025371	-75.642972	-0.631347
56080	9.556070	-0.246137	2.421472	0.011979	0.009329	0.048467	1.000000	0.000023	0.000023	0.000014	-6.031234	-75.642324	-0.625457
56081	9.549489	-0.213180	2.414368	0.020544	0.041171	0.039482	1.000000	0.000047	0.000027	0.000014	-6.027377	-75.644130	-0.626936
56082	9.546966	-0.208305	2.438597	-0.002730	0.049023	0.042885	1.000000	0.000016	0.000019	0.000015	-6.034400	-75.643894	-0.620656
56083	9.549288	-0.213463	2.415139	0.020112	0.041113	0.039483	1.000000	0.000037	0.000013	0.000016	-6.031937	-75.642631	-0.624195
56084	9.562855	-0.193499	2.412618	0.028117	0.060795	0.051484	1.000000	0.000016	0.000018	0.000006	-6.035107	-75.642591	-0.621844
56085	9.571613	-0.231718	2.396827	0.041500	0.020706	0.057070	1.000000	0.000033	0.000021	0.000023	-6.031368	-75.640463	-0.620472
56086	9.562656	-0.193827	2.413380	0.027666	0.060532	0.051487	1.000000	0.000016	0.000018	0.000006	-6.034502	-75.640415	-0.618145
56087	9.562569	-0.193929	2.413717	0.026166	0.060086	0.051494	1.000000	0.000026	0.000016	0.000015	-6.026549	-75.647068	-0.615686
56088	9.564871	-0.199074	2.390360	0.048714	0.052502	0.048098	1.000000	0.000030	0.000026	0.000014	-6.031134	-75.646037	-0.610283
56089	9.562333	-0.194297	2.414622	0.025854	0.060075	0.051495	1.000000	0.000022	0.000024	0.000023	-6.034314	-75.642760	-0.607263
56090	9.562217	-0.194419	2.415074	0.025492	0.060207	0.051495	1.000000	0.000040	0.000022	0.000006	-6.034161	-75.642272	-0.605478
56091	9.542004	-0.181482	2.410754	0.026025	0.072295	0.030513	1.000000	0.000039	0.000024	0.000023	-6.030432	-75.642369	-0.600749
56092	9.561970	-0.194535	2.416041	0.024585	0.059997	0.051499	1.000000	0.000020	0.000028	-0.000004	-6.028189	-75.641390	-0.603514
56093	9.559414	-0.189480	2.440375	0.001782	0.067463	0.054894	1.000000	0.000036	0.000030	0.000013	-6.022632	-75.637173	-0.605722
56094	9.544018	-0.186567	2.388568	0.048324	0.064583	0.027121	1.000000	0.000040	0.000023	0.000014	-6.026261	-75.636470	-0.600071
56095	9.572824	-0.169616	2.438484	0.010160	0.086785	0.066903	1.000000	0.000033	0.000020	0.000015	-6.019883	-75.631820	-0.599769
56096	9.541364	-0.181691	2.413268	0.025431	0.072082	0.030516	1.000000	0.000026	0.000032	0.000004	-6.020253	-75.630203	-0.599075
56097	9.572532	-0.169691	2.439623	0.008578	0.086875	0.066903	1.000000	0.000026	0.000033	0.000013	-6.020279	-75.633462	-0.602713
56098	9.552313	-0.156901	2.435316	0.009305	0.099435	0.045917	1.000000	0.000026	0.000017	0.000024	-6.030051	-75.633356	-0.592384
56099	9.574746	-0.175159	2.416638	0.030317	0.079014	0.063517	1.000000	0.000037	0.000013	0.000016	-6.025698	-75.636406	-0.593503
56100	9.538475	-0.177321	2.438832	-0.000231	0.079757	0.033911	1.000000	0.000012	0.000026	0.000014	-6.032220	-75.635413	-0.588127
56101	9.572117	-0.170487	2.441197	0.006534	0.086884	0.066905	1.000000	0.000026	0.000016	0.000015	-6.035487	-75.636466	-0.593345
56102	9.554392	-0.162676	2.412847	0.030176	0.091711	0.042534	1.000000	0.000023	0.000006	0.000017	-6.042867	-75.637728	-0.585832
56103	9.544661	-0.210920	2.447380	-0.011578	0.047918	0.042884	1.000000	0.000023	0.000023	0.000014	-6.044864	-75.640921	-0.593580
56104	9.576724	-0.181045	2.394577	0.050617	0.071647	0.060140	1.000000	0.000033	0.000020	0.000015	-6.049616	-75.640643	-0.587615
56105	9.540442	-0.183321	2.416789	0.019957	0.072080	0.030529	1.000000	0.000032	0.000021	0.000032	-6.054376	-75.640633	-0.583570
56106	9.560432	-0.196564	2.421955	0.018490	0.059779	0.051513	1.000000	0.000027	0.000015	0.000007	-6.056451	-75.640964	-0.581124
56107	9.551518	-0.226714	2.377674	0.055438	0.024462	0.032746	1.000000	0.000030	0.000026	0.000014	-6.050834	-75.640644	-0.584607
56108	9.560191	-0.196826	2.422887	0.017634	0.059607	0.051516	1.000000	0.000029	0.000027	0.000022	-6.059093	-75.639411	-0.575498
56109	9.582555	-0.215146	2.404500	0.038973	0.039136	0.069125	1.000000	0.000036	0.000031	0.000022	-6.056166	-75.638293	-0.575560
56110	9.559896	-0.197275	2.424015	0.016810	0.059435	0.051518	1.000000	0.000030	0.000026	0.000014	-6.060564	-75.637267	-0.570381
56111	9.546091	-0.217507	2.427385	0.007976	0.039593	0.039507	1.000000	0.000029	0.000027	0.000022	-6.058576	-75.636554	-0.570972
56112	9.566047	-0.230626	2.432690	0.006498	0.027289	0.060490	1.000000	0.000040	0.000022	0.000006	-6.058229	-75.636085	-0.569408
56113	9.565925	-0.230685	2.433163	0.005978	0.027363	0.060490	1.000000	0.000012	0.000026	0.000014	-6.063459	-75.636029	-0.576919
56114	9.548185	-0.222700	2.404946	0.029632	0.032165	0.036134	1.000000	0.000038	0.000011	-0.000002	-6.060750	-75.636921	-0.578148
56115	9.548077	-0.222698	2.405374	0.029146	0.032046	0.036136	1.000000	0.000009	0.000033	0.000013	-6.061208	-75.635904	-0.585370
56116	9.559180	-0.197980	2.426779	0.014261	0.059457	0.051522	1.000000	0.000025	0.000018	0.000032	-6.074709	-75.635620	-0.571311
56117	9.545412	-0.218230	2.429989	0.004723	0.039730	0.039508	1.000000	0.000034	0.000019	0.000006	-6.067746	-75.640143	-0.577711
56118	9.572667	-0.178237	2.424636	0.021121	0.078911	0.063542	1.000000	0.000026	0.000016	0.000015	-6.073567	-75.640288	-0.571480
56119	9.561324	-0.203450	2.404141	0.034587	0.051394	0.048163	1.000000	0.000030	0.000026	0.000014	-6.069511	-75.643259	-0.576846
56120	9.561188	-0.203655	2.404665	0.034216	0.051517	0.048164	1.000000	0.000029	0.000027	0.000022	-6.077684	-75.642059	-0.567860
56121	9.561064	-0.203798	2.405145	0.033388	0.051487	0.048167	1.000000	0.000023	0.000022	0.000006	-6.075779	-75.644370	-0.577475
56122	9.558495	-0.198973	2.429395	0.010116	0.059379	0.051528	1.000000	0.000029	0.000028	0.000031	-6.087787	-75.642972	-0.564601
56123	9.560776	-0.204208	2.406257	0.031910	0.051226	0.048173	1.000000	0.000033	0.000036	0.000004	-6.074666	-75.645261	-0.570992
56124	9.574319	-0.184265	2.403929	0.039920	0.070873	0.060195	1.000000	0.000043	0.000017	0.000024	-6.082213	-75.645185	-0.561008
56125	9.555630	-0.194334	2.454769	-0.016117	0.066706	0.054887	1.000000	0.000036	0.000030	0.000013	-6.077923	-75.652388	-0.561643
56126	9.557933	-0.199490	2.431561	0.006404	0.059060	0.051533	1.000000	0.000030	0.000026	0.000014	-6.082216	-75.651449	-0.556623
56127	9.521600	-0.201543	2.453847	-0.024787	0.059512	0.021878	1.000000	0.000030	0.000026	0.000014	-6.078202	-75.654434	-0.561345
56128	9.540062	-0.191681	2.403918	0.029017	0.063613	0.027204	1.000000	0.000034	0.000019	0.000006	-6.078932	-75.654467	-0.559529
56129	9.557609	-0.199785	2.432810	0.004882	0.059053	0.051534	1.000000	0.000029	0.000010	0.000025	-6.088313	-75.653597	-0.565737
56130	9.551107	-0.167008	2.425525	0.014049	0.091124	0.042576	1.000000	0.000009	0.000033	0.000013	-6.094365	-75.651964	-0.561389
56131	9.557381	-0.200215	2.433672	0.003693	0.059042	0.051534	1.000000	0.000037	0.000013	0.000016	-6.093131	-75.655029	-0.564472
56132	9.550895	-0.167207	2.426346	0.012864	0.091110	0.042577	1.000000	0.000030	0.000025	0.000005	-6.093570	-75.654312	-0.563421
56133	9.550799	-0.167286	2.426717	0.012900	0.090712	0.042581	1.000000	0.000020	0.000013	0.000016	-6.088337	-75.652426	-0.562904
56134	9.586902	-0.165424	2.405362	0.042649	0.090138	0.072244	1.000000	0.000037	0.000029	0.000005	-6.087568	-75.651298	-0.562286
56135	9.550566	-0.167380	2.427628	0.010812	0.090690	0.042584	1.000000	0.000023	0.000023	0.000014	-6.086521	-75.658531	-0.565849
56136	9.564176	-0.147548	2.425050	0.018822	0.110327	0.054611	1.000000	0.000023	0.000006	0.000017	-6.093695	-75.659926	-0.558659
56137	9.539170	-0.192935	2.407355	0.024085	0.063519	0.027217	1.000000	0.000046	0.000029	0.000031	-6.101082	-75.661307	-0.557473
56138	9.606533	-0.179148	2.411910	0.038146	0.077813	0.093238	1.000000	0.000020	0.000029	0.000005	-6.102364	-75.660266	-0.556803
56139	9.552590	-0.173434	2.405513	0.031390	0.083128	0.039249	1.000000	0.000025	0.000019	0.000041	-6.116270	-75.661856	-0.553796
56140	9.570087	-0.181799	2.434534	0.006931	0.078621	0.063564	1.000000	0.000023	0.000023	0.000014	-6.121686	-75.661364	-0.548511
56141	9.552378	-0.174093	2.406307	0.030518	0.082891	0.039254	1.000000	0.000026	0.000017	0.000024	-6.119986	-75.661943	-0.546903
56142	9.558629	-0.207464	2.414494	0.020549	0.051069	0.048204	1.000000	0.000019	0.000030	0.000022	-6.128915	-75.660493	-0.538462
56143	9.592239	-0.200712	2.417051	0.028255	0.057762	0.081217	1.000000	0.000030	0.000026	0.000014	-6.121385	-75.654477	-0.545174
56144	9.522119	-0.209892	2.437352	-0.009463	0.051518	0.018525	1.000000	0.000018	0.000031	0.000031	-6.134115	-75.652799	-0.532856
56145	9.558204	-0.208306	2.416104	0.019551	0.050686	0.048208	1.000000	0.000033	0.000020	0.000015	-6.133122	-75.656815	-0.538964
56146	9.558083	-0.208365	2.416576	0.019163	0.050803	0.048208	1.000000	0.000020	0.000029	0.000005	-6.134339	-75.655776	-0.538390
56147	9.560429	-0.213552	2.393289	0.042544	0.042518	0.044879	1.000000	0.000016	0.000019	0.000015	-6.127090	-75.650511	-0.543088
56148	9.557864	-0.208629	2.417422	0.019270	0.050443	0.048210	1.000000	0.000033	0.000020	0.000015	-6.131521	-75.650346	-0.537586
56149	9.544037	-0.228817	2.420783	0.010651	0.030575	0.036178	1.000000	0.000036	0.000031	0.000022	-6.127169	-75.647781	-0.538397
56150	9.561485	-0.236859	2.449963	-0.013814	0.026073	0.060486	1.000000	0.000030	0.000025	0.000005	-6.127441	-75.647069	-0.537556
56151	9.543782	-0.228994	2.421771	0.010330	0.030492	0.036178	1.000000	0.000016	0.000019	0.000015	-6.126662	-75.644338	-0.544174
56152	9.557355	-0.209130	2.419387	0.018358	0.050112	0.048213	1.000000	0.000036	0.000030	0.000013	-6.129576	-75.643006	-0.539862
56153	9.574823	-0.217003	2.448490	-0.006480	0.045219	0.072521	1.000000	0.000034	0.000018	-0.000003	-6.116952	-75.645390	-0.553217
56154	9.557117	-0.209121	2.420330	0.017223	0.049945	0.048216	1.000000	0.000019	0.000030	0.000022	-6.125736	-75.643907	-0.544932
56155	9.536937	-0.196414	2.415905	0.018650	0.061975	0.027239	1.000000	0.000026	0.000017	0.000024	-6.123198	-75.640333	-0.547979
56156	9.576958	-0.222688	2.426016	0.015871	0.037227	0.069197	1.000000	0.000043	0.000017	0.000015	-6.126654	-75.640496	-0.542258
56157	9.554331	-0.204587	2.445255	-0.006396	0.057216	0.051544	1.000000	0.000023	0.000022	0.000006	-6.119190	-75.641310	-0.549434
56158	9.552809	-0.181810	2.390473	0.048614	0.073614	0.035957	1.000000	0.000030	0.000026	0.000014	-6.123210	-75.640375	-0.544785
56159	9.576601	-0.222797	2.427417	0.014762	0.036527	0.069201	1.000000	0.000037	0.000029	0.000005	-6.106764	-75.637800	-0.552826
56160	9.538827	-0.201866	2.394452	0.039676	0.053676	0.023924	1.000000	0.000019	0.000029	0.000013	-6.111621	-75.636509	-0.548522
56161	9.556305	-0.209877	2.423466	0.016196	0.048784	0.048224	1.000000	0.000030	0.000009	0.000007	-6.104542	-75.631886	-0.557059
56162	9.547421	-0.171788	2.439661	0.002555	0.088650	0.042608	1.000000	0.000037	0.000013	0.000015	-6.109092	-75.632426	-0.551002
56163	9.556144	-0.209990	2.424094	0.014459	0.048775	0.048226	1.000000	0.000020	0.000029	0.000005	-6.104600	-75.637080	-0.562968
56164	9.565896	-0.162123	2.390049	0.055013	0.092480	0.048012	1.000000	0.000040	0.000006	0.000016	-6.109442	-75.638389	-0.556201
56165	9.572161	-0.195197	2.398141	0.045641	0.060197	0.056950	1.000000	0.000030	0.000025	0.000005	-6.098862	-75.633899	-0.563828
56166	9.540698	-0.138955	2.433352	0.010341	0.120328	0.033675	1.000000	0.000026	0.000016	0.000015	-6.104260	-75.634094	-0.558136
56167	9.565651	-0.162301	2.391015	0.054943	0.092002	0.048017	1.000000	0.000030	0.000009	0.000007	-6.098461	-75.632811	-0.567963
56168	9.571890	-0.195395	2.399205	0.044931	0.060180	0.056953	1.000000	0.000026	0.000033	0.000013	-6.102072	-75.631095	-0.564166
56169	9.565452	-0.162567	2.391794	0.054419	0.091995	0.048020	1.000000	0.000006	0.000005	0.000017	-6.106231	-75.631288	-0.574547
56170	9.580474	-0.165741	2.444387	0.007064	0.095357	0.075631	1.000000	0.000036	0.000015	0.000033	-6.118387	-75.631401	-0.560784
56171	9.545231	-0.150291	2.387524	0.054746	0.104001	0.027053	1.000000	0.000019	0.000030	0.000022	-6.111870	-75.630628	-0.559790
56172	9.581304	-0.148830	2.366484	0.084459	0.103322	0.056760	1.000000	0.000032	0.000038	0.000030	-6.121911	-75.628090	-0.548659
56173	9.571285	-0.197213	2.401470	0.042565	0.059526	0.056968	1.000000	0.000015	0.000021	0.000032	-6.128071	-75.630770	-0.545061
56174	9.564821	-0.164613	2.394176	0.051843	0.091553	0.048038	1.000000	0.000019	0.000030	0.000022	-6.136623	-75.629251	-0.537032
56175	9.548470	-0.179789	2.421351	0.019620	0.079829	0.039307	1.000000	0.000029	0.000027	0.000022	-6.139959	-75.631287	-0.541044
56176	9.537085	-0.205274	2.401092	0.033692	0.052591	0.023952	1.000000	0.000025	0.000035	0.000030	-6.151155	-75.629167	-0.529554
56177	9.554450	-0.213583	2.430447	0.009612	0.047812	0.048237	1.000000	0.000015	0.000037	0.000021	-6.152386	-75.624537	-0.537497
56178	9.534231	-0.200719	2.426209	0.010471	0.060348	0.027261	1.000000	0.000043	0.000033	0.000013	-6.153856	-75.622778	-0.533922
56179	9.551617	-0.208875	2.455476	-0.014301	0.055538	0.051545	1.000000	0.000029	0.000028	0.000031	-6.157255	-75.623035	-0.531945
56180	9.553970	-0.214291	2.432271	0.008198	0.047782	0.048239	1.000000	0.000030	0.000026	0.000014	-6.161065	-75.622081	-0.527572
56181	9.580191	-0.260490	2.445526	-0.002343	0.002910	0.078141	1.000000	0.000030	0.000026	0.000014	-6.150378	-75.616681	-0.535649
56182	9.533694	-0.201607	2.428246	0.009442	0.059795	0.027266	1.000000	0.000019	0.000013	0.000024	-6.160631	-75.617051	-0.525852
56183	9.571197	-0.222853	2.462103	-0.016498	0.042389	0.072522	1.000000	0.000020	0.000013	0.000016	-6.155158	-75.618777	-0.529421
56184	9.573615	-0.228067	2.438678	0.006001	0.034628	0.069217	1.000000	0.000034	0.000019	0.000006	-6.155379	-75.618770	-0.528260
56185	9.537253	-0.229838	2.460761	-0.025573	0.035157	0.039493	1.000000	0.000023	0.000022	0.000006	-6.147197	-75.624971	-0.534275
56186	9.553382	-0.215301	2.434492	0.005360	0.046877	0.048245	1.000000	0.000001	0.000014	0.000033	-6.163289	-75.625204	-0.520534
56187	9.550809	-0.210303	2.458494	-0.017829	0.054279	0.051546	1.000000	0.000028	0.000013	-0.000011	-6.143822	-75.625596	-0.534547
56188	9.566984	-0.195288	2.432098	0.013104	0.065997	0.060300	1.000000	0.000030	0.000008	0.000007	-6.145472	-75.626758	-0.532287
56189	9.533151	-0.202279	2.430322	0.005053	0.058643	0.027276	1.000000	0.000033	0.000020	0.000015	-6.139878	-75.629390	-0.536796
56190	9.589380	-0.213698	2.413841	0.033477	0.045486	0.077981	1.000000	0.000023	0.000006	0.000017	-6.146514	-75.630750	-0.530249
56191	9.603064	-0.193900	2.411115	0.041023	0.064456	0.090043	1.000000	0.000030	0.000009	0.000016	-6.137463	-75.634573	-0.528202
56192	9.549202	-0.187946	2.404368	0.034720	0.069939	0.036043	1.000000	0.000026	0.000016	0.000015	-6.142581	-75.634791	-0.522825
56193	9.566650	-0.195883	2.433363	0.009772	0.064983	0.060311	1.000000	0.000044	0.000016	0.000006	-6.130393	-75.637653	-0.530612
56194	9.535260	-0.208039	2.408093	0.025092	0.050166	0.023990	1.000000	0.000032	0.000038	0.000021	-6.136350	-75.635367	-0.523654
56195	9.582602	-0.181207	2.407853	0.039905	0.076172	0.069086	1.000000	0.000040	0.000022	0.000005	-6.120655	-75.637306	-0.529320
56196	9.568769	-0.201075	2.411156	0.031090	0.056783	0.057027	1.000000	0.000051	0.000019	0.000006	-6.118646	-75.637299	-0.528392
56197	9.551150	-0.193176	2.382860	0.054112	0.061045	0.032776	1.000000	0.000033	0.000020	0.000015	-6.112964	-75.641397	-0.532948
56198	9.548550	-0.188160	2.406943	0.030850	0.069003	0.036062	1.000000	0.000026	0.000016	0.000015	-6.117999	-75.641641	-0.527641
56199	9.559708	-0.163101	2.428028	0.015271	0.096117	0.051413	1.000000	0.000030	0.000008	0.000007	-6.111704	-75.647231	-0.535903
56200	9.548382	-0.188296	2.407596	0.029328	0.068858	0.036068	1.000000	0.000026	0.000033	0.000013	-6.114940	-75.645587	-0.532502
56201	9.582037	-0.181365	2.410089	0.035683	0.075641	0.069107	1.000000	0.000020	0.000011	-0.000002	-6.105251	-75.649106	-0.546404
56202	9.559425	-0.163252	2.429132	0.013695	0.096043	0.051416	1.000000	0.000026	0.000017	0.000024	-6.114089	-75.649161	-0.537242
56203	9.559321	-0.163309	2.429538	0.013276	0.095624	0.051421	1.000000	0.000030	0.000024	-0.000003	-6.097966	-75.648852	-0.552600
56204	9.584276	-0.186519	2.387452	0.057358	0.067521	0.065836	1.000000	0.000017	0.000017	-0.000002	-6.096155	-75.649184	-0.555493
56205	9.559101	-0.163237	2.430408	0.012290	0.095210	0.051426	1.000000	0.000019	0.000030	0.000022	-6.090311	-75.648849	-0.552676
56206	9.566519	-0.179048	2.359721	0.080528	0.071669	0.041601	1.000000	0.000033	0.000021	0.000023	-6.097907	-75.648507	-0.543974
56207	9.561351	-0.168915	2.407699	0.035125	0.087048	0.048153	1.000000	0.000026	0.000033	0.000013	-6.090466	-75.642591	-0.554459
56208	9.561191	-0.168951	2.408330	0.034739	0.087135	0.048153	1.000000	0.000026	0.000032	0.000004	-6.089768	-75.641153	-0.555058
56209	9.581052	-0.182269	2.413932	0.032968	0.074458	0.069125	1.000000	0.000035	0.000033	0.000039	-6.096020	-75.639859	-0.555291
56210	9.527083	-0.176484	2.407582	0.026717	0.079951	0.015120	1.000000	0.000022	0.000040	0.000012	-6.098833	-75.637462	-0.552753
56211	9.533176	-0.209751	2.416181	0.015632	0.047647	0.024022	1.000000	0.000042	0.000035	0.000030	-6.096014	-75.640966	-0.549762
56212	9.541736	-0.179689	2.461239	-0.022064	0.082976	0.042633	1.000000	0.000026	0.000016	0.000015	-6.100890	-75.641237	-0.544629
56213	9.564188	-0.198059	2.442846	-0.001064	0.062373	0.060333	1.000000	0.000033	0.000020	0.000015	-6.096029	-75.642218	-0.552015
56214	9.530328	-0.205195	2.441125	-0.008599	0.055430	0.027292	1.000000	0.000026	0.000017	0.000024	-6.104719	-75.642282	-0.543008
56215	9.566533	-0.203810	2.419785	0.020926	0.054321	0.057067	1.000000	0.000019	0.000013	0.000024	-6.106853	-75.643349	-0.549334
56216	9.560160	-0.171136	2.412267	0.030281	0.086312	0.048175	1.000000	0.000022	0.000024	0.000023	-6.115223	-75.642663	-0.541090
56217	9.570103	-0.232372	2.452022	-0.012723	0.030174	0.069225	1.000000	0.000016	0.000003	0.000026	-6.119307	-75.645724	-0.543245
56218	9.582581	-0.189953	2.393977	0.050822	0.065828	0.065883	1.000000	0.000027	0.000015	0.000007	-6.120311	-75.646213	-0.542089
56219	9.552443	-0.224863	2.423944	0.010254	0.034210	0.044998	1.000000	0.000019	0.000030	0.000022	-6.112406	-75.647103	-0.538692
56220	9.563543	-0.199998	2.445213	-0.004566	0.061656	0.060336	1.000000	0.000009	0.000016	0.000015	-6.119256	-75.647435	-0.533570
56221	9.548479	-0.197497	2.393188	0.042480	0.057873	0.032852	1.000000	0.000030	0.000026	0.000014	-6.110674	-75.644255	-0.540170
56222	9.532051	-0.212392	2.420387	0.010775	0.046388	0.024035	1.000000	0.000026	0.000033	0.000013	-6.113649	-75.642631	-0.537051
56223	9.551935	-0.225486	2.425887	0.008362	0.033489	0.045002	1.000000	0.000034	0.000019	0.000006	-6.100558	-75.646812	-0.542513
56224	9.565572	-0.205558	2.423431	0.016411	0.053032	0.057083	1.000000	0.000030	0.000026	0.000014	-6.103809	-75.645950	-0.538678
56225	9.531699	-0.212414	2.421770	0.008895	0.045690	0.024040	1.000000	0.000034	0.000018	-0.000003	-6.090286	-75.646224	-0.557387
56226	9.562834	-0.200223	2.447966	-0.007237	0.060692	0.060341	1.000000	0.000050	0.000020	0.000014	-6.091770	-75.646065	-0.552928
56227	9.565303	-0.205598	2.424490	0.014325	0.052438	0.057089	1.000000	0.000033	0.000004	0.000025	-6.090674	-75.652937	-0.552944
56228	9.565251	-0.205759	2.424683	0.013928	0.052516	0.057090	1.000000	0.000027	0.000015	0.000007	-6.091538	-75.653449	-0.551911
56229	9.585193	-0.218792	2.429959	0.011607	0.039660	0.078056	1.000000	0.000037	0.000012	0.000007	-6.079875	-75.657772	-0.559824
56230	9.547660	-0.197952	2.396417	0.036727	0.056716	0.032882	1.000000	0.000023	0.000006	0.000017	-6.086033	-75.659235	-0.553760
56231	9.547581	-0.198219	2.396708	0.035429	0.056424	0.032888	1.000000	0.000022	0.000024	0.000023	-6.085401	-75.663845	-0.557073
56232	9.531176	-0.213010	2.423777	0.003715	0.044952	0.024047	1.000000	0.000041	0.000021	-0.000003	-6.080024	-75.663793	-0.560820
56233	9.561158	-0.178313	2.394507	0.043355	0.075574	0.044980	1.000000	0.000006	0.000005	0.000017	-6.077619	-75.663699	-0.568461
56234	9.549898	-0.203518	2.373866	0.057375	0.048277	0.029649	1.000000	0.000038	0.000011	-0.000002	-6.073707	-75.664793	-0.571082
56235	9.581018	-0.191409	2.400110	0.040695	0.062984	0.065948	1.000000	0.000009	0.000033	0.000013	-6.071770	-75.666383	-0.584928
56236	9.574633	-0.158636	2.392705	0.050088	0.094955	0.057078	1.000000	0.000033	0.000021	0.000023	-6.079046	-75.666105	-0.576599
56237	9.560753	-0.178735	2.396094	0.040469	0.075180	0.044995	1.000000	0.000020	0.000029	0.000005	-6.069804	-75.669625	-0.590492
56238	9.560602	-0.178793	2.396691	0.040067	0.075252	0.044997	1.000000	0.000026	0.000033	0.000013	-6.072612	-75.668067	-0.587571
56239	9.569136	-0.148425	2.441750	0.001710	0.110213	0.063566	1.000000	0.000040	0.000022	0.000005	-6.061063	-75.671767	-0.596300
56240	9.544012	-0.193439	2.424459	0.007262	0.063458	0.036145	1.000000	0.000040	0.000039	0.000003	-6.057652	-75.669631	-0.598136
56241	9.521324	-0.175048	2.443690	-0.014646	0.083493	0.018421	1.000000	0.000044	0.000016	0.000006	-6.046599	-75.670128	-0.612363
56242	9.553852	-0.145629	2.390779	0.047592	0.106599	0.036144	1.000000	0.000016	0.000019	0.000015	-6.052034	-75.670131	-0.607927
56243	9.534923	-0.155201	2.441397	-0.006290	0.102624	0.030518	1.000000	0.000048	0.000009	0.000007	-6.040251	-75.667303	-0.619497
56244	9.543670	-0.193533	2.425795	0.006355	0.062868	0.036149	1.000000	0.000040	0.000007	0.000025	-6.048057	-75.668537	-0.609793
56245	9.557365	-0.173884	2.423122	0.013942	0.081928	0.048249	1.000000	0.000026	0.000017	0.000024	-6.045547	-75.671407	-0.613975
56246	9.577261	-0.187274	2.428550	0.012179	0.069552	0.069208	1.000000	0.000022	0.000024	0.000023	-6.053591	-75.670795	-0.606098
56247	9.579695	-0.192807	2.405273	0.034390	0.060968	0.065985	1.000000	0.000033	0.000021	0.000023	-6.043749	-75.671841	-0.602343
56248	9.557060	-0.174865	2.424252	0.012486	0.081419	0.048255	1.000000	0.000012	0.000010	0.000025	-6.054420	-75.672782	-0.592921
56249	9.599477	-0.206614	2.411115	0.031881	0.048209	0.086948	1.000000	0.000039	0.000042	0.000029	-6.051885	-75.671946	-0.594395
56250	9.565533	-0.213679	2.409687	0.024381	0.041280	0.053891	1.000000	0.000020	0.000029	0.000005	-6.051881	-75.671011	-0.595118
56251	9.562827	-0.208548	2.433987	0.000562	0.048892	0.057118	1.000000	0.000009	0.000033	0.000013	-6.047182	-75.672727	-0.605283
56252	9.531475	-0.220989	2.408682	0.015925	0.034024	0.020836	1.000000	0.000032	0.000022	0.000032	-6.058107	-75.672273	-0.593246
56253	9.545144	-0.201347	2.406135	0.025198	0.053108	0.032938	1.000000	0.000026	0.000016	0.000015	-6.052932	-75.665545	-0.605175
56254	9.565016	-0.214511	2.411665	0.023422	0.040725	0.053896	1.000000	0.000043	0.000033	0.000013	-6.053491	-75.663942	-0.602546
56255	9.544870	-0.201520	2.407207	0.024196	0.052673	0.032943	1.000000	0.000030	0.000026	0.000014	-6.043002	-75.664240	-0.609714
56256	9.542206	-0.196482	2.431312	0.000935	0.060685	0.036165	1.000000	0.000036	0.000014	0.000024	-6.050343	-75.664729	-0.600897
56257	9.575885	-0.189805	2.433773	0.008290	0.067287	0.069228	1.000000	0.000033	0.000020	0.000015	-6.043092	-75.660779	-0.609933
56258	9.539438	-0.191556	2.455804	-0.022058	0.068316	0.039388	1.000000	0.000030	0.000026	0.000014	-6.045958	-75.659966	-0.606528
56259	9.528128	-0.216631	2.435410	-0.008150	0.040497	0.024063	1.000000	0.000028	0.000013	-0.000011	-6.027150	-75.661360	-0.624383
56260	9.593066	-0.197650	2.463512	-0.017232	0.062485	0.093405	1.000000	0.000026	0.000000	0.000026	-6.037111	-75.663388	-0.614052
56261	9.558174	-0.182313	2.406089	0.030304	0.071098	0.045062	1.000000	0.000013	0.000009	0.000016	-6.033294	-75.667647	-0.620689
56262	9.589322	-0.170375	2.432143	0.014131	0.086099	0.081342	1.000000	0.000037	0.000013	0.000015	-6.036731	-75.668344	-0.615851
56263	9.576923	-0.173233	2.356341	0.083430	0.074057	0.050749	1.000000	0.000039	0.000024	0.000023	-6.026082	-75.669017	-0.612761
56264	9.569238	-0.226516	2.367714	0.064707	0.022792	0.047484	1.000000	0.000005	0.000023	0.000023	-6.035933	-75.668452	-0.605020
56265	9.577790	-0.196322	2.412563	0.026905	0.057764	0.066028	1.000000	0.000010	0.000015	0.000007	-6.028251	-75.669915	-0.615371
56266	9.591459	-0.176648	2.410055	0.034969	0.077255	0.078140	1.000000	0.000029	0.000028	0.000031	-6.038682	-75.668695	-0.604249
56267	9.560104	-0.189074	2.384802	0.049938	0.061952	0.041869	1.000000	0.000053	0.000031	0.000022	-6.031989	-75.669583	-0.607561
56268	9.549772	-0.237011	2.420154	0.008346	0.018651	0.041806	1.000000	0.000012	0.000044	0.000020	-6.038815	-75.666725	-0.602180
56269	9.523375	-0.191210	2.407880	0.019686	0.062454	0.012018	1.000000	0.000032	0.000038	0.000021	-6.029959	-75.661672	-0.605018
56270	9.543192	-0.204441	2.413604	0.017889	0.050055	0.032970	1.000000	0.000036	0.000030	0.000013	-6.031482	-75.660471	-0.602167
56271	9.540486	-0.199256	2.437828	-0.005025	0.057549	0.036183	1.000000	0.000040	0.000023	0.000014	-6.021070	-75.657960	-0.607359
56272	9.556730	-0.184572	2.411647	0.025898	0.069075	0.045089	1.000000	0.000040	0.000022	0.000005	-6.019042	-75.657715	-0.607692
56273	9.560238	-0.212436	2.443804	-0.007574	0.044867	0.057134	1.000000	0.000022	0.000024	0.000023	-6.018623	-75.659125	-0.615294
56274	9.540149	-0.199459	2.439128	-0.006575	0.057379	0.036183	1.000000	0.000017	0.000017	-0.000002	-6.015980	-75.659540	-0.619058
56275	9.573889	-0.192574	2.441397	-0.000309	0.063935	0.069254	1.000000	0.000020	-0.000005	0.000009	-6.008118	-75.664677	-0.625244
56276	9.553875	-0.179620	2.436431	0.000693	0.076447	0.048303	1.000000	0.000026	0.000016	0.000015	-6.012247	-75.665029	-0.620898
56277	9.579981	-0.225800	2.449794	-0.011055	0.031538	0.078086	1.000000	0.000020	0.000012	0.000007	-5.999100	-75.666258	-0.625639
56278	9.558894	-0.190376	2.389544	0.045531	0.060000	0.041903	1.000000	0.000020	0.000013	0.000016	-6.004377	-75.667010	-0.620901
56279	9.573630	-0.193094	2.442368	-0.002204	0.063163	0.069258	1.000000	0.000023	0.000023	0.000014	-5.999495	-75.667859	-0.629465
56280	9.564845	-0.223624	2.398503	0.034626	0.027850	0.050736	1.000000	0.000023	0.000039	0.000003	-5.997631	-75.665773	-0.631704
56281	9.555926	-0.185607	2.414752	0.021862	0.067275	0.045111	1.000000	0.000042	0.000019	0.000041	-6.000038	-75.661869	-0.627101
56282	9.528222	-0.225814	2.421071	0.004512	0.028479	0.020866	1.000000	0.000030	0.000026	0.000014	-6.002602	-75.661065	-0.623980
56283	9.573064	-0.193723	2.444536	-0.003446	0.062361	0.069263	1.000000	0.000054	0.000029	0.000004	-5.985581	-75.661353	-0.634679
56284	9.541729	-0.205802	2.419269	0.011945	0.047474	0.032992	1.000000	0.000036	0.000030	0.000013	-5.986937	-75.660154	-0.631992
56285	9.555372	-0.185947	2.416918	0.019217	0.066561	0.045122	1.000000	0.000036	0.000030	0.000013	-5.979060	-75.663608	-0.641894
56286	9.538871	-0.200605	2.444028	-0.012514	0.055167	0.036190	1.000000	0.000034	0.000019	0.000006	-5.978053	-75.663780	-0.641982
56287	9.561369	-0.218999	2.425683	0.007807	0.034347	0.053945	1.000000	0.000040	0.000006	0.000016	-5.971178	-75.669311	-0.648862
56288	9.575136	-0.199253	2.422838	0.015874	0.053815	0.066074	1.000000	0.000016	0.000002	0.000017	-5.977836	-75.671231	-0.643091
56289	9.568945	-0.166475	2.414822	0.025302	0.085237	0.057261	1.000000	0.000027	-0.000001	0.000017	-5.971709	-75.673844	-0.645495
56290	9.568914	-0.166408	2.414950	0.024896	0.085283	0.057262	1.000000	0.000028	0.000013	-0.000011	-5.964160	-75.674845	-0.653029
56291	9.557629	-0.191618	2.394498	0.039535	0.057410	0.041944	1.000000	0.000026	0.000017	0.000024	-5.959908	-75.671052	-0.655102
56292	9.560136	-0.197155	2.371108	0.061980	0.049471	0.038756	1.000000	-0.000008	0.000014	0.000007	-5.964111	-75.671716	-0.654677
56293	9.568700	-0.166941	2.415762	0.024266	0.084600	0.057269	1.000000	-0.000022	0.000008	0.000016	-5.967531	-75.673538	-0.666594
56294	9.611025	-0.129921	2.462617	-0.006308	0.126992	0.108855	1.000000	0.000043	0.000017	0.000023	-5.973242	-75.673644	-0.658638
56295	9.596255	-0.196260	2.350502	0.090561	0.047881	0.068658	1.000000	0.000054	0.000029	0.000004	-5.960103	-75.672650	-0.676265
56296	9.562338	-0.203413	2.348902	0.083110	0.040972	0.035583	1.000000	-0.000006	0.000028	0.000040	-5.978133	-75.671325	-0.661427
56297	9.582026	-0.148097	2.414626	0.030691	0.103343	0.069415	1.000000	0.000047	0.000027	0.000013	-5.967031	-75.673045	-0.669399
56298	9.568043	-0.168051	2.418287	0.021800	0.083975	0.057280	1.000000	0.000036	0.000047	0.000011	-5.966441	-75.669964	-0.668776
56299	9.554017	-0.188126	2.422100	0.012811	0.064255	0.045148	1.000000	0.000056	0.000042	0.000029	-5.963469	-75.667763	-0.674906
56300	9.540018	-0.208326	2.425790	0.003915	0.044890	0.033011	1.000000	0.000026	0.000034	0.000021	-5.969368	-75.666022	-0.668841
56301	9.551068	-0.183386	2.447130	-0.010669	0.071906	0.048332	1.000000	0.000029	0.000027	0.000022	-5.965274	-75.663992	-0.674939
56302	9.539701	-0.208660	2.427007	0.003278	0.044537	0.033013	1.000000	0.000050	0.000036	0.000003	-5.960252	-75.662223	-0.677200
56303	9.525743	-0.228608	2.430546	-0.005974	0.024673	0.020875	1.000000	0.000039	0.000024	0.000023	-5.953678	-75.663606	-0.677509
56304	9.575784	-0.207488	2.406615	0.031987	0.043056	0.062919	1.000000	0.000002	0.000030	0.000022	-5.962760	-75.662311	-0.670997
56305	9.553127	-0.189509	2.425499	0.010009	0.063122	0.045158	1.000000	0.000016	0.000003	0.000026	-5.962549	-75.665075	-0.675022
56306	9.559245	-0.222695	2.433704	-0.000350	0.031294	0.053958	1.000000	0.000003	0.000010	-0.000001	-5.961910	-75.666313	-0.678344
56307	9.561753	-0.227979	2.410392	0.021289	0.022977	0.050786	1.000000	0.000020	0.000029	0.000005	-5.952938	-75.670011	-0.693264
56308	9.570252	-0.197541	2.455221	-0.016312	0.058448	0.069274	1.000000	0.000020	0.000013	0.000016	-5.957903	-75.670794	-0.688888
56309	9.561574	-0.228303	2.411071	0.019470	0.022601	0.050790	1.000000	0.000009	0.000016	0.000015	-5.952726	-75.676990	-0.693417
56310	9.555332	-0.195527	2.403333	0.029020	0.054506	0.041997	1.000000	0.000016	0.000019	0.000015	-5.957359	-75.677036	-0.689804
56311	9.555217	-0.195688	2.403777	0.028344	0.054149	0.042001	1.000000	0.000030	0.000026	0.000014	-5.950306	-75.677822	-0.700270
56312	9.538677	-0.210488	2.430871	-0.003404	0.042808	0.033020	1.000000	0.000033	0.000021	0.000023	-5.956708	-75.677617	-0.692858
56313	9.574937	-0.209134	2.409841	0.025913	0.041344	0.062944	1.000000	0.000047	0.000027	0.000013	-5.947155	-75.677553	-0.700708
56314	9.538399	-0.210612	2.431951	-0.004359	0.042473	0.033021	1.000000	0.000033	0.000036	0.000004	-5.944057	-75.675868	-0.703029
56315	9.572055	-0.203859	2.434600	0.003085	0.049004	0.066111	1.000000	0.000047	0.000011	0.000024	-5.939850	-75.671875	-0.707929
56316	9.560743	-0.229249	2.414274	0.017012	0.021619	0.050797	1.000000	0.000036	0.000030	0.000013	-5.940880	-75.670719	-0.705627
56317	9.574426	-0.209413	2.411847	0.025018	0.040627	0.062950	1.000000	0.000040	0.000023	0.000014	-5.932263	-75.670768	-0.713861
56318	9.540537	-0.216228	2.410107	0.017589	0.033736	0.029862	1.000000	0.000040	0.000022	0.000005	-5.929749	-75.670574	-0.714743
56319	9.557779	-0.223917	2.439342	-0.008023	0.028906	0.053962	1.000000	0.000034	0.000019	0.000006	-5.918101	-75.675843	-0.721650
56320	9.560320	-0.229301	2.415944	0.014400	0.020912	0.050803	1.000000	0.000030	0.000009	0.000016	-5.922075	-75.677000	-0.717081
56321	9.540324	-0.216126	2.410961	0.015380	0.033041	0.029868	1.000000	0.000031	0.000007	-0.000010	-5.905723	-75.679328	-0.736926
56322	9.554079	-0.196150	2.408261	0.023469	0.052466	0.042023	1.000000	0.000016	0.000019	0.000015	-5.910238	-75.679382	-0.733454
56323	9.554020	-0.196187	2.408490	0.023093	0.052073	0.042026	1.000000	0.000024	0.000004	-0.000001	-5.897634	-75.681101	-0.744371
56324	9.576561	-0.214541	2.390092	0.044022	0.031600	0.059808	1.000000	0.000030	0.000008	0.000007	-5.897732	-75.682467	-0.743755
56325	9.584163	-0.161698	2.379344	0.061984	0.082344	0.063191	1.000000	-0.000004	0.000025	0.000005	-5.887375	-75.682679	-0.752577
56326	9.592630	-0.131218	2.424208	0.024401	0.117836	0.081658	1.000000	0.000040	0.000023	0.000014	-5.888614	-75.682288	-0.749638
56327	9.563967	-0.148580	2.375160	0.062639	0.094578	0.042263	1.000000	0.000055	0.000028	-0.000004	-5.873159	-75.681736	-0.774362
56328	9.558781	-0.206835	2.363036	0.066544	0.035320	0.035731	1.000000	0.000015	0.000020	0.000023	-5.881455	-75.681581	-0.767050
56329	9.578434	-0.151393	2.428634	0.014807	0.097699	0.069509	1.000000	0.000002	0.000030	0.000022	-5.877228	-75.679247	-0.765245
56330	9.578295	-0.151719	2.429159	0.014396	0.097729	0.069510	1.000000	0.000040	0.000024	0.000023	-5.882264	-75.678646	-0.758444
56331	9.529646	-0.156392	2.375089	0.054538	0.086867	0.009183	1.000000	0.000056	0.000042	0.000029	-5.879035	-75.673723	-0.765723
56332	9.552928	-0.197369	2.412723	0.019769	0.050616	0.042041	1.000000	0.000012	0.000026	0.000014	-5.883134	-75.673017	-0.763103
56333	9.530201	-0.179175	2.431810	-0.001945	0.070766	0.024259	1.000000	0.000026	0.000034	0.000021	-5.879273	-75.671199	-0.772082
56334	9.546506	-0.164881	2.405738	0.028990	0.082125	0.033274	1.000000	0.000040	0.000024	0.000023	-5.884271	-75.670591	-0.765335
56335	9.536058	-0.212603	2.440941	-0.012268	0.038556	0.033031	1.000000	0.000033	0.000020	0.000015	-5.876930	-75.667528	-0.778946
56336	9.561161	-0.236700	2.399137	0.031465	0.009997	0.047668	1.000000	0.000025	0.000018	0.000032	-5.888102	-75.667499	-0.767498
56337	9.547073	-0.187998	2.462324	-0.027263	0.065628	0.048343	1.000000	0.000020	0.000013	0.000016	-5.882780	-75.667468	-0.775564
56338	9.592140	-0.225091	2.425639	0.014947	0.024588	0.083914	1.000000	0.000016	0.000019	0.000015	-5.887131	-75.667502	-0.772274
56339	9.535703	-0.213610	2.442242	-0.013601	0.037722	0.033032	1.000000	0.000037	0.000013	0.000015	-5.877433	-75.667187	-0.775213
56340	9.538224	-0.219103	2.418986	0.008818	0.029688	0.029886	1.000000	0.000019	0.000029	0.000013	-5.880267	-75.666068	-0.773096
56341	9.571902	-0.212501	2.421575	0.015839	0.036279	0.062986	1.000000	0.000013	0.000009	0.000016	-5.878372	-75.664743	-0.787569
56342	9.558002	-0.232644	2.424781	0.006905	0.016932	0.050819	1.000000	0.000009	0.000016	0.000015	-5.883864	-75.665166	-0.783912
56343	9.554421	-0.205255	2.393353	0.039080	0.040327	0.038915	1.000000	0.000040	0.000024	0.000023	-5.879088	-75.666222	-0.788282
56344	9.554276	-0.205247	2.393929	0.038671	0.040350	0.038917	1.000000	0.000034	0.000035	-0.000005	-5.871860	-75.664724	-0.794838
56345	9.571460	-0.213118	2.423268	0.013718	0.035613	0.062991	1.000000	0.000019	0.000014	0.000033	-5.875636	-75.666149	-0.793780
56346	9.554893	-0.227932	2.450251	-0.018045	0.024342	0.053961	1.000000	0.000050	0.000020	0.000014	-5.875815	-75.666090	-0.790741
56347	9.571268	-0.213580	2.423984	0.013451	0.035305	0.062993	1.000000	0.000026	0.000017	0.000024	-5.874905	-75.663040	-0.799085
56348	9.557320	-0.233756	2.427362	0.004510	0.015961	0.050822	1.000000	0.000040	0.000024	0.000023	-5.879770	-75.662410	-0.792501
56349	9.573686	-0.219328	2.401149	0.034825	0.026831	0.059858	1.000000	0.000034	0.000019	0.000006	-5.867574	-75.666230	-0.803160
56350	9.554481	-0.228535	2.451804	-0.019764	0.023651	0.053959	1.000000	0.000026	0.000016	0.000015	-5.870945	-75.666614	-0.799672
56351	9.550941	-0.200994	2.420278	0.012199	0.046984	0.042071	1.000000	0.000027	0.000015	0.000006	-5.859697	-75.670207	-0.806065
56352	9.550851	-0.201006	2.420630	0.011789	0.047007	0.042071	1.000000	0.000050	0.000020	0.000014	-5.859818	-75.670155	-0.803087
56353	9.539575	-0.226223	2.400243	0.025814	0.019234	0.026763	1.000000	0.000020	0.000011	-0.000002	-5.848666	-75.670507	-0.822181
56354	9.553356	-0.206327	2.397506	0.033938	0.038618	0.038941	1.000000	0.000037	0.000013	0.000015	-5.851133	-75.671249	-0.818403
56355	9.564513	-0.181054	2.418373	0.019533	0.065781	0.054252	1.000000	0.000024	0.000004	-0.000001	-5.841174	-75.671544	-0.837582
56356	9.578303	-0.161138	2.415604	0.027663	0.085163	0.066431	1.000000	0.000044	0.000017	0.000015	-5.842447	-75.671884	-0.834241
56357	9.573108	-0.219407	2.403447	0.031347	0.025461	0.059874	1.000000	0.000034	0.000019	0.000006	-5.830625	-75.672579	-0.843618
56358	9.535793	-0.198696	2.369707	0.056869	0.042340	0.014892	1.000000	0.000009	0.000016	0.000015	-5.835975	-75.673009	-0.840135
56359	9.575353	-0.156067	2.440456	0.003865	0.092426	0.069570	1.000000	0.000016	0.000036	0.000012	-5.827546	-75.669103	-0.846847
56360	9.571731	-0.128457	2.409305	0.036376	0.116186	0.057696	1.000000	0.000051	0.000036	0.000003	-5.821960	-75.667349	-0.849752
56361	9.535372	-0.198905	2.371385	0.055732	0.041531	0.014902	1.000000	0.000020	0.000013	0.000016	-5.816922	-75.669581	-0.857309
56362	9.580239	-0.167106	2.394723	0.048026	0.075882	0.063321	1.000000	0.000019	0.000030	0.000022	-5.823395	-75.668252	-0.851527
56363	9.518416	-0.144745	2.458905	-0.027171	0.105458	0.018668	1.000000	0.000033	0.000036	0.000004	-5.811230	-75.671939	-0.865137
56364	9.557339	-0.148830	2.414423	0.025029	0.096145	0.045530	1.000000	0.000029	0.000027	0.000022	-5.816819	-75.670977	-0.859044
56365	9.543364	-0.168936	2.417889	0.016232	0.076369	0.033349	1.000000	0.000023	0.000023	0.000014	-5.809479	-75.669687	-0.866449
56366	9.551980	-0.207554	2.402879	0.028524	0.036445	0.038966	1.000000	0.000022	0.000024	0.000023	-5.816227	-75.669120	-0.859966
56367	9.594187	-0.170444	2.449893	-0.001756	0.078474	0.090508	1.000000	0.000015	0.000020	0.000023	-5.814181	-75.667504	-0.866634
56368	9.543014	-0.169952	2.419202	0.015253	0.075991	0.033354	1.000000	0.000022	0.000025	0.000031	-5.824742	-75.666724	-0.856272
56369	9.542882	-0.170212	2.419705	0.015693	0.075542	0.033356	1.000000	0.000047	0.000027	0.000013	-5.813766	-75.660952	-0.867072
56370	9.571423	-0.221810	2.409928	0.026398	0.023130	0.059894	1.000000	0.000016	0.000019	0.000015	-5.817817	-75.660976	-0.864122
56371	9.559912	-0.178354	2.449504	-0.009592	0.070804	0.057403	1.000000	0.000029	0.000028	0.000031	-5.817702	-75.660236	-0.865382
56372	9.562437	-0.184057	2.426341	0.012814	0.062704	0.054283	1.000000	0.000023	0.000023	0.000014	-5.820554	-75.659863	-0.862864
56373	9.534613	-0.224035	2.432731	-0.004455	0.023565	0.029906	1.000000	0.000033	0.000021	0.000023	-5.815677	-75.658189	-0.868782
56374	9.534515	-0.224255	2.433094	-0.004863	0.023580	0.029906	1.000000	0.000026	0.000016	0.000015	-5.818821	-75.658563	-0.865540
56375	9.570864	-0.223066	2.412032	0.023784	0.021980	0.059903	1.000000	0.000016	0.000019	0.000015	-5.814210	-75.662776	-0.873628
56376	9.548172	-0.204736	2.430866	0.002150	0.042599	0.042098	1.000000	0.000023	0.000023	0.000014	-5.817025	-75.662408	-0.871149
56377	9.581812	-0.198100	2.433663	0.009351	0.049015	0.075214	1.000000	0.000026	0.000033	0.000013	-5.807836	-75.657112	-0.882760
56378	9.534042	-0.224967	2.434882	-0.006580	0.022827	0.029906	1.000000	0.000026	0.000017	0.000024	-5.814774	-75.657277	-0.875660
56379	9.567733	-0.218583	2.437456	-0.000127	0.029252	0.063022	1.000000	0.000036	0.000015	0.000033	-5.814163	-75.658141	-0.871054
56380	9.545059	-0.200307	2.456200	-0.021753	0.049878	0.045215	1.000000	0.000016	0.000018	0.000006	-5.814285	-75.658372	-0.872100
56381	9.567539	-0.218922	2.438186	-0.001023	0.028800	0.063023	1.000000	0.000023	0.000023	0.000014	-5.805835	-75.658384	-0.875356
56382	9.536338	-0.231262	2.412591	0.014418	0.013828	0.026796	1.000000	0.000030	0.000009	0.000016	-5.809213	-75.659512	-0.871443
56383	9.550137	-0.211465	2.409851	0.022643	0.032819	0.038994	1.000000	0.000027	0.000015	0.000006	-5.800045	-75.659626	-0.884247
56384	9.547386	-0.206020	2.433843	-0.000574	0.040961	0.042105	1.000000	0.000034	0.000019	0.000006	-5.798082	-75.659812	-0.885408
56385	9.561174	-0.186285	2.431144	0.007506	0.059871	0.054306	1.000000	0.000029	0.000010	0.000025	-5.794909	-75.661087	-0.884901
56386	9.549880	-0.211797	2.410841	0.021349	0.032409	0.038999	1.000000	0.000030	0.000026	0.000014	-5.796444	-75.660313	-0.882923
56387	9.563677	-0.192044	2.408114	0.029999	0.051289	0.051200	1.000000	0.000044	-0.000000	0.000017	-5.788412	-75.659573	-0.883618
56388	9.583546	-0.205229	2.413549	0.027989	0.038809	0.072119	1.000000	0.000016	0.000018	0.000006	-5.788454	-75.659796	-0.884733
56389	9.549660	-0.212089	2.411688	0.020913	0.031510	0.039002	1.000000	0.000023	0.000023	0.000014	-5.780449	-75.657688	-0.887548
56390	9.585989	-0.210891	2.390779	0.050269	0.030230	0.069015	1.000000	0.000030	0.000026	0.000014	-5.781942	-75.656904	-0.885600
56391	9.574504	-0.167095	2.430215	0.014114	0.077878	0.066519	1.000000	0.000037	0.000012	0.000007	-5.769468	-75.659464	-0.891110
56392	9.549350	-0.212272	2.412900	0.019403	0.031078	0.039007	1.000000	0.000040	0.000023	0.000014	-5.770074	-75.659036	-0.888845
56393	9.540531	-0.173793	2.428703	0.006397	0.070681	0.033403	1.000000	0.000034	0.000018	-0.000003	-5.755630	-75.659155	-0.904000
56394	9.556934	-0.159307	2.402614	0.037359	0.081884	0.042505	1.000000	0.000023	0.000040	0.000012	-5.756463	-75.656869	-0.903570
56395	9.565518	-0.197770	2.387755	0.049511	0.041476	0.048116	1.000000	0.000027	0.000015	0.000006	-5.744876	-75.657853	-0.909937
56396	9.587782	-0.147262	2.429551	0.020604	0.096421	0.078735	1.000000	0.000043	0.000034	0.000021	-5.747785	-75.656067	-0.904959
56397	9.559199	-0.164987	2.380592	0.058543	0.072842	0.039418	1.000000	0.000020	0.000029	0.000005	-5.735043	-75.656947	-0.910231
56398	9.570258	-0.139739	2.401777	0.043885	0.100314	0.054729	1.000000	0.000030	0.000026	0.000014	-5.736457	-75.656169	-0.908345
56399	9.539702	-0.174145	2.431932	0.003323	0.069434	0.033413	1.000000	0.000030	0.000026	0.000014	-5.729440	-75.656767	-0.919518
56400	9.558797	-0.165256	2.382185	0.057091	0.072487	0.039430	1.000000	0.000036	0.000030	0.000013	-5.729660	-75.655594	-0.918061
56401	9.556682	-0.182102	2.461799	-0.021767	0.064739	0.057425	1.000000	0.000029	0.000010	0.000025	-5.728423	-75.655650	-0.923927
56402	9.539394	-0.174741	2.433096	0.002256	0.069091	0.033416	1.000000	0.000002	0.000012	0.000016	-5.734521	-75.656463	-0.920443
56403	9.544666	-0.185893	2.386155	0.048391	0.052385	0.027224	1.000000	0.000040	0.000024	0.000022	-5.729469	-75.650382	-0.925372
56404	9.561777	-0.193736	2.415513	0.023557	0.048040	0.051234	1.000000	0.000033	0.000020	0.000014	-5.731145	-75.650344	-0.922803
56405	9.564346	-0.199301	2.392318	0.045538	0.039531	0.048143	1.000000	0.000030	0.000026	0.000014	-5.723904	-75.651961	-0.929754
56406	9.538945	-0.175428	2.434807	0.001153	0.068328	0.033422	1.000000	0.000023	0.000023	0.000014	-5.726432	-75.651573	-0.927536
56407	9.577959	-0.179800	2.390350	0.053000	0.058525	0.060365	1.000000	0.000026	0.000034	0.000021	-5.723548	-75.651534	-0.936829
56408	9.563945	-0.199902	2.393869	0.044026	0.039200	0.048151	1.000000	0.000016	0.000019	0.000015	-5.727240	-75.651547	-0.934223
56409	9.549909	-0.220043	2.397467	0.035024	0.019562	0.035938	1.000000	0.000039	0.000042	0.000029	-5.726261	-75.648937	-0.938649
56410	9.583516	-0.213475	2.400443	0.041549	0.026388	0.069066	1.000000	0.000020	0.000029	0.000005	-5.724620	-75.648009	-0.941113
56411	9.546889	-0.214860	2.422387	0.011931	0.027313	0.039030	1.000000	0.000009	0.000033	0.000013	-5.718242	-75.643434	-0.950604
56412	9.563969	-0.222779	2.451806	-0.012915	0.022981	0.063030	1.000000	0.000026	0.000017	0.000024	-5.724864	-75.643586	-0.943812
56413	9.549339	-0.220737	2.399671	0.033210	0.018764	0.035945	1.000000	0.000020	0.000029	0.000005	-5.713892	-75.646752	-0.953680
56414	9.546516	-0.215354	2.423813	0.010002	0.026927	0.039033	1.000000	0.000023	0.000023	0.000014	-5.716357	-75.646370	-0.951540
56415	9.552426	-0.248377	2.432521	-0.001169	-0.005219	0.047722	1.000000	0.000034	0.000019	0.000006	-5.706136	-75.649682	-0.963692
56416	9.566193	-0.228449	2.429990	0.006995	0.014097	0.059944	1.000000	0.000037	0.000029	0.000004	-5.702402	-75.648720	-0.966284
56417	9.563422	-0.223040	2.453915	-0.016925	0.021936	0.063026	1.000000	0.000027	-0.000001	0.000017	-5.698921	-75.655104	-0.972070
56418	9.546181	-0.215487	2.425120	0.007118	0.026260	0.039038	1.000000	0.000027	0.000015	0.000006	-5.697840	-75.655697	-0.973122
56419	9.548811	-0.221069	2.401743	0.029075	0.017657	0.035961	1.000000	0.000047	0.000011	0.000024	-5.692415	-75.659044	-0.970917
56420	9.577140	-0.203408	2.451548	-0.010017	0.040816	0.075250	1.000000	0.000038	0.000011	-0.000002	-5.686616	-75.660205	-0.975549
56421	9.546006	-0.215503	2.425810	0.005002	0.025514	0.039041	1.000000	0.000030	0.000008	0.000007	-5.678375	-75.664175	-0.989073
56422	9.559821	-0.195705	2.423083	0.013168	0.044823	0.051269	1.000000	0.000033	0.000020	0.000014	-5.679914	-75.664172	-0.986670
56423	9.562454	-0.201337	2.399699	0.035970	0.036269	0.048195	1.000000	0.000023	0.000006	0.000016	-5.675547	-75.663254	-0.990682
56424	9.582290	-0.214447	2.405246	0.033894	0.023764	0.069102	1.000000	0.000034	0.000018	-0.000003	-5.669404	-75.663663	-0.996094
56425	9.576192	-0.181432	2.397295	0.043179	0.055195	0.060432	1.000000	0.000033	0.000020	0.000014	-5.661869	-75.666787	-0.998018
56426	9.556810	-0.190383	2.447926	-0.011403	0.052240	0.054346	1.000000	0.000027	0.000015	0.000006	-5.660720	-75.667391	-0.999137
56427	9.558791	-0.173802	2.369182	0.066952	0.059146	0.036461	1.000000	0.000033	0.000036	0.000003	-5.648396	-75.664924	-1.013151
56428	9.544747	-0.193602	2.372817	0.057964	0.039830	0.024232	1.000000	0.000020	0.000029	0.000005	-5.646608	-75.664021	-1.015770
56429	9.558528	-0.173642	2.370255	0.065493	0.058804	0.036473	1.000000	0.000034	0.000018	-0.000003	-5.632599	-75.668155	-1.032443
56430	9.539111	-0.182373	2.420998	0.010912	0.055864	0.030376	1.000000	0.000037	0.000029	0.000004	-5.628753	-75.667218	-1.035156
56431	9.572791	-0.175648	2.423719	0.017367	0.062332	0.063517	1.000000	0.000037	0.000013	0.000015	-5.622785	-75.668185	-1.044591
56432	9.536218	-0.176784	2.445370	-0.012740	0.063714	0.033444	1.000000	0.000024	0.000020	-0.000012	-5.613610	-75.668457	-1.054308
56433	9.569345	-0.148055	2.392367	0.049509	0.085583	0.051790	1.000000	0.000029	0.000010	0.000024	-5.612221	-75.669937	-1.056444
56434	9.552688	-0.162470	2.419232	0.017721	0.074466	0.042619	1.000000	0.000038	0.000011	-0.000002	-5.606310	-75.671109	-1.061207
56435	9.552620	-0.162586	2.419492	0.016803	0.074142	0.042623	1.000000	0.000036	0.000015	0.000033	-5.608103	-75.674399	-1.060510
56436	9.600237	-0.136272	2.419011	0.031874	0.100234	0.088003	1.000000	0.000013	0.000008	0.000007	-5.609236	-75.675810	-1.060906
56437	9.555195	-0.168567	2.396361	0.038540	0.065553	0.039568	1.000000	0.000015	0.000020	0.000023	-5.607663	-75.676964	-1.063291
56438	9.586164	-0.156711	2.422698	0.022231	0.080541	0.075770	1.000000	0.000015	0.000020	0.000023	-5.614965	-75.676812	-1.057045
56439	9.560973	-0.202158	2.405523	0.027597	0.033349	0.048232	1.000000	0.000023	0.000023	0.000014	-5.608339	-75.675474	-1.064494
56440	9.585923	-0.157132	2.423625	0.021571	0.080139	0.075775	1.000000	0.000019	0.000029	0.000013	-5.610298	-75.674379	-1.063316
56441	9.554710	-0.169762	2.398212	0.036935	0.064818	0.039579	1.000000	0.000021	0.000026	0.000040	-5.616769	-75.674128	-1.062199
56442	9.557846	-0.197610	2.430707	0.003441	0.041216	0.051293	1.000000	0.000030	0.000026	0.000013	-5.617848	-75.673389	-1.060709
56443	9.560450	-0.203329	2.407502	0.026369	0.032627	0.048238	1.000000	0.000026	0.000017	0.000024	-5.615820	-75.670348	-1.066055
56444	9.543706	-0.217950	2.434624	-0.005426	0.021535	0.039050	1.000000	0.000036	0.000031	0.000022	-5.619540	-75.668996	-1.061091
56445	9.557454	-0.198263	2.432198	0.002931	0.040436	0.051296	1.000000	0.000036	0.000030	0.000013	-5.610503	-75.666797	-1.069808
56446	9.543420	-0.218277	2.435716	-0.006077	0.021133	0.039051	1.000000	0.000033	0.000021	0.000023	-5.615696	-75.666592	-1.063710
56447	9.557230	-0.198719	2.433038	0.002466	0.040012	0.051298	1.000000	0.000036	0.000014	0.000024	-5.611871	-75.665005	-1.065224
56448	9.582464	-0.223243	2.391447	0.045917	0.011061	0.066090	1.000000	0.000025	0.000018	0.000032	-5.622058	-75.664984	-1.054833
56449	9.557005	-0.199344	2.433873	0.002073	0.039644	0.051300	1.000000	0.000016	0.000035	0.000004	-5.611858	-75.660804	-1.068342
56450	9.565567	-0.237970	2.419129	0.014135	-0.000384	0.056897	1.000000	0.000026	0.000017	0.000024	-5.618196	-75.660987	-1.061869
56451	9.556808	-0.199763	2.434610	0.000963	0.039241	0.051301	1.000000	0.000023	0.000006	0.000016	-5.613160	-75.664155	-1.063838
56452	9.562710	-0.232923	2.443237	-0.009763	0.007434	0.059949	1.000000	0.000016	0.000019	0.000015	-5.616514	-75.664193	-1.061610
56453	9.542736	-0.219917	2.438249	-0.008487	0.019586	0.039052	1.000000	0.000016	0.000018	0.000006	-5.607928	-75.664569	-1.074136
56454	9.567988	-0.244104	2.396645	0.034950	-0.009384	0.053851	1.000000	0.000020	0.000012	0.000007	-5.607748	-75.665567	-1.075080
56455	9.565182	-0.238665	2.420582	0.011608	-0.001443	0.056900	1.000000	0.000033	0.000020	0.000014	-5.602651	-75.666374	-1.086392
56456	9.545220	-0.225700	2.415545	0.012919	0.011051	0.036005	1.000000	0.000020	0.000013	0.000016	-5.606294	-75.667166	-1.083457
56457	9.559039	-0.205816	2.412889	0.021792	0.030011	0.048258	1.000000	0.000048	0.000025	-0.000004	-5.590671	-75.662818	-1.104506
56458	9.592681	-0.198907	2.415816	0.028264	0.036770	0.081408	1.000000	0.000033	0.000036	0.000003	-5.586310	-75.661114	-1.108196
56459	9.558769	-0.205565	2.413979	0.020682	0.029625	0.048261	1.000000	0.000027	0.000015	0.000006	-5.576364	-75.663344	-1.114427
56460	9.536087	-0.186868	2.432544	-0.000778	0.050355	0.030412	1.000000	0.000044	0.000016	0.000006	-5.572925	-75.663899	-1.115906
56461	9.538748	-0.192321	2.409198	0.021656	0.041778	0.027370	1.000000	0.000037	0.000012	0.000007	-5.563051	-75.664458	-1.126148
56462	9.595046	-0.204296	2.393660	0.049169	0.027782	0.078373	1.000000	0.000030	0.000026	0.000013	-5.563984	-75.663697	-1.124819
56463	9.532571	-0.159410	2.401649	0.031263	0.073190	0.018737	1.000000	0.000040	0.000022	0.000005	-5.552151	-75.663000	-1.134251
56464	9.558306	-0.205457	2.415822	0.018771	0.028876	0.048267	1.000000	0.000016	0.000018	0.000006	-5.551592	-75.663239	-1.136020
56465	9.589228	-0.193230	2.442302	0.002595	0.043558	0.084462	1.000000	0.000016	0.000035	0.000004	-5.541990	-75.660759	-1.151819
56466	9.552053	-0.172672	2.408566	0.028444	0.060316	0.039636	1.000000	0.000019	0.000030	0.000022	-5.547595	-75.659433	-1.146956
56467	9.535268	-0.187081	2.435733	-0.003440	0.048967	0.030418	1.000000	0.000040	0.000022	0.000005	-5.536591	-75.659703	-1.160116
56468	9.568959	-0.180407	2.438456	0.003024	0.055714	0.063571	1.000000	0.000026	0.000016	0.000015	-5.538974	-75.660089	-1.157687
56469	9.565652	-0.153170	2.406768	0.035425	0.078917	0.051907	1.000000	0.000016	0.000019	0.000015	-5.534742	-75.662006	-1.163052
56470	9.571524	-0.186324	2.415493	0.024650	0.047116	0.060537	1.000000	0.000020	0.000013	0.000015	-5.538290	-75.662793	-1.160230
56471	9.571465	-0.186505	2.415713	0.024702	0.046760	0.060539	1.000000	0.000030	0.000009	0.000016	-5.533306	-75.661222	-1.167485
56472	9.565459	-0.153797	2.407494	0.034666	0.078523	0.051912	1.000000	0.000029	0.000010	0.000024	-5.539808	-75.662151	-1.160447
56473	9.585201	-0.167099	2.413373	0.032267	0.065633	0.072808	1.000000	0.000040	0.000040	0.000011	-5.529431	-75.661168	-1.166728
56474	9.545317	-0.140962	2.403177	0.035367	0.090637	0.031029	1.000000	0.000016	0.000019	0.000015	-5.532637	-75.661199	-1.164675
56475	9.551161	-0.173966	2.412007	0.025023	0.058537	0.039656	1.000000	0.000040	0.000022	0.000005	-5.522005	-75.658439	-1.180211
56476	9.570908	-0.187290	2.417857	0.022858	0.046004	0.060547	1.000000	0.000022	0.000025	0.000031	-5.531686	-75.657653	-1.170789
56477	9.548170	-0.169022	2.436554	0.001720	0.066429	0.042692	1.000000	0.000022	0.000024	0.000023	-5.529850	-75.655410	-1.175333
56478	9.536864	-0.194611	2.416464	0.015457	0.038879	0.027393	1.000000	0.000030	0.000026	0.000013	-5.530677	-75.654638	-1.174128
56479	9.556596	-0.208039	2.422357	0.012801	0.026000	0.048285	1.000000	0.000022	0.000025	0.000031	-5.531956	-75.656627	-1.168986
56480	9.525879	-0.242474	2.452479	-0.027633	-0.004280	0.026776	1.000000	0.000016	0.000019	0.000015	-5.535122	-75.656654	-1.166979
56481	9.553619	-0.203093	2.446820	-0.011266	0.033903	0.051315	1.000000	0.000022	0.000024	0.000023	-5.533068	-75.658813	-1.167518
56482	9.578869	-0.227652	2.405391	0.032096	0.004830	0.066150	1.000000	0.000026	0.000017	0.000024	-5.539188	-75.658993	-1.161292
56483	9.522387	-0.215877	2.421545	0.003824	0.018535	0.015130	1.000000	0.000037	0.000013	0.000015	-5.533299	-75.659715	-1.166063
56484	9.573204	-0.216921	2.453241	-0.014271	0.021018	0.072202	1.000000	0.000016	0.000019	0.000015	-5.536439	-75.659746	-1.164084
56485	9.561939	-0.242496	2.432982	-0.000244	-0.006914	0.056904	1.000000	0.000020	0.000013	0.000015	-5.531155	-75.658760	-1.166216
56486	9.558681	-0.215368	2.401217	0.032515	0.016568	0.045267	1.000000	0.000026	0.000017	0.000024	-5.537247	-75.658936	-1.160015
56487	9.561788	-0.242917	2.433534	-0.001136	-0.007271	0.056904	1.000000	0.000030	0.000008	0.000007	-5.528563	-75.660637	-1.170123
56488	9.538682	-0.202452	2.396347	0.033405	0.028722	0.024385	1.000000	0.000033	0.000020	0.000014	-5.529633	-75.660624	-1.168241
56489	9.589483	-0.203225	2.428121	0.015747	0.030883	0.081455	1.000000	0.000024	0.000020	-0.000012	-5.512850	-75.658258	-1.188166
56490	9.558358	-0.215526	2.402489	0.031253	0.015840	0.045273	1.000000	0.000036	0.000015	0.000032	-5.521883	-75.658578	-1.177763
56491	9.569400	-0.190488	2.423571	0.016918	0.043065	0.060572	1.000000	0.000032	0.000038	0.000020	-5.518312	-75.655215	-1.183719
56492	9.572007	-0.196169	2.400539	0.039277	0.034757	0.057553	1.000000	0.000023	0.000022	0.000005	-5.516392	-75.655046	-1.186098
56493	9.555212	-0.210510	2.427596	0.007396	0.023474	0.048297	1.000000	0.000016	0.000019	0.000015	-5.512679	-75.655453	-1.195225
56494	9.541188	-0.230419	2.430980	-0.001650	0.004198	0.036018	1.000000	0.000027	0.000015	0.000006	-5.511060	-75.656037	-1.196876
56495	9.537955	-0.203097	2.399187	0.031751	0.027356	0.024394	1.000000	0.000037	0.000013	0.000015	-5.505709	-75.653145	-1.206005
56496	9.554967	-0.210817	2.428534	0.006791	0.023105	0.048298	1.000000	0.000016	0.000019	0.000015	-5.508774	-75.653159	-1.204112
56497	9.568804	-0.191162	2.425868	0.014768	0.042051	0.060580	1.000000	0.000033	0.000020	0.000014	-5.503122	-75.654608	-1.212780
56498	9.548871	-0.177916	2.420770	0.016156	0.054545	0.039697	1.000000	0.000028	0.000013	-0.000011	-5.493821	-75.655601	-1.222253
56499	9.571406	-0.196556	2.402903	0.036868	0.033443	0.057566	1.000000	0.000016	0.000019	0.000015	-5.490888	-75.654709	-1.230301
56500	9.582488	-0.171389	2.423824	0.022346	0.060964	0.072866	1.000000	0.000043	0.000017	0.000023	-5.494857	-75.654831	-1.224281
56501	9.517574	-0.190413	2.395824	0.031432	0.038871	0.003521	1.000000	0.000034	0.000019	0.000006	-5.484964	-75.652507	-1.235855
56502	9.565199	-0.163878	2.395581	0.046524	0.064816	0.048972	1.000000	0.000030	0.000025	0.000005	-5.481811	-75.651930	-1.238714
56503	9.548387	-0.178053	2.422670	0.014574	0.053603	0.039705	1.000000	0.000034	0.000019	0.000006	-5.473149	-75.652911	-1.253470
56504	9.564994	-0.163986	2.396392	0.045579	0.064510	0.048978	1.000000	0.000015	0.000020	0.000023	-5.480000	-75.652714	-1.247745
56505	9.548184	-0.178450	2.423440	0.014007	0.053259	0.039708	1.000000	0.000033	0.000020	0.000014	-5.474257	-75.651260	-1.256670
56506	9.545301	-0.172977	2.447495	-0.009154	0.061546	0.042720	1.000000	0.000030	0.000026	0.000013	-5.474914	-75.650474	-1.255668
56507	9.547948	-0.178658	2.424352	0.013075	0.052881	0.039711	1.000000	0.000006	0.000021	0.000006	-5.467239	-75.650990	-1.262114
56508	9.545081	-0.173225	2.448336	-0.010086	0.061169	0.042721	1.000000	0.000043	0.000017	0.000023	-5.471160	-75.651106	-1.256151
56509	9.547744	-0.178968	2.425135	0.012490	0.052509	0.039714	1.000000	0.000040	0.000023	0.000014	-5.463568	-75.649332	-1.261416
56510	9.567478	-0.192134	2.431018	0.010270	0.039961	0.060594	1.000000	0.000023	0.000022	0.000005	-5.461546	-75.649148	-1.263924
56511	9.547516	-0.179154	2.426020	0.012076	0.052181	0.039716	1.000000	0.000022	0.000024	0.000023	-5.460975	-75.646252	-1.270982
56512	9.538988	-0.210282	2.382350	0.048522	0.016274	0.021411	1.000000	0.000030	0.000025	0.000005	-5.457767	-75.645667	-1.273911
56513	9.569914	-0.198094	2.408713	0.032689	0.030996	0.057589	1.000000	0.000020	0.000013	0.000015	-5.454641	-75.643562	-1.279933
56514	9.555918	-0.218162	2.411937	0.023623	0.011733	0.045300	1.000000	0.000033	0.000004	0.000025	-5.461191	-75.645211	-1.272465
56515	9.547190	-0.179950	2.427243	0.010312	0.051550	0.039721	1.000000	0.000026	0.000017	0.000023	-5.461271	-75.649090	-1.279097
56516	9.552990	-0.213168	2.436095	-0.000584	0.019768	0.048308	1.000000	0.000043	0.000017	0.000023	-5.465148	-75.649200	-1.273196
56517	9.569605	-0.199250	2.409843	0.029981	0.030354	0.057600	1.000000	0.000022	0.000024	0.000023	-5.463808	-75.651161	-1.275753
56518	9.555533	-0.219289	2.413359	0.020909	0.011094	0.045307	1.000000	0.000023	0.000023	0.000014	-5.465572	-75.650771	-1.274428
56519	9.555426	-0.219468	2.413769	0.020200	0.010740	0.045308	1.000000	0.000016	0.000019	0.000015	-5.460692	-75.652488	-1.274148
56520	9.569239	-0.199803	2.411252	0.028457	0.029940	0.057606	1.000000	0.000033	0.000037	0.000012	-5.459776	-75.650555	-1.274386
56521	9.555164	-0.219798	2.414776	0.019277	0.010394	0.045311	1.000000	0.000029	0.000010	0.000024	-5.459215	-75.652061	-1.275665
56522	9.549180	-0.187018	2.406637	0.029374	0.042116	0.036733	1.000000	0.000020	0.000028	0.000004	-5.456812	-75.651129	-1.278997
56523	9.554947	-0.220112	2.415604	0.018156	0.010072	0.045313	1.000000	0.000026	0.000017	0.000023	-5.456388	-75.653041	-1.281525
56524	9.551714	-0.193087	2.383981	0.051008	0.033451	0.033742	1.000000	0.000026	0.000034	0.000021	-5.460455	-75.651302	-1.277490
56525	9.554681	-0.220525	2.416620	0.017369	0.009740	0.045315	1.000000	0.000034	0.000019	0.000006	-5.451181	-75.651279	-1.288845
56526	9.585604	-0.208311	2.442963	0.001037	0.024753	0.081485	1.000000	0.000026	0.000016	0.000015	-5.453214	-75.651648	-1.286827
56527	9.548623	-0.187779	2.408788	0.027135	0.041182	0.036743	1.000000	0.000033	0.000020	0.000014	-5.448433	-75.651256	-1.298563
56528	9.557162	-0.226528	2.394187	0.038951	0.001055	0.042325	1.000000	0.000029	0.000027	0.000022	-5.452794	-75.650267	-1.293817
56529	9.554268	-0.221003	2.418207	0.016317	0.009071	0.045317	1.000000	0.000044	0.000015	0.000006	-5.442130	-75.647732	-1.300922
56530	9.548307	-0.188122	2.410013	0.026439	0.040785	0.036747	1.000000	0.000016	0.000019	0.000014	-5.445004	-75.647737	-1.299268
56531	9.548171	-0.188173	2.410546	0.025748	0.040495	0.036750	1.000000	0.000033	0.000036	0.000003	-5.434031	-75.647655	-1.312315
56532	9.567868	-0.201511	2.416545	0.023486	0.027937	0.057624	1.000000	0.000025	0.000018	0.000032	-5.443688	-75.647605	-1.302554
56533	9.567780	-0.201752	2.416874	0.022417	0.027596	0.057628	1.000000	0.000027	0.000015	0.000006	-5.434185	-75.651963	-1.302811
56534	9.559023	-0.163350	2.432302	0.009798	0.067661	0.052049	1.000000	0.000022	0.000024	0.000022	-5.439688	-75.651374	-1.297689
56535	9.547738	-0.189027	2.412196	0.022928	0.039789	0.036759	1.000000	0.000016	0.000019	0.000014	-5.435951	-75.654451	-1.298927
56536	9.601268	-0.195643	2.420455	0.027468	0.033920	0.090813	1.000000	0.000016	0.000018	0.000006	-5.434962	-75.654679	-1.301196
56537	9.544739	-0.183545	2.436593	-0.001277	0.047834	0.039745	1.000000	0.000047	0.000027	0.000013	-5.427313	-75.657605	-1.307906
56538	9.544622	-0.183657	2.437043	-0.001684	0.047801	0.039745	1.000000	0.000016	0.000019	0.000014	-5.430144	-75.657632	-1.306294
56539	9.581135	-0.182636	2.416167	0.027429	0.045857	0.069949	1.000000	0.000038	0.000011	-0.000002	-5.417955	-75.658932	-1.320579
56540	9.547272	-0.189250	2.414021	0.020215	0.039136	0.036768	1.000000	0.000026	0.000016	0.000015	-5.419915	-75.659316	-1.318645
56541	9.561139	-0.169578	2.411337	0.029195	0.058027	0.049081	1.000000	0.000040	0.000023	0.000014	-5.413152	-75.654741	-1.325421
56542	9.563820	-0.175328	2.388197	0.051531	0.049627	0.046103	1.000000	0.000023	0.000023	0.000014	-5.414786	-75.654363	-1.324242
56543	9.555324	-0.158551	2.459380	-0.017570	0.074441	0.055040	1.000000	0.000033	0.000020	0.000014	-5.409462	-75.657052	-1.330494
56544	9.563618	-0.175498	2.388991	0.050247	0.049304	0.046111	1.000000	0.000034	0.000019	0.000006	-5.406394	-75.657243	-1.332886
56545	9.560746	-0.169996	2.412868	0.026823	0.057357	0.049091	1.000000	0.000029	0.000010	0.000024	-5.405733	-75.659727	-1.331692
56546	9.563702	-0.197440	2.445407	-0.006888	0.033952	0.060620	1.000000	0.000020	0.000028	0.000004	-5.403201	-75.658811	-1.335174
56547	9.560500	-0.170307	2.413819	0.025525	0.057038	0.049097	1.000000	0.000019	0.000030	0.000022	-5.402278	-75.660267	-1.338105
56548	9.549194	-0.195973	2.393823	0.039175	0.029421	0.033809	1.000000	0.000023	0.000023	0.000014	-5.403882	-75.659902	-1.336962
56549	9.566116	-0.203632	2.423292	0.013024	0.024970	0.057652	1.000000	0.000026	0.000016	0.000015	-5.399100	-75.666720	-1.338671
56550	9.566003	-0.203850	2.423719	0.012612	0.024935	0.057652	1.000000	0.000029	0.000027	0.000022	-5.403348	-75.665763	-1.334047
56551	9.532086	-0.210679	2.421753	0.005214	0.017915	0.024466	1.000000	0.000033	0.000020	0.000014	-5.396722	-75.666865	-1.335234
56552	9.545953	-0.191033	2.419092	0.013482	0.037086	0.036787	1.000000	0.000023	0.000023	0.000014	-5.398302	-75.666513	-1.334108
56553	9.568501	-0.209969	2.401305	0.033821	0.015845	0.054692	1.000000	0.000040	0.000006	0.000016	-5.392537	-75.668523	-1.332380
56554	9.568449	-0.210087	2.401505	0.033407	0.015807	0.054694	1.000000	0.000037	0.000013	0.000015	-5.393560	-75.669281	-1.330180
56555	9.568352	-0.210264	2.401876	0.033019	0.015508	0.054695	1.000000	0.000040	0.000024	0.000022	-5.390811	-75.668504	-1.331261
56556	9.568219	-0.210523	2.402383	0.032605	0.015469	0.054697	1.000000	0.000029	0.000027	0.000022	-5.395025	-75.667549	-1.326664
56557	9.531477	-0.211688	2.424058	0.002076	0.016863	0.024469	1.000000	0.000030	0.000026	0.000013	-5.388594	-75.670239	-1.328692
56558	9.567970	-0.210938	2.403336	0.031179	0.015118	0.054702	1.000000	0.000026	0.000017	0.000023	-5.394291	-75.670439	-1.322952
56559	9.551075	-0.225293	2.430392	-0.001287	0.004010	0.045334	1.000000	0.000023	0.000023	0.000014	-5.389697	-75.673740	-1.327334
56560	9.564981	-0.205696	2.427594	0.006977	0.023175	0.057662	1.000000	0.000023	0.000006	0.000016	-5.393045	-75.675302	-1.324351
56561	9.564881	-0.205853	2.427976	0.006543	0.022874	0.057663	1.000000	0.000026	0.000033	0.000012	-5.386915	-75.673896	-1.332718
56562	9.544934	-0.192856	2.422963	0.008039	0.035370	0.036800	1.000000	0.000016	0.000019	0.000014	-5.389620	-75.673952	-1.331235
56563	9.567441	-0.211766	2.405369	0.028754	0.014154	0.054711	1.000000	0.000020	0.000028	0.000004	-5.381156	-75.671273	-1.345359
56564	9.564524	-0.206152	2.429357	0.005603	0.022503	0.057665	1.000000	0.000037	0.000013	0.000015	-5.382130	-75.672040	-1.343212
56565	9.530649	-0.212721	2.427222	-0.001678	0.015540	0.024471	1.000000	0.000034	0.000018	-0.000003	-5.368922	-75.672997	-1.354410
56566	9.564362	-0.206069	2.429999	0.004676	0.022165	0.057666	1.000000	0.000026	0.000016	0.000015	-5.370747	-75.673407	-1.352611
56567	9.567078	-0.211897	2.406802	0.026856	0.013481	0.054717	1.000000	0.000023	0.000023	0.000014	-5.366217	-75.673845	-1.355388
56568	9.558349	-0.173542	2.422093	0.014312	0.053564	0.049139	1.000000	0.000029	0.000010	0.000024	-5.372183	-75.674803	-1.348956
56569	9.547098	-0.199206	2.401900	0.027894	0.025701	0.033858	1.000000	0.000033	0.000020	0.000014	-5.367346	-75.675121	-1.358822
56570	9.544145	-0.193538	2.426017	0.004746	0.034058	0.036807	1.000000	0.000033	0.000036	0.000003	-5.362329	-75.673442	-1.363244
56571	9.558001	-0.173880	2.423443	0.012643	0.052967	0.049144	1.000000	0.000026	0.000017	0.000023	-5.362013	-75.675829	-1.364782
56572	9.563716	-0.207040	2.432459	0.001609	0.021199	0.057669	1.000000	0.000023	0.000023	0.000014	-5.363493	-75.675492	-1.363760
56573	9.557790	-0.174253	2.424248	0.011608	0.052639	0.049147	1.000000	0.000033	0.000020	0.000014	-5.358192	-75.676696	-1.369789
56574	9.577489	-0.187541	2.430204	0.009260	0.040062	0.070008	1.000000	0.000023	0.000023	0.000014	-5.359662	-75.676360	-1.368778
56575	9.560392	-0.180287	2.401514	0.033511	0.043889	0.046208	1.000000	0.000033	0.000021	0.000023	-5.357918	-75.676147	-1.369738
56576	9.557487	-0.174761	2.425406	0.010366	0.052254	0.049151	1.000000	0.000020	0.000012	0.000007	-5.357038	-75.677167	-1.371483
56577	9.543411	-0.194539	2.428823	0.001596	0.032753	0.036812	1.000000	0.000023	0.000022	0.000005	-5.348468	-75.675041	-1.381473
56578	9.543310	-0.194694	2.429204	0.001182	0.032712	0.036812	1.000000	0.000026	0.000017	0.000023	-5.354069	-75.675247	-1.375837
56579	9.543209	-0.194807	2.429592	0.000856	0.032434	0.036813	1.000000	0.000041	0.000022	0.000005	-5.344102	-75.674544	-1.387868
56580	9.576899	-0.188288	2.432471	0.007196	0.039040	0.070014	1.000000	0.000033	0.000021	0.000023	-5.348517	-75.674354	-1.382650
56581	9.545810	-0.200888	2.406877	0.022431	0.023697	0.033877	1.000000	0.000022	0.000024	0.000022	-5.347931	-75.675671	-1.380389
56582	9.556860	-0.175671	2.427809	0.007984	0.051253	0.049158	1.000000	0.000023	0.000023	0.000014	-5.349362	-75.675333	-1.379417
56583	9.542738	-0.195566	2.431382	-0.001353	0.031796	0.036815	1.000000	0.000030	0.000026	0.000013	-5.344047	-75.675895	-1.387342
56584	9.579254	-0.194873	2.410698	0.027708	0.029981	0.067084	1.000000	0.000026	0.000017	0.000023	-5.349622	-75.676106	-1.381737
56585	9.562312	-0.209112	2.437797	-0.004866	0.018947	0.057673	1.000000	0.000047	0.000027	0.000013	-5.342054	-75.679556	-1.386774
56586	9.581860	-0.200924	2.387995	0.048871	0.021244	0.064158	1.000000	0.000026	0.000017	0.000023	-5.347621	-75.679774	-1.381179
56587	9.548102	-0.229366	2.441667	-0.014387	-0.000556	0.045324	1.000000	0.000026	0.000017	0.000023	-5.347558	-75.679884	-1.385668
56588	9.547865	-0.208090	2.386261	0.041310	0.014270	0.030958	1.000000	0.000023	0.000023	0.000014	-5.348962	-75.679555	-1.384729
56589	9.578725	-0.195924	2.412712	0.025167	0.029054	0.067093	1.000000	0.000033	0.000020	0.000014	-5.344130	-75.678052	-1.392489
56590	9.550642	-0.235575	2.419200	0.007342	-0.009344	0.042395	1.000000	0.000030	0.000009	0.000016	-5.346163	-75.679227	-1.390069
56591	9.541902	-0.197170	2.434530	-0.005207	0.030523	0.036818	1.000000	0.000026	0.000034	0.000021	-5.344303	-75.677958	-1.392904
56592	9.547456	-0.208739	2.387839	0.039826	0.013616	0.030965	1.000000	0.000020	0.000012	0.000007	-5.343351	-75.678983	-1.394732
56593	9.564328	-0.216431	2.417304	0.014703	0.009225	0.054747	1.000000	0.000032	0.000022	0.000031	-5.345923	-75.678648	-1.393446
56594	9.558452	-0.183569	2.408978	0.024965	0.040894	0.046246	1.000000	0.000028	0.000013	-0.000011	-5.336114	-75.679691	-1.403486
56595	9.538651	-0.191994	2.459674	-0.029525	0.038306	0.039743	1.000000	0.000008	0.000035	0.000030	-5.340022	-75.677334	-1.400073
56596	9.558226	-0.183985	2.409841	0.024214	0.040561	0.046250	1.000000	0.000040	0.000006	0.000016	-5.341171	-75.678866	-1.397340
56597	9.541319	-0.198161	2.436735	-0.008201	0.029572	0.036819	1.000000	0.000026	0.000016	0.000015	-5.337568	-75.682578	-1.402659
56598	9.541230	-0.198212	2.437078	-0.008617	0.029529	0.036819	1.000000	0.000034	0.000019	0.000006	-5.334233	-75.682816	-1.405329
56599	9.555147	-0.178406	2.434343	-0.000692	0.048442	0.049176	1.000000	0.000034	0.000019	0.000006	-5.325673	-75.685159	-1.410727
56600	9.557851	-0.184130	2.411317	0.021613	0.039955	0.046258	1.000000	0.000033	0.000037	0.000012	-5.324349	-75.683292	-1.411407
56601	9.540878	-0.198356	2.438446	-0.010413	0.028936	0.036819	1.000000	0.000029	0.000010	0.000024	-5.324250	-75.685266	-1.408349
56602	9.574550	-0.191982	2.441414	-0.004106	0.035519	0.070029	1.000000	0.000023	0.000040	0.000011	-5.323775	-75.683043	-1.409377
56603	9.543459	-0.204403	2.415886	0.011088	0.020205	0.033904	1.000000	0.000037	0.000013	0.000015	-5.319738	-75.686065	-1.418481
56604	9.577180	-0.198035	2.418667	0.017392	0.026784	0.067117	1.000000	0.000026	0.000017	0.000023	-5.325230	-75.686292	-1.412976
56605	9.554431	-0.179447	2.437076	-0.004454	0.047540	0.049179	1.000000	0.000029	0.000027	0.000022	-5.324338	-75.689446	-1.419734
56606	9.557140	-0.185367	2.414038	0.017846	0.039041	0.046269	1.000000	0.000030	0.000026	0.000013	-5.324487	-75.688740	-1.419296
56607	9.543012	-0.205331	2.417571	0.008444	0.019614	0.033908	1.000000	0.000026	0.000017	0.000023	-5.324687	-75.690504	-1.418273
56608	9.576714	-0.199050	2.420429	0.014739	0.026187	0.067123	1.000000	0.000033	0.000021	0.000023	-5.328986	-75.690345	-1.413196
56609	9.534191	-0.167184	2.433198	-0.004266	0.059429	0.028332	1.000000	0.000033	0.000020	0.000014	-5.323523	-75.689581	-1.412931
56610	9.562493	-0.219209	2.424302	0.005315	0.006677	0.054759	1.000000	0.000026	0.000017	0.000023	-5.328990	-75.689817	-1.407452
56611	9.559484	-0.192295	2.392392	0.038438	0.029630	0.043371	1.000000	0.000016	0.000019	0.000014	-5.325637	-75.689226	-1.406631
56612	9.567720	-0.161238	2.436717	0.001299	0.065658	0.061549	1.000000	0.000037	0.000013	0.000015	-5.326401	-75.690025	-1.404716
56613	9.556474	-0.186853	2.416558	0.015384	0.037764	0.046278	1.000000	0.000026	0.000016	0.000015	-5.323003	-75.687549	-1.414936
56614	9.556375	-0.187009	2.416939	0.014966	0.037716	0.046279	1.000000	0.000023	0.000023	0.000014	-5.324294	-75.687232	-1.414123
