// Start Time: Unknown
// Update Rate: 100.0Hz
// Filter Profile: human (46.1)
// Firmware Version: 4.4.0
PacketCounter	Acc_X	Acc_Y	Acc_Z	FreeAcc_X	FreeAcc_Y	FreeAcc_Z	OriInc_q0	OriInc_q1	OriInc_q2	OriInc_q3	Roll	Pitch	Yaw
47007	9.501457	0.121621	-2.532052	0.000000	0.000000	0.021120	1.000000	-0.000007	0.000029	0.000050	177.240073	-75.059775	173.556569
47008	9.515783	0.096453	-2.511504	-0.027680	-0.021917	0.029357	1.000000	-0.000018	0.000032	0.000043	177.240344	-75.061724	173.446160
47009	9.518117	0.128924	-2.501895	-0.031603	0.012386	0.029544	1.000000	-0.000005	0.000020	0.000042	177.257545	-75.064266	173.427812
47010	9.521959	0.082087	-2.530425	-0.012333	-0.037545	0.040024	1.000000	-0.000010	0.000029	0.000038	177.273239	-75.067530	173.409595
47011	9.515999	0.126063	-2.560865	0.025689	0.001541	0.042641	1.000000	-0.000031	0.000003	0.000049	177.290741	-75.068112	173.387772
47012	9.516200	0.093575	-2.510034	-0.027715	-0.021860	0.029357	1.000000	-0.000022	0.000018	0.000034	177.302586	-75.070369	173.372975
47013	9.508116	0.104464	-2.549310	0.014230	-0.017077	0.031787	1.000000	-0.000010	0.000042	0.000037	177.316396	-75.075397	173.357471
47014	9.500123	0.083417	-2.538125	0.002777	-0.035680	0.020934	1.000000	-0.000010	0.000001	0.000042	177.333584	-75.075787	173.338505
47015	9.544560	0.106639	-2.570187	0.025964	-0.015932	0.072399	1.000000	-0.000014	0.000015	0.000029	177.344032	-75.077654	173.326052
47016	9.480272	0.119502	-2.537522	0.013949	0.000508	0.002029	1.000000	0.000011	0.000041	0.000029	177.358160	-75.082373	173.312793
47017	9.516703	0.122424	-2.558423	0.025679	0.001629	0.042641	1.000000	-0.000001	0.000017	0.000026	177.368943	-75.084444	173.301574
47018	9.486448	0.105630	-2.556443	0.029287	-0.015116	0.012697	1.000000	0.000007	0.000027	0.000019	177.378627	-75.087383	173.292478
47019	9.516923	0.121454	-2.557651	0.025637	0.001681	0.042641	1.000000	-0.000016	0.000010	0.000038	177.392791	-75.088704	173.275934
47020	9.496999	0.158250	-2.557337	0.036731	0.037877	0.023736	1.000000	0.000009	0.000032	0.000011	177.398898	-75.091902	173.270792
47021	9.511302	0.133281	-2.536752	0.010166	0.017419	0.031973	1.000000	-0.000014	0.000032	0.000055	177.420169	-75.095834	173.247078
47022	9.513674	0.165720	-2.527102	0.006108	0.051725	0.032159	1.000000	-0.000016	0.000023	0.000036	177.433149	-75.097910	173.231744
47023	9.511583	0.131887	-2.535773	0.010030	0.017423	0.031973	1.000000	-0.000016	0.000023	0.000036	177.446408	-75.100776	173.216139
47024	9.513921	0.164543	-2.526249	0.005957	0.051649	0.032159	1.000000	-0.000022	0.000018	0.000034	177.456014	-75.102218	173.203501
47025	9.519945	0.151098	-2.545731	0.021336	0.035974	0.042827	1.000000	-0.000016	0.000023	0.000036	177.469284	-75.105082	173.187885
47026	9.534178	0.126053	-2.525356	-0.005409	0.015332	0.051064	1.000000	0.000016	0.000019	0.000035	177.481077	-75.106496	173.177304
47027	9.489808	0.133280	-2.543349	0.024808	0.018995	0.012884	1.000000	-0.000020	0.000027	0.000052	177.500844	-75.109815	173.154478
47028	9.512183	0.128310	-2.533703	0.009499	0.016940	0.031975	1.000000	-0.000014	0.000018	0.000056	177.517532	-75.111185	173.135121
47029	9.532307	0.090276	-2.533229	-0.001687	-0.019194	0.050877	1.000000	0.000005	0.000022	0.000028	177.529922	-75.113850	173.122908
47030	9.504266	0.106399	-2.522176	-0.002156	-0.001897	0.021120	1.000000	-0.000014	0.000018	0.000056	177.546898	-75.115216	173.103316
47031	9.532510	0.088637	-2.532524	-0.001887	-0.019406	0.050877	1.000000	-0.000010	0.000015	0.000040	177.562671	-75.117129	173.085778
47032	9.512605	0.125147	-2.532278	0.009105	0.016557	0.031976	1.000000	-0.000005	0.000020	0.000042	177.575598	-75.118630	173.071667
47033	9.518611	0.111633	-2.551809	0.024483	0.000881	0.042644	1.000000	-0.000001	0.000017	0.000026	177.586439	-75.120686	173.060393
47034	9.502356	0.102212	-2.580622	0.054742	-0.013149	0.034224	1.000000	0.000011	0.000014	0.000032	177.596496	-75.121208	173.050895
47035	9.518798	0.110414	-2.551167	0.024253	0.000694	0.042644	1.000000	-0.000016	0.000023	0.000036	177.609812	-75.124060	173.035235
47036	9.510794	0.089282	-2.539882	0.012499	-0.018088	0.031788	1.000000	-0.000014	0.000032	0.000055	177.626877	-75.126368	173.015664
47037	9.527260	0.129290	-2.560844	0.035411	0.019164	0.053503	1.000000	-0.000006	0.000025	0.000022	177.635266	-75.129378	173.006262
47038	9.519253	0.108287	-2.549559	0.023524	0.000385	0.042646	1.000000	0.000007	0.000030	0.000047	177.651129	-75.130700	172.990404
47039	9.483108	0.104065	-2.527586	0.011803	-0.000732	0.002032	1.000000	-0.000010	0.000029	0.000038	177.666029	-75.134155	172.973779
47040	9.525462	0.093952	-2.568365	0.038502	-0.015434	0.053316	1.000000	-0.000003	0.000025	0.000033	177.675416	-75.135010	172.963666
47041	9.507896	0.131821	-2.508203	-0.007629	0.031595	0.021309	1.000000	-0.000007	0.000029	0.000050	177.695590	-75.138518	172.942013
47042	9.499863	0.110844	-2.496971	-0.019565	0.012801	0.010449	1.000000	-0.000033	0.000022	0.000028	177.698186	-75.138437	172.935784
47043	9.505913	0.097409	-2.516325	-0.004188	-0.002877	0.021119	1.000000	-0.000005	0.000034	0.000041	177.714648	-75.142492	172.918233
47044	9.514250	0.117033	-2.526479	0.006893	0.015584	0.031979	1.000000	-0.000010	0.000029	0.000038	177.724836	-75.143917	172.906377
47045	9.520264	0.103604	-2.545977	0.022271	-0.000095	0.042649	1.000000	-0.000006	0.000012	0.000024	177.734118	-75.145375	172.896076
47046	9.528502	0.091375	-2.505828	-0.020139	-0.005051	0.040203	1.000000	-0.000014	0.000018	0.000056	177.751288	-75.145135	172.875711
47047	9.534537	0.109581	-2.575950	0.048632	0.002679	0.064182	1.000000	-0.000008	0.000020	0.000031	177.763398	-75.147576	172.862227
47048	9.520582	0.101513	-2.544872	0.021385	-0.000424	0.042651	1.000000	-0.000024	0.000027	0.000041	177.773377	-75.148517	172.848590
47049	9.534794	0.108366	-2.575051	0.048213	0.002523	0.064184	1.000000	-0.000008	0.000020	0.000031	177.785502	-75.150959	172.835086
47050	9.529004	0.120802	-2.554765	0.032266	0.018056	0.053515	1.000000	0.000002	0.000022	0.000017	177.787857	-75.150364	172.832175
47051	9.498718	0.104149	-2.552791	0.035929	0.001266	0.023569	1.000000	-0.000027	0.000027	0.000030	177.797207	-75.153544	172.819285
47052	9.523326	0.132784	-2.534077	0.016325	0.033560	0.042846	1.000000	0.000005	0.000008	0.000030	177.805066	-75.151512	172.811765
47053	9.523405	0.131986	-2.533822	0.016324	0.033559	0.042846	1.000000	-0.000014	0.000018	0.000056	177.827423	-75.153839	172.786937
47054	9.499037	0.102074	-2.551688	0.034552	0.000828	0.023574	1.000000	0.000005	0.000036	0.000027	177.830744	-75.153504	172.783627
47055	9.517786	0.143472	-2.512942	0.000129	0.048971	0.032175	1.000000	-0.000010	0.000015	0.000040	177.846576	-75.155354	172.766037
47056	9.507486	0.121211	-2.561530	0.045371	0.019154	0.034444	1.000000	-0.000014	0.000029	0.000027	177.847826	-75.155347	172.761524
47057	9.532136	0.149850	-2.542679	0.026320	0.051620	0.053717	1.000000	-0.000008	0.000020	0.000031	177.859984	-75.157742	172.747962
47058	9.518160	0.141689	-2.511624	-0.001029	0.048269	0.032178	1.000000	0.000001	0.000025	0.000045	177.868344	-75.158104	172.739813
47059	9.532372	0.148485	-2.541875	0.025786	0.051213	0.053720	1.000000	-0.000027	0.000013	0.000031	177.878576	-75.159703	172.726013
47060	9.518375	0.140370	-2.510886	-0.001642	0.047772	0.032181	1.000000	0.000001	0.000025	0.000045	177.884702	-75.159647	172.718630
47061	9.524425	0.126722	-2.530254	0.013723	0.032092	0.042854	1.000000	-0.000010	0.000029	0.000039	177.899683	-75.163046	172.701919
47062	9.516445	0.137647	-2.569652	0.055152	0.036282	0.045326	1.000000	-0.000008	0.000020	0.000031	177.896975	-75.162973	172.704257
47063	9.530558	0.112595	-2.549334	0.028576	0.015817	0.053531	1.000000	-0.000010	0.000015	0.000040	177.912806	-75.164829	172.686688
47064	9.508426	0.116083	-2.558277	0.042967	0.017075	0.034458	1.000000	-0.000001	0.000017	0.000026	177.908522	-75.163068	172.689681
47065	9.500325	0.095085	-2.547159	0.031516	-0.001549	0.023584	1.000000	-0.000012	0.000023	0.000047	177.927198	-75.165917	172.668916
47066	9.522735	0.122170	-2.588237	0.068815	0.019459	0.056014	1.000000	-0.000022	0.000005	0.000035	177.924642	-75.161426	172.667739
47067	9.530918	0.110037	-2.548101	0.026863	0.014675	0.053537	1.000000	-0.000016	0.000023	0.000036	177.938037	-75.164200	172.652004
47068	9.522865	0.089219	-2.536775	0.014677	-0.004486	0.042662	1.000000	-0.000006	0.000039	0.000021	177.931361	-75.164869	172.656970
47069	9.531219	0.108926	-2.547023	0.026111	0.014134	0.053540	1.000000	0.000001	0.000012	0.000046	177.951248	-75.166337	172.636516
47070	9.531331	0.108142	-2.546638	0.025552	0.013622	0.053542	1.000000	-0.000010	0.000029	0.000039	177.953140	-75.166947	172.633025
47071	9.503322	0.124457	-2.535624	0.025307	0.031147	0.023796	1.000000	-0.000003	0.000012	0.000035	177.967743	-75.168387	172.617625
47072	9.509327	0.110939	-2.555154	0.039774	0.014946	0.034475	1.000000	-0.000003	0.000025	0.000033	177.967190	-75.166590	172.617170
47073	9.501236	0.089987	-2.543945	0.028320	-0.003675	0.023594	1.000000	-0.000003	0.000025	0.000033	177.980922	-75.169559	172.602674
47074	9.509562	0.109570	-2.554337	0.038663	0.014400	0.034480	1.000000	-0.000012	0.000010	0.000049	177.984911	-75.164908	172.599175
47075	9.520059	0.130396	-2.505030	-0.007222	0.043913	0.032196	1.000000	-0.000005	0.000020	0.000042	178.002277	-75.167278	172.580704
47076	9.517860	0.096454	-2.513720	-0.003915	0.009110	0.031989	1.000000	-0.000010	0.000029	0.000039	178.004213	-75.167505	172.576778
47077	9.517967	0.095903	-2.513336	-0.003934	0.009106	0.031989	1.000000	-0.000006	0.000012	0.000024	178.013452	-75.168832	172.566543
47078	9.510022	0.106964	-2.552736	0.036947	0.013300	0.034488	1.000000	-0.000016	0.000037	0.000035	178.009433	-75.167495	172.573067
47079	9.526480	0.115055	-2.523064	0.006415	0.027124	0.042877	1.000000	-0.000018	0.000018	0.000045	178.026360	-75.169602	172.553530
47080	9.532497	0.101369	-2.542546	0.021434	0.010907	0.053555	1.000000	-0.000012	0.000023	0.000047	178.031987	-75.170898	172.548706
47081	9.520831	0.126376	-2.502301	-0.009325	0.042260	0.032201	1.000000	-0.000024	0.000027	0.000041	178.046426	-75.173973	172.531123
47082	9.496451	0.096663	-2.520099	0.009298	0.009248	0.012925	1.000000	-0.000003	0.000039	0.000032	178.045280	-75.176408	172.534781
47083	9.496798	0.127869	-2.570125	0.062645	0.032650	0.026320	1.000000	-0.000005	0.000020	0.000042	178.062448	-75.178742	172.516668
47084	9.541320	0.118957	-2.551225	0.031480	0.028525	0.064452	1.000000	-0.000022	0.000018	0.000034	178.062474	-75.176126	172.510124
47085	9.505088	0.115033	-2.529442	0.019791	0.027433	0.023819	1.000000	-0.000010	0.000029	0.000039	178.077250	-75.179383	172.493776
47086	9.519331	0.121875	-2.559738	0.045673	0.029841	0.045396	1.000000	-0.000001	0.000003	0.000028	178.074396	-75.174945	172.497102
47087	9.541638	0.117220	-2.550117	0.030495	0.027974	0.064457	1.000000	-0.000008	0.000034	0.000030	178.085443	-75.178723	172.484868
47088	9.519575	0.120708	-2.558887	0.044452	0.029240	0.045403	1.000000	-0.000018	0.000018	0.000045	178.085705	-75.174544	172.484338
47089	9.519705	0.119984	-2.558438	0.044403	0.029228	0.045403	1.000000	-0.000010	0.000029	0.000039	178.100376	-75.177689	172.468137
47090	9.503510	0.110583	-2.587223	0.073797	0.014865	0.037033	1.000000	-0.000016	0.000010	0.000038	178.099169	-75.172880	172.467389
47091	9.536223	0.127515	-2.528531	0.012718	0.042497	0.053787	1.000000	-0.000001	0.000030	0.000025	178.108852	-75.176133	172.457515
47092	9.514172	0.130994	-2.537273	0.027576	0.043787	0.034733	1.000000	0.000001	0.000025	0.000045	178.114211	-75.178005	172.454047
47093	9.514258	0.130283	-2.536985	0.027521	0.043772	0.034734	1.000000	-0.000022	0.000005	0.000035	178.126477	-75.178370	172.439032
47094	9.520300	0.116757	-2.556370	0.041116	0.027487	0.045423	1.000000	-0.000005	0.000047	0.000039	178.123381	-75.174104	172.442707
47095	9.514566	0.129036	-2.535893	0.025681	0.043155	0.034741	1.000000	-0.000014	0.000015	0.000029	178.133488	-75.175525	172.430844
47096	9.528586	0.103828	-2.515588	-0.001322	0.022102	0.042891	1.000000	-0.000015	0.000018	0.000056	178.141847	-75.175807	172.421041
47097	9.500561	0.119953	-2.504745	-0.001602	0.039634	0.013157	1.000000	-0.000005	0.000007	0.000044	178.159677	-75.176334	172.402288
47098	9.523086	0.146811	-2.545822	0.036466	0.060680	0.045655	1.000000	-0.000028	0.000016	0.000059	178.170050	-75.178042	172.386156
47099	9.520870	0.112901	-2.554419	0.040344	0.026364	0.045429	1.000000	-0.000001	0.000044	0.000023	178.178843	-75.182827	172.377253
47100	9.515111	0.125265	-2.534038	0.024381	0.041416	0.034752	1.000000	0.000005	0.000008	0.000030	178.176188	-75.180940	172.382902
47101	9.515223	0.124481	-2.533655	0.024320	0.041399	0.034752	1.000000	-0.000015	0.000032	0.000055	178.197309	-75.184447	172.359609
47102	9.512979	0.090404	-2.542335	0.027842	0.006598	0.034525	1.000000	-0.000005	0.000020	0.000042	178.202371	-75.184872	172.349864
47103	9.499183	0.114217	-2.561938	0.054358	0.027067	0.026386	1.000000	-0.000008	0.000020	0.000031	178.214120	-75.186963	172.336980
47104	9.521508	0.109436	-2.552191	0.038269	0.024610	0.045442	1.000000	-0.000010	0.000029	0.000039	178.213122	-75.185406	172.336798
47105	9.507471	0.101321	-2.521060	0.011424	0.021662	0.023847	1.000000	-0.000010	0.000029	0.000039	178.227705	-75.188451	172.320745
47106	9.530116	0.128378	-2.561785	0.048385	0.042603	0.056364	1.000000	0.000003	0.000030	0.000036	178.225704	-75.185361	172.324594
47107	9.507779	0.099833	-2.519955	0.010116	0.021039	0.023850	1.000000	-0.000020	0.000027	0.000053	178.245198	-75.188179	172.302313
47108	9.530371	0.127064	-2.560902	0.047596	0.041920	0.056371	1.000000	-0.000002	0.000008	0.000007	178.230754	-75.185604	172.321646
47109	9.522208	0.106124	-2.549720	0.036105	0.023285	0.045453	1.000000	-0.000003	0.000042	0.000060	178.254996	-75.190208	172.296502
47110	9.500172	0.109393	-2.558481	0.051153	0.024553	0.026410	1.000000	-0.000024	0.000013	0.000043	178.256520	-75.191748	172.295255
47111	9.522440	0.104514	-2.548921	0.035925	0.022654	0.045455	1.000000	-0.000010	0.000015	0.000040	178.271820	-75.193221	172.278541
47112	9.520162	0.070701	-2.557640	0.038621	-0.012230	0.045222	1.000000	-0.000008	0.000034	0.000030	178.266209	-75.190358	172.284158
47113	9.522715	0.103242	-2.547942	0.034591	0.022047	0.045461	1.000000	-0.000005	0.000020	0.000043	178.283063	-75.192368	172.266517
47114	9.528737	0.089770	-2.567391	0.049071	0.005852	0.056149	1.000000	-0.000006	0.000025	0.000022	178.277397	-75.190652	172.272070
47115	9.494894	0.119077	-2.536425	0.033431	0.039076	0.015741	1.000000	-0.000020	0.000027	0.000053	178.296768	-75.193424	172.250001
47116	9.525492	0.134454	-2.537490	0.028607	0.055463	0.045712	1.000000	0.000005	0.000008	0.000030	178.299184	-75.188532	172.241981
47117	9.523211	0.100634	-2.546195	0.032465	0.021143	0.045470	1.000000	-0.000010	0.000042	0.000037	178.312810	-75.192979	172.226981
47118	9.509124	0.092474	-2.515157	0.004175	0.017718	0.023861	1.000000	-0.000005	0.000006	0.000044	178.315318	-75.185389	172.223191
47119	9.523405	0.099137	-2.545525	0.030834	0.020627	0.045477	1.000000	-0.000010	0.000015	0.000040	178.330548	-75.186651	172.206517
47120	9.509645	0.122892	-2.565181	0.057156	0.040373	0.037374	1.000000	-0.000005	0.000020	0.000043	178.330129	-75.188304	172.217110
47121	9.517719	0.110596	-2.524909	0.015124	0.035529	0.034794	1.000000	0.000005	0.000022	0.000029	178.341905	-75.190362	172.205931
47122	9.509886	0.121628	-2.564348	0.056469	0.039764	0.037381	1.000000	-0.000016	0.000023	0.000036	178.340392	-75.190255	172.208385
47123	9.532176	0.116877	-2.554663	0.041197	0.037849	0.056416	1.000000	-0.000001	0.000017	0.000026	178.350511	-75.191709	172.198285
47124	9.532299	0.116288	-2.554229	0.040525	0.037242	0.056421	1.000000	-0.000010	0.000029	0.000039	178.349836	-75.191746	172.203032
47125	9.504326	0.132735	-2.543299	0.040235	0.054785	0.026702	1.000000	0.000005	0.000008	0.000030	178.362335	-75.192244	172.191169
47126	9.482239	0.136338	-2.552300	0.054443	0.056016	0.007678	1.000000	-0.000016	0.000023	0.000036	178.357767	-75.190013	172.200200
47127	9.532630	0.114513	-2.553074	0.039350	0.036514	0.056429	1.000000	-0.000014	0.000029	0.000027	178.366607	-75.192787	172.189924
47128	9.520987	0.139716	-2.512766	0.007405	0.067264	0.035061	1.000000	-0.000010	0.000029	0.000039	178.364237	-75.189585	172.192580
47129	9.527031	0.126176	-2.532133	0.022650	0.051551	0.045749	1.000000	-0.000003	0.000025	0.000034	178.377045	-75.191945	172.179559
47130	9.547290	0.119895	-2.582163	0.063283	0.038246	0.078077	1.000000	-0.000015	0.000018	0.000057	178.382365	-75.186087	172.171437
47131	9.505070	0.128738	-2.540723	0.036224	0.052854	0.026728	1.000000	0.000011	0.000014	0.000032	178.396279	-75.187025	172.158856
47132	9.533256	0.110960	-2.550894	0.036239	0.034433	0.056448	1.000000	-0.000010	0.000029	0.000039	178.391766	-75.190213	172.174101
47133	9.521649	0.136063	-2.510459	0.005388	0.065748	0.035072	1.000000	-0.000010	0.000042	0.000037	178.404888	-75.194476	172.159940
47134	9.525247	0.089304	-2.538989	0.024393	0.015406	0.045504	1.000000	-0.000010	0.000015	0.000040	178.411654	-75.194686	172.148029
47135	9.511536	0.113049	-2.558617	0.050839	0.035891	0.037426	1.000000	-0.000013	0.000023	0.000048	178.429356	-75.196856	172.128828
47136	9.527950	0.120951	-2.528928	0.018795	0.049104	0.045769	1.000000	-0.000010	0.000029	0.000039	178.427232	-75.191994	172.130748
47137	9.511846	0.111568	-2.557528	0.049209	0.035295	0.037437	1.000000	-0.000005	0.000034	0.000041	178.442818	-75.195257	172.114661
47138	9.542494	0.126828	-2.558477	0.045224	0.051149	0.067415	1.000000	-0.000013	0.000010	0.000049	178.442398	-75.196269	172.125729
47139	9.534262	0.105800	-2.547348	0.033721	0.032487	0.056464	1.000000	-0.000016	0.000037	0.000035	178.453853	-75.199920	172.112670
47140	9.497983	0.102059	-2.525579	0.020996	0.030779	0.015805	1.000000	-0.000022	0.000018	0.000034	178.446803	-75.195904	172.123698
47141	9.534571	0.104645	-2.546239	0.032415	0.031765	0.056470	1.000000	-0.000010	0.000042	0.000037	178.459810	-75.200113	172.109734
47142	9.504192	0.087896	-2.544338	0.035684	0.014388	0.026498	1.000000	-0.000010	0.000015	0.000040	178.458834	-75.199354	172.113942
47143	9.537295	0.136395	-2.536153	0.027736	0.065336	0.056742	1.000000	-0.000005	0.000020	0.000043	178.475009	-75.201052	172.097396
47144	9.506893	0.119716	-2.534335	0.030831	0.048052	0.026771	1.000000	-0.000014	0.000029	0.000027	178.469477	-75.200725	172.105548
47145	9.521331	0.126524	-2.564295	0.057430	0.050953	0.048421	1.000000	-0.000005	0.000034	0.000041	178.484832	-75.203968	172.089871
47146	9.507231	0.118385	-2.533133	0.028863	0.047493	0.026780	1.000000	0.000003	0.000030	0.000036	178.483105	-75.197292	172.089184
47147	9.521644	0.125052	-2.563204	0.055441	0.050393	0.048436	1.000000	-0.000005	0.000020	0.000043	178.499217	-75.198890	172.072707
47148	9.527133	0.079482	-2.532232	0.016043	0.010688	0.045528	1.000000	-0.000037	0.000011	0.000046	178.497685	-75.192184	172.069569
47149	9.513447	0.103401	-2.551911	0.042439	0.031183	0.037482	1.000000	0.000005	0.000022	0.000029	178.508798	-75.193892	172.059431
47150	9.511627	0.101481	-2.611107	0.098743	0.019671	0.050835	1.000000	-0.000013	0.000037	0.000046	178.507479	-75.193186	172.066642
47151	9.507892	0.114820	-2.530814	0.025925	0.046087	0.026795	1.000000	-0.000018	0.000032	0.000044	178.522335	-75.196039	172.049933
47152	9.513928	0.101403	-2.550197	0.041940	0.029913	0.037488	1.000000	-0.000012	0.000020	0.000020	178.520118	-75.202639	172.051684
47153	9.500267	0.125526	-2.569826	0.068341	0.050412	0.029448	1.000000	-0.000022	0.000018	0.000034	178.530498	-75.203991	172.039190
47154	9.522537	0.120698	-2.560094	0.051930	0.047639	0.048469	1.000000	-0.000016	0.000023	0.000036	178.520946	-75.200505	172.059963
47155	9.508366	0.112592	-2.529133	0.025049	0.044629	0.026804	1.000000	-0.000005	0.000020	0.000043	178.536859	-75.202052	172.043819
47156	9.508471	0.111932	-2.528766	0.023888	0.044272	0.026808	1.000000	-0.000022	0.000018	0.000034	178.537196	-75.197774	172.036409
47157	9.522928	0.118744	-2.558732	0.050438	0.047170	0.048479	1.000000	-0.000010	0.000042	0.000037	178.549930	-75.201792	172.022863
47158	9.539337	0.126680	-2.528970	0.018667	0.060143	0.056797	1.000000	-0.000011	0.000015	0.000040	178.544940	-75.197342	172.036304
47159	9.509412	0.141935	-2.577930	0.075613	0.066922	0.040463	1.000000	-0.000003	0.000012	0.000035	178.557887	-75.197827	172.023490
47160	9.503072	0.122187	-2.507128	0.005909	0.058631	0.016124	1.000000	-0.000010	0.000029	0.000039	178.559841	-75.195317	172.017373
47161	9.523425	0.116139	-2.557002	0.047807	0.045861	0.048498	1.000000	-0.000014	0.000029	0.000027	178.567968	-75.197684	172.008203
47162	9.517667	0.128495	-2.536624	0.031584	0.061024	0.037807	1.000000	-0.000016	0.000023	0.000036	178.567543	-75.195909	172.004110
47163	9.509377	0.107506	-2.525551	0.020058	0.042346	0.026825	1.000000	-0.000005	0.000020	0.000043	178.583378	-75.197324	171.988042
47164	9.526310	0.147192	-2.546499	0.041095	0.078823	0.048803	1.000000	-0.000015	0.000018	0.000057	178.583319	-75.190712	171.994354
47165	9.523948	0.113331	-2.555177	0.044928	0.044474	0.048518	1.000000	-0.000006	0.000039	0.000021	178.589274	-75.194153	171.988399
47166	9.526564	0.145991	-2.545616	0.039195	0.077829	0.048819	1.000000	-0.000016	-0.000004	0.000039	178.577717	-75.184867	172.014845
47167	9.507868	0.103536	-2.583827	0.073612	0.029768	0.040237	1.000000	-0.000010	0.000028	0.000039	178.590891	-75.187112	172.000991
47168	9.518331	0.124356	-2.534339	0.027327	0.058255	0.037836	1.000000	-0.000003	0.000012	0.000035	178.584482	-75.187464	172.021346
47169	9.518442	0.123687	-2.533955	0.027123	0.058186	0.037837	1.000000	-0.000010	0.000028	0.000039	178.597568	-75.189727	172.007656
47170	9.524510	0.110070	-2.553226	0.042235	0.041806	0.048541	1.000000	0.000009	0.000035	0.000038	178.597617	-75.193017	172.013545
47171	9.518771	0.122264	-2.532785	0.026658	0.057393	0.037843	1.000000	-0.000016	0.000023	0.000036	178.609035	-75.194702	172.000952
47172	9.518912	0.121616	-2.532288	0.024070	0.056708	0.037854	1.000000	-0.000010	0.000028	0.000039	178.600560	-75.183632	172.011795
47173	9.502814	0.112249	-2.561006	0.054442	0.042944	0.029570	1.000000	0.000001	0.000025	0.000045	178.617532	-75.185428	171.995474
47174	9.525065	0.107286	-2.551272	0.038188	0.040533	0.048563	1.000000	-0.000014	0.000015	0.000029	178.615048	-75.181593	171.992952
47175	9.503023	0.110949	-2.560289	0.053184	0.042428	0.029579	1.000000	-0.000005	0.000020	0.000043	178.630399	-75.182766	171.977619
47176	9.541515	0.114455	-2.521322	0.006053	0.053609	0.056850	1.000000	-0.000005	0.000020	0.000043	178.631677	-75.178024	171.975045
47177	9.519509	0.118018	-2.530211	0.021044	0.055505	0.037868	1.000000	-0.000010	0.000028	0.000039	178.644596	-75.180111	171.961566
47178	9.511817	0.128937	-2.569725	0.060703	0.059721	0.040613	1.000000	-0.000013	0.000010	0.000049	178.640622	-75.168975	171.972814
47179	9.525605	0.103609	-2.549406	0.033917	0.039046	0.048585	1.000000	-0.000016	0.000023	0.000036	178.651813	-75.170374	171.960482
47180	9.517273	0.082881	-2.538359	0.022196	0.019963	0.037578	1.000000	0.000009	0.000019	0.000012	178.646466	-75.170529	171.965332
47181	9.556400	0.118497	-2.549942	0.029326	0.055173	0.078577	1.000000	-0.000015	0.000018	0.000057	178.666654	-75.171393	171.943839
47182	9.509730	0.093149	-2.577362	0.062049	0.024191	0.040332	1.000000	-0.000016	0.000037	0.000035	178.659113	-75.165789	171.952265
47183	9.511775	0.093650	-2.517058	0.004512	0.034823	0.026874	1.000000	-0.000005	0.000020	0.000043	178.674279	-75.166761	171.937157
47184	9.548385	0.095993	-2.537757	0.014786	0.035024	0.067578	1.000000	-0.000011	0.000028	0.000039	178.667912	-75.164120	171.953680
47185	9.506139	0.105068	-2.496253	-0.012283	0.049605	0.016167	1.000000	-0.000005	0.000020	0.000043	178.682991	-75.165061	171.938709
47186	9.512137	0.091517	-2.515766	0.001289	0.033213	0.026881	1.000000	-0.000022	0.000018	0.000034	178.672569	-75.157418	171.953028
47187	9.498604	0.115468	-2.535273	0.027541	0.053750	0.018934	1.000000	-0.000005	0.000034	0.000041	178.686784	-75.159843	171.938996
47188	9.563229	0.100650	-2.566545	0.038111	0.036682	0.089324	1.000000	0.000005	0.000008	0.000030	178.687742	-75.155563	171.935530
47189	9.504715	0.101261	-2.554403	0.041655	0.037599	0.029654	1.000000	-0.000011	0.000028	0.000039	178.700332	-75.157370	171.922492
47190	9.493056	0.126422	-2.514183	0.010380	0.068787	0.008228	1.000000	-0.000008	0.000020	0.000031	178.708441	-75.156633	171.895340
47191	9.527069	0.095685	-2.544239	0.025582	0.035414	0.048624	1.000000	-0.000011	0.000015	0.000040	178.721876	-75.156878	171.881354
47192	9.507606	0.132458	-2.544063	0.036484	0.071046	0.029974	1.000000	0.000003	0.000017	0.000038	178.723038	-75.157916	171.885269
47193	9.521351	0.107131	-2.523757	0.009666	0.050355	0.037913	1.000000	-0.000011	0.000015	0.000040	178.736442	-75.158175	171.871339
47194	9.521456	0.106468	-2.523390	0.009226	0.049674	0.037917	1.000000	-0.000016	0.000023	0.000036	178.733335	-75.159016	171.879990
47195	9.544372	0.133562	-2.564285	0.046885	0.071198	0.070691	1.000000	-0.000001	0.000003	0.000028	178.742515	-75.157908	171.871625
47196	9.507969	0.129905	-2.542837	0.033316	0.069704	0.029995	1.000000	-0.000011	0.000028	0.000039	178.739332	-75.149173	171.876007
47197	9.505573	0.096069	-2.551408	0.037107	0.035342	0.029681	1.000000	-0.000010	0.000042	0.000037	178.751125	-75.152462	171.863786
47198	9.530437	0.124095	-2.532248	0.016512	0.066749	0.048964	1.000000	-0.000007	0.000015	0.000052	178.748473	-75.147854	171.878524
47199	9.530545	0.123198	-2.531882	0.016210	0.066665	0.048965	1.000000	-0.000013	0.000023	0.000048	178.764584	-75.148984	171.861631
47200	9.514425	0.113870	-2.560767	0.046107	0.052211	0.040735	1.000000	-0.000011	0.000015	0.000040	178.759983	-75.147335	171.877178
47201	9.522297	0.101524	-2.520419	0.003906	0.047134	0.037933	1.000000	-0.000008	0.000034	0.000030	178.768692	-75.149598	171.868505
47202	9.508809	0.125603	-2.539912	0.028511	0.067327	0.030027	1.000000	-0.000008	0.000020	0.000031	178.764909	-75.141197	171.868459
47203	9.514796	0.111971	-2.559472	0.043566	0.051594	0.040749	1.000000	-0.000021	0.000013	0.000054	178.782944	-75.141084	171.848680
47204	9.523430	0.131595	-2.569604	0.052627	0.069352	0.051811	1.000000	-0.000006	0.000039	0.000021	178.763883	-75.133648	171.879479
47205	9.500711	0.103345	-2.527893	0.014408	0.047639	0.018994	1.000000	-0.000026	0.000021	0.000050	178.779398	-75.134416	171.861700
47206	9.539949	0.138806	-2.539319	-0.005340	0.023759	0.060379	1.000000	-0.000003	0.000025	0.000034	177.380990	-75.025988	173.320637
47207	9.515365	0.109255	-2.557472	0.013602	-0.008945	0.040967	1.000000	0.000001	0.000025	0.000045	177.385244	-75.026317	173.317410
47208	9.509632	0.121335	-2.537035	-0.002349	0.006153	0.030296	1.000000	-0.000005	0.000034	0.000041	177.387146	-75.027434	173.321122
47209	9.537783	0.103427	-2.547018	-0.002841	-0.012276	0.059858	1.000000	-0.000008	0.000020	0.000031	177.384576	-75.027111	173.323877
47210	9.560040	0.098407	-2.537121	-0.018754	-0.015005	0.078746	1.000000	-0.000005	0.000034	0.000041	177.386781	-75.028109	173.321914
47211	9.493805	0.110725	-2.564924	0.026644	-0.009107	0.022080	1.000000	-0.000032	0.000003	0.000050	177.389650	-75.025900	173.316264
47212	9.540752	0.134493	-2.536531	-0.008732	0.020280	0.060384	1.000000	0.000005	0.000035	0.000027	177.387378	-75.027281	173.314164
47213	9.507698	0.084760	-2.543879	-0.000961	-0.031001	0.029765	1.000000	-0.000026	0.000035	0.000049	177.390048	-75.028767	173.309409
47214	9.494265	0.108684	-2.563311	0.024925	-0.010825	0.022083	1.000000	-0.000003	0.000025	0.000034	177.389063	-75.028640	173.319331
47215	9.538604	0.099351	-2.544103	-0.006266	-0.015755	0.059851	1.000000	-0.000008	0.000020	0.000031	177.386496	-75.028317	173.322081
47216	9.510713	0.115943	-2.533231	-0.006925	0.001521	0.030296	1.000000	-0.000005	0.000020	0.000043	177.389419	-75.027717	173.324990
47217	9.508229	0.082129	-2.541980	-0.003274	-0.033334	0.029757	1.000000	-0.000008	0.000034	0.000030	177.385967	-75.028941	173.328665
47218	9.519544	0.135063	-2.542742	0.003108	0.018945	0.041506	1.000000	-0.000014	0.000029	0.000028	177.381179	-75.029346	173.340241
47219	9.517046	0.101286	-2.551540	0.006765	-0.015910	0.040966	1.000000	-0.000005	0.000020	0.000043	177.383869	-75.029075	173.337959
47220	9.525643	0.120875	-2.561917	0.017389	0.002114	0.052180	1.000000	-0.000022	0.000005	0.000036	177.382411	-75.027036	173.338824
47221	9.517174	0.099971	-2.551113	0.005672	-0.017065	0.040964	1.000000	-0.000011	0.000015	0.000040	177.383529	-75.026167	173.337500
47222	9.517248	0.099403	-2.550859	0.005118	-0.017619	0.040964	1.000000	-0.000006	0.000012	0.000024	177.378975	-75.024800	173.339407
47223	9.525867	0.119062	-2.561170	0.015732	0.000379	0.052183	1.000000	-0.000005	0.000020	0.000043	177.381668	-75.024528	173.337122
47224	9.511592	0.111024	-2.530151	-0.011317	-0.003089	0.030291	1.000000	0.000005	0.000035	0.000027	177.379435	-75.026170	173.337762
47225	9.511749	0.110330	-2.529592	-0.011867	-0.003679	0.030291	1.000000	-0.000013	0.000023	0.000048	177.383350	-75.026303	173.333292
47226	9.539860	0.092347	-2.539656	-0.012381	-0.022112	0.059833	1.000000	-0.000008	0.000020	0.000031	177.381328	-75.025912	173.337004
47227	9.526381	0.116403	-2.559379	0.013560	-0.001924	0.052186	1.000000	-0.000016	0.000010	0.000038	177.380874	-75.024444	173.336636
47228	9.489946	0.112910	-2.537955	0.001770	-0.003204	0.011417	1.000000	-0.000006	0.000025	0.000022	177.375095	-75.024433	173.347400
47229	9.520688	0.128135	-2.538815	-0.002957	0.012597	0.041517	1.000000	0.000001	0.000012	0.000047	177.380250	-75.023212	173.343224
47230	9.526713	0.114505	-2.558229	0.011794	-0.003644	0.052187	1.000000	-0.000016	0.000037	0.000035	177.378385	-75.024390	173.348860
47231	9.512416	0.106488	-2.527247	-0.015287	-0.007147	0.030284	1.000000	-0.000011	0.000015	0.000040	177.379508	-75.023521	173.347529
47232	9.526939	0.113141	-2.557447	0.010699	-0.004796	0.052188	1.000000	-0.000011	0.000015	0.000040	177.381298	-75.022676	173.345404
47233	9.490486	0.109580	-2.536080	-0.001041	-0.006093	0.011415	1.000000	-0.000014	0.000015	0.000029	177.377166	-75.021754	173.349101
47234	9.527109	0.111830	-2.556874	0.009613	-0.005942	0.052189	1.000000	-0.000007	0.000015	0.000052	177.384384	-75.021013	173.337875
47235	9.499282	0.128434	-2.545841	0.009025	0.011351	0.022655	1.000000	-0.000001	0.000044	0.000023	177.378841	-75.023380	173.344642
47236	9.513898	0.135077	-2.575732	0.034981	0.013701	0.044568	1.000000	-0.000015	0.000018	0.000057	177.387073	-75.022844	173.334333
47237	9.499547	0.126854	-2.544934	0.007907	0.010203	0.022657	1.000000	-0.000011	0.000015	0.000040	177.388199	-75.021974	173.332998
47238	9.521771	0.121822	-2.535062	-0.008014	0.007428	0.041519	1.000000	-0.000008	0.000034	0.000030	177.385264	-75.023016	173.335774
47239	9.527818	0.108350	-2.554379	0.006811	-0.008840	0.052189	1.000000	-0.000003	0.000025	0.000034	177.384287	-75.023289	173.337544
47240	9.513477	0.100307	-2.523502	-0.020231	-0.012318	0.030270	1.000000	0.000003	0.000017	0.000038	177.386285	-75.022759	173.336287
47241	9.538357	0.128359	-2.504416	-0.040362	0.019136	0.049707	1.000000	-0.000003	0.000025	0.000034	177.385309	-75.023033	173.338056
47242	9.528179	0.106367	-2.553117	0.005201	-0.010564	0.052188	1.000000	-0.000016	0.000023	0.000036	177.384648	-75.023189	173.332966
47243	9.514832	0.130426	-2.572521	0.031138	0.009646	0.044586	1.000000	0.000011	0.000041	0.000030	177.383147	-75.025203	173.336878
47244	9.516689	0.130947	-2.512323	-0.026688	0.019630	0.030848	1.000000	-0.000022	0.000005	0.000036	177.381466	-75.022913	173.338683
47245	9.528539	0.104373	-2.551855	0.003511	-0.012317	0.052187	1.000000	-0.000015	0.000018	0.000057	177.389075	-75.022498	173.330125
47246	9.522776	0.116537	-2.531531	-0.012385	0.002810	0.041517	1.000000	-0.000014	0.000029	0.000028	177.384952	-75.023268	173.322231
47247	9.506691	0.107399	-2.560442	0.017788	-0.011240	0.033334	1.000000	0.000001	0.000011	0.000047	177.390118	-75.022045	173.318039
47248	9.506780	0.106677	-2.560142	0.017250	-0.011814	0.033334	1.000000	-0.000008	0.000020	0.000031	177.387916	-75.021777	173.322651
47249	9.517183	0.127401	-2.510636	-0.029400	0.016732	0.030846	1.000000	-0.000011	0.000015	0.000040	177.389048	-75.020906	173.321306
47250	9.478031	0.090689	-2.498516	-0.036848	-0.018767	-0.010536	1.000000	0.000005	0.000022	0.000029	177.387316	-75.020839	173.322796
47251	9.529236	0.100331	-2.549414	0.000256	-0.015792	0.052183	1.000000	-0.000032	0.000044	0.000045	177.387557	-75.023273	173.319887
47252	9.532075	0.132826	-2.539633	-0.004573	0.017902	0.052782	1.000000	0.000005	0.000008	0.000030	177.386711	-75.021362	173.320961
47253	9.501506	0.116371	-2.538112	-0.000896	0.000966	0.022665	1.000000	-0.000011	0.000028	0.000039	177.386966	-75.022039	173.320534
47254	9.535483	0.085440	-2.568029	0.013966	-0.033203	0.062848	1.000000	-0.000011	0.000015	0.000040	177.388608	-75.021329	173.315631
47255	9.523810	0.110566	-2.527909	-0.017327	-0.002428	0.041510	1.000000	-0.000016	0.000023	0.000037	177.387286	-75.021408	173.316167
47256	9.507738	0.101414	-2.556795	0.012859	-0.016448	0.033334	1.000000	-0.000005	0.000020	0.000043	177.390370	-75.021143	173.315999
47257	9.524037	0.109192	-2.527112	-0.018425	-0.003594	0.041507	1.000000	-0.000009	0.000020	0.000031	177.387826	-75.020818	173.318718
47258	9.538648	0.115951	-2.557145	0.007521	-0.001266	0.063454	1.000000	-0.000003	0.000025	0.000034	177.387448	-75.021082	173.316669
47259	9.502247	0.112441	-2.535514	-0.004161	-0.002507	0.022664	1.000000	-0.000016	0.000037	0.000035	177.385251	-75.022709	173.318121
47260	9.530333	0.094502	-2.545532	-0.004679	-0.021002	0.052172	1.000000	0.000005	0.000008	0.000030	177.384468	-75.021173	173.319108
47261	9.539039	0.114104	-2.555768	0.005891	-0.003019	0.063455	1.000000	-0.000011	0.000028	0.000039	177.384728	-75.021849	173.318675
47262	9.517110	0.117899	-2.564685	0.020704	-0.001343	0.044618	1.000000	-0.000003	0.000025	0.000034	177.384202	-75.022093	173.322173
47263	9.511354	0.130174	-2.544346	0.004782	0.013751	0.033951	1.000000	-0.000016	0.000023	0.000037	177.382884	-75.022172	173.322703
47264	9.474913	0.126663	-2.522855	-0.006922	0.012534	-0.006842	1.000000	-0.000003	0.000025	0.000034	177.382134	-75.022237	173.330686
47265	9.525055	0.104177	-2.523484	-0.022839	-0.008243	0.041495	1.000000	-0.000011	0.000015	0.000040	177.383274	-75.021366	173.329329
47266	9.533780	0.123736	-2.533683	-0.012302	0.009756	0.052787	1.000000	-0.000037	0.000025	0.000044	177.383124	-75.021509	173.329786
47267	9.517715	0.114494	-2.562595	0.017891	-0.004258	0.044622	1.000000	0.000006	0.000017	0.000049	177.389882	-75.020881	173.324610
47268	9.517813	0.113742	-2.562262	0.017358	-0.004829	0.044623	1.000000	-0.000022	0.000018	0.000034	177.387482	-75.020453	173.323163
47269	9.517931	0.113275	-2.561845	0.016807	-0.005418	0.044624	1.000000	-0.000006	0.000025	0.000023	177.381266	-75.020673	173.329944
47270	9.512187	0.125630	-2.541456	0.000856	0.009694	0.033957	1.000000	-0.000011	0.000028	0.000039	177.381899	-75.021174	173.330073
47271	9.502029	0.103571	-2.590185	0.046426	-0.019996	0.036464	1.000000	-0.000005	0.000020	0.000043	177.384623	-75.020899	173.327744
47272	9.526961	0.131528	-2.571018	0.026249	0.011426	0.055929	1.000000	-0.000003	0.000025	0.000034	177.384195	-75.021262	173.325208
47273	9.512564	0.123482	-2.540150	-0.000778	0.007946	0.033958	1.000000	-0.000018	0.000018	0.000046	177.386562	-75.020794	173.321658
47274	9.527248	0.130110	-2.570026	0.025077	0.010262	0.055934	1.000000	-0.000011	0.000042	0.000038	177.386092	-75.022624	173.328183
47275	9.520418	0.110276	-2.499154	-0.043798	0.001616	0.030806	1.000000	0.000010	0.000013	0.000033	177.386372	-75.021540	173.330223
47276	9.512989	0.121651	-2.538648	-0.002510	0.006209	0.033959	1.000000	-0.000018	0.000029	0.000016	177.376499	-75.022028	173.337467
47277	9.527667	0.128541	-2.568551	0.023408	0.008509	0.055939	1.000000	-0.000011	0.000028	0.000039	177.376771	-75.022703	173.337018
47278	9.504672	0.100225	-2.526922	-0.014699	-0.013528	0.022645	1.000000	0.000008	0.000035	0.000039	177.379329	-75.024203	173.334403
47279	9.513435	0.119754	-2.537065	-0.004154	0.004454	0.033959	1.000000	-0.000016	0.000010	0.000038	177.378896	-75.022734	173.334002
47280	9.519417	0.106231	-2.556622	0.010701	-0.011801	0.044627	1.000000	-0.000016	0.000023	0.000037	177.378128	-75.023002	173.326122
47281	9.513656	0.118398	-2.536300	-0.005220	0.003295	0.033959	1.000000	-0.000013	0.000023	0.000048	177.382083	-75.023131	173.321597
47282	9.513763	0.117617	-2.535935	-0.005776	0.002723	0.033959	1.000000	-0.000011	0.000015	0.000040	177.383630	-75.022215	173.316343
47283	9.497726	0.108475	-2.564799	0.024430	-0.011272	0.025810	1.000000	-0.000005	0.000034	0.000041	177.385490	-75.023486	173.314919
47284	9.514025	0.116374	-2.535008	-0.006899	0.001558	0.033959	1.000000	-0.000018	0.000015	0.000018	177.376380	-75.022376	173.323438
47285	9.533443	0.078131	-2.534418	-0.018562	-0.035570	0.052114	1.000000	-0.000015	0.000032	0.000055	177.383145	-75.023505	173.315753
47286	9.522930	0.135061	-2.544715	0.003100	0.018965	0.045286	1.000000	0.000000	0.000011	0.000047	177.388791	-75.022324	173.306491
47287	9.508497	0.126933	-2.513893	-0.023909	0.015496	0.023291	1.000000	-0.000011	0.000028	0.000039	177.389072	-75.022998	173.306031
47288	9.520389	0.100554	-2.553229	0.006234	-0.016452	0.044624	1.000000	-0.000014	0.000015	0.000029	177.385236	-75.021827	173.309208
47289	9.520520	0.099932	-2.552766	0.005684	-0.017042	0.044623	1.000000	-0.000005	0.000034	0.000041	177.387102	-75.023098	173.307777
47290	9.507289	0.123975	-2.572227	0.031595	0.003239	0.037148	1.000000	-0.000003	0.000025	0.000034	177.386396	-75.023252	173.311327
47291	9.492868	0.116019	-2.541326	0.004593	-0.000228	0.015147	1.000000	-0.000016	0.000023	0.000037	177.385096	-75.023330	173.311833
47292	9.534303	0.073294	-2.531324	-0.022478	-0.039645	0.052090	1.000000	-0.000022	0.000018	0.000034	177.382519	-75.022729	173.312399
47293	9.551757	0.113290	-2.552029	-0.000866	-0.003106	0.074766	1.000000	-0.000006	0.000025	0.000023	177.376315	-75.022948	173.319164
47294	9.501901	0.134707	-2.550608	0.013999	0.016601	0.026489	1.000000	-0.000016	0.000023	0.000037	177.375302	-75.022950	173.321188
47295	9.521292	0.096451	-2.550017	0.002338	-0.020540	0.044618	1.000000	-0.000016	0.000023	0.000037	177.374004	-75.023028	173.321691
47296	9.524185	0.128914	-2.540332	-0.002546	0.013138	0.045296	1.000000	-0.000011	0.000015	0.000040	177.375411	-75.021906	173.323679
47297	9.530158	0.115302	-2.559923	0.012271	-0.003139	0.055963	1.000000	-0.000011	0.000015	0.000040	177.376570	-75.021032	173.322295
47298	9.499548	0.098782	-2.558433	0.016047	-0.019976	0.025813	1.000000	-0.000021	0.000027	0.000053	177.382014	-75.021536	173.317892
47299	9.530402	0.113877	-2.559077	0.011164	-0.004308	0.055964	1.000000	-0.000012	0.000020	0.000020	177.374231	-75.021159	173.325622
47300	9.496714	0.143689	-2.528324	-0.004720	0.028803	0.015832	1.000000	-0.000011	0.000028	0.000039	177.374934	-75.021822	173.322004
47301	9.516149	0.105362	-2.527509	-0.016376	-0.008348	0.033944	1.000000	-0.000011	0.000042	0.000038	177.374355	-75.024042	173.322445
47302	9.502935	0.129577	-2.547017	0.009533	0.011955	0.026501	1.000000	-0.000006	0.000012	0.000024	177.369368	-75.022618	173.326217
47303	9.494338	0.108850	-2.536148	-0.002085	-0.007197	0.015145	1.000000	0.000005	0.000022	0.000029	177.367211	-75.022481	173.330119
47304	9.514904	0.102641	-2.586102	0.039156	-0.020584	0.047835	1.000000	-0.000011	0.000015	0.000040	177.368659	-75.021532	173.326622
47305	9.531169	0.110333	-2.556375	0.007828	-0.007803	0.055965	1.000000	-0.000003	0.000025	0.000034	177.367728	-75.021801	173.328334
47306	9.525431	0.122561	-2.535973	-0.008119	0.007303	0.045299	1.000000	0.000003	0.000030	0.000036	177.368524	-75.022503	173.335642
47307	9.497624	0.139175	-2.525156	-0.008629	0.024722	0.015841	1.000000	-0.000021	0.000013	0.000055	177.374592	-75.021488	173.327989
47308	9.531579	0.108191	-2.554939	0.006144	-0.009554	0.055964	1.000000	-0.000006	0.000039	0.000021	177.367736	-75.023226	173.337717
47309	9.509674	0.112333	-2.563931	0.021005	-0.007819	0.037174	1.000000	-0.000006	0.000012	0.000024	177.362411	-75.021897	173.343557
47310	9.509798	0.111623	-2.563502	0.020432	-0.008394	0.037175	1.000000	-0.000002	0.000033	0.000053	177.369781	-75.023071	173.339299
47311	9.526124	0.119224	-2.533528	-0.010905	0.004372	0.045298	1.000000	-0.000022	0.000032	0.000033	177.366037	-75.024099	173.341674
47312	9.489642	0.115762	-2.512057	-0.022483	0.003243	0.004472	1.000000	-0.000013	0.000023	0.000048	177.370164	-75.024101	173.341893
47313	9.546876	0.112268	-2.582880	0.029764	-0.009607	0.078002	1.000000	-0.000009	0.000020	0.000032	177.367651	-75.023773	173.344570
47314	9.541088	0.124411	-2.562671	0.013816	0.005501	0.067338	1.000000	-0.000007	0.000015	0.000052	177.374349	-75.022804	173.338412
47315	9.520733	0.129360	-2.511914	-0.028526	0.017715	0.034630	1.000000	-0.000012	0.000034	0.000019	177.365703	-75.023973	173.347046
47316	9.504727	0.120363	-2.540774	0.001692	0.003789	0.026512	1.000000	-0.000015	0.000018	0.000057	177.373506	-75.023418	173.342270
47317	9.535554	0.135227	-2.541583	-0.003237	0.019420	0.056676	1.000000	0.000005	0.000008	0.000030	177.372226	-75.021733	173.345249
47318	9.532845	0.101511	-2.550486	0.000544	-0.015410	0.055959	1.000000	-0.000016	0.000037	0.000035	177.370243	-75.023355	173.347554
47319	9.519698	0.125572	-2.569933	0.026454	0.004909	0.048563	1.000000	-0.000013	0.000023	0.000048	177.374227	-75.023481	173.342990
47320	9.505201	0.117460	-2.539139	-0.000518	0.001451	0.026513	1.000000	0.000003	0.000017	0.000038	177.375992	-75.022731	173.341509
47321	9.496589	0.096558	-2.528204	-0.012105	-0.017700	0.015125	1.000000	-0.000003	0.000025	0.000034	177.375072	-75.022998	173.343207
47322	9.533356	0.098702	-2.548684	-0.001692	-0.017752	0.055955	1.000000	-0.000030	0.000022	0.000039	177.373618	-75.022752	173.343885
47323	9.496809	0.095310	-2.527425	-0.013224	-0.018868	0.015121	1.000000	0.000010	0.000013	0.000033	177.373929	-75.021661	173.345886
47324	9.505677	0.115006	-2.537468	-0.002760	-0.000883	0.026513	1.000000	-0.000006	0.000039	0.000021	177.367110	-75.023302	173.354846
47325	9.533777	0.096863	-2.547181	-0.003365	-0.019513	0.055951	1.000000	-0.000015	0.000032	0.000056	177.373911	-75.024429	173.347111
47326	9.520615	0.120919	-2.566760	0.022543	0.000830	0.048574	1.000000	-0.000014	0.000015	0.000029	177.370146	-75.023503	173.348344
47327	9.528111	0.108509	-2.526525	-0.019839	-0.004997	0.045284	1.000000	-0.000009	0.000020	0.000032	177.367641	-75.023174	173.351011
47328	9.514927	0.132655	-2.546201	0.006074	0.015350	0.037912	1.000000	0.000003	0.000017	0.000038	177.369555	-75.022505	173.346039
47329	9.526790	0.106131	-2.585650	0.036266	-0.016610	0.059242	1.000000	-0.000011	0.000015	0.000041	177.370731	-75.021630	173.344630
47330	9.537182	0.126583	-2.535913	-0.010477	0.011818	0.056683	1.000000	-0.000013	0.000037	0.000047	177.374082	-75.023210	173.342475
47331	9.529903	0.137803	-2.575431	0.030801	0.016467	0.059985	1.000000	-0.000001	0.000003	0.000028	177.371219	-75.020928	173.346420
47332	9.506624	0.109519	-2.534162	-0.007172	-0.005543	0.026509	1.000000	-0.000015	0.000032	0.000056	177.378307	-75.022032	173.335704
47333	9.490632	0.100660	-2.563022	0.023086	-0.019449	0.018406	1.000000	-0.000002	0.000022	0.000006	177.365633	-75.021795	173.349682
47334	9.509751	0.141614	-2.523875	-0.012632	0.027531	0.027254	1.000000	-0.000013	0.000023	0.000048	177.369829	-75.021863	173.346421
47335	9.507019	0.107643	-2.532760	-0.008830	-0.007301	0.026506	1.000000	0.000000	0.000025	0.000045	177.374187	-75.022178	173.343056
47336	9.501277	0.119766	-2.512378	-0.024758	0.007801	0.015841	1.000000	-0.000011	0.000028	0.000039	177.374665	-75.022808	173.344405
47337	9.543948	0.108972	-2.552706	0.001013	-0.007977	0.067346	1.000000	-0.000022	0.000018	0.000034	177.371801	-75.022289	173.345850
47338	9.516154	0.126024	-2.541948	0.000527	0.009506	0.037921	1.000000	0.000001	0.000022	0.000018	177.364657	-75.022080	173.352332
47339	9.538275	0.120882	-2.532078	-0.015466	0.006537	0.056681	1.000000	-0.000032	0.000016	0.000048	177.366700	-75.021421	173.347509
47340	9.516342	0.124651	-2.541312	-0.000592	0.008331	0.037922	1.000000	0.000000	0.000011	0.000047	177.371985	-75.020090	173.349136
47341	9.529669	0.099037	-2.521035	-0.027596	-0.013201	0.045257	1.000000	-0.000011	0.000015	0.000041	177.373167	-75.019214	173.347718
47342	9.516529	0.123289	-2.540679	-0.001694	0.007161	0.037923	1.000000	-0.000006	0.000025	0.000023	177.367218	-75.019425	173.352887
47343	9.522567	0.109699	-2.560010	0.013128	-0.009114	0.048587	1.000000	-0.000015	0.000032	0.000056	177.374034	-75.020550	173.345132
47344	9.508054	0.101621	-2.529121	-0.013809	-0.012564	0.026495	1.000000	-0.000009	0.000020	0.000032	177.371764	-75.020170	173.346431
47345	9.538957	0.116630	-2.529705	-0.018802	0.003011	0.056677	1.000000	-0.000003	0.000025	0.000034	177.370861	-75.020435	173.348107
47346	9.508299	0.100423	-2.528246	-0.014916	-0.013735	0.026492	1.000000	0.000005	0.000022	0.000029	177.368922	-75.020239	173.352443
47347	9.523091	0.106990	-2.558179	0.010908	-0.011454	0.048587	1.000000	-0.000021	0.000027	0.000053	177.374150	-75.020769	173.345660
47348	9.517304	0.119137	-2.537972	-0.005022	0.003649	0.037924	1.000000	0.000005	0.000008	0.000030	177.373069	-75.019037	173.350000
47349	9.495373	0.122945	-2.547232	0.009879	0.005457	0.019174	1.000000	-0.000015	0.000018	0.000057	177.380751	-75.018615	173.341332
47350	9.523383	0.104727	-2.557182	0.009242	-0.013204	0.048586	1.000000	-0.000006	0.000025	0.000023	177.374836	-75.018782	173.345834
47351	9.511734	0.129944	-2.517019	-0.022054	0.017576	0.027260	1.000000	-0.000019	0.000018	0.000046	177.377250	-75.018312	173.342217
47352	9.514820	0.083269	-2.545886	-0.002845	-0.032930	0.037144	1.000000	-0.000009	0.000020	0.000032	177.374972	-75.018039	173.342893
47353	9.523728	0.102879	-2.555971	0.007600	-0.014967	0.048585	1.000000	-0.000003	0.000025	0.000034	177.374074	-75.018304	173.344562
47354	9.517980	0.115148	-2.535619	-0.008329	0.000142	0.037922	1.000000	-0.000003	0.000025	0.000034	177.373446	-75.018521	173.344935
47355	9.529914	0.088499	-2.574778	0.021863	-0.031822	0.059247	1.000000	-0.000010	0.000037	0.000058	177.381865	-75.020238	173.336187
47356	9.518323	0.113429	-2.534409	-0.009433	-0.001025	0.037921	1.000000	-0.000011	0.000028	0.000039	177.382501	-75.020887	173.333386
47357	9.524315	0.099969	-2.553900	0.005387	-0.017302	0.048583	1.000000	-0.000007	0.000012	0.000024	177.377194	-75.019557	173.339202
47358	9.518494	0.112221	-2.533822	-0.010536	-0.002188	0.037920	1.000000	-0.000013	0.000010	0.000050	177.382432	-75.018115	173.329064
47359	9.502447	0.103271	-2.562978	0.019745	-0.016055	0.029842	1.000000	-0.000014	0.000015	0.000029	177.378353	-75.017191	173.332686
47360	9.518669	0.110992	-2.533219	-0.011643	-0.003352	0.037918	1.000000	-0.000016	0.000023	0.000037	177.377445	-75.017225	173.329765
47361	9.509970	0.090125	-2.522344	-0.023180	-0.022491	0.026460	1.000000	-0.000011	0.000015	0.000041	177.378638	-75.016348	173.328330
47362	9.496873	0.114209	-2.542042	0.002722	-0.002100	0.019180	1.000000	-0.000005	0.000020	0.000043	177.381806	-75.016062	173.321428
47363	9.524887	0.096036	-2.551917	0.002074	-0.020795	0.048577	1.000000	-0.000001	0.000030	0.000025	177.377239	-75.016873	173.327163
47364	9.525035	0.095365	-2.551392	0.001521	-0.021372	0.048576	1.000000	0.000000	0.000025	0.000045	177.381930	-75.017161	173.323787
47365	9.533965	0.114860	-2.561485	0.011954	-0.003415	0.060039	1.000000	-0.000022	0.000018	0.000034	177.379080	-75.016643	173.325212
47366	9.504671	0.099630	-2.500392	-0.041297	-0.009700	0.015784	1.000000	0.000003	0.000017	0.000038	177.381013	-75.015944	173.322377
47367	9.506320	0.131028	-2.550341	0.010953	0.013534	0.030646	1.000000	-0.000019	0.000032	0.000044	177.382579	-75.017020	173.319647
47368	9.512343	0.117473	-2.569720	0.025759	-0.002732	0.041310	1.000000	-0.000009	0.000020	0.000032	177.380379	-75.016620	173.324486
47369	9.506572	0.129819	-2.549464	0.009840	0.012370	0.030649	1.000000	-0.000009	0.000020	0.000032	177.377899	-75.016289	173.327121
47370	9.534577	0.111641	-2.559347	0.009184	-0.006325	0.060040	1.000000	-0.000011	0.000028	0.000039	177.378527	-75.016946	173.326699
47371	9.512746	0.115476	-2.568319	0.024105	-0.004486	0.041313	1.000000	0.000006	0.000030	0.000048	177.384510	-75.017850	173.322314
47372	9.498137	0.107431	-2.537613	-0.002791	-0.007916	0.019177	1.000000	-0.000022	0.000005	0.000036	177.382812	-75.015751	173.322856
47373	9.551043	0.117667	-2.528704	-0.023319	0.005173	0.068105	1.000000	0.000016	0.000032	0.000034	177.383892	-75.016796	173.324738
47374	9.507203	0.126231	-2.547290	0.007078	0.009465	0.030655	1.000000	-0.000019	0.000018	0.000046	177.386643	-75.016300	173.318857
47375	9.520473	0.100682	-2.526861	-0.019920	-0.012104	0.037898	1.000000	-0.000016	0.000023	0.000037	177.385393	-75.016375	173.319295
47376	9.514688	0.112948	-2.506654	-0.035832	0.003013	0.027235	1.000000	-0.000003	0.000011	0.000035	177.385705	-75.015112	173.316562
47377	9.528114	0.118638	-2.596455	0.047133	-0.005130	0.063464	1.000000	-0.000003	0.000025	0.000034	177.384825	-75.015375	173.318209
47378	9.507654	0.123622	-2.545734	0.004878	0.007135	0.030658	1.000000	-0.000003	0.000025	0.000034	177.384208	-75.015615	173.320385
47379	9.504826	0.089901	-2.554649	0.008729	-0.027689	0.029832	1.000000	-0.000016	0.000023	0.000037	177.382960	-75.015691	173.320820
47380	9.515180	0.110301	-2.504906	-0.038051	0.000678	0.027227	1.000000	0.000000	0.000025	0.000046	177.387670	-75.015903	173.317833
47381	9.530047	0.116807	-2.534765	-0.012272	0.002937	0.049377	1.000000	-0.000011	0.000028	0.000039	177.388020	-75.016572	173.317283
47382	9.508217	0.120905	-2.543760	0.002663	0.004806	0.030660	1.000000	-0.000014	0.000028	0.000028	177.383381	-75.017197	173.321102
47383	9.530329	0.115724	-2.533756	-0.013373	0.001768	0.049376	1.000000	-0.000009	0.000020	0.000032	177.380908	-75.016866	173.323726
47384	9.502586	0.132600	-2.523011	-0.013803	0.019330	0.020000	1.000000	-0.000013	0.000023	0.000048	177.385162	-75.016995	173.320147
47385	9.530575	0.114284	-2.532896	-0.014473	0.000595	0.049375	1.000000	-0.000016	0.000023	0.000037	177.383918	-75.017070	173.320576
47386	9.536620	0.100766	-2.552177	0.000335	-0.015678	0.060034	1.000000	-0.000003	0.000039	0.000033	177.382402	-75.018828	173.326105
47387	9.521997	0.092785	-2.521416	-0.026537	-0.019119	0.037871	1.000000	-0.000032	0.000003	0.000050	177.385319	-75.016623	173.320346
47388	9.530966	0.112395	-2.531506	-0.016124	-0.001157	0.049372	1.000000	-0.000006	0.000039	0.000021	177.378596	-75.018441	173.326695
47389	9.523839	0.123805	-2.571029	0.025133	0.003560	0.052827	1.000000	-0.000011	0.000001	0.000042	177.380657	-75.016016	173.324339
47390	9.509217	0.115817	-2.540256	-0.001717	0.000136	0.030662	1.000000	-0.000011	0.000042	0.000038	177.380500	-75.018327	173.319053
47391	9.537224	0.097650	-2.550038	-0.002394	-0.018609	0.060029	1.000000	-0.000014	0.000015	0.000029	177.376435	-75.017403	173.322656
47392	9.500634	0.094433	-2.528766	-0.013779	-0.019568	0.019151	1.000000	-0.000005	0.000033	0.000042	177.378682	-75.018579	173.322741
47393	9.525738	0.122051	-2.509320	-0.034243	0.011609	0.038706	1.000000	-0.000005	0.000020	0.000043	177.381490	-75.018294	173.320296
47394	9.509781	0.113090	-2.538267	-0.003917	-0.002195	0.030661	1.000000	0.000003	0.000030	0.000037	177.382532	-75.019226	173.317426
47395	9.524688	0.119561	-2.568082	0.021843	0.000059	0.052836	1.000000	-0.000021	0.000026	0.000053	177.387798	-75.019754	173.310589
47396	9.507089	0.078392	-2.546593	-0.000610	-0.037594	0.029803	1.000000	-0.000011	0.000028	0.000039	177.388396	-75.020316	173.314518
47397	9.502964	0.122834	-2.576792	0.036221	0.001366	0.034137	1.000000	-0.000022	0.000005	0.000036	177.386410	-75.018251	173.315025
47398	9.516152	0.097310	-2.556425	0.009233	-0.020222	0.041319	1.000000	0.000003	0.000030	0.000037	177.387415	-75.019100	173.316320
47399	9.513420	0.142750	-2.526633	-0.011114	0.029111	0.031521	1.000000	-0.000006	0.000025	0.000023	177.381273	-75.019315	173.323011
47400	9.516420	0.096277	-2.555468	0.008128	-0.021389	0.041317	1.000000	-0.000009	0.000020	0.000032	177.379088	-75.018946	173.326595
47401	9.526756	0.116755	-2.505704	-0.038659	0.006927	0.038694	1.000000	-0.000011	0.000028	0.000039	177.379453	-75.019613	173.326025
47402	9.494723	0.099709	-2.564071	0.022517	-0.020073	0.022619	1.000000	-0.000016	0.000023	0.000037	177.378407	-75.019592	173.333073
47403	9.550650	0.142909	-2.545686	-0.002548	0.027134	0.072408	1.000000	0.000010	0.000013	0.000033	177.378766	-75.018492	173.335010
47404	9.525765	0.113924	-2.564340	0.016843	-0.005187	0.052844	1.000000	-0.000022	0.000018	0.000034	177.376199	-75.017966	173.337077
47405	9.517027	0.093051	-2.553323	0.005365	-0.024315	0.041312	1.000000	0.000000	0.000038	0.000044	177.379766	-75.019818	173.334532
47406	9.542183	0.120653	-2.533725	-0.014891	0.008365	0.060877	1.000000	-0.000011	0.000028	0.000039	177.415030	-75.020853	173.289613
47407	9.520353	0.124627	-2.542827	0.000065	0.010267	0.042185	1.000000	-0.000005	0.000020	0.000043	177.417991	-75.020567	173.286990
47408	9.505685	0.116678	-2.512101	-0.026777	0.006849	0.019990	1.000000	-0.000009	0.000020	0.000032	177.415877	-75.020245	173.287262
47409	9.520586	0.123354	-2.542016	-0.001033	0.009108	0.042186	1.000000	-0.000003	0.000025	0.000034	177.415163	-75.020506	173.288715
47410	9.517695	0.089644	-2.550955	0.002875	-0.025697	0.041310	1.000000	-0.000017	0.000023	0.000037	177.414298	-75.020691	173.283685
47411	9.529722	0.142258	-2.551677	0.008812	0.026482	0.053727	1.000000	0.000010	0.000013	0.000033	177.414803	-75.019592	173.285454
47412	9.526821	0.108577	-2.560648	0.012701	-0.008324	0.052848	1.000000	-0.000022	0.000032	0.000033	177.411410	-75.020616	173.287907
47413	9.521068	0.120867	-2.540329	-0.003215	0.006787	0.042188	1.000000	-0.000011	0.000015	0.000041	177.412773	-75.019737	173.286268
47414	9.512268	0.100014	-2.529480	-0.014689	-0.012324	0.030643	1.000000	-0.000003	0.000025	0.000034	177.412213	-75.019979	173.288059
47415	9.490446	0.104112	-2.538574	0.000277	-0.010409	0.011958	1.000000	-0.000003	0.000025	0.000034	177.411503	-75.020241	173.289507
47416	9.527346	0.106073	-2.558799	0.010492	-0.010646	0.052848	1.000000	-0.000022	0.000032	0.000033	177.408105	-75.021235	173.294320
47417	9.521618	0.118405	-2.538383	-0.005424	0.004464	0.042188	1.000000	-0.000003	0.000025	0.000034	177.407397	-75.021496	173.295767
47418	9.505683	0.109708	-2.567334	0.024909	-0.009302	0.034168	1.000000	0.000007	0.000027	0.000020	177.401968	-75.021891	173.301897
47419	9.512981	0.097041	-2.526915	-0.017439	-0.015228	0.030635	1.000000	-0.000021	0.000026	0.000053	177.407398	-75.022418	173.294868
47420	9.522016	0.116401	-2.536983	-0.007087	0.002728	0.042187	1.000000	-0.000011	0.000015	0.000041	177.408895	-75.021464	173.297296
47421	9.516228	0.128678	-2.516794	-0.023004	0.017837	0.031527	1.000000	-0.000022	0.000018	0.000034	177.406213	-75.020946	173.298521
47422	9.507408	0.107837	-2.505967	-0.034465	-0.001276	0.019968	1.000000	-0.000005	0.000020	0.000043	177.409303	-75.020644	173.298862
47423	9.531294	0.134582	-2.546219	0.002166	0.019513	0.053746	1.000000	-0.000016	0.000037	0.000035	177.407382	-75.022266	173.299985
47424	9.522518	0.113834	-2.535214	-0.009295	0.000402	0.042186	1.000000	-0.000009	0.000020	0.000032	177.405199	-75.021900	173.304749
47425	9.528507	0.100367	-2.554703	0.005522	-0.015874	0.052845	1.000000	-0.000009	0.000020	0.000032	177.402892	-75.021569	173.307179
47426	9.543419	0.107100	-2.584684	0.031254	-0.013613	0.075070	1.000000	-0.000001	0.000017	0.000027	177.399558	-75.020900	173.307938
47427	9.506802	0.104043	-2.563424	0.019961	-0.014515	0.034173	1.000000	-0.000016	0.000037	0.000035	177.397639	-75.022521	173.309060
47428	9.528898	0.098488	-2.553317	0.003884	-0.017612	0.052843	1.000000	-0.000015	0.000018	0.000057	177.405702	-75.022091	173.299202
47429	9.532090	0.130929	-2.543425	-0.001133	0.016028	0.053753	1.000000	0.000009	0.000032	0.000011	177.396417	-75.023039	173.310996
47430	9.538110	0.117494	-2.562802	0.013683	-0.000244	0.064413	1.000000	-0.000005	0.000020	0.000043	177.399521	-75.022750	173.310669
47431	9.498381	0.081160	-2.551146	0.006870	-0.035362	0.022600	1.000000	-0.000011	0.000015	0.000041	177.400894	-75.021870	173.309016
47432	9.501539	0.113598	-2.541398	0.001856	-0.001714	0.023514	1.000000	-0.000009	0.000020	0.000032	177.398775	-75.021571	173.310400
47433	9.501657	0.113011	-2.540984	0.001307	-0.002296	0.023514	1.000000	-0.000017	0.000023	0.000037	177.397702	-75.021646	173.310626
47434	9.510685	0.132470	-2.551169	0.011648	0.015660	0.035092	1.000000	-0.000019	0.000005	0.000047	177.401356	-75.019606	173.304366
47435	9.529687	0.094003	-2.550538	0.000039	-0.021680	0.052836	1.000000	-0.000001	0.000044	0.000024	177.396141	-75.021960	173.310766
47436	9.532933	0.126434	-2.540493	-0.004990	0.011967	0.053757	1.000000	-0.000027	0.000021	0.000051	177.400167	-75.021871	173.304251
47437	9.524072	0.105637	-2.529725	-0.016430	-0.007146	0.042174	1.000000	-0.000007	0.000012	0.000024	177.395031	-75.020540	173.309863
47438	9.546130	0.100266	-2.519704	-0.032517	-0.010261	0.060833	1.000000	-0.000005	0.000033	0.000042	177.397341	-75.021788	173.308396
47439	9.502407	0.109120	-2.538347	-0.001992	-0.005767	0.023512	1.000000	-0.000017	0.000023	0.000037	177.396273	-75.021863	173.308617
47440	9.539292	0.110924	-2.558692	0.008169	-0.006050	0.064418	1.000000	0.000002	0.000016	0.000038	177.398194	-75.021153	173.309231
47441	9.533549	0.123078	-2.538345	-0.007748	0.009059	0.053759	1.000000	-0.000005	0.000033	0.000042	177.400339	-75.022410	173.307465
47442	9.517639	0.114285	-2.567302	0.022611	-0.004667	0.045761	1.000000	-0.000009	0.000020	0.000032	177.398235	-75.022095	173.308383
47443	9.502877	0.106429	-2.536701	-0.004185	-0.008082	0.023510	1.000000	-0.000017	0.000010	0.000038	177.398009	-75.020623	173.307712
47444	9.527978	0.134124	-2.517407	-0.024761	0.023014	0.043100	1.000000	-0.000022	0.000018	0.000034	177.395494	-75.020117	173.309800
47445	9.512086	0.125396	-2.546300	0.005598	0.009285	0.035105	1.000000	-0.000011	0.000042	0.000038	177.395196	-75.022329	173.309911
47446	9.512256	0.124774	-2.545694	0.005051	0.008709	0.035106	1.000000	0.000005	0.000022	0.000029	177.393436	-75.022192	173.312886
47447	9.490439	0.128995	-2.554898	0.020046	0.010679	0.016456	1.000000	-0.000009	0.000020	0.000032	177.391142	-75.021859	173.315300
47448	9.540302	0.105910	-2.555138	0.003762	-0.010700	0.064416	1.000000	-0.000003	0.000025	0.000034	177.390596	-75.022065	173.317994
47449	9.503613	0.102692	-2.534097	-0.007480	-0.011559	0.023504	1.000000	-0.000013	0.000010	0.000050	177.395657	-75.020637	173.312245
47450	9.512675	0.122134	-2.544255	0.002839	0.006390	0.035109	1.000000	-0.000009	0.000020	0.000032	177.393511	-75.020283	173.315424
47451	9.512786	0.121457	-2.543875	0.002289	0.005807	0.035109	1.000000	-0.000005	0.000020	0.000043	177.396502	-75.019994	173.312761
47452	9.549672	0.123152	-2.564250	0.012424	0.005497	0.076023	1.000000	-0.000011	0.000015	0.000041	177.398020	-75.019111	173.311619
47453	9.509947	0.087010	-2.552371	0.005690	-0.029573	0.034157	1.000000	0.000005	0.000049	0.000026	177.394429	-75.022054	173.317008
47454	9.513215	0.119367	-2.542368	0.000638	0.004071	0.035111	1.000000	0.000000	0.000011	0.000047	177.400034	-75.020793	173.311710
47455	9.525083	0.092752	-2.581730	0.030822	-0.027902	0.056427	1.000000	-0.000011	0.000028	0.000039	177.400583	-75.021458	173.310924
47456	9.510379	0.084892	-2.550833	0.004041	-0.031308	0.034153	1.000000	-0.000009	0.000034	0.000030	177.397582	-75.022649	173.316377
47457	9.541449	0.099657	-2.551101	-0.001202	-0.015940	0.064410	1.000000	-0.000003	0.000025	0.000034	177.396900	-75.022907	173.317789
47458	9.535713	0.111901	-2.530722	-0.017123	-0.000821	0.053751	1.000000	-0.000011	0.000028	0.000039	177.397645	-75.023548	173.316543
47459	9.513905	0.116130	-2.539933	-0.002117	0.001168	0.035111	1.000000	-0.000028	0.000013	0.000032	177.393371	-75.022439	173.318738
47460	9.483124	0.100366	-2.538616	0.002025	-0.015353	0.004850	1.000000	-0.000006	0.000039	0.000021	177.386730	-75.024137	173.328336
47461	9.535000	0.109345	-2.588906	0.038363	-0.012855	0.068051	1.000000	0.000011	0.000035	0.000051	177.394555	-75.025620	173.322677
47462	9.520221	0.101217	-2.558262	0.011577	-0.016258	0.045768	1.000000	-0.000011	0.000001	0.000042	177.396944	-75.023095	173.323836
47463	9.501502	0.138525	-2.558186	0.022069	0.019957	0.028104	1.000000	-0.000006	0.000025	0.000023	177.390980	-75.023309	173.330320
47464	9.536466	0.108218	-2.528046	-0.020452	-0.004307	0.053744	1.000000	-0.000003	0.000025	0.000034	177.390506	-75.023560	173.328747
47465	9.529546	0.119600	-2.567581	0.020776	0.000521	0.057398	1.000000	-0.000011	0.000015	0.000041	177.391898	-75.022678	173.327066
47466	9.527634	0.086586	-2.517002	-0.032399	-0.023992	0.042108	1.000000	-0.000013	0.000010	0.000050	177.397134	-75.021253	173.320976
47467	9.517999	0.143870	-2.527133	-0.011060	0.030748	0.036086	1.000000	0.000010	0.000040	0.000030	177.396002	-75.023239	173.324469
47468	9.484108	0.094967	-2.535145	-0.002368	-0.019972	0.004842	1.000000	-0.000006	0.000025	0.000023	177.390243	-75.023444	173.329094
47469	9.515076	0.109707	-2.535829	-0.007638	-0.004625	0.035107	1.000000	-0.000011	-0.000012	0.000044	177.393308	-75.019470	173.325641
47470	9.521029	0.096104	-2.555448	0.007188	-0.020895	0.045764	1.000000	-0.000003	0.000039	0.000033	177.392021	-75.021322	173.323783
47471	9.502411	0.133302	-2.555085	0.017683	0.015330	0.028121	1.000000	-0.000019	0.000018	0.000046	177.394647	-75.020848	173.319897
47472	9.515396	0.107574	-2.534722	-0.009276	-0.006359	0.035105	1.000000	-0.000011	0.000015	0.000041	177.396223	-75.019963	173.318091
47473	9.546435	0.122219	-2.535158	-0.014556	0.008978	0.065374	1.000000	-0.000017	0.000023	0.000037	177.395174	-75.020036	173.318285
47474	9.508582	0.118239	-2.573973	0.031400	-0.002097	0.038783	1.000000	-0.000027	0.000008	0.000052	177.400059	-75.018413	173.310398
47475	9.530555	0.112632	-2.564148	0.015278	-0.005280	0.057407	1.000000	0.000010	0.000013	0.000033	177.400603	-75.017306	173.312116
47476	9.524828	0.124869	-2.543754	-0.000636	0.009840	0.046751	1.000000	-0.000011	0.000042	0.000038	177.400532	-75.019527	173.310173
47477	9.525016	0.124187	-2.543083	-0.001186	0.009256	0.046751	1.000000	-0.000011	0.000028	0.000039	177.401097	-75.020191	173.309366
47478	9.501180	0.096246	-2.501992	-0.038772	-0.012657	0.012789	1.000000	-0.000007	0.000012	0.000024	177.396130	-75.018844	173.315410
47479	9.516198	0.102919	-2.531900	-0.013122	-0.010421	0.035097	1.000000	-0.000011	0.000028	0.000039	177.396696	-75.019508	173.314601
47480	9.525366	0.122437	-2.541858	-0.002846	0.007518	0.046753	1.000000	-0.000009	0.000020	0.000032	177.394570	-75.019135	173.319199
47481	9.516432	0.101623	-2.531075	-0.014226	-0.011582	0.035094	1.000000	-0.000019	0.000018	0.000046	177.397202	-75.018660	173.315304
47482	9.519705	0.134001	-2.521243	-0.019313	0.022055	0.036097	1.000000	0.000005	0.000022	0.000029	177.395503	-75.018502	173.317731
47483	9.500634	0.092286	-2.559768	0.015621	-0.025824	0.027133	1.000000	-0.000017	0.000023	0.000037	177.394460	-75.018576	173.317917
47484	9.519951	0.132674	-2.520383	-0.020421	0.020894	0.036097	1.000000	-0.000027	0.000021	0.000051	177.398478	-75.018467	173.314212
47485	9.525947	0.119054	-2.539840	-0.005605	0.004613	0.046753	1.000000	0.000005	0.000022	0.000029	177.396584	-75.018314	173.317801
47486	9.495084	0.103159	-2.538761	-0.001400	-0.011860	0.016475	1.000000	-0.000017	0.000010	0.000038	177.396511	-75.016810	173.319284
47487	9.532015	0.104860	-2.559044	0.008656	-0.012245	0.057409	1.000000	-0.000011	0.000028	0.000039	177.397083	-75.017473	173.318467
47488	9.517217	0.097003	-2.528302	-0.018082	-0.015641	0.035082	1.000000	-0.000009	0.000020	0.000032	177.394977	-75.017121	173.321723
47489	9.504482	0.121329	-2.547970	0.007771	0.004915	0.028144	1.000000	-0.000006	0.000020	0.000043	177.397993	-75.016829	173.319025
47490	9.532368	0.102982	-2.557806	0.007007	-0.013982	0.057408	1.000000	0.000001	0.000022	0.000018	177.391018	-75.016654	173.325169
47491	9.504692	0.120121	-2.547243	0.006677	0.003758	0.028146	1.000000	-0.000021	0.000013	0.000055	177.397330	-75.015631	173.317184
47492	9.539573	0.089441	-2.517032	-0.035862	-0.020590	0.053679	1.000000	-0.000011	0.000042	0.000038	177.397257	-75.017836	173.316599
47493	9.483118	0.123567	-2.555755	0.021167	0.005232	0.009542	1.000000	0.000005	0.000022	0.000029	177.395369	-75.017683	173.320181
47494	9.527008	0.113057	-2.536129	-0.010562	-0.000608	0.046750	1.000000	-0.000008	0.000015	0.000052	177.402238	-75.016827	173.314225
47495	9.496145	0.097035	-2.535033	-0.006332	-0.017070	0.016465	1.000000	-0.000009	0.000020	0.000032	177.399970	-75.016492	173.316603
47496	9.542180	0.118893	-2.565612	0.014504	0.001048	0.069088	1.000000	-0.000011	0.000028	0.000039	177.400700	-75.017106	173.318890
47497	9.518282	0.090942	-2.524517	-0.023027	-0.020867	0.035062	1.000000	-0.000014	0.000015	0.000029	177.396820	-75.016181	173.322267
47498	9.514637	0.135317	-2.554623	0.013631	0.018222	0.039835	1.000000	-0.000024	0.000021	0.000063	177.406172	-75.016169	173.310282
47499	9.520671	0.121700	-2.573936	0.028447	0.001943	0.050492	1.000000	0.000015	0.000037	0.000014	177.398552	-75.017701	173.321024
47500	9.527772	0.109225	-2.533426	-0.013863	-0.004092	0.046745	1.000000	-0.000007	0.000025	0.000023	177.392794	-75.017934	173.326410
47501	9.515115	0.133549	-2.552935	0.011984	0.016480	0.039841	1.000000	-0.000016	0.000031	0.000056	177.399898	-75.019046	173.318293
47502	9.512061	0.099698	-2.561878	0.015998	-0.018304	0.038803	1.000000	-0.000017	0.000023	0.000037	177.399003	-75.019101	173.319687
47503	9.515400	0.132001	-2.551951	0.010880	0.015320	0.039844	1.000000	0.000000	0.000025	0.000046	177.403644	-75.019397	173.315973
47504	9.506452	0.111114	-2.541077	-0.000463	-0.003767	0.028148	1.000000	-0.000003	0.000025	0.000034	177.403153	-75.019670	173.316057
47505	9.506561	0.110436	-2.540698	-0.001012	-0.004351	0.028147	1.000000	-0.000011	0.000015	0.000041	177.404566	-75.018787	173.314345
47506	9.537660	0.125066	-2.541001	-0.006371	0.010929	0.058439	1.000000	0.000013	0.000032	0.000023	177.400772	-75.019746	173.322758
47507	9.506843	0.109125	-2.539701	-0.002113	-0.005510	0.028147	1.000000	-0.000021	0.000026	0.000054	177.406268	-75.020268	173.315635
47508	9.506940	0.108367	-2.539371	-0.002669	-0.006086	0.028146	1.000000	0.000004	0.000008	0.000031	177.405356	-75.018521	173.321517
47509	9.522044	0.114945	-2.569160	0.022939	-0.003855	0.050506	1.000000	-0.000011	0.000042	0.000038	177.405117	-75.020729	173.321556
47510	9.516355	0.127070	-2.548639	0.007021	0.011264	0.039853	1.000000	-0.000021	0.000026	0.000054	177.410783	-75.021249	173.313365
47511	9.513268	0.093260	-2.557635	0.011052	-0.023524	0.038799	1.000000	-0.000017	0.000023	0.000037	177.409757	-75.021321	173.313527
47512	9.507531	0.105636	-2.537272	-0.004862	-0.008405	0.028144	1.000000	-0.000014	0.000028	0.000028	177.405217	-75.021951	173.315800
47513	9.529573	0.100113	-2.527023	-0.021019	-0.011654	0.046726	1.000000	-0.000005	0.000033	0.000042	177.407426	-75.023202	173.313954
47514	9.501925	0.117150	-2.516453	-0.021330	0.006134	0.017488	1.000000	-0.000019	0.000004	0.000047	177.411090	-75.021159	173.308425
47515	9.507895	0.103594	-2.535990	-0.006512	-0.010146	0.028141	1.000000	-0.000001	0.000030	0.000025	177.406774	-75.021961	173.313870
47516	9.526271	0.143262	-2.556213	0.014502	0.026293	0.051575	1.000000	-0.000011	0.000028	0.000039	177.407539	-75.022625	173.312688
47517	9.530110	0.097410	-2.525100	-0.023219	-0.013977	0.046719	1.000000	-0.000011	0.000042	0.000038	177.407310	-75.024832	173.312716
47518	9.523369	0.108870	-2.564512	0.017987	-0.009072	0.050513	1.000000	-0.000003	0.000011	0.000036	177.407632	-75.023530	173.314202
47519	9.511728	0.134022	-2.524398	-0.013297	0.021738	0.029206	1.000000	-0.000011	0.000028	0.000039	177.408229	-75.024192	173.313353
47520	9.545504	0.102575	-2.553924	0.001271	-0.012911	0.069090	1.000000	-0.000011	0.000028	0.000039	177.408964	-75.024832	173.313949
47521	9.508780	0.099620	-2.532830	-0.009806	-0.013626	0.028134	1.000000	-0.000003	0.000025	0.000034	177.408327	-75.025085	173.315304
47522	9.527146	0.139151	-2.553175	0.011187	0.022810	0.051588	1.000000	-0.000006	0.000020	0.000043	177.411528	-75.024777	173.313147
47523	9.496324	0.123328	-2.551856	0.015482	0.006403	0.021288	1.000000	-0.000001	0.000044	0.000024	177.406393	-75.027124	173.319460
47524	9.503356	0.110462	-2.511347	-0.026818	0.000333	0.017476	1.000000	-0.000016	0.000018	0.000057	177.414489	-75.026701	173.309944
47525	9.518435	0.116858	-2.541349	-0.001231	0.002558	0.039861	1.000000	0.000004	0.000008	0.000031	177.413442	-75.024999	173.312629
47526	9.524411	0.103291	-2.560869	0.013592	-0.013716	0.050515	1.000000	-0.000011	0.000028	0.000040	177.414226	-75.025691	173.308658
47527	9.518698	0.115483	-2.540429	-0.002325	0.001398	0.039861	1.000000	-0.000019	0.000032	0.000045	177.416064	-75.026761	173.305594
47528	9.518850	0.114787	-2.539888	-0.002879	0.000820	0.039861	1.000000	-0.000003	0.000025	0.000034	177.415570	-75.026982	173.309583
47529	9.524870	0.101203	-2.559246	0.011939	-0.015461	0.050514	1.000000	-0.000011	0.000028	0.000040	177.416175	-75.027643	173.308724
47530	9.530876	0.087539	-2.578653	0.026759	-0.031736	0.061167	1.000000	-0.000006	0.000020	0.000043	177.419379	-75.027365	173.304405
47531	9.513376	0.125565	-2.518614	-0.019892	0.014772	0.029207	1.000000	0.000010	0.000027	0.000032	177.419134	-75.027798	173.306950
47532	9.519399	0.111970	-2.537957	-0.005082	-0.001502	0.039860	1.000000	-0.000011	0.000028	0.000040	177.419880	-75.028409	173.309373
47533	9.512678	0.123405	-2.577469	0.036119	0.003420	0.043696	1.000000	-0.000011	0.000015	0.000041	177.421308	-75.027524	173.307639
47534	9.513797	0.123592	-2.517123	-0.021546	0.013034	0.029206	1.000000	-0.000001	0.000044	0.000024	177.416340	-75.029885	173.312355
47535	9.532525	0.084942	-2.516422	-0.033110	-0.024453	0.046670	1.000000	-0.000014	0.000010	0.000050	177.421446	-75.028451	173.306532
47536	9.494473	0.159455	-2.576362	0.045485	0.038589	0.026241	1.000000	-0.000015	0.000015	0.000029	177.417730	-75.027511	173.309784
47537	9.519994	0.108762	-2.535864	-0.007829	-0.004409	0.039857	1.000000	-0.000003	0.000025	0.000034	177.417105	-75.027763	173.311125
47538	9.520125	0.108015	-2.535405	-0.008376	-0.004989	0.039857	1.000000	-0.000013	0.000023	0.000049	177.421501	-75.027884	173.306455
47539	9.535335	0.114555	-2.565006	0.017191	-0.002769	0.062265	1.000000	-0.000001	0.000044	0.000024	177.416380	-75.030230	173.312752
47540	9.513635	0.119159	-2.574132	0.032267	-0.000635	0.043710	1.000000	-0.000018	0.000015	0.000018	177.407345	-75.029229	173.322896
47541	9.541439	0.100945	-2.584053	0.031452	-0.019629	0.072919	1.000000	-0.000007	0.000012	0.000024	177.402243	-75.027894	173.328459
47542	9.520644	0.105959	-2.533540	-0.010579	-0.007313	0.039853	1.000000	-0.000016	0.000031	0.000056	177.409528	-75.029002	173.319472
47543	9.498957	0.110067	-2.542644	0.004507	-0.005181	0.021299	1.000000	0.000002	0.000030	0.000037	177.410528	-75.029842	173.319799
47544	9.499105	0.109392	-2.542123	0.003961	-0.005756	0.021299	1.000000	-0.000003	0.000025	0.000034	177.410071	-75.030108	173.318508
47545	9.521111	0.103723	-2.531876	-0.012225	-0.009059	0.039850	1.000000	-0.000005	0.000033	0.000042	177.412309	-75.031356	173.316625
47546	9.499405	0.107904	-2.541064	0.002865	-0.006915	0.021299	1.000000	-0.000006	0.000020	0.000043	177.415528	-75.031060	173.312804
47547	9.508712	0.127378	-2.550957	0.013056	0.011001	0.033069	1.000000	-0.000001	0.000030	0.000025	177.411231	-75.031860	173.318225
47548	9.536569	0.108741	-2.560667	0.012229	-0.008000	0.062270	1.000000	-0.000016	0.000018	0.000058	177.419320	-75.031399	173.309801
47549	9.499745	0.105713	-2.539885	0.001217	-0.008657	0.021298	1.000000	0.000004	0.000008	0.000031	177.418283	-75.029696	173.312471
47550	9.530848	0.120266	-2.540288	-0.004240	0.006537	0.051618	1.000000	-0.000009	0.000020	0.000032	177.416210	-75.029347	173.312918
47551	9.530957	0.119585	-2.539908	-0.004790	0.005952	0.051618	1.000000	-0.000006	0.000020	0.000043	177.419270	-75.029050	173.310159
47552	9.500039	0.103773	-2.538864	-0.000432	-0.010392	0.021296	1.000000	-0.000009	0.000020	0.000032	177.417162	-75.028693	173.313118
47553	9.509353	0.123252	-2.548767	0.009750	0.007521	0.033076	1.000000	-0.000011	0.000028	0.000040	177.417784	-75.029353	173.312236
47554	9.525449	0.130573	-2.518756	-0.021810	0.019910	0.040967	1.000000	-0.000022	0.000018	0.000035	177.415306	-75.028836	173.311745
47555	9.524141	0.098327	-2.407961	-0.131939	0.005467	0.010742	1.000000	0.000006	0.000057	0.000046	177.419985	-75.032805	173.308695
47556	9.488235	0.156759	-2.727959	0.190433	0.012217	0.059320	1.000000	0.000099	-0.000138	0.000019	177.427913	-75.014344	173.313692
47557	9.676768	0.031496	-2.168702	-0.409258	-0.018574	0.095706	1.000000	-0.000302	0.000371	0.000060	177.397160	-75.054342	173.310749
47558	9.436791	0.128681	-3.055571	0.510804	-0.068461	0.093900	1.000000	0.000355	-0.000581	0.000040	177.451543	-74.985268	173.298449
47559	9.339473	0.162925	-2.326386	-0.153875	0.076791	-0.187991	1.000000	-0.000301	0.000626	-0.000006	177.388171	-75.054111	173.329482
47560	9.712271	-0.017754	-2.515597	-0.094937	-0.121019	0.218917	1.000000	0.000145	-0.000261	0.000067	177.424238	-75.021896	173.307476
47561	9.534703	0.332143	-2.798826	0.273744	0.175722	0.124540	1.000000	0.000043	0.000021	0.000030	177.427232	-75.021725	173.310509
47562	9.387738	-0.206944	-2.190089	-0.353687	-0.265853	-0.180804	1.000000	-0.000162	0.000151	0.000023	177.401264	-75.036274	173.319879
47563	9.756658	0.422764	-2.940942	0.367633	0.248762	0.376680	1.000000	0.000207	-0.000130	0.000019	177.421148	-75.018742	173.324986
47564	9.240009	-0.139122	-2.128706	-0.364017	-0.193246	-0.338583	1.000000	-0.000319	0.000136	0.000134	177.424829	-75.032250	173.283331
47565	9.703390	0.253614	-2.967178	0.379298	0.076576	0.330020	1.000000	0.000297	-0.000066	-0.000056	177.421712	-75.021585	173.322914
47566	9.368983	0.141124	-2.273369	-0.215051	0.064497	-0.173416	1.000000	-0.000210	0.000030	0.000088	177.420337	-75.022678	173.300079
47567	9.492425	-0.052460	-2.710661	0.139508	-0.191878	0.056471	1.000000	0.000071	0.000049	-0.000006	177.410647	-75.025466	173.319641
47568	9.602429	0.410025	-2.288923	-0.216920	0.334298	0.059249	1.000000	0.000003	-0.000003	0.000060	177.422462	-75.022672	173.308349
47569	9.508740	-0.281211	-2.617686	0.010102	-0.401880	0.045603	1.000000	-0.000264	0.000034	0.000146	177.439397	-75.024590	173.260595
47570	9.319938	0.377413	-2.714252	0.253993	0.228595	-0.104234	1.000000	0.000590	-0.000189	-0.000070	177.466649	-74.999787	173.302740
47571	9.763044	0.155440	-2.287904	-0.300600	0.089590	0.211149	1.000000	-0.000555	0.000339	0.000121	177.433905	-75.036450	173.271873
47572	9.489257	-0.137769	-2.927859	0.332767	-0.309284	0.108550	1.000000	0.000368	-0.000300	-0.000071	177.437225	-74.998924	173.315252
47573	9.571669	0.469434	-2.308480	-0.182370	0.389553	0.035221	1.000000	-0.000184	0.000313	0.000052	177.417775	-75.032266	173.314613
47574	9.557905	-0.229958	-2.696563	0.080979	-0.362227	0.114050	1.000000	-0.000114	-0.000127	0.000118	177.443076	-75.015597	173.276308
47575	9.484600	0.439099	-2.555169	0.070485	0.319120	0.014445	1.000000	0.000287	0.000030	-0.000023	177.451054	-75.016089	173.303206
47576	9.480769	-0.143081	-2.476998	-0.095169	-0.243350	-0.016122	1.000000	-0.000308	0.000089	0.000116	177.449377	-75.024128	173.266446
47577	9.563198	0.271162	-2.691868	0.154922	0.134121	0.123733	1.000000	0.000304	-0.000007	-0.000059	177.444660	-75.020223	173.308454
47578	9.377821	0.072743	-2.377506	-0.129048	-0.018148	-0.138786	1.000000	-0.000339	0.000032	0.000115	177.440149	-75.021690	173.273300
47579	9.590423	0.016984	-2.697730	0.113391	-0.117478	0.148617	1.000000	0.000139	0.000084	-0.000021	177.430807	-75.028457	173.300552
47580	9.444381	0.292203	-2.350495	-0.137052	0.204332	-0.078931	1.000000	0.000018	-0.000121	0.000032	177.434725	-75.011961	173.301136
47581	9.558375	-0.156455	-2.715458	0.109564	-0.292372	0.120250	1.000000	-0.000219	0.000123	0.000093	177.432441	-75.023759	173.278650
47582	9.520935	0.249269	-2.420232	-0.097339	0.153297	0.012530	1.000000	0.000276	-0.000065	-0.000048	177.430381	-75.013309	173.312489
47583	9.546839	-0.005643	-2.487338	-0.081186	-0.107876	0.051936	1.000000	-0.000280	0.000060	0.000134	177.439976	-75.018113	173.270383
47584	9.568854	0.018735	-2.706575	0.126295	-0.117603	0.130104	1.000000	0.000237	0.000011	-0.000048	177.431859	-75.016370	173.309302
47585	9.472514	0.349197	-2.380332	-0.107733	0.256897	-0.043407	1.000000	-0.000047	-0.000012	0.000054	177.435384	-75.012446	173.301208
47586	9.589023	-0.223593	-2.753132	0.126548	-0.363663	0.158814	1.000000	-0.000132	0.000081	0.000057	177.428596	-75.019261	173.290240
47587	9.525926	0.436260	-2.390429	-0.097105	0.342597	0.011820	1.000000	0.000257	0.000026	-0.000029	177.430518	-75.019345	173.319825
47588	9.503012	-0.077877	-2.542984	-0.027858	-0.189295	0.023138	1.000000	-0.000348	0.000011	0.000151	177.440714	-75.018593	173.269080
47589	9.536134	0.202539	-2.715980	0.173239	0.061566	0.103038	1.000000	0.000348	0.000025	-0.000058	177.440884	-75.018336	173.311269
47590	9.415295	0.192819	-2.265031	-0.227025	0.119052	-0.130249	1.000000	-0.000250	0.000039	0.000094	177.437489	-75.020406	173.286874
47591	9.568094	-0.065608	-2.801881	0.204238	-0.215893	0.153001	1.000000	0.000047	0.000005	0.000015	177.434780	-75.018235	173.296329
47592	9.488712	0.321579	-2.176788	-0.309252	0.261963	-0.080616	1.000000	0.000032	0.000066	0.000020	177.431494	-75.023025	173.304845
47593	9.522874	-0.088328	-2.710677	0.125005	-0.225384	0.085508	1.000000	-0.000158	-0.000072	0.000088	177.437983	-75.012497	173.280521
47594	9.536592	0.247714	-2.505744	-0.020867	0.138962	0.049714	1.000000	0.000168	0.000052	-0.000032	177.428407	-75.015531	173.311093
47595	9.475891	0.014005	-2.551921	0.001015	-0.100904	0.000306	1.000000	-0.000184	-0.000048	0.000091	177.432492	-75.007740	173.286105
47596	9.586918	0.176177	-2.655216	0.096238	0.046350	0.136121	1.000000	0.000117	0.000032	-0.000008	177.427431	-75.008543	173.307518
47597	9.492755	0.099581	-2.483506	-0.055860	-0.005084	-0.000095	1.000000	-0.000082	-0.000026	0.000066	177.432213	-75.003129	173.293962
47598	9.554978	0.080810	-2.693314	0.124884	-0.054575	0.114019	1.000000	0.000072	0.000043	0.000015	177.431718	-75.005435	173.300135
47599	9.519965	0.157648	-2.573553	0.032160	0.039074	0.050132	1.000000	-0.000054	0.000018	0.000057	177.434863	-75.005013	173.291546
47600	9.498182	0.083738	-2.561827	0.014951	-0.032646	0.025206	1.000000	0.000037	0.000043	0.000025	177.434810	-75.007325	173.295896
47601	9.529607	0.176298	-2.582614	0.041727	0.056394	0.062001	1.000000	-0.000046	0.000028	0.000050	177.435916	-75.008038	173.290374
47602	9.465024	0.113274	-2.530477	-0.001180	0.000417	-0.014585	1.000000	0.000037	0.000043	0.000025	177.435834	-75.010337	173.296564
47603	9.508053	0.101670	-2.570033	0.023973	-0.015909	0.037067	1.000000	-0.000048	0.000037	0.000058	177.439808	-75.012047	173.287811
47604	9.531026	0.174825	-2.520654	-0.017024	0.064775	0.047344	1.000000	0.000032	0.000038	0.000023	177.438099	-75.013761	173.295212
47605	9.489813	0.060169	-2.548215	0.001541	-0.054024	0.013331	1.000000	-0.000065	0.000008	0.000051	177.437989	-75.012166	173.288651
47606	9.521237	0.152726	-2.569142	0.028292	0.035015	0.050159	1.000000	0.000029	0.000047	0.000030	177.439139	-75.014901	173.290862
47607	9.505261	0.065809	-2.577343	0.026473	-0.052413	0.035844	1.000000	-0.000083	0.000010	0.000071	177.445178	-75.013576	173.275788
47608	9.518059	0.118172	-2.577851	0.031885	-0.000329	0.048941	1.000000	0.000061	0.000020	0.000011	177.442194	-75.013104	173.286682
47609	9.543221	0.067189	-2.537206	-0.021382	-0.043510	0.062161	1.000000	-0.000075	0.000033	0.000063	177.445389	-75.014460	173.275532
47610	9.530081	0.090977	-2.616560	0.061502	-0.032902	0.070240	1.000000	0.000061	0.000020	0.000011	177.442430	-75.013973	173.286473
47611	9.497491	0.122106	-2.526185	-0.011151	0.010866	0.015772	1.000000	-0.000070	0.000044	0.000045	177.438281	-75.016429	173.283496
47612	9.521166	0.069756	-2.604881	0.049740	-0.052539	0.058363	1.000000	0.000043	0.000035	0.000029	177.440636	-75.017758	173.287284
47613	9.531718	0.168018	-2.575368	0.035074	0.049425	0.062064	1.000000	-0.000053	0.000059	0.000053	177.441385	-75.021972	173.281246
47614	9.497192	0.041133	-2.562579	0.011967	-0.074941	0.023948	1.000000	0.000018	0.000037	0.000025	177.439304	-75.023496	173.286332
47615	9.511162	0.172582	-2.523597	-0.007411	0.061204	0.028894	1.000000	-0.000030	0.000049	0.000037	177.436339	-75.026480	173.286930
47616	9.485946	0.065934	-2.521040	-0.019854	-0.044683	0.002646	1.000000	-0.000001	0.000057	0.000023	177.430641	-75.030329	173.292425
47617	9.517558	0.158644	-2.541548	0.006842	0.044337	0.039548	1.000000	-0.000017	0.000037	0.000036	177.428873	-75.031945	173.293359
47618	9.511621	0.092692	-2.500094	-0.041374	-0.014497	0.022356	1.000000	-0.000011	0.000042	0.000038	177.428868	-75.034079	173.293949
47619	9.512123	0.170370	-2.520121	-0.009633	0.058884	0.028906	1.000000	-0.000001	0.000044	0.000024	177.423817	-75.036419	173.300167
47620	9.527166	0.098609	-2.528960	-0.016474	-0.012895	0.044890	1.000000	-0.000027	0.000008	0.000053	177.428684	-75.034740	173.294916
47621	9.521486	0.110938	-2.508397	-0.032385	0.002228	0.034241	1.000000	-0.000006	0.000066	0.000019	177.420394	-75.039585	173.303868
47622	9.527556	0.097402	-2.527538	-0.017576	-0.014058	0.044886	1.000000	-0.000014	0.000009	0.000050	177.425683	-75.038123	173.297960
47623	9.515885	0.122555	-2.487556	-0.048848	0.016772	0.023590	1.000000	0.000012	0.000018	0.000024	177.422635	-75.037549	173.303656
47624	9.527800	0.096068	-2.526671	-0.018685	-0.015221	0.044882	1.000000	-0.000019	0.000045	0.000044	177.423880	-75.040094	173.303250
47625	9.531393	0.128515	-2.516610	-0.023958	0.018373	0.046135	1.000000	0.000001	0.000008	0.000019	177.417562	-75.038347	173.310990
47626	9.522147	0.107838	-2.506019	-0.035155	-0.000678	0.034232	1.000000	-0.000027	0.000021	0.000051	177.421646	-75.038222	173.305380
47627	9.513204	0.165389	-2.516372	-0.014080	0.054240	0.028928	1.000000	0.000014	-0.000004	0.000018	177.416527	-75.035105	173.313454
47628	9.522241	0.106731	-2.505711	-0.036258	-0.001844	0.034227	1.000000	-0.000023	0.000018	0.000035	177.414034	-75.034562	173.316093
47629	9.504034	0.144365	-2.505512	-0.025821	0.034606	0.017024	1.000000	-0.000007	0.000025	0.000023	177.408158	-75.034770	173.322470
47630	9.509956	0.130937	-2.525214	-0.011013	0.018320	0.027671	1.000000	-0.000023	-0.000009	0.000037	177.407271	-75.031136	173.321969
47631	9.525167	0.137486	-2.555398	0.014430	0.020501	0.050230	1.000000	-0.000009	0.000006	0.000033	177.405878	-75.029250	173.323393
47632	9.510008	0.129729	-2.525079	-0.012112	0.017159	0.027672	1.000000	-0.000017	0.000010	0.000039	177.405841	-75.027771	173.321627
47633	9.534231	0.077979	-2.544606	-0.008285	-0.036172	0.055508	1.000000	0.000002	0.000003	0.000040	177.408519	-75.025511	173.320150
47634	9.497648	0.153526	-2.544932	0.013135	0.037331	0.021131	1.000000	0.000004	0.000008	0.000031	177.407645	-75.023786	173.321178
47635	9.512527	0.081698	-2.554142	0.006336	-0.034471	0.037046	1.000000	-0.000006	0.000006	0.000045	177.411562	-75.021936	173.317486
47636	9.525423	0.134055	-2.554623	0.011674	0.017595	0.050239	1.000000	0.000004	0.000022	0.000029	177.409861	-75.021769	173.319539
47637	9.490899	0.085310	-2.563406	0.020962	-0.032764	0.018588	1.000000	-0.000016	0.000004	0.000059	177.418692	-75.019780	173.309542
47638	9.503786	0.137489	-2.563965	0.026295	0.019302	0.031788	1.000000	-0.000011	0.000015	0.000041	177.420281	-75.018877	173.307330
47639	9.528031	0.085712	-2.583331	0.030121	-0.034037	0.059610	1.000000	-0.000011	0.000015	0.000041	177.421764	-75.017987	173.305513
47640	9.509837	0.123194	-2.583213	0.040552	0.002433	0.042439	1.000000	-0.000009	0.000020	0.000032	177.419647	-75.017620	173.308727
47641	9.504091	0.135533	-2.562940	0.024641	0.017559	0.031796	1.000000	-0.000017	0.000023	0.000037	177.418696	-75.017689	173.308785
47642	9.516644	0.109812	-2.542391	-0.002254	-0.004363	0.038318	1.000000	0.000007	0.000027	0.000020	177.413320	-75.018068	173.315041
47643	9.500873	0.101369	-2.571550	0.028287	-0.017777	0.030514	1.000000	-0.000049	0.000023	0.000059	177.418126	-75.018234	173.305387
47644	9.510357	0.120702	-2.581417	0.038352	0.000110	0.042448	1.000000	0.000004	0.000022	0.000029	177.416442	-75.018065	173.306823
47645	9.538140	0.102079	-2.590990	0.037431	-0.019064	0.071542	1.000000	-0.000022	0.000032	0.000033	177.413060	-75.019094	173.308754
47646	9.495451	0.112481	-2.550117	0.011274	-0.003805	0.019870	1.000000	0.000005	0.000035	0.000028	177.410576	-75.020432	173.312227
47647	9.532635	0.113798	-2.569840	0.020962	-0.004517	0.060899	1.000000	-0.000006	0.000033	0.000042	177.412901	-75.021672	173.310232
47648	9.505205	0.131139	-2.559032	0.020782	0.013500	0.031811	1.000000	0.000002	0.000043	0.000036	177.413307	-75.024018	173.310072
47649	9.517820	0.105277	-2.538179	-0.006111	-0.008434	0.038313	1.000000	-0.000003	0.000038	0.000033	177.411959	-75.025807	173.312168
47650	9.512156	0.117581	-2.517574	-0.022027	0.006696	0.027667	1.000000	0.000010	0.000040	0.000031	177.411090	-75.027730	173.316538
47651	9.496507	0.109049	-2.546330	0.008520	-0.006706	0.019871	1.000000	-0.000021	0.000053	0.000051	177.415103	-75.031336	173.310958
47652	9.518463	0.102953	-2.535859	-0.007764	-0.010178	0.038310	1.000000	-0.000016	0.000018	0.000058	177.423245	-75.030899	173.301354
47653	9.506873	0.128116	-2.495603	-0.039033	0.020659	0.017020	1.000000	-0.000006	0.000039	0.000022	177.416587	-75.032652	173.308564
47654	9.525277	0.089380	-2.494827	-0.050575	-0.016990	0.034150	1.000000	-0.000006	0.000020	0.000044	177.419792	-75.032274	173.307027
47655	9.534809	0.108733	-2.504573	-0.040524	0.000886	0.046098	1.000000	-0.000017	0.000037	0.000036	177.418052	-75.033888	173.307924
47656	9.524941	0.087566	-2.553539	0.005381	-0.028213	0.048951	1.000000	-0.000012	0.000020	0.000021	177.410680	-75.033471	173.314801
47657	9.485696	0.131009	-2.503298	-0.025506	0.021234	-0.001419	1.000000	-0.000011	0.000028	0.000040	177.411377	-75.034125	173.313819
47658	9.541064	0.094124	-2.523042	-0.026823	-0.016572	0.056736	1.000000	-0.000039	0.000011	0.000046	177.412160	-75.032871	173.311173
47659	9.513487	0.111593	-2.512810	-0.026989	0.001458	0.027657	1.000000	0.000026	0.000006	0.000023	177.410330	-75.030921	173.317179
47660	9.507112	0.123408	-2.552323	0.014157	0.006536	0.031830	1.000000	-0.000006	0.000039	0.000022	177.403768	-75.032657	173.325023
47661	9.529640	0.118180	-2.482190	-0.059196	0.013094	0.035439	1.000000	-0.000016	0.000018	0.000058	177.411822	-75.032213	173.315847
47662	9.508001	0.122638	-2.491579	-0.044014	0.015422	0.017008	1.000000	-0.000007	0.000025	0.000023	177.406058	-75.032332	173.326075
47663	9.523357	0.129142	-2.521418	-0.018615	0.017589	0.039617	1.000000	-0.000006	0.000006	0.000045	177.409991	-75.030481	173.322358
47664	9.516937	0.140661	-2.561156	0.022532	0.022676	0.043802	1.000000	-0.000012	0.000015	0.000041	177.411607	-75.029595	173.319842
47665	9.492340	0.112799	-2.520493	-0.014549	0.000882	0.009222	1.000000	-0.000004	0.000011	0.000036	177.411865	-75.028293	173.320219
47666	9.523561	0.127005	-2.520754	-0.020270	0.015844	0.039616	1.000000	-0.000004	0.000011	0.000036	177.412200	-75.026957	173.321498
47667	9.544793	0.120454	-2.570452	0.020484	0.002301	0.072876	1.000000	-0.000006	0.000020	0.000044	177.415339	-75.026650	173.318630
47668	9.507829	0.117746	-2.549919	0.009740	0.001891	0.031838	1.000000	-0.000012	0.000001	0.000042	177.417697	-75.024194	173.317227
47669	9.507887	0.117100	-2.549732	0.009191	0.001308	0.031838	1.000000	-0.000023	0.000018	0.000035	177.415124	-75.023678	173.318289
47670	9.557359	0.093002	-2.549623	-0.007503	-0.020831	0.079322	1.000000	-0.000003	0.000019	0.000055	177.423674	-75.023421	173.308459
47671	9.523394	0.122594	-2.579096	0.034033	0.002894	0.054462	1.000000	-0.000017	0.000023	0.000037	177.422742	-75.023489	173.308491
47672	9.514076	0.101903	-2.568492	0.022899	-0.016145	0.042483	1.000000	-0.000004	0.000011	0.000036	177.423036	-75.022138	173.309833
47673	9.517703	0.134187	-2.558658	0.017562	0.017439	0.043822	1.000000	-0.000012	0.000015	0.000041	177.424538	-75.021246	173.307988
47674	9.492525	0.105800	-2.577624	0.037558	-0.014377	0.024068	1.000000	-0.000001	0.000030	0.000026	177.420391	-75.022031	173.312593
47675	9.536133	0.094826	-2.557603	0.005492	-0.020825	0.060899	1.000000	0.000010	0.000013	0.000033	177.421053	-75.020901	173.314153
47676	9.508592	0.112162	-2.547325	0.005332	-0.002762	0.031841	1.000000	-0.000000	0.000011	0.000048	177.426690	-75.019583	173.309619
47677	9.523966	0.118548	-2.577173	0.030712	-0.000599	0.054473	1.000000	-0.000023	0.000018	0.000035	177.424120	-75.019067	173.310676
47678	9.518199	0.130838	-2.556984	0.014799	0.014531	0.043832	1.000000	0.000002	0.000016	0.000039	177.426104	-75.018337	173.309618
47679	9.508898	0.110064	-2.546276	0.003683	-0.004508	0.031841	1.000000	0.000002	0.000030	0.000037	177.427218	-75.019163	173.309804
47680	9.518476	0.129425	-2.556025	0.013701	0.013366	0.043835	1.000000	-0.000003	0.000025	0.000035	177.426747	-75.019420	173.310038
47681	9.524520	0.115830	-2.575247	0.028511	-0.002928	0.054479	1.000000	-0.000011	0.000042	0.000039	177.426670	-75.021618	173.309880
47682	9.509447	0.108039	-2.544311	0.002037	-0.006252	0.031840	1.000000	0.000002	0.000043	0.000036	177.427067	-75.023974	173.310531
47683	9.519038	0.127260	-2.554041	0.012048	0.011618	0.043839	1.000000	-0.000022	0.000013	0.000055	177.433489	-75.022943	173.302367
47684	9.509748	0.106412	-2.543253	0.000936	-0.007416	0.031840	1.000000	-0.000011	0.000042	0.000039	177.433475	-75.025121	173.303820
47685	9.515792	0.092699	-2.562478	0.015748	-0.023710	0.042482	1.000000	-0.000000	0.000025	0.000046	177.438268	-75.025397	173.299905
47686	9.513708	0.137872	-2.532299	-0.004980	0.025584	0.033200	1.000000	-0.000003	0.000052	0.000032	177.436227	-75.028661	173.305074
47687	9.519800	0.124367	-2.551342	0.009832	0.009291	0.043844	1.000000	-0.000009	0.000033	0.000031	177.433272	-75.029863	173.308158
47688	9.526357	0.111385	-2.510910	-0.032403	0.003012	0.039596	1.000000	-0.000019	0.000018	0.000046	177.436106	-75.029377	173.303101
47689	9.532328	0.097655	-2.530405	-0.017592	-0.013283	0.050237	1.000000	-0.000006	0.000020	0.000044	177.439260	-75.029068	173.300212
47690	9.517115	0.089871	-2.499911	-0.044062	-0.016608	0.027582	1.000000	-0.000009	0.000020	0.000032	177.437159	-75.028663	173.305073
47691	9.514375	0.134559	-2.529970	-0.007742	0.022673	0.033206	1.000000	-0.000017	0.000010	0.000039	177.437026	-75.027186	173.304246
47692	9.542610	0.116244	-2.479878	-0.065753	0.013424	0.047344	1.000000	-0.000000	0.000025	0.000046	177.441888	-75.027437	173.300523
47693	9.505158	0.112972	-2.518881	-0.019391	0.003056	0.021191	1.000000	-0.000011	0.000028	0.000040	177.442613	-75.028089	173.299505
47694	9.511127	0.099480	-2.538372	-0.004582	-0.013234	0.031833	1.000000	-0.000020	0.000010	0.000027	177.437213	-75.026551	173.303503
47695	9.527059	0.106616	-2.508452	-0.036269	-0.001076	0.039583	1.000000	-0.000012	0.000015	0.000041	177.438727	-75.025657	173.301641
47696	9.520769	0.118261	-2.548015	0.004868	0.004052	0.043852	1.000000	-0.000003	0.000025	0.000035	177.438293	-75.025933	173.301731
47697	9.489710	0.102822	-2.547115	0.009557	-0.012012	0.013438	1.000000	-0.000003	0.000025	0.000035	177.437778	-75.026174	173.302929
47698	9.527429	0.104643	-2.507128	-0.037923	-0.002825	0.039576	1.000000	-0.000003	0.000025	0.000035	177.437323	-75.026348	173.304923
47699	9.515235	0.129255	-2.527010	-0.012154	0.018014	0.033211	1.000000	-0.000017	-0.000004	0.000040	177.437980	-75.023326	173.303249
47700	9.530574	0.135638	-2.557143	0.013188	0.020173	0.055881	1.000000	-0.000012	0.000001	0.000042	177.440354	-75.020855	173.301397
47701	9.499454	0.120037	-2.556474	0.017885	0.004117	0.025466	1.000000	-0.000000	0.000025	0.000046	177.445161	-75.021129	173.297465
47702	9.521274	0.114148	-2.546314	0.001557	0.000558	0.043853	1.000000	-0.000020	0.000010	0.000027	177.439786	-75.019645	173.302629
47703	9.511866	0.093552	-2.535826	-0.009523	-0.018475	0.031821	1.000000	-0.000012	0.000015	0.000041	177.441303	-75.018752	173.300761
47704	9.527302	0.099879	-2.565606	0.015819	-0.016318	0.054495	1.000000	-0.000006	0.000020	0.000044	177.444515	-75.018434	173.298319
47705	9.512056	0.092025	-2.535172	-0.010621	-0.019641	0.031817	1.000000	-0.000012	0.000015	0.000041	177.446033	-75.017540	173.296450
47706	9.478159	0.121902	-2.564886	0.030929	0.004201	0.007089	1.000000	-0.000009	0.000006	0.000033	177.444751	-75.015635	173.299471
47707	9.521708	0.110711	-2.544843	-0.001195	-0.002357	0.043853	1.000000	-0.000006	0.000033	0.000042	177.447132	-75.016870	173.297407
47708	9.505962	0.102335	-2.574143	0.029406	-0.015658	0.036114	1.000000	0.000004	0.000008	0.000031	177.446195	-75.015143	173.301142
47709	9.521895	0.109202	-2.544206	-0.002296	-0.003524	0.043853	1.000000	-0.000016	0.000018	0.000058	177.454274	-75.014694	173.291924
47710	9.478571	0.118921	-2.563503	0.028735	0.001882	0.007097	1.000000	0.000004	0.000021	0.000030	177.452604	-75.014513	173.293477
47711	9.537482	0.114870	-2.573494	0.022486	-0.001953	0.066539	1.000000	-0.000003	0.000025	0.000035	177.452100	-75.014753	173.294663
47712	9.500570	0.112337	-2.552676	0.011849	-0.002274	0.025476	1.000000	-0.000006	0.000033	0.000042	177.454541	-75.016000	173.291487
47713	9.510220	0.131660	-2.562383	0.021818	0.015588	0.037526	1.000000	-0.000017	0.000023	0.000037	177.453634	-75.016068	173.291485
47714	9.537896	0.112789	-2.572050	0.020831	-0.003701	0.066542	1.000000	-0.000025	0.000013	0.000044	177.454840	-75.014974	173.288695
47715	9.510443	0.130402	-2.561621	0.020713	0.014427	0.037530	1.000000	-0.000001	0.000030	0.000026	177.450667	-75.015763	173.293970
47716	9.532346	0.124549	-2.551095	0.004358	0.010843	0.055903	1.000000	-0.000011	0.000042	0.000039	177.450661	-75.017908	173.295137
47717	9.523053	0.103997	-2.540087	-0.006704	-0.008186	0.043848	1.000000	-0.000006	0.000039	0.000022	177.444060	-75.019659	173.302286
47718	9.501542	0.108660	-2.549215	0.008555	-0.005761	0.025478	1.000000	-0.000014	0.000037	0.000048	177.447776	-75.021364	173.296874
47719	9.523446	0.102666	-2.538669	-0.007792	-0.009353	0.043846	1.000000	-0.000017	0.000037	0.000036	177.446092	-75.022976	173.297705
47720	9.523627	0.102102	-2.538012	-0.008338	-0.009933	0.043845	1.000000	-0.000022	0.000032	0.000034	177.442854	-75.024026	173.298310
47721	9.536004	0.076230	-2.517257	-0.035195	-0.031972	0.050147	1.000000	-0.000003	0.000038	0.000033	177.441575	-75.025809	173.300324
47722	9.518119	0.113826	-2.516870	-0.024797	0.004614	0.033203	1.000000	0.000010	0.000026	0.000032	177.441593	-75.026225	173.301026
47723	9.502411	0.105526	-2.546105	0.005818	-0.008668	0.025478	1.000000	-0.000017	0.000023	0.000037	177.440692	-75.026293	173.301016
47724	9.496687	0.117803	-2.525758	-0.010094	0.006463	0.014837	1.000000	-0.000011	0.000028	0.000040	177.441480	-75.026932	173.301345
47725	9.518541	0.111815	-2.515366	-0.026447	0.002862	0.033199	1.000000	-0.000011	0.000028	0.000040	177.442229	-75.027582	173.300296
47726	9.518669	0.111181	-2.514907	-0.026992	0.002280	0.033198	1.000000	-0.000009	0.000020	0.000032	177.440142	-75.027263	173.301981
47727	9.528328	0.130552	-2.524665	-0.017042	0.020136	0.045269	1.000000	0.000002	0.000030	0.000037	177.441298	-75.028084	173.302114
47728	9.506728	0.135188	-2.534177	-0.001790	0.022576	0.026911	1.000000	-0.000009	0.000006	0.000033	177.439973	-75.026167	173.303134
47729	9.503115	0.101606	-2.543635	0.002526	-0.012159	0.025475	1.000000	-0.000004	0.000011	0.000036	177.440261	-75.024861	173.303467
47730	9.524904	0.095685	-2.533467	-0.013841	-0.015765	0.043831	1.000000	0.000004	0.000021	0.000030	177.438583	-75.024629	173.309045
47731	9.501065	0.146247	-2.513675	-0.018811	0.036541	0.016275	1.000000	-0.000018	-0.000004	0.000040	177.439245	-75.021607	173.307355
47732	9.534514	0.114518	-2.543453	-0.004457	0.001506	0.055909	1.000000	-0.000007	0.000011	0.000024	177.434236	-75.020210	173.314715
47733	9.512900	0.119091	-2.553030	0.010804	0.003953	0.037556	1.000000	-0.000016	0.000018	0.000058	177.442335	-75.019760	173.305468
47734	9.503478	0.098257	-2.542410	-0.000228	-0.015067	0.025472	1.000000	-0.000017	0.000023	0.000037	177.441502	-75.019864	173.304147
47735	9.513126	0.117585	-2.552260	0.009711	0.002788	0.037557	1.000000	0.000002	0.000016	0.000039	177.443443	-75.019139	173.303437
47736	9.529024	0.124443	-2.522345	-0.022007	0.014881	0.045269	1.000000	-0.000020	0.000004	0.000048	177.447056	-75.017156	173.298531
47737	9.503703	0.096034	-2.541653	-0.001864	-0.016815	0.025469	1.000000	-0.000012	0.000015	0.000041	177.448592	-75.016261	173.296636
47738	9.544558	0.130057	-2.552006	0.002739	0.016440	0.067999	1.000000	-0.000017	0.000010	0.000039	177.448547	-75.014789	173.295655
47739	9.497549	0.107063	-2.581146	0.038702	-0.012212	0.029851	1.000000	0.000010	0.000013	0.000033	177.449246	-75.013652	173.297164
47740	9.525622	0.088732	-2.531019	-0.019331	-0.021603	0.043811	1.000000	0.000004	0.000021	0.000030	177.447567	-75.013438	173.302083
47741	9.528971	0.120396	-2.580902	0.032259	0.002020	0.060296	1.000000	-0.000028	0.000008	0.000053	177.452367	-75.011823	173.294908
47742	9.513665	0.112546	-2.550477	0.005872	-0.001285	0.037561	1.000000	-0.000011	0.000028	0.000040	177.453226	-75.012494	173.293519
47743	9.513805	0.111882	-2.549986	0.005323	-0.001869	0.037561	1.000000	-0.000017	0.000023	0.000037	177.452337	-75.012561	173.293492
47744	9.519791	0.098307	-2.569384	0.020120	-0.018161	0.048200	1.000000	-0.000004	0.000025	0.000035	177.451866	-75.012698	173.297003
47745	9.529485	0.117669	-2.579130	0.030043	-0.000309	0.060303	1.000000	-0.000004	0.000025	0.000035	177.451386	-75.012935	173.298158
47746	9.502071	0.135192	-2.568697	0.029946	0.017877	0.031327	1.000000	-0.000027	0.000021	0.000052	177.455507	-75.012823	173.291496
47747	9.514335	0.109197	-2.548121	0.003102	-0.004196	0.037561	1.000000	-0.000001	0.000030	0.000026	177.451359	-75.013610	173.296743
47748	9.536176	0.103274	-2.537697	-0.013271	-0.007834	0.055898	1.000000	-0.000011	0.000028	0.000040	177.452204	-75.014263	173.295935
47749	9.496685	0.146246	-2.547195	0.012936	0.031845	0.020696	1.000000	0.000005	0.000035	0.000028	177.449708	-75.015632	173.300141
47750	9.546070	0.122038	-2.546740	-0.003904	0.009430	0.068008	1.000000	-0.000004	0.000025	0.000035	177.449264	-75.015876	173.301049
47751	9.520840	0.093684	-2.565668	0.016271	-0.022238	0.048198	1.000000	-0.000014	0.000036	0.000048	177.452928	-75.017519	173.296711
47752	9.515166	0.105825	-2.545161	0.000348	-0.007109	0.037560	1.000000	-0.000019	0.000032	0.000045	177.454933	-75.018513	173.296010
47753	9.503223	0.130433	-2.564677	0.026089	0.013807	0.031344	1.000000	-0.000011	0.000028	0.000040	177.455703	-75.019161	173.294933
47754	9.515503	0.104431	-2.543956	-0.000753	-0.008275	0.037559	1.000000	-0.000003	0.000038	0.000034	177.454491	-75.020923	173.297005
47755	9.509808	0.116749	-2.523514	-0.016666	0.006852	0.026921	1.000000	-0.000017	0.000023	0.000037	177.453610	-75.020989	173.296968
47756	9.537483	0.097800	-2.532999	-0.017690	-0.012513	0.055887	1.000000	-0.000011	0.000028	0.000040	177.454393	-75.021601	173.294902
47757	9.469286	0.080740	-2.511822	-0.022849	-0.028105	-0.015655	1.000000	-0.000011	0.000042	0.000039	177.454394	-75.023794	173.294651
47758	9.516155	0.101828	-2.541624	-0.002968	-0.010607	0.037556	1.000000	-0.000009	0.000020	0.000032	177.452298	-75.023376	173.298384
47759	9.525851	0.121260	-2.551450	0.006936	0.007240	0.049682	1.000000	-0.000009	0.000020	0.000032	177.450174	-75.023030	173.300568
47760	9.520110	0.133605	-2.531182	-0.008977	0.022371	0.039046	1.000000	-0.000017	0.000023	0.000037	177.449375	-75.023097	173.300516
47761	9.520229	0.132889	-2.530772	-0.009528	0.021787	0.039046	1.000000	-0.000006	0.000020	0.000044	177.452579	-75.022781	173.297558
47762	9.501166	0.092161	-2.509929	-0.030975	-0.015658	0.014783	1.000000	0.000010	0.000026	0.000032	177.452539	-75.023188	173.299300
47763	9.495047	0.103916	-2.549530	0.010127	-0.010440	0.019230	1.000000	-0.000017	0.000010	0.000039	177.452434	-75.021710	173.298427
47764	9.516787	0.097872	-2.539411	-0.006262	-0.014106	0.037550	1.000000	-0.000012	0.000015	0.000041	177.454022	-75.020805	173.296914
47765	9.520612	0.130083	-2.529477	-0.011729	0.019452	0.039049	1.000000	-0.000012	0.000015	0.000041	177.455573	-75.019908	173.294996
47766	9.516929	0.096487	-2.538930	-0.007356	-0.015271	0.037548	1.000000	-0.000009	0.000006	0.000034	177.454296	-75.018037	173.295744
47767	9.499059	0.134159	-2.538995	0.003016	0.021376	0.020733	1.000000	-0.000004	0.000011	0.000036	177.454602	-75.016727	173.296049
47768	9.511188	0.108133	-2.518693	-0.023812	-0.000727	0.026908	1.000000	-0.000004	0.000011	0.000036	177.454933	-75.015446	173.296718
47769	9.505044	0.119892	-2.558435	0.017286	0.004498	0.031372	1.000000	-0.000017	0.000010	0.000039	177.454830	-75.013968	173.295841
47770	9.514728	0.139189	-2.568387	0.027159	0.022348	0.043519	1.000000	0.000002	0.000016	0.000039	177.456816	-75.013154	173.298338
47771	9.523070	0.080183	-2.557839	0.005255	-0.033901	0.048177	1.000000	-0.000018	-0.000004	0.000040	177.457484	-75.010131	173.296632
47772	9.495644	0.097970	-2.547540	0.005192	-0.015674	0.019227	1.000000	-0.000006	0.000039	0.000022	177.450952	-75.011892	173.303425
47773	9.527055	0.111943	-2.547376	-0.000771	-0.000930	0.049687	1.000000	-0.000001	0.000011	0.000048	177.456586	-75.010613	173.298587
47774	9.533005	0.098234	-2.566904	0.014044	-0.017224	0.060324	1.000000	-0.000017	0.000023	0.000037	177.455783	-75.010684	173.298441
47775	9.521416	0.123404	-2.526783	-0.017233	0.013616	0.039051	1.000000	-0.000006	0.000020	0.000044	177.458994	-75.010368	173.295473
47776	9.489907	0.107591	-2.585903	0.044642	-0.012179	0.023708	1.000000	-0.000009	0.000020	0.000032	177.456928	-75.009999	173.297380
47777	9.521634	0.122031	-2.526030	-0.018337	0.012449	0.039050	1.000000	-0.000006	0.000020	0.000044	177.460140	-75.009683	173.294410
47778	9.517997	0.088335	-2.535223	-0.013943	-0.022274	0.037527	1.000000	0.000002	0.000030	0.000037	177.461360	-75.010528	173.296058
47779	9.499916	0.125372	-2.594785	0.053427	0.004504	0.035873	1.000000	-0.000006	0.000020	0.000044	177.464574	-75.010211	173.293086
47780	9.522008	0.119588	-2.524733	-0.019976	0.010696	0.039049	1.000000	-0.000017	0.000018	0.000058	177.472745	-75.009790	173.283265
47781	9.490550	0.103774	-2.583700	0.041912	-0.015084	0.023716	1.000000	-0.000006	0.000039	0.000022	177.466199	-75.011538	173.290352
47782	9.522301	0.118445	-2.523684	-0.021089	0.009530	0.039048	1.000000	-0.000015	0.000015	0.000030	177.462461	-75.010529	173.293349
47783	9.522396	0.117797	-2.523354	-0.021639	0.008945	0.039047	1.000000	-0.000006	0.000020	0.000044	177.465677	-75.010212	173.290373
47784	9.522539	0.117121	-2.522849	-0.022183	0.008364	0.039047	1.000000	-0.000009	0.000033	0.000031	177.462874	-75.011438	173.290626
47785	9.501073	0.121933	-2.532066	-0.006874	0.010899	0.020748	1.000000	-0.000003	0.000038	0.000034	177.461656	-75.013217	173.292570
47786	9.513275	0.095968	-2.511295	-0.033695	-0.011228	0.026873	1.000000	-0.000009	0.000033	0.000031	177.458792	-75.014434	173.294436
47787	9.544389	0.109428	-2.570937	0.017313	-0.006395	0.072489	1.000000	0.000010	0.000013	0.000034	177.459520	-75.013292	173.295908
47788	9.511196	0.139974	-2.540547	0.001889	0.027576	0.032924	1.000000	-0.000027	0.000048	0.000049	177.462123	-75.016259	173.291741
47789	9.519620	0.081129	-2.529361	-0.019985	-0.028691	0.037500	1.000000	0.000009	0.000032	0.000012	177.453087	-75.017181	173.303279
47790	9.511546	0.138904	-2.539294	0.000784	0.026412	0.032927	1.000000	-0.000006	0.000020	0.000044	177.456370	-75.016836	173.301369
47791	9.519869	0.079876	-2.528464	-0.021085	-0.029857	0.037495	1.000000	-0.000017	0.000023	0.000037	177.455510	-75.016902	173.301302
47792	9.523793	0.112165	-2.518335	-0.026597	0.003693	0.039038	1.000000	-0.000004	0.000025	0.000035	177.455083	-75.017089	173.303623
47793	9.511942	0.136878	-2.537921	-0.000874	0.024663	0.032932	1.000000	-0.000012	0.000028	0.000040	177.455882	-75.017735	173.302508
47794	9.545693	0.105371	-2.507522	-0.043568	-0.000610	0.057324	1.000000	-0.000025	0.000013	0.000044	177.457081	-75.016638	173.300072
47795	9.502500	0.115655	-2.527000	-0.012383	0.005078	0.020747	1.000000	0.000015	0.000023	0.000016	177.450473	-75.016596	173.309734
47796	9.524290	0.109557	-2.516569	-0.028802	0.001354	0.039033	1.000000	-0.000016	0.000031	0.000057	177.457855	-75.017671	173.304505
47797	9.518306	0.121210	-2.556012	0.012281	0.006618	0.043572	1.000000	0.000004	0.000021	0.000030	177.456165	-75.017491	173.307841
47798	9.512551	0.133617	-2.535813	-0.003645	0.021749	0.032938	1.000000	-0.000015	0.000015	0.000030	177.452412	-75.016490	173.310747
47799	9.524624	0.107574	-2.515391	-0.030463	-0.000399	0.039028	1.000000	-0.000006	0.000020	0.000044	177.455640	-75.016172	173.307756
47800	9.534395	0.126753	-2.525207	-0.020620	0.017437	0.051222	1.000000	-0.000020	0.000018	0.000047	177.458503	-75.015667	173.303395
47801	9.509046	0.098458	-2.544442	-0.000328	-0.014132	0.031378	1.000000	-0.000006	0.000020	0.000044	177.461732	-75.015348	173.300401
47802	9.497179	0.123074	-2.564188	0.025390	0.006856	0.025297	1.000000	-0.000033	0.000016	0.000049	177.464196	-75.014693	173.295630
47803	9.513074	0.130026	-2.534038	-0.006398	0.018835	0.032942	1.000000	0.000015	0.000023	0.000016	177.457594	-75.014650	173.305285
47804	9.503545	0.109367	-2.523347	-0.017342	-0.000167	0.020741	1.000000	-0.000016	0.000031	0.000057	177.464993	-75.015706	173.299577
47805	9.525046	0.102732	-2.572818	0.023227	-0.013757	0.054212	1.000000	-0.000007	0.000011	0.000025	177.459987	-75.014365	173.305004
47806	9.519289	0.115031	-2.552635	0.007309	0.001374	0.043579	1.000000	-0.000014	0.000023	0.000049	177.464522	-75.014439	173.299582
47807	9.509747	0.094393	-2.541973	-0.003626	-0.017627	0.031372	1.000000	-0.000015	0.000028	0.000028	177.460002	-75.015055	173.303600
47808	9.529245	0.133809	-2.561838	0.016602	0.018624	0.055788	1.000000	0.000004	0.000021	0.000030	177.458392	-75.014921	173.305798
47809	9.510011	0.093220	-2.541028	-0.004714	-0.018792	0.031369	1.000000	-0.000012	0.000028	0.000040	177.459203	-75.015566	173.304667
47810	9.529502	0.132445	-2.560955	0.015503	0.017457	0.055792	1.000000	-0.000012	0.000015	0.000041	177.460831	-75.014680	173.300043
47811	9.498525	0.117721	-2.500551	-0.036537	0.011470	0.010099	1.000000	-0.000017	0.000023	0.000038	177.459983	-75.014745	173.299960
47812	9.520059	0.111132	-2.549934	0.004022	-0.002126	0.043580	1.000000	-0.000012	0.000028	0.000040	177.460823	-75.015391	173.298032
47813	9.498556	0.115951	-2.559416	0.019356	0.000458	0.025313	1.000000	-0.000023	0.000018	0.000035	177.458315	-75.014875	173.298997
47814	9.526146	0.096990	-2.568965	0.018289	-0.019006	0.054214	1.000000	0.000004	0.000021	0.000030	177.456692	-75.014706	173.301093
47815	9.508483	0.134746	-2.568777	0.028637	0.017708	0.037535	1.000000	-0.000017	0.000023	0.000038	177.455846	-75.014771	173.301006
47816	9.504779	0.101167	-2.577978	0.033075	-0.017000	0.035949	1.000000	-0.000012	0.000028	0.000040	177.456684	-75.015405	173.302354
47817	9.508802	0.133428	-2.567666	0.027535	0.016544	0.037540	1.000000	-0.000017	0.000037	0.000036	177.455079	-75.017014	173.303086
47818	9.515050	0.120407	-2.527084	-0.014643	0.010088	0.032946	1.000000	-0.000001	0.000030	0.000026	177.451013	-75.017765	173.308937
47819	9.530760	0.126722	-2.556558	0.010541	0.012202	0.055807	1.000000	-0.000022	0.000026	0.000054	177.456750	-75.018272	173.301466
47820	9.493729	0.124110	-2.535965	0.000151	0.012100	0.014686	1.000000	-0.000005	0.000028	0.000063	177.468261	-75.018989	173.289870
47821	9.515529	0.117867	-2.525400	-0.016289	0.008336	0.032946	1.000000	-0.000006	0.000039	0.000022	177.461742	-75.020735	173.296927
47822	9.509832	0.130327	-2.504976	-0.032199	0.023466	0.022312	1.000000	0.000004	0.000021	0.000030	177.460066	-75.020567	173.298819
47823	9.527713	0.091225	-2.504314	-0.043643	-0.014428	0.038968	1.000000	-0.000014	0.000023	0.000049	177.464561	-75.020660	173.293572
47824	9.506230	0.095905	-2.513765	-0.028297	-0.011826	0.020709	1.000000	-0.000012	0.000028	0.000040	177.465415	-75.021310	173.292037
47825	9.527813	0.089238	-2.563055	0.012244	-0.025430	0.054209	1.000000	-0.000019	0.000031	0.000045	177.467489	-75.022368	173.288657
47826	9.522060	0.101517	-2.542853	-0.003661	-0.010299	0.043575	1.000000	-0.000023	0.000005	0.000036	177.465769	-75.020351	173.287232
47827	9.506588	0.093824	-2.512486	-0.029934	-0.013577	0.020701	1.000000	-0.000006	0.000033	0.000043	177.468261	-75.021574	173.285028
47828	9.526157	0.132902	-2.532369	-0.009757	0.022659	0.045183	1.000000	-0.000001	0.000011	0.000048	177.473996	-75.020329	173.278750
47829	9.516540	0.112135	-2.521846	-0.020665	0.003666	0.032940	1.000000	-0.000012	0.000028	0.000040	177.474825	-75.020972	173.277597
47830	9.516681	0.111577	-2.521338	-0.021209	0.003082	0.032939	1.000000	-0.000007	0.000025	0.000023	177.469094	-75.021204	173.283987
47831	9.553993	0.112510	-2.540984	-0.011941	0.001992	0.074066	1.000000	-0.000020	0.000018	0.000047	177.471930	-75.020717	173.279784
47832	9.516913	0.110379	-2.520515	-0.022309	0.001913	0.032937	1.000000	-0.000007	0.000025	0.000023	177.466190	-75.020911	173.286166
47833	9.517033	0.109771	-2.520091	-0.022858	0.001329	0.032936	1.000000	-0.000006	0.000020	0.000044	177.469443	-75.020590	173.283139
47834	9.511124	0.121560	-2.559642	0.018200	0.006640	0.037574	1.000000	-0.000031	0.000022	0.000040	177.468245	-75.020433	173.281700
47835	9.526987	0.128461	-2.529475	-0.013616	0.018569	0.045187	1.000000	-0.000001	0.000016	0.000027	177.464915	-75.019670	173.286057
47836	9.495725	0.113373	-2.528983	-0.008611	0.002786	0.014689	1.000000	-0.000012	0.000015	0.000041	177.466539	-75.018763	173.284207
47837	9.533009	0.114164	-2.548752	0.000644	0.001685	0.055820	1.000000	-0.000012	0.000015	0.000041	177.468130	-75.017862	173.282231
47838	9.527234	0.126293	-2.528654	-0.015263	0.016817	0.045188	1.000000	-0.000001	0.000011	0.000048	177.473826	-75.016609	173.277490
47839	9.527321	0.125554	-2.528360	-0.015814	0.016232	0.045188	1.000000	-0.000009	0.000020	0.000032	177.471747	-75.016260	173.279613
47840	9.517537	0.104546	-2.577594	0.030271	-0.012573	0.048213	1.000000	-0.000004	0.000025	0.000035	177.471376	-75.016499	173.279246
47841	9.521548	0.136869	-2.567489	0.024701	0.020964	0.049846	1.000000	-0.000001	0.000016	0.000027	177.468050	-75.015736	173.283599
47842	9.527628	0.123784	-2.527293	-0.017474	0.014479	0.045188	1.000000	-0.000018	0.000010	0.000039	177.467957	-75.014190	173.283996
47843	9.502213	0.095744	-2.546644	0.002910	-0.017009	0.025317	1.000000	-0.000017	0.000023	0.000038	177.467130	-75.014254	173.283884
47844	9.533664	0.109665	-2.546498	-0.003210	-0.002409	0.055819	1.000000	-0.000007	0.000011	0.000025	177.462125	-75.012929	173.288808
47845	9.506278	0.127447	-2.536384	-0.003209	0.015943	0.026954	1.000000	-0.000001	0.000011	0.000048	177.467804	-75.011642	173.283902
47846	9.518265	0.101194	-2.515791	-0.030007	-0.006264	0.032915	1.000000	-0.000011	0.000042	0.000039	177.467914	-75.013825	173.284769
47847	9.512446	0.112930	-2.555121	0.011054	-0.000939	0.037586	1.000000	-0.000014	0.000023	0.000049	177.472425	-75.013916	173.279498
47848	9.543941	0.126723	-2.554828	0.004934	0.013653	0.068093	1.000000	0.000007	0.000027	0.000021	177.467132	-75.014366	173.288631
47849	9.506856	0.124614	-2.534358	-0.005393	0.013610	0.026956	1.000000	-0.000006	0.000019	0.000044	177.470395	-75.014044	173.285590
47850	9.497078	0.103384	-2.583606	0.040698	-0.015176	0.029991	1.000000	-0.000001	0.000024	0.000047	177.475332	-75.014288	173.282430
47851	9.522692	0.130001	-2.563601	0.019195	0.015128	0.049869	1.000000	-0.000018	0.000010	0.000039	177.475261	-75.012808	173.281500
47852	9.507204	0.122483	-2.533154	-0.007046	0.011860	0.026958	1.000000	-0.000007	0.000039	0.000022	177.468770	-75.014541	173.290694
47853	9.513187	0.108886	-2.552536	0.007769	-0.004440	0.037589	1.000000	-0.000001	0.000011	0.000048	177.474455	-75.013254	173.285780
47854	9.485862	0.126640	-2.542237	0.007775	0.013931	0.008734	1.000000	-0.000023	0.000032	0.000034	177.471245	-75.014274	173.288941
47855	9.519437	0.095023	-2.511595	-0.034936	-0.011529	0.032894	1.000000	0.000002	0.000030	0.000038	177.472512	-75.015082	173.288939
47856	9.519473	0.093877	-2.570845	0.021494	-0.021905	0.048219	1.000000	-0.000012	0.000028	0.000040	177.473394	-75.015781	173.286705
47857	9.523534	0.126134	-2.560663	0.015898	0.011627	0.049879	1.000000	-0.000009	0.000020	0.000032	177.471326	-75.015431	173.288815
47858	9.529638	0.112934	-2.520211	-0.026259	0.005115	0.045178	1.000000	-0.000006	0.000033	0.000043	177.473815	-75.016637	173.286194
47859	9.520030	0.092204	-2.509453	-0.037124	-0.013869	0.032883	1.000000	-0.000006	0.000033	0.000043	177.476336	-75.017858	173.283954
47860	9.508364	0.117011	-2.529058	-0.011437	0.007193	0.026958	1.000000	-0.000023	0.000018	0.000035	177.473871	-75.017316	173.284357
47861	9.524093	0.123365	-2.558720	0.013690	0.009290	0.049885	1.000000	-0.000012	0.000015	0.000041	177.475474	-75.016414	173.282362
47862	9.530150	0.110148	-2.518397	-0.028468	0.002776	0.045173	1.000000	-0.000004	0.000025	0.000035	177.475071	-75.016609	173.282452
47863	9.518498	0.134949	-2.537987	-0.002779	0.023839	0.039258	1.000000	-0.000012	0.000028	0.000040	177.475925	-75.017251	173.281266
47864	9.493102	0.106948	-2.557218	0.017645	-0.007604	0.019374	1.000000	0.000004	0.000021	0.000030	177.474288	-75.017010	173.284243
47865	9.514798	0.100830	-2.546854	0.001166	-0.011441	0.037586	1.000000	-0.000009	0.000020	0.000032	177.472224	-75.016659	173.286347
47866	9.514911	0.100122	-2.546460	0.000615	-0.012024	0.037585	1.000000	-0.000028	0.000021	0.000052	177.476346	-75.016569	173.280894
47867	9.515041	0.099365	-2.546006	0.000066	-0.012608	0.037585	1.000000	0.000010	0.000026	0.000032	177.476373	-75.016961	173.283111
47868	9.540693	0.126229	-2.525877	-0.021477	0.017662	0.057472	1.000000	0.000009	0.000018	0.000013	177.468157	-75.016327	173.292731
47869	9.503594	0.124139	-2.505410	-0.031759	0.017660	0.016324	1.000000	-0.000016	0.000031	0.000057	177.475605	-75.017409	173.284144
47870	9.509581	0.110402	-2.524775	-0.016949	0.001361	0.026953	1.000000	-0.000009	0.000020	0.000032	177.473576	-75.017032	173.285774
47871	9.509614	0.109299	-2.584200	0.039463	-0.009001	0.042319	1.000000	-0.000006	0.000019	0.000044	177.476855	-75.016708	173.282711
47872	9.503948	0.121977	-2.504173	-0.033408	0.015911	0.016322	1.000000	-0.000009	0.000020	0.000032	177.474786	-75.016361	173.282933
47873	9.525559	0.115331	-2.553632	0.007065	0.002283	0.049896	1.000000	-0.000020	0.000018	0.000047	177.477646	-75.015873	173.278694
47874	9.510032	0.107698	-2.523193	-0.019142	-0.000974	0.026949	1.000000	0.000012	0.000031	0.000023	177.474043	-75.016820	173.285488
47875	9.510122	0.106571	-2.582444	0.037267	-0.011332	0.042325	1.000000	-0.000022	0.000026	0.000054	177.479826	-75.017324	173.277953
47876	9.541673	0.120587	-2.522449	-0.025896	0.012979	0.057468	1.000000	0.000004	0.000008	0.000031	177.478944	-75.015539	173.280110
47877	9.504421	0.118018	-2.562116	0.020798	0.003222	0.031699	1.000000	-0.000028	0.000008	0.000053	177.483802	-75.013921	173.272826
47878	9.516291	0.091922	-2.541609	-0.005991	-0.019025	0.037572	1.000000	0.000001	0.000035	0.000017	177.476122	-75.015213	173.281340
47879	9.526280	0.111217	-2.551122	0.003750	-0.001218	0.049898	1.000000	-0.000009	0.000028	0.000052	177.482329	-75.015880	173.274974
47880	9.526442	0.110361	-2.550554	0.003200	-0.001803	0.049898	1.000000	-0.000020	0.000031	0.000045	177.484429	-75.016935	173.271607
47881	9.520769	0.122656	-2.530082	-0.012712	0.013331	0.039270	1.000000	-0.000009	0.000033	0.000031	177.481629	-75.018127	173.274505
47882	9.526764	0.109005	-2.549410	0.002088	-0.002972	0.049898	1.000000	-0.000028	0.000021	0.000052	177.485730	-75.017983	173.269274
47883	9.515178	0.133694	-2.568985	0.027768	0.018117	0.044040	1.000000	-0.000006	0.000033	0.000043	177.488274	-75.019201	173.267004
47884	9.505482	0.113224	-2.558392	0.016942	-0.000856	0.031707	1.000000	0.000009	0.000018	0.000013	177.480043	-75.018613	173.278982
47885	9.527148	0.106988	-2.548059	0.000445	-0.004727	0.049898	1.000000	-0.000017	0.000018	0.000058	177.488253	-75.018149	173.269566
47886	9.537114	0.126049	-2.557725	0.010180	0.013077	0.062236	1.000000	-0.000012	0.000028	0.000040	177.489150	-75.018819	173.266414
47887	9.521589	0.118454	-2.527195	-0.016012	0.009824	0.039269	1.000000	-0.000023	0.000032	0.000034	177.485933	-75.019848	173.268133
47888	9.521739	0.117864	-2.526655	-0.016557	0.009241	0.039269	1.000000	-0.000004	0.000025	0.000035	177.485611	-75.020101	173.268500
47889	9.506170	0.109809	-2.555985	0.014208	-0.003770	0.031710	1.000000	0.000002	0.000030	0.000038	177.486908	-75.020904	173.268459
47890	9.500451	0.122014	-2.535687	-0.001698	0.011367	0.021083	1.000000	0.000015	0.000018	0.000036	177.489367	-75.020354	173.268687
47891	9.518132	0.082701	-2.535022	-0.013113	-0.026620	0.037548	1.000000	-0.000022	0.000026	0.000055	177.495166	-75.020856	173.261130
47892	9.528119	0.101957	-2.544632	-0.003397	-0.008817	0.049894	1.000000	-0.000007	0.000025	0.000023	177.489448	-75.021013	173.268457
47893	9.516541	0.127382	-2.504515	-0.034670	0.022038	0.028638	1.000000	-0.000023	0.000018	0.000035	177.486977	-75.020499	173.269367
47894	9.522538	0.113839	-2.523826	-0.019872	0.005735	0.039265	1.000000	-0.000003	0.000038	0.000034	177.485861	-75.022187	173.270314
47895	9.516840	0.125686	-2.563226	0.021165	0.011118	0.044066	1.000000	-0.000006	0.000019	0.000044	177.489157	-75.021861	173.267226
47896	9.511116	0.137912	-2.542954	0.005249	0.026257	0.033441	1.000000	-0.000004	0.000025	0.000035	177.488809	-75.022057	173.267843
47897	9.518920	0.078905	-2.532185	-0.016429	-0.030122	0.037533	1.000000	-0.000009	0.000020	0.000032	177.486762	-75.021705	173.269923
47898	9.501485	0.116810	-2.532056	-0.006125	0.006705	0.021086	1.000000	-0.000009	0.000020	0.000032	177.484681	-75.021296	173.273467
47899	9.529019	0.097724	-2.541429	-0.007273	-0.012909	0.049888	1.000000	-0.000001	0.000030	0.000026	177.480640	-75.022072	173.278585
47900	9.533156	0.129988	-2.531248	-0.012916	0.020610	0.051621	1.000000	-0.000012	0.000015	0.000042	177.482282	-75.021215	173.276038
47901	9.501812	0.114854	-2.530917	-0.007763	0.004955	0.021085	1.000000	-0.000001	0.000011	0.000048	177.487999	-75.019921	173.271077
47902	9.517659	0.120942	-2.560410	0.017310	0.007035	0.044078	1.000000	-0.000014	0.000036	0.000048	177.491837	-75.021564	173.265204
47903	9.507984	0.100298	-2.549620	0.006503	-0.011931	0.031712	1.000000	-0.000017	0.000037	0.000036	177.490306	-75.023170	173.265843
47904	9.523837	0.107052	-2.519220	-0.025370	-0.000109	0.039254	1.000000	-0.000009	0.000020	0.000033	177.488323	-75.022828	173.267684
47905	9.508239	0.099031	-2.548720	0.005408	-0.013096	0.031711	1.000000	-0.000020	0.000018	0.000047	177.491204	-75.022338	173.263414
47906	9.512411	0.131343	-2.538451	-0.000251	0.020423	0.033456	1.000000	0.000001	0.000035	0.000017	177.483498	-75.023653	173.272469
47907	9.496843	0.123367	-2.567857	0.030528	0.007441	0.025918	1.000000	-0.000023	0.000013	0.000056	177.490049	-75.022611	173.264091
47908	9.496941	0.122600	-2.567532	0.029974	0.006858	0.025920	1.000000	0.000004	0.000021	0.000030	177.488416	-75.022390	173.265877
47909	9.530213	0.090773	-2.537207	-0.012765	-0.018755	0.049873	1.000000	-0.000012	0.000001	0.000043	177.490784	-75.019941	173.263042
47910	9.497104	0.121282	-2.566992	0.028873	0.005694	0.025924	1.000000	-0.000009	0.000033	0.000031	177.488007	-75.021114	173.264817
47911	9.508904	0.095066	-2.546389	0.002105	-0.016596	0.031707	1.000000	-0.000006	0.000019	0.000044	177.491314	-75.020785	173.261713
47912	9.534609	0.121580	-2.526187	-0.019548	0.013592	0.051623	1.000000	-0.000004	0.000025	0.000035	177.490941	-75.020912	173.263436
47913	9.519034	0.113641	-2.555629	0.011235	0.000617	0.044089	1.000000	-0.000009	0.000020	0.000033	177.488903	-75.020559	173.265504
47914	9.509262	0.093118	-2.545122	0.000445	-0.018347	0.031704	1.000000	-0.000004	0.000025	0.000035	177.488510	-75.020796	173.267822
47915	9.525123	0.099346	-2.574634	0.025498	-0.016275	0.054716	1.000000	-0.000006	0.000019	0.000044	177.491820	-75.020468	173.264715
