// Start Time: Unknown
// Update Rate: 100.0Hz
// Filter Profile: human (46.1)
// Firmware Version: 4.4.0
PacketCounter	Acc_X	Acc_Y	Acc_Z	FreeAcc_X	FreeAcc_Y	FreeAcc_Z	OriInc_q0	OriInc_q1	OriInc_q2	OriInc_q3	Roll	Pitch	Yaw
15313	1.121524	-1.245881	9.654937	0.000000	0.000000	-0.013307	1.000000	-0.000047	0.000026	0.000023	-7.350035	-6.573463	58.803705
15314	1.121053	-1.246887	9.654862	-0.000000	0.000000	-0.013307	1.000000	-0.000052	0.000017	0.000019	-7.355687	-6.570163	59.636484
15315	1.120718	-1.247835	9.654779	0.001244	-0.001846	-0.013307	1.000000	-0.000042	0.000013	0.000018	-7.355028	-6.571766	59.191719
15316	1.105377	-1.235813	9.668979	-0.019732	-0.008281	-0.002601	1.000000	-0.000055	0.000024	0.000021	-7.361560	-6.568721	59.193810
15317	1.134735	-1.262851	9.640344	0.022216	0.004527	-0.024014	1.000000	-0.000047	0.000023	0.000031	-7.367128	-6.565991	59.197019
15318	1.104298	-1.237816	9.668847	-0.019737	-0.008343	-0.002601	1.000000	-0.000047	0.000029	0.000016	-7.372703	-6.562445	59.198384
15319	1.118717	-1.251854	9.654490	0.001239	-0.001907	-0.013307	1.000000	-0.000054	0.000018	0.000036	-7.379394	-6.559883	59.202274
15320	1.098975	-1.263991	9.644460	0.002571	-0.023865	-0.023895	1.000000	-0.000037	0.000024	0.000015	-7.383759	-6.556883	59.203620
15321	1.102772	-1.240648	9.668658	-0.019739	-0.008330	-0.002601	1.000000	-0.000047	0.000026	0.000023	-7.389456	-6.553527	59.205888
15322	1.122703	-1.247712	9.695686	-0.008650	0.005116	0.027205	1.000000	-0.000039	0.000028	0.000025	-7.394229	-6.549970	59.208327
15323	1.115349	-1.238008	9.637172	-0.011168	0.006632	-0.032525	1.000000	-0.000045	0.000022	0.000013	-7.399439	-6.547113	59.209491
15324	1.132254	-1.286861	9.657014	0.034649	-0.003959	-0.004797	1.000000	-0.000065	0.000026	0.000030	-7.407258	-6.543763	59.212497
15325	1.114248	-1.240250	9.637011	-0.011170	0.006643	-0.032525	1.000000	-0.000047	0.000029	0.000016	-7.412881	-6.540168	59.213864
15326	1.149313	-1.260347	9.649729	0.020894	0.026523	-0.013426	1.000000	-0.000041	0.000003	0.000040	-7.418105	-6.539204	59.218439
15327	1.113438	-1.242180	9.636856	-0.011182	0.006624	-0.032525	1.000000	-0.000058	0.000034	0.000016	-7.424892	-6.535236	59.219818
15328	1.133295	-1.249427	9.663873	-0.000093	0.020070	-0.002720	1.000000	-0.000047	0.000029	0.000016	-7.430467	-6.531688	59.221178
15329	1.113511	-1.261538	9.653832	0.001239	-0.001934	-0.013307	1.000000	-0.000044	0.000019	0.000021	-7.435650	-6.529414	59.223229
15330	1.111833	-1.245048	9.636671	-0.011181	0.006579	-0.032525	1.000000	-0.000045	0.000022	0.000013	-7.440896	-6.526668	59.224395
15331	1.099000	-1.267777	9.685065	-0.007306	-0.016932	0.016616	1.000000	-0.000050	0.000011	0.000016	-7.446564	-6.525438	59.226068
15332	1.130163	-1.235878	9.646507	-0.012502	0.028488	-0.021937	1.000000	-0.000055	0.000043	0.000038	-7.453283	-6.519971	59.229806
15333	1.096552	-1.252449	9.667844	-0.019688	-0.008480	-0.002601	1.000000	-0.000042	0.000016	0.000011	-7.457819	-6.518221	59.230735
15334	1.124780	-1.261932	9.622106	0.009844	0.012903	-0.043231	1.000000	-0.000047	0.000023	0.000031	-7.463549	-6.515160	59.233893
15335	1.113657	-1.225643	9.660628	-0.033387	0.021921	-0.011230	1.000000	-0.000037	0.000024	0.000015	-7.467435	-6.512350	59.235183
15336	1.114478	-1.244018	9.677636	-0.020966	0.013408	0.007988	1.000000	-0.000060	0.000012	0.000024	-7.474593	-6.510601	59.237796
15337	1.108475	-1.251787	9.636185	-0.010956	0.006284	-0.032524	1.000000	-0.000039	0.000028	0.000025	-7.478400	-6.507246	59.240118
15338	1.109181	-1.270044	9.653215	0.001465	-0.002229	-0.013308	1.000000	-0.000044	0.000019	0.000021	-7.483720	-6.504743	59.242181
15339	1.112928	-1.246781	9.677459	-0.020722	0.013156	0.007988	1.000000	-0.000042	0.000035	0.000028	-7.487800	-6.500715	59.244693
15340	1.112460	-1.247607	9.677406	-0.020722	0.013155	0.007988	1.000000	-0.000039	0.000009	0.000008	-7.492384	-6.499578	59.245470
15341	1.125827	-1.244061	9.645962	-0.012005	0.027961	-0.021935	1.000000	-0.000047	0.000023	0.000031	-7.496869	-6.496752	59.248464
15342	1.109045	-1.214731	9.643117	-0.045404	0.030038	-0.030444	1.000000	-0.000058	0.000037	0.000009	-7.503580	-6.492419	59.248936
15343	1.124551	-1.246169	9.645839	-0.011746	0.027734	-0.021934	1.000000	-0.000047	0.000026	0.000023	-7.507235	-6.489469	59.250956
15344	1.110217	-1.251479	9.677163	-0.020301	0.012783	0.007990	1.000000	-0.000039	0.000031	0.000017	-7.511936	-6.485671	59.252486
15345	1.090363	-1.263524	9.667102	-0.018724	-0.009518	-0.002600	1.000000	-0.000047	0.000023	0.000031	-7.515395	-6.483614	59.255347
15346	1.113399	-1.229199	9.701366	-0.042365	0.027957	0.029289	1.000000	-0.000047	0.000029	0.000016	-7.520981	-6.480087	59.256704
15347	1.103044	-1.261049	9.635600	-0.009790	0.005086	-0.032523	1.000000	-0.000052	0.000017	0.000019	-7.524188	-6.478429	59.258259
15348	1.108084	-1.255268	9.676917	-0.019675	0.012085	0.007992	1.000000	-0.000039	0.000028	0.000025	-7.528963	-6.474899	59.260691
15349	1.154228	-1.236119	9.624169	-0.003519	0.063740	-0.041261	1.000000	-0.000047	0.000029	0.000016	-7.531985	-6.471229	59.261735
15350	1.126187	-1.246102	9.686817	-0.020625	0.033832	0.018585	1.000000	-0.000063	0.000025	0.000012	-7.539341	-6.468205	59.262737
15351	1.109594	-1.216791	9.683966	-0.053566	0.035464	0.010085	1.000000	-0.000044	0.000016	0.000028	-7.541082	-6.466824	59.265323
15352	1.110342	-1.235229	9.700950	-0.041144	0.026945	0.029297	1.000000	-0.000055	0.000024	0.000021	-7.547627	-6.463785	59.267400
15353	1.119220	-1.255931	9.645193	-0.009708	0.025785	-0.021926	1.000000	-0.000047	0.000026	0.000023	-7.548517	-6.461740	59.269144
15354	1.105069	-1.261295	9.676478	-0.018257	0.010825	0.007996	1.000000	-0.000042	0.000009	0.000025	-7.553586	-6.460303	59.271913
15355	1.099141	-1.268820	9.635026	-0.007923	0.003322	-0.032520	1.000000	-0.000039	0.000025	0.000032	-7.554609	-6.458152	59.274703
15356	1.121051	-1.217260	9.652253	-0.043983	0.049310	-0.019828	1.000000	-0.000071	0.000020	0.000018	-7.562915	-6.455634	59.276428
15357	1.121862	-1.235811	9.669208	-0.031013	0.040172	-0.000613	1.000000	-0.000042	0.000016	0.000011	-7.563227	-6.455179	59.276797
15358	1.130846	-1.256232	9.613465	-0.000173	0.039613	-0.051844	1.000000	-0.000037	0.000028	0.000007	-7.567525	-6.451967	59.277235
15359	1.120860	-1.237625	9.669092	-0.030386	0.039575	-0.000608	1.000000	-0.000065	0.000026	0.000030	-7.570381	-6.449685	59.279767
15360	1.135306	-1.251710	9.654703	-0.009418	0.046012	-0.011322	1.000000	-0.000044	0.000019	0.000021	-7.575716	-6.447202	59.281826
15361	1.134813	-1.252643	9.654639	-0.008874	0.045081	-0.011317	1.000000	-0.000047	0.000026	0.000023	-7.575815	-6.446975	59.283280
15362	1.098876	-1.234399	9.641783	-0.040954	0.025205	-0.030410	1.000000	-0.000055	0.000024	0.000021	-7.582354	-6.443972	59.285359
15363	1.119951	-1.259187	9.685848	-0.016745	0.029187	0.018607	1.000000	-0.000047	0.000029	0.000016	-7.581753	-6.443040	59.286064
15364	1.122671	-1.218632	9.693087	-0.051478	0.053213	0.020720	1.000000	-0.000050	0.000011	0.000016	-7.587626	-6.441653	59.287760
15365	1.113594	-1.267775	9.644295	-0.006103	0.021400	-0.021913	1.000000	-0.000047	0.000029	0.000016	-7.586854	-6.439734	59.288685
15366	1.117273	-1.244494	9.668625	-0.028401	0.036901	-0.000592	1.000000	-0.000032	0.000033	0.000019	-7.590670	-6.435717	59.290390
15367	1.115446	-1.227964	9.651547	-0.039947	0.044530	-0.019787	1.000000	-0.000057	0.000028	0.000031	-7.590375	-6.433960	59.293161
15368	1.096812	-1.257564	9.658453	-0.026185	0.014042	-0.011193	1.000000	-0.000045	0.000022	0.000013	-7.595581	-6.431248	59.294319
15369	1.130512	-1.260337	9.654143	-0.005764	0.041303	-0.011298	1.000000	-0.000047	0.000026	0.000023	-7.593868	-6.431343	59.295735
15370	1.115006	-1.248340	9.668391	-0.026727	0.034841	-0.000580	1.000000	-0.000047	0.000026	0.000023	-7.599450	-6.428100	59.297988
15371	1.101837	-1.271255	9.716699	-0.022228	0.010550	0.048539	1.000000	-0.000047	0.000026	0.000023	-7.599794	-6.426943	59.299553
15372	1.117128	-1.208721	9.675613	-0.060861	0.058080	0.001557	1.000000	-0.000044	0.000016	0.000028	-7.605137	-6.424741	59.302513
15373	1.094275	-1.262188	9.658137	-0.024097	0.011052	-0.011184	1.000000	-0.000037	0.000021	0.000022	-7.602815	-6.425129	59.303884
15374	1.118361	-1.245391	9.709570	-0.035265	0.039945	0.039959	1.000000	-0.000053	0.000043	0.000021	-7.608982	-6.420050	59.305620
15375	1.126069	-1.248628	9.636751	-0.016337	0.046781	-0.030479	1.000000	-0.000060	0.000012	0.000024	-7.609796	-6.422644	59.306923
15376	1.110674	-1.236752	9.650975	-0.037304	0.040308	-0.019759	1.000000	-0.000047	0.000029	0.000016	-7.615305	-6.419216	59.308282
15377	1.110182	-1.237752	9.650903	-0.036442	0.039311	-0.019751	1.000000	-0.000052	0.000017	0.000019	-7.614125	-6.419405	59.309592
15378	1.129117	-1.227604	9.660898	-0.037760	0.061227	-0.009132	1.000000	-0.000042	0.000013	0.000018	-7.619022	-6.417831	59.311468
15379	1.109356	-1.239701	9.650748	-0.035423	0.038320	-0.019744	1.000000	-0.000058	0.000034	0.000016	-7.617719	-6.415530	59.312512
15380	1.104519	-1.264674	9.626292	-0.013130	0.022797	-0.041088	1.000000	-0.000034	0.000015	0.000020	-7.621690	-6.413694	59.314561
15381	1.112809	-1.217459	9.675015	-0.056864	0.052733	0.001611	1.000000	-0.000052	0.000017	0.000019	-7.620536	-6.414226	59.315798
15382	1.127306	-1.231425	9.660624	-0.035889	0.059152	-0.009112	1.000000	-0.000047	0.000023	0.000031	-7.626106	-6.411290	59.318954
15383	1.126720	-1.232497	9.660555	-0.035225	0.058033	-0.009103	1.000000	-0.000058	0.000031	0.000024	-7.626251	-6.411096	59.320095
15384	1.121857	-1.257570	9.636079	-0.012935	0.042509	-0.030454	1.000000	-0.000044	0.000019	0.000021	-7.631411	-6.408742	59.322162
15385	1.139533	-1.229836	9.629108	-0.025296	0.072194	-0.039003	1.000000	-0.000037	0.000021	0.000022	-7.626262	-6.405750	59.325148
15386	1.119840	-1.241823	9.618949	-0.023956	0.050221	-0.049632	1.000000	-0.000052	0.000017	0.000019	-7.632249	-6.403594	59.327028
15387	1.111218	-1.240905	9.691581	-0.041624	0.040723	0.020826	1.000000	-0.000058	0.000009	0.000014	-7.631320	-6.407647	59.327191
15388	1.125734	-1.254942	9.677171	-0.020642	0.047137	0.010099	1.000000	-0.000050	0.000030	0.000033	-7.637141	-6.403919	59.330537
15389	1.119705	-1.262377	9.635701	-0.009843	0.039131	-0.030436	1.000000	-0.000037	0.000021	0.000022	-7.633371	-6.403648	59.332358
15390	1.109645	-1.243738	9.691398	-0.040592	0.039555	0.020835	1.000000	-0.000048	0.000036	0.000001	-7.638515	-6.399745	59.331910
15391	1.122848	-1.240213	9.660018	-0.031428	0.053419	-0.009064	1.000000	-0.000055	0.000024	0.000021	-7.638294	-6.400490	59.333169
15392	1.123490	-1.258889	9.676919	-0.018948	0.044820	0.010114	1.000000	-0.000063	0.000022	0.000019	-7.645442	-6.397836	59.335068
15393	1.136850	-1.255422	9.645515	-0.009479	0.058917	-0.019786	1.000000	-0.000044	0.000019	0.000021	-7.643092	-6.397031	59.337000
15394	1.102139	-1.254484	9.649665	-0.029089	0.030477	-0.019695	1.000000	-0.000047	0.000026	0.000023	-7.648450	-6.393848	59.339248
15395	1.141362	-1.250926	9.686788	-0.018661	0.065245	0.020765	1.000000	-0.000060	0.000015	0.000017	-7.650914	-6.392763	59.340520
15396	1.120462	-1.245614	9.659601	-0.029774	0.051830	-0.009050	1.000000	-0.000050	0.000030	0.000033	-7.656704	-6.388985	59.343855
15397	1.119900	-1.246510	9.659550	-0.028949	0.050263	-0.009040	1.000000	-0.000037	0.000021	0.000022	-7.652241	-6.391675	59.345383
15398	1.119459	-1.247294	9.659500	-0.028916	0.050217	-0.009039	1.000000	-0.000042	0.000022	-0.000004	-7.656703	-6.389365	59.344547
15399	1.124393	-1.241794	9.700859	-0.037924	0.055808	0.031520	1.000000	-0.000058	0.000028	0.000031	-7.655650	-6.389998	59.346968
15400	1.118358	-1.249362	9.659361	-0.028084	0.048853	-0.009030	1.000000	-0.000047	0.000026	0.000023	-7.660968	-6.386836	59.349217
15401	1.131621	-1.245754	9.627995	-0.019024	0.062677	-0.038924	1.000000	-0.000047	0.000026	0.000023	-7.660129	-6.387906	59.350575
15402	1.117350	-1.251224	9.659236	-0.027480	0.047593	-0.009022	1.000000	-0.000042	0.000016	0.000010	-7.664713	-6.386124	59.351543
15403	1.130842	-1.247666	9.627838	-0.018348	0.060912	-0.038911	1.000000	-0.000060	0.000015	0.000017	-7.663363	-6.390902	59.351923
15404	1.101687	-1.240111	9.673411	-0.047754	0.039341	0.001723	1.000000	-0.000018	0.000019	0.000023	-7.665340	-6.388665	59.354332
15405	1.135438	-1.242684	9.669177	-0.027519	0.065562	0.001660	1.000000	-0.000047	0.000023	0.000031	-7.661507	-6.394857	59.355618
15406	1.115675	-1.254737	9.658974	-0.026175	0.043550	-0.009000	1.000000	-0.000053	0.000024	0.000004	-7.667121	-6.392448	59.355721
15407	1.114112	-1.238188	9.641929	-0.037985	0.050092	-0.028148	1.000000	-0.000045	0.000019	0.000020	-7.662986	-6.398294	59.356702
15408	1.135236	-1.263045	9.685935	-0.014327	0.054757	0.020836	1.000000	-0.000042	0.000016	0.000010	-7.667424	-6.396758	59.357701
15409	1.117542	-1.216009	9.666270	-0.060098	0.063748	-0.006737	1.000000	-0.000050	0.000033	0.000026	-7.667785	-6.400907	59.357675
15410	1.112594	-1.240973	9.641746	-0.037813	0.048186	-0.028138	1.000000	-0.000047	0.000026	0.000023	-7.672959	-6.398092	59.359968
15411	1.113144	-1.259389	9.658661	-0.024169	0.038124	-0.008972	1.000000	-0.000039	0.000025	0.000032	-7.667345	-6.398713	59.363773
15412	1.125472	-1.238182	9.610330	-0.028121	0.061645	-0.058015	1.000000	-0.000050	0.000011	0.000016	-7.672672	-6.397770	59.365505
15413	1.115551	-1.219676	9.666038	-0.058359	0.060370	-0.006705	1.000000	-0.000037	0.000028	0.000007	-7.669454	-6.401430	59.364574
15414	1.131048	-1.251093	9.668607	-0.024906	0.058126	0.001714	1.000000	-0.000057	0.000025	0.000039	-7.675899	-6.398627	59.368687
15415	1.129539	-1.234546	9.651569	-0.036210	0.066079	-0.017430	1.000000	-0.000040	0.000012	0.000000	-7.672569	-6.396880	59.369608
15416	1.111106	-1.264029	9.658289	-0.022388	0.035446	-0.008958	1.000000	-0.000052	0.000011	0.000034	-7.678326	-6.395630	59.373329
15417	1.094602	-1.234588	9.655588	-0.055524	0.035595	-0.017362	1.000000	-0.000047	0.000029	0.000016	-7.676590	-6.401181	59.373185
15418	1.125159	-1.278866	9.643806	-0.001121	0.039824	-0.019686	1.000000	-0.000042	0.000013	0.000018	-7.680976	-6.400075	59.375106
15419	1.099198	-1.230009	9.696891	-0.064548	0.039852	0.023221	1.000000	-0.000053	0.000024	0.000004	-7.676047	-6.407536	59.374037
15420	1.108212	-1.250387	9.641035	-0.033787	0.039343	-0.028084	1.000000	-0.000049	0.000023	0.000048	-7.681577	-6.404863	59.379243
15421	1.088356	-1.262413	9.630812	-0.030243	0.015391	-0.038763	1.000000	-0.000047	0.000029	0.000016	-7.669482	-6.404902	59.384011
15422	1.126360	-1.241222	9.651084	-0.032787	0.059027	-0.017373	1.000000	-0.000037	0.000021	0.000022	-7.673066	-6.402858	59.386311
15423	1.110917	-1.229236	9.665360	-0.051701	0.051906	-0.006619	1.000000	-0.000055	0.000024	0.000021	-7.667340	-6.396821	59.391916
15424	1.127559	-1.278244	9.684838	-0.005706	0.041017	0.020912	1.000000	-0.000045	0.000023	0.000013	-7.671626	-6.394706	59.393123
15425	1.124794	-1.244115	9.650895	-0.030468	0.057293	-0.017355	1.000000	-0.000050	0.000033	0.000026	-7.673810	-6.394666	59.393760
15426	1.125343	-1.262698	9.667764	-0.017902	0.048510	0.001781	1.000000	-0.000052	0.000017	0.000019	-7.679076	-6.393069	59.395690
15427	1.122670	-1.228721	9.633799	-0.040895	0.063763	-0.036467	1.000000	-0.000058	0.000028	0.000031	-7.669954	-6.393396	59.401213
15428	1.103880	-1.258278	9.640505	-0.027002	0.033058	-0.028040	1.000000	-0.000039	0.000028	0.000025	-7.673635	-6.390507	59.403690
15429	1.142941	-1.254708	9.677740	-0.015512	0.067197	0.012510	1.000000	-0.000047	0.000023	0.000031	-7.668001	-6.387951	59.409089
15430	1.120921	-1.231683	9.633624	-0.039081	0.062315	-0.036450	1.000000	-0.000058	0.000031	0.000024	-7.673693	-6.384733	59.411393
15431	1.102193	-1.261278	9.640306	-0.023843	0.031132	-0.028025	1.000000	-0.000045	0.000019	0.000020	-7.669626	-6.381245	59.415427
15432	1.082320	-1.273161	9.630078	-0.022413	0.009037	-0.038734	1.000000	-0.000042	0.000038	0.000020	-7.673420	-6.377225	59.417180
15433	1.120255	-1.252040	9.650398	-0.024152	0.050724	-0.017301	1.000000	-0.000045	0.000019	0.000020	-7.667965	-6.382871	59.417939
15434	1.104878	-1.240033	9.664673	-0.044949	0.044007	-0.006547	1.000000	-0.000045	0.000019	0.000020	-7.671977	-6.381031	59.420037
15435	1.153580	-1.255800	9.646105	-0.002950	0.077901	-0.017328	1.000000	-0.000047	0.000023	0.000030	-7.667325	-6.378736	59.425692
15436	1.117793	-1.237257	9.633273	-0.034937	0.057900	-0.036408	1.000000	-0.000045	0.000023	0.000013	-7.671204	-6.376619	59.426884
15437	1.118262	-1.255838	9.650135	-0.021099	0.047189	-0.017276	1.000000	-0.000058	0.000037	0.000009	-7.664771	-6.378883	59.427723
15438	1.116632	-1.239370	9.633136	-0.033449	0.055580	-0.036389	1.000000	-0.000052	0.000017	0.000019	-7.669504	-6.377315	59.429638
15439	1.137698	-1.264648	9.677064	-0.008819	0.059134	0.012570	1.000000	-0.000060	0.000012	0.000024	-7.668725	-6.378354	59.432923
15440	1.150067	-1.243433	9.628802	-0.012749	0.082658	-0.036409	1.000000	-0.000039	0.000028	0.000025	-7.671995	-6.375475	59.435388
15441	1.100356	-1.229460	9.647251	-0.052109	0.046855	-0.025609	1.000000	-0.000045	0.000023	0.000013	-7.668485	-6.373599	59.436938
15442	1.114843	-1.243258	9.632843	-0.031014	0.053135	-0.036367	1.000000	-0.000045	0.000023	0.000013	-7.672170	-6.371511	59.438128
15443	1.113154	-1.226740	9.615866	-0.041841	0.060555	-0.055461	1.000000	-0.000061	0.000038	0.000026	-7.667088	-6.367846	59.443266
15444	1.120022	-1.256642	9.691092	-0.026327	0.049814	0.023353	1.000000	-0.000045	0.000023	0.000013	-7.670688	-6.365732	59.444449
15445	1.132543	-1.235282	9.642844	-0.029024	0.071284	-0.025600	1.000000	-0.000041	0.000003	0.000040	-7.661758	-6.372185	59.449743
15446	1.118240	-1.240987	9.674018	-0.037229	0.055878	0.004269	1.000000	-0.000058	0.000031	0.000024	-7.666872	-6.369018	59.452034
15447	1.098524	-1.252864	9.663743	-0.035398	0.031373	-0.006459	1.000000	-0.000031	0.000011	0.000010	-7.660002	-6.379306	59.451407
15448	1.117482	-1.242732	9.673882	-0.036497	0.052982	0.004287	1.000000	-0.000052	0.000017	0.000019	-7.664402	-6.377847	59.453327
15449	1.131943	-1.256569	9.659466	-0.013593	0.058961	-0.006471	1.000000	-0.000039	0.000028	0.000025	-7.657394	-6.371036	59.459510
15450	1.130398	-1.239919	9.642500	-0.025904	0.067325	-0.025563	1.000000	-0.000052	0.000017	0.000019	-7.661709	-6.369508	59.461417
15451	1.116022	-1.245617	9.673679	-0.033965	0.050054	0.004312	1.000000	-0.000047	0.000026	0.000023	-7.659391	-6.375897	59.461557
15452	1.129345	-1.241817	9.642379	-0.025364	0.064938	-0.025545	1.000000	-0.000039	0.000028	0.000025	-7.662245	-6.373140	59.464026
15453	1.109515	-1.253678	9.632107	-0.021934	0.041183	-0.036285	1.000000	-0.000047	0.000023	0.000030	-7.651379	-6.373148	59.470910
15454	1.114357	-1.248520	9.673497	-0.031378	0.047587	0.004333	1.000000	-0.000063	0.000025	0.000012	-7.656671	-6.370902	59.471935
15455	1.113838	-1.249634	9.673413	-0.029806	0.045616	0.004347	1.000000	-0.000047	0.000023	0.000030	-7.648472	-6.373104	59.476223
15456	1.132541	-1.239757	9.683567	-0.030856	0.067180	0.015112	1.000000	-0.000058	0.000028	0.000031	-7.653265	-6.370325	59.479420
15457	1.141601	-1.259946	9.627663	0.000501	0.065919	-0.036274	1.000000	-0.000045	0.000023	0.000013	-7.651208	-6.370844	59.480208
15458	1.106930	-1.258906	9.631723	-0.018870	0.037193	-0.036263	1.000000	-0.000045	0.000019	0.000020	-7.654354	-6.369178	59.482301
15459	1.115988	-1.229743	9.697742	-0.050380	0.057434	0.025913	1.000000	-0.000044	0.000035	0.000045	-7.652861	-6.372448	59.484454
15460	1.124981	-1.250064	9.641824	-0.019566	0.056973	-0.025482	1.000000	-0.000071	0.000020	0.000017	-7.658958	-6.370795	59.486206
15461	1.109644	-1.238293	9.656082	-0.040346	0.048841	-0.014698	1.000000	-0.000042	0.000016	0.000010	-7.658480	-6.376542	59.484576
15462	1.110276	-1.256697	9.672907	-0.027565	0.039849	0.004379	1.000000	-0.000037	0.000021	0.000022	-7.660717	-6.374737	59.486864
15463	1.104505	-1.263765	9.631365	-0.016216	0.032010	-0.036240	1.000000	-0.000044	0.000016	0.000028	-7.653944	-6.373321	59.492160
15464	1.108416	-1.240841	9.655896	-0.038156	0.046996	-0.014680	1.000000	-0.000045	0.000019	0.000020	-7.656982	-6.371749	59.494262
15465	1.123974	-1.272249	9.658344	-0.003204	0.043396	-0.006381	1.000000	-0.000045	0.000019	0.000020	-7.650185	-6.372250	59.497685
15466	1.107430	-1.242779	9.655760	-0.036389	0.045167	-0.014665	1.000000	-0.000058	0.000034	0.000016	-7.654607	-6.369082	59.499091
15467	1.143076	-1.281018	9.685330	0.010484	0.053474	0.023484	1.000000	-0.000047	0.000026	0.000023	-7.640904	-6.373368	59.503418
15468	1.106355	-1.244672	9.655640	-0.033950	0.042030	-0.014642	1.000000	-0.000034	0.000015	0.000020	-7.642497	-6.372404	59.505509
15469	1.105930	-1.245511	9.655580	-0.032911	0.039873	-0.014630	1.000000	-0.000047	0.000023	0.000030	-7.636463	-6.377173	59.507831
15470	1.105207	-1.246642	9.655517	-0.032622	0.039494	-0.014627	1.000000	-0.000063	0.000044	0.000029	-7.641397	-6.372754	59.510529
15471	1.119555	-1.260594	9.641084	-0.011041	0.043171	-0.025399	1.000000	-0.000042	0.000013	0.000018	-7.634260	-6.383654	59.509771
15472	1.119155	-1.261390	9.641027	-0.010749	0.042770	-0.025396	1.000000	-0.000037	0.000025	0.000015	-7.635957	-6.381798	59.511175
15473	1.122954	-1.238438	9.665600	-0.032564	0.056357	-0.003796	1.000000	-0.000047	0.000023	0.000030	-7.634730	-6.386296	59.512295
15474	1.102199	-1.232682	9.638409	-0.043548	0.042777	-0.033652	1.000000	-0.000045	0.000019	0.000020	-7.637368	-6.384990	59.514422
15475	1.135934	-1.235574	9.634244	-0.022191	0.068691	-0.033606	1.000000	-0.000047	0.000026	0.000023	-7.626553	-6.389155	59.517951
15476	1.103309	-1.269730	9.672002	-0.016372	0.022468	0.004459	1.000000	-0.000040	0.000015	-0.000007	-7.628174	-6.388762	59.517000
15477	1.100905	-1.235592	9.638184	-0.041718	0.037067	-0.033620	1.000000	-0.000073	0.000021	0.000035	-7.629764	-6.400728	59.515614
15478	1.121785	-1.261100	9.682063	-0.017578	0.041073	0.015289	1.000000	-0.000042	0.000016	0.000010	-7.631856	-6.400148	59.516669
15479	1.101086	-1.255177	9.654882	-0.027329	0.027068	-0.014569	1.000000	-0.000037	0.000025	0.000015	-7.625866	-6.396852	59.523051
15480	1.100618	-1.256003	9.654828	-0.027024	0.026621	-0.014567	1.000000	-0.000045	0.000019	0.000020	-7.628324	-6.395683	59.525191
15481	1.134351	-1.258900	9.650669	-0.007038	0.051022	-0.014507	1.000000	-0.000047	0.000026	0.000023	-7.620023	-6.411680	59.521233
15482	1.104032	-1.234128	9.679329	-0.048517	0.037391	0.007069	1.000000	-0.000050	0.000011	0.000016	-7.622938	-6.411733	59.523019
15483	1.113339	-1.254104	9.623376	-0.016763	0.036323	-0.044368	1.000000	-0.000045	0.000019	0.000020	-7.618561	-6.410951	59.527409
15484	1.133138	-1.261844	9.650427	-0.005160	0.048972	-0.014495	1.000000	-0.000055	0.000024	0.000021	-7.622093	-6.409389	59.529579
15485	1.116799	-1.232313	9.647871	-0.036917	0.049245	-0.022720	1.000000	-0.000042	0.000009	0.000025	-7.612889	-6.412231	59.535021
15486	1.132347	-1.263861	9.650256	-0.003131	0.046624	-0.014483	1.000000	-0.000058	0.000024	0.000039	-7.616821	-6.410380	59.539181
15487	1.135056	-1.223505	9.658007	-0.037372	0.069880	-0.011864	1.000000	-0.000048	0.000032	0.000008	-7.617683	-6.408644	59.540067
15488	1.096996	-1.263956	9.654202	-0.021914	0.017007	-0.014533	1.000000	-0.000052	0.000017	0.000019	-7.620802	-6.407894	59.542042
15489	1.114847	-1.236378	9.647577	-0.034606	0.045505	-0.022693	1.000000	-0.000045	0.000023	0.000013	-7.613957	-6.412058	59.543627
15490	1.100366	-1.242090	9.678728	-0.042579	0.029695	0.007123	1.000000	-0.000047	0.000026	0.000023	-7.616458	-6.410294	59.545980
15491	1.113794	-1.238278	9.647455	-0.032910	0.043348	-0.022678	1.000000	-0.000047	0.000023	0.000030	-7.610256	-6.411528	59.550444
15492	1.128260	-1.252082	9.633015	-0.011691	0.049431	-0.033471	1.000000	-0.000045	0.000023	0.000013	-7.612280	-6.410335	59.551706
15493	1.098905	-1.244976	9.678523	-0.040113	0.027164	0.007141	1.000000	-0.000052	0.000017	0.000019	-7.613616	-6.407603	59.556048
15494	1.113301	-1.258810	9.664085	-0.018893	0.033253	-0.003655	1.000000	-0.000042	0.000035	0.000027	-7.615507	-6.404770	59.558773
15495	1.106393	-1.248239	9.605692	-0.019609	0.033729	-0.063328	1.000000	-0.000055	0.000024	0.000021	-7.604982	-6.403626	59.566053
15496	1.099134	-1.283304	9.711985	-0.011904	0.006937	0.045174	1.000000	-0.000047	0.000026	0.000023	-7.607314	-6.401840	59.568399
15497	1.123675	-1.221661	9.599034	-0.032636	0.061597	-0.071450	1.000000	-0.000044	0.000016	0.000028	-7.603688	-6.409220	59.568238
15498	1.115495	-1.238983	9.688506	-0.037519	0.043494	0.018042	1.000000	-0.000047	0.000026	0.000023	-7.605982	-6.407499	59.570592
15499	1.108688	-1.228436	9.630102	-0.037297	0.044945	-0.041623	1.000000	-0.000055	0.000024	0.000021	-7.593404	-6.398617	59.582557
15500	1.096164	-1.269582	9.694869	-0.019970	0.011616	0.026183	1.000000	-0.000045	0.000023	0.000013	-7.595160	-6.397374	59.583804
15501	1.127949	-1.237163	9.657100	-0.025081	0.056231	-0.011737	1.000000	-0.000047	0.000023	0.000030	-7.594529	-6.399282	59.585423
15502	1.114373	-1.260612	9.705056	-0.020354	0.031619	0.037067	1.000000	-0.000048	0.000029	0.000016	-7.596603	-6.397259	59.586867
15503	1.108502	-1.267753	9.663468	-0.009331	0.023849	-0.003613	1.000000	-0.000058	0.000024	0.000039	-7.592192	-6.396024	59.593372
15504	1.112314	-1.245073	9.688090	-0.031080	0.038517	0.018086	1.000000	-0.000045	0.000019	0.000020	-7.593960	-6.395049	59.595518
15505	1.091697	-1.239074	9.660897	-0.040655	0.023006	-0.011776	1.000000	-0.000034	0.000015	0.000020	-7.581809	-6.400172	59.598553
15506	1.107244	-1.270483	9.663253	-0.006775	0.020332	-0.003603	1.000000	-0.000053	0.000021	0.000011	-7.584280	-6.399239	59.599620
15507	1.125101	-1.242904	9.656695	-0.021018	0.049175	-0.011689	1.000000	-0.000045	0.000023	0.000013	-7.586269	-6.406253	59.594592
15508	1.090310	-1.241878	9.660694	-0.040216	0.020189	-0.011768	1.000000	-0.000050	0.000030	0.000033	-7.588693	-6.404026	59.598035
15509	1.138828	-1.257708	9.642202	0.001347	0.053214	-0.022489	1.000000	-0.000048	0.000036	0.000001	-7.582410	-6.406930	59.598328
15510	1.108302	-1.232948	9.670921	-0.039978	0.039402	-0.000855	1.000000	-0.000047	0.000023	0.000030	-7.584450	-6.405543	59.601580
15511	1.123728	-1.264361	9.673282	-0.005262	0.035669	0.007316	1.000000	-0.000037	0.000021	0.000022	-7.577835	-6.407208	59.604608
15512	1.121277	-1.229774	9.639641	-0.030100	0.052608	-0.030632	1.000000	-0.000039	0.000028	0.000025	-7.578862	-6.405338	59.607146
15513	1.087510	-1.246403	9.660426	-0.015993	-0.026244	-0.011713	1.000000	-0.000053	0.000017	0.000019	-7.350937	-6.552043	59.191513
15514	1.121247	-1.249404	9.656305	0.004364	0.001128	-0.011544	1.000000	-0.000048	0.000029	0.000016	-7.350848	-6.551408	59.190792
15515	1.120685	-1.250370	9.656245	0.004977	0.000210	-0.011545	1.000000	-0.000047	0.000023	0.000030	-7.350746	-6.551133	59.192420
15516	1.124592	-1.227532	9.680911	-0.016423	0.014516	0.010301	1.000000	-0.000040	0.000016	-0.000007	-7.349497	-6.552395	59.189311
15517	1.124191	-1.228399	9.680847	-0.015826	0.013605	0.010303	1.000000	-0.000047	0.000023	0.000030	-7.349510	-6.552126	59.190430
15518	1.118527	-1.235568	9.639219	-0.005886	0.006385	-0.030448	1.000000	-0.000068	0.000014	0.000015	-7.351817	-6.553295	59.189854
15519	1.120151	-1.272142	9.672677	0.019845	-0.012332	0.007354	1.000000	-0.000050	0.000011	0.000016	-7.352557	-6.554549	59.187937
15520	1.102869	-1.224867	9.653416	-0.025675	-0.001916	-0.019608	1.000000	-0.000048	0.000029	0.000016	-7.352469	-6.553913	59.187215
15521	1.132258	-1.251484	9.624576	0.016678	0.010238	-0.041285	1.000000	-0.000045	0.000023	0.000013	-7.351947	-6.553961	59.186425
15522	1.100786	-1.209037	9.636525	-0.037113	0.005188	-0.038502	1.000000	-0.000050	0.000036	0.000018	-7.352191	-6.552523	59.185900
15523	1.131994	-1.271158	9.641243	0.030362	-0.000528	-0.022391	1.000000	-0.000053	0.000024	0.000004	-7.353008	-6.552791	59.183380
15524	1.100564	-1.228794	9.653180	-0.023429	-0.005577	-0.019604	1.000000	-0.000050	0.000030	0.000033	-7.353419	-6.551862	59.184649
15525	1.115035	-1.242573	9.638723	-0.001992	0.000052	-0.030445	1.000000	-0.000042	0.000016	0.000010	-7.352778	-6.552783	59.183134
15526	1.100474	-1.248297	9.669846	-0.009680	-0.016358	-0.000713	1.000000	-0.000042	0.000035	0.000027	-7.352224	-6.551350	59.183691
15527	1.114876	-1.262038	9.655399	0.011805	-0.010732	-0.011556	1.000000	-0.000045	0.000016	0.000028	-7.351828	-6.551843	59.184067
15528	1.117751	-1.221587	9.663322	-0.022191	0.012512	-0.008567	1.000000	-0.000048	0.000029	0.000016	-7.351741	-6.551207	59.183344
15529	1.133134	-1.253075	9.665640	0.011892	0.009242	-0.000523	1.000000	-0.000045	0.000019	0.000020	-7.351539	-6.551205	59.182330
15530	1.111489	-1.229333	9.621676	-0.011691	0.004485	-0.049329	1.000000	-0.000039	0.000028	0.000025	-7.350653	-6.550574	59.182689
15531	1.112700	-1.265622	9.655181	0.014169	-0.014377	-0.011564	1.000000	-0.000042	0.000032	0.000035	-7.349866	-6.549336	59.185038
15532	1.116393	-1.243095	9.679874	-0.007205	-0.000093	0.010323	1.000000	-0.000071	0.000027	0.000002	-7.352342	-6.549193	59.182861
15533	1.110737	-1.250145	9.638240	0.002699	-0.007257	-0.030447	1.000000	-0.000042	0.000016	0.000010	-7.351588	-6.550129	59.181897
15534	1.109369	-1.233204	9.621426	-0.009349	0.000788	-0.049325	1.000000	-0.000037	0.000028	0.000007	-7.350205	-6.549791	59.180264
15535	1.149195	-1.247861	9.675667	0.014347	0.025334	0.010525	1.000000	-0.000047	0.000026	0.000023	-7.349826	-6.549754	59.183852
15536	1.095111	-1.257627	9.669246	-0.003804	-0.025622	-0.000728	1.000000	-0.000048	0.000029	0.000016	-7.349740	-6.549117	59.183128
15537	1.142806	-1.255709	9.634015	0.024846	0.017258	-0.030247	1.000000	-0.000047	0.000026	0.000023	-7.349587	-6.548624	59.183798
15538	1.114107	-1.266388	9.696285	0.008932	-0.014703	0.029193	1.000000	-0.000040	0.000031	0.000017	-7.348620	-6.547739	59.183259
15539	1.126700	-1.244550	9.648331	0.005124	0.008906	-0.019397	1.000000	-0.000037	0.000018	0.000030	-7.347608	-6.547970	59.183749
15540	1.106047	-1.238572	9.621119	-0.005863	-0.004778	-0.049324	1.000000	-0.000055	0.000024	0.000021	-7.348488	-6.547837	59.183736
15541	1.110700	-1.233695	9.662597	-0.014637	0.000537	-0.008545	1.000000	-0.000048	0.000029	0.000016	-7.348680	-6.547204	59.182518
15542	1.110317	-1.234752	9.662506	-0.014063	-0.000388	-0.008544	1.000000	-0.000058	0.000006	0.000021	-7.349861	-6.549178	59.182819
15543	1.124080	-1.230877	9.631255	-0.005244	0.014211	-0.038258	1.000000	-0.000045	0.000019	0.000020	-7.349464	-6.549617	59.184005
15544	1.124588	-1.249531	9.647933	0.007959	0.004302	-0.019396	1.000000	-0.000045	0.000016	0.000028	-7.349214	-6.550292	59.184875
15545	1.103941	-1.243536	9.620720	-0.003029	-0.009351	-0.049326	1.000000	-0.000047	0.000026	0.000023	-7.349218	-6.549806	59.184645
15546	1.108677	-1.238659	9.662194	-0.011750	-0.004078	-0.008542	1.000000	-0.000053	0.000017	0.000018	-7.349767	-6.550475	59.184433
15547	1.108226	-1.239744	9.662106	-0.011192	-0.004988	-0.008541	1.000000	-0.000055	0.000024	0.000021	-7.350773	-6.550317	59.185480
15548	1.122563	-1.253633	9.647637	0.010246	0.000636	-0.019397	1.000000	-0.000050	0.000036	0.000018	-7.351021	-6.548878	59.184953
15549	1.106922	-1.241790	9.661993	-0.010051	-0.006824	-0.008541	1.000000	-0.000048	0.000029	0.000016	-7.351010	-6.548194	59.183913
15550	1.140621	-1.244677	9.657948	0.010331	0.020530	-0.008317	1.000000	-0.000037	0.000021	0.000022	-7.349796	-6.548365	59.184072
15551	1.105824	-1.243614	9.661884	-0.008949	-0.008592	-0.008541	1.000000	-0.000058	0.000031	0.000024	-7.351487	-6.547165	59.182384
15552	1.139429	-1.246642	9.657835	0.011435	0.018760	-0.008315	1.000000	-0.000040	0.000028	0.000025	-7.350605	-6.546534	59.182741
15553	1.101279	-1.286839	9.653686	0.026768	-0.034599	-0.011641	1.000000	-0.000045	0.000019	0.000020	-7.350251	-6.546772	59.182013
15554	1.123430	-1.235618	9.672132	-0.008258	0.010384	0.002546	1.000000	-0.000048	0.000029	0.000016	-7.350168	-6.546134	59.181287
15555	1.117725	-1.242398	9.630515	0.001571	0.003353	-0.038247	1.000000	-0.000045	0.000019	0.000020	-7.350088	-6.546314	59.178383
15556	1.117365	-1.243459	9.630420	0.002143	0.002431	-0.038247	1.000000	-0.000060	0.000012	0.000024	-7.351604	-6.547486	59.178879
15557	1.117094	-1.244497	9.630318	0.002719	0.001513	-0.038247	1.000000	-0.000042	0.000009	0.000025	-7.351017	-6.548932	59.179901
15558	1.122702	-1.257320	9.688541	0.006672	-0.002275	0.021390	1.000000	-0.000048	0.000036	0.000001	-7.350766	-6.547783	59.177382
15559	1.101894	-1.251392	9.661329	-0.004341	-0.015904	-0.008547	1.000000	-0.000058	0.000028	0.000031	-7.352005	-6.547075	59.179119
15560	1.134656	-1.236742	9.640553	0.003406	0.020465	-0.027146	1.000000	-0.000047	0.000026	0.000023	-7.352006	-6.546693	59.179289
15561	1.105086	-1.229810	9.686037	-0.025079	-0.002546	0.013417	1.000000	-0.000045	0.000023	0.000013	-7.351648	-6.546603	59.176925
15562	1.115246	-1.267146	9.646720	0.018252	-0.012082	-0.019416	1.000000	-0.000047	0.000026	0.000023	-7.351649	-6.546221	59.177095
15563	1.133178	-1.239621	9.640357	0.005171	0.017743	-0.027142	1.000000	-0.000052	0.000014	0.000026	-7.352148	-6.547028	59.177846
15564	1.099394	-1.256442	9.660958	-0.001429	-0.020480	-0.008555	1.000000	-0.000055	0.000024	0.000021	-7.353032	-6.546894	59.177829
15565	1.131446	-1.223913	9.623479	-0.006327	0.024971	-0.045967	1.000000	-0.000042	0.000016	0.000010	-7.352399	-6.547640	59.174836
15566	1.132803	-1.260263	9.656847	0.019543	0.005980	-0.008312	1.000000	-0.000037	0.000021	0.000022	-7.351187	-6.547810	59.174993
15567	1.098073	-1.259087	9.660764	0.000286	-0.023182	-0.008561	1.000000	-0.000047	0.000023	0.000030	-7.351402	-6.547556	59.175311
15568	1.135235	-1.220789	9.664869	-0.013853	0.028354	-0.005150	1.000000	-0.000053	0.000024	0.000004	-7.351786	-6.547711	59.173302
15569	1.116395	-1.250302	9.671060	0.000392	-0.003297	0.002555	1.000000	-0.000045	0.000019	0.000020	-7.351584	-6.548038	59.173030
15570	1.135188	-1.240490	9.681439	-0.000061	0.017486	0.013677	1.000000	-0.000047	0.000023	0.000030	-7.351671	-6.547911	59.174095
15571	1.106101	-1.281657	9.604458	0.032668	-0.026419	-0.060254	1.000000	-0.000058	0.000009	0.000014	-7.352650	-6.549648	59.174600
15572	1.115155	-1.253298	9.670815	0.002132	-0.006089	0.002553	1.000000	-0.000040	0.000028	0.000025	-7.351771	-6.549017	59.174956
15573	1.132260	-1.207812	9.647808	-0.023613	0.032747	-0.023949	1.000000	-0.000042	0.000009	0.000025	-7.350989	-6.550652	59.178310
15574	1.133544	-1.244411	9.681129	0.002273	0.013723	0.013682	1.000000	-0.000058	0.000031	0.000024	-7.352207	-6.549715	59.178489
15575	1.113758	-1.256279	9.670589	0.003875	-0.008869	0.002550	1.000000	-0.000053	0.000017	0.000018	-7.352862	-6.550178	59.176654
15576	1.107353	-1.245302	9.612228	0.001008	-0.006827	-0.057080	1.000000	-0.000053	0.000017	0.000018	-7.353415	-6.550845	59.176436
15577	1.107812	-1.264075	9.628840	0.014220	-0.016809	-0.038272	1.000000	-0.000045	0.000019	0.000020	-7.353161	-6.551344	59.177240
15578	1.097592	-1.246504	9.684755	-0.015270	-0.018214	0.013421	1.000000	-0.000053	0.000017	0.000018	-7.353715	-6.552011	59.177022
15579	1.144539	-1.226879	9.632914	0.000653	0.033844	-0.034800	1.000000	-0.000058	0.000034	0.000016	-7.355029	-6.550668	59.175174
15580	1.110621	-1.243659	9.653490	-0.005945	-0.004403	-0.016260	1.000000	-0.000045	0.000016	0.000028	-7.354785	-6.551343	59.176039
15581	1.110128	-1.244597	9.653426	-0.005351	-0.005358	-0.016261	1.000000	-0.000048	0.000029	0.000015	-7.354507	-6.550800	59.177378
15582	1.113996	-1.221970	9.678252	-0.026641	0.008850	0.005763	1.000000	-0.000042	0.000009	0.000025	-7.353931	-6.552277	59.178045
15583	1.110199	-1.264123	9.669976	0.008482	-0.016276	0.002538	1.000000	-0.000037	0.000021	0.000022	-7.352612	-6.552391	59.178856
15584	1.123803	-1.259980	9.638815	0.017238	-0.001566	-0.027140	1.000000	-0.000047	0.000026	0.000023	-7.352617	-6.552008	59.179023
15585	1.108270	-1.248149	9.653181	-0.003044	-0.009022	-0.016262	1.000000	-0.000047	0.000026	0.000023	-7.352761	-6.551484	59.177569
15586	1.107729	-1.249190	9.653108	-0.002470	-0.009946	-0.016263	1.000000	-0.000055	0.000024	0.000021	-7.353648	-6.551349	59.177548
15587	1.107236	-1.250128	9.653043	-0.001880	-0.010886	-0.016264	1.000000	-0.000037	0.000021	0.000022	-7.352307	-6.551549	59.178929
15588	1.126033	-1.240230	9.663470	-0.002315	0.009880	-0.005105	1.000000	-0.000045	0.000023	0.000013	-7.351895	-6.551711	59.178001
15589	1.125607	-1.241208	9.663395	-0.001725	0.008965	-0.005104	1.000000	-0.000053	0.000017	0.000018	-7.352402	-6.552280	59.177529
15590	1.105872	-1.252828	9.652850	-0.000145	-0.013648	-0.016267	1.000000	-0.000037	0.000028	0.000007	-7.351023	-6.551937	59.175893
15591	1.134508	-1.261424	9.607268	0.029455	0.007653	-0.056819	1.000000	-0.000045	0.000016	0.000028	-7.350740	-6.552577	59.176828
15592	1.124197	-1.243881	9.663215	0.000008	0.006191	-0.005101	1.000000	-0.000047	0.000026	0.000023	-7.350746	-6.552194	59.176994
15593	1.108683	-1.232133	9.677574	-0.020245	-0.001308	0.005783	1.000000	-0.000055	0.000024	0.000021	-7.351540	-6.552033	59.176822
15594	1.123093	-1.245960	9.663076	0.001173	0.004337	-0.005100	1.000000	-0.000048	0.000029	0.000015	-7.351461	-6.551393	59.176092
15595	1.122466	-1.246841	9.663035	0.001766	0.003399	-0.005100	1.000000	-0.000040	0.000031	0.000017	-7.350367	-6.550508	59.176240
15596	1.121074	-1.229868	9.646328	-0.010335	0.011571	-0.023878	1.000000	-0.000045	0.000023	0.000013	-7.349956	-6.550670	59.175311
15597	1.102302	-1.259543	9.652384	0.003919	-0.020107	-0.016279	1.000000	-0.000068	0.000007	0.000029	-7.352487	-6.552196	59.175207
15598	1.121227	-1.249905	9.662783	0.003496	0.000649	-0.005100	1.000000	-0.000037	0.000021	0.000022	-7.351279	-6.552367	59.175362
15599	1.119882	-1.232941	9.646074	-0.008601	0.008850	-0.023874	1.000000	-0.000047	0.000026	0.000023	-7.351323	-6.551849	59.174184
15600	1.134318	-1.246700	9.631578	0.012813	0.014499	-0.034760	1.000000	-0.000047	0.000023	0.000030	-7.351415	-6.551723	59.175245
15601	1.154696	-1.272638	9.675327	0.037771	0.017031	0.013969	1.000000	-0.000047	0.000026	0.000023	-7.351304	-6.551327	59.176266
15602	1.119111	-1.253772	9.662527	0.005818	-0.003037	-0.005101	1.000000	-0.000055	0.000021	0.000028	-7.352279	-6.551449	59.177139
15603	1.132837	-1.249563	9.631381	0.014563	0.011728	-0.034759	1.000000	-0.000026	0.000017	0.000021	-7.349800	-6.552106	59.177557
15604	1.117350	-1.237575	9.645774	-0.005702	0.004230	-0.023869	1.000000	-0.000050	0.000030	0.000033	-7.350226	-6.551179	59.178817
15605	1.121831	-1.232933	9.687315	-0.014303	0.009280	0.016983	1.000000	-0.000048	0.000029	0.000015	-7.350285	-6.550680	59.179391
15606	1.121294	-1.233794	9.687268	-0.013727	0.008353	0.016984	1.000000	-0.000037	0.000021	0.000022	-7.349078	-6.550851	59.179545
15607	1.134231	-1.211810	9.639472	-0.017698	0.032236	-0.031428	1.000000	-0.000053	0.000014	0.000026	-7.349769	-6.551841	59.180405
15608	1.115333	-1.241363	9.645521	-0.003454	0.000522	-0.023867	1.000000	-0.000047	0.000026	0.000023	-7.349777	-6.551457	59.180569
15609	1.114930	-1.242279	9.645450	-0.002912	-0.000383	-0.023866	1.000000	-0.000042	0.000009	0.000025	-7.349419	-6.552940	59.180913
15610	1.100321	-1.248181	9.676472	-0.010486	-0.017010	0.005783	1.000000	-0.000040	0.000031	0.000017	-7.348460	-6.552052	59.180370
15611	1.113811	-1.244097	9.645345	-0.001762	-0.002247	-0.023866	1.000000	-0.000058	0.000034	0.000016	-7.349525	-6.550932	59.180961
15612	1.118436	-1.239566	9.686861	-0.010313	0.002786	0.016992	1.000000	-0.000050	0.000011	0.000016	-7.349751	-6.552399	59.180537
15613	1.112955	-1.246166	9.645176	-0.000620	-0.004072	-0.023867	1.000000	-0.000047	0.000023	0.000030	-7.349933	-6.552177	59.180227
15614	1.097394	-1.234466	9.659546	-0.020880	-0.011576	-0.012971	1.000000	-0.000058	0.000031	0.000024	-7.351157	-6.551239	59.180401
15615	1.111787	-1.248136	9.645056	0.000532	-0.005915	-0.023868	1.000000	-0.000029	0.000023	0.000024	-7.349054	-6.551128	59.180637
15616	1.130516	-1.238251	9.655549	0.000130	0.014823	-0.012649	1.000000	-0.000047	0.000026	0.000023	-7.349063	-6.550744	59.180801
15617	1.130824	-1.257049	9.672114	0.013420	0.004721	0.006097	1.000000	-0.000045	0.000019	0.000020	-7.348515	-6.551287	59.183086
15618	1.096023	-1.255800	9.675974	-0.005863	-0.024448	0.005771	1.000000	-0.000040	0.000035	0.000010	-7.347471	-6.550140	59.181648
15619	1.128838	-1.240924	9.655402	0.001897	0.012000	-0.012646	1.000000	-0.000048	0.000026	0.000023	-7.347328	-6.549748	59.182380
15620	1.124171	-1.265239	9.630350	0.024272	-0.003997	-0.034772	1.000000	-0.000040	0.000009	0.000008	-7.346254	-6.551511	59.181050
15621	1.108725	-1.253429	9.644722	0.004011	-0.011520	-0.023874	1.000000	-0.000058	0.000037	0.000009	-7.347289	-6.550144	59.180701
15622	1.093203	-1.241883	9.659070	-0.016245	-0.019029	-0.012974	1.000000	-0.000063	0.000013	0.000041	-7.349321	-6.551029	59.183171
15623	1.127148	-1.245076	9.655065	0.004180	0.008282	-0.012643	1.000000	-0.000042	0.000009	0.000025	-7.348775	-6.552560	59.184793
15624	1.112559	-1.251094	9.686056	-0.003372	-0.008384	0.016993	1.000000	-0.000048	0.000026	0.000023	-7.348786	-6.552176	59.184956
15625	1.091967	-1.244742	9.658842	-0.014548	-0.021794	-0.012977	1.000000	-0.000037	0.000025	0.000015	-7.347615	-6.552067	59.183965
15626	1.110763	-1.234914	9.669340	-0.014940	-0.001067	-0.001738	1.000000	-0.000045	0.000019	0.000020	-7.347293	-6.552485	59.183928
15627	1.124459	-1.230748	9.638218	-0.006226	0.013783	-0.031370	1.000000	-0.000048	0.000026	0.000023	-7.347304	-6.551925	59.182268
15628	1.124056	-1.231731	9.638140	-0.005653	0.012861	-0.031369	1.000000	-0.000050	0.000011	0.000016	-7.347532	-6.553391	59.181841
15629	1.123630	-1.232707	9.638064	-0.005075	0.011925	-0.031367	1.000000	-0.000048	0.000029	0.000015	-7.347392	-6.552800	59.182187
15630	1.104706	-1.262022	9.644063	0.009164	-0.019811	-0.023890	1.000000	-0.000032	0.000014	0.000002	-7.345350	-6.554058	59.180149
15631	1.123522	-1.252275	9.654557	0.008769	0.000933	-0.012642	1.000000	-0.000058	0.000028	0.000031	-7.346774	-6.553294	59.179924
15632	1.108024	-1.240629	9.668923	-0.011481	-0.006582	-0.001736	1.000000	-0.000053	0.000021	0.000011	-7.347250	-6.553700	59.178800
15633	1.122485	-1.254392	9.654403	0.009926	-0.000912	-0.012643	1.000000	-0.000048	0.000029	0.000015	-7.347144	-6.553013	59.178295
15634	1.121969	-1.255325	9.654341	0.010500	-0.001837	-0.012644	1.000000	-0.000045	0.000019	0.000020	-7.346823	-6.553431	59.178257
15635	1.140695	-1.245608	9.664853	0.010120	0.018881	-0.001386	1.000000	-0.000048	0.000033	0.000008	-7.346664	-6.552525	59.176784
15636	1.119936	-1.239449	9.637630	-0.001064	0.005493	-0.031360	1.000000	-0.000061	0.000038	0.000026	-7.348225	-6.550784	59.177154
15637	1.119374	-1.240483	9.637562	-0.000488	0.004574	-0.031360	1.000000	-0.000042	0.000016	0.000010	-7.347479	-6.551720	59.175806
15638	1.104766	-1.246417	9.668551	-0.008023	-0.012126	-0.001738	1.000000	-0.000037	0.000021	0.000022	-7.346277	-6.551891	59.175957
15639	1.104162	-1.247238	9.668514	-0.007439	-0.013072	-0.001738	1.000000	-0.000042	0.000035	0.000027	-7.345629	-6.550534	59.178095
15640	1.117723	-1.243024	9.637426	0.001241	0.001785	-0.031359	1.000000	-0.000048	0.000026	0.000023	-7.345642	-6.550150	59.178256
15641	1.117341	-1.244014	9.637343	0.001820	0.000856	-0.031359	1.000000	-0.000050	0.000008	0.000023	-7.345906	-6.551887	59.179467
15642	1.122095	-1.239562	9.678867	-0.006656	0.005780	0.009532	1.000000	-0.000053	0.000018	0.000018	-7.346469	-6.552551	59.179237
15643	1.117250	-1.263916	9.653768	0.015684	-0.010167	-0.012656	1.000000	-0.000042	0.000035	0.000027	-7.345978	-6.551037	59.178814
15644	1.116080	-1.247116	9.637088	0.003539	-0.001897	-0.031359	1.000000	-0.000066	0.000000	0.000027	-7.348146	-6.553513	59.179793
15645	1.101656	-1.253347	9.668010	-0.003981	-0.018621	-0.001745	1.000000	-0.000042	0.000016	0.000010	-7.347362	-6.554487	59.179386
15646	1.134738	-1.238373	9.647504	0.003749	0.017882	-0.020078	1.000000	-0.000037	0.000021	0.000022	-7.346160	-6.554659	59.179536
15647	1.099960	-1.237034	9.651332	-0.015555	-0.011271	-0.020445	1.000000	-0.000040	0.000028	0.000025	-7.345296	-6.554033	59.179986
15648	1.119440	-1.245298	9.678438	-0.003199	0.000231	0.009536	1.000000	-0.000055	0.000021	0.000028	-7.346279	-6.554155	59.180850
15649	1.128931	-1.264529	9.622270	0.027240	0.000064	-0.042280	1.000000	-0.000045	0.000019	0.000020	-7.345811	-6.554624	59.182545
15650	1.118516	-1.247271	9.678291	-0.002031	-0.001643	0.009536	1.000000	-0.000047	0.000023	0.000030	-7.345912	-6.554499	59.183599
15651	1.117953	-1.248242	9.678231	-0.001469	-0.002552	0.009536	1.000000	-0.000048	0.000029	0.000015	-7.345957	-6.553805	59.182081
15652	1.131688	-1.244018	9.647136	0.007195	0.012336	-0.020072	1.000000	-0.000045	0.000016	0.000028	-7.345725	-6.554482	59.182935
15653	1.111976	-1.255582	9.636463	0.008701	-0.010217	-0.031368	1.000000	-0.000047	0.000023	0.000030	-7.345817	-6.554392	59.184682
15654	1.129931	-1.228024	9.630440	-0.004386	0.019698	-0.038755	1.000000	-0.000048	0.000029	0.000015	-7.345745	-6.553749	59.183946
15655	1.115995	-1.252018	9.677969	0.000835	-0.006258	0.009534	1.000000	-0.000042	0.000013	0.000018	-7.345087	-6.554926	59.183148
15656	1.114867	-1.235092	9.661321	-0.011319	0.002035	-0.009148	1.000000	-0.000055	0.000021	0.000028	-7.346072	-6.555047	59.184011
15657	1.109391	-1.241538	9.619608	-0.001727	-0.004684	-0.050055	1.000000	-0.000045	0.000019	0.000020	-7.345710	-6.555458	59.184372
15658	1.133995	-1.244349	9.688346	0.001640	0.012577	0.020839	1.000000	-0.000045	0.000019	0.000020	-7.345393	-6.555876	59.184331
15659	1.133547	-1.245189	9.688291	0.002203	0.011669	0.020840	1.000000	-0.000037	0.000021	0.000022	-7.344322	-6.555992	59.183378
15660	1.093993	-1.249246	9.650437	-0.008105	-0.023262	-0.020457	1.000000	-0.000039	0.000003	0.000022	-7.343426	-6.558272	59.183831
15661	1.113697	-1.257732	9.677493	0.004282	-0.011808	0.009528	1.000000	-0.000074	0.000021	0.000034	-7.346559	-6.558363	59.186057
15662	1.131723	-1.230454	9.671454	-0.008799	0.018112	0.002170	1.000000	-0.000047	0.000023	0.000030	-7.346662	-6.558238	59.187110
15663	1.111807	-1.241970	9.660792	-0.007290	-0.004431	-0.009145	1.000000	-0.000043	0.000038	0.000020	-7.345963	-6.556532	59.186976
15664	1.125518	-1.237704	9.629717	0.001357	0.010489	-0.038740	1.000000	-0.000050	0.000014	0.000008	-7.346109	-6.557737	59.185647
15665	1.111594	-1.261885	9.677194	0.006592	-0.015514	0.009522	1.000000	-0.000055	0.000024	0.000021	-7.347041	-6.557582	59.185477
15666	1.126074	-1.275750	9.662635	0.027974	-0.009831	-0.001407	1.000000	-0.000055	0.000021	0.000028	-7.348027	-6.557703	59.186338
15667	1.094274	-1.215391	9.658400	-0.038548	-0.005486	-0.016883	1.000000	-0.000042	0.000013	0.000018	-7.347421	-6.558906	59.186077
15668	1.143754	-1.249171	9.656565	0.015464	0.019175	-0.008747	1.000000	-0.000050	0.000030	0.000033	-7.347859	-6.557979	59.187330
15669	1.123136	-1.242808	9.629338	0.004215	0.005885	-0.038737	1.000000	-0.000048	0.000029	0.000015	-7.347756	-6.557348	59.187230
15670	1.128345	-1.256499	9.687438	0.008552	0.001459	0.020843	1.000000	-0.000063	0.000019	0.000026	-7.349627	-6.557714	59.187898
15671	1.107886	-1.250080	9.660197	-0.002697	-0.011806	-0.009149	1.000000	-0.000029	0.000023	0.000024	-7.347563	-6.557544	59.186647
15672	1.125895	-1.222352	9.654257	-0.015776	0.018126	-0.016470	1.000000	-0.000048	0.000026	0.000023	-7.347581	-6.557159	59.186804
15673	1.106116	-1.233857	9.643559	-0.014280	-0.004420	-0.027806	1.000000	-0.000045	0.000023	0.000013	-7.347054	-6.557375	59.187430
15674	1.106363	-1.252703	9.660031	-0.000962	-0.014600	-0.009153	1.000000	-0.000045	0.000023	0.000013	-7.346652	-6.557531	59.186491
15675	1.106005	-1.253586	9.659958	-0.000381	-0.015528	-0.009154	1.000000	-0.000042	0.000009	0.000025	-7.346045	-6.559007	59.187396
15676	1.139867	-1.256743	9.656042	0.020090	0.011761	-0.008744	1.000000	-0.000055	0.000024	0.000021	-7.346946	-6.558867	59.187360
15677	1.105102	-1.255629	9.659796	0.000750	-0.017378	-0.009157	1.000000	-0.000047	0.000023	0.000030	-7.347136	-6.558797	59.189169
15678	1.123761	-1.245888	9.670406	0.000420	0.003294	0.002190	1.000000	-0.000032	0.000033	0.000019	-7.345301	-6.557661	59.188814
15679	1.103137	-1.239417	9.643188	-0.010852	-0.009953	-0.027805	1.000000	-0.000058	0.000028	0.000031	-7.346652	-6.556943	59.189474
15680	1.122611	-1.247941	9.670275	0.001569	0.001450	0.002191	1.000000	-0.000053	0.000018	0.000018	-7.347220	-6.557604	59.189237
15681	1.122183	-1.248922	9.670198	0.002153	0.000512	0.002191	1.000000	-0.000045	0.000023	0.000013	-7.346738	-6.557795	59.189161
15682	1.116728	-1.255074	9.628492	0.011675	-0.006114	-0.038743	1.000000	-0.000037	0.000021	0.000022	-7.345541	-6.557966	59.189309
15683	1.136180	-1.263348	9.655615	0.024096	0.005285	-0.008747	1.000000	-0.000048	0.000026	0.000023	-7.345607	-6.557577	59.189707
15684	1.105631	-1.238793	9.684523	-0.016928	-0.008880	0.013128	1.000000	-0.000040	0.000028	0.000025	-7.344743	-6.556947	59.190054
15685	1.120119	-1.252462	9.669980	0.004438	-0.003174	0.002189	1.000000	-0.000053	0.000018	0.000018	-7.345390	-6.557567	59.189217
15686	1.138955	-1.242827	9.680574	0.004119	0.017489	0.013555	1.000000	-0.000037	0.000021	0.000022	-7.344193	-6.557738	59.189364
15687	1.099305	-1.246865	9.642665	-0.006276	-0.017328	-0.027812	1.000000	-0.000053	0.000018	0.000018	-7.344772	-6.558397	59.189173
15688	1.118186	-1.237311	9.653247	-0.006595	0.003336	-0.016443	1.000000	-0.000045	0.000016	0.000028	-7.344546	-6.559073	59.190022
15689	1.118386	-1.256225	9.669692	0.006743	-0.006867	0.002186	1.000000	-0.000048	0.000029	0.000015	-7.344473	-6.558363	59.188565
15690	1.137178	-1.246583	9.680300	0.006429	0.013791	0.013559	1.000000	-0.000042	0.000016	0.000010	-7.343739	-6.559320	59.187424
15691	1.131849	-1.252686	9.638577	0.015931	0.007192	-0.027383	1.000000	-0.000037	0.000015	0.000037	-7.342696	-6.560024	59.189854
15692	1.121387	-1.235640	9.694649	-0.013212	0.005310	0.024503	1.000000	-0.000056	0.000024	0.000021	-7.343599	-6.559883	59.189816
15693	1.115923	-1.241861	9.652925	-0.003708	-0.001274	-0.016441	1.000000	-0.000037	0.000021	0.000022	-7.342372	-6.560009	59.189381
15694	1.096123	-1.253255	9.642199	-0.002250	-0.023778	-0.027823	1.000000	-0.000048	0.000029	0.000015	-7.342305	-6.559362	59.188641
15695	1.134819	-1.251104	9.679994	0.009311	0.009171	0.013562	1.000000	-0.000045	0.000019	0.000020	-7.342078	-6.559731	59.187749
15696	1.100145	-1.249832	9.683729	-0.010025	-0.019960	0.013121	1.000000	-0.000045	0.000019	0.000020	-7.341766	-6.560146	59.187702
15697	1.128936	-1.258157	9.638206	0.019376	0.001671	-0.027387	1.000000	-0.000040	0.000025	0.000032	-7.340975	-6.559759	59.188838
15698	1.112800	-1.228401	9.636129	-0.013609	0.003428	-0.035056	1.000000	-0.000053	0.000018	0.000018	-7.341546	-6.560419	59.188598
15699	1.113798	-1.265443	9.669020	0.012488	-0.016104	0.002170	1.000000	-0.000053	0.000014	0.000026	-7.342272	-6.561329	59.189217
15700	1.127741	-1.261170	9.637953	0.021087	-0.001092	-0.027391	1.000000	-0.000045	0.000016	0.000028	-7.342049	-6.562006	59.190064
15701	1.111587	-1.231404	9.635886	-0.011918	0.000694	-0.035053	1.000000	-0.000048	0.000029	0.000015	-7.342150	-6.561294	59.187961
15702	1.126010	-1.245086	9.621339	0.009446	0.006400	-0.046001	1.000000	-0.000047	0.000023	0.000030	-7.342260	-6.561169	59.189008
15703	1.111250	-1.251388	9.652233	0.001997	-0.010474	-0.016446	1.000000	-0.000053	0.000018	0.000018	-7.342815	-6.561865	59.189834
15704	1.115774	-1.247135	9.693824	-0.006321	-0.005776	0.024510	1.000000	-0.000045	0.000023	0.000013	-7.342416	-6.562019	59.188892
15705	1.110463	-1.253316	9.652074	0.003148	-0.012311	-0.016448	1.000000	-0.000050	0.000011	0.000016	-7.342666	-6.563415	59.187528
15706	1.115028	-1.249154	9.693650	-0.005164	-0.007621	0.024509	1.000000	-0.000056	0.000024	0.000021	-7.343572	-6.563273	59.187488
15707	1.108958	-1.237463	9.635412	-0.008485	-0.004833	-0.035051	1.000000	-0.000053	0.000018	0.000018	-7.344187	-6.563951	59.187909
15708	1.129062	-1.263901	9.679004	0.016768	-0.002844	0.013556	1.000000	-0.000040	0.000028	0.000025	-7.343327	-6.563320	59.188255
15709	1.108041	-1.239246	9.635289	-0.007345	-0.006663	-0.035051	1.000000	-0.000042	0.000009	0.000025	-7.342835	-6.564744	59.188104
15710	1.093363	-1.245493	9.666175	-0.014784	-0.023549	-0.005503	1.000000	-0.000053	0.000024	0.000003	-7.343231	-6.564879	59.186074
15711	1.107782	-1.259304	9.651603	0.006580	-0.017844	-0.016459	1.000000	-0.000058	0.000031	0.000023	-7.344449	-6.563942	59.186973
15712	1.111539	-1.237216	9.676721	-0.014495	-0.003840	0.005914	1.000000	-0.000053	0.000018	0.000018	-7.345022	-6.564601	59.186731
15713	1.091803	-1.248666	9.665942	-0.012610	-0.024495	-0.005503	1.000000	-0.000040	0.000025	0.000032	-7.347537	-6.553659	59.196815
15714	1.140453	-1.264472	9.647615	0.028670	0.009420	-0.016000	1.000000	-0.000048	0.000029	0.000015	-7.347486	-6.552966	59.196086
15715	1.090634	-1.250526	9.665833	-0.011450	-0.026327	-0.005506	1.000000	-0.000048	0.000026	0.000023	-7.347486	-6.552503	59.195868
15716	1.123711	-1.235652	9.645529	-0.003734	0.010290	-0.023629	1.000000	-0.000045	0.000023	0.000013	-7.347103	-6.552612	59.194938
15717	1.104580	-1.265348	9.651179	0.010482	-0.021520	-0.016469	1.000000	-0.000074	0.000027	0.000020	-7.350146	-6.552096	59.194422
15718	1.119181	-1.279108	9.636586	0.031838	-0.015800	-0.027432	1.000000	-0.000032	0.000008	0.000017	-7.348300	-6.553826	59.194178
15719	1.107351	-1.226029	9.659792	-0.022800	0.000912	-0.012665	1.000000	-0.000050	0.000036	0.000018	-7.348638	-6.552354	59.194042
15720	1.121776	-1.239698	9.645235	-0.001443	0.006634	-0.023625	1.000000	-0.000045	0.000016	0.000028	-7.348432	-6.552987	59.194900
15721	1.126230	-1.235421	9.686857	-0.009717	0.011296	0.017350	1.000000	-0.000040	0.000025	0.000032	-7.347721	-6.552527	59.195177
15722	1.105849	-1.228830	9.659609	-0.021074	-0.001825	-0.012661	1.000000	-0.000053	0.000018	0.000018	-7.348310	-6.553142	59.194946
15723	1.121073	-1.260608	9.661472	0.013066	-0.005443	-0.005049	1.000000	-0.000053	0.000021	0.000011	-7.348866	-6.553439	59.192709
15724	1.135517	-1.274350	9.646897	0.034421	0.000279	-0.016014	1.000000	-0.000050	0.000030	0.000033	-7.349328	-6.552469	59.193969
15725	1.119394	-1.244566	9.644885	0.001426	0.002075	-0.023623	1.000000	-0.000042	0.000016	0.000010	-7.348609	-6.553409	59.193529
15726	1.123926	-1.240489	9.686477	-0.006833	0.006708	0.017357	1.000000	-0.000063	0.000019	0.000026	-7.350504	-6.553728	59.194198
15727	1.132953	-1.241271	9.613765	0.010562	0.016253	-0.053156	1.000000	-0.000034	0.000018	0.000012	-7.348923	-6.554365	59.192705
15728	1.103924	-1.252728	9.675597	-0.004832	-0.016671	0.005910	1.000000	-0.000042	0.000013	0.000018	-7.348296	-6.555537	59.192466
15729	1.132922	-1.261033	9.630062	0.024498	0.005065	-0.034590	1.000000	-0.000053	0.000018	0.000018	-7.348927	-6.556148	59.192214
15730	1.102474	-1.236733	9.658986	-0.016479	-0.009136	-0.012656	1.000000	-0.000056	0.000028	0.000013	-7.349762	-6.555699	59.191289
15731	1.106776	-1.232573	9.700620	-0.024720	-0.004524	0.028328	1.000000	-0.000040	0.000031	0.000017	-7.348796	-6.554762	59.191001
15732	1.100720	-1.220515	9.642444	-0.028119	-0.001599	-0.031216	1.000000	-0.000045	0.000016	0.000028	-7.348592	-6.555395	59.191857
15733	1.115326	-1.234196	9.627856	-0.006773	0.004134	-0.042184	1.000000	-0.000053	0.000018	0.000018	-7.349211	-6.556001	59.191539
15734	1.134698	-1.242896	9.654956	0.005761	0.015385	-0.012165	1.000000	-0.000058	0.000031	0.000023	-7.350469	-6.555012	59.191709
15735	1.100446	-1.259717	9.675086	-0.000806	-0.023098	0.005898	1.000000	-0.000040	0.000028	0.000025	-7.349646	-6.554372	59.192855
15736	1.114269	-1.255217	9.644098	0.007743	-0.007990	-0.023629	1.000000	-0.000045	0.000023	0.000013	-7.349265	-6.554480	59.191923
15737	1.132946	-1.245724	9.654797	0.007484	0.012626	-0.012163	1.000000	-0.000050	0.000033	0.000025	-7.349624	-6.553278	59.193185
15738	1.098134	-1.244465	9.658487	-0.011879	-0.016475	-0.012659	1.000000	-0.000045	0.000019	0.000020	-7.349332	-6.553648	59.193146
15739	1.131844	-1.247675	9.654674	0.008633	0.010801	-0.012161	1.000000	-0.000050	0.000030	0.000033	-7.349844	-6.552641	59.193703
15740	1.116404	-1.236016	9.669104	-0.011562	0.003236	-0.001188	1.000000	-0.000050	0.000011	0.000016	-7.350102	-6.554057	59.193268
15741	1.130347	-1.231623	9.638098	-0.003021	0.018356	-0.030706	1.000000	-0.000048	0.000029	0.000015	-7.350060	-6.553379	59.193039
15742	1.131000	-1.268584	9.670895	0.023164	-0.001343	0.006383	1.000000	-0.000037	0.000028	0.000007	-7.348707	-6.552980	59.191408
15743	1.110694	-1.261953	9.643631	0.011761	-0.014392	-0.023640	1.000000	-0.000061	0.000012	0.000024	-7.350298	-6.554067	59.191206
15744	1.095342	-1.250340	9.658045	-0.008433	-0.021958	-0.012666	1.000000	-0.000045	0.000019	0.000020	-7.350007	-6.554437	59.191166
15745	1.133347	-1.230391	9.679527	-0.009515	0.020192	0.010300	1.000000	-0.000048	0.000029	0.000015	-7.350030	-6.553722	59.189952
15746	1.128559	-1.254447	9.654181	0.012654	0.004397	-0.012161	1.000000	-0.000045	0.000019	0.000020	-7.349740	-6.554092	59.189912
15747	1.093902	-1.253196	9.657838	-0.006718	-0.024697	-0.012672	1.000000	-0.000053	0.000018	0.000018	-7.350348	-6.554707	59.189784
15748	1.112060	-1.225634	9.652141	-0.019773	0.005317	-0.019717	1.000000	-0.000040	0.000028	0.000025	-7.349508	-6.554033	59.190141
15749	1.112243	-1.244549	9.668489	-0.006392	-0.005015	-0.001184	1.000000	-0.000042	0.000009	0.000025	-7.348968	-6.555533	59.192419
15750	1.126782	-1.258249	9.653894	0.014951	0.000721	-0.012163	1.000000	-0.000058	0.000031	0.000023	-7.350230	-6.554543	59.192586
15751	1.130599	-1.236235	9.679103	-0.006054	0.014672	0.010312	1.000000	-0.000050	0.000011	0.000016	-7.350473	-6.555952	59.192307
15752	1.106684	-1.270764	9.642935	0.016922	-0.022635	-0.023663	1.000000	-0.000048	0.000023	0.000030	-7.350606	-6.555784	59.193361
15753	1.095471	-1.235865	9.682697	-0.024846	-0.015337	0.009796	1.000000	-0.000037	0.000021	0.000022	-7.349438	-6.555888	59.193241
15754	1.129207	-1.238982	9.678915	-0.004320	0.011920	0.010317	1.000000	-0.000048	0.000026	0.000023	-7.349482	-6.555456	59.193402
15755	1.108810	-1.232191	9.651680	-0.015747	-0.001084	-0.019709	1.000000	-0.000037	0.000025	0.000015	-7.348270	-6.555253	59.191316
15756	1.089674	-1.261642	9.657217	-0.001543	-0.032938	-0.012694	1.000000	-0.000055	0.000018	0.000036	-7.349378	-6.555592	59.193068
15757	1.127036	-1.223759	9.662339	-0.015405	0.018607	-0.008199	1.000000	-0.000048	0.000036	0.000001	-7.349168	-6.554335	59.190121
15758	1.092932	-1.240380	9.682406	-0.021964	-0.019907	0.009795	1.000000	-0.000032	0.000008	0.000017	-7.347327	-6.556065	59.189872
15759	1.122557	-1.266536	9.653303	0.020142	-0.007512	-0.012175	1.000000	-0.000048	0.000023	0.000030	-7.347428	-6.555893	59.191356
15760	1.125763	-1.226317	9.662163	-0.013670	0.015855	-0.008191	1.000000	-0.000045	0.000019	0.000020	-7.347139	-6.556263	59.191314
15761	1.086837	-1.248132	9.640484	-0.011478	-0.028090	-0.031223	1.000000	-0.000053	0.000018	0.000018	-7.347694	-6.556884	59.191742
15762	1.124905	-1.228398	9.661998	-0.012512	0.014017	-0.008187	1.000000	-0.000056	0.000024	0.000021	-7.348624	-6.556695	59.191706
15763	1.090878	-1.245303	9.682006	-0.019070	-0.024500	0.009791	1.000000	-0.000050	0.000008	0.000023	-7.348991	-6.558351	59.192075
15764	1.124742	-1.248743	9.678180	0.001464	0.002751	0.010325	1.000000	-0.000066	0.000026	0.000029	-7.351228	-6.557867	59.192938
15765	1.124287	-1.249837	9.678092	0.002042	0.001842	0.010325	1.000000	-0.000042	0.000016	0.000010	-7.350543	-6.558722	59.191100
15766	1.119033	-1.255612	9.636323	0.011352	-0.004481	-0.030696	1.000000	-0.000037	0.000021	0.000022	-7.349371	-6.558849	59.191254
15767	1.123348	-1.251438	9.677994	0.003199	0.000006	0.010325	1.000000	-0.000040	0.000028	0.000025	-7.348530	-6.558160	59.191835
15768	1.117404	-1.239174	9.619853	-0.000324	0.003136	-0.049199	1.000000	-0.000045	0.000019	0.000020	-7.348242	-6.558530	59.191792
15769	1.103144	-1.263624	9.667058	0.005147	-0.023328	-0.001209	1.000000	-0.000045	0.000019	0.000020	-7.347982	-6.558870	59.191505
15770	1.121355	-1.236076	9.661432	-0.007900	0.006706	-0.008174	1.000000	-0.000048	0.000023	0.000030	-7.348119	-6.558703	59.192558
15771	1.120929	-1.236991	9.661364	-0.007323	0.005788	-0.008173	1.000000	-0.000042	0.000016	0.000010	-7.347404	-6.559612	59.192036
15772	1.135315	-1.250542	9.646793	0.014009	0.011536	-0.019165	1.000000	-0.000045	0.000042	0.000030	-7.347236	-6.557334	59.192795
15773	1.119692	-1.238884	9.661265	-0.006172	0.003960	-0.008172	1.000000	-0.000053	0.000018	0.000018	-7.347853	-6.557925	59.192568
15774	1.100510	-1.268258	9.666751	0.008027	-0.027913	-0.001223	1.000000	-0.000032	0.000027	0.000034	-7.346223	-6.557272	59.194013
15775	1.137925	-1.230169	9.671995	-0.005806	0.023621	0.003375	1.000000	-0.000045	0.000023	0.000013	-7.345827	-6.557379	59.193689
15776	1.098955	-1.251849	9.650277	-0.003653	-0.020289	-0.019718	1.000000	-0.000045	0.000019	0.000020	-7.345541	-6.557748	59.193646
15777	1.102753	-1.229641	9.675581	-0.024615	-0.006375	0.002826	1.000000	-0.000037	0.000025	0.000015	-7.344274	-6.557593	59.192995
15778	1.117704	-1.261302	9.677367	0.009550	-0.010090	0.010315	1.000000	-0.000050	0.000033	0.000025	-7.344656	-6.556359	59.193355
15779	1.135769	-1.233810	9.671785	-0.003493	0.019957	0.003384	1.000000	-0.000048	0.000026	0.000023	-7.344719	-6.555898	59.193294
15780	1.130916	-1.257877	9.646356	0.018619	0.004216	-0.019167	1.000000	-0.000056	0.000031	0.000006	-7.345471	-6.555179	59.191469
15781	1.114930	-1.228220	9.644438	-0.014391	0.006115	-0.026649	1.000000	-0.000058	0.000012	0.000006	-7.346545	-6.556493	59.188693
15782	1.134389	-1.236915	9.671550	-0.001756	0.017216	0.003390	1.000000	-0.000037	0.000021	0.000022	-7.345376	-6.556620	59.188845
15783	1.114614	-1.248160	9.660658	-0.000396	-0.005195	-0.008170	1.000000	-0.000048	0.000026	0.000023	-7.345391	-6.556195	59.189750
15784	1.133955	-1.256930	9.687773	0.012243	0.005897	0.021868	1.000000	-0.000053	0.000018	0.000018	-7.345989	-6.556807	59.189508
15785	1.113091	-1.231997	9.644169	-0.012086	0.002451	-0.026645	1.000000	-0.000040	0.000028	0.000025	-7.345155	-6.556131	59.190181
15786	1.113060	-1.251088	9.660459	0.001332	-0.007946	-0.008172	1.000000	-0.000056	0.000028	0.000013	-7.345998	-6.555676	59.189247
15787	1.112541	-1.252091	9.660388	0.001903	-0.008860	-0.008173	1.000000	-0.000045	0.000023	0.000013	-7.345656	-6.555776	59.188738
15788	1.112180	-1.253044	9.660306	0.002479	-0.009777	-0.008174	1.000000	-0.000050	0.000011	0.000015	-7.345921	-6.557189	59.188294
15789	1.111796	-1.254040	9.660221	0.003061	-0.010691	-0.008175	1.000000	-0.000048	0.000023	0.000030	-7.346039	-6.556989	59.189181
15790	1.110686	-1.236880	9.643821	-0.009209	-0.002118	-0.026642	1.000000	-0.000048	0.000029	0.000015	-7.345998	-6.556291	59.188444
15791	1.130015	-1.245738	9.670930	0.003445	0.008955	0.003401	1.000000	-0.000061	0.000016	0.000016	-7.347471	-6.557138	59.188408
15792	1.129016	-1.228696	9.654507	-0.008826	0.017531	-0.015061	1.000000	-0.000048	0.000026	0.000023	-7.347522	-6.556706	59.188564
15793	1.124170	-1.252659	9.629055	0.013268	0.001815	-0.037646	1.000000	-0.000048	0.000029	0.000015	-7.347465	-6.555980	59.187810
15794	1.128432	-1.248849	9.670713	0.005181	0.006203	0.003402	1.000000	-0.000056	0.000021	0.000028	-7.348490	-6.556055	59.188661
15795	1.108182	-1.242086	9.643440	-0.006329	-0.006691	-0.026641	1.000000	-0.000045	0.000019	0.000020	-7.348213	-6.556427	59.189060
15796	1.127600	-1.250689	9.670572	0.006334	0.004367	0.003402	1.000000	-0.000034	0.000015	0.000019	-7.346711	-6.557355	59.189008
15797	1.091802	-1.212945	9.641539	-0.038774	-0.005694	-0.034088	1.000000	-0.000048	0.000029	0.000015	-7.346671	-6.556651	59.188497
15798	1.130782	-1.229498	9.695875	-0.014016	0.017325	0.026003	1.000000	-0.000048	0.000029	0.000015	-7.346632	-6.555953	59.187760
15799	1.121295	-1.258420	9.628639	0.016711	-0.003673	-0.037652	1.000000	-0.000061	0.000009	0.000031	-7.348306	-6.557354	59.190032
15800	1.130057	-1.231581	9.695695	-0.012862	0.015483	0.026008	1.000000	-0.000034	0.000015	0.000019	-7.346805	-6.558283	59.189981
15801	1.120646	-1.260208	9.628481	0.017862	-0.005501	-0.037655	1.000000	-0.000045	0.000016	0.000027	-7.346604	-6.558906	59.191025
15802	1.124504	-1.238153	9.653825	-0.003062	0.008371	-0.015045	1.000000	-0.000045	0.000019	0.000020	-7.346321	-6.559275	59.190978
15803	1.124584	-1.257214	9.670078	0.010368	-0.002062	0.003400	1.000000	-0.000045	0.000023	0.000013	-7.345967	-6.559392	59.190797
15804	1.119258	-1.262893	9.628290	0.019581	-0.008246	-0.037660	1.000000	-0.000040	0.000028	0.000025	-7.345135	-6.558718	59.191150
15805	1.088703	-1.238530	9.657325	-0.021328	-0.022524	-0.015638	1.000000	-0.000048	0.000023	0.000030	-7.345310	-6.558549	59.192464
15806	1.156626	-1.244214	9.649929	0.019220	0.032856	-0.014446	1.000000	-0.000058	0.000031	0.000023	-7.346581	-6.557556	59.192623
15807	1.101916	-1.235071	9.626347	-0.012301	-0.008145	-0.045090	1.000000	-0.000040	0.000035	0.000010	-7.345579	-6.556341	59.191400
15808	1.101921	-1.254166	9.642594	0.001135	-0.018584	-0.026655	1.000000	-0.000053	0.000014	0.000025	-7.346272	-6.557217	59.192047
15809	1.140640	-1.252641	9.680589	0.013067	0.013892	0.015008	1.000000	-0.000042	0.000013	0.000017	-7.345680	-6.558422	59.193171
15810	1.105528	-1.233135	9.667855	-0.019207	-0.005644	-0.004026	1.000000	-0.000053	0.000018	0.000018	-7.346283	-6.559032	59.192924
15811	1.105031	-1.234147	9.667783	-0.018635	-0.006568	-0.004025	1.000000	-0.000048	0.000030	0.000015	-7.346246	-6.558376	59.193693
15812	1.119155	-1.229494	9.636862	-0.010189	0.008737	-0.033470	1.000000	-0.000040	0.000003	0.000022	-7.345388	-6.560614	59.194132
15813	1.134355	-1.261189	9.638534	0.023988	0.004986	-0.026059	1.000000	-0.000048	0.000023	0.000030	-7.345564	-6.560394	59.194286
15814	1.118795	-1.249534	9.653022	0.003828	-0.002619	-0.015042	1.000000	-0.000048	0.000030	0.000015	-7.345526	-6.559695	59.193547
15815	1.103811	-1.256091	9.683795	-0.003460	-0.019761	0.014400	1.000000	-0.000053	0.000018	0.000018	-7.346131	-6.560285	59.193310
15816	1.137079	-1.241316	9.663765	0.004240	0.017005	-0.003413	1.000000	-0.000056	0.000028	0.000013	-7.346979	-6.559827	59.192373
15817	1.098488	-1.281084	9.658195	0.019163	-0.036361	-0.008255	1.000000	-0.000040	0.000028	0.000025	-7.346171	-6.559163	59.193428
15818	1.116192	-1.235282	9.636465	-0.006742	0.003265	-0.033464	1.000000	-0.000045	0.000023	0.000013	-7.345799	-6.559265	59.192486
15819	1.115610	-1.236179	9.636418	-0.006166	0.002350	-0.033463	1.000000	-0.000042	0.000031	0.000035	-7.345388	-6.558052	59.194294
15820	1.115623	-1.255183	9.652656	0.007281	-0.008114	-0.015047	1.000000	-0.000040	0.000016	-0.000007	-7.344165	-6.559223	59.191162
15821	1.129214	-1.232313	9.605465	0.002842	0.016769	-0.062898	1.000000	-0.000048	0.000023	0.000030	-7.344312	-6.559038	59.192106
15822	1.306284	-1.099855	9.712676	-0.037534	0.233187	0.046133	1.000000	-0.000095	-0.000026	-0.000016	-7.349342	-6.565078	59.188560
15823	0.860623	-1.328593	9.617961	-0.053700	-0.261651	-0.068989	1.000000	0.000063	0.000276	0.000125	-7.337579	-6.534802	59.196391
15824	1.411942	-1.041816	9.408711	0.022181	0.365727	-0.248768	1.000000	0.000008	-0.000010	-0.000030	-7.330627	-6.539284	59.191052
15825	0.996850	-1.588675	9.617388	0.237009	-0.279702	-0.020989	1.000000	-0.000177	0.000018	0.000018	-7.345467	-6.539807	59.190915
15826	1.107447	-1.366824	9.864521	0.062995	-0.076873	0.206971	1.000000	-0.000090	0.000014	0.000038	-7.350554	-6.540577	59.192951
15827	1.032154	-1.136921	9.832415	-0.164552	-0.020022	0.137530	1.000000	-0.000069	0.000043	0.000009	-7.352922	-6.538471	59.191080
15828	1.042942	-1.190470	9.480154	-0.054636	-0.027541	-0.201521	1.000000	-0.000024	0.000020	-0.000003	-7.349931	-6.539160	59.188344
15829	1.128607	-1.318516	9.884449	0.029686	-0.033929	0.222876	1.000000	-0.000027	0.000039	0.000031	-7.347692	-6.537201	59.189562
15830	1.143344	-1.153891	9.592800	-0.052824	0.073458	-0.083744	1.000000	-0.000058	0.000006	0.000021	-7.348939	-6.539119	59.189801
15831	1.153713	-1.359063	9.657267	0.114436	-0.026808	0.007043	1.000000	-0.000061	-0.000010	0.000014	-7.350388	-6.542849	59.188910
15832	1.130704	-1.234302	9.688447	-0.007984	0.017074	0.019283	1.000000	-0.000024	0.000010	0.000019	-7.347671	-6.544338	59.188851
15833	1.119769	-1.199592	9.728416	-0.049574	0.024196	0.053008	1.000000	-0.000056	0.000006	0.000003	-7.348398	-6.546500	59.186844
15834	1.092705	-1.283396	9.526535	0.041019	-0.036400	-0.138341	1.000000	-0.000050	0.000004	0.000030	-7.348853	-6.548445	59.188174
15835	1.134351	-1.213996	9.713686	-0.027695	0.029059	0.041988	1.000000	-0.000019	0.000018	0.000023	-7.345635	-6.548879	59.188601
15836	1.139518	-1.237036	9.615519	0.010718	0.024540	-0.051220	1.000000	-0.000087	0.000017	0.000013	-7.350115	-6.549649	59.187754
15837	1.139472	-1.256429	9.631686	0.024175	0.014046	-0.032831	1.000000	-0.000032	0.000033	0.000019	-7.348346	-6.548458	59.187360
15838	1.147410	-1.211507	9.682653	-0.018125	0.042588	0.012582	1.000000	-0.000048	0.000016	0.000045	-7.348680	-6.548825	59.190187
15839	1.099822	-1.278895	9.609673	0.026756	-0.030642	-0.056185	1.000000	-0.000059	0.000038	0.000009	-7.349755	-6.547284	59.188430
15840	1.123570	-1.283017	9.678606	0.030961	-0.014583	0.014967	1.000000	-0.000024	0.000029	0.000036	-7.347252	-6.546395	59.190072
15841	1.072202	-1.214285	9.647988	-0.047866	-0.021551	-0.029793	1.000000	-0.000059	0.000038	0.000009	-7.348363	-6.544839	59.187774
15842	1.087887	-1.282624	9.682119	0.012103	-0.044546	0.014312	1.000000	-0.000051	0.000033	0.000025	-7.348757	-6.543603	59.188126
15843	1.106019	-1.255073	9.676779	-0.000916	-0.014444	0.007614	1.000000	-0.000040	0.000028	0.000025	-7.347904	-6.542912	59.188347
15844	1.086117	-1.266148	9.665788	0.000368	-0.036786	-0.004074	1.000000	-0.000040	0.000035	0.000010	-7.346895	-6.541702	59.186912
15845	1.105222	-1.274998	9.692945	0.013129	-0.025879	0.025986	1.000000	-0.000048	0.000023	0.000030	-7.347066	-6.541530	59.188309
15846	1.085056	-1.268066	9.665656	0.001516	-0.038618	-0.004082	1.000000	-0.000053	0.000018	0.000018	-7.347675	-6.542138	59.188055
15847	1.122622	-1.230415	9.671256	-0.012216	0.012916	0.000930	1.000000	-0.000056	0.000028	0.000013	-7.348573	-6.541664	59.187091
15848	1.137706	-1.262119	9.672865	0.021975	0.009097	0.008263	1.000000	-0.000032	0.000008	0.000017	-7.346743	-6.543394	59.186830
15849	1.136501	-1.226528	9.640312	-0.003234	0.027402	-0.028473	1.000000	-0.000053	0.000018	0.000018	-7.347332	-6.543951	59.186231
15850	1.121972	-1.251552	9.687249	0.002420	0.000558	0.019301	1.000000	-0.000064	0.000023	0.000019	-7.349161	-6.543997	59.185979
15851	1.131782	-1.269900	9.630826	0.032226	0.001262	-0.032844	1.000000	-0.000048	0.000023	0.000030	-7.349372	-6.543788	59.186509
15852	1.135394	-1.248058	9.656307	0.011387	0.015053	-0.010102	1.000000	-0.000051	0.000036	0.000018	-7.349675	-6.542284	59.185968
15853	1.115173	-1.241128	9.629025	-0.000236	0.002334	-0.040168	1.000000	-0.000053	0.000011	0.000033	-7.350427	-6.543445	59.187998
15854	1.119908	-1.255798	9.686939	0.004730	-0.003115	0.019300	1.000000	-0.000048	0.000023	0.000030	-7.350580	-6.543278	59.189038
15855	1.118454	-1.220118	9.654447	-0.020497	0.015211	-0.017417	1.000000	-0.000029	0.000030	0.000009	-7.348365	-6.542615	59.187781
15856	1.114191	-1.261905	9.645088	0.014388	-0.010028	-0.021812	1.000000	-0.000042	0.000016	0.000010	-7.347663	-6.543516	59.186630
15857	1.084704	-1.274082	9.706596	-0.000659	-0.043619	0.036982	1.000000	-0.000045	0.000016	0.000027	-7.347484	-6.544168	59.187727
15858	1.097508	-1.214752	9.627052	-0.030986	0.000681	-0.047478	1.000000	-0.000056	0.000021	0.000028	-7.348522	-6.544242	59.188567
15859	1.132597	-1.272893	9.672053	0.028330	-0.000996	0.008251	1.000000	-0.000048	0.000023	0.000030	-7.348681	-6.544040	59.189206
15860	1.093270	-1.276116	9.633772	0.017376	-0.035095	-0.033539	1.000000	-0.000050	0.000011	0.000015	-7.348957	-6.545448	59.188746
15861	1.115709	-1.207415	9.637795	-0.029948	0.019358	-0.035751	1.000000	-0.000032	0.000001	0.000031	-7.347322	-6.547696	59.190290
15862	1.126969	-1.280245	9.630020	0.038550	-0.008805	-0.032871	1.000000	-0.000058	0.000031	0.000023	-7.348604	-6.546699	59.190440
15863	1.096020	-1.237830	9.642874	-0.015207	-0.013506	-0.029125	1.000000	-0.000042	0.000016	0.000010	-7.347920	-6.547581	59.189446
15864	1.129419	-1.222857	9.623015	-0.007514	0.023335	-0.046788	1.000000	-0.000048	0.000023	0.000030	-7.348074	-6.547414	59.190485
15865	1.106273	-1.293447	9.618797	0.040950	-0.032947	-0.044610	1.000000	-0.000056	0.000024	0.000021	-7.349045	-6.547231	59.190945
15866	1.148408	-1.251270	9.666291	0.018772	0.023622	0.001628	1.000000	-0.000051	0.000033	0.000025	-7.349442	-6.545994	59.191296
15867	1.108731	-1.254476	9.628039	0.007788	-0.010445	-0.040177	1.000000	-0.000051	0.000040	0.000011	-7.349707	-6.544229	59.190520
15868	1.142653	-1.276106	9.640631	0.041305	0.007108	-0.021155	1.000000	-0.000051	0.000036	0.000018	-7.350012	-6.542724	59.189978
15869	1.126586	-1.246269	9.638944	0.008256	0.009125	-0.028442	1.000000	-0.000048	0.000023	0.000030	-7.350184	-6.542560	59.191087
15870	1.110791	-1.234555	9.653497	-0.011876	0.001491	-0.017391	1.000000	-0.000038	0.000053	0.000010	-7.348869	-6.539237	59.189367
15871	1.125457	-1.266408	9.655081	0.022320	-0.002358	-0.010110	1.000000	-0.000064	0.000023	0.000019	-7.350717	-6.539278	59.189176
15872	1.113625	-1.213911	9.678970	-0.032107	0.014336	0.005407	1.000000	-0.000051	0.000040	0.000011	-7.350931	-6.537504	59.187742
15873	1.094473	-1.261483	9.700327	-0.005030	-0.027281	0.030320	1.000000	-0.000032	0.000033	0.000019	-7.349192	-6.536300	59.187085
15874	1.128082	-1.264669	9.696738	0.015582	-0.000090	0.031013	1.000000	-0.000048	0.000030	0.000015	-7.349163	-6.535597	59.186339
15875	1.111625	-1.216522	9.678872	-0.030393	0.011594	0.005416	1.000000	-0.000048	0.000030	0.000015	-7.349191	-6.534911	59.186279
15876	1.107377	-1.258557	9.669392	0.004478	-0.013655	0.000935	1.000000	-0.000050	0.000011	0.000015	-7.349469	-6.536319	59.185815
15877	1.092069	-1.246907	9.683882	-0.015654	-0.021297	0.011988	1.000000	-0.000043	0.000016	0.000010	-7.348786	-6.537239	59.185439
15878	1.125697	-1.231773	9.664067	-0.007962	0.015562	-0.005631	1.000000	-0.000032	0.000001	0.000031	-7.347145	-6.539507	59.186958
15879	1.102516	-1.283954	9.643520	0.027565	-0.031067	-0.021884	1.000000	-0.000058	0.000002	0.000028	-7.348540	-6.541682	59.188409
15880	1.129670	-1.210788	9.689474	-0.028182	0.028394	0.017189	1.000000	-0.000024	0.000006	0.000026	-7.345922	-6.543441	59.189237
15881	1.120591	-1.238826	9.622005	0.002198	0.007836	-0.046761	1.000000	-0.000050	0.000008	0.000023	-7.346332	-6.545102	59.190105
15882	0.962495	-1.343949	9.508062	0.029433	-0.178794	-0.163698	1.000000	-0.000029	-0.000027	0.000019	-7.344236	-6.550815	59.190607
15883	1.196137	-1.106993	9.256429	-0.010687	0.152539	-0.415120	1.000000	-0.000207	0.000071	0.000037	-7.362674	-6.545111	59.191789
15884	1.416708	-1.464734	9.954331	0.285634	0.133693	0.343185	1.000000	-0.000014	0.000030	0.000021	-7.358771	-6.544251	59.191645
15885	0.949311	-1.295449	9.531574	-0.023871	-0.163889	-0.148172	1.000000	-0.000048	0.000010	0.000059	-7.359348	-6.545164	59.196140
15886	1.067171	-1.187128	9.763273	-0.094593	-0.013698	0.079759	1.000000	-0.000101	0.000064	-0.000004	-7.365143	-6.540842	59.192726
15887	1.087999	-1.276580	9.699081	0.003024	-0.040149	0.030277	1.000000	0.000050	0.000048	0.000029	-7.354081	-6.537798	59.193231
15888	1.072219	-1.264056	9.713744	-0.017097	-0.047798	0.041334	1.000000	-0.000048	0.000023	0.000030	-7.354240	-6.537631	59.194266
15889	1.118526	-1.169990	9.598590	-0.053372	0.044264	-0.078824	1.000000	-0.000022	0.000035	0.000004	-7.351120	-6.536438	59.191559
15890	1.061457	-1.284745	9.802437	-0.019204	-0.070787	0.130132	1.000000	-0.000019	0.000018	0.000023	-7.347861	-6.536888	59.191902
15891	1.065072	-1.233775	9.639567	-0.032827	-0.036104	-0.036417	1.000000	-0.000051	0.000036	0.000018	-7.348206	-6.535363	59.191430
15892	1.187084	-1.250141	9.656087	0.040171	0.058963	-0.004174	1.000000	-0.000061	0.000007	-0.000023	-7.349212	-6.537774	59.186586
15893	1.146131	-1.190598	9.725378	-0.042691	0.052490	0.051873	1.000000	-0.000032	0.000008	0.000017	-7.347406	-6.539531	59.186968
15894	1.077733	-1.176118	9.560049	-0.062156	0.006683	-0.120660	1.000000	-0.000069	0.000014	0.000014	-7.349793	-6.540615	59.186301
15895	1.157029	-1.264636	9.717282	0.026374	0.023344	0.054549	1.000000	-0.000045	0.000026	0.000005	-7.349380	-6.540427	59.184536
15896	1.131439	-1.225267	9.615903	-0.002807	0.025234	-0.053262	1.000000	-0.000048	0.000030	0.000015	-7.349354	-6.539723	59.183788
15897	1.135395	-1.222087	9.657622	-0.010632	0.029252	-0.012110	1.000000	-0.000077	0.000034	0.000022	-7.352746	-6.538382	59.183630
15898	1.110813	-1.237884	9.604692	-0.001015	0.002046	-0.065054	1.000000	-0.000043	0.000035	0.000027	-7.352265	-6.536906	59.184179
15899	1.119970	-1.266431	9.720592	0.008640	-0.008438	0.053819	1.000000	-0.000030	0.000042	0.000041	-7.350490	-6.534398	59.186038
15900	1.114217	-1.253421	9.662614	0.004672	-0.004565	-0.005618	1.000000	-0.000056	0.000031	0.000006	-7.351256	-6.533663	59.184196
15901	1.098873	-1.260273	9.693287	-0.002509	-0.021930	0.023732	1.000000	-0.000053	0.000036	0.000035	-7.352122	-6.531907	59.186348
15902	1.117045	-1.232711	9.688173	-0.015511	0.008226	0.017255	1.000000	-0.000032	0.000027	0.000034	-7.350514	-6.531263	59.187787
15903	1.077670	-1.235517	9.649841	-0.026603	-0.025695	-0.024636	1.000000	-0.000045	0.000020	0.000020	-7.350246	-6.531637	59.187706
15904	1.131405	-1.265262	9.689632	0.019278	0.003404	0.024464	1.000000	-0.000040	0.000028	0.000025	-7.349430	-6.530963	59.188050
15905	1.115871	-1.253515	9.704175	-0.000837	-0.004242	0.035534	1.000000	-0.000037	0.000018	0.000029	-7.348421	-6.531307	59.188366
15906	1.125501	-1.253000	9.631578	0.015864	0.006404	-0.034969	1.000000	-0.000045	0.000020	0.000020	-7.348155	-6.531673	59.188303
15907	1.125551	-1.272351	9.647619	0.029378	-0.004232	-0.016698	1.000000	-0.000058	0.000009	0.000013	-7.349370	-6.533313	59.187600
15908	1.109489	-1.223946	9.629869	-0.016629	0.007569	-0.042167	1.000000	-0.000019	0.000018	0.000023	-7.346113	-6.533764	59.187942
15909	1.124150	-1.237385	9.615207	0.004631	0.013395	-0.053239	1.000000	-0.000069	0.000014	0.000014	-7.348512	-6.534850	59.187723
15910	1.123901	-1.238388	9.615106	0.005205	0.012482	-0.053238	1.000000	-0.000032	0.000008	0.000017	-7.346689	-6.536580	59.187455
15911	1.138157	-1.233474	9.584318	0.013522	0.028051	-0.082577	1.000000	-0.000051	0.000026	0.000040	-7.347283	-6.535827	59.188485
15912	1.142478	-1.248431	9.642204	0.018682	0.022278	-0.023148	1.000000	-0.000048	0.000033	0.000008	-7.347165	-6.534850	59.186844
15913	1.107603	-1.247044	9.645648	-0.000809	-0.006724	-0.023899	1.000000	-0.000056	0.000028	0.000013	-7.348059	-6.534373	59.185716
15914	1.145478	-1.227921	9.667752	-0.001480	0.035056	-0.000241	1.000000	-0.000059	0.000031	0.000023	-7.349350	-6.533374	59.185858
15915	1.106667	-1.267625	9.661628	0.013294	-0.018296	-0.005642	1.000000	-0.000051	0.000033	0.000025	-7.349755	-6.532124	59.185999
15916	1.110238	-1.245879	9.687271	-0.007436	-0.004610	0.017267	1.000000	-0.000040	0.000028	0.000025	-7.348941	-6.531450	59.186342
15917	1.124116	-1.241034	9.656526	0.000869	0.010961	-0.012067	1.000000	-0.000054	0.000050	0.000006	-7.349419	-6.528607	59.184073
15918	1.108724	-1.247731	9.687206	-0.006284	-0.006448	0.017266	1.000000	-0.000037	0.000021	0.000022	-7.348269	-6.528734	59.184212
15919	1.107833	-1.230330	9.671031	-0.018670	0.002382	-0.000986	1.000000	-0.000056	0.000031	0.000006	-7.349071	-6.528027	59.182780
15920	1.103024	-1.254034	9.645266	0.003205	-0.013132	-0.023906	1.000000	-0.000048	0.000026	0.000023	-7.349142	-6.527591	59.182920
15921	1.106812	-1.232471	9.670875	-0.017519	0.000550	-0.000983	1.000000	-0.000061	0.000013	0.000023	-7.350756	-6.528692	59.183148
15922	1.121536	-1.246125	9.656170	0.003740	0.006378	-0.012063	1.000000	-0.000050	0.000014	0.000008	-7.350947	-6.529827	59.181784
15923	1.140532	-1.236829	9.667201	0.003702	0.026801	-0.000215	1.000000	-0.000032	0.000008	0.000017	-7.349136	-6.531556	59.181808
15924	1.101735	-1.257968	9.644901	0.005501	-0.016791	-0.023912	1.000000	-0.000056	0.000018	0.000035	-7.350282	-6.531899	59.183526
15925	1.154727	-1.251203	9.652465	0.025542	0.031714	-0.011294	1.000000	-0.000032	0.000027	0.000034	-7.348657	-6.531234	59.184738
15926	1.100960	-1.277929	9.660923	0.019617	-0.028385	-0.005677	1.000000	-0.000032	0.000027	0.000034	-7.347053	-6.530591	59.186175
15927	1.138617	-1.240176	9.666998	0.006016	0.023130	-0.000207	1.000000	-0.000045	0.000016	0.000027	-7.346879	-6.531229	59.186961
15928	1.103951	-1.238606	9.670418	-0.013480	-0.005869	-0.000979	1.000000	-0.000037	0.000018	0.000029	-7.345824	-6.531627	59.187990
15929	1.084307	-1.249571	9.659236	-0.012303	-0.028112	-0.012838	1.000000	-0.000045	0.000016	0.000027	-7.345685	-6.532246	59.188616
15930	1.137453	-1.242907	9.666785	0.007744	0.020381	-0.000202	1.000000	-0.000053	0.000014	0.000025	-7.346402	-6.533120	59.189237
15931	1.113225	-1.258401	9.613750	0.017235	-0.006665	-0.053246	1.000000	-0.000056	0.000024	0.000021	-7.347388	-6.532906	59.189000
15932	1.117037	-1.236938	9.639371	-0.003470	0.006999	-0.030295	1.000000	-0.000061	0.000013	0.000023	-7.348991	-6.534018	59.189416
15933	1.116982	-1.256293	9.655380	0.010069	-0.003690	-0.012066	1.000000	-0.000037	0.000021	0.000022	-7.347872	-6.534129	59.189365
15934	1.116534	-1.257084	9.655329	0.010645	-0.004606	-0.012067	1.000000	-0.000043	0.000023	-0.000005	-7.346989	-6.534481	59.186422
15935	1.096747	-1.268178	9.644133	0.011808	-0.026845	-0.023940	1.000000	-0.000059	0.000031	0.000023	-7.348340	-6.533492	59.187136
15936	1.115466	-1.259208	9.655176	0.011787	-0.006437	-0.012070	1.000000	-0.000053	0.000018	0.000018	-7.348964	-6.534095	59.186865
15937	1.114811	-1.260206	9.655121	0.012354	-0.007350	-0.012071	1.000000	-0.000046	0.000045	0.000023	-7.348784	-6.531551	59.186509
15938	1.118014	-1.220072	9.664747	-0.021310	0.016090	-0.007324	1.000000	-0.000037	0.000021	0.000022	-7.347637	-6.531677	59.186646
15939	1.113463	-1.261987	9.655044	0.013503	-0.009180	-0.012074	1.000000	-0.000053	0.000040	0.000028	-7.348406	-6.529624	59.187217
15940	1.093225	-1.254815	9.627756	0.001696	-0.021623	-0.042174	1.000000	-0.000056	0.000024	0.000021	-7.349366	-6.529425	59.187150
15941	1.112058	-1.245839	9.638800	0.001677	-0.001216	-0.030292	1.000000	-0.000053	0.000011	0.000033	-7.350199	-6.530570	59.188852
15942	1.131274	-1.255209	9.665920	0.014638	0.009389	-0.000193	1.000000	-0.000053	0.000018	0.000018	-7.350824	-6.531172	59.188580
15943	1.096601	-1.253755	9.669303	-0.004871	-0.019601	-0.000988	1.000000	-0.000045	0.000020	0.000020	-7.350568	-6.531535	59.188239
15944	1.111108	-1.267155	9.654639	0.016376	-0.013762	-0.012084	1.000000	-0.000040	0.000028	0.000025	-7.349758	-6.530861	59.188581
15945	1.095214	-1.237164	9.653121	-0.016708	-0.011632	-0.019200	1.000000	-0.000048	0.000023	0.000030	-7.349990	-6.530726	59.190242
15946	1.109698	-1.250673	9.638446	0.004537	-0.005790	-0.030295	1.000000	-0.000048	0.000026	0.000023	-7.350066	-6.530289	59.190378
15947	1.129008	-1.278407	9.681662	0.030479	-0.005000	0.018010	1.000000	-0.000056	0.000024	0.000021	-7.351086	-6.530077	59.190388
15948	1.124184	-1.302596	9.655755	0.052308	-0.020472	-0.004987	1.000000	-0.000104	0.000032	0.000026	-7.357578	-6.528933	59.190800
15949	1.127536	-1.262536	9.665403	0.018655	0.002977	-0.000196	1.000000	0.000016	0.000019	0.000029	-7.350463	-6.529199	59.191184
15950	1.063389	-1.272087	9.730220	-0.016234	-0.059157	0.057592	1.000000	-0.000043	0.000023	-0.000005	-7.349582	-6.529550	59.188239
15951	1.077399	-1.248854	9.683397	-0.020952	-0.033687	0.010093	1.000000	-0.000061	0.000019	0.000008	-7.351002	-6.530116	59.186836
15952	1.062450	-1.255551	9.713987	-0.028060	-0.051184	0.039386	1.000000	-0.000021	-0.000000	0.000023	-7.348058	-6.532682	59.187453
15953	1.076603	-1.213737	9.651088	-0.045773	-0.015882	-0.026300	1.000000	-0.000061	-0.000006	0.000006	-7.349489	-6.536166	59.186477
15954	1.126234	-1.248067	9.648950	0.008545	0.008211	-0.018395	1.000000	-0.000037	-0.000001	0.000012	-7.348221	-6.538935	59.185794
15955	1.091507	-1.209705	9.620164	-0.036939	-0.001121	-0.055589	1.000000	-0.000050	-0.000018	0.000020	-7.348563	-6.543494	59.185743
15956	1.140863	-1.225703	9.601955	0.004394	0.032796	-0.065874	1.000000	-0.000050	0.000004	0.000030	-7.349043	-6.545441	59.187045
15957	1.136372	-1.249322	9.576068	0.026205	0.017354	-0.088890	1.000000	-0.000053	0.000018	0.000018	-7.349682	-6.546004	59.186204
15958	1.120566	-1.219287	9.574582	-0.006876	0.019509	-0.095974	1.000000	-0.000032	0.000027	0.000034	-7.348083	-6.545364	59.187641
15959	1.105415	-1.244519	9.621260	-0.000996	-0.007817	-0.048500	1.000000	-0.000061	0.000041	0.000018	-7.349677	-6.543251	59.186777
15960	1.104471	-1.245556	9.621234	-0.000423	-0.008730	-0.048501	1.000000	-0.000040	0.000050	0.000035	-7.348991	-6.539935	59.187937
15961	1.122741	-1.236726	9.632364	-0.000414	0.011654	-0.036577	1.000000	-0.000080	0.000044	0.000017	-7.352638	-6.537526	59.187119
15962	1.122004	-1.256515	9.648346	0.013152	0.000901	-0.018396	1.000000	-0.000059	0.000056	0.000026	-7.353965	-6.533610	59.187183
15963	1.091060	-1.251018	9.693616	-0.014612	-0.023379	0.021991	1.000000	-0.000051	0.000058	0.000028	-7.354465	-6.529428	59.187510
15964	1.124184	-1.254831	9.690137	0.006066	0.003762	0.022814	1.000000	-0.000083	0.000054	0.000012	-7.358355	-6.525951	59.186066
15965	1.069679	-1.263494	9.682353	-0.012902	-0.046506	0.010055	1.000000	-0.000027	0.000045	0.000017	-7.355957	-6.523449	59.185530
15966	1.087669	-1.235965	9.677499	-0.025880	-0.016287	0.003813	1.000000	-0.000064	0.000051	0.000014	-7.357740	-6.520299	59.184291
15967	1.087101	-1.255487	9.693483	-0.012312	-0.027047	0.021984	1.000000	-0.000048	0.000033	0.000008	-7.357664	-6.519299	59.182398
15968	1.109997	-1.223920	9.730427	-0.033509	0.007841	0.056968	1.000000	-0.000053	0.000021	0.000010	-7.358198	-6.519627	59.181230
15969	1.120342	-1.260056	9.689904	0.008952	-0.000828	0.022813	1.000000	-0.000056	0.000024	0.000020	-7.359135	-6.519409	59.180763
15970	1.119683	-1.242711	9.673784	-0.003468	0.008105	0.004646	1.000000	-0.000050	0.000011	0.000015	-7.359427	-6.520811	59.180280
15971	1.099718	-1.235486	9.646462	-0.015334	-0.004238	-0.025462	1.000000	-0.000067	0.000033	0.000014	-7.361512	-6.519741	59.179210
15972	1.114607	-1.267584	9.647756	0.018899	-0.008240	-0.018409	1.000000	-0.000050	0.000004	0.000030	-7.361996	-6.521689	59.180507
15973	1.133232	-1.240288	9.642831	0.005921	0.021992	-0.024623	1.000000	-0.000064	0.000026	0.000011	-7.363780	-6.521431	59.179699
15974	1.133040	-1.259874	9.658752	0.019497	0.011215	-0.006462	1.000000	-0.000053	0.000018	0.000018	-7.364410	-6.522032	59.179421
15975	1.113127	-1.252648	9.631422	0.007624	-0.001121	-0.036573	1.000000	-0.000064	0.000019	0.000026	-7.366332	-6.522333	59.180061
15976	1.146780	-1.256392	9.627914	0.028307	0.026018	-0.035731	1.000000	-0.000061	0.000038	0.000026	-7.367971	-6.520529	59.180397
15977	1.107845	-1.295995	9.621433	0.042970	-0.027323	-0.041490	1.000000	-0.000051	0.000030	0.000033	-7.368515	-6.519582	59.182079
15978	1.126401	-1.287090	9.632578	0.042999	-0.006960	-0.029536	1.000000	-0.000059	0.000035	0.000016	-7.369723	-6.518307	59.181319
15979	1.125306	-1.269817	9.616515	0.030561	0.001996	-0.047690	1.000000	-0.000056	0.000046	0.000030	-7.370849	-6.515484	59.182515
15980	1.124514	-1.270938	9.616459	0.031135	0.001082	-0.047692	1.000000	-0.000056	0.000031	0.000006	-7.371625	-6.514738	59.180660
15981	1.109192	-1.277813	9.647031	0.024058	-0.016485	-0.018431	1.000000	-0.000037	0.000021	0.000022	-7.370502	-6.514878	59.180775
15982	1.123481	-1.291323	9.632353	0.045286	-0.010625	-0.029550	1.000000	-0.000064	0.000051	0.000014	-7.372287	-6.511726	59.179534
15983	1.111851	-1.257346	9.672796	0.004007	-0.003817	0.004649	1.000000	-0.000037	0.000028	0.000007	-7.371020	-6.511298	59.177558
15984	1.126166	-1.270626	9.658148	0.025236	0.002042	-0.006469	1.000000	-0.000043	0.000045	0.000005	-7.370266	-6.509003	59.175430
15985	1.125129	-1.253071	9.642127	0.012801	0.011015	-0.024611	1.000000	-0.000048	0.000036	0.000000	-7.370088	-6.507713	59.172592
15986	1.139244	-1.248051	9.611462	0.021016	0.026765	-0.053868	1.000000	-0.000048	0.000033	0.000008	-7.369979	-6.506729	59.170942
15987	1.127940	-1.232510	9.667905	-0.007233	0.023675	-0.001515	1.000000	-0.000051	0.000036	0.000018	-7.370313	-6.505197	59.170107
15988	1.126841	-1.215033	9.651890	-0.019669	0.032648	-0.019648	1.000000	-0.000046	0.000048	0.000015	-7.369992	-6.502374	59.169074
15989	1.122150	-1.256913	9.641974	0.015092	0.007352	-0.024611	1.000000	-0.000048	0.000023	0.000030	-7.370204	-6.502247	59.170263
15990	1.121189	-1.239611	9.625922	0.002653	0.016331	-0.042744	1.000000	-0.000064	0.000045	0.000028	-7.372183	-6.499642	59.170800
15991	1.158766	-1.220829	9.648367	0.002171	0.057949	-0.018772	1.000000	-0.000054	0.000040	0.000028	-7.372955	-6.497569	59.170738
15992	1.139214	-1.268784	9.669042	0.029306	0.015974	0.005504	1.000000	-0.000051	0.000036	0.000018	-7.373280	-6.496056	59.170182
15993	1.123243	-1.257304	9.683649	0.009228	0.008269	0.016626	1.000000	-0.000048	0.000055	0.000018	-7.373317	-6.492468	59.169800
15994	1.141180	-1.229858	9.678921	-0.003737	0.038511	0.010492	1.000000	-0.000048	0.000048	0.000032	-7.373526	-6.489389	59.170750
15995	1.120916	-1.240841	9.667656	-0.002638	0.016336	-0.001498	1.000000	-0.000048	0.000052	0.000025	-7.373659	-6.486031	59.170572
15996	1.100970	-1.251784	9.656354	-0.001540	-0.005839	-0.013492	1.000000	-0.000045	0.000016	0.000027	-7.373503	-6.486668	59.171385
15997	1.085514	-1.258775	9.686899	-0.008603	-0.023448	0.015753	1.000000	-0.000054	0.000043	0.000020	-7.374225	-6.484382	59.171309
15998	1.084521	-1.241448	9.670866	-0.021047	-0.014457	-0.002368	1.000000	-0.000059	0.000031	0.000023	-7.375533	-6.483379	59.171434
15999	1.083980	-1.242434	9.670800	-0.020473	-0.015377	-0.002368	1.000000	-0.000037	0.000018	0.000029	-7.374491	-6.483797	59.172351
16000	1.102845	-1.233473	9.681980	-0.020415	0.004959	0.009635	1.000000	-0.000061	0.000013	0.000023	-7.376108	-6.484906	59.172748
16001	1.132332	-1.241143	9.636643	0.008420	0.027534	-0.030731	1.000000	-0.000056	0.000021	0.000028	-7.377221	-6.484986	59.173562
16002	1.112417	-1.233781	9.609315	-0.003514	0.015286	-0.060848	1.000000	-0.000056	0.000021	0.000028	-7.378289	-6.485058	59.174371
16003	1.112040	-1.253404	9.625197	0.010083	0.004449	-0.042736	1.000000	-0.000059	0.000035	0.000016	-7.379487	-6.483801	59.173804
16004	1.111460	-1.272934	9.641111	0.023682	-0.006388	-0.024627	1.000000	-0.000046	0.000042	0.000030	-7.379361	-6.481524	59.174548
16005	1.095549	-1.261736	9.655676	0.003604	-0.014092	-0.013500	1.000000	-0.000080	0.000041	0.000024	-7.383173	-6.479417	59.174921
16006	1.109911	-1.275502	9.640950	0.024820	-0.008219	-0.024632	1.000000	-0.000048	0.000023	0.000030	-7.383356	-6.479252	59.175937
16007	1.128503	-1.266554	9.652175	0.024883	0.012113	-0.012616	1.000000	-0.000051	0.000036	0.000018	-7.383707	-6.477736	59.175439
16008	1.112933	-1.273597	9.682710	0.017846	-0.005526	0.016616	1.000000	-0.000051	0.000033	0.000025	-7.384131	-6.476496	59.175770
16009	1.127255	-1.287097	9.668023	0.039061	0.000347	0.005483	1.000000	-0.000051	0.000036	0.000018	-7.384473	-6.474979	59.175080
16010	1.107105	-1.279659	9.640721	0.027112	-0.011880	-0.024642	1.000000	-0.000059	0.000035	0.000016	-7.385688	-6.473701	59.174313
16011	1.091358	-1.268111	9.655315	0.007048	-0.019592	-0.013512	1.000000	-0.000032	0.000033	0.000019	-7.383892	-6.472535	59.173741
16012	1.125047	-1.271414	9.651939	0.027758	0.007523	-0.012620	1.000000	-0.000045	0.000023	0.000012	-7.383547	-6.472624	59.172772
16013	1.079715	-1.272047	9.727661	-0.007527	-0.033652	0.056967	1.000000	-0.000059	0.000031	0.000023	-7.384927	-6.471637	59.172947
16014	1.124106	-1.291929	9.667745	0.041931	-0.004251	0.005470	1.000000	-0.000037	0.000021	0.000022	-7.383793	-6.471765	59.173075
16015	1.108138	-1.243286	9.650458	-0.004214	0.007918	-0.019578	1.000000	-0.000040	0.000028	0.000024	-7.383051	-6.471167	59.174147
16016	1.107746	-1.262617	9.666355	0.009396	-0.002944	-0.001489	1.000000	-0.000040	0.000025	0.000032	-7.382350	-6.470767	59.175370
16017	1.107232	-1.263426	9.666308	0.009963	-0.003855	-0.001490	1.000000	-0.000037	0.000021	0.000022	-7.381282	-6.470886	59.175583
16018	1.106602	-1.245711	9.650321	-0.002498	0.005177	-0.019576	1.000000	-0.000037	0.000018	0.000029	-7.380244	-6.471287	59.176600
16019	1.091294	-1.252458	9.680852	-0.009531	-0.012484	0.009645	1.000000	-0.000029	0.000020	0.000031	-7.378385	-6.471459	59.178037
16020	1.105670	-1.247305	9.650222	-0.001359	0.003350	-0.019575	1.000000	-0.000056	0.000024	0.000020	-7.379360	-6.471256	59.177953
16021	1.105283	-1.266849	9.666083	0.012246	-0.007523	-0.001494	1.000000	-0.000048	0.000030	0.000015	-7.379403	-6.470573	59.177351
16022	1.104814	-1.267622	9.666035	0.012821	-0.008441	-0.001496	1.000000	-0.000027	0.000013	0.000029	-7.377142	-6.471541	59.178371
16023	1.104211	-1.249974	9.650044	0.000350	0.000611	-0.019574	1.000000	-0.000056	0.000024	0.000020	-7.378178	-6.471310	59.177951
16024	1.142115	-1.231114	9.672613	-0.000052	0.042148	0.004529	1.000000	-0.000040	0.000025	0.000032	-7.377478	-6.470910	59.179173
16025	1.103112	-1.251753	9.649939	0.001487	-0.001232	-0.019574	1.000000	-0.000038	0.000028	0.000007	-7.376182	-6.470580	59.178551
16026	1.083396	-1.262502	9.638567	0.002548	-0.023373	-0.031630	1.000000	-0.000045	0.000020	0.000020	-7.375935	-6.470943	59.178469
16027	1.121320	-1.243605	9.661148	0.002146	0.018152	-0.007517	1.000000	-0.000048	0.000030	0.000015	-7.375934	-6.470274	59.178247
16028	1.135614	-1.238470	9.630538	0.010308	0.034007	-0.036726	1.000000	-0.000045	0.000030	-0.000002	-7.375397	-6.469812	59.175497
16029	1.100631	-1.218353	9.617878	-0.022323	0.015044	-0.055709	1.000000	-0.000048	0.000023	0.000030	-7.375652	-6.469669	59.176649
16030	1.100095	-1.238032	9.633726	-0.008703	0.004158	-0.037642	1.000000	-0.000070	0.000046	0.000002	-7.377900	-6.467273	59.174097
16031	1.103420	-1.216777	9.659654	-0.029243	0.017668	-0.014431	1.000000	-0.000043	0.000038	0.000020	-7.377394	-6.465486	59.173582
16032	1.098741	-1.258646	9.649541	0.005489	-0.007639	-0.019579	1.000000	-0.000056	0.000028	0.000013	-7.378275	-6.465007	59.172606
16033	1.117095	-1.231325	9.644904	-0.007474	0.022638	-0.025570	1.000000	-0.000054	0.000040	0.000028	-7.379082	-6.463014	59.173505
16034	1.120602	-1.228661	9.686739	-0.014953	0.026150	0.015708	1.000000	-0.000062	0.000038	0.000026	-7.380734	-6.461207	59.173828
16035	1.115353	-1.215227	9.628873	-0.019384	0.030788	-0.043621	1.000000	-0.000062	0.000035	0.000033	-7.382515	-6.459714	59.175572
16036	1.099836	-1.241078	9.675254	-0.013333	0.003096	0.003639	1.000000	-0.000062	0.000038	0.000026	-7.384168	-6.457906	59.175895
16037	1.128821	-1.248668	9.630019	0.015433	0.025782	-0.036708	1.000000	-0.000059	0.000057	0.000026	-7.385570	-6.454010	59.176084
16038	1.112936	-1.256037	9.660509	0.008435	0.008069	-0.007507	1.000000	-0.000070	0.000039	0.000016	-7.388013	-6.452162	59.175307
16039	1.093014	-1.267156	9.649078	0.009477	-0.014062	-0.019589	1.000000	-0.000051	0.000026	0.000040	-7.388643	-6.451506	59.177462
16040	1.094850	-0.802795	8.767017	-0.234320	0.255627	-0.947953	1.000000	-0.000101	0.000004	0.000013	-7.394701	-6.453789	59.176798
16041	2.361173	-0.228755	15.042712	-1.138868	1.420134	5.306722	0.999996	0.000555	-0.002002	0.001793	-7.352159	-6.657906	59.410473
16042	-0.013105	-2.428295	1.443703	1.803930	-1.313288	-8.080010	0.999994	-0.001361	0.003078	-0.000641	-7.488955	-6.320565	59.289224
16043	1.510721	0.108240	9.918037	-1.027214	1.065748	0.110514	0.999990	-0.002955	-0.002931	-0.001466	-7.808127	-6.678795	59.166792
16044	0.454419	-3.085880	15.460951	0.156026	-1.660229	5.871343	0.999996	0.001798	0.002016	0.000657	-7.601494	-6.442609	59.208699
16045	0.852765	-1.710110	7.710188	0.558389	-0.370150	-1.897521	1.000000	-0.000718	0.000342	0.000473	-7.683454	-6.399498	59.257004
16046	0.829743	-2.071542	13.317853	-0.099691	-0.722961	3.671092	1.000000	0.000841	0.000408	-0.000194	-7.578231	-6.359008	59.226525
16047	0.418973	0.227511	5.725483	-0.948666	0.321480	-4.155379	1.000000	0.000171	-0.000046	-0.000137	-7.551314	-6.369237	59.210977
16048	2.029008	-1.909720	10.966028	0.781245	0.439623	1.466233	1.000000	-0.000555	-0.000429	-0.000162	-7.607952	-6.423292	59.196995
16049	0.965838	-2.078932	10.816970	0.401024	-0.555715	1.223254	1.000000	0.000047	-0.000138	0.000006	-7.597240	-6.441782	59.199246
16050	0.901194	-0.821745	7.131645	-0.065259	0.142173	-2.579202	1.000000	-0.000069	-0.000210	-0.000002	-7.599854	-6.468558	59.200234
16051	1.469536	-1.349067	10.916103	0.024115	0.244294	1.281480	1.000000	0.000180	0.000109	-0.000081	-7.572417	-6.460285	59.187231
16052	1.243421	-1.063541	9.066147	-0.014658	0.250618	-0.603495	1.000000	-0.000060	-0.000087	-0.000050	-7.573134	-6.473775	59.180835
16053	1.257244	-0.829150	8.475467	-0.105287	0.400015	-1.214397	1.000000	-0.000042	-0.000000	-0.000069	-7.571474	-6.477751	59.170906
16054	1.300411	-1.387689	10.082922	0.112161	0.101297	0.446905	1.000000	-0.000251	0.000049	0.000072	-7.595372	-6.474015	59.176379
16055	1.325934	-1.259406	9.557080	0.107486	0.207415	-0.085026	1.000000	0.000100	0.000259	0.000092	-7.578962	-6.446084	59.180865
16056	1.155095	-1.163333	9.182284	0.004987	0.124185	-0.486033	1.000000	-0.000150	0.000048	0.000052	-7.591024	-6.442676	59.184067
16057	1.038902	-1.784244	10.114146	0.310810	-0.321770	0.500346	1.000000	-0.000066	0.000176	0.000089	-7.593801	-6.424250	59.189534
16058	1.179984	-1.197523	9.523332	-0.010669	0.122720	-0.142883	1.000000	-0.000052	0.000127	0.000051	-7.594546	-6.411898	59.191366
16059	1.006379	-1.229010	9.941521	-0.142751	-0.051685	0.253794	1.000000	-0.000046	0.000102	0.000013	-7.594242	-6.402996	59.189316
16060	0.937774	-1.460611	9.783168	0.045387	-0.225639	0.120600	1.000000	-0.000035	0.000054	-0.000007	-7.592421	-6.399915	59.185612
16061	0.965591	-1.305467	9.966157	-0.101469	-0.126035	0.283585	1.000000	0.000021	0.000056	0.000029	-7.584726	-6.396030	59.186068
16062	1.139836	-1.091728	9.802349	-0.164916	0.137821	0.113588	1.000000	-0.000058	-0.000038	-0.000000	-7.585775	-6.403222	59.184597
16063	1.018383	-1.456525	9.902297	0.063493	-0.159455	0.246368	1.000000	-0.000034	-0.000033	0.000006	-7.584195	-6.409720	59.183771
16064	1.013303	-1.180935	9.623433	-0.124080	-0.014107	-0.065059	1.000000	0.000024	-0.000037	0.000040	-7.576325	-6.416192	59.186875
16065	1.064044	-1.270257	9.668567	-0.030426	-0.020353	-0.003223	1.000000	-0.000010	-0.000071	-0.000008	-7.571835	-6.427260	59.185032
16066	1.079864	-1.208015	9.590604	-0.061550	0.025734	-0.086401	1.000000	0.000024	-0.000049	0.000008	-7.563548	-6.435548	59.184643
16067	1.131673	-1.121853	9.691764	-0.125013	0.110239	0.007788	1.000000	-0.000021	-0.000054	0.000025	-7.560696	-6.444230	59.186281
16068	1.228735	-1.104679	9.410145	-0.042697	0.208799	-0.260959	1.000000	-0.000056	-0.000026	0.000015	-7.561630	-6.449857	59.186317
16069	1.103280	-1.204735	9.445302	-0.028851	0.048169	-0.227324	1.000000	-0.000074	-0.000018	0.000060	-7.565309	-6.453894	59.191411
16070	1.173842	-1.203735	9.636731	-0.027327	0.103575	-0.030970	1.000000	-0.000096	0.000004	0.000093	-7.571838	-6.454970	59.199975
16071	1.050092	-1.383000	9.578780	0.070265	-0.093292	-0.078481	1.000000	-0.000062	0.000035	0.000033	-7.573613	-6.453449	59.201186
16072	1.182066	-1.379042	9.508020	0.146412	0.023571	-0.133871	1.000000	-0.000011	0.000035	0.000050	-7.569812	-6.451587	59.204342
16073	1.104416	-1.082085	9.746630	-0.183810	0.105424	0.053545	1.000000	-0.000054	0.000065	0.000031	-7.570637	-6.446643	59.204812
16074	1.102229	-1.315209	9.737712	0.013120	-0.016451	0.075046	1.000000	-0.000112	0.000056	0.000026	-7.578089	-6.442796	59.204886
16075	1.058227	-1.321338	9.657020	0.009422	-0.053929	-0.008565	1.000000	-0.000054	0.000065	0.000031	-7.578908	-6.437850	59.205353
16076	1.114511	-1.293036	9.691398	0.008711	0.008657	0.027899	1.000000	-0.000046	0.000067	0.000033	-7.578826	-6.432657	59.206024
16077	1.006827	-1.364693	9.722185	0.009040	-0.120796	0.055560	1.000000	-0.000091	0.000024	0.000015	-7.583719	-6.432598	59.205292
16078	1.055944	-1.437153	9.751367	0.089662	-0.117095	0.099317	1.000000	-0.000069	0.000021	-0.000001	-7.585952	-6.433113	59.202790
16079	1.055193	-1.344666	9.672482	0.024797	-0.067671	0.009393	1.000000	-0.000006	0.000017	-0.000002	-7.580885	-6.434127	59.200276
16080	1.078177	-1.257016	9.662812	-0.035347	-0.002879	-0.009054	1.000000	-0.000016	-0.000000	-0.000012	-7.576894	-6.437206	59.196923
16081	1.090976	-1.228566	9.772727	-0.071675	0.019042	0.096919	1.000000	-0.000056	-0.000019	0.000000	-7.577659	-6.442285	59.195183
16082	1.059133	-1.212447	9.603814	-0.073051	0.004357	-0.075148	1.000000	-0.000037	-0.000004	0.000019	-7.576511	-6.445329	59.195369
16083	1.128088	-1.330351	9.691789	0.046431	-0.001033	0.034699	1.000000	-0.000043	0.000003	0.000039	-7.576253	-6.447322	59.197747
16084	1.104455	-1.270111	9.575201	0.002988	0.012964	-0.090687	1.000000	-0.000061	-0.000026	0.000049	-7.578259	-6.452445	59.201742
16085	1.135028	-1.351804	9.592887	0.084038	-0.004520	-0.059121	1.000000	-0.000032	-0.000012	0.000060	-7.577073	-6.455834	59.206794
16086	1.119727	-1.340290	9.607505	0.064008	-0.012272	-0.047951	1.000000	-0.000043	0.000021	0.000056	-7.577021	-6.455460	59.210881
16087	1.157693	-1.303025	9.614612	0.050653	0.039212	-0.041567	1.000000	-0.000037	0.000004	0.000058	-7.576417	-6.456972	59.215455
16088	1.142503	-1.347629	9.676477	0.069912	0.001192	0.023508	1.000000	-0.000056	0.000018	0.000035	-7.577606	-6.457316	59.217135
16089	1.073272	-1.306322	9.651352	0.003916	-0.035531	-0.014437	1.000000	-0.000062	0.000028	0.000048	-7.579597	-6.456341	59.220123
16090	1.083599	-1.360455	9.626136	0.059197	-0.054015	-0.031016	1.000000	-0.000032	0.000026	0.000034	-7.578025	-6.455709	59.221551
16091	1.063983	-1.426827	9.661868	0.099467	-0.106365	0.010672	1.000000	-0.000030	0.000027	0.000017	-7.575950	-6.455335	59.221006
16092	1.116843	-1.364517	9.622813	0.080527	-0.027858	-0.030023	1.000000	-0.000051	0.000018	0.000000	-7.576070	-6.456180	59.218722
16093	1.101439	-1.352432	9.637526	0.060496	-0.035613	-0.018852	1.000000	0.000021	0.000019	-0.000006	-7.567919	-6.457019	59.215756
16094	1.109351	-1.289660	9.674190	0.005962	0.002183	0.009929	1.000000	-0.000037	0.000023	-0.000040	-7.565983	-6.457855	59.208832
16095	1.104665	-1.275096	9.616474	0.001332	0.007167	-0.049354	1.000000	-0.000035	0.000025	-0.000003	-7.564272	-6.457963	59.206095
16096	1.093045	-1.222674	9.641622	-0.052794	0.023819	-0.032749	1.000000	-0.000040	0.000045	-0.000012	-7.562997	-6.455909	59.201980
16097	1.096434	-1.220061	9.683546	-0.060123	0.027103	0.008587	1.000000	-0.000048	0.000043	-0.000014	-7.562649	-6.454095	59.197662
16098	1.072232	-1.252714	9.645851	-0.038148	-0.009259	-0.026990	1.000000	-0.000035	0.000043	0.000015	-7.561120	-6.451834	59.196629
16099	1.109769	-1.252635	9.684577	-0.025276	0.022002	0.015364	1.000000	-0.000038	0.000050	0.000017	-7.559965	-6.448775	59.195811
16100	1.078908	-1.229026	9.713940	-0.065889	0.007395	0.037733	1.000000	-0.000072	0.000021	0.000016	-7.562735	-6.449035	59.195287
16101	1.078461	-1.248652	9.729606	-0.052211	-0.003638	0.055681	1.000000	-0.000022	0.000025	0.000026	-7.559872	-6.448701	59.195842
16102	1.078015	-1.268214	9.745276	-0.038526	-0.014677	0.073626	1.000000	-0.000064	0.000019	0.000025	-7.561853	-6.449004	59.196419
16103	1.039336	-1.288824	9.722159	-0.037161	-0.057875	0.049206	1.000000	-0.000048	0.000001	0.000020	-7.561962	-6.451481	59.196600
16104	1.062630	-1.239133	9.744040	-0.071073	-0.013250	0.066874	1.000000	-0.000029	-0.000006	0.000028	-7.560028	-6.454569	59.197883
16105	1.043592	-1.249437	9.732449	-0.070105	-0.035305	0.054662	1.000000	-0.000024	-0.000019	0.000023	-7.557445	-6.459257	59.198762
16106	1.089405	-1.287040	9.688163	-0.007751	-0.015685	0.021104	1.000000	-0.000029	-0.000049	0.000008	-7.555259	-6.467624	59.198388
16107	1.075371	-1.275240	9.702692	-0.027769	-0.023450	0.032290	1.000000	-0.000026	-0.000059	0.000013	-7.552860	-6.477062	59.198702
16108	1.091642	-1.269201	9.672071	-0.019712	-0.007394	0.003170	1.000000	-0.000002	-0.000073	0.000002	-7.547548	-6.488170	59.197932
16109	1.112082	-1.241222	9.667641	-0.032639	0.022952	-0.002537	1.000000	-0.000042	-0.000060	0.000001	-7.546823	-6.497796	59.196929
16110	1.119877	-1.261178	9.568799	0.004254	0.020589	-0.096404	1.000000	-0.000037	-0.000068	0.000043	-7.546023	-6.507779	59.200783
16111	1.144368	-1.230209	9.606268	-0.016538	0.055089	-0.060761	1.000000	-0.000045	-0.000053	0.000004	-7.545635	-6.516603	59.199985
16112	1.121699	-1.244204	9.552636	-0.007722	0.028909	-0.114326	1.000000	-0.000045	-0.000031	0.000014	-7.545351	-6.522796	59.200014
16113	1.190651	-1.269306	9.561668	0.046373	0.073820	-0.094319	1.000000	-0.000072	-0.000011	0.000028	-7.548313	-6.526519	59.201331
16114	1.147837	-1.274771	9.480870	0.042446	0.036667	-0.178046	1.000000	-0.000061	0.000013	0.000023	-7.549957	-6.527623	59.201704
16115	1.136634	-1.260224	9.537434	0.014570	0.033042	-0.125508	1.000000	-0.000056	0.000021	0.000028	-7.551071	-6.527692	59.202501
16116	1.155130	-1.289097	9.580284	0.040996	0.032969	-0.077433	1.000000	-0.000062	0.000056	0.000043	-7.552967	-6.523518	59.204534
16117	1.100478	-1.278760	9.556281	0.008615	-0.006893	-0.108634	1.000000	-0.000064	0.000051	0.000014	-7.554795	-6.520354	59.203283
16118	1.118527	-1.307707	9.599165	0.035046	-0.006978	-0.060565	1.000000	-0.000065	0.000077	0.000017	-7.556630	-6.514270	59.201967
16119	1.102127	-1.334201	9.645273	0.041269	-0.035046	-0.013548	1.000000	-0.000081	0.000066	0.000027	-7.560463	-6.509209	59.202008
16120	1.085742	-1.341980	9.675666	0.034379	-0.052972	0.015552	1.000000	-0.000062	0.000070	0.000014	-7.561961	-6.503927	59.200485
16121	1.103681	-1.333443	9.687162	0.034577	-0.032774	0.027791	1.000000	-0.000057	0.000060	0.000001	-7.562709	-6.499974	59.197670
16122	1.087485	-1.322025	9.701899	0.014569	-0.040552	0.038981	1.000000	-0.000038	0.000057	0.000003	-7.561319	-6.496356	59.195069
16123	1.086466	-1.322744	9.701915	0.015142	-0.041473	0.038976	1.000000	-0.000035	0.000047	0.000007	-7.559719	-6.493817	59.193158
16124	1.120186	-1.344701	9.714376	0.049057	-0.024585	0.057932	1.000000	-0.000029	0.000015	-0.000016	-7.557189	-6.495243	59.189110
16125	1.138980	-1.316960	9.710161	0.036138	0.005767	0.052278	1.000000	-0.000043	0.000030	-0.000020	-7.556154	-6.495020	59.184379
16126	1.089383	-1.283952	9.712354	-0.017207	-0.019820	0.044514	1.000000	-0.000027	-0.000005	0.000011	-7.553686	-6.498357	59.183677
16127	1.119546	-1.290637	9.667091	0.011404	0.003145	0.004218	1.000000	-0.000045	-0.000006	0.000017	-7.553461	-6.501629	59.184667
16128	1.104456	-1.260474	9.666024	-0.021729	0.005534	-0.002482	1.000000	-0.000040	-0.000001	0.000029	-7.552756	-6.504150	59.185940
16129	1.119523	-1.273614	9.651180	-0.000577	0.011477	-0.013679	1.000000	-0.000037	-0.000007	0.000026	-7.551736	-6.507479	59.187380
16130	1.153799	-1.258360	9.632173	0.007087	0.048700	-0.030507	1.000000	-0.000040	-0.000004	0.000036	-7.551132	-6.510277	59.189540
16131	1.138620	-1.246885	9.646815	-0.012919	0.040920	-0.019303	1.000000	-0.000038	0.000004	0.000058	-7.550511	-6.511802	59.194928
16132	1.134137	-1.269781	9.620471	0.008596	0.025761	-0.042768	1.000000	-0.000040	0.000014	0.000054	-7.550134	-6.512239	59.198808
16133	1.152890	-1.261046	9.631930	0.008799	0.045955	-0.030495	1.000000	-0.000048	0.000023	0.000030	-7.550416	-6.512089	59.200527
16134	1.098969	-1.306522	9.654886	0.015777	-0.024389	-0.008060	1.000000	-0.000048	0.000016	0.000044	-7.550827	-6.512481	59.203304
16135	1.117594	-1.260313	9.635010	-0.010277	0.016154	-0.031560	1.000000	-0.000035	0.000030	0.000044	-7.549714	-6.511354	59.206611
16136	1.097812	-1.308124	9.654801	0.016922	-0.026228	-0.008067	1.000000	-0.000030	0.000023	0.000024	-7.547710	-6.511250	59.206946
16137	1.082344	-1.277752	9.653824	-0.016223	-0.023830	-0.014749	1.000000	-0.000035	0.000011	0.000026	-7.546388	-6.512499	59.208538
16138	1.097020	-1.290781	9.639031	0.004928	-0.017880	-0.025954	1.000000	-0.000035	0.000025	-0.000003	-7.544633	-6.512595	59.205789
16139	1.100832	-1.250786	9.649584	-0.028566	0.005628	-0.020348	1.000000	-0.000040	0.000010	0.000007	-7.543662	-6.514259	59.205024
16140	1.100517	-1.251521	9.649524	-0.027991	0.004713	-0.020346	1.000000	-0.000035	0.000022	0.000004	-7.542008	-6.514633	59.203162
16141	1.099925	-1.252441	9.649472	-0.027431	0.003780	-0.020344	1.000000	-0.000059	0.000038	0.000008	-7.543171	-6.513190	59.202559
16142	1.118488	-1.225259	9.645268	-0.040345	0.034153	-0.025927	1.000000	-0.000064	0.000026	0.000011	-7.544958	-6.512934	59.201355
16143	1.102723	-1.213988	9.659961	-0.060342	0.026369	-0.014715	1.000000	-0.000043	0.000045	0.000005	-7.544216	-6.510609	59.199594
16144	1.116994	-1.246050	9.660841	-0.026053	0.022125	-0.008046	1.000000	-0.000059	0.000035	0.000016	-7.545454	-6.509320	59.198809
16145	1.112103	-1.250524	9.618812	-0.017706	0.017184	-0.049413	1.000000	-0.000062	0.000035	0.000033	-7.547238	-6.507827	59.200667
16146	1.119648	-1.245404	9.702635	-0.032680	0.024299	0.033332	1.000000	-0.000072	0.000036	0.000041	-7.550343	-6.506000	59.202743
16147	1.110471	-1.309433	9.665610	0.022866	-0.015249	0.004187	1.000000	-0.000057	0.000043	0.000038	-7.551621	-6.503408	59.204843
16148	1.113800	-1.288824	9.691826	0.002528	-0.001956	0.027694	1.000000	-0.000078	0.000034	0.000021	-7.555075	-6.502058	59.204722
16149	1.113255	-1.271267	9.676083	-0.010042	0.007340	0.009832	1.000000	-0.000038	0.000015	0.000036	-7.554199	-6.502709	59.206909
16150	1.093562	-1.300673	9.680087	0.004021	-0.024874	0.015389	1.000000	-0.000059	0.000024	0.000038	-7.555740	-6.502254	59.208786
16151	1.112203	-1.310808	9.707222	0.017408	-0.014920	0.045550	1.000000	-0.000040	0.000025	0.000032	-7.555060	-6.501834	59.210270
16152	1.111729	-1.311708	9.707155	0.017986	-0.015844	0.045548	1.000000	-0.000046	0.000016	0.000027	-7.554936	-6.502472	59.211062
16153	1.092300	-1.303498	9.679849	0.005745	-0.027630	0.015380	1.000000	-0.000040	-0.000001	0.000029	-7.554272	-6.505011	59.212775
16154	1.092157	-1.285613	9.664110	-0.006828	-0.018332	-0.002475	1.000000	-0.000043	0.000010	0.000024	-7.553810	-6.506451	59.213360
16155	1.087864	-1.308501	9.637680	0.014638	-0.033448	-0.026005	1.000000	-0.000048	-0.000002	0.000027	-7.554062	-6.509220	59.214903
16156	1.102926	-1.321623	9.622817	0.035778	-0.027487	-0.037223	1.000000	-0.000029	-0.000006	0.000028	-7.552137	-6.512311	59.216178
16157	1.122019	-1.294237	9.618633	0.022867	0.002898	-0.042757	1.000000	-0.000069	0.000014	0.000013	-7.554579	-6.513362	59.215561
16158	1.102736	-1.323717	9.622551	0.036924	-0.029318	-0.037232	1.000000	-0.000037	-0.000018	0.000048	-7.553845	-6.517521	59.219284
16159	1.152065	-1.320815	9.588866	0.065134	0.014832	-0.065191	1.000000	-0.000043	0.000010	0.000024	-7.553445	-6.518974	59.220503
16160	1.083217	-1.297659	9.579503	0.012080	-0.031758	-0.085252	1.000000	-0.000054	0.000018	0.000018	-7.554109	-6.519565	59.220192
16161	1.116975	-1.338879	9.607495	0.059196	-0.025174	-0.048465	1.000000	-0.000048	0.000026	0.000022	-7.554253	-6.519096	59.220445
16162	1.150684	-1.305069	9.572992	0.053694	0.022330	-0.083038	1.000000	-0.000051	0.000030	0.000032	-7.554807	-6.518130	59.221649
16163	1.134822	-1.312443	9.603342	0.046856	0.004302	-0.053984	1.000000	-0.000038	0.000043	0.000032	-7.553843	-6.515620	59.222768
16164	1.138067	-1.291259	9.629690	0.026543	0.017573	-0.030435	1.000000	-0.000035	0.000047	0.000007	-7.552217	-6.513075	59.220852
16165	1.132961	-1.295409	9.587708	0.034837	0.012714	-0.071822	1.000000	-0.000065	0.000052	0.000014	-7.554066	-6.509914	59.219827
16166	1.101768	-1.309215	9.648459	0.020605	-0.022450	-0.013720	1.000000	-0.000027	0.000052	0.000002	-7.551451	-6.506859	59.217238
16167	1.119836	-1.300309	9.660086	0.020854	-0.002300	-0.001385	1.000000	-0.000043	0.000064	0.000023	-7.550973	-6.502192	59.217196
16168	1.103625	-1.288832	9.674862	0.000870	-0.010104	0.009834	1.000000	-0.000038	0.000050	0.000017	-7.549787	-6.499124	59.216373
16169	1.106860	-1.286394	9.716835	-0.006272	-0.007094	0.051224	1.000000	-0.000032	0.000037	0.000012	-7.547936	-6.497665	59.215396
16170	1.091019	-1.256072	9.715969	-0.039416	-0.004654	0.044620	1.000000	-0.000043	0.000045	0.000005	-7.547199	-6.495351	59.213263
16171	1.036735	-1.244894	9.691912	-0.071941	-0.044330	0.013329	1.000000	-0.000024	0.000038	0.000014	-7.544516	-6.493684	59.212712
16172	1.085584	-1.260543	9.673977	-0.030563	-0.010414	0.003231	1.000000	-0.000040	0.000010	0.000007	-7.543516	-6.495368	59.211313
16173	1.089734	-1.220655	9.684627	-0.064028	0.013096	0.008985	1.000000	-0.000037	-0.000011	0.000033	-7.542613	-6.498973	59.213582
16174	1.085474	-1.262309	9.673759	-0.029416	-0.012247	0.003232	1.000000	-0.000059	0.000013	0.000005	-7.543728	-6.500316	59.211958
16175	1.104501	-1.253813	9.685242	-0.029154	0.007890	0.015587	1.000000	-0.000051	0.000001	0.000037	-7.544376	-6.502556	59.214429
16176	1.100289	-1.239147	9.627557	-0.034046	0.013329	-0.043622	1.000000	-0.000043	0.000006	0.000032	-7.544019	-6.504276	59.215898
16177	1.100113	-1.258910	9.643048	-0.020310	0.002154	-0.025806	1.000000	-0.000051	-0.000003	0.000044	-7.544791	-6.506794	59.219199
16178	1.134274	-1.281541	9.655355	0.013682	0.018916	-0.006859	1.000000	-0.000059	-0.000001	0.000035	-7.546313	-6.509255	59.221123
16179	1.110913	-1.257926	9.570427	-0.004086	0.013597	-0.096238	1.000000	-0.000062	0.000006	0.000037	-7.548200	-6.510880	59.223327
16180	1.114575	-1.293466	9.643489	0.015137	-0.003962	-0.019222	1.000000	-0.000046	0.000023	0.000012	-7.547878	-6.510959	59.222340
16181	1.129320	-1.306676	9.628640	0.036258	0.002015	-0.030451	1.000000	-0.000043	0.000003	0.000039	-7.547670	-6.512978	59.225049
16182	1.113907	-1.276643	9.627716	0.003106	0.004478	-0.037029	1.000000	-0.000059	0.000031	0.000023	-7.549015	-6.511962	59.225147
16183	1.113248	-1.277592	9.627667	0.003680	0.003564	-0.037029	1.000000	-0.000038	0.000035	-0.000007	-7.547504	-6.510968	59.221777
16184	1.112465	-1.297238	9.643226	0.017427	-0.007628	-0.019227	1.000000	-0.000051	0.000040	0.000010	-7.547757	-6.509162	59.220316
16185	1.126789	-1.291752	9.612830	0.025372	0.008630	-0.048259	1.000000	-0.000051	0.000040	0.000010	-7.548048	-6.507376	59.219088
16186	1.091781	-1.290200	9.615900	0.005691	-0.020223	-0.049405	1.000000	-0.000067	0.000033	0.000013	-7.550181	-6.506312	59.218082
16187	1.114368	-1.278784	9.669418	-0.001704	0.003766	0.004376	1.000000	-0.000059	0.000038	0.000008	-7.551326	-6.504745	59.216761
16188	1.128788	-1.273390	9.639006	0.006245	0.020029	-0.024650	1.000000	-0.000051	0.000030	0.000032	-7.551886	-6.503779	59.217961
16189	1.112887	-1.299803	9.684866	0.012622	-0.008358	0.022169	1.000000	-0.000059	0.000038	0.000008	-7.553053	-6.502214	59.216589
16190	1.093144	-1.272972	9.641994	-0.012866	-0.009739	-0.025798	1.000000	-0.000059	0.000024	0.000037	-7.554604	-6.501759	59.218459
16191	1.111647	-1.302174	9.684690	0.013776	-0.010197	0.022166	1.000000	-0.000056	0.000028	0.000013	-7.555518	-6.501254	59.217436
16192	1.106932	-1.306308	9.642639	0.022011	-0.014961	-0.019245	1.000000	-0.000051	0.000033	0.000025	-7.555977	-6.500008	59.217748
16193	1.110393	-1.304282	9.684550	0.014924	-0.012037	0.022162	1.000000	-0.000048	0.000023	0.000030	-7.556227	-6.499854	59.218891
16194	1.090803	-1.296013	9.657259	0.002607	-0.023695	-0.008015	1.000000	-0.000046	0.000016	0.000027	-7.556111	-6.500492	59.219676
16195	1.120484	-1.321554	9.627641	0.044271	-0.010806	-0.030490	1.000000	-0.000048	0.000023	0.000030	-7.556373	-6.500318	59.220761
16196	1.124267	-1.300604	9.653977	0.024013	0.002407	-0.006861	1.000000	-0.000040	0.000010	0.000007	-7.555375	-6.502000	59.219359
16197	1.104654	-1.310908	9.642276	0.024865	-0.019538	-0.019260	1.000000	-0.000032	0.000026	0.000034	-7.553872	-6.501385	59.220987
16198	1.123356	-1.301978	9.653897	0.025156	0.000574	-0.006864	1.000000	-0.000027	0.000020	0.000014	-7.551436	-6.501804	59.220224
16199	1.107965	-1.271696	9.653044	-0.008005	0.003064	-0.013402	1.000000	-0.000054	0.000018	0.000017	-7.552150	-6.502383	59.219958
16200	1.107453	-1.291434	9.668531	0.005757	-0.008162	0.004372	1.000000	-0.000038	0.000021	0.000022	-7.551044	-6.502510	59.220072
16201	1.102992	-1.295200	9.626495	0.013968	-0.012885	-0.037046	1.000000	-0.000035	0.000015	0.000019	-7.549619	-6.503410	59.220093
16202	1.106779	-1.274076	9.652867	-0.006280	0.000319	-0.013400	1.000000	-0.000035	0.000018	0.000012	-7.548072	-6.504059	59.219114
16203	1.121466	-1.287057	9.638045	0.014838	0.006310	-0.024640	1.000000	-0.000035	0.000018	0.000012	-7.546537	-6.504697	59.218202
16204	1.121236	-1.269095	9.622414	0.002222	0.015710	-0.042407	1.000000	-0.000051	0.000011	0.000015	-7.546870	-6.506086	59.217675
16205	1.105673	-1.257768	9.637120	-0.017750	0.007884	-0.031164	1.000000	-0.000043	0.000035	0.000027	-7.546444	-6.504647	59.218415
16206	1.124189	-1.267880	9.664291	-0.004257	0.017668	-0.000984	1.000000	-0.000038	0.000021	0.000022	-7.545339	-6.504774	59.218529
16207	1.104593	-1.259630	9.637000	-0.016606	0.006058	-0.031161	1.000000	-0.000064	0.000023	0.000018	-7.547281	-6.504781	59.218267
16208	1.123160	-1.270038	9.664128	-0.003110	0.015837	-0.000981	1.000000	-0.000048	0.000030	0.000015	-7.547301	-6.504056	59.217484
16209	1.137570	-1.283321	9.649297	0.018006	0.021829	-0.012223	1.000000	-0.000051	0.000033	0.000025	-7.547772	-6.502800	59.217916
16210	1.098567	-1.284562	9.610364	0.005923	-0.010790	-0.054825	1.000000	-0.000048	0.000033	0.000008	-7.547690	-6.501793	59.216246
16211	1.140276	-1.263540	9.675642	-0.001655	0.034098	0.011449	1.000000	-0.000054	0.000040	0.000028	-7.548522	-6.499765	59.216908
16212	1.120385	-1.274193	9.663903	-0.000812	0.012166	-0.000975	1.000000	-0.000056	0.000025	0.000020	-7.549534	-6.499550	59.216793
16213	1.100558	-1.265740	9.636661	-0.013174	0.000569	-0.031154	1.000000	-0.000027	0.000045	0.000017	-7.547153	-6.497074	59.216241
16214	1.118874	-1.275922	9.663850	0.000334	0.010328	-0.000973	1.000000	-0.000059	0.000031	0.000023	-7.548504	-6.496057	59.216333
16215	1.103207	-1.264695	9.678557	-0.019632	0.002502	0.010275	1.000000	-0.000046	0.000027	0.000005	-7.548123	-6.495846	59.214515
16216	1.121867	-1.256112	9.690178	-0.019317	0.022591	0.022712	1.000000	-0.000048	0.000026	0.000022	-7.548248	-6.495401	59.214618
16217	1.106252	-1.244840	9.704888	-0.039278	0.014758	0.033963	1.000000	-0.000048	0.000023	0.000030	-7.548491	-6.495240	59.215726
16218	1.120783	-1.276999	9.705553	-0.004963	0.010408	0.040460	1.000000	-0.000054	0.000014	0.000025	-7.549268	-6.496108	59.216289
16219	1.116600	-1.262103	9.647935	-0.010007	0.016091	-0.018710	1.000000	-0.000043	0.000006	0.000031	-7.548985	-6.497845	59.217892
16220	1.097255	-1.272741	9.636116	-0.009175	-0.005829	-0.031151	1.000000	-0.000067	0.000001	0.000025	-7.551303	-6.500255	59.218699
16221	1.131342	-1.295617	9.648386	0.024877	0.010823	-0.012220	1.000000	-0.000059	-0.000001	0.000034	-7.552850	-6.502737	59.220722
16222	1.112201	-1.287384	9.621033	0.012502	-0.000745	-0.042402	1.000000	-0.000048	-0.000002	0.000027	-7.553052	-6.505490	59.221758
16223	1.150439	-1.269340	9.644307	0.012564	0.040338	-0.017505	1.000000	-0.000046	0.000013	0.000034	-7.553068	-6.506440	59.223599
16224	1.096478	-1.295887	9.651139	0.006316	-0.019850	-0.013421	1.000000	-0.000046	0.000016	0.000027	-7.552957	-6.507078	59.224380
16225	1.126252	-1.321431	9.621473	0.047956	-0.006928	-0.035928	1.000000	-0.000054	0.000014	0.000025	-7.553741	-6.507928	59.224903
16226	1.130189	-1.281857	9.632337	0.014541	0.016594	-0.029951	1.000000	-0.000051	0.000015	0.000007	-7.553974	-6.509035	59.223486
16227	1.125558	-1.323499	9.621270	0.049095	-0.008761	-0.035935	1.000000	-0.000054	0.000021	0.000010	-7.554582	-6.509370	59.222426
16228	1.110051	-1.293179	9.620504	0.015929	-0.006234	-0.042409	1.000000	-0.000025	0.000032	0.000029	-7.552041	-6.508237	59.223182
16229	1.158717	-1.309196	9.602577	0.057317	0.027687	-0.052459	1.000000	-0.000075	0.000035	0.000004	-7.554975	-6.507108	59.221077
16230	1.127940	-1.285756	9.632081	0.016831	0.012930	-0.029950	1.000000	-0.000033	0.000026	0.000034	-7.553427	-6.506485	59.222501
16231	1.127116	-1.305472	9.647552	0.030611	0.001645	-0.012230	1.000000	-0.000051	0.000040	0.000010	-7.553715	-6.504689	59.221117
16232	1.107092	-1.315899	9.635812	0.031428	-0.020262	-0.024699	1.000000	-0.000043	0.000042	0.000012	-7.553085	-6.502648	59.219871
16233	1.091426	-1.285694	9.635058	-0.001746	-0.017727	-0.031161	1.000000	-0.000048	0.000030	0.000015	-7.553148	-6.501938	59.219232
16234	1.094812	-1.283781	9.676997	-0.008725	-0.014954	0.010280	1.000000	-0.000048	0.000030	0.000015	-7.553172	-6.501210	59.218446
16235	1.124431	-1.309304	9.647346	0.032904	-0.002024	-0.012237	1.000000	-0.000054	0.000021	0.000010	-7.553757	-6.501510	59.217274
