// Start Time: Unknown
// Update Rate: 100.0Hz
// Filter Profile: human (46.1)
// Firmware Version: 4.4.0
PacketCounter	Acc_X	Acc_Y	Acc_Z	FreeAcc_X	FreeAcc_Y	FreeAcc_Z	OriInc_q0	OriInc_q1	OriInc_q2	OriInc_q3	Roll	Pitch	Yaw
37204	1.478224	-0.317080	9.715179	0.000000	0.000000	0.019423	1.000000	-0.000061	0.000026	0.000021	-1.865684	-8.648551	45.180823
37205	1.502931	-0.316950	9.691732	0.000000	0.000000	0.000004	1.000000	-0.000054	0.000030	0.000028	-1.869774	-8.811969	41.828910
37206	1.495184	-0.309548	9.659104	0.004295	0.011451	-0.033651	1.000000	-0.000053	0.000022	0.000023	-1.870516	-8.729111	43.472578
37207	1.523330	-0.307595	9.690109	0.018593	0.030692	0.001184	1.000000	-0.000061	0.000026	0.000021	-1.877823	-8.726029	43.474909
37208	1.511577	-0.289909	9.679294	-0.000785	0.037831	-0.011860	1.000000	-0.000050	0.000040	0.000027	-1.884279	-8.720893	43.477855
37209	1.506895	-0.280773	9.701175	-0.013504	0.040958	0.008744	1.000000	-0.000062	0.000042	0.000031	-1.891946	-8.715991	43.481257
37210	1.488709	-0.303848	9.681149	-0.008403	0.014647	-0.013048	1.000000	-0.000048	0.000025	0.000018	-1.897638	-8.713172	43.483183
37211	1.477943	-0.335396	9.693754	0.003372	-0.015567	-0.001193	1.000000	-0.000055	0.000020	0.000042	-1.904700	-8.710678	43.488020
37212	1.473666	-0.326111	9.715572	-0.009342	-0.012458	0.019410	1.000000	-0.000042	0.000019	0.000007	-1.909555	-8.708479	43.488722
37213	1.481079	-0.347664	9.672005	0.016095	-0.018712	-0.021797	1.000000	-0.000052	0.000014	0.000019	-1.915816	-8.706777	43.490814
37214	1.502225	-0.336974	9.670324	0.023717	0.004452	-0.020608	1.000000	-0.000041	0.000012	0.000002	-1.920587	-8.705428	43.490995
37215	1.501927	-0.337980	9.670335	0.023717	0.004452	-0.020608	1.000000	-0.000060	0.000018	0.000016	-1.927714	-8.703251	43.492788
37216	1.533275	-0.296915	9.656121	0.019528	0.057823	-0.031275	1.000000	-0.000042	0.000019	0.000007	-1.932782	-8.701168	43.493521
37217	1.486220	-0.310758	9.681312	-0.008433	0.014623	-0.013048	1.000000	-0.000045	0.000018	0.000026	-1.938357	-8.699029	43.496447
37218	1.474666	-0.292766	9.670489	-0.027872	0.021603	-0.026091	1.000000	-0.000038	0.000030	0.000006	-1.942713	-8.696058	43.496992
37219	1.473992	-0.293669	9.670564	-0.027872	0.021603	-0.026091	1.000000	-0.000052	0.000039	0.000014	-1.948894	-8.691509	43.498479
37220	1.473468	-0.294591	9.670616	-0.027858	0.021490	-0.026091	1.000000	-0.000037	0.000014	0.000028	-1.953059	-8.690236	43.501621
37221	1.477028	-0.305745	9.648839	-0.015139	0.018363	-0.046695	1.000000	-0.000045	0.000018	0.000026	-1.958635	-8.688095	43.504546
37222	1.483844	-0.315197	9.681533	-0.008399	0.014283	-0.013048	1.000000	-0.000040	0.000020	0.000020	-1.962631	-8.686039	43.506644
37223	1.533549	-0.301404	9.710875	0.013520	0.056686	0.022978	1.000000	-0.000044	0.000010	0.000021	-1.968026	-8.684807	43.509034
37224	1.500793	-0.295104	9.701696	-0.013442	0.040336	0.008746	1.000000	-0.000047	0.000017	0.000013	-1.972400	-8.683549	43.510247
37225	1.514506	-0.275894	9.667416	-0.012499	0.067425	-0.023710	1.000000	-0.000047	0.000033	0.000036	-1.978337	-8.679586	43.514242
37226	1.492567	-0.288614	9.669131	-0.020028	0.043891	-0.024898	1.000000	-0.000058	0.000019	0.000029	-1.983468	-8.678345	43.517262
37227	1.488199	-0.279319	9.690980	-0.032747	0.047016	-0.004294	1.000000	-0.000038	0.000030	0.000006	-1.987950	-8.674900	43.517824
37228	1.470276	-0.302044	9.670872	-0.027485	0.020240	-0.026087	1.000000	-0.000044	0.000010	0.000021	-1.990584	-8.674936	43.519804
37229	1.477257	-0.311544	9.703535	-0.020806	0.016312	0.007559	1.000000	-0.000044	0.000010	0.000021	-1.995978	-8.673700	43.522193
37230	1.523674	-0.299650	9.678425	0.007379	0.058959	-0.010659	1.000000	-0.000060	0.000019	0.000016	-1.999803	-8.672802	43.523500
37231	1.490919	-0.293463	9.669239	-0.019639	0.042848	-0.024893	1.000000	-0.000046	0.000009	0.000008	-2.005228	-8.671730	43.524367
37232	1.529663	-0.261020	9.687740	-0.016885	0.091644	-0.001896	1.000000	-0.000059	0.000011	0.000011	-2.008444	-8.672111	43.525056
37233	1.471601	-0.256178	9.702021	-0.064240	0.055492	0.003281	1.000000	-0.000045	0.000018	0.000026	-2.014019	-8.669967	43.527981
37234	1.511471	-0.285030	9.667626	-0.011452	0.064508	-0.023689	1.000000	-0.000058	0.000019	0.000029	-2.016096	-8.669626	43.530499
37235	1.456599	-0.278677	9.736380	-0.064843	0.027540	0.035737	1.000000	-0.000058	0.000019	0.000029	-2.023192	-8.667283	43.533813
37236	1.496589	-0.307624	9.701956	-0.011948	0.036473	0.008763	1.000000	-0.000054	0.000005	0.000033	-2.024084	-8.668477	43.536663
37237	1.489193	-0.300233	9.669297	-0.018631	0.040409	-0.024881	1.000000	-0.000065	0.000016	0.000022	-2.031863	-8.666571	43.539143
37238	1.500032	-0.320464	9.680127	0.001264	0.032271	-0.011840	1.000000	-0.000069	0.000006	0.000023	-2.033458	-8.668102	43.540839
37239	1.542619	-0.298555	9.676843	0.016506	0.078594	-0.009440	1.000000	-0.000060	0.000019	0.000016	-2.040581	-8.665923	43.542632
37240	1.492253	-0.314394	9.647484	-0.004996	0.034911	-0.045478	1.000000	-0.000062	0.000017	0.000035	-2.041010	-8.667302	43.545532
37241	1.509599	-0.293643	9.667660	-0.010090	0.061183	-0.023667	1.000000	-0.000045	0.000001	0.000003	-2.046248	-8.667157	43.545868
37242	1.484039	-0.295940	9.691125	-0.030102	0.039917	-0.004254	1.000000	-0.000048	0.000025	0.000018	-2.045528	-8.667802	43.546479
37243	1.476823	-0.337824	9.681843	-0.005614	0.006578	-0.013037	1.000000	-0.000063	0.000050	0.000036	-2.053376	-8.662004	43.550415
37244	1.493642	-0.317197	9.702102	-0.010301	0.031639	0.008782	1.000000	-0.000053	0.000022	0.000023	-2.052992	-8.662546	43.551877
37245	1.482224	-0.299390	9.691297	-0.029705	0.038696	-0.004248	1.000000	-0.000052	0.000014	0.000019	-2.059250	-8.660872	43.553973
37246	1.485846	-0.310739	9.669480	-0.016444	0.034293	-0.024853	1.000000	-0.000057	0.000012	0.000024	-2.058355	-8.662317	43.555901
37247	1.496536	-0.330889	9.680318	0.002955	0.027220	-0.011825	1.000000	-0.000066	0.000024	0.000027	-2.066298	-8.659530	43.558921
37248	1.506510	-0.301732	9.667893	-0.008436	0.056196	-0.023635	1.000000	-0.000065	0.000016	0.000022	-2.067138	-8.661022	43.560118
37249	1.495054	-0.284119	9.657098	-0.027841	0.063253	-0.036662	1.000000	-0.000063	0.000025	0.000008	-2.074465	-8.658130	43.560929
37250	1.520435	-0.333385	9.656961	0.024096	0.044703	-0.031216	1.000000	-0.000059	0.000035	0.000039	-2.074564	-8.657459	43.564094
37251	1.494807	-0.335817	9.680415	0.003761	0.024634	-0.011818	1.000000	-0.000040	-0.000005	0.000024	-2.079564	-8.657928	43.566943
37252	1.455077	-0.320788	9.638553	-0.029636	0.011214	-0.059695	1.000000	-0.000052	0.000014	0.000019	-2.078949	-8.660094	43.567727
37253	1.494207	-0.337754	9.680440	0.004076	0.023325	-0.011815	1.000000	-0.000044	0.000035	0.000017	-2.084261	-8.656067	43.569520
37254	1.482593	-0.319667	9.669688	-0.014956	0.028813	-0.024833	1.000000	-0.000035	0.000023	0.000014	-2.080239	-8.658196	43.569873
37255	1.497145	-0.349491	9.658703	0.017145	0.018637	-0.032427	1.000000	-0.000034	0.000015	0.000009	-2.084327	-8.656485	43.570898
37256	1.477974	-0.310745	9.691588	-0.027212	0.030536	-0.004212	1.000000	-0.000025	0.000021	-0.000002	-2.079411	-8.657657	43.570073
37257	1.498893	-0.299897	9.690040	-0.019599	0.053690	-0.002987	1.000000	-0.000051	0.000032	0.000009	-2.085419	-8.654072	43.571034
37258	1.502280	-0.311218	9.668251	-0.006452	0.049368	-0.023597	1.000000	-0.000058	0.000020	0.000029	-2.085432	-8.654815	43.573541
37259	1.454339	-0.275659	9.670125	-0.065595	0.043434	-0.030243	1.000000	-0.000027	0.000036	0.000007	-2.088561	-8.650723	43.574260
37260	1.504379	-0.311343	9.722850	-0.011595	0.047081	0.030663	1.000000	-0.000048	0.000025	0.000018	-2.084905	-8.649629	43.576731
37261	1.485681	-0.284657	9.679457	-0.037701	0.058138	-0.015986	1.000000	-0.000041	0.000028	0.000025	-2.089963	-8.646323	43.579508
37262	1.474799	-0.316010	9.691902	-0.025480	0.026660	-0.004196	1.000000	-0.000040	0.000020	0.000020	-2.087804	-8.647049	43.580518
37263	1.499698	-0.315585	9.668510	-0.005155	0.046728	-0.023583	1.000000	-0.000053	0.000022	0.000023	-2.094200	-8.644457	43.583148
37264	1.495452	-0.306335	9.690370	-0.017205	0.048160	-0.002954	1.000000	-0.000039	0.000013	0.000015	-2.089188	-8.646833	43.584229
37265	1.488012	-0.298493	9.657752	-0.023906	0.052143	-0.036586	1.000000	-0.000045	0.000018	0.000026	-2.094674	-8.644733	43.587161
37266	1.483724	-0.289369	9.679618	-0.036238	0.053733	-0.015955	1.000000	-0.000055	0.000020	0.000042	-2.093847	-8.646683	43.590317
37267	1.490395	-0.299186	9.712291	-0.029529	0.049701	0.017676	1.000000	-0.000048	0.000025	0.000018	-2.099529	-8.643867	43.592268
37268	1.478974	-0.281107	9.701530	-0.048404	0.055117	0.004680	1.000000	-0.000034	0.000015	0.000009	-2.094300	-8.646560	43.592015
37269	1.482541	-0.292117	9.679716	-0.035703	0.052012	-0.015944	1.000000	-0.000045	0.000018	0.000026	-2.099736	-8.644529	43.594958
37270	1.488687	-0.252501	9.689212	-0.059449	0.083787	-0.007066	1.000000	-0.000060	0.000019	0.000016	-2.097200	-8.645416	43.595921
37271	1.495609	-0.262290	9.721849	-0.052732	0.079727	0.026564	1.000000	-0.000045	0.000001	0.000003	-2.102251	-8.645384	43.596272
37272	1.488353	-0.254582	9.689209	-0.058695	0.081917	-0.007045	1.000000	-0.000057	0.000012	0.000024	-2.098255	-8.648162	43.597835
37273	1.496065	-0.276085	9.645502	-0.033294	0.075736	-0.048298	1.000000	-0.000055	-0.000004	0.000015	-2.104562	-8.648712	43.599566
37274	1.507072	-0.296136	9.656258	-0.012626	0.066907	-0.035283	1.000000	-0.000056	0.000004	0.000020	-2.098638	-8.649823	43.602838
37275	1.485255	-0.308922	9.657848	-0.020228	0.043691	-0.036536	1.000000	-0.000062	0.000034	0.000026	-2.105832	-8.645946	43.605721
37276	1.506301	-0.298362	9.656309	-0.011647	0.065026	-0.035269	1.000000	-0.000038	0.000005	0.000010	-2.098554	-8.648647	43.606226
37277	1.502175	-0.289233	9.678161	-0.024314	0.068014	-0.014638	1.000000	-0.000063	0.000017	0.000035	-2.105931	-8.646723	43.610251
37278	1.519252	-0.268707	9.698483	-0.028531	0.092758	0.007266	1.000000	-0.000056	0.000029	0.000015	-2.102799	-8.645619	43.611537
37279	1.490284	-0.272669	9.667449	-0.042846	0.073571	-0.027616	1.000000	-0.000055	0.000013	0.000038	-2.109287	-8.644158	43.615858
37280	1.450955	-0.307118	9.648736	-0.044425	0.022701	-0.050761	1.000000	-0.000053	0.000022	0.000023	-2.105304	-8.643445	43.618142
37281	1.478946	-0.305367	9.679857	-0.030042	0.041743	-0.015876	1.000000	-0.000047	0.000033	0.000036	-2.110795	-8.639599	43.622158
37282	1.504578	-0.354343	9.679565	0.022632	0.022585	-0.010531	1.000000	-0.000042	-0.000005	0.000011	-2.102839	-8.643042	43.623473
37283	1.521824	-0.333673	9.699873	0.017609	0.048705	0.011372	1.000000	-0.000062	0.000034	0.000026	-2.109798	-8.639157	43.626357
37284	1.507042	-0.317281	9.634672	0.004535	0.054414	-0.055855	1.000000	-0.000051	0.000023	0.000037	-2.104272	-8.644500	43.628284
37285	1.509901	-0.316918	9.689173	-0.001376	0.053292	-0.001598	1.000000	-0.000044	0.000010	0.000021	-2.109097	-8.643477	43.630705
37286	1.509497	-0.317941	9.689202	-0.000940	0.051878	-0.001591	1.000000	-0.000054	0.000030	0.000028	-2.107932	-8.643785	43.632889
37287	1.512879	-0.329204	9.667389	0.011781	0.048746	-0.022229	1.000000	-0.000053	0.000022	0.000024	-2.113824	-8.641379	43.635549
37288	1.482968	-0.321488	9.712716	-0.020328	0.030471	0.017778	1.000000	-0.000043	0.000044	0.000035	-2.110649	-8.637237	43.639932
37289	1.482408	-0.322544	9.712766	-0.020283	0.030374	0.017779	1.000000	-0.000057	0.000012	0.000024	-2.116982	-8.635979	43.642737
37290	1.493864	-0.353919	9.647194	0.019114	0.020446	-0.044143	1.000000	-0.000037	0.000014	-0.000004	-2.111963	-8.631879	43.645259
37291	1.522187	-0.352078	9.678279	0.033535	0.039443	-0.009248	1.000000	-0.000051	0.000006	0.000046	-2.118020	-8.631115	43.650558
37292	1.470599	-0.306449	9.702036	-0.037932	0.034937	0.004818	1.000000	-0.000043	0.000027	0.000012	-2.114811	-8.632946	43.650279
37293	1.517000	-0.294299	9.677143	-0.009960	0.078134	-0.013259	1.000000	-0.000039	0.000013	0.000015	-2.118894	-8.631556	43.651998
37294	1.480883	-0.327128	9.712846	-0.018115	0.026847	0.017793	1.000000	-0.000045	0.000018	0.000026	-2.119358	-8.631557	43.653401
37295	1.483920	-0.288600	9.667965	-0.036608	0.061100	-0.027505	1.000000	-0.000034	0.000015	0.000009	-2.122786	-8.629886	43.654431
37296	1.483464	-0.289325	9.668014	-0.036190	0.059649	-0.027495	1.000000	-0.000036	0.000031	0.000019	-2.119306	-8.630368	43.655797
37297	1.472472	-0.320594	9.680352	-0.024318	0.029279	-0.015814	1.000000	-0.000035	0.000023	0.000014	-2.122901	-8.627803	43.657367
37298	1.497555	-0.320097	9.656974	-0.002615	0.048134	-0.035165	1.000000	-0.000056	0.000004	0.000020	-2.118265	-8.626407	43.661569
37299	1.493308	-0.310918	9.678861	-0.015210	0.051044	-0.014516	1.000000	-0.000038	0.000030	0.000006	-2.121977	-8.623036	43.662145
37300	1.507184	-0.291316	9.644775	-0.013987	0.076302	-0.046821	1.000000	-0.000040	0.000021	0.000020	-2.116798	-8.627211	43.662329
37301	1.491933	-0.262984	9.655926	-0.046009	0.086304	-0.039132	1.000000	-0.000034	0.000015	0.000009	-2.120047	-8.625570	43.663364
37302	1.508976	-0.242096	9.676334	-0.050676	0.111461	-0.017175	1.000000	-0.000044	0.000035	0.000017	-2.119438	-8.623907	43.664097
37303	1.490790	-0.264612	9.656059	-0.045539	0.085170	-0.039120	1.000000	-0.000036	0.000031	0.000019	-2.123053	-8.620438	43.666205
37304	1.471902	-0.275527	9.712129	-0.058268	0.059857	0.013853	1.000000	-0.000023	0.000029	0.000016	-2.118189	-8.617865	43.667724
37305	1.471492	-0.276366	9.712168	-0.058181	0.059734	0.013854	1.000000	-0.000057	0.000012	0.000024	-2.124252	-8.616534	43.670517
37306	1.486030	-0.306545	9.701064	-0.025014	0.047878	0.006171	1.000000	-0.000050	0.000024	0.000005	-2.118262	-8.616243	43.671586
37307	1.481763	-0.297381	9.722959	-0.037587	0.050749	0.026825	1.000000	-0.000042	0.000011	0.000034	-2.122698	-8.614955	43.675513
37308	1.510859	-0.307029	9.677709	-0.003764	0.065978	-0.013165	1.000000	-0.000051	0.000007	0.000014	-2.116908	-8.618231	43.676971
37309	1.535237	-0.295091	9.730699	-0.001948	0.087872	0.042403	1.000000	-0.000034	0.000015	0.000009	-2.119989	-8.616579	43.678004
37310	1.516750	-0.268157	9.687391	-0.027513	0.097035	-0.004129	1.000000	-0.000054	0.000030	0.000028	-2.115081	-8.618750	43.679728
37311	1.509173	-0.260397	9.654830	-0.034180	0.101006	-0.037731	1.000000	-0.000053	0.000022	0.000024	-2.120447	-8.616303	43.682381
37312	1.494190	-0.281956	9.688998	-0.033759	0.071756	-0.005420	1.000000	-0.000057	0.000037	0.000020	-2.113655	-8.614547	43.685258
37313	1.472425	-0.294388	9.690514	-0.041255	0.048425	-0.006734	1.000000	-0.000027	-0.000006	0.000021	-2.115946	-8.615362	43.687731
37314	1.493641	-0.283880	9.689026	-0.033630	0.070907	-0.005413	1.000000	-0.000072	0.000029	0.000038	-2.121881	-8.614577	43.688951
37315	1.482955	-0.315707	9.701241	-0.021697	0.040456	0.006212	1.000000	-0.000052	-0.000011	0.000023	-2.127087	-8.615894	43.691665
37316	1.479747	-0.317930	9.646731	-0.015297	0.039066	-0.048038	1.000000	-0.000047	0.000017	0.000013	-2.119620	-8.622078	43.692373
37317	1.511857	-0.326378	9.655985	0.011862	0.054913	-0.033775	1.000000	-0.000052	0.000014	0.000019	-2.124673	-8.620621	43.694500
37318	1.496706	-0.298408	9.667145	-0.018875	0.063371	-0.026038	1.000000	-0.000057	0.000012	0.000024	-2.118888	-8.620021	43.699665
37319	1.535361	-0.266354	9.686078	-0.016189	0.112476	-0.002719	1.000000	-0.000053	0.000022	0.000024	-2.124045	-8.617626	43.702326
37320	1.470515	-0.302039	9.690569	-0.038575	0.041351	-0.006691	1.000000	-0.000048	0.000025	0.000018	-2.120974	-8.619489	43.703280
37321	1.484423	-0.282696	9.656527	-0.037629	0.068473	-0.038955	1.000000	-0.000061	0.000027	0.000021	-2.126972	-8.616641	43.705647
37322	1.452023	-0.325750	9.670241	-0.032007	0.013448	-0.028678	1.000000	-0.000030	0.000017	0.000036	-2.118448	-8.614923	43.710736
37323	1.484078	-0.334154	9.679506	-0.004819	0.029270	-0.014417	1.000000	-0.000060	0.000019	0.000016	-2.124171	-8.612961	43.712561
37324	1.505216	-0.323801	9.678041	0.004636	0.050242	-0.013072	1.000000	-0.000055	0.000013	0.000038	-2.114038	-8.612332	43.720909
37325	1.537416	-0.332365	9.687281	0.031843	0.066049	0.001188	1.000000	-0.000049	0.000008	0.000027	-2.118550	-8.611581	43.724014
37326	1.547572	-0.302771	9.675121	0.020366	0.093383	-0.010368	1.000000	-0.000043	0.000027	0.000012	-2.109468	-8.618925	43.721930
37327	1.521759	-0.305205	9.698516	0.000265	0.072932	0.008962	1.000000	-0.000050	0.000015	0.000032	-2.114046	-8.617373	43.725590
37328	1.510277	-0.287177	9.687858	-0.018835	0.078022	-0.003939	1.000000	-0.000040	0.000037	0.000043	-2.109105	-8.619806	43.728285
37329	1.492192	-0.309716	9.667488	-0.013643	0.051654	-0.025961	1.000000	-0.000047	0.000017	0.000013	-2.112997	-8.618194	43.729742
37330	1.466140	-0.312328	9.690906	-0.033246	0.029521	-0.006628	1.000000	-0.000064	0.000050	0.000036	-2.109965	-8.617357	43.734463
37331	1.498141	-0.320645	9.700189	-0.006033	0.045268	0.007640	1.000000	-0.000017	-0.000009	0.000004	-2.110179	-8.618762	43.735054
37332	1.469651	-0.323918	9.669026	-0.018350	0.024358	-0.027294	1.000000	-0.000049	0.000008	0.000027	-2.099204	-8.616731	43.744475
37333	1.523356	-0.320838	9.676810	0.016487	0.063256	-0.011670	1.000000	-0.000046	0.000009	0.000008	-2.102737	-8.616004	43.745390
37334	1.523081	-0.321774	9.676823	0.017028	0.061864	-0.011662	1.000000	-0.000045	0.000018	0.000026	-2.100154	-8.617172	43.749609
37335	1.526210	-0.283160	9.632099	-0.001463	0.096100	-0.056787	1.000000	-0.000042	0.000020	0.000007	-2.103196	-8.615263	43.750377
37336	1.517800	-0.263854	9.675956	-0.027197	0.100170	-0.015408	1.000000	-0.000039	0.000038	0.000011	-2.102085	-8.620192	43.746108
37337	1.502655	-0.285259	9.710085	-0.027817	0.072499	0.016812	1.000000	-0.000049	0.000033	0.000023	-2.106141	-8.616821	43.748653
37338	1.469828	-0.278741	9.700869	-0.054546	0.054365	0.002557	1.000000	-0.000046	0.000009	0.000008	-2.101137	-8.622952	43.748282
37339	1.476406	-0.288812	9.733498	-0.047561	0.049831	0.036141	1.000000	-0.000062	0.000034	0.000026	-2.106668	-8.619428	43.751224
37340	1.469025	-0.280924	9.700928	-0.053756	0.052157	0.002573	1.000000	-0.000043	0.000002	0.000016	-2.101212	-8.624141	43.753914
37341	1.498293	-0.290382	9.655669	-0.020708	0.069163	-0.037416	1.000000	-0.000043	0.000002	0.000016	-2.104409	-8.624339	43.755838
37342	1.498219	-0.291395	9.655650	-0.020368	0.065964	-0.037393	1.000000	-0.000056	0.000004	0.000020	-2.095979	-8.635408	43.757024
37343	1.551806	-0.288430	9.663476	0.014462	0.104786	-0.021728	1.000000	-0.000048	0.000025	0.000018	-2.099651	-8.633135	43.759058
37344	1.514903	-0.271885	9.676187	-0.023233	0.090626	-0.015305	1.000000	-0.000049	0.000033	0.000023	-2.092776	-8.625027	43.767308
37345	1.492785	-0.284432	9.677693	-0.030643	0.067126	-0.016688	1.000000	-0.000049	0.000033	0.000023	-2.096548	-8.621762	43.769869
37346	1.459576	-0.278105	9.668526	-0.056784	0.050076	-0.030951	1.000000	-0.000066	0.000049	0.000023	-2.096191	-8.616366	43.772390
37347	1.465835	-0.288265	9.701195	-0.049755	0.045480	0.002627	1.000000	-0.000046	0.000026	0.000031	-2.099716	-8.613832	43.775932
37348	1.475852	-0.258630	9.689137	-0.060164	0.073064	-0.008838	1.000000	-0.000043	0.000028	0.000012	-2.087114	-8.615530	43.778480
37349	1.468844	-0.300256	9.679369	-0.035460	0.039485	-0.018044	1.000000	-0.000057	0.000012	0.000024	-2.091663	-8.614639	43.781336
37350	1.504932	-0.318982	9.666722	0.005936	0.051716	-0.024461	1.000000	-0.000057	0.000012	0.000024	-2.087811	-8.609394	43.789770
37351	1.493725	-0.301057	9.656050	-0.013310	0.058516	-0.037333	1.000000	-0.000050	0.000015	0.000032	-2.091626	-8.608002	43.793453
37352	1.525626	-0.309748	9.665351	0.014314	0.072025	-0.023045	1.000000	-0.000062	0.000034	0.000026	-2.086126	-8.611730	43.795707
37353	1.532148	-0.319998	9.697971	0.021388	0.067372	0.010526	1.000000	-0.000057	0.000012	0.000024	-2.090554	-8.610825	43.798561
37354	1.488459	-0.294505	9.678058	-0.023210	0.055735	-0.016596	1.000000	-0.000048	0.000025	0.000018	-2.076311	-8.611023	43.805094
37355	1.462398	-0.297022	9.701449	-0.043175	0.035055	0.002701	1.000000	-0.000050	0.000041	0.000028	-2.079817	-8.606843	43.808197
37356	1.450774	-0.279193	9.690847	-0.063558	0.040057	-0.010159	1.000000	-0.000069	0.000031	0.000019	-2.082522	-8.615962	43.803440
37357	1.472140	-0.318528	9.712221	-0.024385	0.025310	0.015570	1.000000	-0.000050	0.000015	0.000032	-2.086118	-8.614747	43.807148
37358	1.465002	-0.310703	9.679622	-0.030070	0.028799	-0.017989	1.000000	-0.000066	-0.000001	0.000031	-2.085947	-8.613005	43.814086
37359	1.493437	-0.309546	9.710763	-0.015384	0.047253	0.016993	1.000000	-0.000061	0.000002	0.000025	-2.090684	-8.613357	43.817097
37360	1.540150	-0.297820	9.686032	0.013315	0.089071	-0.000865	1.000000	-0.000065	0.000016	0.000022	-2.087782	-8.614202	43.821048
37361	1.533379	-0.339624	9.676157	0.038056	0.055464	-0.010132	1.000000	-0.000055	-0.000004	0.000015	-2.091628	-8.615196	43.822832
37362	1.489858	-0.314063	9.656233	-0.008174	0.043897	-0.037251	1.000000	-0.000048	0.000025	0.000018	-2.084331	-8.622174	43.821881
37363	1.478870	-0.345478	9.668323	0.003954	0.013131	-0.025824	1.000000	-0.000032	0.000016	0.000023	-2.085589	-8.620936	43.824521
37364	1.463589	-0.317194	9.679625	-0.026878	0.022426	-0.017963	1.000000	-0.000043	0.000028	0.000012	-2.082419	-8.615352	43.826854
37365	1.481953	-0.357230	9.646469	0.018069	0.009113	-0.046534	1.000000	-0.000052	0.000015	0.000019	-2.085856	-8.614287	43.829038
37366	1.484380	-0.307590	9.678278	-0.018450	0.043822	-0.016525	1.000000	-0.000039	0.000013	0.000015	-2.082489	-8.615673	43.830321
37367	1.498899	-0.337481	9.667031	0.013890	0.033360	-0.024389	1.000000	-0.000043	0.000020	0.000007	-2.084580	-8.614069	43.831134
37368	1.530602	-0.296288	9.653632	0.010447	0.085232	-0.034356	1.000000	-0.000047	0.000017	0.000013	-2.079662	-8.615002	43.833066
37369	1.486984	-0.320326	9.656470	-0.004471	0.038470	-0.037226	1.000000	-0.000051	0.000048	0.000033	-2.083093	-8.610036	43.836731
37370	1.486260	-0.321359	9.656547	-0.004776	0.037392	-0.037222	1.000000	-0.000048	0.000025	0.000018	-2.085589	-8.612802	43.836279
37371	1.522117	-0.339639	9.643940	0.035150	0.050087	-0.043654	1.000000	-0.000020	0.000022	0.000024	-2.085410	-8.610868	43.839070
37372	1.502627	-0.301178	9.677234	-0.008926	0.062132	-0.015059	1.000000	-0.000033	0.000049	0.000023	-2.083560	-8.605835	43.841845
37373	1.523285	-0.290483	9.675963	-0.001085	0.084850	-0.013614	1.000000	-0.000044	0.000035	0.000017	-2.085984	-8.602434	43.843744
37374	1.518592	-0.281481	9.697979	-0.011696	0.085950	0.007120	1.000000	-0.000050	0.000041	0.000028	-2.076493	-8.596231	43.851576
37375	1.492506	-0.284026	9.721348	-0.031610	0.065170	0.026398	1.000000	-0.000048	0.000025	0.000018	-2.079290	-8.593977	43.853614
37376	1.517448	-0.283494	9.698099	-0.010696	0.083763	0.007140	1.000000	-0.000048	0.000025	0.000018	-2.074681	-8.594983	43.856614
37377	1.480499	-0.266831	9.710820	-0.050092	0.070155	0.013587	1.000000	-0.000039	0.000038	0.000011	-2.076298	-8.591286	43.857825
37378	1.494647	-0.296671	9.699617	-0.017233	0.056707	0.005716	1.000000	-0.000034	0.000032	0.000033	-2.062843	-8.598209	43.860031
37379	1.494115	-0.297286	9.699680	-0.016955	0.056224	0.005719	1.000000	-0.000023	0.000022	0.000011	-2.062416	-8.596473	43.861306
37380	1.483190	-0.328570	9.711708	-0.003456	0.023908	0.017089	1.000000	-0.000044	0.000010	0.000021	-2.052897	-8.596435	43.868720
37381	1.511037	-0.277393	9.720301	-0.020091	0.079739	0.027926	1.000000	-0.000043	0.000020	0.000007	-2.054601	-8.594902	43.869543
37382	1.471378	-0.261461	9.678478	-0.054817	0.066240	-0.019891	1.000000	-0.000035	0.000016	0.000009	-2.053648	-8.604110	43.863021
37383	1.492864	-0.300393	9.699777	-0.015552	0.051349	0.005748	1.000000	-0.000039	0.000013	0.000015	-2.055142	-8.603420	43.864838
37384	1.470803	-0.262964	9.678525	-0.053206	0.064085	-0.019868	1.000000	-0.000032	0.000016	0.000023	-2.046635	-8.602487	43.869886
37385	1.478303	-0.283868	9.634692	-0.027741	0.057973	-0.061322	1.000000	-0.000066	0.000025	-0.000005	-2.050701	-8.600484	43.869288
37386	1.502462	-0.272360	9.687870	-0.025115	0.076765	-0.005553	1.000000	-0.000019	0.000007	0.000014	-2.038186	-8.607869	43.869895
37387	1.480767	-0.284781	9.689223	-0.032405	0.053079	-0.007029	1.000000	-0.000072	0.000013	0.000015	-2.043276	-8.607228	43.871659
37388	1.499055	-0.275288	9.633374	-0.017842	0.075703	-0.059801	1.000000	-0.000044	0.000010	0.000021	-2.034028	-8.609138	43.876692
37389	1.490795	-0.256323	9.677276	-0.042711	0.080745	-0.018327	1.000000	-0.000048	0.000025	0.000018	-2.036344	-8.607106	43.878764
37390	1.501162	-0.276540	9.687953	-0.022836	0.070542	-0.005501	1.000000	-0.000061	0.000027	0.000021	-2.029311	-8.614604	43.879502
37391	1.485841	-0.248661	9.699308	-0.054620	0.079974	0.002442	1.000000	-0.000053	0.000022	0.000024	-2.032212	-8.612921	43.882270
37392	1.467912	-0.271322	9.678733	-0.049509	0.052502	-0.019779	1.000000	-0.000065	0.000016	0.000022	-2.033066	-8.616748	43.883372
37393	1.489359	-0.310780	9.699989	-0.010208	0.037526	0.005818	1.000000	-0.000055	0.000013	0.000038	-2.036410	-8.616128	43.887812
37394	1.495549	-0.271466	9.710012	-0.035157	0.068557	0.015270	1.000000	-0.000062	0.000035	0.000026	-2.036785	-8.622572	43.885759
37395	1.492432	-0.323168	9.678102	0.002217	0.032073	-0.014911	1.000000	-0.000054	0.000005	0.000033	-2.039936	-8.622936	43.889665
37396	1.485276	-0.315048	9.645543	-0.005040	0.035008	-0.048439	1.000000	-0.000045	0.000018	0.000026	-2.040507	-8.628367	43.889319
37397	1.495800	-0.335164	9.656179	0.014742	0.027220	-0.035643	1.000000	-0.000050	0.000016	0.000032	-2.043191	-8.627593	43.893089
37398	1.491563	-0.326215	9.678134	0.003298	0.028197	-0.014900	1.000000	-0.000042	0.000011	0.000034	-2.036241	-8.628628	43.899522
37399	1.516655	-0.325618	9.654888	0.023743	0.048015	-0.034126	1.000000	-0.000048	0.000025	0.000018	-2.038418	-8.626821	43.901626
37400	1.497586	-0.337151	9.710770	0.010829	0.022780	0.018633	1.000000	-0.000028	0.000027	0.000022	-2.039148	-8.623849	43.902674
37401	1.496973	-0.288331	9.688258	-0.020313	0.059800	-0.005424	1.000000	-0.000057	0.000012	0.000024	-2.042485	-8.623484	43.905603
37402	1.489758	-0.280342	9.655712	-0.027312	0.062453	-0.038942	1.000000	-0.000060	0.000019	0.000016	-2.042228	-8.628957	43.904067
37403	1.474860	-0.302083	9.689600	-0.027681	0.034244	-0.006930	1.000000	-0.000044	0.000010	0.000021	-2.044019	-8.628851	43.906613
37404	1.478582	-0.312875	9.667658	-0.013895	0.030807	-0.027670	1.000000	-0.000039	0.000013	0.000015	-2.040888	-8.624930	43.909918
37405	1.500042	-0.352115	9.688874	0.025410	0.015780	-0.002107	1.000000	-0.000057	0.000012	0.000024	-2.044188	-8.624575	43.912848
37406	1.514299	-0.332573	9.655021	0.025675	0.041324	-0.034100	1.000000	-0.000053	0.000022	0.000024	-2.043334	-8.632057	43.911415
37407	1.531559	-0.362079	9.698213	0.052398	0.029025	0.012205	1.000000	-0.000061	0.000027	0.000021	-2.047016	-8.630097	43.913916
37408	1.537457	-0.272955	9.685808	-0.002372	0.097394	-0.002302	1.000000	-0.000049	0.000033	0.000023	-2.038051	-8.630949	43.917731
37409	1.526353	-0.304668	9.697750	0.009850	0.066402	0.008943	1.000000	-0.000057	0.000012	0.000024	-2.041259	-8.630680	43.920673
37410	1.478807	-0.269057	9.699839	-0.049653	0.058367	0.002620	1.000000	-0.000048	0.000025	0.000018	-2.039633	-8.637648	43.917636
37411	1.475636	-0.320595	9.667855	-0.012296	0.021896	-0.027644	1.000000	-0.000060	0.000019	0.000016	-2.043035	-8.636682	43.919605
37412	1.464526	-0.302269	9.657275	-0.031454	0.027044	-0.040408	1.000000	-0.000019	0.000007	0.000014	-2.035010	-8.642889	43.917453
37413	1.514494	-0.338878	9.709714	0.022369	0.030590	0.020198	1.000000	-0.000039	0.000005	0.000010	-2.035782	-8.643573	43.918790
37414	1.546457	-0.297530	9.696538	0.018573	0.081871	0.010543	1.000000	-0.000035	0.000016	0.000009	-2.027915	-8.648628	43.920181
37415	1.535284	-0.279223	9.685974	-0.000651	0.088478	-0.002217	1.000000	-0.000047	0.000017	0.000013	-2.029692	-8.647952	43.921772
37416	1.513254	-0.291634	9.687321	-0.007173	0.063102	-0.003755	1.000000	-0.000044	0.000035	0.000017	-2.021189	-8.648354	43.928089
37417	1.487032	-0.244275	9.688169	-0.058473	0.079657	-0.008515	1.000000	-0.000038	0.000023	0.000001	-2.021581	-8.647145	43.928312
37418	1.457966	-0.247290	9.656992	-0.072769	0.059650	-0.043580	1.000000	-0.000038	0.000047	0.000029	-2.019595	-8.646350	43.930681
37419	1.485736	-0.295871	9.710805	-0.026500	0.039978	0.015455	1.000000	-0.000064	0.000034	0.000013	-2.023229	-8.643822	43.932230
37420	1.474403	-0.277906	9.700260	-0.045464	0.046093	0.002706	1.000000	-0.000050	0.000016	0.000032	-2.022450	-8.644166	43.935932
37421	1.499619	-0.277323	9.677028	-0.025035	0.065896	-0.016481	1.000000	-0.000044	0.000010	0.000021	-2.023937	-8.644283	43.938508
37422	1.503357	-0.288266	9.655069	-0.012499	0.061502	-0.037229	1.000000	-0.000057	0.000012	0.000024	-2.023806	-8.649826	43.938475
37423	1.492508	-0.320048	9.666917	-0.000270	0.030445	-0.026045	1.000000	-0.000056	0.000004	0.000020	-2.026629	-8.650678	43.940901
37424	1.496280	-0.331043	9.644944	0.014538	0.025523	-0.046801	1.000000	-0.000052	0.000015	0.000019	-2.014063	-8.648441	43.951756
37425	1.513152	-0.310652	9.665710	0.009854	0.050710	-0.024459	1.000000	-0.000041	0.000054	0.000021	-2.015065	-8.643621	43.954165
37426	1.486704	-0.313085	9.689071	-0.008651	0.029137	-0.005268	1.000000	-0.000043	0.000045	0.000003	-2.008561	-8.636061	43.960750
37427	1.467097	-0.275114	9.722529	-0.052968	0.041092	0.023528	1.000000	-0.000052	0.000040	0.000015	-2.010684	-8.632812	43.962454
37428	1.473253	-0.285303	9.755151	-0.045467	0.033704	0.057047	1.000000	-0.000036	0.000031	0.000019	-2.001012	-8.638384	43.961529
37429	1.437676	-0.279042	9.691358	-0.066665	0.019016	-0.011545	1.000000	-0.000041	0.000003	0.000029	-2.002070	-8.639296	43.965091
37430	1.448315	-0.299177	9.701929	-0.047240	0.010685	0.001191	1.000000	-0.000052	0.000015	0.000019	-2.004233	-8.642347	43.965412
37431	1.506074	-0.306302	9.687988	0.000283	0.046389	-0.003659	1.000000	-0.000047	-0.000008	0.000017	-2.005805	-8.644610	43.967590
37432	1.510134	-0.317218	9.665969	0.013018	0.040753	-0.024416	1.000000	-0.000053	-0.000003	0.000028	-1.998961	-8.656120	43.968726
37433	1.568097	-0.324292	9.651993	0.060537	0.076448	-0.029255	1.000000	-0.000039	-0.000012	0.000019	-1.999606	-8.658938	43.971208
37434	1.513930	-0.328991	9.643960	0.027203	0.034539	-0.045178	1.000000	-0.000048	0.000042	0.000041	-1.988017	-8.660074	43.980216
37435	1.538939	-0.328124	9.620781	0.047629	0.054335	-0.064343	1.000000	-0.000019	0.000007	0.000014	-1.986088	-8.660764	43.982034
37436	1.444195	-0.305254	9.647431	-0.038459	0.004540	-0.053061	1.000000	-0.000059	0.000053	0.000030	-1.989561	-8.652013	43.987194
37437	1.461020	-0.334719	9.690624	-0.011623	-0.008030	-0.006842	1.000000	-0.000034	0.000032	0.000033	-1.989735	-8.649723	43.991034
37438	1.478036	-0.314199	9.711405	-0.014820	0.016526	0.015547	1.000000	-0.000040	0.000021	0.000020	-1.982022	-8.644801	44.001523
37439	1.495153	-0.293724	9.732173	-0.019471	0.041627	0.037939	1.000000	-0.000038	0.000022	0.000033	-1.982623	-8.643660	44.005499
37440	1.498702	-0.304429	9.710236	-0.005401	0.037976	0.017165	1.000000	-0.000040	0.000021	0.000020	-1.977026	-8.638793	44.012890
37441	1.509020	-0.274702	9.698469	-0.017045	0.067690	0.006071	1.000000	-0.000045	0.000018	0.000026	-1.978277	-8.638040	44.016020
37442	1.488343	-0.347443	9.645595	0.025608	0.004400	-0.046792	1.000000	-0.000060	0.000019	0.000016	-1.975283	-8.640483	44.018348
37443	1.512269	-0.286605	9.676544	-0.003553	0.062547	-0.014694	1.000000	-0.000032	0.000016	0.000023	-1.974969	-8.639962	44.021091
37444	1.487548	-0.349181	9.645655	0.026684	0.002406	-0.046794	1.000000	-0.000044	0.000028	0.000012	-1.971598	-8.638877	44.020609
37445	1.532837	-0.276875	9.675408	0.005083	0.083702	-0.013058	1.000000	-0.000048	0.000025	0.000018	-1.973003	-8.637379	44.022762
37446	1.493233	-0.310509	9.655950	0.004690	0.032476	-0.037082	1.000000	-0.000041	0.000030	-0.000007	-1.958723	-8.634048	44.031439
37447	1.523742	-0.258961	9.719501	-0.017440	0.085945	0.028545	1.000000	-0.000052	0.000032	0.000010	-1.960247	-8.631769	44.032613
37448	1.466503	-0.264256	9.656948	-0.045714	0.047938	-0.041673	1.000000	-0.000053	0.000023	0.000024	-1.959037	-8.629376	44.036520
37449	1.465187	-0.254758	9.733450	-0.063385	0.047807	0.033399	1.000000	-0.000028	-0.000006	0.000021	-1.958013	-8.631410	44.039144
37450	1.473004	-0.275349	9.689479	-0.037800	0.040860	-0.008175	1.000000	-0.000058	0.000020	0.000030	-1.955702	-8.633719	44.043237
37451	1.479574	-0.285880	9.722013	-0.030414	0.035476	0.025312	1.000000	-0.000056	0.000004	0.000020	-1.957931	-8.634575	44.045664
37452	1.501877	-0.285845	9.644315	-0.003953	0.057622	-0.048118	1.000000	-0.000049	0.000033	0.000023	-1.958374	-8.628726	44.050763
37453	1.497485	-0.277036	9.666335	-0.016113	0.059510	-0.027318	1.000000	-0.000049	0.000008	0.000027	-1.959918	-8.629133	44.054028
37454	1.486478	-0.258951	9.655797	-0.034274	0.065776	-0.039992	1.000000	-0.000057	0.000012	0.000025	-1.956855	-8.625792	44.060666
37455	1.453888	-0.302231	9.668782	-0.029438	0.011463	-0.030587	1.000000	-0.000058	0.000020	0.000030	-1.959427	-8.624773	44.064181
37456	1.496518	-0.280631	9.666381	-0.013356	0.056584	-0.027297	1.000000	-0.000068	0.000024	0.000014	-1.958249	-8.622694	44.070621
37457	1.495961	-0.281824	9.666433	-0.012982	0.055860	-0.027292	1.000000	-0.000049	0.000033	0.000023	-1.959660	-8.620203	44.073314
37458	1.495682	-0.282765	9.666448	-0.011874	0.054083	-0.027281	1.000000	-0.000043	-0.000005	0.000011	-1.952563	-8.623305	44.076030
37459	1.499418	-0.293767	9.644459	0.001017	0.050761	-0.048079	1.000000	-0.000072	0.000030	0.000038	-1.956792	-8.621151	44.080482
37460	1.488254	-0.325752	9.656216	0.013644	0.019031	-0.037055	1.000000	-0.000057	0.000012	0.000025	-1.955739	-8.622397	44.081920
37461	1.477224	-0.307730	9.645687	-0.005539	0.025572	-0.049722	1.000000	-0.000060	0.000011	0.000011	-1.958069	-8.622426	44.083361
37462	1.469053	-0.289209	9.689675	-0.029725	0.029741	-0.008107	1.000000	-0.000049	0.000008	0.000027	-1.956466	-8.621993	44.087327
37463	1.494283	-0.338450	9.688744	0.022295	0.011875	-0.003582	1.000000	-0.000048	0.000025	0.000018	-1.957619	-8.620408	44.089472
37464	1.496598	-0.289101	9.721059	-0.014432	0.045945	0.027031	1.000000	-0.000040	0.000021	0.000020	-1.954815	-8.622865	44.088627
37465	1.496109	-0.290152	9.721103	-0.014047	0.045204	0.027035	1.000000	-0.000059	0.000028	0.000035	-1.957466	-8.620937	44.092691
37466	1.514291	-0.330360	9.687670	0.032425	0.031737	-0.001923	1.000000	-0.000072	0.000030	0.000038	-1.954119	-8.613616	44.102631
37467	1.499054	-0.302446	9.699189	0.000747	0.040848	0.006235	1.000000	-0.000032	0.000016	0.000023	-1.953470	-8.612992	44.105363
37468	1.477169	-0.314894	9.700399	-0.005540	0.016169	0.004574	1.000000	-0.000063	0.000017	0.000035	-1.949710	-8.611766	44.113192
37469	1.491671	-0.345095	9.688912	0.026930	0.005582	-0.003588	1.000000	-0.000049	0.000008	0.000027	-1.951037	-8.612102	44.116449
37470	1.521002	-0.304426	9.621501	0.028390	0.060572	-0.067179	1.000000	-0.000049	0.000008	0.000027	-1.951711	-8.611904	44.118535
37471	1.499206	-0.366720	9.644899	0.052865	-0.001046	-0.045222	1.000000	-0.000045	0.000018	0.000026	-1.952562	-8.611046	44.121654
37472	1.505653	-0.327155	9.655231	0.028542	0.030468	-0.035379	1.000000	-0.000037	0.000014	0.000028	-1.950108	-8.614547	44.122720
37473	1.501348	-0.318245	9.677256	0.016444	0.032285	-0.014560	1.000000	-0.000048	0.000017	0.000013	-1.950972	-8.613853	44.124315
37474	1.479182	-0.330569	9.678501	0.008939	0.007386	-0.016234	1.000000	-0.000041	0.000046	0.000016	-1.948360	-8.615506	44.121989
37475	1.489065	-0.300750	9.666927	-0.002703	0.037084	-0.027195	1.000000	-0.000043	0.000045	0.000003	-1.948466	-8.611706	44.122340
37476	1.491203	-0.301243	9.721520	-0.007903	0.034402	0.027086	1.000000	-0.000040	0.000021	0.000020	-1.950450	-8.610377	44.124328
37477	1.505630	-0.281205	9.687864	-0.007054	0.061549	-0.004687	1.000000	-0.000040	0.000013	0.000015	-1.950447	-8.610197	44.126219
37478	1.477008	-0.284071	9.656543	-0.020977	0.042659	-0.039826	1.000000	-0.000048	0.000017	0.000013	-1.951274	-8.607083	44.130532
37479	1.487372	-0.304146	9.667082	-0.001004	0.034631	-0.027186	1.000000	-0.000036	0.000023	0.000014	-1.950800	-8.605698	44.132285
37480	1.482849	-0.295115	9.689149	-0.012475	0.036384	-0.006360	1.000000	-0.000039	0.000030	0.000006	-1.947745	-8.601115	44.134274
37481	1.507709	-0.294253	9.666056	0.007946	0.056258	-0.025492	1.000000	-0.000037	0.000039	0.000024	-1.947630	-8.597891	44.137122
37482	1.524681	-0.274061	9.686966	0.003400	0.080203	-0.002967	1.000000	-0.000060	0.000019	0.000016	-1.945661	-8.601084	44.137562
37483	1.524171	-0.275054	9.687018	0.003801	0.079455	-0.002961	1.000000	-0.000034	0.000032	0.000033	-1.945317	-8.598646	44.141391
37484	1.491141	-0.268150	9.677765	-0.022397	0.061358	-0.017266	1.000000	-0.000050	0.000041	0.000028	-1.938272	-8.599097	44.145147
37485	1.471765	-0.280274	9.733502	-0.034910	0.035210	0.035320	1.000000	-0.000045	0.000018	0.000026	-1.939046	-8.598280	44.148271
37486	1.475395	-0.291005	9.711516	-0.021762	0.032662	0.014493	1.000000	-0.000045	0.000018	0.000026	-1.941907	-8.593331	44.154541
37487	1.450645	-0.303691	9.658183	-0.023505	0.010983	-0.041483	1.000000	-0.000046	0.000026	0.000031	-1.942885	-8.591574	44.158209
37488	1.500051	-0.291305	9.688431	-0.001395	0.052194	-0.004631	1.000000	-0.000045	0.000018	0.000026	-1.947303	-8.591020	44.158401
37489	1.499551	-0.292299	9.688478	-0.000992	0.051447	-0.004627	1.000000	-0.000052	0.000032	0.000010	-1.948539	-8.588636	44.159564
37490	1.499033	-0.293423	9.688525	-0.000390	0.049039	-0.004614	1.000000	-0.000058	0.000020	0.000030	-1.942989	-8.593519	44.163746
37491	1.494445	-0.284806	9.710598	-0.012465	0.050803	0.016222	1.000000	-0.000055	0.000039	0.000002	-1.944395	-8.590396	44.163937
37492	1.500729	-0.245326	9.721043	-0.036625	0.081582	0.026167	1.000000	-0.000040	0.000013	0.000015	-1.938322	-8.596211	44.164262
37493	1.462559	-0.288758	9.624788	-0.020955	0.031745	-0.073203	1.000000	-0.000041	0.000021	0.000020	-1.938408	-8.595145	44.166704
37494	1.460856	-0.279718	9.701367	-0.039371	0.030746	0.001912	1.000000	-0.000053	0.000023	0.000024	-1.942061	-8.599927	44.164252
37495	1.481974	-0.269282	9.700271	-0.031442	0.053141	0.003636	1.000000	-0.000041	0.000021	0.000020	-1.942165	-8.598891	44.166698
37496	1.474683	-0.310747	9.689906	-0.005771	0.019166	-0.006305	1.000000	-0.000059	0.000028	0.000035	-1.940594	-8.594854	44.174316
37497	1.521391	-0.298893	9.665651	0.022162	0.062219	-0.023693	1.000000	-0.000057	0.000012	0.000025	-1.942695	-8.594769	44.177283
37498	1.506383	-0.320983	9.699270	0.021880	0.032354	0.008032	1.000000	-0.000054	0.000005	0.000033	-1.940883	-8.601249	44.179502
37499	1.495246	-0.302945	9.688817	0.002691	0.038892	-0.004569	1.000000	-0.000065	0.000034	0.000013	-1.943573	-8.598746	44.181069
37500	1.509638	-0.333095	9.677283	0.035382	0.028117	-0.012803	1.000000	-0.000046	0.000001	0.000035	-1.942782	-8.599817	44.187019
37501	1.498587	-0.314903	9.666824	0.016192	0.034658	-0.025402	1.000000	-0.000057	0.000030	0.000016	-1.944594	-8.597801	44.188879
37502	1.465752	-0.308109	9.657521	-0.010112	0.017145	-0.039731	1.000000	-0.000049	0.000025	0.000018	-1.939995	-8.598198	44.193737
37503	1.471924	-0.318705	9.690067	-0.002583	0.011551	-0.006292	1.000000	-0.000054	0.000030	0.000029	-1.941761	-8.596046	44.197126
37504	1.499756	-0.317812	9.721485	0.013399	0.029128	0.028884	1.000000	-0.000037	0.000014	0.000029	-1.937823	-8.591828	44.206831
37505	1.514417	-0.297725	9.687877	0.014200	0.056343	-0.002810	1.000000	-0.000044	0.000003	0.000016	-1.938139	-8.592872	44.208858
37506	1.507563	-0.339265	9.677392	0.039091	0.021330	-0.012800	1.000000	-0.000066	-0.000001	0.000031	-1.936088	-8.599787	44.212244
37507	1.488558	-0.301725	9.710991	-0.005027	0.032817	0.016305	1.000000	-0.000049	0.000025	0.000018	-1.936964	-8.598268	44.214400
37508	1.513845	-0.300995	9.687865	0.015392	0.052743	-0.002792	1.000000	-0.000044	0.000003	0.000016	-1.937244	-8.599155	44.215359
37509	1.496112	-0.323102	9.666937	0.020744	0.026333	-0.025385	1.000000	-0.000053	0.000015	0.000019	-1.938601	-8.598816	44.217647
37510	1.485126	-0.304823	9.656486	0.001094	0.032908	-0.037967	1.000000	-0.000045	0.000011	0.000021	-1.941152	-8.600770	44.217339
37511	1.484832	-0.305763	9.656502	0.001500	0.032134	-0.037964	1.000000	-0.000045	0.000018	0.000026	-1.941838	-8.600020	44.220470
37512	1.516766	-0.314790	9.665873	0.030189	0.046566	-0.023628	1.000000	-0.000065	0.000017	0.000022	-1.937176	-8.597181	44.228481
37513	1.469402	-0.279054	9.668120	-0.028583	0.039724	-0.029683	1.000000	-0.000048	0.000018	0.000013	-1.937847	-8.596556	44.230084
37514	1.475868	-0.289307	9.700626	-0.020850	0.033915	0.003750	1.000000	-0.000019	0.000007	0.000014	-1.933780	-8.597127	44.233499
37515	1.507736	-0.298044	9.710018	0.006688	0.048980	0.018086	1.000000	-0.000062	0.000035	0.000026	-1.936361	-8.594459	44.236594
37516	1.511375	-0.258971	9.666031	-0.011780	0.083155	-0.026145	1.000000	-0.000053	0.000015	0.000019	-1.934539	-8.594150	44.241819
37517	1.500195	-0.290667	9.677594	0.000730	0.051897	-0.015330	1.000000	-0.000045	0.000018	0.000026	-1.935173	-8.593375	44.244948
37518	1.478229	-0.303094	9.678714	-0.005990	0.028460	-0.017092	1.000000	-0.000056	0.000022	0.000011	-1.937279	-8.588576	44.250446
37519	1.499351	-0.292810	9.677660	0.001941	0.050848	-0.015325	1.000000	-0.000054	0.000023	0.000024	-1.938795	-8.587282	44.253279
37520	1.520482	-0.282395	9.676613	0.009594	0.072557	-0.013550	1.000000	-0.000041	0.000021	0.000020	-1.937053	-8.590167	44.252861
37521	1.498580	-0.294803	9.677719	0.002499	0.048618	-0.015314	1.000000	-0.000058	0.000012	0.000025	-1.939041	-8.590075	44.255828
37522	1.519675	-0.284651	9.676674	0.009810	0.070714	-0.013537	1.000000	-0.000062	0.000035	0.000026	-1.942992	-8.591204	44.252864
37523	1.497652	-0.297147	9.677791	0.002709	0.046775	-0.015305	1.000000	-0.000045	0.000011	0.000021	-1.943453	-8.591348	44.255442
37524	1.493123	-0.288449	9.699885	-0.009468	0.047251	0.005564	1.000000	-0.000050	0.000041	0.000028	-1.940233	-8.593435	44.260788
37525	1.518043	-0.287780	9.676837	0.010907	0.067192	-0.013513	1.000000	-0.000046	0.000026	0.000031	-1.941051	-8.591783	44.264472
37526	1.498653	-0.300142	9.732480	-0.000963	0.040275	0.038993	1.000000	-0.000054	0.000023	0.000024	-1.938281	-8.590495	44.266062
37527	1.480662	-0.272368	9.689626	-0.027328	0.051712	-0.006976	1.000000	-0.000058	0.000038	0.000021	-1.940162	-8.587574	44.268477
37528	1.483879	-0.333261	9.689569	0.018103	0.010222	-0.004514	1.000000	-0.000062	0.000027	0.000021	-1.937048	-8.584121	44.274332
37529	1.483552	-0.334334	9.689582	0.018525	0.009435	-0.004514	1.000000	-0.000039	0.000004	0.000043	-1.937219	-8.584901	44.279413
37530	1.504970	-0.323862	9.688511	0.025761	0.031568	-0.002723	1.000000	-0.000047	0.000010	0.000008	-1.939521	-8.589100	44.276097
37531	1.483079	-0.286240	9.667702	-0.013055	0.045446	-0.027817	1.000000	-0.000053	0.000040	0.000015	-1.940725	-8.585907	44.277829
37532	1.518777	-0.304986	9.655074	0.027490	0.057043	-0.034336	1.000000	-0.000058	0.000020	0.000030	-1.936156	-8.586785	44.284519
37533	1.492642	-0.307946	9.678227	0.007961	0.035508	-0.015261	1.000000	-0.000065	0.000034	0.000013	-1.938683	-8.584286	44.286091
37534	1.502870	-0.278413	9.666817	-0.003840	0.064382	-0.025997	1.000000	-0.000052	0.000032	0.000010	-1.936600	-8.585884	44.286481
37535	1.476769	-0.281117	9.689971	-0.023368	0.042837	-0.006923	1.000000	-0.000046	0.000018	0.000026	-1.937159	-8.585161	44.289616
37536	1.469494	-0.322326	9.679423	0.000931	0.009336	-0.017053	1.000000	-0.000036	0.000024	0.000015	-1.940031	-8.585892	44.287586
37537	1.468991	-0.323321	9.679466	0.001348	0.008543	-0.017052	1.000000	-0.000062	0.000027	0.000021	-1.942360	-8.584184	44.290135
37538	1.475180	-0.334216	9.711969	0.008056	0.002374	0.016357	1.000000	-0.000058	0.000020	0.000030	-1.946317	-8.588801	44.287375
37539	1.489885	-0.314110	9.678454	0.008798	0.029676	-0.015242	1.000000	-0.000033	0.000000	-0.000001	-1.945015	-8.590289	44.287489
37540	1.525848	-0.332548	9.665791	0.048962	0.042089	-0.021765	1.000000	-0.000050	0.000033	0.000023	-1.944359	-8.587987	44.291008
37541	1.499812	-0.285328	9.667090	-0.002303	0.058384	-0.025959	1.000000	-0.000054	0.000031	0.000029	-1.946011	-8.585886	44.294403
37542	1.491200	-0.267086	9.711263	-0.027019	0.062992	0.015788	1.000000	-0.000049	0.000025	0.000018	-1.950470	-8.583026	44.296699
37543	1.479844	-0.298710	9.722751	-0.014494	0.031694	0.026512	1.000000	-0.000041	0.000021	0.000020	-1.950415	-8.582044	44.299149
37544	1.447166	-0.291790	9.713408	-0.041037	0.014843	0.012170	1.000000	-0.000059	0.000020	0.000030	-1.950806	-8.581365	44.303353
37545	1.465529	-0.331511	9.679714	0.003865	0.001918	-0.017050	1.000000	-0.000048	0.000018	0.000013	-1.951432	-8.580796	44.304958
37546	1.504278	-0.300216	9.699740	0.006338	0.048628	0.007472	1.000000	-0.000059	0.000020	0.000030	-1.950650	-8.587027	44.306771
37547	1.482287	-0.312809	9.700792	-0.000760	0.024671	0.005651	1.000000	-0.000059	0.000020	0.000030	-1.952788	-8.586127	44.310299
37548	1.511758	-0.321767	9.655631	0.032600	0.041641	-0.034274	1.000000	-0.000041	-0.000004	0.000024	-1.947722	-8.588153	44.316360
37549	1.505068	-0.313020	9.623142	0.025813	0.045815	-0.067672	1.000000	-0.000052	0.000007	0.000014	-1.948796	-8.588796	44.318099
37550	1.500713	-0.304396	9.645226	0.013987	0.046770	-0.046788	1.000000	-0.000049	0.000025	0.000018	-1.946101	-8.589133	44.319997
37551	1.507088	-0.265048	9.655924	-0.010148	0.078859	-0.036588	1.000000	-0.000049	0.000025	0.000018	-1.946871	-8.587686	44.322160
37552	1.470057	-0.298292	9.690478	-0.017765	0.026545	-0.006853	1.000000	-0.000031	0.000026	0.000009	-1.945440	-8.588008	44.321984
37553	1.480536	-0.268379	9.679109	-0.029475	0.056257	-0.017528	1.000000	-0.000048	0.000018	0.000013	-1.946026	-8.587477	44.323594
37554	1.447756	-0.311394	9.691547	-0.024663	0.000779	-0.008686	1.000000	-0.000045	0.000011	0.000021	-1.943051	-8.592756	44.323466
37555	1.501378	-0.308940	9.699915	0.010394	0.038931	0.007512	1.000000	-0.000045	0.000011	0.000021	-1.943416	-8.593016	44.326054
37556	1.468961	-0.302000	9.690529	-0.016796	0.021973	-0.006840	1.000000	-0.000057	0.000005	0.000020	-1.945574	-8.597369	44.326458
37557	1.519996	-0.299643	9.644364	0.023474	0.062759	-0.044912	1.000000	-0.000053	0.000015	0.000019	-1.946820	-8.597145	44.328754
37558	1.515584	-0.291110	9.666461	0.011040	0.063953	-0.024020	1.000000	-0.000054	0.000023	0.000024	-1.948475	-8.599274	44.329140
37559	1.519087	-0.301856	9.644438	0.023870	0.060789	-0.044901	1.000000	-0.000055	0.000031	0.000029	-1.950101	-8.597242	44.332544
37560	1.499627	-0.314436	9.700009	0.011743	0.033651	0.007530	1.000000	-0.000051	0.000016	0.000032	-1.948349	-8.598254	44.338199
37561	1.462846	-0.297877	9.712746	-0.027405	0.019400	0.014059	1.000000	-0.000050	0.000033	0.000023	-1.949298	-8.595951	44.340922
37562	1.492068	-0.306730	9.667633	0.005517	0.036945	-0.025856	1.000000	-0.000045	0.000011	0.000021	-1.948528	-8.595941	44.346241
37563	1.470402	-0.318979	9.668614	-0.001577	0.012979	-0.027712	1.000000	-0.000041	-0.000004	0.000024	-1.948496	-8.597906	44.349252
37564	1.509307	-0.287715	9.688700	0.002038	0.060249	-0.003097	1.000000	-0.000062	0.000027	0.000021	-1.945754	-8.596083	44.353843
37565	1.487218	-0.300254	9.689736	-0.005051	0.036279	-0.004955	1.000000	-0.000054	0.000023	0.000024	-1.947160	-8.594956	44.356694
37566	1.508428	-0.289995	9.688769	0.003004	0.058098	-0.003084	1.000000	-0.000053	0.000015	0.000019	-1.945554	-8.596308	44.360549
37567	1.526733	-0.329547	9.655019	0.047884	0.045244	-0.032373	1.000000	-0.000044	0.000028	0.000012	-1.945617	-8.594635	44.362035
37568	1.485982	-0.303310	9.689831	-0.004668	0.033147	-0.004944	1.000000	-0.000053	0.000015	0.000019	-1.950283	-8.599309	44.358926
37569	1.485454	-0.304251	9.689882	-0.004258	0.032334	-0.004941	1.000000	-0.000040	0.000038	0.000011	-1.949885	-8.596471	44.360285
37570	1.488913	-0.314863	9.667858	0.008003	0.028607	-0.025829	1.000000	-0.000059	0.000020	0.000030	-1.951839	-8.600399	44.359742
37571	1.462822	-0.317725	9.690955	-0.011506	0.006966	-0.006810	1.000000	-0.000049	0.000025	0.000018	-1.952590	-8.599038	44.361914
37572	1.505723	-0.295973	9.689009	0.003709	0.051568	-0.003048	1.000000	-0.000044	0.000003	0.000016	-1.949781	-8.604775	44.362947
37573	1.466468	-0.329233	9.668867	0.001521	0.002114	-0.027703	1.000000	-0.000052	0.000007	0.000014	-1.950813	-8.605526	44.364697
37574	1.531013	-0.296247	9.665940	0.023995	0.070140	-0.022046	1.000000	-0.000051	0.000016	0.000032	-1.951188	-8.609648	44.368425
37575	1.476684	-0.300619	9.657573	-0.010247	0.030389	-0.038299	1.000000	-0.000050	0.000033	0.000023	-1.952118	-8.607411	44.371156
37576	1.518991	-0.329035	9.677375	0.037148	0.037468	-0.011442	1.000000	-0.000049	0.000025	0.000018	-1.949878	-8.607248	44.374669
37577	1.482137	-0.312435	9.690130	-0.001999	0.023185	-0.004914	1.000000	-0.000052	0.000033	0.000010	-1.950816	-8.605151	44.375873
37578	1.481554	-0.313449	9.690186	-0.001375	0.021888	-0.004911	1.000000	-0.000047	0.000026	0.000031	-1.948606	-8.604716	44.380993
37579	1.470350	-0.294952	9.679889	-0.020612	0.028447	-0.017385	1.000000	-0.000039	0.000031	0.000006	-1.947991	-8.602844	44.381806
37580	1.502214	-0.303898	9.689309	0.006374	0.043272	-0.003009	1.000000	-0.000052	0.000007	0.000014	-1.950828	-8.606494	44.380954
37581	1.502028	-0.304885	9.689306	0.006778	0.042448	-0.003006	1.000000	-0.000045	0.000011	0.000021	-1.951164	-8.606864	44.383552
37582	1.497738	-0.296185	9.711407	-0.004985	0.043405	0.017901	1.000000	-0.000040	0.000013	0.000015	-1.947640	-8.608092	44.385644
37583	1.527110	-0.304881	9.666289	0.027728	0.061136	-0.021996	1.000000	-0.000046	0.000018	0.000026	-1.948154	-8.607554	44.388797
37584	1.462257	-0.289882	9.647532	-0.026146	0.028869	-0.050742	1.000000	-0.000061	0.000020	0.000016	-1.950563	-8.606497	44.391415
37585	1.490123	-0.289566	9.679029	-0.010999	0.046109	-0.015460	1.000000	-0.000058	0.000013	0.000025	-1.952436	-8.606640	44.394403
37586	1.489743	-0.290660	9.679055	-0.010975	0.044654	-0.015453	1.000000	-0.000049	0.000026	0.000018	-1.952067	-8.609516	44.395352
37587	1.467675	-0.302734	9.680054	-0.018070	0.020673	-0.017361	1.000000	-0.000023	0.000022	0.000011	-1.949704	-8.608665	44.396751
37588	1.478041	-0.322942	9.690411	0.002657	0.011566	-0.004894	1.000000	-0.000057	0.000005	0.000020	-1.944810	-8.610548	44.400278
37589	1.488871	-0.293312	9.679109	-0.009089	0.041284	-0.015436	1.000000	-0.000050	0.000008	0.000027	-1.945780	-8.611207	44.403560
37590	1.471056	-0.315210	9.657967	-0.003748	0.015113	-0.038259	1.000000	-0.000048	0.000018	0.000013	-1.946551	-8.610281	44.405232
37591	1.513910	-0.293501	9.656102	0.011650	0.060598	-0.034418	1.000000	-0.000048	0.000018	0.000013	-1.947063	-8.609887	44.406857
37592	1.498762	-0.265602	9.667907	-0.019400	0.070096	-0.025963	1.000000	-0.000057	0.000030	0.000016	-1.948931	-8.602887	44.412845
37593	1.491395	-0.306681	9.657128	0.005561	0.036446	-0.036335	1.000000	-0.000020	0.000015	0.000019	-1.946342	-8.602781	44.415213
37594	1.480073	-0.288065	9.646877	-0.013232	0.042320	-0.048781	1.000000	-0.000055	0.000056	0.000025	-1.942962	-8.598918	44.417969
37595	1.488448	-0.299132	9.733924	-0.010685	0.033514	0.038861	1.000000	-0.000033	0.000017	0.000023	-1.941898	-8.598590	44.420728
37596	1.481503	-0.290245	9.701520	-0.016283	0.037348	0.005507	1.000000	-0.000059	0.000020	0.000030	-1.936746	-8.594421	44.432000
37597	1.485230	-0.300868	9.679436	-0.003478	0.034254	-0.015406	1.000000	-0.000043	0.000011	0.000034	-1.936992	-8.594624	44.436123
37598	1.495499	-0.321294	9.689786	0.017141	0.025904	-0.002961	1.000000	-0.000054	0.000023	0.000024	-1.935536	-8.591794	44.441114
37599	1.484486	-0.302980	9.679484	-0.002102	0.032471	-0.015399	1.000000	-0.000051	0.000016	0.000032	-1.936648	-8.591488	44.444944
37600	1.494771	-0.323278	9.689832	0.018652	0.023967	-0.002959	1.000000	-0.000033	0.000017	0.000023	-1.931562	-8.589462	44.451764
37601	1.498385	-0.333799	9.667763	0.031457	0.020884	-0.023878	1.000000	-0.000062	0.000027	0.000022	-1.933742	-8.587873	44.454329
37602	1.515687	-0.313996	9.688949	0.027293	0.044835	-0.001017	1.000000	-0.000039	-0.000003	0.000038	-1.929608	-8.591023	44.459901
37603	1.472150	-0.337723	9.690804	0.012749	-0.002312	-0.004895	1.000000	-0.000065	0.000034	0.000013	-1.931981	-8.588662	44.461494
37604	1.489112	-0.318015	9.712043	0.007837	0.021287	0.017972	1.000000	-0.000049	0.000026	0.000018	-1.930335	-8.593134	44.460119
37605	1.474057	-0.289978	9.723864	-0.023785	0.030093	0.026469	1.000000	-0.000040	0.000013	0.000015	-1.929885	-8.593204	44.462031
37606	1.481937	-0.309913	9.679656	0.002055	0.025210	-0.015378	1.000000	-0.000047	0.000010	0.000008	-1.929211	-8.589107	44.467286
37607	1.495258	-0.280527	9.722957	-0.014788	0.052012	0.028424	1.000000	-0.000052	0.000007	0.000014	-1.930114	-8.589840	44.469031
37608	1.479111	-0.311388	9.625114	0.007365	0.026391	-0.069649	1.000000	-0.000034	0.000008	0.000005	-1.931043	-8.593478	44.466034
37609	1.527149	-0.290162	9.732365	0.012593	0.066009	0.042808	1.000000	-0.000032	0.000009	0.000018	-1.929727	-8.594037	44.468234
37610	1.478103	-0.363195	9.646682	0.040099	-0.013889	-0.046758	1.000000	-0.000063	0.000035	0.000027	-1.929129	-8.594128	44.474823
37611	1.515583	-0.272730	9.722147	-0.006199	0.071071	0.030403	1.000000	-0.000033	0.000017	0.000023	-1.927993	-8.593785	44.477581
37612	1.495264	-0.293996	9.646426	0.003906	0.047759	-0.046753	1.000000	-0.000045	0.000011	0.000021	-1.929217	-8.595481	44.479788
37613	1.519058	-0.284150	9.700071	0.006735	0.067128	0.009487	1.000000	-0.000061	0.000020	0.000016	-1.931194	-8.594823	44.481799
37614	1.472922	-0.307554	9.647370	-0.002804	0.022375	-0.048706	1.000000	-0.000054	0.000023	0.000024	-1.930373	-8.596374	44.484301
37615	1.496559	-0.297754	9.701040	0.000030	0.041729	0.007536	1.000000	-0.000054	0.000023	0.000024	-1.931659	-8.595315	44.487160
37616	1.472048	-0.309695	9.647435	-0.002436	0.021222	-0.048703	1.000000	-0.000046	0.000019	0.000026	-1.936226	-8.594623	44.490743
37617	1.510845	-0.278520	9.667790	0.000571	0.068922	-0.023835	1.000000	-0.000046	0.000019	0.000026	-1.936655	-8.594061	44.493891
37618	1.488258	-0.341143	9.690222	0.026006	0.006407	-0.002948	1.000000	-0.000061	0.000036	0.000040	-1.934078	-8.591104	44.503342
37619	1.520379	-0.300082	9.678191	0.021705	0.059295	-0.011412	1.000000	-0.000035	0.000016	0.000010	-1.932962	-8.590899	44.504570
37620	1.530496	-0.320390	9.688534	0.041324	0.050526	0.001002	1.000000	-0.000052	0.000033	0.000010	-1.933578	-8.592947	44.505064
37621	1.500552	-0.263417	9.712254	-0.022344	0.068924	0.018064	1.000000	-0.000037	0.000031	0.000020	-1.932842	-8.590936	44.507407
37622	1.482369	-0.285130	9.691090	-0.017124	0.042844	-0.004843	1.000000	-0.000052	0.000033	0.000010	-1.934552	-8.588718	44.509413
37623	1.460178	-0.297457	9.692028	-0.024180	0.018850	-0.006819	1.000000	-0.000049	0.000026	0.000018	-1.935178	-8.587387	44.511588
37624	1.477347	-0.277751	9.713295	-0.028911	0.042948	0.016103	1.000000	-0.000058	0.000013	0.000025	-1.936266	-8.590350	44.513145
37625	1.509391	-0.286936	9.722702	-0.001335	0.057849	0.030492	1.000000	-0.000044	0.000003	0.000016	-1.936305	-8.591623	44.515180
37626	1.471251	-0.379181	9.647115	0.045769	-0.029254	-0.046817	1.000000	-0.000047	0.000010	0.000008	-1.934114	-8.594675	44.514642
37627	1.530790	-0.227615	9.700425	-0.024927	0.116715	0.009691	1.000000	-0.000079	0.000044	0.000022	-1.938221	-8.591221	44.517187
37628	1.494791	-0.320705	9.679390	0.017428	0.027603	-0.013362	1.000000	-0.000049	0.000000	0.000022	-1.939530	-8.589906	44.523036
37629	1.497450	-0.272047	9.712495	-0.019081	0.061718	0.018119	1.000000	-0.000054	0.000023	0.000024	-1.940823	-8.588852	44.525893
37630	1.480581	-0.353087	9.636044	0.035983	-0.001016	-0.057235	1.000000	-0.000049	0.000026	0.000018	-1.941947	-8.583149	44.532470
37631	1.474837	-0.285413	9.713455	-0.025239	0.037468	0.016136	1.000000	-0.000049	0.000026	0.000018	-1.942574	-8.581802	44.534642
37632	1.471427	-0.336125	9.680384	0.012714	0.001763	-0.015353	1.000000	-0.000049	0.000026	0.000018	-1.941001	-8.577643	44.541340
37633	1.474099	-0.287482	9.713506	-0.023789	0.035865	0.016145	1.000000	-0.000056	-0.000003	0.000014	-1.942392	-8.579560	44.543201
37634	1.478093	-0.297986	9.691356	-0.011280	0.032100	-0.004794	1.000000	-0.000047	0.000010	0.000008	-1.940587	-8.584241	44.542909
37635	1.492292	-0.328030	9.679531	0.021186	0.021670	-0.013354	1.000000	-0.000063	0.000035	0.000027	-1.942940	-8.581755	44.546029
37636	1.502803	-0.298398	9.668450	0.009023	0.051102	-0.023730	1.000000	-0.000046	0.000019	0.000026	-1.943576	-8.584006	44.545125
37637	1.498356	-0.289897	9.690612	-0.002907	0.052438	-0.002779	1.000000	-0.000046	0.000019	0.000026	-1.943989	-8.583443	44.548270
37638	1.502030	-0.300270	9.668512	0.009663	0.048358	-0.023716	1.000000	-0.000041	0.000021	0.000020	-1.940038	-8.587889	44.548201
37639	1.469357	-0.293027	9.659140	-0.017076	0.031790	-0.038100	1.000000	-0.000047	0.000026	0.000031	-1.940629	-8.586434	44.551905
37640	1.460228	-0.325389	9.724830	-0.010176	-0.002963	0.026538	1.000000	-0.000054	0.000023	0.000024	-1.943987	-8.589390	44.551468
37641	1.485451	-0.324480	9.701890	0.010066	0.017188	0.007604	1.000000	-0.000034	0.000024	0.000028	-1.943041	-8.588177	44.554782
37642	1.504504	-0.313545	9.646505	0.023427	0.041553	-0.044646	1.000000	-0.000053	-0.000010	0.000023	-1.937772	-8.593352	44.559098
37643	1.474666	-0.307200	9.691590	-0.008317	0.021865	-0.004763	1.000000	-0.000071	0.000015	0.000028	-1.941065	-8.593280	44.562473
37644	1.506619	-0.316445	9.701011	0.019177	0.036877	0.009630	1.000000	-0.000032	0.000009	0.000018	-1.940643	-8.593714	44.566758
37645	1.495904	-0.297700	9.690754	-0.000095	0.043465	-0.002735	1.000000	-0.000039	0.000006	0.000010	-1.939986	-8.594731	44.568110
37646	1.499667	-0.308042	9.668635	0.012811	0.040725	-0.023685	1.000000	-0.000049	0.000026	0.000018	-1.941067	-8.591799	44.571007
37647	1.473508	-0.310812	9.691651	-0.006579	0.018875	-0.004755	1.000000	-0.000043	0.000020	0.000007	-1.940810	-8.591121	44.571943
37648	1.462598	-0.292116	9.681426	-0.025184	0.024887	-0.017113	1.000000	-0.000037	0.000015	-0.000004	-1.934451	-8.590662	44.573361
37649	1.498447	-0.310732	9.668738	0.014744	0.037624	-0.023675	1.000000	-0.000062	0.000028	0.000022	-1.936585	-8.589117	44.575928
37650	1.490430	-0.242698	9.691716	-0.040648	0.078658	-0.004435	1.000000	-0.000047	0.000010	0.000008	-1.931654	-8.588016	44.579669
37651	1.515570	-0.292000	9.690055	0.011519	0.060806	-0.000677	1.000000	-0.000043	-0.000005	0.000011	-1.931446	-8.590198	44.581140
37652	1.483068	-0.284701	9.680657	-0.015666	0.044377	-0.015063	1.000000	-0.000045	0.000036	0.000017	-1.933975	-8.588998	44.583191
37653	1.508214	-0.283734	9.657748	0.004559	0.064558	-0.033980	1.000000	-0.000041	0.000021	0.000020	-1.933678	-8.588179	44.585655
37654	1.503637	-0.275168	9.679945	-0.007412	0.065934	-0.013015	1.000000	-0.000042	0.000029	0.000026	-1.934193	-8.586338	44.588157
37655	1.485467	-0.296846	9.658688	-0.002114	0.039807	-0.036011	1.000000	-0.000050	0.000033	0.000023	-1.934968	-8.584103	44.590889
37656	1.472701	-0.269367	9.725183	-0.038427	0.045419	0.026878	1.000000	-0.000028	0.000019	0.000017	-1.932347	-8.582086	44.594231
37657	1.508550	-0.288043	9.712495	0.001500	0.058166	0.020311	1.000000	-0.000072	0.000022	0.000033	-1.935820	-8.581074	44.598156
37658	1.480194	-0.290328	9.680930	-0.013921	0.039211	-0.015038	1.000000	-0.000029	0.000002	0.000026	-1.937334	-8.587803	44.600181
37659	1.494449	-0.320210	9.669047	0.018539	0.028808	-0.023652	1.000000	-0.000063	0.000035	0.000027	-1.939670	-8.585349	44.603304
37660	1.479338	-0.292538	9.680994	-0.013141	0.036715	-0.015027	1.000000	-0.000058	0.000013	0.000025	-1.938261	-8.589104	44.606030
37661	1.489519	-0.313000	9.691255	0.006988	0.028426	-0.002682	1.000000	-0.000036	0.000024	0.000015	-1.937302	-8.588029	44.607813
37662	1.514851	-0.312050	9.668328	0.027291	0.047356	-0.021583	1.000000	-0.000053	0.000015	0.000019	-1.932632	-8.592762	44.610335
37663	1.514400	-0.313165	9.668362	0.027714	0.046508	-0.021580	1.000000	-0.000057	0.000030	0.000016	-1.934079	-8.590969	44.612223
37664	1.488249	-0.316201	9.691346	0.008089	0.023988	-0.002671	1.000000	-0.000058	0.000013	0.000025	-1.934258	-8.594778	44.614658
37665	1.473113	-0.288291	9.703317	-0.023525	0.032686	0.005964	1.000000	-0.000040	0.000039	0.000012	-1.933673	-8.592041	44.616035
37666	1.480746	-0.308242	9.659056	0.001562	0.026814	-0.035967	1.000000	-0.000069	0.000015	0.000041	-1.933424	-8.595218	44.618499
37667	1.482650	-0.310045	9.713627	-0.002961	0.022702	0.018305	1.000000	-0.000039	0.000031	0.000007	-1.932637	-8.593401	44.619318
37668	1.486281	-0.320381	9.691511	0.010199	0.019415	-0.002663	1.000000	-0.000053	0.000015	0.000019	-1.930537	-8.592991	44.624130
37669	1.507593	-0.310320	9.690730	0.018081	0.041714	-0.000587	1.000000	-0.000066	0.000017	0.000022	-1.933113	-8.592673	44.626825
37670	1.507164	-0.311495	9.690759	0.017797	0.040705	-0.000582	1.000000	-0.000049	0.000026	0.000018	-1.935975	-8.594994	44.626087
37671	1.496167	-0.293101	9.680576	-0.001493	0.047305	-0.012905	1.000000	-0.000059	0.000021	0.000030	-1.937876	-8.594281	44.629631
37672	1.495563	-0.294251	9.680635	-0.000613	0.045794	-0.012897	1.000000	-0.000053	0.000041	0.000015	-1.934141	-8.592116	44.632643
37673	1.483951	-0.325905	9.691684	0.012067	0.014326	-0.002656	1.000000	-0.000030	0.000010	0.000031	-1.932723	-8.592644	44.636375
37674	1.451323	-0.318643	9.682286	-0.014433	-0.002406	-0.017060	1.000000	-0.000063	0.000035	0.000027	-1.933225	-8.589952	44.641147
37675	1.504618	-0.316622	9.690988	0.020618	0.035587	-0.000568	1.000000	-0.000033	0.000017	0.000023	-1.932009	-8.589698	44.643908
37676	1.497925	-0.307370	9.658626	0.012487	0.039795	-0.033855	1.000000	-0.000050	0.000008	0.000027	-1.936335	-8.596574	44.640468
37677	1.497583	-0.308393	9.658646	0.012906	0.038940	-0.033852	1.000000	-0.000049	0.000026	0.000018	-1.936887	-8.595330	44.642650
37678	1.503625	-0.319438	9.691050	0.020850	0.032066	-0.000556	1.000000	-0.000040	0.000013	0.000015	-1.933204	-8.597538	44.644470
37679	1.492874	-0.300663	9.680853	0.001555	0.038671	-0.012867	1.000000	-0.000032	0.000009	0.000018	-1.931801	-8.598219	44.646673
37680	1.466776	-0.303381	9.703817	-0.018379	0.016457	0.006015	1.000000	-0.000047	0.000026	0.000031	-1.933624	-8.600376	44.648772
37681	1.481552	-0.282959	9.670714	-0.017902	0.044152	-0.025169	1.000000	-0.000048	0.000018	0.000013	-1.933982	-8.600057	44.650396
37682	1.491794	-0.303435	9.680933	0.001261	0.035116	-0.012853	1.000000	-0.000047	0.000010	0.000008	-1.935230	-8.607642	44.645725
37683	1.480403	-0.335421	9.691902	0.013934	0.003631	-0.002649	1.000000	-0.000069	0.000015	0.000041	-1.938475	-8.607533	44.650635
37684	1.491235	-0.305770	9.680946	0.001606	0.033399	-0.012847	1.000000	-0.000040	0.000013	0.000015	-1.940026	-8.609745	44.649590
37685	1.482712	-0.288053	9.725302	-0.022613	0.036647	0.029114	1.000000	-0.000061	0.000020	0.000017	-1.941948	-8.609222	44.651607
37686	1.475862	-0.279068	9.692966	-0.029476	0.041831	-0.004169	1.000000	-0.000054	0.000023	0.000024	-1.945322	-8.605185	44.656868
37687	1.496525	-0.319104	9.713384	0.010374	0.026022	0.020444	1.000000	-0.000040	0.000013	0.000015	-1.944825	-8.605386	44.658780
37688	1.496857	-0.269731	9.692256	-0.021041	0.062672	-0.002041	1.000000	-0.000053	0.000015	0.000019	-1.942769	-8.607153	44.661868
37689	1.489473	-0.310914	9.681053	0.003950	0.029137	-0.012834	1.000000	-0.000046	0.000019	0.000026	-1.943129	-8.606723	44.665021
37690	1.489172	-0.311864	9.681069	0.004699	0.028688	-0.012833	1.000000	-0.000045	0.000011	0.000021	-1.943635	-8.604103	44.669308
37691	1.510753	-0.301510	9.680300	0.012571	0.050980	-0.010711	1.000000	-0.000043	-0.000005	0.000011	-1.943421	-8.606391	44.670778
37692	1.506323	-0.293179	9.702495	0.000826	0.052740	0.010275	1.000000	-0.000058	0.000038	0.000021	-1.946870	-8.600746	44.675126
37693	1.499383	-0.284129	9.670181	-0.006172	0.057318	-0.023001	1.000000	-0.000053	0.000015	0.000019	-1.947926	-8.600696	44.677424
37694	1.520747	-0.273826	9.669454	0.001707	0.079119	-0.020868	1.000000	-0.000040	0.000013	0.000015	-1.945313	-8.602883	44.677900
37695	1.505069	-0.296259	9.702596	0.002087	0.049666	0.010290	1.000000	-0.000057	0.000030	0.000016	-1.946761	-8.601148	44.679789
37696	1.494220	-0.277741	9.692436	-0.016478	0.056557	-0.001995	1.000000	-0.000042	0.000004	0.000029	-1.944763	-8.598154	44.687999
37697	1.461180	-0.320724	9.704103	-0.011233	0.001917	0.006040	1.000000	-0.000046	0.000019	0.000026	-1.945123	-8.597689	44.691145
37698	1.518693	-0.328219	9.690652	0.036056	0.037709	0.001597	1.000000	-0.000059	0.000021	0.000030	-1.946684	-8.597850	44.695597
37699	1.493328	-0.280975	9.692481	-0.015283	0.053836	-0.001978	1.000000	-0.000057	0.000005	0.000020	-1.948211	-8.598974	44.698012
37700	1.503498	-0.301743	9.702670	0.004874	0.045295	0.010311	1.000000	-0.000062	0.000028	0.000022	-1.949447	-8.598300	44.699218
37701	1.500694	-0.302058	9.648175	0.010164	0.047876	-0.043951	1.000000	-0.000054	0.000023	0.000024	-1.950684	-8.597330	44.702073
37702	1.506681	-0.313319	9.680560	0.018663	0.041055	-0.010674	1.000000	-0.000048	0.000018	0.000013	-1.946223	-8.596355	44.704818
37703	1.491606	-0.285489	9.692614	-0.012944	0.049696	-0.001952	1.000000	-0.000057	0.000030	0.000016	-1.947651	-8.594602	44.706704
37704	1.479843	-0.317257	9.703570	0.000147	0.018197	0.008184	1.000000	-0.000039	0.000031	0.000007	-1.945232	-8.591213	44.711196
37705	1.505324	-0.316297	9.680674	0.020313	0.038478	-0.010667	1.000000	-0.000056	-0.000003	0.000014	-1.946548	-8.593236	44.713048
37706	1.505079	-0.317363	9.680677	0.020692	0.037441	-0.010664	1.000000	-0.000047	0.000026	0.000031	-1.946515	-8.592772	44.716449
37707	1.462211	-0.290417	9.661074	-0.025802	0.028402	-0.037346	1.000000	-0.000043	-0.000005	0.000011	-1.946280	-8.595029	44.717908
37708	1.461331	-0.341721	9.682118	0.006639	-0.010781	-0.014958	1.000000	-0.000051	0.000025	0.000005	-1.946017	-8.594769	44.717087
37709	1.485516	-0.282015	9.714933	-0.022363	0.046153	0.019077	1.000000	-0.000046	0.000019	0.000026	-1.946357	-8.594298	44.720229
37710	1.525508	-0.309951	9.680029	0.030075	0.056529	-0.008500	1.000000	-0.000048	0.000018	0.000013	-1.943858	-8.594656	44.723783
37711	1.493068	-0.302578	9.670599	0.003316	0.040007	-0.022913	1.000000	-0.000045	0.000011	0.000021	-1.943999	-8.595095	44.726364
37712	1.496930	-0.312958	9.648413	0.016292	0.037807	-0.043915	1.000000	-0.000058	0.000013	0.000025	-1.947338	-8.591486	44.730781
37713	1.492161	-0.304679	9.670673	0.004430	0.038946	-0.022909	1.000000	-0.000042	0.000054	0.000022	-1.947113	-8.586943	44.733274
37714	1.465746	-0.307510	9.693641	-0.014030	0.015905	-0.004059	1.000000	-0.000045	0.000011	0.000021	-1.939427	-8.588062	44.739632
37715	1.491160	-0.306553	9.670768	0.006123	0.036210	-0.022900	1.000000	-0.000051	0.000025	0.000005	-1.939960	-8.586925	44.740273
37716	1.508346	-0.286978	9.692285	0.001647	0.060599	0.000273	1.000000	-0.000043	0.000012	0.000034	-1.940813	-8.587011	44.744200
37717	1.479331	-0.339341	9.681653	0.019219	0.003962	-0.012810	1.000000	-0.000053	0.000015	0.000019	-1.941820	-8.586928	44.746489
37718	1.503591	-0.279656	9.714521	-0.009732	0.060603	0.021292	1.000000	-0.000041	0.000021	0.000021	-1.940201	-8.587015	44.751068
37719	1.474521	-0.331714	9.703896	0.007844	0.003966	0.008197	1.000000	-0.000027	0.000012	0.000012	-1.938101	-8.587400	44.752573
37720	1.492647	-0.261709	9.704402	-0.027566	0.066513	0.009060	1.000000	-0.000064	0.000002	0.000012	-1.936455	-8.583865	44.762293
37721	1.515188	-0.310198	9.647969	0.029444	0.052246	-0.041724	1.000000	-0.000034	0.000025	0.000028	-1.935403	-8.582687	44.765601
37722	1.498427	-0.273582	9.736788	-0.019332	0.058834	0.042328	1.000000	-0.000019	0.000007	0.000014	-1.931040	-8.585778	44.766990
37723	1.474321	-0.284499	9.682953	-0.021536	0.038376	-0.014106	1.000000	-0.000045	0.000011	0.000021	-1.931152	-8.586191	44.769566
37724	1.491667	-0.264966	9.704464	-0.025431	0.062207	0.009094	1.000000	-0.000048	0.000009	0.000040	-1.928000	-8.586356	44.776551
37725	1.477986	-0.295718	9.660765	-0.007888	0.034269	-0.035109	1.000000	-0.000040	0.000014	0.000015	-1.927428	-8.586491	44.778446
37726	1.509854	-0.304896	9.670231	0.020466	0.049263	-0.020693	1.000000	-0.000040	0.000014	0.000015	-1.924573	-8.582739	44.787424
37727	1.509529	-0.305792	9.670254	0.020901	0.048404	-0.020690	1.000000	-0.000046	0.000019	0.000026	-1.924861	-8.582225	44.790561
37728	1.516254	-0.266846	9.681658	-0.002961	0.079907	-0.009711	1.000000	-0.000066	0.000017	0.000022	-1.925130	-8.581598	44.796320
37729	1.519860	-0.277325	9.659503	0.009741	0.077096	-0.030723	1.000000	-0.000050	0.000034	0.000023	-1.925810	-8.579389	44.799051
37730	1.493566	-0.280138	9.682439	-0.009348	0.054610	-0.011883	1.000000	-0.000031	0.000017	0.000036	-1.922050	-8.580017	44.803852
37731	1.486742	-0.270942	9.650147	-0.016408	0.059298	-0.045120	1.000000	-0.000075	0.000030	0.000025	-1.925637	-8.578250	44.806804
37732	1.470794	-0.293762	9.683213	-0.015605	0.029738	-0.014064	1.000000	-0.000050	0.000034	0.000023	-1.925096	-8.574781	44.812229
37733	1.494185	-0.284590	9.737124	-0.012501	0.048415	0.042396	1.000000	-0.000048	0.000018	0.000013	-1.925382	-8.574387	44.813833
37734	1.464621	-0.344388	9.595134	0.027420	-0.002312	-0.100347	1.000000	-0.000080	0.000027	0.000031	-1.929855	-8.568257	44.824761
37735	1.511391	-0.216226	9.737849	-0.048032	0.110500	0.043389	1.000000	-0.000040	0.000039	0.000012	-1.929181	-8.565479	44.826127
37736	1.501846	-0.365277	9.637031	0.063403	0.005688	-0.052704	1.000000	-0.000056	0.000023	0.000011	-1.926919	-8.564501	44.830799
37737	1.556928	-0.255539	9.735354	0.012475	0.114597	0.049014	1.000000	-0.000048	0.000034	0.000037	-1.927573	-8.562142	44.835057
37738	1.481941	-0.329119	9.671444	0.020310	0.015813	-0.022865	1.000000	-0.000039	0.000031	0.000007	-1.927459	-8.556996	44.838937
37739	1.516394	-0.289197	9.714614	0.011082	0.065119	0.023595	1.000000	-0.000063	0.000036	0.000027	-1.929682	-8.554517	44.842053
37740	1.459067	-0.342506	9.672207	0.013778	-0.009398	-0.025068	1.000000	-0.000046	0.000019	0.000026	-1.928517	-8.555377	44.843883
37741	1.521809	-0.301663	9.747019	0.019491	0.057478	0.056841	1.000000	-0.000048	0.000018	0.000013	-1.928797	-8.554954	44.845480
37742	1.458327	-0.344443	9.672250	0.014543	-0.012093	-0.025072	1.000000	-0.000046	0.000019	0.000026	-1.925453	-8.558957	44.845302
37743	1.486806	-0.294100	9.683066	-0.002199	0.042772	-0.011819	1.000000	-0.000045	0.000011	0.000021	-1.925519	-8.559330	44.847869
37744	1.490664	-0.304553	9.660856	0.010204	0.039714	-0.032846	1.000000	-0.000071	0.000015	0.000028	-1.928725	-8.561608	44.849504
37745	1.514210	-0.295672	9.714760	0.013339	0.058328	0.023635	1.000000	-0.000048	0.000018	0.000013	-1.928998	-8.561202	44.851103
37746	1.483624	-0.296498	9.628574	0.003324	0.043005	-0.066066	1.000000	-0.000059	0.000021	0.000030	-1.929362	-8.563858	44.850717
37747	1.506280	-0.337713	9.703357	0.038588	0.023441	0.012588	1.000000	-0.000023	0.000022	0.000011	-1.926717	-8.563022	44.852096
37748	1.473750	-0.330029	9.693931	0.012250	0.006768	-0.001828	1.000000	-0.000046	0.000019	0.000026	-1.924570	-8.561459	44.857738
37749	1.473403	-0.331058	9.693949	0.012693	0.005903	-0.001828	1.000000	-0.000053	0.000016	0.000019	-1.925509	-8.561332	44.860017
37750	1.488466	-0.310556	9.661004	0.013510	0.033578	-0.032827	1.000000	-0.000055	0.000015	0.000006	-1.923466	-8.560206	44.866387
37751	1.484015	-0.302344	9.683240	0.001711	0.034612	-0.011787	1.000000	-0.000048	0.000018	0.000013	-1.923722	-8.559798	44.867985
37752	1.469081	-0.274453	9.695389	-0.029993	0.043499	-0.002932	1.000000	-0.000046	0.000019	0.000026	-1.925973	-8.558359	44.870255
37753	1.483430	-0.304253	9.683270	0.002472	0.033233	-0.011783	1.000000	-0.000046	0.000003	0.000003	-1.925851	-8.559767	44.870722
37754	1.494393	-0.274375	9.672561	-0.009166	0.062739	-0.021727	1.000000	-0.000049	0.000026	0.000018	-1.923879	-8.558475	44.873596
37755	1.497867	-0.284645	9.650411	0.003516	0.059988	-0.042762	1.000000	-0.000053	0.000041	0.000015	-1.924728	-8.555459	44.875352
37756	1.477839	-0.298024	9.705621	-0.008291	0.031791	0.009269	1.000000	-0.000043	0.000012	0.000035	-1.923516	-8.558145	44.876938
37757	1.471175	-0.288460	9.673337	-0.015391	0.036553	-0.023946	1.000000	-0.000036	0.000024	0.000015	-1.922410	-8.557064	44.878705
37758	1.502941	-0.297730	9.682834	0.012349	0.051181	-0.009526	1.000000	-0.000045	0.000011	0.000021	-1.921421	-8.557640	44.882319
37759	1.470524	-0.290251	9.673383	-0.014403	0.034676	-0.023938	1.000000	-0.000046	0.000019	0.000026	-1.921664	-8.557106	44.885445
37760	1.502345	-0.299508	9.682871	0.012785	0.049312	-0.009517	1.000000	-0.000030	0.000010	0.000031	-1.921479	-8.560061	44.887139
37761	1.502062	-0.300331	9.682890	0.013229	0.048447	-0.009513	1.000000	-0.000048	0.000018	0.000013	-1.921738	-8.559658	44.888733
37762	1.513028	-0.270450	9.672208	0.001670	0.078602	-0.019433	1.000000	-0.000045	0.000011	0.000021	-1.921697	-8.557027	44.895139
37763	1.490954	-0.282618	9.672854	-0.005297	0.054587	-0.021676	1.000000	-0.000045	0.000027	0.000045	-1.922128	-8.555454	44.900358
37764	1.479114	-0.314534	9.683601	0.006983	0.023030	-0.011755	1.000000	-0.000057	0.000030	0.000016	-1.925633	-8.555973	44.898525
37765	1.474548	-0.306499	9.705858	-0.004803	0.024034	0.009293	1.000000	-0.000058	0.000013	0.000025	-1.927251	-8.556112	44.901473
37766	1.489734	-0.285999	9.672942	-0.004344	0.051799	-0.021660	1.000000	-0.000052	0.000008	0.000014	-1.926593	-8.556952	44.902499
37767	1.476075	-0.316677	9.629091	0.013144	0.024058	-0.066010	1.000000	-0.000053	0.000016	0.000019	-1.927533	-8.556815	44.904766
37768	1.515085	-0.286151	9.650118	0.016483	0.070798	-0.040438	1.000000	-0.000052	0.000008	0.000014	-1.924636	-8.558683	44.905420
37769	1.516881	-0.288551	9.704674	0.012266	0.066128	0.013826	1.000000	-0.000062	0.000028	0.000022	-1.926641	-8.557127	44.907966
37770	1.512213	-0.280492	9.726956	0.000610	0.066462	0.034887	1.000000	-0.000049	0.000026	0.000018	-1.923843	-8.557998	44.909708
37771	1.483583	-0.282275	9.695323	-0.013922	0.048113	-0.000579	1.000000	-0.000053	0.000041	0.000015	-1.924682	-8.554989	44.911460
37772	1.497663	-0.312058	9.683200	0.019044	0.037846	-0.009476	1.000000	-0.000037	0.000007	0.000024	-1.921619	-8.553875	44.917599
37773	1.497436	-0.312997	9.683205	0.019492	0.036979	-0.009474	1.000000	-0.000053	0.000016	0.000019	-1.922537	-8.553737	44.919867
37774	1.499304	-0.315279	9.737749	0.014998	0.031988	0.044788	1.000000	-0.000045	0.000011	0.000021	-1.922617	-8.556530	44.919835
37775	1.512312	-0.293369	9.650336	0.019925	0.063795	-0.040396	1.000000	-0.000053	0.000016	0.000019	-1.923537	-8.556397	44.922102
37776	1.524566	-0.315262	9.714948	0.035681	0.051840	0.026009	1.000000	-0.000040	0.000014	0.000016	-1.923445	-8.554679	44.923404
37777	1.537478	-0.293107	9.627564	0.040597	0.083662	-0.059170	1.000000	-0.000036	0.000024	0.000015	-1.922330	-8.553593	44.925161
37778	1.517378	-0.306338	9.682745	0.028973	0.056010	-0.007186	1.000000	-0.000039	0.000031	0.000007	-1.922426	-8.550931	44.926021
37779	1.499396	-0.327566	9.661128	0.034227	0.030159	-0.030520	1.000000	-0.000043	0.000012	0.000035	-1.922462	-8.551176	44.930101
37780	1.520533	-0.317330	9.660603	0.041796	0.051918	-0.028234	1.000000	-0.000046	0.000044	0.000023	-1.921612	-8.551136	44.929753
37781	1.494007	-0.320314	9.683495	0.022619	0.029735	-0.009456	1.000000	-0.000049	0.000026	0.000018	-1.922055	-8.549817	44.931900
37782	1.489273	-0.312160	9.705793	0.010816	0.030660	0.011606	1.000000	-0.000050	0.000034	0.000023	-1.922691	-8.547896	44.934143
37783	1.495857	-0.273218	9.717463	-0.013339	0.062305	0.022823	1.000000	-0.000054	0.000023	0.000024	-1.923811	-8.546850	44.936968
37784	1.456270	-0.305786	9.696384	-0.015569	0.013043	-0.002811	1.000000	-0.000047	0.000010	0.000008	-1.923048	-8.548747	44.938217
37785	1.503425	-0.293705	9.673027	0.011905	0.056653	-0.019289	1.000000	-0.000062	0.000028	0.000022	-1.925047	-8.547191	44.940755
37786	1.477050	-0.296852	9.695885	-0.006667	0.034080	-0.000513	1.000000	-0.000049	0.000026	0.000018	-1.921391	-8.544939	44.946744
37787	1.494154	-0.277630	9.717600	-0.011019	0.058178	0.022851	1.000000	-0.000063	0.000020	0.000003	-1.923197	-8.544411	44.947184
37788	1.497996	-0.287888	9.695370	0.001600	0.055217	0.001792	1.000000	-0.000045	0.000011	0.000021	-1.922235	-8.546079	44.948893
37789	1.483117	-0.260080	9.707595	-0.029962	0.063700	0.010740	1.000000	-0.000056	0.000023	0.000011	-1.923353	-8.545155	44.950185
37790	1.482813	-0.261171	9.707613	-0.029384	0.062873	0.010747	1.000000	-0.000052	0.000008	0.000014	-1.923722	-8.545220	44.950618
37791	1.465048	-0.282636	9.685923	-0.024137	0.037046	-0.012616	1.000000	-0.000058	0.000013	0.000025	-1.925313	-8.545354	44.953553
37792	1.497778	-0.241939	9.674782	-0.028443	0.089976	-0.020120	1.000000	-0.000073	0.000014	0.000015	-1.927279	-8.544544	44.956008
37793	1.486147	-0.274016	9.685387	-0.015592	0.058416	-0.010301	1.000000	-0.000048	0.000018	0.000013	-1.927515	-8.544125	44.957584
37794	1.494099	-0.293537	9.640903	0.009358	0.053759	-0.052435	1.000000	-0.000069	0.000016	0.000041	-1.929446	-8.544247	44.961889
37795	1.503177	-0.255968	9.707106	-0.019386	0.081442	0.013093	1.000000	-0.000031	0.000001	0.000013	-1.927725	-8.545763	44.963471
37796	1.499932	-0.306062	9.673186	0.017828	0.045985	-0.019242	1.000000	-0.000059	0.000021	0.000030	-1.928423	-8.546374	44.965939
37797	1.489222	-0.287461	9.663176	-0.001533	0.052665	-0.031348	1.000000	-0.000045	0.000011	0.000021	-1.928451	-8.546744	44.968478
37798	1.492970	-0.297707	9.640950	0.011159	0.049900	-0.052416	1.000000	-0.000060	0.000029	0.000035	-1.929771	-8.545289	44.975122
37799	1.488202	-0.289718	9.663265	-0.000588	0.050825	-0.031338	1.000000	-0.000050	0.000034	0.000024	-1.930391	-8.543051	44.977828
37800	1.476212	-0.321618	9.673897	0.011631	0.018811	-0.021547	1.000000	-0.000050	0.000034	0.000024	-1.931822	-8.545345	44.973903
37801	1.518968	-0.300705	9.672880	0.026889	0.064238	-0.016901	1.000000	-0.000088	0.000032	0.000029	-1.936925	-8.543308	44.977219
37802	1.507959	-0.282297	9.662920	0.007520	0.070387	-0.028995	1.000000	-0.000037	0.000032	0.000020	-1.933765	-8.543568	44.977711
37803	1.463928	-0.305779	9.664042	-0.006842	0.023223	-0.033643	1.000000	-0.000073	0.000031	0.000039	-1.937296	-8.541652	44.982167
37804	1.465453	-0.308549	9.718615	-0.011368	0.017254	0.020613	1.000000	-0.000054	0.000023	0.000024	-1.935483	-8.546847	44.981028
37805	1.479586	-0.338486	9.706392	0.021086	0.007044	0.011635	1.000000	-0.000053	0.000016	0.000019	-1.936385	-8.546732	44.983282
37806	1.493761	-0.368347	9.694161	0.054078	-0.003016	0.002649	1.000000	-0.000046	0.000019	0.000026	-1.934943	-8.543411	44.993327
37807	1.483039	-0.349674	9.684166	0.034712	0.003669	-0.009447	1.000000	-0.000053	0.000016	0.000019	-1.935841	-8.543286	44.995580
37808	1.491042	-0.368871	9.639654	0.059505	-0.001002	-0.051609	1.000000	-0.000038	0.000014	0.000029	-1.934204	-8.544504	44.998751
37809	1.504013	-0.340522	9.683688	0.042982	0.024808	-0.007109	1.000000	-0.000062	0.000028	0.000022	-1.936177	-8.542958	45.001284
37810	1.503660	-0.341364	9.683713	0.043511	0.023782	-0.007109	1.000000	-0.000019	0.000007	0.000014	-1.932099	-8.544135	45.003708
37811	1.492771	-0.322285	9.673767	0.024142	0.030470	-0.019195	1.000000	-0.000043	0.000046	0.000004	-1.931556	-8.540583	45.004091
37812	1.470476	-0.334276	9.674341	0.016890	0.006203	-0.021539	1.000000	-0.000040	0.000014	0.000016	-1.931117	-8.542977	45.004523
37813	1.481547	-0.304233	9.663842	0.004920	0.036040	-0.031274	1.000000	-0.000040	0.000014	0.000016	-1.930456	-8.543099	45.006381
37814	1.493626	-0.326338	9.728398	0.020729	0.023390	0.035062	1.000000	-0.000046	0.000019	0.000026	-1.929654	-8.542890	45.009517
37815	1.508828	-0.305539	9.695640	0.020940	0.051472	0.004250	1.000000	-0.000045	0.000011	0.000021	-1.929669	-8.543284	45.012053
37816	1.512661	-0.315737	9.673389	0.033772	0.048605	-0.016832	1.000000	-0.000059	0.000021	0.000030	-1.929567	-8.542696	45.016948
37817	1.512499	-0.316660	9.673384	0.034222	0.047732	-0.016829	1.000000	-0.000028	-0.000006	0.000021	-1.927622	-8.545028	45.019488
37818	1.488441	-0.327253	9.619370	0.032241	0.027123	-0.073434	1.000000	-0.000063	0.000036	0.000027	-1.925117	-8.543542	45.025596
37819	1.485803	-0.320675	9.696217	0.015986	0.023908	0.001906	1.000000	-0.000035	0.000016	0.000010	-1.923762	-8.543389	45.026775
37820	1.489544	-0.330635	9.673983	0.028224	0.021141	-0.019181	1.000000	-0.000049	0.000026	0.000018	-1.925171	-8.544329	45.025582
37821	1.513798	-0.271298	9.707587	-0.000707	0.077601	0.015660	1.000000	-0.000036	0.000024	0.000015	-1.924014	-8.543271	45.027327
37822	1.481331	-0.263452	9.698133	-0.027760	0.060899	0.001234	1.000000	-0.000035	0.000016	0.000010	-1.922800	-8.545327	45.025825
37823	1.491365	-0.284079	9.708146	-0.007483	0.052448	0.013307	1.000000	-0.000053	0.000016	0.000019	-1.923686	-8.545215	45.028073
37824	1.454963	-0.267465	9.720918	-0.046506	0.037728	0.019968	1.000000	-0.000049	0.000001	0.000022	-1.924489	-8.547111	45.031211
37825	1.474603	-0.255736	9.665877	-0.034141	0.064112	-0.031902	1.000000	-0.000044	0.000003	0.000016	-1.924302	-8.548423	45.033175
37826	1.489015	-0.285211	9.653585	-0.001986	0.053920	-0.040927	1.000000	-0.000021	0.000007	0.000001	-1.922373	-8.550722	45.032230
37827	1.478249	-0.266339	9.643641	-0.021368	0.060623	-0.052982	1.000000	-0.000063	0.000036	0.000027	-1.924538	-8.548277	45.035325
37828	1.520315	-0.295686	9.663143	0.025879	0.067033	-0.026474	1.000000	-0.000036	-0.000001	0.000018	-1.921607	-8.554120	45.033705
37829	1.488076	-0.287962	9.653648	-0.000902	0.050594	-0.040909	1.000000	-0.000048	0.000018	0.000013	-1.921819	-8.553745	45.035271
37830	1.509432	-0.277792	9.653193	0.007316	0.072500	-0.038518	1.000000	-0.000048	0.000018	0.000013	-1.918939	-8.553326	45.036701
37831	1.478902	-0.271842	9.698272	-0.023968	0.051910	0.001296	1.000000	-0.000057	0.000031	0.000016	-1.920221	-8.551525	45.038550
37832	1.460781	-0.293144	9.676528	-0.018897	0.026039	-0.022184	1.000000	-0.000047	0.000027	0.000032	-1.920661	-8.551295	45.039866
37833	1.478822	-0.223452	9.677957	-0.055481	0.088326	-0.020404	1.000000	-0.000062	0.000028	0.000022	-1.922622	-8.549769	45.042392
37834	1.472966	-0.266289	9.720722	-0.034809	0.050685	0.022413	1.000000	-0.000059	0.000037	0.000054	-1.923602	-8.547259	45.046776
37835	1.482950	-0.287124	9.730716	-0.014525	0.042216	0.034465	1.000000	-0.000039	-0.000003	0.000037	-1.923196	-8.549250	45.051233
37836	1.469437	-0.317570	9.686606	0.002484	0.014822	-0.010126	1.000000	-0.000074	0.000015	0.000015	-1.928045	-8.550665	45.047984
37837	1.483659	-0.347717	9.674288	0.034929	0.004651	-0.019181	1.000000	-0.000058	0.000013	0.000025	-1.929611	-8.550838	45.050902
37838	1.509254	-0.346792	9.651544	0.055733	0.024910	-0.037889	1.000000	-0.000053	0.000016	0.000019	-1.925843	-8.548715	45.058619
37839	1.510857	-0.349526	9.706097	0.051703	0.019840	0.016356	1.000000	-0.000054	0.000024	0.000024	-1.926916	-8.547698	45.061427
37840	1.525941	-0.328640	9.673430	0.051990	0.047611	-0.014382	1.000000	-0.000036	0.000024	0.000015	-1.923656	-8.547765	45.061113
37841	1.489240	-0.311710	9.686264	0.013049	0.032875	-0.007716	1.000000	-0.000036	0.000024	0.000015	-1.922485	-8.546718	45.062849
37842	1.478422	-0.292836	9.676352	-0.005862	0.039341	-0.019746	1.000000	-0.000051	0.000026	0.000005	-1.919842	-8.544597	45.064130
37843	1.458177	-0.306624	9.731384	-0.017272	0.011101	0.032094	1.000000	-0.000049	0.000026	0.000018	-1.920226	-8.543303	45.066259
37844	1.477587	-0.294745	9.676422	-0.004880	0.037671	-0.019739	1.000000	-0.000037	0.000007	0.000024	-1.919374	-8.543538	45.068632
37845	1.476527	-0.346143	9.696758	0.027860	-0.001540	0.001908	1.000000	-0.000035	-0.000009	0.000013	-1.918087	-8.546277	45.070301
37846	1.480708	-0.355950	9.674441	0.040037	-0.003571	-0.019200	1.000000	-0.000037	0.000007	0.000024	-1.921213	-8.546756	45.071599
37847	1.506418	-0.354735	9.651699	0.060036	0.017012	-0.037897	1.000000	-0.000045	0.000011	0.000021	-1.921210	-8.547157	45.074116
37848	1.532062	-0.353535	9.628967	0.080111	0.037470	-0.056592	1.000000	-0.000040	0.000014	0.000016	-1.919659	-8.547497	45.075284
37849	1.530620	-0.296418	9.685463	0.031669	0.072367	-0.002865	1.000000	-0.000046	0.000019	0.000027	-1.919850	-8.546988	45.078369
37850	1.480355	-0.308861	9.654189	0.009620	0.031087	-0.040832	1.000000	-0.000039	0.000047	0.000030	-1.919144	-8.543442	45.079206
37851	1.493107	-0.280436	9.698401	-0.006824	0.056698	0.003816	1.000000	-0.000035	0.000016	0.000010	-1.917782	-8.543294	45.080361
37852	1.460529	-0.272616	9.688953	-0.033644	0.040465	-0.010621	1.000000	-0.000043	0.000037	0.000031	-1.918592	-8.540062	45.082107
37853	1.448558	-0.304455	9.699394	-0.020743	0.008844	-0.001024	1.000000	-0.000046	0.000019	0.000027	-1.918787	-8.539550	45.085186
37854	1.487612	-0.274121	9.720819	-0.018167	0.055886	0.024944	1.000000	-0.000044	0.000003	0.000016	-1.920691	-8.543157	45.083690
37855	1.484572	-0.324026	9.686577	0.019021	0.020928	-0.007693	1.000000	-0.000048	-0.000007	0.000017	-1.920984	-8.545651	45.085737
37856	1.521993	-0.291979	9.653426	0.026277	0.071843	-0.035955	1.000000	-0.000043	-0.000004	0.000011	-1.920023	-8.550845	45.084971
37857	1.495954	-0.294993	9.676149	0.007186	0.049490	-0.017268	1.000000	-0.000050	0.000018	0.000000	-1.920238	-8.550581	45.084982
37858	1.557441	-0.311494	9.640702	0.066419	0.084047	-0.042616	1.000000	-0.000039	0.000047	0.000031	-1.920648	-8.547035	45.086224
37859	1.501782	-0.256803	9.688247	-0.016647	0.080231	-0.005715	1.000000	-0.000039	0.000031	0.000007	-1.919697	-8.545194	45.086978
37860	1.496984	-0.248561	9.710619	-0.029046	0.081176	0.015407	1.000000	-0.000037	0.000032	0.000020	-1.922428	-8.545509	45.084109
37861	1.486145	-0.229609	9.700745	-0.048444	0.087910	0.003408	1.000000	-0.000041	0.000022	0.000021	-1.921964	-8.544737	45.086501
37862	1.459884	-0.232740	9.723495	-0.067478	0.065648	0.022094	1.000000	-0.000058	0.000013	0.000025	-1.923728	-8.544250	45.089677
37863	1.478315	-0.271822	9.688831	-0.022903	0.053849	-0.008131	1.000000	-0.000066	0.000010	0.000017	-1.925996	-8.544806	45.091714
37864	1.504171	-0.271200	9.666079	-0.003089	0.074337	-0.026798	1.000000	-0.000080	-0.000005	0.000029	-1.930322	-8.548307	45.094012
37865	1.519786	-0.250585	9.633398	-0.002956	0.102569	-0.057464	1.000000	-0.000044	0.000003	0.000016	-1.930149	-8.549626	45.095939
37866	1.544295	-0.300497	9.630950	0.048959	0.084673	-0.054574	1.000000	-0.000088	0.000024	0.000024	-1.936041	-8.550630	45.095506
37867	1.527577	-0.271396	9.588807	0.021839	0.097398	-0.099686	1.000000	-0.000060	0.000005	0.000006	-1.937440	-8.551826	45.096291
37868	1.489683	-0.305666	9.621901	0.014858	0.044119	-0.071465	1.000000	-0.000067	0.000051	0.000024	-1.940811	-8.549767	45.095274
37869	1.510302	-0.295830	9.621627	0.022703	0.066383	-0.069007	1.000000	-0.000058	0.000064	0.000018	-1.942233	-8.544170	45.097157
37870	1.485211	-0.300877	9.699001	-0.000932	0.039513	0.003903	1.000000	-0.000054	0.000049	0.000021	-1.943168	-8.541445	45.097789
37871	1.440832	-0.324325	9.699900	-0.015287	-0.007635	-0.001013	1.000000	-0.000067	0.000043	0.000019	-1.945559	-8.538215	45.099886
37872	1.461828	-0.314280	9.699578	-0.007676	0.014339	0.001449	1.000000	-0.000037	0.000032	0.000020	-1.944440	-8.538419	45.099248
37873	1.477774	-0.345874	9.741745	0.020344	-0.000166	0.046553	1.000000	-0.000059	0.000013	0.000025	-1.946034	-8.538596	45.102131
37874	1.478528	-0.296291	9.721554	-0.011411	0.036777	0.025044	1.000000	-0.000049	0.000026	0.000018	-1.943684	-8.539253	45.104069
37875	1.474797	-0.346217	9.687302	0.025746	0.001877	-0.007686	1.000000	-0.000053	0.000041	0.000016	-1.944508	-8.536275	45.105774
37876	1.500207	-0.345110	9.664647	0.045389	0.022524	-0.026342	1.000000	-0.000045	0.000011	0.000021	-1.946026	-8.538007	45.104001
37877	1.495583	-0.336988	9.686994	0.033706	0.023270	-0.005215	1.000000	-0.000037	0.000032	0.000020	-1.945089	-8.536067	45.106273
37878	1.466006	-0.388873	9.675413	0.051417	-0.033288	-0.019309	1.000000	-0.000049	0.000026	0.000018	-1.944485	-8.535085	45.108034
37879	1.478959	-0.360730	9.719679	0.035015	-0.007796	0.025418	1.000000	-0.000040	0.000014	0.000016	-1.943833	-8.535238	45.109841
37880	1.464220	-0.332646	9.732102	0.003125	0.000212	0.034566	1.000000	-0.000027	0.000012	0.000012	-1.941603	-8.538603	45.108354
37881	1.453689	-0.313730	9.722208	-0.016283	0.006967	0.022589	1.000000	-0.000061	0.000013	0.000012	-1.943202	-8.538907	45.109699
37882	1.436043	-0.334848	9.700253	-0.010791	-0.018608	-0.001021	1.000000	-0.000041	-0.000004	0.000024	-1.941695	-8.539489	45.112980
37883	1.457938	-0.324473	9.699828	-0.002942	0.003643	0.001461	1.000000	-0.000027	-0.000013	0.000016	-1.939565	-8.542773	45.114891
37884	1.458045	-0.325084	9.699791	-0.002722	0.002307	0.001461	1.000000	-0.000031	0.000001	0.000013	-1.936878	-8.547183	45.113709
37885	1.504652	-0.363185	9.696852	0.056964	0.007665	0.006758	1.000000	-0.000027	-0.000013	0.000016	-1.934747	-8.550474	45.115620
37886	1.484239	-0.324101	9.677021	0.017313	0.021962	-0.017180	1.000000	-0.000023	-0.000003	0.000015	-1.933276	-8.554608	45.115580
37887	1.497704	-0.295487	9.721249	0.000922	0.047416	0.027580	1.000000	-0.000017	-0.000008	0.000004	-1.929787	-8.557356	45.116132
37888	1.491731	-0.284933	9.689013	-0.006479	0.052060	-0.005513	1.000000	-0.000008	-0.000005	0.000025	-1.923886	-8.562193	45.117263
37889	1.462034	-0.278179	9.733957	-0.037673	0.031241	0.034263	1.000000	0.000004	-0.000040	0.000006	-1.918033	-8.568596	45.118205
37890	1.486809	-0.274252	9.656619	-0.013438	0.056063	-0.038600	1.000000	-0.000007	-0.000038	0.000023	-1.912975	-8.576270	45.119090
37891	1.413944	-0.294975	9.570962	-0.038579	-0.003681	-0.133428	1.000000	-0.000003	-0.000002	0.000019	-1.908110	-8.578245	45.121353
37892	1.476164	-0.305464	9.666754	-0.000769	0.023354	-0.029132	1.000000	-0.000006	-0.000045	0.000018	-1.905755	-8.588705	45.118703
37893	1.555545	-0.243100	9.709747	0.005061	0.118165	0.023166	1.000000	0.000016	-0.000035	0.000008	-1.898540	-8.594455	45.119817
37894	1.476492	-0.361372	9.555367	0.053076	-0.009041	-0.137319	1.000000	-0.000015	-0.000008	0.000017	-1.897752	-8.596148	45.118461
37895	1.556035	-0.243364	9.709662	0.005745	0.116835	0.023182	1.000000	-0.000003	-0.000002	0.000019	-1.892900	-8.598129	45.120716
37896	1.491007	-0.282132	9.579454	0.004360	0.053849	-0.113939	1.000000	-0.000020	0.000015	0.000020	-1.891469	-8.600522	45.120019
37897	1.497557	-0.237648	9.722919	-0.040612	0.077941	0.027362	1.000000	-0.000036	0.000024	0.000015	-1.890348	-8.599522	45.121708
37898	1.469353	-0.238734	9.691128	-0.055624	0.059768	-0.008235	1.000000	-0.000043	0.000012	0.000035	-1.890638	-8.602123	45.121437
37899	1.421437	-0.252888	9.714217	-0.082111	0.014211	0.007878	1.000000	-0.000045	0.000011	0.000021	-1.890684	-8.602583	45.123908
37900	1.475055	-0.251461	9.723344	-0.047271	0.051891	0.024869	1.000000	-0.000044	0.000004	0.000016	-1.891597	-8.605240	45.121284
37901	1.537202	-0.268115	9.687799	0.012070	0.086440	-0.000414	1.000000	-0.000064	-0.000005	0.000007	-1.893502	-8.607664	45.122147
37902	1.543276	-0.280520	9.719960	0.020107	0.079713	0.032680	1.000000	-0.000091	0.000006	0.000019	-1.900450	-8.608319	45.119978
37903	1.580568	-0.249172	9.686987	0.027614	0.131175	0.004646	1.000000	-0.000078	0.000004	0.000016	-1.904122	-8.609585	45.121803
37904	1.526617	-0.253090	9.677843	-0.006547	0.091352	-0.012336	1.000000	-0.000077	0.000013	0.000034	-1.906147	-8.610999	45.122641
37905	1.544031	-0.234691	9.699786	-0.010804	0.115163	0.011343	1.000000	-0.000083	0.000002	0.000021	-1.910498	-8.612539	45.125144
37906	1.526147	-0.256326	9.677833	-0.005183	0.089463	-0.012318	1.000000	-0.000078	0.000030	0.000012	-1.911505	-8.609423	45.126926
37907	1.489651	-0.240109	9.690670	-0.044123	0.074694	-0.005635	1.000000	-0.000070	-0.000000	0.000018	-1.914287	-8.611204	45.129033
37908	1.510157	-0.281126	9.710361	-0.004183	0.058587	0.018247	1.000000	-0.000065	0.000002	0.000012	-1.917898	-8.613184	45.125813
37909	1.514376	-0.291395	9.687984	0.008360	0.056143	-0.002894	1.000000	-0.000067	-0.000007	0.000026	-1.920485	-8.615758	45.128878
37910	1.518639	-0.301773	9.665593	0.020630	0.053496	-0.024034	1.000000	-0.000075	-0.000003	0.000024	-1.924245	-8.619796	45.129947
37911	1.521805	-0.254519	9.700002	-0.015588	0.086531	0.008870	1.000000	-0.000075	-0.000003	0.000024	-1.927717	-8.621853	45.132728
37912	1.548907	-0.203280	9.657224	-0.028529	0.145392	-0.031049	1.000000	-0.000089	0.000007	0.000032	-1.934098	-8.626419	45.133413
37913	1.543193	-0.246787	9.699619	-0.007872	0.107579	0.011432	1.000000	-0.000073	0.000023	0.000034	-1.937485	-8.625480	45.137233
37914	1.503422	-0.279616	9.678004	-0.010377	0.058679	-0.014796	1.000000	-0.000096	0.000020	0.000049	-1.943798	-8.626671	45.140692
37915	1.477071	-0.283778	9.700698	-0.029451	0.036224	0.003810	1.000000	-0.000096	0.000020	0.000049	-1.950118	-8.626031	45.146262
37916	1.463342	-0.314657	9.656349	-0.012397	0.008863	-0.041034	1.000000	-0.000097	0.000012	0.000030	-1.955848	-8.628208	45.146194
37917	1.503492	-0.343275	9.621118	0.039515	0.020328	-0.068855	1.000000	-0.000102	0.000009	0.000036	-1.962657	-8.628867	45.150334
37918	1.499188	-0.336431	9.643410	0.028192	0.021041	-0.047706	1.000000	-0.000101	0.000001	0.000031	-1.968048	-8.628838	45.154020
37919	1.556924	-0.345076	9.630177	0.075420	0.057175	-0.051825	1.000000	-0.000100	0.000019	0.000022	-1.974375	-8.628424	45.156518
37920	1.558213	-0.349202	9.684719	0.071360	0.051419	0.002404	1.000000	-0.000105	0.000042	0.000024	-1.980958	-8.627238	45.157394
37921	1.503772	-0.353543	9.675593	0.037101	0.011987	-0.014632	1.000000	-0.000103	0.000026	0.000014	-1.987487	-8.626032	45.158929
37922	1.484509	-0.317848	9.710513	-0.006145	0.021320	0.015760	1.000000	-0.000092	0.000040	0.000021	-1.989022	-8.623974	45.163124
37923	1.479559	-0.310817	9.732923	-0.017795	0.021964	0.036917	1.000000	-0.000096	0.000039	-0.000006	-1.994380	-8.621428	45.162342
37924	1.485176	-0.323655	9.765095	-0.009473	0.014602	0.069988	1.000000	-0.000091	0.000007	0.000019	-1.997942	-8.623326	45.162544
37925	1.454331	-0.265928	9.735636	-0.068652	0.036795	0.034259	1.000000	-0.000098	0.000003	0.000012	-2.003869	-8.624731	45.163897
37926	1.488322	-0.278912	9.799568	-0.044676	0.046362	0.102971	1.000000	-0.000102	-0.000016	0.000039	-2.007173	-8.627342	45.168436
37927	1.556310	-0.254605	9.721630	-0.005615	0.117959	0.035311	1.000000	-0.000106	-0.000026	0.000040	-2.014546	-8.632056	45.173177
37928	1.546517	-0.236993	9.711708	-0.025058	0.124552	0.023421	1.000000	-0.000115	-0.000022	0.000038	-2.021951	-8.637182	45.175957
37929	1.545002	-0.237291	9.657074	-0.020327	0.128330	-0.030789	1.000000	-0.000124	-0.000019	0.000068	-2.031773	-8.640890	45.183879
37930	1.515518	-0.233043	9.701956	-0.051527	0.106662	0.008974	1.000000	-0.000103	-0.000051	0.000070	-2.036600	-8.651401	45.190798
37931	1.510819	-0.281811	9.612670	-0.010172	0.076612	-0.078241	1.000000	-0.000119	0.000009	0.000058	-2.045650	-8.651953	45.197551
37932	1.529627	-0.321928	9.577586	0.034181	0.064770	-0.108658	1.000000	-0.000127	-0.000037	0.000063	-2.055296	-8.659291	45.201495
37933	1.522837	-0.256007	9.602375	-0.021888	0.105433	-0.087535	1.000000	-0.000124	0.000007	0.000064	-2.065034	-8.660112	45.208927
37934	1.470531	-0.371271	9.610422	0.020636	-0.012889	-0.083354	1.000000	-0.000125	-0.000002	0.000046	-2.073012	-8.663336	45.211245
37935	1.477879	-0.333973	9.622657	-0.003470	0.018558	-0.071495	1.000000	-0.000120	0.000001	0.000040	-2.081869	-8.664910	45.215892
37936	1.510974	-0.294512	9.612265	-0.008266	0.071132	-0.078197	1.000000	-0.000134	0.000020	0.000022	-2.090733	-8.667163	45.216997
37937	1.516562	-0.307943	9.644396	-0.000024	0.064037	-0.045136	1.000000	-0.000101	0.000027	0.000027	-2.097248	-8.665834	45.220074
37938	1.548287	-0.318540	9.653838	0.027777	0.078565	-0.030647	1.000000	-0.000070	0.000000	0.000018	-2.099796	-8.667318	45.219659
37939	1.508511	-0.351046	9.632034	0.025462	0.029954	-0.057004	1.000000	-0.000092	0.000040	0.000021	-2.105140	-8.664534	45.221948
37940	1.519725	-0.374884	9.696361	0.041788	0.016290	0.009100	1.000000	-0.000070	0.000051	0.000011	-2.105208	-8.660846	45.223264
37941	1.469291	-0.387188	9.664873	0.019592	-0.024604	-0.029155	1.000000	-0.000068	0.000035	0.000001	-2.107412	-8.658682	45.223226
37942	1.424983	-0.410590	9.665485	0.004824	-0.072246	-0.034369	1.000000	-0.000069	0.000043	0.000006	-2.109220	-8.659367	45.221945
37943	1.477984	-0.409770	9.674730	0.039977	-0.034621	-0.017283	1.000000	-0.000066	0.000036	0.000014	-2.111423	-8.657093	45.223443
37944	1.458862	-0.373543	9.709809	-0.003523	-0.024875	0.013175	1.000000	-0.000064	0.000020	0.000004	-2.112674	-8.656486	45.220344
37945	1.520353	-0.390277	9.674269	0.055772	0.009780	-0.012072	1.000000	-0.000065	0.000044	0.000033	-2.115074	-8.653183	45.223946
37946	1.496797	-0.345326	9.731788	0.000482	0.020776	0.039567	1.000000	-0.000064	0.000036	0.000027	-2.114647	-8.650440	45.227676
37947	1.518919	-0.392778	9.674393	0.057011	0.007734	-0.012077	1.000000	-0.000048	0.000027	0.000032	-2.115076	-8.649092	45.231272
37948	1.480845	-0.427197	9.707061	0.050523	-0.046019	0.015729	1.000000	-0.000066	0.000026	0.000041	-2.115834	-8.649054	45.234066
37949	1.484467	-0.437185	9.684700	0.063031	-0.048381	-0.005452	1.000000	-0.000046	0.000027	0.000045	-2.116259	-8.647592	45.239196
37950	1.484051	-0.438167	9.684719	0.063424	-0.049199	-0.005458	1.000000	-0.000044	0.000012	0.000035	-2.116804	-8.647841	45.240578
37951	1.450465	-0.481160	9.694932	0.068927	-0.104041	0.001154	1.000000	-0.000051	0.000009	0.000027	-2.117521	-8.648584	45.243703
37952	1.501347	-0.420345	9.706821	0.059374	-0.026668	0.018328	1.000000	-0.000042	-0.000004	0.000024	-2.117263	-8.653050	45.244705
37953	1.495363	-0.409810	9.674676	0.051989	-0.021294	-0.014715	1.000000	-0.000020	-0.000001	-0.000004	-2.113958	-8.655060	45.244251
37954	1.481067	-0.381463	9.687329	0.019948	-0.013216	-0.005402	1.000000	-0.000017	-0.000008	0.000004	-2.111763	-8.660980	45.239530
37955	1.486925	-0.339643	9.645196	0.000086	0.023010	-0.047669	1.000000	-0.000013	-0.000023	0.000007	-2.107864	-8.665496	45.240423
37956	1.497108	-0.359906	9.654901	0.020859	0.014097	-0.035810	1.000000	-0.000018	0.000025	0.000006	-2.101367	-8.663897	45.243762
37957	1.486564	-0.340109	9.645235	0.001407	0.020942	-0.047665	1.000000	0.000004	0.000010	-0.000001	-2.095315	-8.664597	45.243660
37958	1.503899	-0.320442	9.667420	-0.002838	0.044180	-0.023844	1.000000	-0.000017	0.000017	0.000001	-2.090085	-8.666522	45.241520
37959	1.487424	-0.289646	9.625626	-0.030128	0.057313	-0.068724	1.000000	-0.000016	0.000009	-0.000005	-2.086286	-8.667358	45.240958
37960	1.504625	-0.270204	9.647828	-0.034504	0.080511	-0.044892	1.000000	-0.000021	0.000032	-0.000002	-2.081846	-8.668279	45.239523
37961	1.485361	-0.233337	9.683003	-0.078067	0.090247	-0.014368	1.000000	-0.000040	0.000039	0.000012	-2.081097	-8.665612	45.240796
37962	1.492163	-0.194258	9.695524	-0.101862	0.121642	-0.002372	1.000000	-0.000025	0.000022	-0.000002	-2.077111	-8.663778	45.241614
37963	1.538045	-0.232638	9.692365	-0.042164	0.126937	0.002798	1.000000	-0.000046	0.000027	0.000045	-2.077532	-8.662331	45.246738
37964	1.527211	-0.213673	9.682733	-0.061615	0.133851	-0.009033	1.000000	-0.000045	0.000037	0.000018	-2.077736	-8.659647	45.247554
37965	1.504867	-0.225654	9.683036	-0.068589	0.109848	-0.011669	1.000000	-0.000045	0.000020	0.000040	-2.077959	-8.659108	45.252102
37966	1.546647	-0.255515	9.702253	-0.020644	0.116378	0.014680	1.000000	-0.000047	0.000019	0.000027	-2.076098	-8.658287	45.255998
37967	1.527713	-0.219098	9.737380	-0.064194	0.126087	0.045227	1.000000	-0.000052	0.000017	0.000032	-2.077005	-8.658132	45.259688
37968	1.513847	-0.248822	9.692851	-0.046738	0.098644	0.000217	1.000000	-0.000061	0.000029	0.000035	-2.075183	-8.657560	45.264123
37969	1.535398	-0.239141	9.692626	-0.038883	0.120858	0.002888	1.000000	-0.000065	-0.000007	0.000039	-2.077744	-8.660040	45.268701
37970	1.539573	-0.249173	9.670193	-0.026411	0.118433	-0.018287	1.000000	-0.000056	0.000006	0.000033	-2.078751	-8.661576	45.271651
37971	1.549467	-0.270347	9.679904	-0.006068	0.109792	-0.006445	1.000000	-0.000058	0.000022	0.000043	-2.080537	-8.660783	45.276593
37972	1.531795	-0.291268	9.657700	-0.001274	0.084321	-0.030290	1.000000	-0.000051	-0.000016	0.000031	-2.082317	-8.665804	45.276705
37973	1.535941	-0.301232	9.635263	0.011208	0.082012	-0.051473	1.000000	-0.000065	0.000019	0.000036	-2.084792	-8.665396	45.280788
37974	1.524003	-0.333678	9.645179	0.024303	0.049855	-0.042308	1.000000	-0.000077	0.000013	0.000034	-2.086240	-8.666671	45.282841
37975	1.541329	-0.315337	9.667365	0.020119	0.073483	-0.018440	1.000000	-0.000059	0.000014	0.000025	-2.087826	-8.666903	45.285671
37976	1.523206	-0.336475	9.645207	0.025627	0.047608	-0.042300	1.000000	-0.000077	0.000038	0.000031	-2.087770	-8.664375	45.290511
37977	1.548525	-0.335634	9.622639	0.045518	0.068417	-0.060815	1.000000	-0.000063	0.000029	0.000022	-2.089748	-8.662899	45.292957
37978	1.522162	-0.339398	9.645270	0.026843	0.045607	-0.042294	1.000000	-0.000086	0.000010	0.000013	-2.091965	-8.663185	45.294415
37979	1.509997	-0.372031	9.655181	0.039781	0.013852	-0.033156	1.000000	-0.000080	0.000046	0.000023	-2.095909	-8.659744	45.296870
37980	1.551479	-0.402600	9.674367	0.087778	0.020514	-0.006851	1.000000	-0.000080	0.000020	0.000026	-2.098416	-8.658016	45.299811
37981	1.519076	-0.395198	9.664900	0.060903	0.004271	-0.021347	1.000000	-0.000075	0.000023	0.000020	-2.101762	-8.657188	45.302075
37982	1.546387	-0.396976	9.696799	0.077052	0.020177	0.014340	1.000000	-0.000075	0.000023	0.000020	-2.103601	-8.654438	45.305386
37983	1.498083	-0.411662	9.719632	0.050650	-0.025539	0.030165	1.000000	-0.000063	0.000029	0.000022	-2.105572	-8.652950	45.307826
37984	1.497430	-0.412777	9.719685	0.051642	-0.026331	0.030158	1.000000	-0.000046	0.000037	0.000018	-2.103649	-8.647867	45.309731
37985	1.512672	-0.391735	9.687450	0.051616	0.002249	-0.000162	1.000000	-0.000077	0.000022	0.000007	-2.106990	-8.647139	45.310453
37986	1.516385	-0.401707	9.665055	0.064323	-0.000538	-0.021368	1.000000	-0.000050	0.000027	0.000019	-2.104290	-8.647041	45.312407
37987	1.490204	-0.404681	9.687662	0.045339	-0.023154	-0.002861	1.000000	-0.000017	-0.000008	0.000004	-2.100740	-8.649843	45.312890
37988	1.537710	-0.391844	9.664896	0.072862	0.020610	-0.018680	1.000000	-0.000027	0.000037	0.000009	-2.096702	-8.647155	45.312335
37989	1.533103	-0.383686	9.687360	0.061290	0.021095	0.002523	1.000000	-0.000026	0.000004	0.000007	-2.094233	-8.648519	45.313110
37990	1.486541	-0.346574	9.690662	0.002600	0.013595	-0.002557	1.000000	-0.000028	0.000020	0.000018	-2.089960	-8.649249	45.314651
37991	1.512243	-0.344731	9.668088	0.022477	0.034429	-0.021060	1.000000	-0.000014	0.000010	0.000009	-2.086114	-8.649960	45.315604
37992	1.511927	-0.345315	9.668117	0.022869	0.033109	-0.021057	1.000000	-0.000042	0.000022	0.000021	-2.084101	-8.651254	45.314484
37993	1.483888	-0.345524	9.636243	0.008005	0.015509	-0.056757	1.000000	-0.000004	0.000006	0.000024	-2.079367	-8.652383	45.317254
37994	1.482456	-0.289071	9.693727	-0.039927	0.049330	-0.002206	1.000000	-0.000054	0.000042	0.000016	-2.078312	-8.649810	45.319823
37995	1.484736	-0.349608	9.690830	0.004967	0.008420	-0.002552	1.000000	-0.000030	0.000002	0.000026	-2.076522	-8.651337	45.322809
37996	1.500279	-0.327962	9.658601	0.004813	0.037168	-0.032832	1.000000	-0.000029	0.000027	0.000023	-2.075657	-8.649866	45.322690
37997	1.495585	-0.320021	9.681076	-0.006751	0.037634	-0.011618	1.000000	-0.000042	0.000022	0.000021	-2.075154	-8.649157	45.325007
37998	1.484973	-0.300836	9.671468	-0.026122	0.044287	-0.023392	1.000000	-0.000036	0.000024	0.000015	-2.072606	-8.648703	45.324473
37999	1.496152	-0.270795	9.661692	-0.038184	0.074269	-0.032446	1.000000	-0.000057	0.000023	0.000011	-2.073672	-8.647850	45.325649
38000	1.497530	-0.274401	9.716221	-0.041545	0.067938	0.021767	1.000000	-0.000043	0.000014	0.000002	-2.070228	-8.648510	45.325979
38001	1.486959	-0.255082	9.706619	-0.061017	0.074814	0.010002	1.000000	-0.000026	0.000030	0.000004	-2.067656	-8.646988	45.326261
38002	1.508163	-0.244750	9.706530	-0.053109	0.096855	0.012738	1.000000	-0.000039	0.000032	0.000007	-2.065793	-8.645674	45.327296
38003	1.497506	-0.225771	9.696937	-0.072583	0.103734	0.000979	1.000000	-0.000064	0.000020	0.000004	-2.067540	-8.645203	45.327613
38004	1.517463	-0.266816	9.716253	-0.032551	0.087191	0.024528	1.000000	-0.000041	0.000014	0.000016	-2.067645	-8.646901	45.323477
38005	1.479264	-0.247443	9.674719	-0.067358	0.077410	-0.022943	1.000000	-0.000052	0.000017	0.000033	-2.068511	-8.646737	45.327144
38006	1.510982	-0.257604	9.684210	-0.039291	0.091635	-0.008433	1.000000	-0.000058	0.000006	0.000020	-2.067875	-8.647516	45.328972
38007	1.506540	-0.250074	9.706646	-0.050843	0.092075	0.012796	1.000000	-0.000052	0.000017	0.000033	-2.068739	-8.647350	45.332637
38008	1.510464	-0.259964	9.684228	-0.038511	0.089477	-0.008410	1.000000	-0.000064	0.000011	0.000031	-2.069994	-8.649839	45.334341
38009	1.502883	-0.300863	9.671567	-0.013545	0.056354	-0.020598	1.000000	-0.000051	-0.000000	0.000054	-2.071148	-8.651544	45.340602
38010	1.508686	-0.313641	9.703607	-0.004709	0.048989	0.012386	1.000000	-0.000082	0.000011	0.000040	-2.073675	-8.650209	45.346234
38011	1.528631	-0.301546	9.648933	0.007219	0.076316	-0.039066	1.000000	-0.000066	0.000001	0.000045	-2.076400	-8.651763	45.351355
38012	1.480664	-0.316206	9.671638	-0.018858	0.030336	-0.023322	1.000000	-0.000064	0.000011	0.000031	-2.076526	-8.651933	45.353889
38013	1.526716	-0.355257	9.668299	0.040862	0.035630	-0.018294	1.000000	-0.000064	0.000011	0.000031	-2.078758	-8.652414	45.357371
38014	1.524651	-0.353969	9.613805	0.045453	0.039698	-0.072489	1.000000	-0.000075	0.000023	0.000021	-2.080974	-8.651969	45.358908
38015	1.525951	-0.358123	9.668314	0.041850	0.033654	-0.018291	1.000000	-0.000067	0.000018	0.000023	-2.083403	-8.651651	45.361429
38016	1.523930	-0.410657	9.687702	0.074679	-0.005997	0.002451	1.000000	-0.000081	0.000028	0.000032	-2.087685	-8.650749	45.361516
38017	1.503064	-0.371968	9.668510	0.035266	0.008695	-0.021042	1.000000	-0.000055	0.000033	-0.000003	-2.088249	-8.648819	45.361042
38018	1.512696	-0.393262	9.678151	0.055629	-0.000089	-0.009299	1.000000	-0.000070	0.000016	0.000042	-2.091097	-8.649127	45.365341
38019	1.529877	-0.374907	9.700480	0.051504	0.023423	0.014682	1.000000	-0.000054	0.000026	-0.000008	-2.091461	-8.648107	45.364288
38020	1.507655	-0.386935	9.700630	0.044631	-0.000611	0.011923	1.000000	-0.000054	0.000016	0.000019	-2.091822	-8.647843	45.365996
38021	1.529137	-0.377073	9.700513	0.052496	0.021586	0.014681	1.000000	-0.000054	0.000016	0.000019	-2.092679	-8.647781	45.368114
38022	1.507016	-0.389009	9.700646	0.045495	-0.002521	0.011918	1.000000	-0.000041	0.000014	0.000016	-2.091713	-8.648590	45.364993
38023	1.522633	-0.367479	9.668486	0.045410	0.026172	-0.018284	1.000000	-0.000041	0.000014	0.000016	-2.090995	-8.648786	45.366711
38024	1.549969	-0.368714	9.700446	0.061063	0.041873	0.017446	1.000000	-0.000037	0.000024	0.000015	-2.090523	-8.648461	45.364149
38025	1.532074	-0.389143	9.678133	0.066086	0.016573	-0.006552	1.000000	-0.000043	0.000004	0.000030	-2.090298	-8.649728	45.367500
38026	1.525797	-0.378587	9.646110	0.058695	0.021949	-0.039515	1.000000	-0.000038	0.000032	0.000021	-2.087868	-8.648338	45.367454
38027	1.543047	-0.359720	9.668470	0.054579	0.045446	-0.015511	1.000000	-0.000030	0.000002	0.000026	-2.086066	-8.649863	45.370406
38028	1.516744	-0.362759	9.691048	0.035930	0.022550	0.002949	1.000000	-0.000037	0.000024	0.000015	-2.082808	-8.648500	45.371638
38029	1.514620	-0.360643	9.636598	0.040401	0.026873	-0.051243	1.000000	-0.000028	0.000020	0.000018	-2.080712	-8.648044	45.373530
38030	1.517426	-0.313019	9.671837	0.004518	0.059207	-0.017715	1.000000	-0.000031	0.000027	0.000010	-2.077112	-8.647251	45.375042
38031	1.509435	-0.353334	9.659150	0.029476	0.026113	-0.030006	1.000000	-0.000037	0.000024	0.000015	-2.075900	-8.646265	45.376652
38032	1.516522	-0.314449	9.671933	0.005250	0.057105	-0.017703	1.000000	-0.000038	0.000016	-0.000003	-2.073981	-8.648295	45.371932
38033	1.494252	-0.326025	9.672088	-0.001712	0.033111	-0.020482	1.000000	-0.000024	0.000030	0.000017	-2.071394	-8.646661	45.373722
38034	1.522994	-0.276223	9.684800	-0.018084	0.087469	-0.005384	1.000000	-0.000050	0.000027	0.000019	-2.070540	-8.644462	45.374774
38035	1.526741	-0.285590	9.662403	-0.005659	0.085287	-0.026614	1.000000	-0.000025	0.000022	-0.000001	-2.067748	-8.643845	45.374447
38036	1.517799	-0.269059	9.707363	-0.029629	0.086719	0.015873	1.000000	-0.000045	0.000029	0.000013	-2.068534	-8.645279	45.370398
38037	1.489667	-0.269450	9.675461	-0.044565	0.069267	-0.019860	1.000000	-0.000041	0.000014	0.000016	-2.067812	-8.645480	45.372102
38038	1.521197	-0.279470	9.684990	-0.016661	0.083253	-0.005345	1.000000	-0.000052	0.000026	0.000006	-2.066207	-8.645589	45.369968
38039	1.514897	-0.269088	9.652985	-0.024185	0.088902	-0.038285	1.000000	-0.000054	0.000016	0.000019	-2.067057	-8.645532	45.372067
38040	1.520313	-0.281537	9.685069	-0.015534	0.081613	-0.005330	1.000000	-0.000041	0.000030	0.000040	-2.066483	-8.642204	45.376404
38041	1.515644	-0.273999	9.707561	-0.027047	0.081978	0.015921	1.000000	-0.000059	0.000014	0.000025	-2.068023	-8.642413	45.379178
38042	1.493611	-0.286155	9.707648	-0.034045	0.057868	0.013129	1.000000	-0.000056	0.000006	0.000033	-2.069042	-8.644067	45.380461
38043	1.487545	-0.275768	9.675609	-0.041573	0.063527	-0.019808	1.000000	-0.000046	0.000012	0.000022	-2.069006	-8.644536	45.382835
38044	1.479647	-0.316488	9.662845	-0.016365	0.030242	-0.032150	1.000000	-0.000063	0.000029	0.000022	-2.068996	-8.642811	45.383917
38045	1.492666	-0.289587	9.707691	-0.032419	0.054951	0.013151	1.000000	-0.000058	0.000006	0.000020	-2.070334	-8.643929	45.386108
38046	1.506754	-0.319385	9.694809	0.000105	0.044535	0.003608	1.000000	-0.000052	0.000017	0.000033	-2.068760	-8.644869	45.389397
38047	1.510599	-0.329153	9.672370	0.012519	0.042377	-0.017635	1.000000	-0.000062	0.000021	0.000017	-2.070493	-8.644276	45.391210
38048	1.492675	-0.349977	9.649993	0.017383	0.017107	-0.041693	1.000000	-0.000064	0.000011	0.000031	-2.073176	-8.645412	45.392490
38049	1.509812	-0.331642	9.672408	0.013295	0.040547	-0.017628	1.000000	-0.000051	0.000034	0.000024	-2.073736	-8.643259	45.395059
38050	1.477345	-0.323671	9.662959	-0.013558	0.023897	-0.032128	1.000000	-0.000062	0.000021	0.000017	-2.073147	-8.644482	45.396597
38051	1.518934	-0.354117	9.682041	0.034217	0.030411	-0.005935	1.000000	-0.000062	0.000021	0.000017	-2.074878	-8.643891	45.398407
38052	1.488396	-0.349183	9.727028	0.003135	0.008944	0.033745	1.000000	-0.000063	0.000003	0.000026	-2.077941	-8.645986	45.397753
38053	1.518465	-0.356598	9.682024	0.034919	0.028640	-0.005933	1.000000	-0.000052	0.000017	0.000033	-2.078791	-8.645817	45.401376
38054	1.507940	-0.337780	9.672488	0.015489	0.035404	-0.017612	1.000000	-0.000068	0.000026	0.000028	-2.080406	-8.645027	45.403495
38055	1.501569	-0.381628	9.714155	0.036481	-0.003031	0.024173	1.000000	-0.000060	0.000022	0.000030	-2.082142	-8.644327	45.406836
38056	1.495376	-0.371416	9.682136	0.029384	0.002334	-0.008760	1.000000	-0.000064	0.000011	0.000031	-2.081071	-8.644361	45.411400
38057	1.500999	-0.383942	9.714152	0.037847	-0.005180	0.024167	1.000000	-0.000031	0.000010	0.000031	-2.079450	-8.644982	45.414904
38058	1.516704	-0.362582	9.682077	0.037882	0.023516	-0.005930	1.000000	-0.000072	0.000016	0.000029	-2.081442	-8.644644	45.417089
38059	1.504613	-0.394700	9.691691	0.050878	-0.008319	0.002906	1.000000	-0.000034	0.000017	0.000023	-2.080017	-8.644462	45.419634
38060	1.511813	-0.355908	9.704580	0.026866	0.022619	0.015328	1.000000	-0.000041	0.000014	0.000016	-2.077910	-8.645897	45.417325
38061	1.519936	-0.373936	9.659658	0.051213	0.019265	-0.027186	1.000000	-0.000047	0.000019	0.000027	-2.078061	-8.645455	45.420266
38062	1.505355	-0.346190	9.672593	0.019057	0.027100	-0.017591	1.000000	-0.000038	0.000007	0.000024	-2.078757	-8.650769	45.415272
38063	1.519489	-0.375574	9.659665	0.051413	0.017123	-0.027183	1.000000	-0.000033	0.000009	0.000018	-2.077133	-8.651506	45.417233
38064	1.504973	-0.347752	9.672597	0.020026	0.024988	-0.017588	1.000000	-0.000048	0.000011	0.000008	-2.075559	-8.653113	45.418129
38065	1.526541	-0.337528	9.672568	0.027901	0.047168	-0.014738	1.000000	-0.000020	0.000015	0.000020	-2.072557	-8.653202	45.420272
38066	1.521899	-0.329716	9.695079	0.016318	0.047602	0.006524	1.000000	-0.000052	0.000026	0.000006	-2.073847	-8.651953	45.417136
38067	1.525847	-0.339101	9.672622	0.028714	0.045484	-0.014732	1.000000	-0.000030	0.000002	0.000026	-2.072027	-8.653493	45.420050
38068	1.493647	-0.330580	9.663149	0.001776	0.029404	-0.029240	1.000000	-0.000031	0.000027	0.000010	-2.070365	-8.652088	45.417580
38069	1.536830	-0.309486	9.663121	0.017076	0.074666	-0.023526	1.000000	-0.000042	0.000022	0.000021	-2.069831	-8.651383	45.419833
38070	1.522210	-0.281628	9.676086	-0.014792	0.082618	-0.013910	1.000000	-0.000033	0.000010	0.000018	-2.069138	-8.654791	45.415538
38071	1.499991	-0.293346	9.676159	-0.021764	0.058632	-0.016762	1.000000	-0.000045	0.000029	0.000013	-2.068805	-8.653287	45.416832
38072	1.509573	-0.314197	9.685744	-0.001285	0.049696	-0.005104	1.000000	-0.000028	0.000020	0.000018	-2.065738	-8.653277	45.417138
38073	1.504996	-0.306572	9.708244	-0.012766	0.049991	0.016165	1.000000	-0.000059	0.000014	0.000025	-2.067274	-8.653494	45.419882
38074	1.516263	-0.276830	9.698723	-0.024831	0.079903	0.007390	1.000000	-0.000064	0.000037	0.000028	-2.068823	-8.651585	45.418365
38075	1.519973	-0.286388	9.676298	-0.012444	0.077798	-0.013867	1.000000	-0.000036	0.000017	0.000010	-2.067398	-8.651523	45.419353
38076	1.515296	-0.278728	9.698820	-0.023936	0.078141	0.007406	1.000000	-0.000048	0.000027	0.000032	-2.068047	-8.650040	45.419927
38077	1.487247	-0.279063	9.666871	-0.038941	0.060834	-0.028365	1.000000	-0.000046	0.000012	0.000022	-2.068005	-8.650518	45.422266
38078	1.518860	-0.289279	9.676387	-0.011221	0.074967	-0.013844	1.000000	-0.000054	0.000016	0.000019	-2.068686	-8.651689	45.421917
38079	1.496662	-0.301240	9.676432	-0.018196	0.050983	-0.016711	1.000000	-0.000047	0.000019	0.000027	-2.068847	-8.651258	45.424835
38080	1.513899	-0.282849	9.698918	-0.022423	0.073932	0.007442	1.000000	-0.000054	0.000016	0.000019	-2.068749	-8.653680	45.423725
38081	1.531931	-0.321083	9.663521	0.021851	0.062774	-0.023452	1.000000	-0.000051	0.000034	0.000024	-2.069308	-8.651539	45.426267
38082	1.481192	-0.275707	9.689482	-0.048637	0.057039	-0.007057	1.000000	-0.000044	-0.000004	0.000011	-2.068223	-8.652243	45.424393
38083	1.522854	-0.306240	9.708508	-0.000822	0.063447	0.019097	1.000000	-0.000074	0.000032	0.000039	-2.071743	-8.650376	45.428682
38084	1.498997	-0.315459	9.654063	-0.004025	0.044979	-0.037955	1.000000	-0.000061	0.000013	0.000012	-2.073732	-8.651184	45.427557
38085	1.482719	-0.339246	9.686063	-0.002960	0.014294	-0.007937	1.000000	-0.000066	0.000011	0.000018	-2.075957	-8.651777	45.429423
38086	1.504207	-0.329575	9.686068	0.005101	0.036351	-0.005046	1.000000	-0.000055	0.000024	0.000025	-2.075799	-8.650565	45.429697
38087	1.518037	-0.359399	9.673118	0.037445	0.026384	-0.014692	1.000000	-0.000060	0.000022	0.000030	-2.077539	-8.649869	45.433002
38088	1.507538	-0.340668	9.663633	0.017719	0.032823	-0.026312	1.000000	-0.000075	0.000023	0.000021	-2.079503	-8.652163	45.430011
38089	1.512762	-0.353577	9.695669	0.026221	0.025197	0.006586	1.000000	-0.000051	0.000035	0.000024	-2.080061	-8.650020	45.432544
38090	1.494755	-0.374104	9.673198	0.031272	-0.000431	-0.017585	1.000000	-0.000058	0.000006	0.000020	-2.078944	-8.652695	45.433382
38091	1.494422	-0.375208	9.673206	0.031726	-0.001337	-0.017587	1.000000	-0.000050	0.000027	0.000019	-2.079297	-8.651464	45.435334
38092	1.511677	-0.356724	9.695722	0.027383	0.021694	0.006591	1.000000	-0.000038	0.000007	0.000024	-2.078466	-8.655009	45.432376
38093	1.515605	-0.366191	9.673245	0.039753	0.019624	-0.014685	1.000000	-0.000055	0.000024	0.000025	-2.079511	-8.654052	45.435003
38094	1.515241	-0.367238	9.673262	0.040568	0.018199	-0.014686	1.000000	-0.000046	0.000012	0.000022	-2.075779	-8.655221	45.438765
38095	1.514999	-0.368192	9.673264	0.041022	0.017291	-0.014686	1.000000	-0.000046	0.000012	0.000022	-2.075728	-8.655708	45.441091
38096	1.510517	-0.360659	9.695758	0.029464	0.017648	0.006593	1.000000	-0.000048	0.000011	0.000008	-2.076575	-8.656245	45.437958
38097	1.492563	-0.380898	9.673271	0.034396	-0.007485	-0.017599	1.000000	-0.000037	0.000025	0.000015	-2.075345	-8.655281	45.439508
38098	1.493822	-0.330624	9.654358	0.002324	0.030113	-0.037897	1.000000	-0.000048	0.000027	0.000032	-2.074225	-8.655559	45.442234
38099	1.509098	-0.363433	9.695875	0.030814	0.014547	0.006594	1.000000	-0.000050	0.000027	0.000019	-2.074573	-8.654333	45.444181
38100	1.520649	-0.333301	9.686419	0.018959	0.044344	-0.002088	1.000000	-0.000037	-0.000001	0.000019	-2.071346	-8.656444	45.447501
38101	1.498681	-0.345058	9.686385	0.011980	0.020363	-0.005006	1.000000	-0.000046	0.000012	0.000022	-2.071293	-8.656932	45.449822
38102	1.510213	-0.314865	9.676942	-0.000279	0.050041	-0.013678	1.000000	-0.000036	0.000017	0.000010	-2.068975	-8.659218	45.447811
38103	1.498051	-0.346618	9.686427	0.012717	0.018154	-0.005003	1.000000	-0.000034	0.000017	0.000023	-2.067543	-8.659064	45.450316
38104	1.509477	-0.316385	9.677007	0.000536	0.048057	-0.013668	1.000000	-0.000042	0.000022	0.000021	-2.066722	-8.659459	45.449185
38105	1.519240	-0.337422	9.686498	0.020967	0.039237	-0.002071	1.000000	-0.000045	0.000004	0.000016	-2.066466	-8.660861	45.450921
38106	1.520828	-0.287069	9.667578	-0.011182	0.077051	-0.022319	1.000000	-0.000036	0.000017	0.000010	-2.064702	-8.661881	45.448675
38107	1.504373	-0.310622	9.699551	-0.010090	0.046289	0.007632	1.000000	-0.000062	0.000021	0.000017	-2.066426	-8.661304	45.450433
38108	1.508240	-0.320079	9.677078	0.001934	0.043726	-0.013648	1.000000	-0.000034	0.000017	0.000023	-2.064236	-8.664713	45.449422
38109	1.519751	-0.289826	9.667665	-0.010153	0.073800	-0.022292	1.000000	-0.000041	0.000014	0.000016	-2.063489	-8.664942	45.451061
38110	1.529410	-0.310828	9.677168	0.010543	0.064674	-0.010698	1.000000	-0.000042	0.000022	0.000021	-2.060590	-8.664419	45.452244
38111	1.519049	-0.291595	9.667722	-0.008982	0.071682	-0.022276	1.000000	-0.000046	0.000012	0.000022	-2.060532	-8.664918	45.454560
38112	1.504390	-0.263976	9.680787	-0.040510	0.079689	-0.012559	1.000000	-0.000050	0.000027	0.000019	-2.060819	-8.664656	45.454053
38113	1.518050	-0.293627	9.667817	-0.008180	0.069739	-0.022261	1.000000	-0.000049	0.000035	0.000038	-2.061371	-8.662426	45.458114
38114	1.545347	-0.295414	9.699852	0.007629	0.085139	0.013563	1.000000	-0.000044	-0.000004	0.000011	-2.061875	-8.665232	45.454318
38115	1.527572	-0.315823	9.677296	0.012538	0.060048	-0.010671	1.000000	-0.000062	0.000021	0.000017	-2.063599	-8.664660	45.456070
38116	1.502856	-0.268320	9.680905	-0.039123	0.076106	-0.012525	1.000000	-0.000060	0.000022	0.000030	-2.066459	-8.665059	45.455092
38117	1.538522	-0.287245	9.667948	0.000645	0.089220	-0.019281	1.000000	-0.000055	0.000024	0.000025	-2.067500	-8.664113	45.457702
38118	1.504414	-0.330286	9.677331	0.006268	0.034258	-0.013612	1.000000	-0.000054	0.000017	0.000019	-2.068068	-8.663767	45.457293
38119	1.531512	-0.332207	9.709393	0.022254	0.049585	0.022212	1.000000	-0.000051	0.000035	0.000024	-2.068619	-8.661640	45.459806
38120	1.493266	-0.312383	9.667976	-0.012813	0.040142	-0.025175	1.000000	-0.000063	0.000029	0.000022	-2.069636	-8.661134	45.459729
38121	1.502796	-0.333685	9.677466	0.007623	0.031298	-0.013603	1.000000	-0.000049	0.000019	0.000014	-2.069780	-8.660827	45.461074
38122	1.512293	-0.355125	9.686952	0.028306	0.022307	-0.002036	1.000000	-0.000075	0.000032	0.000039	-2.071663	-8.658566	45.464335
38123	1.501847	-0.336219	9.677525	0.008777	0.029331	-0.013598	1.000000	-0.000046	0.000012	0.000022	-2.071609	-8.659063	45.466633
38124	1.497114	-0.328928	9.700070	-0.002585	0.029639	0.007701	1.000000	-0.000068	0.000036	0.000001	-2.073953	-8.656086	45.462826
38125	1.500794	-0.338590	9.677606	0.009754	0.027631	-0.013594	1.000000	-0.000057	0.000024	0.000011	-2.074986	-8.655239	45.463887
38126	1.532276	-0.349070	9.687139	0.037882	0.041706	0.000936	1.000000	-0.000059	0.000014	0.000025	-2.074923	-8.655032	45.466022
38127	1.510105	-0.361109	9.687072	0.030894	0.017733	-0.002035	1.000000	-0.000054	0.000017	0.000019	-2.075759	-8.654990	45.468036
38128	1.487988	-0.373262	9.686988	0.023682	-0.006725	-0.005009	1.000000	-0.000072	0.000008	0.000023	-2.077599	-8.658794	45.466627
