// Start Time: Unknown
// Update Rate: 100.0Hz
// Filter Profile: human (46.1)
// Firmware Version: 4.4.0
PacketCounter	Acc_X	Acc_Y	Acc_Z	FreeAcc_X	FreeAcc_Y	FreeAcc_Z	OriInc_q0	OriInc_q1	OriInc_q2	OriInc_q3	Roll	Pitch	Yaw
15313	9.888031	-0.629864	0.671832	0.000000	0.000000	0.118136	1.000000	0.000026	0.000034	0.000019	-43.160751	-84.681321	45.047316
15314	9.887962	-0.630198	0.672545	-0.000000	-0.000000	0.118136	1.000000	0.000034	0.000034	0.000019	-43.145910	-84.676954	45.029903
15315	9.863732	-0.627241	0.674385	-0.004177	0.001096	0.093947	1.000000	0.000034	0.000040	0.000035	-43.154802	-84.675269	45.044641
15316	9.863903	-0.633399	0.698833	-0.027662	-0.005196	0.096164	1.000000	0.000018	0.000027	0.000026	-43.153738	-84.671021	45.045611
15317	9.887985	-0.637310	0.698236	-0.024871	-0.006998	0.120353	1.000000	0.000032	0.000018	0.000025	-43.156922	-84.667444	45.052384
15318	9.891264	-0.608619	0.680595	-0.007455	0.022814	0.120597	1.000000	0.000011	0.000043	0.000020	-43.137629	-84.662260	45.034290
15319	9.863675	-0.634795	0.700776	-0.027632	-0.005184	0.096164	1.000000	0.000027	0.000040	0.000035	-43.131754	-84.656129	45.031449
15320	9.863586	-0.635434	0.701453	-0.027632	-0.005184	0.096164	1.000000	0.000025	0.000025	0.000033	-43.137655	-84.651418	45.040299
15321	9.863261	-0.630409	0.678299	-0.004116	0.001109	0.093947	1.000000	0.000018	0.000034	0.000027	-43.129654	-84.646339	45.034378
15322	9.867024	-0.613053	0.708241	-0.033670	0.018336	0.098626	1.000000	0.000026	0.000033	0.000034	-43.129934	-84.640928	45.037649
15323	9.883394	-0.652924	0.649359	0.028261	-0.017945	0.113457	1.000000	0.000034	0.000033	0.000026	-43.119361	-84.635925	45.030920
15324	9.891000	-0.617563	0.708639	-0.030847	0.016508	0.122815	1.000000	0.000019	0.000042	0.000028	-43.107131	-84.630277	45.020804
15325	9.862935	-0.632533	0.681059	-0.004010	0.001089	0.093948	1.000000	0.000017	0.000019	0.000025	-43.108934	-84.626549	45.024613
15326	9.887022	-0.636389	0.680486	-0.001239	-0.000728	0.118136	1.000000	0.000025	0.000027	0.000018	-43.099845	-84.622881	45.018398
15327	9.886948	-0.636872	0.681107	-0.001182	-0.000737	0.118136	1.000000	0.000026	0.000033	0.000034	-43.097240	-84.617275	45.018796
15328	9.862719	-0.633984	0.682843	-0.003953	0.001079	0.093948	1.000000	0.000018	0.000034	0.000027	-43.090638	-84.612327	45.014269
15329	9.862405	-0.628977	0.659761	0.019593	0.007362	0.091730	1.000000	0.000026	0.000033	0.000034	-43.087869	-84.606707	45.014504
15330	9.890303	-0.615138	0.688643	-0.007190	0.022772	0.120598	1.000000	0.000034	0.000032	0.000034	-43.087598	-84.601355	45.018102
15331	9.890222	-0.615771	0.689246	-0.007146	0.022728	0.120598	1.000000	0.000018	0.000026	0.000034	-43.090204	-84.596584	45.022792
15332	9.890139	-0.616338	0.689932	-0.007146	0.022728	0.120598	1.000000	0.000034	0.000041	0.000027	-43.076937	-84.591053	45.013398
15333	9.862283	-0.636898	0.686411	-0.003788	0.000923	0.093948	1.000000	0.000019	0.000049	0.000029	-43.052270	-84.584882	44.990940
15334	9.858147	-0.649758	0.634089	0.049250	-0.010011	0.087050	1.000000	0.000032	0.000018	0.000025	-43.055668	-84.581453	44.998090
15335	9.886275	-0.641402	0.686605	-0.001009	-0.000971	0.118136	1.000000	0.000026	0.000033	0.000034	-43.052250	-84.576318	44.997616
15336	9.865442	-0.609424	0.670110	0.013636	0.030658	0.094192	1.000000	0.000019	0.000042	0.000028	-43.040189	-84.570666	44.987668
15337	9.886103	-0.642480	0.688064	-0.001056	-0.001100	0.118136	1.000000	0.000025	0.000026	0.000026	-43.035205	-84.567203	44.985655
15338	9.861887	-0.639553	0.689632	-0.003828	0.000718	0.093948	1.000000	0.000025	0.000025	0.000033	-43.041091	-84.562496	44.994490
15339	9.885954	-0.643722	0.689046	-0.001070	-0.001224	0.118136	1.000000	0.000025	0.000017	0.000040	-43.055027	-84.558530	45.011481
15340	9.885669	-0.638646	0.665897	0.022414	0.005068	0.115918	1.000000	0.000019	0.000043	0.000012	-43.028248	-84.553928	44.986744
15341	9.885791	-0.644636	0.690522	-0.001073	-0.001368	0.118136	1.000000	0.000042	0.000039	0.000035	-43.015709	-84.548525	44.979358
15342	9.889327	-0.621762	0.696672	-0.007141	0.022149	0.120599	1.000000	0.000010	0.000026	0.000034	-43.022590	-84.543701	44.987446
15343	9.889040	-0.616833	0.673504	0.016303	0.028319	0.118382	1.000000	0.000041	0.000032	0.000034	-43.018297	-84.539070	44.987657
15344	9.861196	-0.637407	0.669665	0.019602	0.006618	0.091730	1.000000	0.000025	0.000026	0.000026	-43.016705	-84.534882	44.988983
15345	9.889089	-0.623495	0.698497	-0.007277	0.021871	0.120600	1.000000	0.000026	0.000033	0.000034	-43.014591	-84.530486	44.989396
15346	9.861234	-0.644088	0.694734	-0.003978	0.000173	0.093948	1.000000	0.000026	0.000034	0.000027	-43.007589	-84.525591	44.985337
15347	9.860958	-0.639161	0.671489	0.019401	0.006271	0.091731	1.000000	0.000017	0.000017	0.000040	-43.023088	-84.522233	45.002609
15348	9.864722	-0.621680	0.701198	-0.010154	0.023499	0.096412	1.000000	0.000018	0.000028	0.000011	-43.007535	-84.519025	44.988996
15349	9.864624	-0.622194	0.702116	-0.010129	0.023260	0.096412	1.000000	0.000036	0.000061	0.000045	-42.981382	-84.511209	44.966795
15350	9.885032	-0.649860	0.696468	-0.001288	-0.002077	0.118136	1.000000	0.000017	0.000019	0.000025	-42.985872	-84.507645	44.973256
15351	9.888413	-0.621258	0.678628	0.016117	0.027448	0.118385	1.000000	0.000033	0.000025	0.000026	-42.971987	-84.504725	44.963413
15352	9.888716	-0.632836	0.726796	-0.030850	0.014865	0.122817	1.000000	0.000026	0.000034	0.000027	-42.964939	-84.499816	44.959302
15353	9.888454	-0.627767	0.703642	-0.007365	0.020886	0.120602	1.000000	0.000025	0.000026	0.000026	-42.951899	-84.496726	44.948588
15354	9.864244	-0.624741	0.705191	-0.010131	0.022710	0.096414	1.000000	0.000025	0.000026	0.000026	-42.950338	-84.492510	44.949909
15355	9.888119	-0.623326	0.681015	0.015972	0.026839	0.118387	1.000000	0.000026	0.000032	0.000042	-42.950197	-84.488606	44.952458
15356	9.860265	-0.643829	0.677179	0.019270	0.005146	0.091732	1.000000	0.000018	0.000028	0.000011	-42.934827	-84.485384	44.939005
15357	9.887960	-0.624316	0.682406	0.016164	0.026488	0.118387	1.000000	0.000035	0.000046	0.000043	-42.907651	-84.478738	44.915453
15358	9.888049	-0.630427	0.706943	-0.007315	0.020201	0.120603	1.000000	0.000025	0.000027	0.000018	-42.898793	-84.475026	44.909423
15359	9.863662	-0.621791	0.684792	0.013194	0.027793	0.094201	1.000000	0.000018	0.000034	0.000027	-42.879013	-84.473078	44.892906
15360	9.859935	-0.645886	0.680024	0.019265	0.004277	0.091732	1.000000	0.000018	0.000033	0.000034	-42.880022	-84.467594	44.896004
15361	9.863496	-0.623008	0.686081	0.012816	0.027293	0.094203	1.000000	0.000025	0.000025	0.000033	-42.880870	-84.466529	44.900492
15362	9.863248	-0.618025	0.662914	0.036295	0.033587	0.091990	1.000000	0.000026	0.000034	0.000027	-42.874302	-84.461657	44.896864
15363	9.887312	-0.622096	0.662534	0.038847	0.031269	0.116180	1.000000	0.000025	0.000025	0.000033	-42.868510	-84.459836	44.894025
15364	9.863413	-0.630305	0.711829	-0.010898	0.020512	0.096418	1.000000	0.000027	0.000048	0.000036	-42.858503	-84.453039	44.887068
15365	9.907802	-0.655740	0.681334	0.023704	-0.000894	0.140110	1.000000	0.000017	0.000021	0.000010	-42.847142	-84.454696	44.877323
15366	9.887078	-0.623586	0.664621	0.038339	0.030748	0.116183	1.000000	0.000027	0.000040	0.000035	-42.842887	-84.448629	44.876071
15367	9.886985	-0.624170	0.665457	0.037613	0.030319	0.116188	1.000000	0.000027	0.000041	0.000027	-42.843781	-84.447779	44.878132
15368	9.862920	-0.626689	0.690986	0.011339	0.025862	0.094209	1.000000	0.000018	0.000034	0.000027	-42.838800	-84.442902	44.875159
15369	9.886822	-0.625175	0.666924	0.037062	0.029826	0.116191	1.000000	0.000026	0.000034	0.000027	-42.833404	-84.442206	44.871692
15370	9.890702	-0.613279	0.720613	-0.016006	0.040768	0.123080	1.000000	0.000034	0.000032	0.000034	-42.834817	-84.436935	44.876884
15371	9.859014	-0.651899	0.687597	0.016427	0.001274	0.091738	1.000000	0.000018	0.000033	0.000034	-42.829364	-84.435589	44.873168
15372	9.886594	-0.626637	0.668934	0.036577	0.029261	0.116195	1.000000	0.000033	0.000029	-0.000005	-42.800033	-84.433621	44.847381
15373	9.886678	-0.632423	0.693434	0.012333	0.022544	0.118403	1.000000	0.000027	0.000040	0.000035	-42.809546	-84.432331	44.857235
15374	9.890252	-0.609410	0.699572	0.006231	0.046078	0.120878	1.000000	0.000010	0.000028	0.000018	-42.804130	-84.428624	44.852771
15375	9.834577	-0.649899	0.691396	0.011832	0.002188	0.067553	1.000000	0.000027	0.000048	0.000036	-42.815264	-84.428131	44.865231
15376	9.890076	-0.610503	0.701106	0.005167	0.045575	0.120880	1.000000	0.000018	0.000027	0.000026	-42.817256	-84.424004	44.869049
15377	9.886203	-0.628981	0.672505	0.034536	0.027622	0.116207	1.000000	0.000034	0.000033	0.000026	-42.786784	-84.422881	44.844599
15378	9.858328	-0.649450	0.668723	0.037800	0.005955	0.089542	1.000000	0.000026	0.000034	0.000027	-42.782619	-84.418114	44.843219
15379	9.889847	-0.611891	0.703123	0.003916	0.044393	0.120886	1.000000	0.000018	0.000035	0.000019	-42.792865	-84.419809	44.852976
15380	9.861834	-0.626838	0.675557	0.030656	0.029022	0.092023	1.000000	0.000041	0.000032	0.000034	-42.795509	-84.414676	44.860152
15381	9.889685	-0.612933	0.704502	0.003288	0.043960	0.120889	1.000000	0.000018	0.000034	0.000027	-42.794515	-84.413893	44.857850
15382	9.861792	-0.633432	0.700868	0.006540	0.022305	0.094222	1.000000	0.000019	0.000049	0.000029	-42.781216	-84.407685	44.846440
15383	9.882049	-0.655480	0.671469	0.037831	0.002502	0.113741	1.000000	0.000025	0.000026	0.000026	-42.791804	-84.410715	44.862147
15384	9.861503	-0.628897	0.678473	0.028939	0.027882	0.092032	1.000000	0.000034	0.000033	0.000026	-42.788576	-84.406097	44.862506
15385	9.889227	-0.609405	0.683648	0.024254	0.048910	0.118706	1.000000	0.000026	0.000034	0.000027	-42.812481	-84.409529	44.890372
15386	9.885482	-0.633415	0.678913	0.030227	0.025414	0.116227	1.000000	0.000026	0.000034	0.000027	-42.810619	-84.404934	44.891219
15387	9.861266	-0.630361	0.680553	0.026513	0.026531	0.092042	1.000000	0.000026	0.000034	0.000027	-42.814114	-84.407006	44.900103
15388	9.881531	-0.652483	0.651082	0.058711	0.007483	0.111565	1.000000	0.000026	0.000033	0.000034	-42.819774	-84.401937	44.908527
15389	9.857310	-0.649435	0.652795	0.054790	0.008804	0.087383	1.000000	0.000026	0.000042	0.000020	-42.828554	-84.403848	44.918577
15390	9.888948	-0.617314	0.710991	-0.001698	0.041436	0.120900	1.000000	0.000010	0.000028	0.000018	-42.826890	-84.400440	44.917771
15391	9.860951	-0.632266	0.683338	0.023632	0.025633	0.092052	1.000000	0.000034	0.000032	0.000034	-42.872435	-84.402948	44.963098
15392	9.857190	-0.656358	0.678673	0.029564	0.002143	0.089571	1.000000	0.000019	0.000042	0.000028	-42.867725	-84.397737	44.960192
15393	9.888585	-0.613378	0.689358	0.019323	0.046679	0.118728	1.000000	0.000026	0.000034	0.000027	-42.868820	-84.398985	44.966801
15394	9.881046	-0.655487	0.655412	0.054807	0.005961	0.111589	1.000000	0.000018	0.000033	0.000034	-42.876766	-84.393985	44.976569
15395	9.860598	-0.634563	0.686305	0.021879	0.024697	0.092058	1.000000	0.000034	0.000040	0.000035	-42.884047	-84.391878	44.983098
15396	9.884650	-0.638673	0.686061	0.024474	0.022881	0.116249	1.000000	0.000033	0.000025	0.000026	-42.889177	-84.388184	44.991665
15397	9.884476	-0.633792	0.662727	0.046141	0.028614	0.114085	1.000000	0.000017	0.000017	0.000040	-42.961865	-84.393402	45.067219
15398	9.864136	-0.618421	0.717242	-0.009799	0.041435	0.096714	1.000000	0.000027	0.000040	0.000035	-42.965025	-84.387828	45.073056
15399	9.884396	-0.640661	0.687864	0.021268	0.021724	0.116259	1.000000	0.000018	0.000033	0.000034	-42.990890	-84.389980	45.103059
15400	9.887895	-0.612226	0.670183	0.038511	0.051561	0.116577	1.000000	0.000018	0.000034	0.000027	-42.993249	-84.385636	45.107163
15401	9.884218	-0.641761	0.689400	0.020400	0.021215	0.116261	1.000000	0.000019	0.000049	0.000028	-42.982640	-84.384298	45.098443
15402	9.856215	-0.656739	0.661960	0.047057	0.005869	0.087425	1.000000	0.000018	0.000034	0.000027	-42.985069	-84.379957	45.102611
15403	9.887716	-0.619276	0.696509	0.012514	0.044107	0.118750	1.000000	0.000027	0.000049	0.000028	-43.009158	-84.383088	45.133555
15404	9.859801	-0.639820	0.692845	0.015668	0.022471	0.092075	1.000000	0.000011	0.000034	0.000035	-43.019923	-84.378248	45.145239
15405	9.883851	-0.644024	0.692536	0.017385	0.020339	0.116269	1.000000	0.000041	0.000024	0.000033	-43.055390	-84.378880	45.178977
15406	9.911603	-0.624553	0.697584	0.013827	0.042035	0.142944	1.000000	0.000010	0.000028	0.000018	-43.057700	-84.375791	45.182032
15407	9.859486	-0.635993	0.670813	0.036105	0.028081	0.089931	1.000000	0.000041	0.000031	0.000042	-43.124533	-84.379379	45.252189
15408	9.883626	-0.645668	0.694221	0.015097	0.019973	0.116273	1.000000	0.000025	0.000018	0.000025	-43.139209	-84.376659	45.269335
15409	9.883391	-0.635181	0.647262	0.061708	0.031627	0.111980	1.000000	0.000026	0.000041	0.000027	-43.103079	-84.376428	45.246525
15410	9.859329	-0.643009	0.696600	0.011792	0.020925	0.092084	1.000000	0.000019	0.000042	0.000020	-43.094639	-84.372110	45.239870
15411	9.859171	-0.637949	0.673588	0.034004	0.026776	0.089942	1.000000	0.000034	0.000033	0.000027	-43.123091	-84.374351	45.269437
15412	9.883220	-0.642016	0.673455	0.036472	0.024945	0.114135	1.000000	0.000034	0.000041	0.000027	-43.121277	-84.369679	45.271192
15413	9.859074	-0.644486	0.698832	0.010306	0.020004	0.092088	1.000000	0.000010	0.000026	0.000034	-43.105082	-84.366773	45.255536
15414	9.862686	-0.621469	0.704933	0.004007	0.043546	0.094574	1.000000	0.000026	0.000042	0.000020	-43.096279	-84.362535	45.249400
15415	9.879359	-0.672501	0.693856	0.018285	-0.005647	0.113795	1.000000	0.000025	0.000018	0.000025	-43.111413	-84.362553	45.262664
15416	9.886680	-0.625935	0.705210	0.005919	0.041416	0.118768	1.000000	0.000026	0.000034	0.000027	-43.115171	-84.358469	45.269042
15417	9.886531	-0.621025	0.682105	0.028052	0.047413	0.116632	1.000000	0.000026	0.000033	0.000034	-43.160817	-84.359810	45.313745
15418	9.862315	-0.618002	0.683680	0.025114	0.049307	0.092440	1.000000	0.000026	0.000034	0.000027	-43.165166	-84.355757	45.320673
15419	9.858597	-0.647411	0.702848	0.006841	0.019059	0.092092	1.000000	0.000034	0.000041	0.000020	-43.162411	-84.356034	45.321053
15420	9.882526	-0.640625	0.655062	0.056282	0.029805	0.112018	1.000000	0.000018	0.000025	0.000041	-43.187029	-84.351583	45.347391
15421	9.882510	-0.646580	0.679476	0.030777	0.023069	0.114159	1.000000	0.000034	0.000035	0.000011	-43.231535	-84.357879	45.396518
15422	9.858299	-0.643476	0.681054	0.027824	0.024966	0.089966	1.000000	0.000018	0.000032	0.000042	-43.251649	-84.352807	45.418384
15423	9.886044	-0.624199	0.686248	0.024253	0.046248	0.116648	1.000000	0.000026	0.000034	0.000027	-43.237237	-84.350199	45.404271
15424	9.885964	-0.624697	0.686944	0.023996	0.046284	0.116648	1.000000	0.000018	0.000034	0.000027	-43.242928	-84.346145	45.411625
15425	9.858050	-0.645176	0.683037	0.025674	0.024202	0.089974	1.000000	0.000033	0.000025	0.000033	-43.301881	-84.350214	45.474517
15426	9.885809	-0.625808	0.688166	0.022019	0.045891	0.116655	1.000000	0.000026	0.000034	0.000027	-43.307677	-84.346277	45.482845
15427	9.885727	-0.626441	0.688769	0.020138	0.045327	0.116661	1.000000	0.000025	0.000024	0.000041	-43.376112	-84.351041	45.557198
15428	9.861529	-0.623305	0.690185	0.017167	0.047228	0.092467	1.000000	0.000033	0.000027	0.000010	-43.373245	-84.348997	45.557648
15429	9.885585	-0.627393	0.689932	0.019114	0.045386	0.116663	1.000000	0.000018	0.000032	0.000042	-43.413375	-84.345846	45.586930
15430	9.857656	-0.647874	0.686172	0.022209	0.023779	0.089983	1.000000	0.000042	0.000041	0.000020	-43.406736	-84.341912	45.584509
15431	9.885454	-0.633835	0.715267	-0.006298	0.038997	0.118777	1.000000	0.000018	0.000034	0.000027	-43.462631	-84.344181	45.636177
15432	9.857452	-0.643405	0.663839	0.043782	0.029955	0.087878	1.000000	0.000026	0.000033	0.000034	-43.477317	-84.339802	45.653292
15433	9.885202	-0.624144	0.669115	0.038496	0.051183	0.114568	1.000000	0.000027	0.000040	0.000035	-43.534530	-84.343156	45.713738
15434	9.888834	-0.601190	0.675187	0.032107	0.074751	0.117052	1.000000	0.000025	0.000026	0.000026	-43.548276	-84.340072	45.729832
15435	9.885072	-0.630656	0.694293	0.013661	0.044366	0.116677	1.000000	0.000026	0.000041	0.000027	-43.553913	-84.340998	45.742137
15436	9.857097	-0.645773	0.666798	0.040232	0.029046	0.087896	1.000000	0.000019	0.000040	0.000043	-43.571641	-84.335433	45.761502
15437	9.884862	-0.626503	0.671928	0.034822	0.050234	0.114586	1.000000	0.000032	0.000018	0.000025	-43.640562	-84.342051	45.835681
15438	9.884796	-0.627053	0.672390	0.034474	0.050282	0.114587	1.000000	0.000010	0.000026	0.000034	-43.663260	-84.338416	45.859017
15439	9.860603	-0.629529	0.697720	0.006818	0.045438	0.092488	1.000000	0.000034	0.000040	0.000035	-43.703048	-84.340247	45.901398
15440	9.860484	-0.624791	0.674662	0.029957	0.051768	0.090398	1.000000	0.000034	0.000031	0.000042	-43.726287	-84.335607	45.927980
15441	9.888245	-0.605603	0.679859	0.024676	0.072679	0.117089	1.000000	0.000026	0.000033	0.000034	-43.774459	-84.340803	45.985811
15442	9.884439	-0.629692	0.675167	0.030366	0.049206	0.114606	1.000000	0.000026	0.000034	0.000027	-43.784671	-84.337255	45.998464
15443	9.884351	-0.630340	0.675846	0.028800	0.049045	0.114611	1.000000	0.000018	0.000032	0.000042	-43.852374	-84.338234	46.059029
15444	9.884291	-0.636279	0.700267	0.004908	0.042813	0.116692	1.000000	0.000018	0.000028	0.000011	-43.855179	-84.336413	46.063227
15445	9.887931	-0.607799	0.682463	0.021460	0.072022	0.117101	1.000000	0.000034	0.000031	0.000042	-43.874330	-84.336522	46.088204
15446	9.859988	-0.628331	0.678606	0.024492	0.050426	0.090420	1.000000	0.000018	0.000034	0.000027	-43.885833	-84.332965	46.101229
15447	9.859914	-0.634328	0.703091	-0.000665	0.043965	0.092497	1.000000	0.000041	0.000032	0.000034	-43.947778	-84.335108	46.160579
15448	9.883947	-0.638597	0.703004	0.001562	0.042142	0.116696	1.000000	0.000026	0.000040	0.000035	-43.961014	-84.330412	46.176235
15449	9.883852	-0.633729	0.679964	0.023752	0.047519	0.114632	1.000000	0.000034	0.000033	0.000027	-43.971265	-84.334628	46.200889
15450	9.887501	-0.621636	0.733697	-0.029736	0.058517	0.121250	1.000000	0.000034	0.000040	0.000035	-43.984090	-84.330053	46.217080
15451	9.859548	-0.625786	0.658514	0.042922	0.055707	0.088372	1.000000	0.000026	0.000034	0.000027	-44.031738	-84.330399	46.252809
15452	9.863208	-0.613690	0.712023	-0.010572	0.066726	0.094981	1.000000	0.000009	0.000019	0.000033	-44.063040	-84.327728	46.284641
15453	9.887266	-0.612531	0.687845	0.014593	0.070821	0.117122	1.000000	0.000025	0.000025	0.000033	-44.096781	-84.328136	46.315335
15454	9.859311	-0.627697	0.660246	0.041105	0.055509	0.088381	1.000000	0.000035	0.000046	0.000043	-44.112017	-84.322348	46.333904
15455	9.879603	-0.660868	0.678619	0.025064	0.023212	0.112163	1.000000	0.000018	0.000027	0.000018	-44.129581	-84.326141	46.356736
15456	9.886998	-0.619741	0.713772	-0.011003	0.064028	0.119184	1.000000	0.000026	0.000033	0.000034	-44.149435	-84.322245	46.378946
15457	9.903568	-0.665574	0.679108	0.026718	0.020934	0.136367	1.000000	0.000026	0.000034	0.000027	-44.145683	-84.321330	46.375260
15458	9.862725	-0.611713	0.692094	0.008927	0.071788	0.092932	1.000000	0.000025	0.000026	0.000026	-44.163975	-84.318656	46.395823
15459	9.862673	-0.606824	0.668748	0.031632	0.077455	0.090887	1.000000	0.000032	0.000017	0.000032	-44.182578	-84.320400	46.422003
15460	9.882964	-0.639980	0.686985	0.016364	0.045832	0.114655	1.000000	0.000019	0.000042	0.000028	-44.190494	-84.316300	46.431408
15461	9.862486	-0.613318	0.694079	0.006022	0.070613	0.092943	1.000000	0.000035	0.000048	0.000028	-44.217000	-84.319368	46.467009
15462	9.882795	-0.635583	0.664946	0.037749	0.051541	0.112617	1.000000	0.000018	0.000034	0.000027	-44.230747	-84.316007	46.482218
15463	9.882691	-0.641642	0.689355	0.013610	0.044676	0.114664	1.000000	0.000025	0.000024	0.000041	-44.245479	-84.315729	46.499963
15464	9.886361	-0.618745	0.695240	0.007093	0.068243	0.117149	1.000000	0.000025	0.000026	0.000026	-44.264111	-84.313123	46.520908
15465	9.858435	-0.633749	0.667497	0.032390	0.052132	0.088432	1.000000	0.000026	0.000033	0.000034	-44.303543	-84.317571	46.569897
15466	9.865858	-0.587268	0.678818	0.019791	0.099212	0.093402	1.000000	0.000018	0.000027	0.000026	-44.323047	-84.314968	46.590871
15467	9.862031	-0.611355	0.674073	0.024837	0.075254	0.090923	1.000000	0.000026	0.000033	0.000034	-44.348188	-84.315494	46.615313
15468	9.882315	-0.639123	0.668678	0.033032	0.049896	0.112642	1.000000	0.000019	0.000042	0.000028	-44.356997	-84.311532	46.625662
15469	9.889694	-0.598080	0.704027	-0.004140	0.090351	0.119644	1.000000	0.000026	0.000040	0.000035	-44.404284	-84.312840	46.668623
15470	9.882087	-0.645842	0.694067	0.007510	0.043364	0.114677	1.000000	0.000034	0.000031	0.000042	-44.431885	-84.308629	46.699519
15471	9.857947	-0.631933	0.648012	0.050097	0.057602	0.086431	1.000000	0.000011	0.000043	0.000020	-44.483637	-84.311651	46.745363
15472	9.885748	-0.612520	0.653346	0.046129	0.079285	0.113119	1.000000	0.000026	0.000034	0.000027	-44.498537	-84.308494	46.762565
15473	9.857743	-0.638284	0.673367	0.025309	0.050760	0.088460	1.000000	0.000019	0.000042	0.000028	-44.494120	-84.308640	46.761960
15474	9.881778	-0.642606	0.673254	0.027398	0.048921	0.112664	1.000000	0.000025	0.000024	0.000041	-44.528333	-84.305098	46.798513
15475	9.885461	-0.619716	0.679131	0.020508	0.072402	0.115149	1.000000	0.000018	0.000027	0.000026	-44.560952	-84.304305	46.819518
15476	9.881576	-0.649195	0.698203	0.002560	0.042672	0.114682	1.000000	0.000041	0.000031	0.000034	-44.582006	-84.300714	46.844612
15477	9.885253	-0.626232	0.704234	-0.005563	0.065968	0.117165	1.000000	0.000018	0.000034	0.000027	-44.653874	-84.304917	46.915538
15478	9.881388	-0.650425	0.699720	-0.000015	0.042509	0.114683	1.000000	0.000019	0.000047	0.000044	-44.673045	-84.299278	46.936185
15479	9.885163	-0.616756	0.658200	0.039961	0.078345	0.113154	1.000000	0.000025	0.000026	0.000026	-44.704746	-84.299918	46.961432
15480	9.881265	-0.646171	0.677361	0.021990	0.048626	0.112679	1.000000	0.000026	0.000041	0.000028	-44.715354	-84.296108	46.974249
15481	9.857063	-0.642984	0.678835	0.018501	0.049871	0.088479	1.000000	0.000018	0.000027	0.000026	-44.726455	-84.298241	46.991173
15482	9.881110	-0.647160	0.678679	0.020551	0.048040	0.112685	1.000000	0.000026	0.000034	0.000027	-44.742574	-84.295133	47.009478
15483	9.860726	-0.615060	0.661829	0.034785	0.079506	0.088964	1.000000	0.000027	0.000049	0.000028	-44.743924	-84.292404	47.003702
15484	9.905042	-0.651879	0.679674	0.021929	0.046002	0.136894	1.000000	0.000019	0.000042	0.000028	-44.755195	-84.288544	47.016283
15485	9.888311	-0.607110	0.715622	-0.016227	0.088194	0.119651	1.000000	0.000025	0.000025	0.000033	-44.739171	-84.285792	46.999002
15486	9.856626	-0.645711	0.682581	0.016315	0.049367	0.088486	1.000000	0.000026	0.000040	0.000035	-44.756538	-84.281423	47.018590
15487	9.884360	-0.631847	0.711723	-0.011019	0.064093	0.117173	1.000000	0.000026	0.000033	0.000027	-44.736454	-84.280536	47.005196
15488	9.860221	-0.623401	0.689355	0.009430	0.072312	0.090972	1.000000	0.000026	0.000032	0.000042	-44.765915	-84.276298	47.036884
15489	9.880473	-0.651263	0.684007	0.016488	0.046391	0.112701	1.000000	0.000034	0.000040	0.000027	-44.797717	-84.279047	47.074889
15490	9.884087	-0.633627	0.713924	-0.013593	0.063717	0.117172	1.000000	0.000018	0.000034	0.000027	-44.814271	-84.275872	47.092724
15491	9.884091	-0.628580	0.690823	0.008986	0.069614	0.115186	1.000000	0.000034	0.000035	0.000011	-44.817373	-84.277362	47.096755
15492	9.884015	-0.629003	0.691528	0.008468	0.069679	0.115186	1.000000	0.000011	0.000034	0.000035	-44.841426	-84.273589	47.121226
15493	9.859882	-0.620652	0.669143	0.027293	0.077046	0.089007	1.000000	0.000018	0.000032	0.000042	-44.906924	-84.279375	47.198379
15494	9.880063	-0.653901	0.687399	0.011846	0.045425	0.112712	1.000000	0.000017	0.000019	0.000025	-44.935037	-84.277636	47.227709
15495	9.863524	-0.598167	0.675552	0.019300	0.100134	0.091498	1.000000	0.000034	0.000034	0.000019	-44.960014	-84.281015	47.256765
15496	9.907813	-0.634978	0.693301	0.006379	0.066611	0.139405	1.000000	0.000026	0.000040	0.000035	-44.978259	-84.276770	47.277261
15497	9.859480	-0.628211	0.695554	0.000445	0.069640	0.090996	1.000000	0.000026	0.000033	0.000034	-44.982414	-84.277983	47.291385
15498	9.883510	-0.632561	0.695483	0.002439	0.067796	0.115203	1.000000	0.000026	0.000033	0.000034	-45.006095	-84.274438	47.317305
15499	9.859490	-0.618588	0.649368	0.046419	0.082015	0.087060	1.000000	0.000034	0.000041	0.000020	-44.999306	-84.272418	47.304369
15500	9.883340	-0.633620	0.696939	0.001380	0.067650	0.115204	1.000000	0.000018	0.000025	0.000041	-45.035850	-84.268933	47.342229
15501	9.883361	-0.628729	0.673744	0.023855	0.073000	0.113246	1.000000	0.000034	0.000035	0.000011	-45.020889	-84.273141	47.342986
15502	9.883185	-0.634594	0.698254	-0.000204	0.066791	0.115210	1.000000	0.000018	0.000032	0.000042	-45.051890	-84.269006	47.375391
15503	9.886886	-0.611785	0.704172	-0.007092	0.089835	0.117697	1.000000	0.000025	0.000025	0.000033	-45.072383	-84.269526	47.398894
15504	9.883119	-0.630496	0.675645	0.021937	0.072637	0.113253	1.000000	0.000026	0.000033	0.000027	-45.089273	-84.266548	47.417995
15505	9.883041	-0.631062	0.676258	0.021515	0.072030	0.113259	1.000000	0.000018	0.000026	0.000034	-45.087599	-84.265973	47.418508
15506	9.862423	-0.615120	0.730629	-0.034641	0.084980	0.095449	1.000000	0.000034	0.000040	0.000027	-45.098352	-84.262371	47.432403
15507	9.879080	-0.655726	0.672313	0.024916	0.047914	0.110784	1.000000	0.000010	0.000026	0.000034	-45.168122	-84.268598	47.504159
15508	9.882906	-0.627271	0.654521	0.041814	0.077751	0.111319	1.000000	0.000019	0.000043	0.000012	-45.166717	-84.266040	47.504088
15509	9.858606	-0.629322	0.679768	0.014359	0.073035	0.089065	1.000000	0.000041	0.000024	0.000033	-45.216996	-84.268551	47.551474
15510	9.886310	-0.615608	0.708917	-0.013268	0.088437	0.117703	1.000000	0.000019	0.000048	0.000044	-45.237602	-84.263138	47.573568
15511	9.882541	-0.634341	0.680471	0.014897	0.070692	0.113280	1.000000	0.000025	0.000019	0.000017	-45.274649	-84.267772	47.611964
15512	9.886277	-0.611292	0.686256	0.008267	0.094265	0.115764	1.000000	0.000018	0.000026	0.000034	-45.305269	-84.264968	47.643912
15513	9.858284	-0.631648	0.682275	0.000934	-0.001134	0.089344	1.000000	0.000026	0.000033	0.000027	-42.703670	-84.615502	44.586544
15514	9.858080	-0.637580	0.706779	-0.023300	-0.007784	0.091210	1.000000	0.000018	0.000033	0.000034	-42.708726	-84.615070	44.590856
15515	9.886018	-0.613174	0.688302	-0.003714	0.019139	0.116196	1.000000	0.000011	0.000041	0.000043	-42.711226	-84.613111	44.593010
15516	9.882241	-0.632078	0.659918	0.025058	0.001102	0.111680	1.000000	0.000026	0.000033	0.000034	-42.715789	-84.612738	44.597707
15517	9.885858	-0.614307	0.689599	-0.005050	0.017978	0.116197	1.000000	0.000032	0.000019	0.000010	-42.707670	-84.615505	44.592904
15518	9.857859	-0.634569	0.685694	-0.002304	-0.004021	0.089344	1.000000	0.000035	0.000046	0.000043	-42.708129	-84.613266	44.594495
15519	9.885685	-0.615374	0.691128	-0.006203	0.016788	0.116199	1.000000	0.000011	0.000036	0.000019	-42.688754	-84.613299	44.578263
15520	9.881807	-0.639319	0.686450	-0.001004	-0.007330	0.113540	1.000000	0.000025	0.000026	0.000026	-42.691377	-84.614147	44.580945
15521	9.881738	-0.639801	0.686996	-0.001711	-0.007953	0.113540	1.000000	0.000018	0.000027	0.000026	-42.693959	-84.615333	44.595553
15522	9.861352	-0.613030	0.693704	-0.010692	0.017151	0.092002	1.000000	0.000026	0.000041	0.000028	-42.685480	-84.614777	44.587221
15523	9.885522	-0.611849	0.669956	0.014631	0.020556	0.114352	1.000000	0.000026	0.000034	0.000019	-42.677457	-84.615519	44.566905
15524	9.857253	-0.642813	0.713540	-0.029765	-0.013587	0.091186	1.000000	0.000009	0.000019	0.000033	-42.694109	-84.616432	44.581844
15525	9.881562	-0.636498	0.665800	0.019284	-0.004137	0.111692	1.000000	0.000042	0.000039	0.000035	-42.686812	-84.614973	44.567668
15526	9.881325	-0.642551	0.690363	-0.004958	-0.010776	0.113536	1.000000	0.000034	0.000031	0.000042	-42.698384	-84.614137	44.580284
15527	9.861090	-0.610494	0.673153	0.009639	0.020434	0.090161	1.000000	0.000010	0.000028	0.000018	-42.696924	-84.615385	44.559081
15528	9.885134	-0.614669	0.673086	0.011412	0.017732	0.114361	1.000000	0.000026	0.000033	0.000027	-42.693998	-84.615531	44.556257
15529	9.856973	-0.640287	0.693071	-0.009244	-0.010362	0.089335	1.000000	0.000019	0.000042	0.000028	-42.676189	-84.614384	44.537926
15530	9.884811	-0.621032	0.698523	-0.013319	0.010487	0.116201	1.000000	0.000026	0.000041	0.000028	-42.667713	-84.613828	44.529598
15531	9.881056	-0.639863	0.670081	0.015492	-0.007575	0.111697	1.000000	0.000018	0.000025	0.000041	-42.683644	-84.613322	44.531465
15532	9.880958	-0.640595	0.670828	0.014826	-0.008144	0.111697	1.000000	0.000027	0.000048	0.000036	-42.677112	-84.611545	44.525156
15533	9.860427	-0.619208	0.701318	-0.017568	0.010889	0.092001	1.000000	0.000032	0.000018	0.000025	-42.677719	-84.612850	44.532228
15534	9.856692	-0.637809	0.672826	0.011186	-0.007181	0.087500	1.000000	0.000011	0.000043	0.000020	-42.662723	-84.612697	44.515591
15535	9.880720	-0.642078	0.672914	0.013005	-0.009962	0.111698	1.000000	0.000034	0.000032	0.000034	-42.661277	-84.612451	44.536298
15536	9.860347	-0.615349	0.679573	0.004072	0.015169	0.090175	1.000000	0.000026	0.000033	0.000027	-42.658354	-84.612596	44.533477
15537	9.860268	-0.615772	0.680349	0.003224	0.014554	0.090176	1.000000	0.000027	0.000042	0.000020	-42.647985	-84.613497	44.542146
15538	9.884134	-0.625303	0.704274	-0.018597	0.005775	0.116196	1.000000	0.000018	0.000034	0.000027	-42.645545	-84.613584	44.538930
15539	9.880406	-0.643972	0.675703	0.010052	-0.012321	0.111699	1.000000	0.000032	0.000018	0.000025	-42.656486	-84.615837	44.564282
15540	9.904612	-0.642897	0.651825	0.035382	-0.008976	0.134081	1.000000	0.000019	0.000042	0.000028	-42.648495	-84.615222	44.555559
15541	9.880256	-0.644879	0.677027	0.008670	-0.013436	0.111699	1.000000	0.000025	0.000027	0.000018	-42.646790	-84.616679	44.539036
15542	9.859729	-0.623250	0.707522	-0.023835	0.005644	0.091993	1.000000	0.000027	0.000042	0.000020	-42.630816	-84.616642	44.523179
15543	9.883924	-0.622277	0.683790	0.001549	0.008988	0.114380	1.000000	0.000018	0.000032	0.000042	-42.641500	-84.615432	44.520473
15544	9.855719	-0.647993	0.703672	-0.019271	-0.019026	0.089308	1.000000	0.000034	0.000033	0.000027	-42.638097	-84.615636	44.518051
15545	9.883763	-0.623397	0.685086	0.000230	0.007821	0.114381	1.000000	0.000025	0.000026	0.000026	-42.638891	-84.616553	44.525181
15546	9.859389	-0.625508	0.710260	-0.026424	0.003363	0.091987	1.000000	0.000026	0.000040	0.000035	-42.637917	-84.615477	44.524385
15547	9.907711	-0.628242	0.685807	0.001253	0.004506	0.138580	1.000000	0.000018	0.000027	0.000018	-42.635084	-84.617057	44.523648
15548	9.859404	-0.621186	0.687896	-0.004219	0.008265	0.090183	1.000000	0.000027	0.000048	0.000036	-42.628563	-84.615279	44.517349
15549	9.879411	-0.654373	0.706468	-0.020323	-0.024098	0.113493	1.000000	0.000032	0.000018	0.000025	-42.639360	-84.617385	44.537212
15550	9.883540	-0.620702	0.664790	0.020339	0.010990	0.112586	1.000000	0.000019	0.000049	0.000028	-42.625815	-84.616068	44.522981
15551	9.859351	-0.617421	0.666140	0.017175	0.012562	0.088389	1.000000	0.000017	0.000019	0.000025	-42.637378	-84.618094	44.546078
15552	9.883395	-0.621684	0.666031	0.018909	0.009824	0.112590	1.000000	0.000034	0.000033	0.000027	-42.633981	-84.618298	44.543661
15553	9.854984	-0.652604	0.709668	-0.025389	-0.024243	0.089282	1.000000	0.000025	0.000025	0.000033	-42.639697	-84.618297	44.544621
15554	9.882852	-0.633431	0.714909	-0.029498	-0.003429	0.116171	1.000000	0.000018	0.000034	0.000027	-42.637252	-84.618384	44.541400
15555	9.907278	-0.627081	0.667225	0.019405	0.005930	0.136794	1.000000	0.000033	0.000025	0.000026	-42.639316	-84.619242	44.536995
15556	9.854944	-0.648887	0.687680	-0.003793	-0.019887	0.087488	1.000000	0.000026	0.000033	0.000034	-42.643897	-84.618867	44.541707
15557	9.858901	-0.620623	0.669812	0.013304	0.009116	0.088398	1.000000	0.000018	0.000034	0.000027	-42.639751	-84.619042	44.546390
15558	9.886353	-0.612167	0.722928	-0.037980	0.017827	0.118857	1.000000	0.000035	0.000046	0.000043	-42.640251	-84.616802	44.548019
15559	9.858920	-0.616553	0.647569	0.035520	0.014003	0.086622	1.000000	0.000010	0.000028	0.000018	-42.636862	-84.618341	44.552953
15560	9.882743	-0.626095	0.671539	0.013655	0.005203	0.112602	1.000000	0.000027	0.000049	0.000028	-42.622839	-84.617083	44.539123
15561	9.882243	-0.637206	0.719968	-0.034156	-0.007460	0.116153	1.000000	0.000025	0.000026	0.000026	-42.624232	-84.617825	44.534594
15562	9.882383	-0.632370	0.696681	-0.011235	-0.001983	0.114377	1.000000	0.000033	0.000025	0.000026	-42.626394	-84.618731	44.537692
15563	9.858417	-0.623741	0.674028	0.009319	0.005654	0.088406	1.000000	0.000018	0.000027	0.000026	-42.627968	-84.619581	44.544822
15564	9.882223	-0.633426	0.697989	-0.012555	-0.003146	0.114375	1.000000	0.000027	0.000048	0.000036	-42.621446	-84.617802	44.538521
15565	9.858020	-0.630270	0.699370	-0.015611	-0.001529	0.090175	1.000000	0.000025	0.000025	0.000033	-42.632072	-84.618212	44.547198
15566	9.882047	-0.634567	0.699437	-0.013902	-0.004287	0.114373	1.000000	0.000027	0.000042	0.000020	-42.616101	-84.618175	44.531345
15567	9.882180	-0.629774	0.676376	0.009059	0.001164	0.112608	1.000000	0.000018	0.000033	0.000034	-42.618522	-84.617683	44.537954
15568	9.878249	-0.653933	0.671640	0.014225	-0.022958	0.109903	1.000000	0.000025	0.000018	0.000033	-42.634215	-84.618712	44.553687
15569	9.861557	-0.608917	0.707159	-0.024141	0.019711	0.092876	1.000000	0.000026	0.000033	0.000027	-42.634011	-84.619259	44.562561
15570	9.905834	-0.640565	0.701349	-0.014239	-0.008800	0.138567	1.000000	0.000018	0.000034	0.000027	-42.631565	-84.619347	44.559338
15571	9.857761	-0.628229	0.679445	0.003943	0.001045	0.088411	1.000000	0.000011	0.000034	0.000034	-42.636524	-84.619001	44.571195
15572	9.881539	-0.637994	0.703487	-0.017946	-0.007767	0.114365	1.000000	0.000042	0.000047	0.000036	-42.629065	-84.617339	44.565715
15573	9.885553	-0.609586	0.685617	-0.000881	0.021249	0.115322	1.000000	0.000017	0.000021	0.000010	-42.623316	-84.620016	44.562242
15574	9.877774	-0.657038	0.675576	0.010121	-0.026423	0.109899	1.000000	0.000025	0.000025	0.000033	-42.633463	-84.620343	44.572474
15575	9.885407	-0.610561	0.686856	-0.002203	0.020115	0.115324	1.000000	0.000027	0.000049	0.000028	-42.619417	-84.619051	44.554000
15576	9.857114	-0.636128	0.706801	-0.022985	-0.007841	0.090157	1.000000	0.000025	0.000025	0.000033	-42.629563	-84.619378	44.564231
15577	9.861135	-0.607878	0.688835	-0.005938	0.021195	0.091126	1.000000	0.000018	0.000034	0.000027	-42.629952	-84.619642	44.557953
15578	9.857432	-0.626616	0.660439	0.022817	0.003110	0.086669	1.000000	0.000026	0.000033	0.000027	-42.627040	-84.619787	44.555143
15579	9.881212	-0.636219	0.684436	0.000921	-0.005716	0.112611	1.000000	0.000034	0.000040	0.000027	-42.617129	-84.619307	44.548302
15580	9.856768	-0.638454	0.709531	-0.025686	-0.010108	0.090149	1.000000	0.000033	0.000022	0.000056	-42.649311	-84.618131	44.581534
15581	9.881014	-0.637873	0.685750	-0.000370	-0.006859	0.112610	1.000000	0.000011	0.000041	0.000035	-42.647312	-84.616792	44.575178
15582	9.885039	-0.609586	0.668015	0.016738	0.022157	0.113594	1.000000	0.000027	0.000042	0.000020	-42.631351	-84.616756	44.559335
15583	9.904702	-0.647989	0.710456	-0.023051	-0.016258	0.138542	1.000000	0.000025	0.000018	0.000033	-42.650921	-84.618252	44.585921
15584	9.860536	-0.612082	0.693675	-0.010630	0.017192	0.091130	1.000000	0.000019	0.000042	0.000028	-42.642918	-84.617638	44.577186
15585	9.856827	-0.630911	0.665349	0.018187	-0.000928	0.086679	1.000000	0.000026	0.000033	0.000034	-42.643251	-84.617133	44.587515
15586	9.884462	-0.617145	0.694521	-0.009555	0.013802	0.115330	1.000000	0.000018	0.000033	0.000034	-42.648303	-84.616700	44.591818
15587	9.880508	-0.641163	0.689967	-0.004331	-0.010333	0.112606	1.000000	0.000034	0.000034	0.000019	-42.633981	-84.617215	44.577675
15588	9.880427	-0.641661	0.690663	-0.004997	-0.010902	0.112605	1.000000	0.000011	0.000034	0.000034	-42.639494	-84.616724	44.581561
15589	9.884210	-0.618858	0.696581	-0.011458	0.012061	0.115331	1.000000	0.000033	0.000031	0.000042	-42.649155	-84.615859	44.597308
15590	9.855889	-0.644365	0.716365	-0.032228	-0.015865	0.090122	1.000000	0.000025	0.000027	0.000018	-42.644314	-84.617227	44.592494
15591	9.908161	-0.623739	0.697227	-0.010475	0.008698	0.139531	1.000000	0.000026	0.000033	0.000034	-42.649779	-84.616928	44.595952
15592	9.883974	-0.620467	0.698496	-0.013470	0.010356	0.115330	1.000000	0.000018	0.000034	0.000027	-42.647334	-84.617015	44.592730
15593	9.859530	-0.622371	0.723532	-0.040069	0.006017	0.092843	1.000000	0.000033	0.000025	0.000026	-42.650858	-84.617897	44.585607
15594	9.852225	-0.659442	0.665981	0.018087	-0.029615	0.083955	1.000000	0.000026	0.000033	0.000034	-42.655449	-84.617522	44.590328
15595	9.884000	-0.616888	0.676639	0.008183	0.014710	0.113619	1.000000	0.000026	0.000040	0.000035	-42.653002	-84.616138	44.571330
15596	9.883925	-0.617311	0.677343	0.007519	0.014140	0.113620	1.000000	0.000018	0.000028	0.000011	-42.641125	-84.617968	44.558573
15597	9.879692	-0.646585	0.696561	-0.010869	-0.016021	0.112594	1.000000	0.000033	0.000031	0.000042	-42.648518	-84.616924	44.572710
15598	9.859665	-0.614584	0.679209	0.003944	0.015217	0.089422	1.000000	0.000018	0.000034	0.000027	-42.646071	-84.617011	44.569486
15599	9.859587	-0.615069	0.679900	0.003286	0.014649	0.089423	1.000000	0.000041	0.000032	0.000027	-42.642075	-84.617263	44.563851
15600	9.880008	-0.637666	0.650873	0.034339	-0.005709	0.109188	1.000000	0.000025	0.000026	0.000026	-42.644731	-84.618109	44.566563
15601	9.875765	-0.666930	0.670097	0.015888	-0.035853	0.108150	1.000000	0.000034	0.000033	0.000027	-42.640209	-84.618284	44.563960
15602	9.883175	-0.625626	0.705174	-0.019978	0.004684	0.115323	1.000000	0.000026	0.000041	0.000028	-42.631744	-84.617728	44.555642
15603	9.883084	-0.626193	0.705934	-0.020589	0.004129	0.115322	1.000000	0.000033	0.000032	0.000034	-42.633989	-84.617159	44.547192
15604	9.879690	-0.639773	0.653633	0.031746	-0.007997	0.109195	1.000000	0.000018	0.000027	0.000026	-42.637098	-84.617948	44.549477
15605	9.883510	-0.616743	0.659485	0.025380	0.014986	0.111938	1.000000	0.000018	0.000034	0.000027	-42.630872	-84.617676	44.532921
15606	9.858728	-0.624051	0.708553	-0.024801	0.004680	0.091118	1.000000	0.000019	0.000048	0.000044	-42.632293	-84.615319	44.533713
15607	9.883031	-0.623241	0.684917	0.000440	0.007860	0.113630	1.000000	0.000033	0.000026	0.000018	-42.627474	-84.616741	44.522521
15608	9.879072	-0.647163	0.680240	0.005556	-0.016269	0.110886	1.000000	0.000025	0.000026	0.000026	-42.630129	-84.617587	44.525231
15609	9.906994	-0.627990	0.685536	0.001447	0.004451	0.137832	1.000000	0.000026	0.000033	0.000027	-42.624902	-84.617634	44.524051
15610	9.858721	-0.620740	0.687256	-0.003813	0.008397	0.089431	1.000000	0.000018	0.000027	0.000026	-42.628009	-84.618422	44.526334
15611	9.862541	-0.597709	0.693175	-0.010274	0.031409	0.092178	1.000000	0.000026	0.000041	0.000028	-42.621412	-84.617905	44.506319
15612	9.902859	-0.653008	0.682328	0.005194	-0.020804	0.135084	1.000000	0.000018	0.000027	0.000026	-42.624518	-84.618694	44.508602
15613	9.882891	-0.620775	0.664957	0.020094	0.010427	0.111956	1.000000	0.000042	0.000041	0.000020	-42.606788	-84.618702	44.487781
15614	9.862613	-0.593729	0.671581	0.011372	0.035685	0.090508	1.000000	0.000011	0.000043	0.000020	-42.591725	-84.618550	44.471080
15615	9.878515	-0.650407	0.685209	0.000895	-0.020257	0.110880	1.000000	0.000033	0.000032	0.000034	-42.596638	-84.618370	44.479443
15616	9.882334	-0.627441	0.691116	-0.005539	0.002737	0.113631	1.000000	0.000026	0.000033	0.000027	-42.593734	-84.618515	44.476640
15617	9.906352	-0.631812	0.691274	-0.003972	-0.000110	0.137832	1.000000	0.000026	0.000033	0.000027	-42.592603	-84.618908	44.482503
15618	9.858382	-0.619389	0.669261	0.014410	0.009836	0.087764	1.000000	0.000026	0.000040	0.000035	-42.591643	-84.617831	44.481717
15619	9.882074	-0.629082	0.693333	-0.007603	0.001013	0.113630	1.000000	0.000026	0.000033	0.000027	-42.589084	-84.618083	44.481988
15620	9.882307	-0.624353	0.670259	0.015344	0.006419	0.111968	1.000000	0.000019	0.000042	0.000028	-42.581074	-84.617468	44.473247
15621	9.881889	-0.630114	0.695026	-0.008925	-0.000136	0.113629	1.000000	0.000019	0.000049	0.000028	-42.566624	-84.616161	44.459705
15622	9.882121	-0.625401	0.672028	0.014023	0.005270	0.111971	1.000000	0.000018	0.000034	0.000027	-42.564172	-84.616247	44.456475
15623	9.881382	-0.636506	0.720396	-0.033890	-0.007272	0.115284	1.000000	0.000033	0.000031	0.000042	-42.575840	-84.615580	44.481398
15624	9.881943	-0.626763	0.673376	0.012671	0.004114	0.111973	1.000000	0.000018	0.000033	0.000034	-42.580886	-84.615147	44.485693
15625	9.881865	-0.627329	0.673988	0.011981	0.003550	0.111974	1.000000	0.000025	0.000026	0.000026	-42.584989	-84.616067	44.481092
15626	9.881788	-0.627889	0.674599	0.011316	0.002981	0.111975	1.000000	0.000026	0.000033	0.000034	-42.589589	-84.615692	44.485820
15627	9.856933	-0.635084	0.723558	-0.038859	-0.007238	0.091071	1.000000	0.000042	0.000039	0.000035	-42.588290	-84.614770	44.480262
15628	9.861434	-0.601665	0.681759	0.001950	0.027692	0.090540	1.000000	0.000018	0.000027	0.000026	-42.591393	-84.615559	44.482540
15629	9.877622	-0.653115	0.671447	0.015052	-0.022306	0.109212	1.000000	0.000018	0.000034	0.000027	-42.588956	-84.615813	44.491372
15630	9.881101	-0.635467	0.701331	-0.014993	-0.005281	0.113621	1.000000	0.000035	0.000046	0.000043	-42.589499	-84.613571	44.493040
15631	9.853673	-0.645234	0.649775	0.035102	-0.015196	0.083370	1.000000	0.000018	0.000035	0.000019	-42.578091	-84.614107	44.479191
15632	9.856842	-0.632486	0.703312	-0.018557	-0.004134	0.089417	1.000000	0.000025	0.000027	0.000018	-42.573255	-84.615474	44.474382
15633	9.885133	-0.608117	0.684707	0.000869	0.022521	0.114749	1.000000	0.000025	0.000025	0.000033	-42.583717	-84.615944	44.493874
15634	9.909151	-0.612582	0.684813	0.002460	0.019659	0.138951	1.000000	0.000026	0.000033	0.000027	-42.580824	-84.616089	44.491082
15635	9.853377	-0.647187	0.652325	0.032414	-0.017495	0.083375	1.000000	0.000026	0.000040	0.000035	-42.579582	-84.615176	44.503880
15636	9.884524	-0.615044	0.710760	-0.024762	0.014820	0.116383	1.000000	0.000034	0.000040	0.000027	-42.570696	-84.614677	44.496020
15637	9.880878	-0.633830	0.682326	0.003940	-0.003345	0.111981	1.000000	0.000032	0.000018	0.000025	-42.578846	-84.616366	44.505245
15638	9.881155	-0.629246	0.659006	0.026892	0.002055	0.110354	1.000000	0.000018	0.000032	0.000042	-42.591385	-84.615411	44.517060
15639	9.884292	-0.616638	0.712598	-0.026789	0.013115	0.116380	1.000000	0.000026	0.000035	0.000011	-42.574438	-84.616675	44.494435
15640	9.856547	-0.631467	0.684821	-0.000321	-0.002748	0.087779	1.000000	0.000026	0.000040	0.000035	-42.573488	-84.615598	44.493658
15641	9.860386	-0.608518	0.690779	-0.006715	0.020246	0.090556	1.000000	0.000018	0.000034	0.000027	-42.569875	-84.615589	44.482273
15642	9.904920	-0.635244	0.661440	0.026479	-0.002537	0.134562	1.000000	0.000026	0.000033	0.000034	-42.574481	-84.615213	44.487006
15643	9.884305	-0.613798	0.691563	-0.005788	0.016797	0.114758	1.000000	0.000017	0.000024	0.000049	-42.599175	-84.614416	44.509249
15644	9.880654	-0.632700	0.663206	0.022920	-0.001379	0.110364	1.000000	0.000019	0.000043	0.000012	-42.576182	-84.614843	44.485470
15645	9.860054	-0.610867	0.693436	-0.009354	0.017965	0.090558	1.000000	0.000040	0.000024	0.000033	-42.585340	-84.615316	44.493490
15646	9.884058	-0.615356	0.693711	-0.007783	0.015086	0.114760	1.000000	0.000019	0.000049	0.000028	-42.571776	-84.614000	44.479241
15647	9.879660	-0.644667	0.713131	-0.026322	-0.014997	0.113587	1.000000	0.000025	0.000025	0.000033	-42.581756	-84.614324	44.482538
15648	9.883886	-0.616572	0.695075	-0.009109	0.013949	0.114760	1.000000	0.000026	0.000033	0.000034	-42.586360	-84.613947	44.487270
15649	9.875920	-0.664210	0.685456	0.001782	-0.033762	0.109191	1.000000	0.000019	0.000042	0.000028	-42.574595	-84.613078	44.466667
15650	9.856059	-0.632122	0.667957	0.016775	-0.002504	0.086169	1.000000	0.000033	0.000024	0.000033	-42.584320	-84.613461	44.477350
15651	9.880071	-0.636748	0.668001	0.018330	-0.005396	0.110372	1.000000	0.000025	0.000024	0.000041	-42.602064	-84.613303	44.492011
15652	9.883933	-0.613718	0.673884	0.011929	0.017601	0.113160	1.000000	0.000019	0.000043	0.000012	-42.579072	-84.613731	44.468236
15653	9.855039	-0.644218	0.717790	-0.032506	-0.016087	0.089368	1.000000	0.000035	0.000046	0.000043	-42.580854	-84.611614	44.468737
15654	9.883367	-0.620070	0.699333	-0.013056	0.010526	0.114760	1.000000	0.000017	0.000019	0.000025	-42.589512	-84.613103	44.476523
15655	9.879740	-0.638890	0.670840	0.015645	-0.007683	0.110375	1.000000	0.000026	0.000033	0.000027	-42.585975	-84.613251	44.472155
15656	9.859122	-0.617114	0.701111	-0.016595	0.011710	0.090558	1.000000	0.000026	0.000041	0.000028	-42.577534	-84.612694	44.463861
15657	9.879181	-0.645147	0.696150	-0.009287	-0.014776	0.111967	1.000000	0.000025	0.000025	0.000033	-42.585637	-84.613001	44.481485
15658	9.883451	-0.616907	0.678023	0.007943	0.014158	0.113170	1.000000	0.000025	0.000027	0.000018	-42.580818	-84.614368	44.476694
15659	9.854950	-0.642024	0.697865	-0.012884	-0.013577	0.087762	1.000000	0.000027	0.000042	0.000020	-42.567347	-84.614543	44.462275
15660	9.883694	-0.612637	0.655567	0.030189	0.018955	0.111588	1.000000	0.000017	0.000025	0.000041	-42.585435	-84.614289	44.479589
15661	9.883207	-0.618547	0.680091	0.005867	0.012443	0.113173	1.000000	0.000026	0.000040	0.000035	-42.585085	-84.613367	44.487997
15662	9.879166	-0.642658	0.675675	0.010934	-0.011693	0.110377	1.000000	0.000018	0.000034	0.000027	-42.582632	-84.613454	44.484766
15663	9.882235	-0.629992	0.729257	-0.042692	-0.000561	0.116333	1.000000	0.000026	0.000033	0.000027	-42.578273	-84.613501	44.473559
15664	9.854909	-0.639850	0.677499	0.007427	-0.010498	0.086176	1.000000	0.000026	0.000032	0.000042	-42.590370	-84.612603	44.485808
15665	9.883265	-0.615741	0.659124	0.026843	0.016081	0.111602	1.000000	0.000026	0.000041	0.000028	-42.582316	-84.612198	44.488588
15666	9.882774	-0.621421	0.683748	0.002548	0.009579	0.113178	1.000000	0.000026	0.000033	0.000027	-42.579438	-84.612343	44.485809
15667	9.882687	-0.622058	0.684424	0.001885	0.009000	0.113179	1.000000	0.000033	0.000031	0.000042	-42.590598	-84.611538	44.499971
15668	9.858115	-0.623764	0.709341	-0.024607	0.004846	0.090547	1.000000	0.000018	0.000028	0.000011	-42.578728	-84.613368	44.487223
15669	9.882528	-0.623055	0.685815	0.000567	0.007856	0.113180	1.000000	0.000019	0.000048	0.000044	-42.579358	-84.610988	44.482297
15670	9.878884	-0.641995	0.657697	0.029258	-0.010354	0.108810	1.000000	0.000042	0.000041	0.000020	-42.562588	-84.611069	44.467405
15671	9.854305	-0.643620	0.682692	0.002762	-0.014510	0.086173	1.000000	0.000018	0.000027	0.000026	-42.565582	-84.611940	44.474647
15672	9.882279	-0.624541	0.688046	-0.001437	0.006139	0.113181	1.000000	0.000026	0.000033	0.000027	-42.562705	-84.612085	44.471869
15673	9.858115	-0.621139	0.689090	-0.004279	0.007921	0.088979	1.000000	0.000025	0.000025	0.000034	-42.572372	-84.612381	44.475788
15674	9.906204	-0.629631	0.688911	-0.000573	0.002645	0.137383	1.000000	0.000026	0.000041	0.000028	-42.563939	-84.611824	44.467502
15675	9.858375	-0.616961	0.666692	0.018073	0.012692	0.087424	1.000000	0.000026	0.000034	0.000019	-42.551023	-84.612367	44.452744
15676	9.881946	-0.626673	0.690883	-0.004044	0.003848	0.113181	1.000000	0.000019	0.000040	0.000043	-42.557993	-84.610710	44.459034
15677	9.881872	-0.627158	0.691502	-0.004714	0.003271	0.113181	1.000000	0.000032	0.000019	0.000010	-42.550654	-84.613413	44.454525
15678	9.877834	-0.651029	0.687048	0.000337	-0.020866	0.110368	1.000000	0.000019	0.000049	0.000028	-42.537091	-84.612097	44.440277
15679	9.885667	-0.604572	0.698290	-0.011764	0.025699	0.115995	1.000000	0.000019	0.000041	0.000035	-42.536673	-84.611005	44.436702
15680	9.881608	-0.628682	0.693889	-0.006716	0.001562	0.113181	1.000000	0.000026	0.000033	0.000027	-42.533798	-84.611149	44.433926
15681	9.881961	-0.624089	0.670716	0.016236	0.006899	0.111636	1.000000	0.000026	0.000033	0.000034	-42.538879	-84.610883	44.442101
15682	9.881439	-0.629816	0.695261	-0.008066	0.000417	0.113180	1.000000	0.000026	0.000033	0.000027	-42.536006	-84.611027	44.439327
15683	9.881359	-0.630308	0.695955	-0.008705	-0.000162	0.113179	1.000000	0.000026	0.000033	0.000027	-42.531540	-84.611110	44.431529
15684	9.853215	-0.650366	0.691979	-0.005830	-0.021930	0.086158	1.000000	0.000019	0.000042	0.000028	-42.523536	-84.610495	44.422792
15685	9.905282	-0.635276	0.696935	-0.007845	-0.003680	0.137380	1.000000	0.000032	0.000018	0.000025	-42.529785	-84.612041	44.428659
15686	9.881574	-0.626558	0.674114	0.012962	0.004030	0.111642	1.000000	0.000011	0.000043	0.000020	-42.514705	-84.611889	44.411945
15687	9.881046	-0.632210	0.698669	-0.011362	-0.002447	0.113176	1.000000	0.000033	0.000024	0.000033	-42.525229	-84.612363	44.423888
15688	9.857334	-0.623630	0.675825	0.009452	0.005265	0.087442	1.000000	0.000026	0.000033	0.000027	-42.522355	-84.612507	44.421113
15689	9.856799	-0.629347	0.700369	-0.014847	-0.001213	0.088972	1.000000	0.000026	0.000033	0.000034	-42.526470	-84.612140	44.424780
15690	9.880788	-0.633980	0.700719	-0.013354	-0.004158	0.113173	1.000000	0.000026	0.000040	0.000035	-42.525536	-84.611062	44.424017
15691	9.853547	-0.643869	0.648923	0.036820	-0.014120	0.083094	1.000000	0.000025	0.000025	0.000034	-42.535048	-84.611330	44.425482
15692	9.881082	-0.630033	0.678074	0.008971	0.000604	0.111647	1.000000	0.000018	0.000027	0.000026	-42.538145	-84.612117	44.427753
15693	9.880529	-0.635830	0.702688	-0.015352	-0.005866	0.113169	1.000000	0.000035	0.000046	0.000043	-42.539147	-84.609959	44.432530
15694	9.853296	-0.645721	0.650888	0.034814	-0.015829	0.083099	1.000000	0.000017	0.000019	0.000025	-42.547800	-84.611447	44.440308
15695	9.884355	-0.613418	0.709060	-0.022365	0.016566	0.115996	1.000000	0.000034	0.000033	0.000027	-42.543738	-84.611619	44.434205
15696	9.856666	-0.628305	0.681208	0.004160	0.000706	0.087447	1.000000	0.000026	0.000041	0.000028	-42.535312	-84.611062	44.425926
15697	9.880196	-0.637946	0.705450	-0.017992	-0.008140	0.113163	1.000000	0.000018	0.000034	0.000027	-42.532238	-84.611102	44.414211
15698	9.880583	-0.633303	0.682283	0.004988	-0.002821	0.111650	1.000000	0.000026	0.000033	0.000027	-42.529367	-84.611246	44.411439
15699	9.880965	-0.628729	0.659179	0.027964	0.002490	0.110140	1.000000	0.000042	0.000039	0.000035	-42.527462	-84.610325	44.413361
15700	9.900502	-0.661959	0.678199	0.011479	-0.029931	0.133018	1.000000	0.000018	0.000027	0.000026	-42.530557	-84.611113	44.415630
15701	9.856255	-0.630925	0.684731	0.000857	-0.002136	0.087448	1.000000	0.000018	0.000034	0.000027	-42.527856	-84.611164	44.404167
15702	9.880742	-0.630206	0.661114	0.025976	0.000779	0.110146	1.000000	0.000025	0.000027	0.000018	-42.523050	-84.612531	44.399388
15703	9.879719	-0.640952	0.709385	-0.022001	-0.011554	0.113152	1.000000	0.000025	0.000025	0.000034	-42.533744	-84.612943	44.415222
15704	9.880593	-0.631254	0.662345	0.024628	-0.000362	0.110149	1.000000	0.000026	0.000041	0.000028	-42.525318	-84.612386	44.406943
15705	9.855947	-0.632880	0.687353	-0.001836	-0.004401	0.087447	1.000000	0.000026	0.000033	0.000027	-42.523616	-84.612582	44.398616
15706	9.904511	-0.636256	0.663435	0.025406	-0.003899	0.134355	1.000000	0.000026	0.000033	0.000027	-42.520746	-84.612726	44.395845
15707	9.855776	-0.633877	0.688888	-0.003140	-0.005545	0.087446	1.000000	0.000027	0.000049	0.000028	-42.505290	-84.611413	44.381573
15708	9.880258	-0.633253	0.665421	0.021970	-0.002645	0.110155	1.000000	0.000033	0.000025	0.000026	-42.507564	-84.612316	44.384776
15709	9.859627	-0.611380	0.695177	-0.010143	0.016893	0.090288	1.000000	0.000009	0.000011	0.000032	-42.529544	-84.613939	44.404634
15710	9.879630	-0.639562	0.690204	-0.003012	-0.009657	0.111646	1.000000	0.000026	0.000040	0.000035	-42.528608	-84.612861	44.403869
15711	9.883546	-0.616599	0.696025	-0.009319	0.013337	0.114491	1.000000	0.000025	0.000026	0.000026	-42.529419	-84.613629	44.405261
15712	9.855886	-0.631475	0.668008	0.017221	-0.002525	0.085958	1.000000	0.000026	0.000033	0.000027	-42.526550	-84.613773	44.402490
15713	9.883890	-0.612522	0.673388	0.011828	0.018672	0.113008	1.000000	0.000025	0.000025	0.000034	-42.614804	-84.616529	44.462186
15714	9.879312	-0.641733	0.692733	-0.006840	-0.011328	0.111643	1.000000	0.000026	0.000033	0.000027	-42.612262	-84.616685	44.459752
15715	9.859668	-0.609467	0.674982	0.008373	0.019947	0.088809	1.000000	0.000033	0.000026	0.000018	-42.607028	-84.618173	44.466771
15716	9.879187	-0.642449	0.693843	-0.008183	-0.012470	0.111640	1.000000	0.000025	0.000019	0.000017	-42.608143	-84.620252	44.467874
15717	9.855035	-0.638911	0.694818	-0.010953	-0.010623	0.087437	1.000000	0.000026	0.000040	0.000035	-42.606939	-84.619184	44.466310
15718	9.876032	-0.656727	0.642296	0.043451	-0.025475	0.105846	1.000000	0.000025	0.000027	0.000018	-42.602479	-84.620563	44.461886
15719	9.882955	-0.620462	0.700971	-0.015841	0.009405	0.114487	1.000000	0.000026	0.000039	0.000043	-42.609020	-84.618954	44.462136
15720	9.879359	-0.639531	0.672731	0.012800	-0.008888	0.110168	1.000000	0.000026	0.000033	0.000027	-42.606477	-84.619109	44.459701
15721	9.883290	-0.616493	0.678550	0.006478	0.014125	0.113021	1.000000	0.000026	0.000033	0.000027	-42.603947	-84.619258	44.451088
15722	9.879200	-0.640517	0.674120	0.011457	-0.010020	0.110168	1.000000	0.000026	0.000033	0.000027	-42.601404	-84.619414	44.448652
15723	9.858534	-0.618712	0.704135	-0.020623	0.009582	0.090282	1.000000	0.000018	0.000033	0.000042	-42.614701	-84.618487	44.455075
15724	9.854433	-0.642753	0.699783	-0.015647	-0.014562	0.087425	1.000000	0.000019	0.000043	0.000012	-42.592007	-84.618929	44.431611
15725	9.907042	-0.622592	0.681054	0.005886	0.009433	0.137228	1.000000	0.000040	0.000024	0.000033	-42.601660	-84.619358	44.431556
15726	9.878864	-0.642795	0.676868	0.008764	-0.012283	0.110169	1.000000	0.000018	0.000033	0.000042	-42.614497	-84.618410	44.443670
15727	9.882793	-0.619913	0.682667	0.002458	0.010731	0.113027	1.000000	0.000026	0.000033	0.000027	-42.611741	-84.618561	44.436676
15728	9.882720	-0.620393	0.683284	0.001788	0.010166	0.113027	1.000000	0.000033	0.000025	0.000026	-42.614378	-84.619474	44.440251
15729	9.882643	-0.620947	0.683893	0.001102	0.009603	0.113028	1.000000	0.000026	0.000033	0.000034	-42.620152	-84.619163	44.441635
15730	9.902620	-0.649080	0.679056	0.008143	-0.016985	0.134370	1.000000	0.000025	0.000026	0.000026	-42.623190	-84.620018	44.444733
15731	9.881967	-0.627233	0.708828	-0.023909	0.002649	0.114475	1.000000	0.000017	0.000017	0.000040	-42.647349	-84.620485	44.464971
15732	9.882950	-0.617533	0.661709	0.022751	0.013729	0.111586	1.000000	0.000019	0.000043	0.000012	-42.624647	-84.620929	44.441500
15733	9.853705	-0.647639	0.705514	-0.021705	-0.019632	0.087405	1.000000	0.000042	0.000039	0.000035	-42.623249	-84.620047	44.454730
15734	9.905778	-0.632919	0.710719	-0.023857	-0.001503	0.138673	1.000000	0.000018	0.000033	0.000042	-42.636081	-84.619099	44.466838
15735	9.883225	-0.614243	0.640040	0.044388	0.017850	0.110155	1.000000	0.000010	0.000027	0.000026	-42.639810	-84.619877	44.475444
15736	9.881538	-0.630095	0.712266	-0.027277	-0.000195	0.114466	1.000000	0.000026	0.000033	0.000034	-42.644760	-84.619509	44.480525
15737	9.881995	-0.625495	0.689089	-0.004331	0.005070	0.113031	1.000000	0.000026	0.000034	0.000019	-42.636998	-84.620363	44.479829
15738	9.857843	-0.621934	0.690101	-0.007070	0.006955	0.088828	1.000000	0.000026	0.000033	0.000034	-42.641949	-84.619995	44.484911
15739	9.882379	-0.621396	0.666607	0.017999	0.009761	0.111600	1.000000	0.000018	0.000035	0.000019	-42.631979	-84.620608	44.469969
15740	9.858229	-0.617902	0.667533	0.015264	0.011648	0.087400	1.000000	0.000033	0.000024	0.000041	-42.649609	-84.620474	44.488582
15741	9.906302	-0.626500	0.667523	0.018723	0.006166	0.135806	1.000000	0.000018	0.000036	0.000012	-42.632051	-84.621634	44.471968
15742	9.881601	-0.627972	0.692490	-0.007677	0.002234	0.113030	1.000000	0.000011	0.000042	0.000035	-42.632207	-84.620451	44.470546
15743	9.878027	-0.646999	0.664275	0.020944	-0.016099	0.108733	1.000000	0.000034	0.000033	0.000027	-42.629074	-84.620719	44.477456
15744	9.881983	-0.623956	0.670073	0.014643	0.006916	0.111608	1.000000	0.000026	0.000033	0.000027	-42.626541	-84.620875	44.475030
15745	9.856724	-0.630552	0.718818	-0.035407	-0.002834	0.090244	1.000000	0.000026	0.000033	0.000027	-42.623379	-84.621001	44.466024
15746	9.881827	-0.624937	0.671459	0.013313	0.005778	0.111611	1.000000	0.000034	0.000033	0.000027	-42.620454	-84.621214	44.464084
15747	9.857124	-0.626364	0.696335	-0.013102	0.001859	0.088824	1.000000	0.000026	0.000034	0.000019	-42.611518	-84.621987	44.455727
15748	9.900599	-0.663593	0.715051	-0.027716	-0.033034	0.135762	1.000000	0.000009	0.000019	0.000033	-42.628424	-84.622904	44.470910
15749	9.861001	-0.604042	0.702650	-0.020073	0.024314	0.091702	1.000000	0.000035	0.000046	0.000044	-42.629709	-84.620715	44.473104
15750	9.881506	-0.627207	0.674056	0.010596	0.003514	0.111615	1.000000	0.000017	0.000019	0.000025	-42.638737	-84.622212	44.481264
15751	9.877381	-0.651313	0.669645	0.015553	-0.020640	0.108735	1.000000	0.000027	0.000048	0.000036	-42.631982	-84.620421	44.469492
15752	9.884799	-0.609915	0.704626	-0.020024	0.020151	0.115904	1.000000	0.000026	0.000041	0.000028	-42.623868	-84.619876	44.461533
15753	9.857169	-0.624800	0.676715	0.006560	0.004280	0.087415	1.000000	0.000026	0.000033	0.000027	-42.620791	-84.620017	44.455191
15754	9.881159	-0.629372	0.677119	0.007930	0.001241	0.111618	1.000000	0.000018	0.000034	0.000027	-42.618648	-84.620114	44.452277
15755	9.881075	-0.629957	0.677810	0.007287	0.000663	0.111619	1.000000	0.000010	0.000034	0.000034	-42.622656	-84.619564	44.455669
15756	9.880987	-0.630601	0.678488	0.006616	0.000098	0.111619	1.000000	0.000041	0.000031	0.000034	-42.626839	-84.619311	44.461739
15757	9.881492	-0.626081	0.655147	0.029657	0.005320	0.110224	1.000000	0.000017	0.000019	0.000025	-42.633447	-84.620713	44.469480
15758	9.856788	-0.627469	0.679784	0.003281	0.001430	0.087418	1.000000	0.000025	0.000027	0.000018	-42.629016	-84.622092	44.465085
15759	9.856699	-0.628043	0.680543	0.002616	0.000866	0.087418	1.000000	0.000027	0.000047	0.000044	-42.630115	-84.619784	44.456655
15760	9.880668	-0.632784	0.681091	0.003975	-0.002182	0.111621	1.000000	0.000026	0.000033	0.000027	-42.627586	-84.619939	44.454233
15761	9.880593	-0.633207	0.681794	0.003297	-0.002745	0.111621	1.000000	0.000018	0.000035	0.000019	-42.618349	-84.620570	44.432856
15762	9.880523	-0.633623	0.682423	0.002626	-0.003310	0.111621	1.000000	0.000025	0.000026	0.000026	-42.621404	-84.621425	44.435970
15763	9.884497	-0.610590	0.688207	-0.003646	0.019701	0.114514	1.000000	0.000019	0.000042	0.000028	-42.613261	-84.620859	44.436475
15764	9.856884	-0.625476	0.660211	0.022939	0.003832	0.086036	1.000000	0.000018	0.000027	0.000026	-42.616701	-84.621656	44.439094
15765	9.880880	-0.630125	0.660477	0.024317	0.000764	0.110240	1.000000	0.000025	0.000025	0.000034	-42.625850	-84.621900	44.434999
15766	9.855541	-0.636782	0.709175	-0.025730	-0.008877	0.088796	1.000000	0.000042	0.000039	0.000035	-42.624458	-84.620947	44.435542
15767	9.856646	-0.627229	0.662103	0.020948	0.002126	0.086041	1.000000	0.000018	0.000027	0.000026	-42.628350	-84.621795	44.439085
15768	9.884686	-0.608441	0.667600	0.016701	0.022652	0.113143	1.000000	0.000026	0.000039	0.000043	-42.635207	-84.620203	44.446143
15769	9.879929	-0.637765	0.687143	-0.002074	-0.007283	0.111619	1.000000	0.000010	0.000034	0.000034	-42.641579	-84.619782	44.449798
15770	9.879242	-0.643397	0.711710	-0.026427	-0.013627	0.112988	1.000000	0.000026	0.000033	0.000027	-42.639055	-84.619937	44.447380
15771	9.860354	-0.606236	0.670056	0.012675	0.023453	0.088948	1.000000	0.000026	0.000040	0.000035	-42.638242	-84.618851	44.437170
15772	9.884339	-0.610899	0.670480	0.014012	0.020386	0.113152	1.000000	0.000033	0.000025	0.000026	-42.640926	-84.619763	44.440790
15773	9.879596	-0.640040	0.689816	-0.004724	-0.009548	0.111616	1.000000	0.000010	0.000026	0.000034	-42.650286	-84.619856	44.428693
15774	9.880115	-0.635635	0.666616	0.018288	-0.004349	0.110252	1.000000	0.000042	0.000039	0.000035	-42.648898	-84.618903	44.429239
15775	9.860045	-0.608478	0.672564	0.010041	0.021178	0.088956	1.000000	0.000017	0.000020	0.000018	-42.650296	-84.620962	44.430697
15776	9.883426	-0.618121	0.696810	-0.012315	0.012344	0.114519	1.000000	0.000026	0.000040	0.000035	-42.649664	-84.619894	44.430243
15777	9.879886	-0.637176	0.668541	0.016278	-0.006060	0.110255	1.000000	0.000025	0.000026	0.000026	-42.652113	-84.620742	44.427718
15778	9.879818	-0.637660	0.669087	0.015606	-0.006625	0.110256	1.000000	0.000018	0.000027	0.000026	-42.655556	-84.621538	44.430342
15779	9.859741	-0.610519	0.675176	0.007349	0.018918	0.088963	1.000000	0.000035	0.000048	0.000028	-42.642642	-84.620444	44.419498
15780	9.859030	-0.616198	0.699803	-0.017007	0.012599	0.090315	1.000000	0.000033	0.000024	0.000041	-42.660298	-84.620307	44.438133
15781	9.854885	-0.640348	0.695183	-0.012124	-0.011562	0.087404	1.000000	0.000017	0.000019	0.000025	-42.669703	-84.621877	44.450407
15782	9.882964	-0.621331	0.700490	-0.016373	0.008949	0.114516	1.000000	0.000025	0.000027	0.000018	-42.665292	-84.623256	44.446032
15783	9.883503	-0.616794	0.677378	0.006624	0.014140	0.113171	1.000000	0.000027	0.000048	0.000036	-42.659947	-84.621568	44.443309
15784	9.883409	-0.617377	0.678214	0.005953	0.013574	0.113172	1.000000	0.000026	0.000033	0.000027	-42.657425	-84.621722	44.440893
15785	9.883330	-0.617876	0.678909	0.005282	0.013006	0.113173	1.000000	0.000018	0.000034	0.000027	-42.655263	-84.621838	44.430167
15786	9.879172	-0.641907	0.674537	0.010171	-0.011152	0.110259	1.000000	0.000026	0.000033	0.000027	-42.652742	-84.621992	44.427752
15787	9.858477	-0.619784	0.704413	-0.021734	0.008655	0.090310	1.000000	0.000018	0.000034	0.000027	-42.650772	-84.622119	44.419148
15788	9.883088	-0.619459	0.680990	0.003264	0.011309	0.113176	1.000000	0.000010	0.000034	0.000034	-42.656479	-84.621634	44.423227
15789	9.883642	-0.615065	0.657711	0.026282	0.016482	0.111843	1.000000	0.000040	0.000024	0.000033	-42.666147	-84.622107	44.435721
15790	9.881653	-0.630635	0.730047	-0.045464	-0.001309	0.115841	1.000000	0.000027	0.000042	0.000020	-42.650549	-84.622087	44.420258
15791	9.878120	-0.649637	0.701871	-0.016890	-0.019726	0.111588	1.000000	0.000026	0.000033	0.000034	-42.655080	-84.621713	44.412696
15792	9.878681	-0.645170	0.678601	0.006131	-0.014556	0.110258	1.000000	0.000025	0.000026	0.000026	-42.658155	-84.622567	44.415828
15793	9.863355	-0.589450	0.665758	0.016107	0.040334	0.090574	1.000000	0.000019	0.000042	0.000028	-42.650208	-84.621956	44.393043
15794	9.878510	-0.646250	0.680060	0.004786	-0.015687	0.110257	1.000000	0.000026	0.000033	0.000034	-42.655171	-84.621586	44.398134
15795	9.858451	-0.619296	0.685933	-0.003390	0.009890	0.088978	1.000000	0.000025	0.000024	0.000041	-42.673676	-84.621393	44.398134
15796	9.882432	-0.623929	0.686411	-0.002099	0.006787	0.113180	1.000000	0.000019	0.000043	0.000012	-42.650968	-84.621840	44.374661
15797	9.882346	-0.624440	0.687183	-0.002762	0.006212	0.113181	1.000000	0.000018	0.000033	0.000042	-42.662929	-84.620896	44.380919
15798	9.877525	-0.653620	0.706537	-0.021608	-0.023664	0.111570	1.000000	0.000032	0.000018	0.000025	-42.671238	-84.622506	44.390113
15799	9.906910	-0.624665	0.664232	0.021528	0.008251	0.136069	1.000000	0.000034	0.000040	0.000027	-42.663423	-84.622118	44.396629
15800	9.853296	-0.650458	0.708208	-0.024923	-0.022254	0.087362	1.000000	0.000019	0.000042	0.000028	-42.655676	-84.621516	44.388160
15801	9.877924	-0.650094	0.684888	0.000051	-0.019654	0.110251	1.000000	0.000018	0.000034	0.000027	-42.653672	-84.621672	44.391364
15802	9.854445	-0.641434	0.661905	0.021126	-0.011953	0.084739	1.000000	0.000026	0.000033	0.000027	-42.651156	-84.621826	44.388955
15803	9.881201	-0.632485	0.715223	-0.030538	-0.002895	0.114487	1.000000	0.000034	0.000034	0.000019	-42.641561	-84.622608	44.379763
15804	9.902409	-0.650636	0.662897	0.023665	-0.018181	0.133145	1.000000	0.000010	0.000034	0.000034	-42.647259	-84.622123	44.383832
15805	9.854209	-0.642990	0.663904	0.019091	-0.013641	0.084741	1.000000	0.000025	0.000025	0.000034	-42.658214	-84.622489	44.394533
15806	9.881610	-0.629187	0.693400	-0.008863	0.001128	0.113179	1.000000	0.000035	0.000048	0.000028	-42.644144	-84.621303	44.381546
15807	9.882190	-0.624754	0.670276	0.014161	0.006271	0.111880	1.000000	0.000017	0.000026	0.000034	-42.655166	-84.621609	44.389973
15808	9.882118	-0.625319	0.670815	0.013490	0.005706	0.111881	1.000000	0.000018	0.000027	0.000026	-42.658613	-84.622405	44.392598
15809	9.885470	-0.607361	0.700361	-0.016428	0.023032	0.116115	1.000000	0.000026	0.000033	0.000034	-42.664485	-84.622109	44.404718
15810	9.856551	-0.632305	0.720074	-0.037215	-0.004278	0.090267	1.000000	0.000033	0.000033	0.000027	-42.661611	-84.622321	44.402828
15811	9.881198	-0.632023	0.696684	-0.012228	-0.001692	0.113175	1.000000	0.000018	0.000033	0.000034	-42.665958	-84.621818	44.388773
15812	9.881795	-0.627445	0.673575	0.010804	0.003443	0.111885	1.000000	0.000034	0.000042	0.000012	-42.642524	-84.622381	44.366332
15813	9.877604	-0.651477	0.669300	0.015639	-0.020725	0.108945	1.000000	0.000018	0.000033	0.000042	-42.655522	-84.621481	44.384860
15814	9.856896	-0.629415	0.698942	-0.016182	-0.000822	0.088970	1.000000	0.000032	0.000018	0.000025	-42.663848	-84.623090	44.394070
15815	9.861617	-0.601430	0.680629	0.001323	0.027915	0.090629	1.000000	0.000026	0.000033	0.000034	-42.669515	-84.622781	44.399121
15816	9.877375	-0.653149	0.671059	0.013605	-0.022419	0.108944	1.000000	0.000026	0.000034	0.000019	-42.659523	-84.623460	44.389214
15817	9.860773	-0.607410	0.705899	-0.023723	0.021098	0.091912	1.000000	0.000026	0.000033	0.000034	-42.664721	-84.623103	44.386460
15818	9.877199	-0.654226	0.672591	0.012251	-0.023549	0.108943	1.000000	0.000027	0.000049	0.000028	-42.651012	-84.621860	44.372956
15819	9.908699	-0.616894	0.707142	-0.021228	0.014827	0.140315	1.000000	0.000033	0.000024	0.000034	-42.661560	-84.622262	44.384653
15820	9.881843	-0.626680	0.655200	0.029102	0.004615	0.110617	1.000000	0.000034	0.000042	0.000012	-42.638130	-84.622824	44.362216
15821	9.877645	-0.650714	0.650933	0.033929	-0.019557	0.107670	1.000000	0.000018	0.000033	0.000042	-42.651077	-84.621870	44.363721
15822	9.881673	-0.627838	0.656651	0.027757	0.003481	0.110621	1.000000	0.000018	0.000034	0.000027	-42.648925	-84.621967	44.360797
15823	9.860954	-0.605691	0.686426	-0.004014	0.023411	0.090640	1.000000	0.000033	0.000032	0.000034	-42.652453	-84.621608	44.356552
15824	9.776356	-0.664398	0.672422	0.006067	-0.040216	0.009179	1.000000	0.000017	0.000026	0.000034	-42.663379	-84.621878	44.366676
15825	9.833322	-0.621341	0.658873	0.021967	0.006931	0.062223	1.000000	0.000018	0.000033	0.000034	-42.667689	-84.621368	44.346281
15826	9.947965	-0.676461	0.701482	-0.011120	-0.041498	0.182804	1.000000	0.000018	0.000033	0.000042	-42.680489	-84.620414	44.358349
15827	10.040683	-0.571609	0.726626	-0.033484	0.068216	0.270182	1.000000	0.000101	0.000007	-0.000006	-42.661666	-84.625332	44.338820
15828	9.809775	-0.613470	0.636928	0.041773	0.013495	0.036769	1.000000	-0.000095	0.000058	0.000036	-42.661101	-84.622644	44.324432
15829	9.924382	-0.668645	0.679869	0.008646	-0.034950	0.157336	1.000000	0.000111	0.000040	0.000043	-42.658208	-84.621011	44.329613
15830	9.863085	-0.596083	0.743874	-0.061579	0.031773	0.096112	1.000000	-0.000029	0.000023	0.000025	-42.669377	-84.622160	44.334641
15831	9.894060	-0.697651	0.599611	0.087480	-0.063760	0.123456	1.000000	0.000042	0.000040	0.000020	-42.652998	-84.622220	44.305493
15832	9.737809	-0.604587	0.765031	-0.090629	0.014396	-0.026610	1.000000	0.000042	0.000046	0.000036	-42.646066	-84.620566	44.300543
15833	9.972844	-0.674351	0.658672	0.033440	-0.036768	0.204485	1.000000	-0.000013	0.000028	0.000041	-42.665412	-84.620015	44.301131
15834	9.880672	-0.634715	0.665043	0.019743	-0.003330	0.110640	1.000000	0.000073	0.000045	0.000028	-42.649600	-84.619117	44.290793
15835	9.915595	-0.578573	0.728525	-0.042872	0.053054	0.146221	1.000000	0.000025	0.000027	0.000011	-42.637999	-84.621064	44.288723
15836	9.808376	-0.622893	0.666880	0.012729	0.003349	0.038038	1.000000	-0.000005	0.000035	0.000034	-42.644376	-84.620463	44.291714
15837	9.851525	-0.660451	0.686222	-0.002428	-0.031674	0.084718	1.000000	0.000026	0.000040	0.000035	-42.643386	-84.619404	44.292437
15838	9.851424	-0.661096	0.687047	-0.003101	-0.032236	0.084716	1.000000	0.000042	0.000039	0.000035	-42.642061	-84.618449	44.293044
15839	9.908440	-0.618001	0.673600	0.012779	0.014858	0.137814	1.000000	0.000040	0.000025	0.000026	-42.645513	-84.619460	44.299874
15840	9.856864	-0.628665	0.645581	0.037525	0.001535	0.085209	1.000000	0.000003	0.000035	0.000027	-42.644058	-84.619442	44.295890
15841	9.907556	-0.623938	0.698804	-0.012286	0.008095	0.139050	1.000000	0.000072	0.000029	0.000027	-42.639463	-84.619911	44.287799
15842	9.859378	-0.616015	0.699757	-0.016712	0.012753	0.090646	1.000000	0.000003	0.000035	0.000027	-42.638004	-84.619893	44.283812
15843	9.883356	-0.620642	0.700257	-0.015499	0.009567	0.114847	1.000000	0.000025	0.000027	0.000018	-42.632692	-84.621270	44.284386
15844	9.840070	-0.584151	0.682188	-0.001645	0.043475	0.068188	1.000000	0.000018	0.000027	0.000026	-42.636135	-84.622066	44.287006
15845	9.855017	-0.640963	0.696614	-0.013291	-0.012543	0.087672	1.000000	0.000011	0.000042	0.000035	-42.637811	-84.620943	44.284404
15846	9.899635	-0.668447	0.668154	0.018949	-0.036320	0.131876	1.000000	0.000025	0.000027	0.000018	-42.633431	-84.622321	44.280058
15847	9.883790	-0.617655	0.678993	0.005504	0.012960	0.113623	1.000000	0.000049	0.000038	0.000035	-42.632280	-84.621441	44.274072
15848	9.858906	-0.618980	0.703769	-0.020760	0.009392	0.090643	1.000000	0.000003	0.000035	0.000027	-42.630816	-84.621423	44.270079
15849	9.883613	-0.618819	0.680518	0.004137	0.011834	0.113625	1.000000	0.000034	0.000040	0.000035	-42.630733	-84.620487	44.279711
15850	9.887669	-0.595868	0.686291	-0.001980	0.034883	0.116604	1.000000	0.000011	0.000035	0.000027	-42.628923	-84.620526	44.276251
15851	9.854501	-0.644109	0.700988	-0.017361	-0.015902	0.087661	1.000000	0.000018	0.000035	0.000019	-42.619921	-84.621184	44.267513
15852	9.903269	-0.648090	0.677565	0.009410	-0.016091	0.134850	1.000000	0.000010	0.000034	0.000034	-42.625590	-84.620698	44.271551
15853	9.878390	-0.649314	0.702192	-0.016880	-0.019642	0.111858	1.000000	0.000041	0.000025	0.000018	-42.622582	-84.622289	44.281783
15854	9.855029	-0.640490	0.679117	0.004318	-0.011951	0.086447	1.000000	0.000011	0.000043	0.000020	-42.607692	-84.622155	44.265273
15855	9.931239	-0.630089	0.684489	0.003756	0.003210	0.162032	1.000000	0.000056	0.000022	0.000034	-42.617097	-84.622729	44.275872
15856	9.882308	-0.627221	0.709124	-0.024350	0.002283	0.114834	1.000000	0.000010	0.000026	0.000034	-42.628366	-84.622941	44.285459
15857	9.830744	-0.638009	0.681040	0.000444	-0.010998	0.062244	1.000000	0.000033	0.000032	0.000034	-42.633297	-84.622595	44.269441
15858	9.887822	-0.594929	0.667705	0.016332	0.036012	0.115416	1.000000	0.000034	0.000041	0.000020	-42.617377	-84.622633	44.254536
15859	9.878660	-0.647441	0.682440	0.002786	-0.017389	0.110645	1.000000	0.000026	0.000040	0.000035	-42.617338	-84.621615	44.269393
15860	9.904151	-0.642433	0.635303	0.051415	-0.009359	0.132453	1.000000	0.000026	0.000033	0.000034	-42.622322	-84.621243	44.274501
15861	9.858580	-0.620912	0.689125	-0.005845	0.007733	0.089430	1.000000	0.000035	0.000048	0.000028	-42.608404	-84.620083	44.266721
15862	9.855100	-0.640225	0.660972	0.022651	-0.010826	0.085249	1.000000	0.000025	0.000024	0.000049	-42.633937	-84.619359	44.292366
15863	9.858401	-0.622266	0.690468	-0.007174	0.006602	0.089430	1.000000	0.000026	0.000034	0.000019	-42.623058	-84.620019	44.276358
15864	9.887308	-0.598517	0.672095	0.012290	0.032622	0.115433	1.000000	0.000017	0.000026	0.000034	-42.633980	-84.620288	44.286474
15865	9.830827	-0.637611	0.662903	0.018792	-0.009874	0.061050	1.000000	0.000026	0.000034	0.000019	-42.625082	-84.621048	44.287786
15866	9.903668	-0.645855	0.639356	0.047354	-0.012759	0.132469	1.000000	0.000033	0.000024	0.000034	-42.635330	-84.621432	44.298986
15867	9.858878	-0.619358	0.669108	0.013848	0.009968	0.088246	1.000000	0.000019	0.000042	0.000028	-42.627773	-84.620841	44.283413
15868	9.853851	-0.648315	0.688705	-0.005124	-0.019816	0.086434	1.000000	0.000033	0.000025	0.000026	-42.630546	-84.621751	44.287117
15869	9.881187	-0.634522	0.718200	-0.033132	-0.005029	0.114808	1.000000	0.000011	0.000042	0.000035	-42.630389	-84.620599	44.290259
15870	9.886050	-0.606714	0.699975	-0.015503	0.023629	0.116625	1.000000	0.000025	0.000025	0.000034	-42.640976	-84.620925	44.300919
15871	9.877654	-0.654255	0.690463	-0.005312	-0.024165	0.110630	1.000000	0.000017	0.000020	0.000018	-42.642030	-84.622939	44.294745
15872	9.881755	-0.631131	0.696007	-0.011412	-0.001114	0.113627	1.000000	0.000026	0.000033	0.000027	-42.639538	-84.623093	44.292358
15873	9.878305	-0.650228	0.667740	0.017069	-0.019690	0.109455	1.000000	0.000018	0.000027	0.000026	-42.643165	-84.623918	44.298483
15874	9.884979	-0.613505	0.726136	-0.041923	0.015770	0.117795	1.000000	0.000026	0.000033	0.000027	-42.640674	-84.624072	44.296097
15875	9.878155	-0.651144	0.669065	0.015717	-0.020818	0.109455	1.000000	0.000018	0.000035	0.000019	-42.631266	-84.624738	44.294076
15876	9.878057	-0.651871	0.669812	0.015043	-0.021382	0.109455	1.000000	0.000034	0.000037	0.000058	-42.652748	-84.622147	44.316665
15877	9.882135	-0.628991	0.675552	0.008929	0.001668	0.112458	1.000000	0.000018	0.000036	0.000012	-42.636184	-84.623361	44.313608
15878	9.882055	-0.629495	0.676250	0.008256	0.001103	0.112459	1.000000	0.000018	0.000033	0.000042	-42.648982	-84.622405	44.325671
15879	9.853745	-0.649438	0.672088	0.011213	-0.020418	0.085253	1.000000	0.000019	0.000042	0.000028	-42.640378	-84.621812	44.322674
15880	9.881866	-0.630747	0.677845	0.006919	-0.000035	0.112460	1.000000	0.000026	0.000040	0.000035	-42.639762	-84.620742	44.322232
15881	9.905813	-0.635658	0.678539	0.008045	-0.003261	0.136661	1.000000	0.000018	0.000033	0.000034	-42.645729	-84.620336	44.324362
15882	9.853470	-0.651254	0.674366	0.009186	-0.022102	0.085252	1.000000	0.000026	0.000033	0.000027	-42.643245	-84.620490	44.321983
15883	9.861755	-0.604669	0.684945	-0.002371	0.024565	0.091270	1.000000	0.000033	0.000025	0.000026	-42.647390	-84.621480	44.338718
15884	9.809420	-0.620229	0.680680	-0.001216	0.005733	0.039860	1.000000	0.000041	0.000031	0.000034	-42.651720	-84.621222	44.344927
15885	9.797586	-0.686585	0.642742	0.038142	-0.060051	0.029678	1.000000	-0.000003	0.000058	0.000037	-42.641489	-84.618576	44.341058
15886	10.002349	-0.650731	0.658085	0.035573	-0.011168	0.232317	1.000000	0.000071	0.000021	0.000034	-42.650109	-84.619246	44.355018
15887	9.819155	-0.565246	0.645056	0.033355	0.062492	0.043599	1.000000	0.000040	0.000024	0.000034	-42.660955	-84.619735	44.370438
15888	9.989878	-0.582033	0.698244	-0.007633	0.055594	0.218305	1.000000	0.000012	0.000049	0.000036	-42.655386	-84.617852	44.363338
15889	9.910958	-0.607026	0.641346	0.044627	0.027048	0.137396	1.000000	-0.000021	0.000023	0.000018	-42.658766	-84.619632	44.366909
15890	9.861178	-0.608631	0.689726	-0.007101	0.020624	0.091277	1.000000	0.000064	0.000023	0.000018	-42.652788	-84.621297	44.365356
15891	9.815519	-0.585725	0.618742	0.059852	0.042232	0.039468	1.000000	-0.000028	0.000039	0.000019	-42.645170	-84.621591	44.345114
15892	9.828615	-0.652300	0.681161	0.000626	-0.025040	0.061041	1.000000	0.000026	0.000033	0.000034	-42.650165	-84.621219	44.350232
15893	9.879953	-0.642946	0.710630	-0.025645	-0.012962	0.113592	1.000000	0.000003	0.000034	0.000042	-42.664174	-84.620210	44.367447
15894	9.812784	-0.602185	0.692509	-0.013370	0.023743	0.042879	1.000000	0.000049	0.000033	0.000012	-42.645778	-84.621588	44.351754
15895	9.889023	-0.591796	0.697996	-0.014102	0.038731	0.118500	1.000000	0.000018	0.000027	0.000026	-42.648751	-84.622382	44.348586
15896	9.803412	-0.655068	0.707785	-0.027583	-0.030200	0.037962	1.000000	-0.000012	0.000044	0.000035	-42.649762	-84.621025	44.345380
15897	9.929378	-0.643615	0.665552	0.022692	-0.009400	0.159732	1.000000	0.000064	0.000031	0.000019	-42.638716	-84.622012	44.331174
15898	9.854667	-0.645979	0.738052	-0.054535	-0.018671	0.090501	1.000000	-0.000020	0.000037	0.000034	-42.645656	-84.621296	44.332968
15899	9.902678	-0.654003	0.614212	0.072474	-0.020293	0.130267	1.000000	0.000064	0.000032	0.000012	-42.625424	-84.622752	44.307830
15900	9.886082	-0.608983	0.773327	-0.088657	0.019155	0.121862	1.000000	0.000019	0.000040	0.000043	-42.632613	-84.621098	44.314332
15901	9.917322	-0.711230	0.629546	0.059990	-0.076958	0.149537	1.000000	0.000017	0.000021	0.000010	-42.625355	-84.623610	44.297329
15902	9.886780	-0.604950	0.750656	-0.066238	0.023617	0.120737	1.000000	0.000087	0.000035	0.000035	-42.622169	-84.622997	44.301339
15903	9.914116	-0.590313	0.655840	0.029843	0.042668	0.140482	1.000000	-0.000012	0.000044	0.000035	-42.622879	-84.621613	44.284256
15904	9.851650	-0.662782	0.689558	-0.005648	-0.034489	0.085219	1.000000	0.000049	0.000031	0.000034	-42.626912	-84.621412	44.291044
15905	9.884851	-0.615675	0.676314	0.008389	0.015043	0.114369	1.000000	0.000026	0.000041	0.000028	-42.618442	-84.620890	44.286714
15906	9.836696	-0.607742	0.677023	0.004191	0.019887	0.065971	1.000000	0.000025	0.000024	0.000041	-42.636516	-84.620689	44.304876
15907	9.860643	-0.612802	0.677587	0.005290	0.016614	0.090172	1.000000	0.000048	0.000030	0.000042	-42.647535	-84.619962	44.314562
15908	9.839853	-0.590587	0.707279	-0.026282	0.036807	0.070111	1.000000	0.000012	0.000049	0.000036	-42.641950	-84.618079	44.307446
15909	9.859616	-0.618819	0.702861	-0.019792	0.009926	0.091276	1.000000	0.000031	0.000004	0.000008	-42.646498	-84.622126	44.301557
15910	9.884443	-0.618722	0.679492	0.005039	0.012216	0.114375	1.000000	0.000004	0.000049	0.000044	-42.648696	-84.619659	44.301364
15911	9.885219	-0.614429	0.656351	0.028125	0.017202	0.113278	1.000000	0.000033	0.000026	0.000018	-42.643421	-84.621082	44.287758
15912	9.854308	-0.648717	0.723747	-0.040159	-0.020933	0.089331	1.000000	0.000011	0.000035	0.000027	-42.641579	-84.621121	44.284265
15913	9.880860	-0.638955	0.652712	0.032800	-0.007529	0.110243	1.000000	0.000033	0.000032	0.000034	-42.619107	-84.618173	44.287611
15914	9.859211	-0.621519	0.706159	-0.022508	0.007111	0.091273	1.000000	0.000018	0.000033	0.000034	-42.624339	-84.617735	44.292088
15915	9.876482	-0.663706	0.649054	0.036841	-0.032275	0.107205	1.000000	0.000018	0.000027	0.000026	-42.628082	-84.618560	44.295937
15916	9.887296	-0.603352	0.712417	-0.027499	0.026886	0.118511	1.000000	0.000034	0.000040	0.000028	-42.619607	-84.618065	44.288497
15917	9.902811	-0.655232	0.703291	-0.015638	-0.023638	0.136624	1.000000	0.000003	0.000035	0.000027	-42.617349	-84.618051	44.283481
15918	9.883781	-0.623104	0.685095	0.000304	0.007695	0.114381	1.000000	0.000042	0.000039	0.000035	-42.616030	-84.617087	44.284093
15919	9.881936	-0.633329	0.733672	-0.047871	-0.003998	0.116549	1.000000	0.000034	0.000034	0.000019	-42.605795	-84.617870	44.284762
15920	9.855370	-0.643306	0.681594	0.002604	-0.014329	0.087137	1.000000	0.000018	0.000033	0.000034	-42.611026	-84.617433	44.289237
15921	9.856171	-0.638996	0.658368	0.025689	-0.009341	0.086056	1.000000	0.000049	0.000031	0.000027	-42.607017	-84.617730	44.276002
15922	9.883443	-0.625287	0.687985	-0.002379	0.005432	0.114382	1.000000	0.000011	0.000041	0.000043	-42.614424	-84.616010	44.281845
15923	9.903158	-0.653859	0.683728	0.004060	-0.021475	0.135532	1.000000	0.000033	0.000024	0.000034	-42.624982	-84.616394	44.284833
15924	9.887479	-0.603126	0.694353	-0.009104	0.027927	0.117432	1.000000	0.000027	0.000048	0.000036	-42.618690	-84.614617	44.278766
15925	9.859132	-0.622919	0.690224	-0.006115	0.006470	0.090183	1.000000	0.000033	0.000033	0.000027	-42.615006	-84.614807	44.268661
15926	9.864164	-0.595169	0.671934	0.011594	0.035070	0.092165	1.000000	0.000018	0.000033	0.000042	-42.627693	-84.613842	44.280609
15927	9.882989	-0.628450	0.691608	-0.005726	0.002615	0.114382	1.000000	0.000034	0.000034	0.000019	-42.617461	-84.614562	44.256377
15928	9.830625	-0.643827	0.687311	-0.004480	-0.016094	0.062930	1.000000	0.000026	0.000033	0.000034	-42.622374	-84.614180	44.261412
15929	9.858797	-0.625178	0.692958	-0.008774	0.004215	0.090182	1.000000	0.000033	0.000033	0.000027	-42.618205	-84.614372	44.254394
15930	9.907677	-0.629532	0.669714	0.017753	0.003704	0.137517	1.000000	0.000017	0.000026	0.000034	-42.629030	-84.614631	44.264412
15931	9.858645	-0.626217	0.694183	-0.010109	0.003088	0.090182	1.000000	0.000041	0.000033	0.000019	-42.618004	-84.615421	44.248360
15932	9.883518	-0.626019	0.670861	0.014695	0.005309	0.113321	1.000000	0.000009	0.000020	0.000018	-42.619817	-84.617375	44.248402
15933	9.882536	-0.631294	0.695475	-0.009750	-0.000773	0.114379	1.000000	0.000035	0.000048	0.000028	-42.606660	-84.616226	44.236682
15934	9.883373	-0.626787	0.672274	0.013336	0.004187	0.113323	1.000000	0.000017	0.000021	0.000010	-42.600691	-84.618764	44.229804
15935	9.834336	-0.623462	0.696729	-0.014493	0.003583	0.065980	1.000000	0.000034	0.000039	0.000043	-42.605569	-84.617188	44.227393
15936	9.884106	-0.623237	0.649795	0.035775	0.008561	0.112274	1.000000	0.000019	0.000040	0.000043	-42.612652	-84.615525	44.233788
15937	9.859080	-0.624396	0.674344	0.009623	0.005229	0.089128	1.000000	0.000033	0.000025	0.000026	-42.615777	-84.616492	44.251986
15938	9.902822	-0.657079	0.670114	0.017721	-0.024459	0.134462	1.000000	0.000026	0.000033	0.000027	-42.613227	-84.616638	44.249541
15939	9.858009	-0.630150	0.699647	-0.015494	-0.001411	0.090175	1.000000	0.000019	0.000042	0.000020	-42.599014	-84.616611	44.238899
15940	9.858853	-0.625797	0.676355	0.007595	0.003549	0.089130	1.000000	0.000024	0.000018	0.000033	-42.615142	-84.617625	44.255044
15941	9.881873	-0.635550	0.701001	-0.015144	-0.005288	0.114371	1.000000	0.000020	0.000049	0.000028	-42.602268	-84.616360	44.243284
15942	9.882705	-0.631218	0.677933	0.007944	-0.000331	0.113330	1.000000	0.000033	0.000033	0.000027	-42.599416	-84.616562	44.241414
15943	9.858602	-0.627433	0.678491	0.005580	0.001856	0.089132	1.000000	0.000025	0.000025	0.000034	-42.609360	-84.616888	44.249975
15944	9.879225	-0.651179	0.650300	0.035717	-0.019572	0.109225	1.000000	0.000033	0.000031	0.000042	-42.621436	-84.616037	44.263067
15945	9.909800	-0.618758	0.708627	-0.021473	0.013309	0.141634	1.000000	0.000033	0.000025	0.000026	-42.623590	-84.616940	44.262085
15946	9.886632	-0.610064	0.685278	-0.000077	0.021021	0.116403	1.000000	0.000018	0.000034	0.000027	-42.621345	-84.617028	44.259067
15947	9.859205	-0.624998	0.657147	0.026648	0.005121	0.088103	1.000000	0.000026	0.000040	0.000035	-42.621794	-84.616014	44.267116
15948	9.863363	-0.602107	0.662816	0.020630	0.028180	0.091179	1.000000	0.000041	0.000031	0.000034	-42.626106	-84.615747	44.273304
15949	9.881183	-0.640214	0.706467	-0.020528	-0.009800	0.114358	1.000000	0.000018	0.000034	0.000027	-42.623771	-84.615853	44.266275
15950	9.886281	-0.612507	0.688155	-0.002783	0.018770	0.116407	1.000000	0.000018	0.000033	0.000042	-42.636448	-84.614887	44.278211
15951	9.906895	-0.636299	0.660137	0.027350	-0.002692	0.136507	1.000000	0.000026	0.000040	0.000035	-42.634985	-84.613760	44.253114
15952	9.904921	-0.646530	0.708728	-0.020854	-0.014253	0.138549	1.000000	0.000026	0.000033	0.000027	-42.632441	-84.613905	44.250675
15953	9.861984	-0.610035	0.690354	-0.006476	0.019855	0.092211	1.000000	0.000026	0.000040	0.000035	-42.632768	-84.612898	44.262131
15954	9.886859	-0.610230	0.667267	0.018297	0.022019	0.115393	1.000000	0.000010	0.000034	0.000034	-42.638281	-84.612402	44.266009
15955	9.835425	-0.620735	0.639065	0.043370	0.008881	0.062905	1.000000	0.000019	0.000042	0.000020	-42.623099	-84.612354	44.251397
15956	9.830125	-0.649673	0.658897	0.024271	-0.020804	0.060840	1.000000	0.000034	0.000039	0.000043	-42.629566	-84.610804	44.258931
15957	9.858313	-0.631217	0.664555	0.019936	-0.000522	0.088121	1.000000	0.000025	0.000025	0.000034	-42.640313	-84.611138	44.263418
15958	9.861553	-0.613046	0.693840	-0.009830	0.017047	0.092214	1.000000	0.000032	0.000018	0.000025	-42.648691	-84.612736	44.272675
15959	9.858170	-0.632315	0.665621	0.018597	-0.001653	0.088123	1.000000	0.000026	0.000040	0.000035	-42.647855	-84.611663	44.262675
15960	9.854783	-0.651528	0.637561	0.047019	-0.020353	0.084034	1.000000	0.000034	0.000034	0.000019	-42.637566	-84.612393	44.253352
15961	9.861312	-0.614577	0.695898	-0.011853	0.015366	0.092214	1.000000	0.000033	0.000032	0.000034	-42.643112	-84.612122	44.262484
15962	9.880984	-0.643047	0.691762	-0.005537	-0.011608	0.113325	1.000000	0.000018	0.000034	0.000027	-42.640869	-84.612211	44.259468
15963	9.880908	-0.643544	0.692385	-0.006206	-0.012179	0.113324	1.000000	0.000018	0.000027	0.000026	-42.643759	-84.613019	44.260513
15964	9.881802	-0.639148	0.669098	0.016891	-0.007258	0.112325	1.000000	0.000026	0.000034	0.000019	-42.633765	-84.613692	44.250608
15965	9.881718	-0.639723	0.669786	0.016207	-0.007818	0.112326	1.000000	0.000018	0.000033	0.000042	-42.647152	-84.612740	44.251535
15966	9.881629	-0.640305	0.670550	0.015535	-0.008382	0.112327	1.000000	0.000027	0.000042	0.000020	-42.631551	-84.612715	44.236076
15967	9.884851	-0.622005	0.700074	-0.014222	0.009208	0.116411	1.000000	0.000018	0.000027	0.000026	-42.634977	-84.613512	44.230296
15968	9.884775	-0.622507	0.700699	-0.014894	0.008646	0.116410	1.000000	0.000011	0.000035	0.000027	-42.633027	-84.613543	44.226694
15969	9.884694	-0.623010	0.701396	-0.015581	0.008077	0.116410	1.000000	0.000026	0.000033	0.000027	-42.630949	-84.613760	44.238617
15970	9.857304	-0.637784	0.673182	0.011184	-0.007839	0.088131	1.000000	0.000011	0.000036	0.000019	-42.621540	-84.614319	44.227542
15971	9.885511	-0.619001	0.679048	0.006831	0.012430	0.115424	1.000000	0.000027	0.000049	0.000021	-42.601214	-84.613648	44.209742
15972	9.881149	-0.643115	0.674910	0.011471	-0.011760	0.112329	1.000000	0.000017	0.000025	0.000041	-42.619494	-84.613379	44.227227
15973	9.861333	-0.615769	0.680247	0.003832	0.014108	0.091230	1.000000	0.000010	0.000028	0.000018	-42.616266	-84.614686	44.226612
15974	9.885288	-0.620429	0.681001	0.004804	0.010741	0.115428	1.000000	0.000018	0.000036	0.000012	-42.599103	-84.615828	44.208645
15975	9.860215	-0.621187	0.705517	-0.021284	0.007520	0.092208	1.000000	0.000033	0.000033	0.000027	-42.596662	-84.616040	44.196487
15976	9.889415	-0.597729	0.687299	-0.001848	0.033246	0.118530	1.000000	0.000026	0.000033	0.000027	-42.594127	-84.616185	44.194057
15977	9.885055	-0.621753	0.683165	0.002767	0.009059	0.115430	1.000000	0.000042	0.000040	0.000028	-42.586368	-84.615805	44.193209
15978	9.888249	-0.603664	0.712731	-0.026984	0.026658	0.119504	1.000000	0.000018	0.000033	0.000042	-42.599047	-84.614839	44.205145
15979	9.860857	-0.618590	0.684562	-0.000218	0.010743	0.091235	1.000000	0.000027	0.000042	0.000020	-42.583722	-84.614861	44.193915
15980	9.864068	-0.600347	0.713996	-0.029967	0.028343	0.095306	1.000000	0.000009	0.000019	0.000033	-42.600443	-84.615760	44.208894
15981	9.884704	-0.624225	0.685984	0.000090	0.006796	0.115432	1.000000	0.000004	0.000049	0.000044	-42.601404	-84.613252	44.188560
15982	9.863875	-0.601821	0.715422	-0.031280	0.027225	0.095305	1.000000	0.000040	0.000024	0.000034	-42.611364	-84.613681	44.200343
15983	9.885536	-0.620794	0.663269	0.022509	0.011129	0.114472	1.000000	0.000001	0.000020	0.000033	-42.629183	-84.614568	44.215966
15984	9.863725	-0.603095	0.716410	-0.032634	0.026108	0.095304	1.000000	0.000018	0.000033	0.000034	-42.634398	-84.614129	44.220422
15985	9.908381	-0.631371	0.688455	-0.000992	0.001727	0.139629	1.000000	0.000002	0.000026	0.000041	-42.653227	-84.613753	44.226153
15986	9.884283	-0.627622	0.688938	-0.003284	0.003986	0.115433	1.000000	0.000026	0.000033	0.000027	-42.650702	-84.613898	44.223732
15987	9.856898	-0.642469	0.660841	0.023510	-0.011957	0.087172	1.000000	0.000027	0.000049	0.000028	-42.635559	-84.612620	44.191625
15988	9.862363	-0.610273	0.743148	-0.059064	0.018435	0.096252	1.000000	0.000018	0.000027	0.000026	-42.638931	-84.613405	44.194170
15989	9.879741	-0.652728	0.686201	-0.000011	-0.021346	0.112319	1.000000	0.000025	0.000025	0.000034	-42.649789	-84.613758	44.205614
15990	9.855660	-0.648872	0.686529	-0.002294	-0.019078	0.088122	1.000000	0.000017	0.000019	0.000025	-42.658779	-84.615240	44.213725
15991	9.882872	-0.635095	0.716084	-0.030416	-0.004265	0.116378	1.000000	0.000034	0.000040	0.000035	-42.657796	-84.614217	44.201298
15992	9.899219	-0.682430	0.683208	0.004841	-0.049498	0.133395	1.000000	0.000017	0.000026	0.000034	-42.668624	-84.614474	44.211315
15993	9.885767	-0.621869	0.645546	0.039579	0.010898	0.113548	1.000000	0.000041	0.000025	0.000018	-42.664484	-84.615994	44.208869
15994	9.855336	-0.651043	0.689125	-0.004998	-0.021315	0.088116	1.000000	0.000019	0.000049	0.000036	-42.658460	-84.614160	44.202193
15995	9.883550	-0.632578	0.694906	-0.009347	-0.001077	0.115430	1.000000	0.000033	0.000024	0.000034	-42.669277	-84.614570	44.215518
15996	9.879177	-0.656664	0.690559	-0.004753	-0.025273	0.112309	1.000000	0.000018	0.000027	0.000026	-42.672654	-84.615355	44.218069
15997	9.860417	-0.624425	0.671993	0.011481	0.006065	0.090299	1.000000	0.000033	0.000033	0.000027	-42.670555	-84.615616	44.227104
15998	9.883302	-0.634268	0.696886	-0.011379	-0.002763	0.115428	1.000000	0.000034	0.000046	0.000044	-42.671419	-84.613367	44.229084
15999	9.855919	-0.649263	0.668763	0.015394	-0.018686	0.087178	1.000000	0.000018	0.000034	0.000027	-42.670028	-84.613503	44.232085
16000	9.883120	-0.635425	0.698412	-0.012739	-0.003883	0.115426	1.000000	0.000026	0.000033	0.000027	-42.667509	-84.613648	44.229670
16001	9.859031	-0.631561	0.698868	-0.014992	-0.001601	0.091229	1.000000	0.000025	0.000025	0.000034	-42.677378	-84.613937	44.224119
16002	9.882972	-0.636460	0.699565	-0.014075	-0.005008	0.115423	1.000000	0.000033	0.000026	0.000018	-42.672751	-84.615364	44.220406
16003	9.883933	-0.632101	0.676341	0.009018	-0.000147	0.114500	1.000000	0.000034	0.000040	0.000028	-42.665484	-84.614939	44.227108
16004	9.864162	-0.604485	0.681764	0.001497	0.025774	0.093433	1.000000	0.000018	0.000028	0.000011	-42.653954	-84.616781	44.214723
16005	9.888115	-0.609172	0.682492	0.002434	0.022361	0.117630	1.000000	0.000025	0.000027	0.000018	-42.649121	-84.618098	44.181558
16006	9.862999	-0.609975	0.706789	-0.023609	0.019246	0.094353	1.000000	0.000040	0.000024	0.000034	-42.659126	-84.618525	44.193382
16007	9.860717	-0.624306	0.654627	0.028552	0.005855	0.089392	1.000000	0.000018	0.000029	0.000003	-42.639990	-84.620912	44.170561
16008	9.886880	-0.615079	0.708148	-0.023372	0.015268	0.118547	1.000000	0.000010	0.000034	0.000034	-42.645478	-84.620414	44.174412
16009	9.859513	-0.630151	0.679863	0.003413	-0.000667	0.090307	1.000000	0.000018	0.000033	0.000042	-42.658605	-84.619457	44.179481
16010	9.882389	-0.639992	0.704563	-0.019478	-0.009484	0.115411	1.000000	0.000017	0.000027	0.000026	-42.661983	-84.620241	44.182033
16011	9.887672	-0.612274	0.686125	-0.001620	0.019000	0.117637	1.000000	0.000018	0.000033	0.000034	-42.668566	-84.619838	44.186171
16012	9.862526	-0.613243	0.710555	-0.027654	0.015906	0.094348	1.000000	0.000026	0.000033	0.000034	-42.673504	-84.619454	44.191227
16013	9.887513	-0.613485	0.687343	-0.002965	0.017878	0.117639	1.000000	0.000017	0.000019	0.000025	-42.682703	-84.620946	44.192743
16014	9.882070	-0.642188	0.707027	-0.022197	-0.011712	0.115403	1.000000	0.000027	0.000042	0.000020	-42.667098	-84.620923	44.177283
16015	9.863349	-0.610031	0.688551	-0.005888	0.019617	0.093446	1.000000	0.000033	0.000031	0.000042	-42.679605	-84.620123	44.201977
16016	9.864322	-0.605918	0.665302	0.017236	0.024449	0.092549	1.000000	0.000026	0.000033	0.000027	-42.677088	-84.620267	44.199564
16017	9.911190	-0.620129	0.690274	-0.004104	0.012755	0.141836	1.000000	0.000026	0.000033	0.000034	-42.681771	-84.619889	44.199225
16018	9.857707	-0.640157	0.709644	-0.026456	-0.011093	0.091199	1.000000	0.000033	0.000032	0.000034	-42.686439	-84.619562	44.204888
16019	9.888085	-0.612138	0.667454	0.016791	0.019882	0.116751	1.000000	0.000017	0.000027	0.000026	-42.689607	-84.620352	44.202272
16020	9.861860	-0.617754	0.715874	-0.033029	0.011427	0.094338	1.000000	0.000042	0.000046	0.000036	-42.682748	-84.618688	44.197392
16021	9.883580	-0.636823	0.664186	0.020659	-0.004876	0.113611	1.000000	0.000018	0.000034	0.000027	-42.681239	-84.618859	44.216771
16022	9.858418	-0.637759	0.688598	-0.005361	-0.007953	0.090303	1.000000	0.000033	0.000031	0.000042	-42.693360	-84.618002	44.229901
16023	9.862658	-0.614866	0.694132	-0.011277	0.015114	0.093449	1.000000	0.000026	0.000033	0.000027	-42.690734	-84.618205	44.237968
16024	9.882247	-0.643427	0.690156	-0.005159	-0.011962	0.114495	1.000000	0.000018	0.000033	0.000034	-42.695940	-84.617764	44.242413
16025	9.887559	-0.615813	0.671844	0.012735	0.016493	0.116763	1.000000	0.000026	0.000040	0.000035	-42.694464	-84.616688	44.233986
16026	9.887471	-0.616390	0.672605	0.012063	0.015930	0.116765	1.000000	0.000026	0.000033	0.000027	-42.691952	-84.616833	44.231577
16027	9.856897	-0.645430	0.716094	-0.032512	-0.016177	0.091174	1.000000	0.000026	0.000033	0.000027	-42.689279	-84.617039	44.245503
16028	9.857894	-0.641334	0.692773	-0.009388	-0.011345	0.090297	1.000000	0.000017	0.000025	0.000041	-42.707560	-84.616764	44.262983
16029	9.857810	-0.642053	0.693299	-0.010049	-0.011919	0.090295	1.000000	0.000010	0.000027	0.000034	-42.717580	-84.616975	44.270974
16030	9.882826	-0.642199	0.670206	0.014614	-0.009978	0.113618	1.000000	0.000034	0.000034	0.000012	-42.699907	-84.618236	44.254256
16031	9.877333	-0.670870	0.689905	-0.004604	-0.039581	0.111331	1.000000	0.000025	0.000025	0.000034	-42.709753	-84.618597	44.281441
16032	9.858672	-0.638709	0.671309	0.011738	-0.008225	0.089425	1.000000	0.000026	0.000041	0.000028	-42.701610	-84.618046	44.273454
16033	9.881502	-0.648407	0.696141	-0.011203	-0.017077	0.114483	1.000000	0.000017	0.000027	0.000026	-42.705480	-84.618902	44.293640
16034	9.881426	-0.648898	0.696762	-0.011876	-0.017639	0.114481	1.000000	0.000026	0.000033	0.000027	-42.702969	-84.619046	44.291233
16035	9.856254	-0.649573	0.721177	-0.037884	-0.020713	0.091146	1.000000	0.000026	0.000034	0.000019	-42.693620	-84.619777	44.294060
16036	9.881287	-0.649572	0.698104	-0.013232	-0.018765	0.114477	1.000000	0.000033	0.000027	0.000011	-42.681571	-84.621734	44.282912
16037	9.880122	-0.654549	0.722743	-0.037692	-0.024743	0.115332	1.000000	0.000042	0.000040	0.000020	-42.664726	-84.621854	44.272999
16038	9.885481	-0.626786	0.704355	-0.019822	0.003729	0.117635	1.000000	0.000010	0.000027	0.000034	-42.675825	-84.622052	44.282407
16039	9.858149	-0.641695	0.676123	0.007012	-0.012164	0.089425	1.000000	0.000042	0.000047	0.000028	-42.662260	-84.620989	44.289910
16040	9.858055	-0.642268	0.676954	0.006341	-0.012726	0.089425	1.000000	0.000026	0.000033	0.000034	-42.667204	-84.620604	44.294970
16041	10.001061	-0.429616	0.253219	0.432214	0.219724	0.189054	1.000000	0.000029	0.000059	-0.000001	-42.618090	-84.620844	44.262756
16042	10.298870	-0.928018	0.939447	-0.218499	-0.278622	0.564457	1.000000	-0.000135	-0.000153	-0.000194	-42.589462	-84.653864	44.215657
16043	8.479213	-0.951413	1.199803	-0.600124	-0.426503	-1.227834	1.000000	-0.000060	0.000157	0.000338	-42.774114	-84.619445	44.390295
16044	10.732279	-0.928772	-0.206791	0.955675	-0.216713	0.917034	1.000000	-0.000502	0.000242	0.000040	-42.671955	-84.600943	44.227063
16045	10.190539	-0.603592	0.431431	0.273901	0.053397	0.401012	0.999999	0.001214	-0.000138	-0.000197	-42.474740	-84.632909	44.160403
16046	10.125220	0.025586	1.271351	-0.590325	0.648959	0.354290	0.999999	0.001076	-0.000110	-0.000042	-42.408367	-84.650515	44.214730
16047	9.533817	0.063810	1.500008	-0.859897	0.640664	-0.221135	1.000000	0.000046	0.000100	0.000111	-42.423771	-84.638520	44.227085
16048	9.489274	-0.249012	0.195802	0.450006	0.366659	-0.335888	0.999999	-0.001462	0.000207	0.000207	-42.611437	-84.610044	44.244425
16049	10.683318	-1.425284	0.395881	0.367338	-0.731722	0.941432	1.000000	-0.000870	0.000088	-0.000004	-42.637883	-84.607908	44.156406
16050	8.954405	-0.833416	0.553871	0.073190	-0.260041	-0.806593	1.000000	0.000485	-0.000271	-0.000120	-42.702581	-84.645169	44.274348
16051	9.715224	-0.339020	0.788254	-0.123561	0.277207	-0.064367	0.999999	0.001202	0.000311	0.000325	-42.603160	-84.598747	44.306610
16052	10.429249	-0.229820	0.969491	-0.258778	0.427973	0.652102	1.000000	-0.000129	-0.000177	-0.000189	-42.598938	-84.633390	44.284648
16053	9.809191	-0.775560	0.608456	0.075144	-0.148188	0.044509	1.000000	-0.000751	0.000137	0.000095	-42.660152	-84.619459	44.237539
16054	9.902908	-0.808948	0.557787	0.133293	-0.173311	0.136449	1.000000	0.000239	0.000008	0.000004	-42.633764	-84.623476	44.235734
16055	9.806560	-0.513430	0.810670	-0.134737	0.107878	0.039197	1.000000	0.000083	-0.000015	-0.000008	-42.631807	-84.630356	44.233973
16056	9.658452	-0.651318	0.627618	0.041753	-0.034888	-0.112128	1.000000	-0.000019	0.000051	0.000043	-42.634471	-84.627708	44.231607
16057	9.866398	-0.725307	0.797940	-0.112092	-0.099354	0.111332	1.000000	0.000046	0.000001	0.000024	-42.652167	-84.630745	44.232208
16058	10.067350	-0.724309	0.608961	0.089578	-0.080423	0.298322	1.000000	0.000095	0.000033	0.000043	-42.656663	-84.629644	44.244783
16059	9.969816	-0.433968	0.886048	-0.202083	0.195587	0.201880	1.000000	0.000224	0.000008	0.000019	-42.645581	-84.632498	44.257143
16060	9.940481	-0.599490	0.728782	-0.042008	0.032741	0.172343	1.000000	-0.000186	0.000081	0.000052	-42.649930	-84.626681	44.237279
16061	9.802913	-0.672210	0.709153	-0.029236	-0.047723	0.038644	1.000000	0.000025	0.000024	0.000049	-42.674221	-84.625932	44.257062
16062	9.988277	-0.747115	0.654408	0.039987	-0.108309	0.224184	1.000000	-0.000081	0.000047	0.000065	-42.706851	-84.621937	44.277626
16063	9.768832	-0.858026	0.648125	0.034939	-0.232589	0.012333	1.000000	0.000018	0.000040	0.000043	-42.713239	-84.620288	44.287893
16064	9.873572	-0.561655	0.711788	-0.030530	0.068266	0.102146	1.000000	0.000215	-0.000007	0.000026	-42.721415	-84.623935	44.317947
16065	9.955204	-0.655709	0.722687	-0.033441	-0.020321	0.190152	1.000000	-0.000098	0.000034	0.000056	-42.756744	-84.621692	44.330636
16066	9.875737	-0.826891	0.512331	0.176433	-0.190293	0.107447	1.000000	0.000029	0.000076	0.000062	-42.750131	-84.615542	44.324501
16067	9.766191	-0.466164	0.827876	-0.155887	0.154458	-0.002845	1.000000	0.000286	0.000018	0.000021	-42.725853	-84.617420	44.322040
16068	9.960599	-0.498225	0.682227	0.003277	0.138803	0.182707	1.000000	-0.000144	0.000033	0.000032	-42.747508	-84.617179	44.324397
16069	9.769572	-0.725944	0.604207	0.074813	-0.098794	0.001651	1.000000	-0.000014	0.000022	0.000025	-42.756551	-84.618437	44.332258
16070	9.782406	-0.650805	0.719718	-0.041892	-0.026177	0.017601	1.000000	0.000125	0.000026	0.000012	-42.735946	-84.620380	44.323139
16071	9.795513	-0.716799	0.658334	0.022126	-0.089912	0.030620	1.000000	-0.000013	0.000030	0.000018	-42.732724	-84.621490	44.318055
16072	10.016899	-0.729579	0.642376	0.053244	-0.088023	0.250742	1.000000	0.000049	0.000033	0.000012	-42.714573	-84.622866	44.302616
16073	9.845661	-0.580433	0.688976	-0.008937	0.047855	0.073984	1.000000	0.000166	0.000046	0.000007	-42.668230	-84.623517	44.268594
16074	9.837966	-0.486576	0.732644	-0.055658	0.139465	0.063372	1.000000	-0.000013	0.000030	0.000018	-42.665117	-84.624603	44.261130
16075	9.990650	-0.603343	0.668031	0.022320	0.034339	0.218349	1.000000	0.000001	0.000014	0.000009	-42.663667	-84.627696	44.249756
16076	9.866271	-0.604603	0.662223	0.019550	0.024901	0.094199	1.000000	-0.000013	0.000029	0.000026	-42.668008	-84.628253	44.249758
16077	9.880272	-0.661272	0.677267	0.006912	-0.031235	0.112771	1.000000	0.000024	0.000012	0.000017	-42.674114	-84.630943	44.235782
16078	9.844226	-0.723218	0.639215	0.044143	-0.094443	0.078195	1.000000	-0.000065	0.000049	0.000035	-42.676324	-84.629181	44.227632
16079	9.989216	-0.609818	0.694234	-0.004146	0.026723	0.219139	1.000000	0.000149	0.000030	0.000021	-42.655533	-84.630001	44.210939
16080	9.758896	-0.644881	0.701970	-0.026148	-0.023444	-0.007411	1.000000	-0.000088	0.000050	0.000042	-42.665926	-84.627539	44.208351
16081	9.916196	-0.607052	0.618499	0.066804	0.026757	0.141046	1.000000	0.000119	0.000040	0.000029	-42.648597	-84.626906	44.181381
16082	9.861378	-0.494877	0.738133	-0.059294	0.132082	0.087594	1.000000	0.000003	0.000036	0.000027	-42.646797	-84.626880	44.177052
16083	9.916886	-0.598468	0.696628	-0.011130	0.033353	0.146572	1.000000	0.000026	0.000033	0.000027	-42.643399	-84.626965	44.152090
16084	9.832863	-0.651308	0.658033	0.023161	-0.023953	0.063612	1.000000	0.000002	0.000028	0.000026	-42.647241	-84.627634	44.153348
16085	9.977894	-0.674296	0.636623	0.054942	-0.037062	0.207988	1.000000	0.000057	0.000039	0.000020	-42.629499	-84.627751	44.113482
16086	9.797924	-0.572267	0.673243	0.003542	0.051806	0.024861	1.000000	0.000080	0.000030	0.000012	-42.610357	-84.629350	44.100562
16087	9.874193	-0.562723	0.679837	0.002066	0.065979	0.100645	1.000000	0.000081	0.000050	0.000037	-42.596151	-84.627229	44.075108
16088	9.842523	-0.601168	0.646839	0.034057	0.026363	0.069276	1.000000	0.000010	0.000027	0.000026	-42.599738	-84.627955	44.076988
16089	9.930792	-0.525759	0.691515	-0.006619	0.106199	0.155458	1.000000	0.000095	0.000035	0.000028	-42.587929	-84.627866	44.053308
16090	9.872764	-0.568939	0.705870	-0.023724	0.059023	0.101413	1.000000	-0.000037	0.000023	0.000033	-42.606051	-84.628419	44.064415
16091	9.866271	-0.607476	0.649115	0.033541	0.021654	0.093477	1.000000	0.000050	0.000045	0.000044	-42.605041	-84.626213	44.037857
16092	9.840979	-0.608465	0.673547	0.007618	0.018826	0.070043	1.000000	-0.000021	0.000036	0.000049	-42.626317	-84.624427	44.054004
16093	9.890036	-0.613834	0.651066	0.033623	0.017538	0.117673	1.000000	0.000034	0.000046	0.000044	-42.626435	-84.622193	44.056586
16094	9.863550	-0.619307	0.699381	-0.016130	0.009467	0.094984	1.000000	-0.000021	0.000029	0.000033	-42.638424	-84.622162	44.063369
16095	9.870271	-0.587304	0.656874	0.025769	0.043048	0.096709	1.000000	0.000048	0.000029	0.000050	-42.657323	-84.620877	44.073819
16096	9.867776	-0.597453	0.705198	-0.022569	0.032008	0.098202	1.000000	-0.000045	0.000016	0.000039	-42.688749	-84.621536	44.097308
16097	9.906070	-0.663998	0.620091	0.066386	-0.029801	0.134691	1.000000	0.000017	0.000026	0.000034	-42.698865	-84.621791	44.100430
16098	9.882790	-0.650397	0.696982	-0.012299	-0.019422	0.115948	1.000000	0.000003	0.000036	0.000027	-42.697051	-84.621765	44.096086
16099	9.837170	-0.632512	0.649071	0.031901	-0.003551	0.066090	1.000000	0.000017	0.000027	0.000026	-42.698918	-84.622528	44.086866
16100	9.849829	-0.693972	0.688337	-0.004858	-0.064878	0.085308	1.000000	0.000026	0.000033	0.000034	-42.703847	-84.622140	44.091908
16101	9.878135	-0.675557	0.694129	-0.009220	-0.044779	0.112717	1.000000	0.000049	0.000031	0.000027	-42.699869	-84.622445	44.077729
16102	9.905231	-0.661703	0.723872	-0.037416	-0.029896	0.140862	1.000000	0.000018	0.000034	0.000027	-42.697583	-84.622531	44.074668
16103	9.904394	-0.671831	0.647897	0.038505	-0.038474	0.135437	1.000000	0.000040	0.000024	0.000026	-42.699488	-84.623466	44.065132
16104	9.906290	-0.658036	0.701242	-0.014927	-0.025801	0.140124	1.000000	0.000034	0.000040	0.000028	-42.691087	-84.622970	44.057766
16105	9.882212	-0.654047	0.701739	-0.016987	-0.023367	0.115933	1.000000	0.000026	0.000040	0.000035	-42.689099	-84.621862	44.040640
16106	9.904870	-0.663824	0.726861	-0.040113	-0.032134	0.140844	1.000000	0.000026	0.000041	0.000028	-42.680933	-84.621309	44.032632
16107	9.880060	-0.669358	0.650781	0.034431	-0.037769	0.111250	1.000000	0.000011	0.000043	0.000020	-42.663803	-84.621151	44.003226
16108	9.857947	-0.651077	0.703921	-0.020380	-0.022055	0.091737	1.000000	0.000049	0.000037	0.000043	-42.669842	-84.619706	44.012077
16109	9.884280	-0.647148	0.657213	0.028044	-0.015259	0.114483	1.000000	-0.000004	0.000043	0.000035	-42.667866	-84.618337	43.980065
16110	9.887378	-0.628744	0.686767	-0.001525	0.002663	0.118435	1.000000	0.000057	0.000039	0.000020	-42.651344	-84.618541	43.967199
16111	9.840567	-0.615545	0.662876	0.018896	0.013297	0.069343	1.000000	0.000003	0.000034	0.000042	-42.663389	-84.617458	43.977157
16112	9.868877	-0.597242	0.668749	0.014559	0.033393	0.096769	1.000000	0.000049	0.000039	0.000028	-42.654545	-84.617075	43.971103
16113	9.837203	-0.635616	0.635757	0.046458	-0.006325	0.065398	1.000000	0.000011	0.000042	0.000027	-42.645927	-84.616393	43.946556
16114	9.841544	-0.612444	0.641449	0.040748	0.016784	0.068638	1.000000	0.000050	0.000048	0.000013	-42.616566	-84.616374	43.920019
16115	9.825102	-0.565827	0.675251	0.004784	0.061406	0.051640	1.000000	0.000001	0.000020	0.000033	-42.633483	-84.617216	43.930146
16116	9.864140	-0.622533	0.666991	0.016928	0.007474	0.093540	1.000000	0.000057	0.000031	0.000019	-42.622608	-84.618115	43.922872
16117	9.847696	-0.575824	0.700859	-0.019014	0.052114	0.076540	1.000000	0.000027	0.000042	0.000020	-42.607107	-84.618077	43.889113
16118	9.844457	-0.595014	0.672796	0.009194	0.033048	0.072597	1.000000	0.000017	0.000021	0.000010	-42.601184	-84.620615	43.882283
16119	9.892357	-0.604517	0.674019	0.011285	0.026432	0.120975	1.000000	0.000017	0.000027	0.000026	-42.603621	-84.621341	43.850360
16120	9.892284	-0.605019	0.674645	0.010611	0.025872	0.120977	1.000000	0.000011	0.000035	0.000027	-42.601553	-84.621370	43.846638
16121	9.871411	-0.582000	0.703596	-0.020264	0.046867	0.100734	1.000000	0.000025	0.000026	0.000026	-42.603768	-84.622202	43.834665
16122	9.918036	-0.596347	0.728826	-0.042080	0.035116	0.149805	1.000000	0.000010	0.000027	0.000034	-42.614791	-84.622397	43.843989
16123	9.887634	-0.630195	0.671600	0.013639	0.000478	0.117736	1.000000	0.000002	0.000028	0.000026	-42.616209	-84.623014	43.811420
16124	9.891988	-0.607323	0.676900	0.007977	0.023596	0.120985	1.000000	0.000002	0.000027	0.000041	-42.634909	-84.622621	43.827555
16125	9.886212	-0.636189	0.696619	-0.011572	-0.005758	0.118428	1.000000	0.000010	0.000027	0.000034	-42.645709	-84.622808	43.821003
16126	9.889318	-0.617822	0.725788	-0.041089	0.012253	0.122364	1.000000	0.000017	0.000019	0.000025	-42.654708	-84.624285	43.829115
16127	9.866527	-0.609263	0.701997	-0.019233	0.019835	0.097489	1.000000	0.000018	0.000033	0.000042	-42.666285	-84.623314	43.831508
16128	9.890413	-0.614511	0.703059	-0.018564	0.016239	0.121676	1.000000	0.000026	0.000033	0.000027	-42.663770	-84.623456	43.829095
16129	9.887150	-0.634020	0.675123	0.009622	-0.002921	0.117741	1.000000	0.000026	0.000040	0.000035	-42.660850	-84.622372	43.816658
16130	9.884508	-0.643872	0.723911	-0.038786	-0.013678	0.119101	1.000000	0.000042	0.000046	0.000036	-42.654049	-84.620705	43.811835
16131	9.862979	-0.630568	0.676542	0.006942	-0.001007	0.093555	1.000000	0.000050	0.000040	0.000020	-42.636791	-84.620858	43.789972
16132	9.861622	-0.635648	0.701247	-0.017600	-0.006658	0.094231	1.000000	0.000026	0.000033	0.000034	-42.641722	-84.620469	43.795015
16133	9.864080	-0.627097	0.654101	0.029480	0.002947	0.092881	1.000000	0.000057	0.000037	0.000035	-42.638108	-84.619632	43.796250
16134	9.862698	-0.632479	0.678850	0.004939	-0.002703	0.093556	1.000000	0.000026	0.000039	0.000050	-42.652280	-84.617485	43.810609
16135	9.891020	-0.614275	0.684734	0.000663	0.017347	0.121001	1.000000	0.000041	0.000032	0.000027	-42.647135	-84.617735	43.795795
16136	9.839813	-0.624657	0.656074	0.026156	0.004294	0.068701	1.000000	0.000012	0.000049	0.000043	-42.648656	-84.615310	43.795794
16137	9.866842	-0.611068	0.686061	-0.001998	0.019277	0.096817	1.000000	0.000034	0.000040	0.000035	-42.646961	-84.614269	43.777559
16138	9.838327	-0.630640	0.681669	0.000950	-0.001908	0.069370	1.000000	0.000010	0.000034	0.000034	-42.652320	-84.613766	43.781274
16139	9.839530	-0.626562	0.658491	0.024138	0.002614	0.068707	1.000000	0.000034	0.000041	0.000020	-42.636760	-84.613857	43.783216
16140	9.867871	-0.608299	0.664250	0.019836	0.022684	0.096159	1.000000	-0.000007	0.000019	0.000048	-42.668700	-84.613569	43.811666
16141	9.857590	-0.660736	0.679159	0.005197	-0.030331	0.090290	1.000000	0.000025	0.000025	0.000034	-42.678634	-84.613924	43.835115
16142	9.837997	-0.633149	0.684103	-0.001749	-0.004145	0.069369	1.000000	0.000018	0.000034	0.000027	-42.676340	-84.614010	43.832046
16143	9.881412	-0.666339	0.680740	0.005164	-0.034521	0.114473	1.000000	0.000017	0.000020	0.000018	-42.676271	-84.615959	43.792494
16144	9.884523	-0.647638	0.709919	-0.024324	-0.016458	0.118392	1.000000	0.000025	0.000027	0.000011	-42.664528	-84.617858	43.780778
16145	9.861790	-0.638765	0.686117	-0.002444	-0.008889	0.093553	1.000000	0.000025	0.000026	0.000026	-42.667910	-84.618750	43.801058
16146	9.879936	-0.671897	0.706290	-0.020742	-0.041265	0.115117	1.000000	0.000033	0.000026	0.000019	-42.663387	-84.620175	43.797450
16147	9.884335	-0.648680	0.711580	-0.026366	-0.018134	0.118384	1.000000	0.000041	0.000025	0.000019	-42.658958	-84.621669	43.791589
16148	9.885572	-0.644498	0.688178	-0.003170	-0.013624	0.117736	1.000000	0.000033	0.000025	0.000026	-42.661878	-84.622562	43.795432
16149	9.888646	-0.626093	0.717539	-0.032638	0.004467	0.121652	1.000000	0.000042	0.000039	0.000035	-42.660195	-84.621514	43.749407
16150	9.885408	-0.645549	0.689553	-0.004520	-0.014733	0.117734	1.000000	0.000010	0.000028	0.000018	-42.656308	-84.622769	43.743801
16151	9.889791	-0.622507	0.694977	-0.010087	0.008386	0.121008	1.000000	0.000049	0.000038	0.000035	-42.653208	-84.621827	43.722690
16152	9.889697	-0.623077	0.695806	-0.010763	0.007829	0.121007	1.000000	0.000026	0.000041	0.000028	-42.645043	-84.621273	43.714683
16153	9.866956	-0.614303	0.672275	0.011170	0.015360	0.096186	1.000000	0.000042	0.000040	0.000020	-42.627216	-84.621363	43.690931
16154	9.889526	-0.623983	0.697412	-0.012096	0.006697	0.121007	1.000000	0.000041	0.000031	0.000035	-42.631722	-84.621086	43.697302
16155	9.869939	-0.596377	0.702458	-0.018931	0.032916	0.100101	1.000000	0.000034	0.000040	0.000028	-42.622466	-84.620550	43.661121
16156	9.899609	-0.573354	0.684447	0.000679	0.057987	0.126936	1.000000	0.000011	0.000036	0.000019	-42.612921	-84.621110	43.649914
16157	9.842657	-0.611578	0.674975	0.007228	0.016205	0.072008	1.000000	0.000035	0.000048	0.000028	-42.598359	-84.619880	43.607399
16158	9.896281	-0.593347	0.657530	0.028130	0.038175	0.123033	1.000000	0.000042	0.000039	0.000035	-42.597228	-84.618906	43.608189
16159	9.872238	-0.589265	0.657765	0.026221	0.040683	0.098853	1.000000	0.000033	0.000025	0.000026	-42.599392	-84.619742	43.568770
16160	9.846875	-0.589728	0.681873	0.000380	0.038238	0.075296	1.000000	0.000033	0.000032	0.000035	-42.604111	-84.619408	43.574476
16161	9.866284	-0.618469	0.678280	0.005843	0.010873	0.096197	1.000000	0.000026	0.000033	0.000027	-42.600189	-84.619584	43.575854
16162	9.846712	-0.590860	0.683235	-0.000959	0.037111	0.075300	1.000000	0.000026	0.000033	0.000034	-42.605115	-84.619193	43.580890
16163	9.871925	-0.591533	0.660419	0.023520	0.038432	0.098869	1.000000	0.000018	0.000034	0.000027	-42.601932	-84.619338	43.596028
16164	9.895817	-0.596679	0.661492	0.024115	0.034781	0.123056	1.000000	0.000017	0.000027	0.000026	-42.605263	-84.620118	43.598527
16165	9.865959	-0.620701	0.680972	0.003145	0.008629	0.096200	1.000000	-0.000004	0.000043	0.000035	-42.604786	-84.618822	43.588648
16166	9.889823	-0.626167	0.682100	0.003734	0.004976	0.120384	1.000000	0.000024	0.000024	0.000049	-42.630241	-84.618064	43.614174
16167	9.891089	-0.622261	0.658611	0.026962	0.009380	0.119775	1.000000	0.000002	0.000021	0.000017	-42.630997	-84.619973	43.606461
16168	9.885209	-0.650759	0.678333	0.007242	-0.019852	0.117093	1.000000	0.000010	0.000027	0.000026	-42.634539	-84.620697	43.608293
16169	9.889611	-0.627805	0.683668	0.001723	0.003278	0.120386	1.000000	0.000018	0.000033	0.000034	-42.638677	-84.620263	43.603910
16170	9.907651	-0.661273	0.704043	-0.016747	-0.029053	0.141879	1.000000	0.000010	0.000033	0.000042	-42.651455	-84.619228	43.615051
16171	9.884943	-0.652804	0.680240	0.005216	-0.021545	0.117091	1.000000	0.000010	0.000027	0.000034	-42.661674	-84.619432	43.615573
16172	9.883511	-0.657920	0.704880	-0.019359	-0.027066	0.117690	1.000000	0.000034	0.000040	0.000028	-42.653312	-84.618934	43.608245
16173	9.880284	-0.677412	0.676987	0.008714	-0.046379	0.113791	1.000000	0.000018	0.000034	0.000027	-42.649510	-84.619049	43.606257
16174	9.884691	-0.654376	0.682395	0.003193	-0.023233	0.117088	1.000000	0.000033	0.000033	0.000027	-42.646798	-84.619246	43.604522
16175	9.885959	-0.650323	0.659206	0.026421	-0.018856	0.116492	1.000000	0.000049	0.000039	0.000028	-42.636591	-84.618802	43.554326
16176	9.860557	-0.650684	0.683521	0.000597	-0.021242	0.092903	1.000000	0.000034	0.000040	0.000028	-42.628231	-84.618303	43.547001
16177	9.860467	-0.651251	0.684278	-0.000057	-0.021827	0.092901	1.000000	0.000033	0.000032	0.000035	-42.630580	-84.617998	43.553140
16178	9.863505	-0.632825	0.713767	-0.029456	-0.003618	0.096792	1.000000	0.000035	0.000048	0.000028	-42.616578	-84.616804	43.540230
16179	9.864775	-0.628860	0.690571	-0.006212	0.000764	0.096202	1.000000	0.000032	0.000024	0.000034	-42.625736	-84.617126	43.517965
16180	9.864711	-0.629256	0.691116	-0.006889	0.000211	0.096202	1.000000	0.000033	0.000027	0.000011	-42.613787	-84.619081	43.506921
16181	9.864646	-0.629509	0.691823	-0.007574	-0.000323	0.096201	1.000000	0.000042	0.000040	0.000020	-42.598827	-84.619139	43.469512
16182	9.864565	-0.629930	0.692595	-0.008251	-0.000875	0.096201	1.000000	0.000018	0.000034	0.000027	-42.596510	-84.619222	43.466419
16183	9.865857	-0.625902	0.669265	0.015020	0.003451	0.095621	1.000000	0.000017	0.000027	0.000026	-42.597526	-84.619914	43.403588
16184	9.870272	-0.602945	0.674653	0.009577	0.026613	0.098931	1.000000	0.000026	0.000040	0.000035	-42.596810	-84.618827	43.403038
16185	9.868812	-0.608048	0.699368	-0.014985	0.021162	0.099508	1.000000	0.000018	0.000034	0.000027	-42.592776	-84.618899	43.377487
16186	9.866985	-0.623033	0.647386	0.036924	0.006643	0.095051	1.000000	0.000017	0.000027	0.000026	-42.596102	-84.619678	43.379980
16187	9.888124	-0.637244	0.696330	-0.010359	-0.006791	0.120379	1.000000	0.000017	0.000027	0.000026	-42.598538	-84.620426	43.346948
16188	9.869985	-0.604851	0.677145	0.006929	0.024369	0.098939	1.000000	0.000018	0.000028	0.000011	-42.586972	-84.622268	43.334532
16189	9.868534	-0.609856	0.701715	-0.017637	0.018945	0.099508	1.000000	0.000033	0.000031	0.000042	-42.597196	-84.621396	43.320916
16190	9.866713	-0.624913	0.649719	0.034254	0.004362	0.095061	1.000000	0.000025	0.000027	0.000018	-42.592880	-84.622762	43.316636
16191	9.887837	-0.639041	0.698749	-0.013024	-0.009056	0.120374	1.000000	0.000026	0.000033	0.000027	-42.586573	-84.622896	43.281955
16192	9.893645	-0.611491	0.680184	0.005508	0.018948	0.123127	1.000000	0.000026	0.000033	0.000027	-42.584055	-84.623036	43.279538
16193	9.884559	-0.658969	0.671497	0.014251	-0.029071	0.116492	1.000000	0.000034	0.000033	0.000019	-42.572791	-84.623724	43.235660
16194	9.892106	-0.616908	0.705527	-0.019752	0.013017	0.123688	1.000000	0.000026	0.000033	0.000034	-42.577722	-84.623332	43.240700
16195	9.868062	-0.612794	0.705782	-0.021613	0.015612	0.099506	1.000000	0.000026	0.000041	0.000028	-42.568866	-84.622769	43.211363
16196	9.866571	-0.617955	0.730562	-0.046223	0.010259	0.100061	1.000000	0.000034	0.000039	0.000043	-42.575407	-84.621206	43.218954
16197	9.893216	-0.614276	0.683911	0.002197	0.016134	0.123133	1.000000	0.000033	0.000033	0.000027	-42.569854	-84.621371	43.173880
16198	9.869165	-0.610242	0.684228	0.000330	0.018735	0.098953	1.000000	0.000019	0.000048	0.000043	-42.571133	-84.619000	43.174512
16199	9.869068	-0.611046	0.684897	-0.000346	0.018165	0.098954	1.000000	0.000016	0.000018	0.000041	-42.593865	-84.619460	43.205808
16200	9.864471	-0.635220	0.680816	0.003645	-0.006116	0.095630	1.000000	0.000026	0.000041	0.000028	-42.585704	-84.618904	43.197804
16201	9.868888	-0.612352	0.686332	-0.001679	0.017049	0.098956	1.000000	0.000018	0.000040	0.000043	-42.591142	-84.617222	43.180017
16202	9.865676	-0.632114	0.658441	0.026236	-0.002460	0.095087	1.000000	0.000026	0.000033	0.000034	-42.596067	-84.616829	43.185051
16203	9.894054	-0.614018	0.664324	0.022115	0.017541	0.122596	1.000000	0.000010	0.000034	0.000042	-42.608162	-84.615698	43.131851
16204	9.840153	-0.633129	0.683169	-0.000223	-0.005170	0.071449	1.000000	0.000033	0.000027	0.000011	-42.596230	-84.617652	43.120825
16205	9.865427	-0.633839	0.660505	0.024226	-0.004171	0.095091	1.000000	0.000019	0.000048	0.000043	-42.595998	-84.615271	43.079174
16206	9.893811	-0.615598	0.666478	0.020100	0.015856	0.122603	1.000000	0.000025	0.000027	0.000018	-42.591692	-84.616637	43.074905
16207	9.860742	-0.658443	0.657207	0.027474	-0.029072	0.091762	1.000000	0.000018	0.000033	0.000034	-42.594172	-84.616115	42.999722
16208	9.865182	-0.635492	0.662579	0.022214	-0.005872	0.095095	1.000000	0.000018	0.000034	0.000027	-42.591848	-84.616198	42.996622
16209	9.863682	-0.640559	0.687223	-0.002408	-0.011116	0.095626	1.000000	0.000026	0.000033	0.000034	-42.595433	-84.615734	42.945929
16210	9.857651	-0.669154	0.707187	-0.022496	-0.040082	0.092819	1.000000	0.000018	0.000034	0.000027	-42.593109	-84.615816	42.942829
16211	9.863511	-0.641711	0.688602	-0.003760	-0.012225	0.095625	1.000000	0.000018	0.000033	0.000034	-42.596741	-84.615358	42.923564
16212	9.885965	-0.651337	0.713725	-0.027257	-0.020604	0.120328	1.000000	0.000018	0.000028	0.000011	-42.585185	-84.617200	42.911160
16213	9.893254	-0.619340	0.671267	0.015474	0.011887	0.122617	1.000000	0.000019	0.000048	0.000043	-42.585034	-84.614765	42.854065
16214	9.887209	-0.647940	0.691310	-0.004659	-0.017050	0.119801	1.000000	0.000025	0.000027	0.000018	-42.580730	-84.616131	42.849797
16215	9.882612	-0.671875	0.687186	-0.000819	-0.041374	0.116459	1.000000	0.000025	0.000026	0.000026	-42.582562	-84.616987	42.849080
16216	9.867649	-0.620658	0.696604	-0.011669	0.008782	0.098960	1.000000	0.000026	0.000033	0.000034	-42.587490	-84.616594	42.854116
16217	9.863036	-0.644681	0.692622	-0.007835	-0.015523	0.095618	1.000000	0.000026	0.000034	0.000019	-42.577068	-84.617238	42.825648
16218	9.891430	-0.626372	0.698610	-0.011891	0.004505	0.123138	1.000000	0.000034	0.000040	0.000035	-42.576170	-84.616206	42.825791
16219	9.864295	-0.641264	0.670188	0.014788	-0.012041	0.095103	1.000000	0.000033	0.000033	0.000027	-42.570669	-84.616462	42.814945
16220	9.892704	-0.622940	0.676024	0.010733	0.007983	0.122627	1.000000	0.000033	0.000025	0.000026	-42.573618	-84.617352	42.818815
16221	9.868675	-0.618707	0.676233	0.008942	0.010599	0.098450	1.000000	0.000035	0.000048	0.000028	-42.557570	-84.616182	42.801467
16222	9.864050	-0.642801	0.672318	0.012757	-0.013709	0.095104	1.000000	0.000040	0.000024	0.000034	-42.567775	-84.616597	42.813475
16223	9.873054	-0.596151	0.682346	0.003098	0.033245	0.101801	1.000000	0.000027	0.000042	0.000012	-42.543079	-84.617132	42.785291
16224	9.847590	-0.596233	0.706518	-0.022675	0.031291	0.078127	1.000000	0.000041	0.000032	0.000027	-42.540201	-84.617382	42.784268
16225	9.890856	-0.629787	0.703656	-0.016635	0.000592	0.123132	1.000000	0.000026	0.000033	0.000034	-42.545653	-84.617019	42.791589
16226	9.869729	-0.616680	0.655788	0.029506	0.012449	0.097957	1.000000	0.000025	0.000026	0.000026	-42.548780	-84.617853	42.794760
16227	9.895256	-0.607295	0.709399	-0.022429	0.023273	0.126482	1.000000	0.000024	0.000018	0.000025	-42.555200	-84.619295	42.726917
16228	9.850199	-0.589446	0.660884	0.022624	0.038272	0.077138	1.000000	0.000026	0.000033	0.000034	-42.560127	-84.618902	42.731951
16229	9.866610	-0.627218	0.705394	-0.020443	0.001594	0.098950	1.000000	0.000018	0.000034	0.000027	-42.556744	-84.619040	42.745115
16230	9.867992	-0.623178	0.682068	0.002850	0.005623	0.098458	1.000000	0.000010	0.000028	0.000018	-42.552787	-84.620293	42.739440
16231	9.867923	-0.623667	0.682616	0.002173	0.005081	0.098458	1.000000	0.000025	0.000025	0.000034	-42.563454	-84.620566	42.715000
16232	9.890325	-0.633514	0.707754	-0.021390	-0.003230	0.123123	1.000000	0.000018	0.000033	0.000034	-42.568560	-84.620116	42.719336
16233	9.894783	-0.610566	0.713177	-0.026536	0.019975	0.126480	1.000000	0.000026	0.000041	0.000028	-42.560154	-84.619625	42.729572
16234	9.893065	-0.625757	0.661367	0.025192	0.004786	0.122153	1.000000	0.000018	0.000033	0.000034	-42.565259	-84.619175	42.733907
