// Start Time: Unknown
// Update Rate: 100.0Hz
// Filter Profile: human (46.1)
// Firmware Version: 4.4.0
PacketCounter	Acc_X	Acc_Y	Acc_Z	FreeAcc_X	FreeAcc_Y	FreeAcc_Z	OriInc_q0	OriInc_q1	OriInc_q2	OriInc_q3	Roll	Pitch	Yaw
21720	9.842364	-1.061004	0.653670	0.000000	-0.000000	0.108258	1.000000	0.000035	0.000029	0.000041	-58.366754	-82.786717	59.237878
21721	9.854895	-1.063595	0.601276	0.037023	-0.005831	0.117585	1.000000	0.000025	0.000033	0.000042	-58.878153	-82.853565	59.643630
21722	9.857136	-1.055892	0.624740	0.014341	0.002721	0.120496	1.000000	0.000026	0.000035	0.000050	-58.871374	-82.846627	59.639763
21723	9.837717	-1.048141	0.597929	0.040244	0.009481	0.098674	1.000000	0.000030	0.000015	0.000019	-58.872134	-82.842911	59.642735
21724	9.839515	-1.072513	0.633239	0.005876	-0.014239	0.105331	1.000000	0.000034	0.000014	0.000052	-58.882057	-82.836998	59.656704
21725	9.871864	-1.051252	0.595882	0.045369	0.010652	0.132751	1.000000	0.000022	0.000039	0.000033	-58.844375	-82.836145	59.626330
21726	9.839259	-1.074080	0.634563	0.005843	-0.015156	0.105330	1.000000	0.000036	0.000030	0.000049	-58.839718	-82.829521	59.625763
21727	9.837257	-1.051155	0.600209	0.040182	0.008821	0.098675	1.000000	0.000028	0.000025	0.000034	-58.840392	-82.823489	59.628224
21728	9.871514	-1.053456	0.597791	0.045342	0.010907	0.132750	1.000000	0.000028	0.000025	0.000034	-58.833997	-82.818649	59.624984
21729	9.839428	-1.043842	0.624071	0.017411	0.016930	0.101587	1.000000	0.000035	0.000028	0.000033	-58.817347	-82.816247	59.614600
21730	9.838808	-1.076843	0.636872	0.005727	-0.015343	0.105330	1.000000	0.000021	0.000024	0.000044	-58.817040	-82.810557	59.616717
21731	9.836833	-1.053886	0.602364	0.040007	0.008720	0.098676	1.000000	0.000031	0.000018	0.000035	-58.827610	-82.804614	59.628910
21732	9.838581	-1.078286	0.637934	0.005639	-0.015002	0.105330	1.000000	0.000032	0.000036	0.000040	-58.814838	-82.798526	59.619782
21733	9.836593	-1.055377	0.603671	0.039877	0.008651	0.098677	1.000000	0.000018	0.000031	0.000043	-58.812534	-82.793218	59.619836
21734	9.873210	-1.049183	0.624078	0.022353	0.019286	0.135662	1.000000	0.000035	0.000027	0.000033	-58.802714	-82.788350	59.613970
21735	9.836384	-1.056637	0.604867	0.039697	0.008973	0.098677	1.000000	0.000027	0.000023	0.000026	-58.808436	-82.783304	59.620787
21736	9.851353	-1.050568	0.575085	0.070801	0.017601	0.110933	1.000000	0.000028	0.000026	0.000042	-58.804672	-82.777587	59.620245
21737	9.855459	-1.066396	0.633293	0.013461	0.002283	0.120497	1.000000	0.000031	0.000018	0.000035	-58.811864	-82.774671	59.631346
21738	9.843174	-1.032956	0.674664	-0.028638	0.034478	0.107405	1.000000	0.000025	0.000033	0.000042	-58.802588	-82.768613	59.624915
21739	9.855231	-1.067836	0.634422	0.013226	0.002496	0.120497	1.000000	0.000031	0.000018	0.000035	-58.815985	-82.763740	59.639989
21740	9.852746	-1.077131	0.612291	0.035907	-0.006056	0.117589	1.000000	0.000032	0.000036	0.000040	-58.803270	-82.757654	59.630918
21741	9.853183	-1.045466	0.600650	0.047233	0.026337	0.113846	1.000000	0.000037	0.000019	0.000026	-58.813511	-82.754456	59.644086
21742	9.855452	-1.037611	0.623741	0.024552	0.034889	0.116754	1.000000	0.000027	0.000011	0.000053	-58.826757	-82.748575	59.660580
21743	9.837333	-1.085991	0.644081	0.004034	-0.014699	0.105332	1.000000	0.000025	0.000032	0.000034	-58.827865	-82.745268	59.664078
21744	9.837764	-1.054433	0.632448	0.015722	0.017573	0.101589	1.000000	0.000028	0.000026	0.000042	-58.824096	-82.739554	59.663533
21745	9.852730	-1.048529	0.602732	0.046544	0.025789	0.113851	1.000000	0.000035	0.000029	0.000041	-58.818359	-82.736680	59.663094
21746	9.852619	-1.049234	0.603329	0.046544	0.025788	0.113851	1.000000	0.000028	0.000025	0.000034	-58.811985	-82.731844	59.659880
21747	9.837420	-1.056548	0.634270	0.014583	0.017097	0.101591	1.000000	0.000025	0.000032	0.000033	-58.832662	-82.729493	59.681903
21748	9.837320	-1.057194	0.634752	0.014582	0.017097	0.101591	1.000000	0.000034	0.000011	0.000036	-58.837306	-82.725342	59.690459
21749	9.834856	-1.066413	0.612508	0.037204	0.008348	0.098687	1.000000	0.000042	0.000030	0.000032	-58.821842	-82.721599	59.679113
21750	9.854563	-1.043318	0.628244	0.022942	0.034078	0.116760	1.000000	0.000021	0.000025	0.000052	-58.824035	-82.715033	59.683798
21751	9.852074	-1.052733	0.606131	0.044994	0.026043	0.113857	1.000000	0.000025	0.000032	0.000033	-58.849094	-82.709080	59.705781
21752	9.834500	-1.068656	0.614313	0.036575	0.008868	0.098689	1.000000	0.000021	0.000022	0.000036	-58.846195	-82.704255	59.705224
21753	9.851866	-1.054045	0.607228	0.044498	0.025737	0.113860	1.000000	0.000028	0.000025	0.000034	-58.852180	-82.702401	59.713554
21754	9.851763	-1.054653	0.607843	0.044501	0.025739	0.113860	1.000000	0.000042	0.000030	0.000032	-58.838947	-82.697492	59.705065
21755	9.817291	-1.053658	0.611290	0.038923	0.023268	0.079786	1.000000	0.000007	0.000019	0.000046	-58.853481	-82.695059	59.719805
21756	9.834084	-1.071234	0.616474	0.035651	0.008175	0.098693	1.000000	0.000041	0.000027	0.000016	-58.835098	-82.691906	59.706035
21757	9.868352	-1.073487	0.614129	0.040519	0.009892	0.132772	1.000000	0.000038	0.000022	0.000042	-58.835646	-82.689113	59.709998
21758	9.836814	-1.031754	0.628067	0.024396	0.048638	0.097859	1.000000	0.000019	0.000032	0.000051	-58.832114	-82.682182	59.708577
21759	9.868083	-1.075241	0.615387	0.039424	0.009450	0.132777	1.000000	0.000035	0.000029	0.000041	-58.857887	-82.681851	59.737350
21760	9.851080	-1.059022	0.611307	0.042708	0.024546	0.113871	1.000000	0.000028	0.000026	0.000042	-58.853841	-82.676116	59.736527
21761	9.850967	-1.059760	0.611837	0.041363	0.024046	0.113878	1.000000	0.000021	0.000022	0.000036	-58.892265	-82.677730	59.776531
21762	9.836335	-1.034950	0.630306	0.021964	0.047697	0.097870	1.000000	0.000042	0.000016	0.000051	-58.898343	-82.671788	59.787458
21763	9.853093	-1.052777	0.635482	0.018332	0.031801	0.116777	1.000000	0.000011	0.000027	0.000036	-58.888592	-82.671676	59.780426
21764	9.836100	-1.036528	0.631379	0.021619	0.046895	0.097874	1.000000	0.000018	0.000031	0.000043	-58.882398	-82.665649	59.776298
21765	9.848128	-1.071642	0.591200	0.063172	0.014497	0.110989	1.000000	0.000049	0.000019	0.000049	-58.901652	-82.662131	59.796590
21766	9.833485	-1.046856	0.609875	0.043783	0.038152	0.094981	1.000000	0.000022	0.000040	0.000041	-58.886575	-82.655710	59.783982
21767	9.852591	-1.055952	0.637996	0.017183	0.031279	0.116781	1.000000	0.000028	0.000025	0.000034	-58.897487	-82.654346	59.794250
21768	9.847774	-1.073838	0.593108	0.062559	0.014166	0.110994	1.000000	0.000028	0.000025	0.000034	-58.890625	-82.649459	59.790535
21769	9.835508	-1.040280	0.634431	0.019563	0.045957	0.097883	1.000000	0.000035	0.000029	0.000041	-58.909826	-82.648499	59.810384
21770	9.832391	-1.081924	0.624768	0.030556	0.005133	0.098712	1.000000	0.000022	0.000040	0.000041	-58.894690	-82.642046	59.797697
21771	9.867262	-1.052234	0.610182	0.046337	0.038882	0.129079	1.000000	0.000041	0.000015	0.000043	-58.925828	-82.642971	59.831543
21772	9.849669	-1.068014	0.618349	0.037935	0.021717	0.113897	1.000000	0.000021	0.000036	0.000017	-58.903186	-82.639157	59.811146
21773	9.832707	-1.051672	0.614114	0.040054	0.036473	0.095004	1.000000	0.000020	0.000008	0.000055	-58.957721	-82.638402	59.863118
21774	9.869315	-1.045560	0.634379	0.022503	0.047109	0.131974	1.000000	0.000042	0.000029	0.000024	-58.941817	-82.634326	59.851861
21775	9.832512	-1.052936	0.615075	0.039186	0.035533	0.095010	1.000000	0.000031	0.000018	0.000035	-58.953480	-82.637149	59.867912
21776	9.849267	-1.070601	0.620279	0.035901	0.020434	0.113908	1.000000	0.000028	0.000025	0.000034	-58.946784	-82.632270	59.864354
21777	9.832296	-1.054277	0.616218	0.038028	0.034572	0.095018	1.000000	0.000032	0.000036	0.000040	-58.957848	-82.634443	59.879945
21778	9.849679	-1.039827	0.609296	0.046443	0.051736	0.110207	1.000000	0.000028	0.000026	0.000042	-58.953718	-82.628719	59.879043
21779	9.866422	-1.057576	0.614520	0.042224	0.036422	0.129107	1.000000	0.000031	0.000018	0.000035	-58.984241	-82.627878	59.905076
21780	9.851148	-1.064897	0.645365	0.011140	0.027828	0.116800	1.000000	0.000018	0.000031	0.000043	-58.978148	-82.621798	59.900995
21781	9.851685	-1.033554	0.633527	0.022022	0.059678	0.113099	1.000000	0.000034	0.000014	0.000052	-59.010707	-82.620353	59.931619
21782	9.848554	-1.075154	0.623710	0.032997	0.018857	0.113921	1.000000	0.000022	0.000038	0.000025	-58.990817	-82.615636	59.914003
21783	9.829260	-1.067317	0.596929	0.057597	0.024434	0.092156	1.000000	0.000028	0.000025	0.000034	-59.016799	-82.619677	59.943015
21784	9.865865	-1.061130	0.617328	0.040022	0.035060	0.129121	1.000000	0.000028	0.000025	0.000034	-59.010449	-82.614799	59.939778
21785	9.831405	-1.059961	0.620670	0.033821	0.031977	0.095042	1.000000	0.000031	0.000018	0.000035	-59.029005	-82.618675	59.962723
21786	9.846475	-1.054017	0.590941	0.064907	0.040575	0.107362	1.000000	0.000032	0.000035	0.000032	-59.013874	-82.613468	59.951153
21787	9.848719	-1.045996	0.614233	0.041982	0.048069	0.110245	1.000000	0.000031	0.000018	0.000035	-58.997668	-82.615033	59.940281
21788	9.848621	-1.046643	0.614714	0.041991	0.048065	0.110245	1.000000	0.000028	0.000025	0.000034	-58.990782	-82.610193	59.936572
21789	9.850169	-1.070975	0.650233	0.006061	0.023403	0.116816	1.000000	0.000024	0.000017	0.000044	-59.034055	-82.614104	59.981633
21790	9.828530	-1.071974	0.600596	0.054736	0.021383	0.092180	1.000000	0.000025	0.000032	0.000033	-59.022061	-82.608968	59.972450
21791	9.850640	-1.040107	0.639031	0.016835	0.054332	0.113140	1.000000	0.000028	0.000025	0.000034	-59.021907	-82.613566	59.979986
21792	9.848187	-1.049482	0.616818	0.039516	0.045755	0.110266	1.000000	0.000031	0.000019	0.000043	-59.023037	-82.608284	59.984806
21793	9.845735	-1.058860	0.594605	0.061365	0.035983	0.107402	1.000000	0.000028	0.000025	0.000034	-59.021504	-82.611967	59.989281
21794	9.867147	-1.059250	0.645293	0.012684	0.037959	0.132030	1.000000	0.000021	0.000022	0.000036	-59.017923	-82.607289	59.988186
21795	9.847871	-1.051597	0.618258	0.037848	0.043140	0.110284	1.000000	0.000041	0.000015	0.000043	-59.022370	-82.611578	60.002398
21796	9.830928	-1.035328	0.614077	0.041160	0.058226	0.091405	1.000000	0.000032	0.000036	0.000040	-59.008878	-82.605685	59.992739
21797	9.847624	-1.053152	0.619547	0.036923	0.042226	0.110292	1.000000	0.000018	0.000031	0.000043	-59.019183	-82.606732	60.003330
21798	9.845170	-1.062546	0.597370	0.059606	0.033633	0.107421	1.000000	0.000031	0.000018	0.000035	-59.017384	-82.602428	60.005257
21799	9.881768	-1.056366	0.617823	0.040858	0.043260	0.144392	1.000000	0.000032	0.000035	0.000032	-59.025198	-82.605318	60.015669
21800	9.847296	-1.055213	0.621255	0.035776	0.041197	0.110300	1.000000	0.000031	0.000019	0.000043	-59.025996	-82.600158	60.020269
21801	9.847180	-1.056006	0.621732	0.034694	0.040337	0.110308	1.000000	0.000038	0.000022	0.000042	-59.047095	-82.602199	60.043259
21802	9.831870	-1.063274	0.652434	0.003607	0.031708	0.097957	1.000000	0.000016	0.000013	0.000038	-59.052267	-82.597986	60.050572
21803	9.830145	-1.040403	0.618020	0.037318	0.054210	0.091443	1.000000	0.000044	0.000048	0.000037	-59.026486	-82.599627	60.032444
21804	9.846819	-1.058262	0.623618	0.033989	0.039034	0.110315	1.000000	0.000029	0.000028	0.000050	-59.024268	-82.593304	60.033766
21805	9.859571	-1.061216	0.571188	0.087177	0.037344	0.119814	1.000000	0.000028	0.000025	0.000034	-59.000530	-82.598865	60.022237
21806	9.861798	-1.053288	0.594423	0.064484	0.045832	0.122681	1.000000	0.000021	0.000024	0.000044	-58.998732	-82.593523	60.023203
21807	9.846474	-1.060537	0.625190	0.032055	0.035938	0.110333	1.000000	0.000031	0.000018	0.000035	-59.021226	-82.599515	60.051878
21808	9.861592	-1.054681	0.595369	0.063113	0.044458	0.122696	1.000000	0.000028	0.000025	0.000034	-59.013698	-82.595088	60.047886
21809	9.829466	-1.044770	0.621437	0.034495	0.050181	0.091475	1.000000	0.000028	0.000025	0.000034	-59.022718	-82.596876	60.057848
21810	9.845409	-1.094675	0.639219	0.019452	0.002694	0.113974	1.000000	0.000025	0.000032	0.000033	-59.009800	-82.592114	60.048091
21811	9.826904	-1.054870	0.599925	0.055299	0.040628	0.088625	1.000000	0.000031	0.000021	0.000051	-59.066377	-82.595976	60.105753
21812	9.863475	-1.048926	0.620374	0.037633	0.051106	0.125583	1.000000	0.000053	0.000027	0.000039	-59.057217	-82.590989	60.102977
21813	9.831333	-1.039052	0.646547	0.007228	0.056390	0.094357	1.000000	0.000008	0.000034	0.000035	-59.122972	-82.599671	60.169950
21814	9.828880	-1.048466	0.624475	0.029858	0.047760	0.091502	1.000000	0.000028	0.000026	0.000042	-59.119458	-82.594532	60.170063
21815	9.843226	-1.074912	0.607197	0.048343	0.022874	0.107513	1.000000	0.000025	0.000032	0.000033	-59.114641	-82.597913	60.170429
21816	9.828643	-1.049989	0.625647	0.028925	0.046480	0.091510	1.000000	0.000024	0.000018	0.000052	-59.122294	-82.592299	60.181391
21817	9.826189	-1.059463	0.603524	0.049881	0.036633	0.088670	1.000000	0.000032	0.000035	0.000032	-59.145908	-82.598707	60.210838
21818	9.861227	-1.029797	0.588874	0.066545	0.070807	0.119161	1.000000	0.000024	0.000015	0.000036	-59.149013	-82.594931	60.217156
21819	9.828302	-1.052133	0.627399	0.025574	0.043583	0.091533	1.000000	0.000030	0.000043	0.000039	-59.157280	-82.600591	60.234184
21820	9.862536	-1.054837	0.625248	0.030514	0.045461	0.125635	1.000000	0.000024	0.000017	0.000044	-59.163047	-82.596025	60.243286
21821	9.828056	-1.053832	0.628402	0.024548	0.042979	0.091538	1.000000	0.000034	0.000014	0.000052	-59.198157	-82.595296	60.275790
21822	9.842394	-1.080391	0.610954	0.043808	0.019182	0.107542	1.000000	0.000028	0.000025	0.000034	-59.192887	-82.591235	60.274186
21823	9.844606	-1.072435	0.634249	0.019440	0.026838	0.110395	1.000000	0.000018	0.000031	0.000043	-59.232769	-82.594518	60.314118
21824	9.864380	-1.049402	0.650095	0.005008	0.052412	0.128494	1.000000	0.000022	0.000040	0.000041	-59.219621	-82.588949	60.303948
21825	9.840488	-1.059160	0.577936	0.075585	0.040724	0.101125	1.000000	0.000035	0.000029	0.000041	-59.218019	-82.591724	60.309615
21826	9.827439	-1.057738	0.631472	0.021733	0.040578	0.091555	1.000000	0.000014	0.000021	0.000045	-59.222330	-82.586914	60.316093
21827	9.861690	-1.060431	0.629120	0.027127	0.041816	0.125660	1.000000	0.000031	0.000018	0.000035	-59.189687	-82.584984	60.285683
21828	9.842483	-1.052728	0.602136	0.053073	0.048318	0.103972	1.000000	0.000053	0.000027	0.000039	-59.182014	-82.580356	60.284568
21829	9.829431	-1.051138	0.655853	-0.001213	0.047852	0.094404	1.000000	0.000022	0.000039	0.000033	-59.176365	-82.578551	60.275426
21830	9.839922	-1.062897	0.580713	0.075135	0.039232	0.101134	1.000000	0.000027	0.000011	0.000053	-59.189990	-82.573444	60.292825
21831	9.862041	-1.031306	0.618899	0.037184	0.073122	0.122088	1.000000	0.000021	0.000024	0.000044	-59.218701	-82.572030	60.317274
21832	9.844338	-1.047169	0.627026	0.028731	0.055902	0.106827	1.000000	0.000028	0.000025	0.000034	-59.213487	-82.567955	60.315707
21833	9.843397	-1.080107	0.639979	0.014195	0.022600	0.110414	1.000000	0.000021	0.000024	0.000044	-59.300833	-82.575547	60.403690
21834	9.844110	-1.048615	0.628185	0.025790	0.054782	0.106841	1.000000	0.000032	0.000035	0.000032	-59.287905	-82.571209	60.394835
21835	9.844007	-1.049270	0.628699	0.024812	0.054545	0.106845	1.000000	0.000016	0.000013	0.000038	-59.326949	-82.570724	60.426536
21836	9.843908	-1.049950	0.629114	0.024687	0.054453	0.106846	1.000000	0.000028	0.000025	0.000034	-59.323111	-82.566716	60.426302
21837	9.861406	-1.035470	0.622064	0.032150	0.070585	0.122124	1.000000	0.000028	0.000025	0.000034	-59.329603	-82.569432	60.435574
21838	9.858963	-1.044968	0.599949	0.054712	0.061938	0.119292	1.000000	0.000029	0.000028	0.000050	-59.330710	-82.563696	60.440436
21839	9.861159	-1.037134	0.623200	0.030720	0.068697	0.122141	1.000000	0.000038	0.000022	0.000042	-59.339130	-82.571088	60.461965
21840	9.843436	-1.053033	0.631341	0.022230	0.051471	0.106867	1.000000	0.000028	0.000026	0.000042	-59.337826	-82.566333	60.464428
21841	9.826567	-1.036657	0.627130	0.024671	0.065950	0.088041	1.000000	0.000025	0.000032	0.000033	-59.346950	-82.567284	60.471729
21842	9.859955	-1.071542	0.637443	0.017796	0.035505	0.125706	1.000000	0.000028	0.000026	0.000042	-59.345842	-82.562538	60.474380
21843	9.823999	-1.046940	0.605724	0.046915	0.056123	0.085221	1.000000	0.000026	0.000035	0.000049	-59.324451	-82.562411	60.458493
21844	9.860548	-1.041075	0.626288	0.029067	0.066497	0.122161	1.000000	0.000038	0.000022	0.000042	-59.325115	-82.557996	60.464127
21845	9.874860	-1.067570	0.609110	0.047289	0.042248	0.138170	1.000000	0.000022	0.000039	0.000033	-59.339346	-82.558292	60.475311
21846	9.860314	-1.042476	0.627647	0.027821	0.065857	0.122169	1.000000	0.000028	0.000026	0.000042	-59.338263	-82.553564	60.477998
21847	9.840268	-1.067004	0.613117	0.041264	0.039933	0.104065	1.000000	0.000028	0.000025	0.000034	-59.361379	-82.552591	60.496285
21848	9.860090	-1.043913	0.628773	0.026775	0.065490	0.122174	1.000000	0.000028	0.000026	0.000042	-59.360553	-82.547834	60.499186
21849	9.840032	-1.068518	0.614258	0.039229	0.039249	0.104076	1.000000	0.000028	0.000026	0.000042	-59.417777	-82.550435	60.553564
21850	9.875163	-1.039065	0.599597	0.055763	0.073364	0.134650	1.000000	0.000021	0.000022	0.000035	-59.418529	-82.546610	60.557156
21851	9.840688	-1.037883	0.602812	0.048436	0.070562	0.100556	1.000000	0.000031	0.000021	0.000051	-59.495648	-82.551479	60.634462
21852	9.840583	-1.038516	0.603425	0.048250	0.070460	0.100557	1.000000	0.000021	0.000036	0.000016	-59.478257	-82.548798	60.619824
21853	9.839595	-1.071241	0.616515	0.036896	0.037799	0.104091	1.000000	0.000038	0.000022	0.000042	-59.453009	-82.544193	60.592491
21854	9.857103	-1.056939	0.609464	0.045071	0.054806	0.119383	1.000000	0.000028	0.000026	0.000042	-59.453283	-82.539475	60.596447
21855	9.856988	-1.057652	0.610094	0.044325	0.053750	0.119392	1.000000	0.000025	0.000032	0.000033	-59.446961	-82.541770	60.593745
21856	9.856872	-1.058364	0.610724	0.044150	0.053649	0.119393	1.000000	0.000028	0.000026	0.000042	-59.447208	-82.537077	60.597693
21857	9.841430	-1.065505	0.641616	0.011591	0.044760	0.106918	1.000000	0.000035	0.000029	0.000041	-59.491795	-82.537389	60.639418
21858	9.856642	-1.059853	0.611865	0.042443	0.053208	0.119403	1.000000	0.000031	0.000018	0.000035	-59.495493	-82.533904	60.647091
21859	9.838897	-1.075639	0.619991	0.033043	0.035015	0.104115	1.000000	0.000035	0.000029	0.000041	-59.505014	-82.536710	60.661958
21860	9.841990	-1.035588	0.630829	0.021897	0.075751	0.103407	1.000000	0.000029	0.000028	0.000050	-59.508222	-82.531171	60.668919
21861	9.856272	-1.062205	0.613734	0.040203	0.051023	0.119424	1.000000	0.000022	0.000039	0.000033	-59.507745	-82.533514	60.669974
21862	9.841753	-1.037013	0.632186	0.020712	0.074658	0.103418	1.000000	0.000021	0.000022	0.000035	-59.509620	-82.529789	60.674685
21863	9.856050	-1.063584	0.614914	0.038921	0.050146	0.119433	1.000000	0.000028	0.000026	0.000042	-59.530875	-82.531071	60.696572
21864	9.838294	-1.079389	0.623039	0.030381	0.032946	0.104130	1.000000	0.000021	0.000022	0.000035	-59.532947	-82.527364	60.701479
21865	9.855834	-1.064976	0.615960	0.037894	0.048955	0.119443	1.000000	0.000028	0.000025	0.000034	-59.534447	-82.530378	60.708251
21866	9.875692	-1.041849	0.631430	0.023334	0.074497	0.137557	1.000000	0.000026	0.000008	0.000037	-59.547259	-82.527358	60.724672
21867	9.837977	-1.081428	0.624500	0.028404	0.031814	0.104140	1.000000	0.000030	0.000043	0.000039	-59.567636	-82.523304	60.737507
21868	9.823439	-1.056356	0.643070	0.008912	0.055460	0.088132	1.000000	0.000018	0.000031	0.000043	-59.567025	-82.518375	60.739387
21869	9.836374	-1.059365	0.590725	0.060370	0.053515	0.097861	1.000000	0.000052	0.000024	0.000023	-59.599249	-82.530937	60.786246
21870	9.857570	-1.059755	0.641658	0.011349	0.055322	0.122266	1.000000	0.000026	0.000036	0.000057	-59.600501	-82.524354	60.790995
21871	9.838406	-1.052401	0.614771	0.036833	0.060449	0.100673	1.000000	0.000029	0.000028	0.000050	-59.589215	-82.527180	60.789399
21872	9.835027	-1.094125	0.605128	0.047568	0.019492	0.101363	1.000000	0.000021	0.000022	0.000035	-59.591841	-82.523640	60.794951
21873	9.840480	-1.045215	0.638458	0.011300	0.068956	0.103474	1.000000	0.000031	0.000019	0.000043	-59.697420	-82.525272	60.890893
21874	9.838064	-1.054654	0.616373	0.033747	0.060287	0.100684	1.000000	0.000032	0.000034	0.000032	-59.689016	-82.521377	60.886581
21875	9.855610	-1.040315	0.609409	0.040409	0.077169	0.116013	1.000000	0.000021	0.000024	0.000043	-59.749033	-82.521412	60.940333
21876	9.852231	-1.081963	0.599759	0.051095	0.036223	0.116708	1.000000	0.000028	0.000025	0.000034	-59.749890	-82.517867	60.944820
21877	9.840016	-1.048149	0.640787	0.008161	0.067806	0.103485	1.000000	0.000029	0.000028	0.000050	-59.769825	-82.517706	60.965670
21878	9.855263	-1.042651	0.611026	0.038916	0.076224	0.116026	1.000000	0.000031	0.000018	0.000035	-59.776202	-82.514500	60.976053
21879	9.837510	-1.058266	0.619018	0.028823	0.058121	0.100713	1.000000	0.000030	0.000016	0.000027	-59.819498	-82.521051	61.022318
21880	9.837423	-1.058821	0.619449	0.028546	0.058010	0.100714	1.000000	0.000038	0.000020	0.000034	-59.822960	-82.517881	61.030602
21881	9.835014	-1.068258	0.597334	0.050691	0.047938	0.097944	1.000000	0.000035	0.000029	0.000041	-59.803339	-82.521416	61.021848
21882	9.857172	-1.036422	0.635687	0.013340	0.082012	0.118839	1.000000	0.000028	0.000025	0.000034	-59.804538	-82.517987	61.026742
21883	9.853787	-1.077982	0.626005	0.022868	0.039683	0.119531	1.000000	0.000031	0.000018	0.000035	-59.826169	-82.525067	61.056910
21884	9.854650	-1.046608	0.614137	0.034325	0.071837	0.116076	1.000000	0.000023	0.000042	0.000049	-59.821451	-82.519293	61.055311
21885	9.853542	-1.079464	0.627316	0.020174	0.038824	0.119540	1.000000	0.000037	0.000019	0.000026	-59.892881	-82.526121	61.127004
21886	9.852129	-1.056764	0.592653	0.054312	0.062424	0.113318	1.000000	0.000029	0.000028	0.000050	-59.899616	-82.521048	61.137604
21887	9.822240	-1.037937	0.641313	0.002810	0.077266	0.084738	1.000000	0.000025	0.000032	0.000033	-59.927384	-82.521366	61.162161
21888	9.802153	-1.062341	0.626911	0.016888	0.051506	0.066627	1.000000	0.000025	0.000032	0.000033	-59.924333	-82.517736	61.162447
21889	9.854069	-1.050214	0.617298	0.029104	0.069743	0.116107	1.000000	0.000029	0.000028	0.000050	-59.944406	-82.517449	61.184212
21890	9.851631	-1.059921	0.595300	0.051487	0.061061	0.113342	1.000000	0.000026	0.000035	0.000049	-59.946144	-82.512065	61.189417
21891	9.853823	-1.051801	0.618520	0.027423	0.070061	0.116110	1.000000	0.000030	0.000015	0.000019	-60.003772	-82.510870	61.234653
21892	9.836044	-1.067477	0.626460	0.018792	0.052872	0.100766	1.000000	0.000034	0.000014	0.000052	-60.022186	-82.506414	61.257590
21893	9.853610	-1.053255	0.619445	0.025631	0.068572	0.116125	1.000000	0.000022	0.000039	0.000032	-60.031991	-82.512041	61.275659
21894	9.851210	-1.062650	0.597388	0.047998	0.059892	0.113367	1.000000	0.000031	0.000018	0.000035	-60.040515	-82.509086	61.288235
21895	9.857977	-1.037075	0.665964	-0.022129	0.084787	0.121650	1.000000	0.000025	0.000033	0.000041	-60.093305	-82.512704	61.342106
21896	9.835582	-1.070308	0.628878	0.014622	0.050475	0.100786	1.000000	0.000035	0.000027	0.000033	-60.093601	-82.509451	61.346880
21897	9.853157	-1.056099	0.621796	0.020726	0.066535	0.116151	1.000000	0.000024	0.000018	0.000052	-60.164311	-82.514472	61.420239
21898	9.855320	-1.048195	0.645025	-0.002333	0.074966	0.118903	1.000000	0.000043	0.000031	0.000040	-60.164102	-82.510378	61.425388
21899	9.835235	-1.072603	0.630395	0.009772	0.049416	0.100797	1.000000	0.000026	0.000007	0.000029	-60.261116	-82.513079	61.513299
21900	9.838465	-1.032324	0.641001	-0.001537	0.090141	0.100124	1.000000	0.000033	0.000036	0.000040	-60.259563	-82.508687	61.515879
21901	9.818371	-1.056734	0.626472	0.011870	0.063774	0.082026	1.000000	0.000023	0.000014	0.000028	-60.282251	-82.511616	61.539767
21902	9.837224	-1.065684	0.654592	-0.014678	0.057003	0.103546	1.000000	0.000025	0.000032	0.000033	-60.281845	-82.508140	61.542628
21903	9.870224	-1.045167	0.617367	0.022901	0.080977	0.131545	1.000000	0.000028	0.000026	0.000042	-60.309350	-82.515287	61.581027
21904	9.818039	-1.058791	0.628207	0.009407	0.061935	0.082041	1.000000	0.000035	0.000029	0.000041	-60.313523	-82.511303	61.589754
21905	9.867700	-1.055418	0.595974	0.044317	0.071390	0.128818	1.000000	0.000025	0.000032	0.000033	-60.316829	-82.513214	61.595035
21906	9.853228	-1.030098	0.614394	0.024697	0.095037	0.112787	1.000000	0.000032	0.000034	0.000032	-60.313386	-82.509818	61.595716
21907	9.835399	-1.045903	0.622530	0.015713	0.077582	0.097422	1.000000	0.000017	0.000016	0.000054	-60.342161	-82.507502	61.621084
21908	9.833001	-1.055299	0.600611	0.038019	0.068895	0.094689	1.000000	0.000030	0.000055	0.000012	-60.314708	-82.504895	61.597285
21909	9.849537	-1.073045	0.606324	0.032420	0.053178	0.113468	1.000000	0.000034	0.000014	0.000052	-60.395796	-82.507320	61.677239
21910	9.853990	-1.056291	0.652100	-0.013389	0.070174	0.118929	1.000000	0.000028	0.000025	0.000034	-60.401718	-82.504275	61.686825
21911	9.852676	-1.033568	0.617419	0.019836	0.093400	0.112814	1.000000	0.000028	0.000025	0.000034	-60.432914	-82.505403	61.717413
21912	9.834848	-1.049268	0.625573	0.011141	0.076216	0.097439	1.000000	0.000028	0.000026	0.000042	-60.441340	-82.501479	61.729555
21913	9.814711	-1.073899	0.611159	0.024430	0.049627	0.079343	1.000000	0.000026	0.000035	0.000049	-60.457097	-82.502653	61.748611
21914	9.866661	-1.061864	0.601697	0.037079	0.068391	0.128869	1.000000	0.000032	0.000034	0.000032	-60.454657	-82.499311	61.750262
21915	9.851104	-1.068766	0.632582	0.004735	0.059246	0.116217	1.000000	0.000021	0.000024	0.000043	-60.492944	-82.500690	61.786804
21916	9.852081	-1.037361	0.620540	0.016080	0.091400	0.112839	1.000000	0.000028	0.000025	0.000034	-60.499498	-82.497699	61.797017
21917	9.868593	-1.055320	0.626100	0.011220	0.075496	0.131608	1.000000	0.000029	0.000028	0.000050	-60.536067	-82.498317	61.833445
21918	9.833019	-1.086050	0.641826	-0.005764	0.041259	0.100838	1.000000	0.000038	0.000020	0.000034	-60.544973	-82.495646	61.847183
21919	9.817387	-1.037390	0.624744	-0.005754	0.014821	0.079093	1.000000	0.000021	0.000022	0.000035	-59.531137	-82.913346	60.234446
21920	9.850532	-1.072437	0.635281	-0.013702	-0.016574	0.116372	1.000000	0.000035	0.000029	0.000041	-59.529134	-82.912959	60.233218
21921	9.831503	-1.064823	0.608274	0.012102	-0.010777	0.094988	1.000000	0.000035	0.000029	0.000041	-59.524200	-82.912446	60.229092
21922	9.849124	-1.050557	0.601277	0.019965	0.005331	0.110519	1.000000	0.000028	0.000025	0.000034	-59.523135	-82.912959	60.227935
21923	9.870191	-1.050833	0.652187	-0.029632	0.006838	0.134641	1.000000	0.000035	0.000029	0.000041	-59.525618	-82.912850	60.229807
21924	9.867787	-1.060419	0.630173	-0.007588	-0.002688	0.131898	1.000000	0.000018	0.000031	0.000043	-59.524819	-82.912176	60.227804
21925	9.848787	-1.052650	0.603129	0.018077	0.003121	0.110523	1.000000	0.000052	0.000024	0.000023	-59.519869	-82.914059	60.224513
21926	9.833215	-1.059497	0.633940	-0.013530	-0.005666	0.097727	1.000000	0.000021	0.000025	0.000051	-59.527291	-82.912833	60.231166
21927	9.848559	-1.054136	0.604268	0.017163	0.001605	0.110525	1.000000	0.000035	0.000027	0.000033	-59.512935	-82.912895	60.221343
21928	9.835250	-1.052159	0.657869	-0.037055	0.001612	0.100465	1.000000	0.000033	0.000036	0.000040	-59.505223	-82.912180	60.214035
21929	9.866064	-1.040615	0.598081	0.024532	0.016969	0.126070	1.000000	0.000035	0.000029	0.000041	-59.500480	-82.911546	60.206795
21930	9.848202	-1.056369	0.606183	0.015535	-0.000604	0.110528	1.000000	0.000024	0.000017	0.000044	-59.511087	-82.911529	60.216942
21931	9.846939	-1.089282	0.619428	0.002745	-0.033500	0.113606	1.000000	0.000030	0.000043	0.000039	-59.501178	-82.910625	60.203012
21932	9.813595	-1.055714	0.610050	0.009609	-0.003551	0.076359	1.000000	0.000024	0.000017	0.000044	-59.511784	-82.910608	60.213157
21933	9.848972	-1.082001	0.643195	-0.020994	-0.026184	0.116338	1.000000	0.000028	0.000025	0.000034	-59.510282	-82.911140	60.211858
21934	9.831124	-1.042199	0.603581	0.016917	0.011796	0.091911	1.000000	0.000033	0.000036	0.000040	-59.502570	-82.910426	60.204551
21935	9.884242	-1.053501	0.629342	-0.005338	0.006002	0.147439	1.000000	0.000028	0.000025	0.000034	-59.504584	-82.911077	60.204237
21936	9.830900	-1.043589	0.604835	0.015718	0.010333	0.091915	1.000000	0.000035	0.000029	0.000041	-59.502579	-82.910691	60.203007
21937	9.866253	-1.069925	0.638075	-0.014983	-0.012263	0.131882	1.000000	0.000031	0.000019	0.000043	-59.513543	-82.910695	60.207270
21938	9.812930	-1.059958	0.613379	0.006080	-0.007926	0.076359	1.000000	0.000030	0.000016	0.000027	-59.515668	-82.912418	60.209609
21939	9.849450	-1.054004	0.634113	-0.012500	0.001636	0.113265	1.000000	0.000030	0.000043	0.000039	-59.507290	-82.911579	60.197014
21940	9.828180	-1.055294	0.584538	0.035877	-0.001373	0.089189	1.000000	0.000029	0.000028	0.000050	-59.511247	-82.910335	60.201008
21941	9.863515	-1.081645	0.617826	0.005209	-0.024012	0.129143	1.000000	0.000028	0.000025	0.000034	-59.510928	-82.910956	60.201823
21942	9.864578	-1.050270	0.605670	0.016814	0.007414	0.126098	1.000000	0.000024	0.000017	0.000044	-59.521529	-82.910939	60.211963
21943	9.830113	-1.048731	0.608723	0.011469	0.005242	0.091925	1.000000	0.000035	0.000027	0.000033	-59.520963	-82.911564	60.207926
21944	9.848866	-1.057701	0.637021	-0.015443	-0.002034	0.113261	1.000000	0.000035	0.000027	0.000033	-59.516442	-82.912060	60.204117
21945	9.848756	-1.058423	0.637516	-0.016097	-0.002768	0.113260	1.000000	0.000024	0.000017	0.000044	-59.530596	-82.912278	60.218020
21946	9.846359	-1.068136	0.615426	0.005937	-0.012325	0.110531	1.000000	0.000026	0.000035	0.000049	-59.528834	-82.910707	60.215925
21947	9.831936	-1.042720	0.633649	-0.013495	0.011139	0.094655	1.000000	0.000044	0.000020	0.000016	-59.522595	-82.913212	60.206912
21948	9.863935	-1.054362	0.609014	0.013224	0.003018	0.126106	1.000000	0.000018	0.000031	0.000043	-59.521770	-82.912541	60.204885
21949	9.849497	-1.029171	0.627133	-0.006216	0.026455	0.110233	1.000000	0.000024	0.000017	0.000044	-59.533235	-82.912653	60.218257
21950	9.863707	-1.055934	0.609991	0.012061	0.001530	0.126108	1.000000	0.000028	0.000025	0.000034	-59.532163	-82.913170	60.217094
21951	9.812660	-1.037152	0.608081	0.010634	0.014709	0.073333	1.000000	0.000035	0.000029	0.000041	-59.527275	-82.912695	60.214978
21952	9.829126	-1.055046	0.613723	0.006310	-0.001393	0.091930	1.000000	0.000028	0.000025	0.000034	-59.526202	-82.913212	60.213814
21953	9.829020	-1.055658	0.614368	0.005781	-0.002143	0.091931	1.000000	0.000032	0.000034	0.000032	-59.514134	-82.913342	60.203443
21954	9.846687	-1.041408	0.607504	0.013651	0.013911	0.107518	1.000000	0.000043	0.000031	0.000040	-59.508675	-82.912939	60.199565
21955	9.863171	-1.059139	0.613089	0.009351	-0.002220	0.126111	1.000000	0.000030	0.000015	0.000019	-59.506479	-82.915570	60.200977
21956	9.846514	-1.042528	0.608398	0.012550	0.012412	0.107521	1.000000	0.000024	0.000017	0.000044	-59.517079	-82.915555	60.211116
21957	9.846394	-1.043322	0.608975	0.011972	0.011667	0.107523	1.000000	0.000033	0.000036	0.000040	-59.509664	-82.914914	60.203983
21958	9.847306	-1.067449	0.644829	-0.023398	-0.012399	0.113238	1.000000	0.000034	0.000014	0.000052	-59.525040	-82.914327	60.220137
21959	9.846155	-1.044993	0.609975	0.010851	0.010203	0.107525	1.000000	0.000028	0.000025	0.000034	-59.523856	-82.914746	60.213212
21960	9.850571	-1.027966	0.655779	-0.034908	0.027135	0.112964	1.000000	0.000021	0.000022	0.000035	-59.526226	-82.915284	60.214688
21961	9.825891	-1.070115	0.595964	0.023938	-0.016901	0.089211	1.000000	0.000028	0.000026	0.000042	-59.524872	-82.914814	60.212707
21962	9.877930	-1.058253	0.586414	0.036467	0.000538	0.138994	1.000000	0.000028	0.000025	0.000034	-59.523795	-82.915332	60.211539
21963	9.845721	-1.047794	0.612174	0.008556	0.007246	0.107530	1.000000	0.000035	0.000029	0.000041	-59.525679	-82.915167	60.210625
21964	9.864419	-1.056958	0.640399	-0.018389	-0.000031	0.128827	1.000000	0.000024	0.000017	0.000044	-59.536273	-82.915152	60.220758
21965	9.845502	-1.049231	0.613231	0.007421	0.005756	0.107532	1.000000	0.000032	0.000033	0.000024	-59.523278	-82.916281	60.209293
21966	9.845390	-1.049929	0.613825	0.006854	0.005019	0.107533	1.000000	0.000031	0.000021	0.000051	-59.532935	-82.915367	60.219357
21967	9.847529	-1.041881	0.636977	-0.016298	0.013112	0.110248	1.000000	0.000028	0.000025	0.000034	-59.531249	-82.915923	60.217680
21968	9.862975	-1.036485	0.607292	0.014168	0.020298	0.123145	1.000000	0.000028	0.000025	0.000034	-59.530171	-82.916442	60.216511
21969	9.862860	-1.037305	0.607769	0.013621	0.019531	0.123148	1.000000	0.000024	0.000018	0.000052	-59.541741	-82.915627	60.231598
21970	9.845936	-1.076232	0.651117	-0.030208	-0.021279	0.113204	1.000000	0.000038	0.000020	0.000034	-59.542940	-82.916453	60.233881
21971	9.843844	-1.030373	0.581067	0.038845	0.024586	0.101871	1.000000	0.000025	0.000032	0.000033	-59.537276	-82.916780	60.227066
21972	9.826908	-1.069168	0.624701	-0.004987	-0.016217	0.091918	1.000000	0.000033	0.000036	0.000040	-59.529537	-82.916073	60.219735
21973	9.826779	-1.070028	0.625259	-0.005546	-0.016963	0.091917	1.000000	0.000034	0.000014	0.000052	-59.544351	-82.915515	60.234203
21974	9.862300	-1.041015	0.610507	0.010764	0.015816	0.123158	1.000000	0.000028	0.000023	0.000026	-59.540767	-82.916914	60.230466
21975	9.846642	-1.047560	0.641366	-0.020861	0.007167	0.110246	1.000000	0.000032	0.000034	0.000032	-59.531546	-82.917197	60.219946
21976	9.858565	-1.083195	0.601778	0.019947	-0.026669	0.123390	1.000000	0.000031	0.000019	0.000043	-59.538694	-82.917164	60.227437
21977	9.844165	-1.057830	0.619885	0.000477	-0.003165	0.107536	1.000000	0.000025	0.000032	0.000033	-59.536628	-82.917725	60.225798
21978	9.827529	-1.041268	0.615235	0.003720	0.011494	0.088976	1.000000	0.000026	0.000008	0.000037	-59.550441	-82.918917	60.239457
21979	9.829669	-1.033118	0.638432	-0.019410	0.019601	0.091684	1.000000	0.000030	0.000043	0.000039	-59.535648	-82.917879	60.224736
21980	9.841565	-1.068875	0.599082	0.021390	-0.014247	0.104829	1.000000	0.000043	0.000033	0.000047	-59.532691	-82.916601	60.223426
21981	9.861530	-1.045857	0.614656	0.006620	0.010613	0.123168	1.000000	0.000023	0.000014	0.000028	-59.540282	-82.918524	60.229765
21982	9.843606	-1.061374	0.622694	-0.002386	-0.006870	0.107534	1.000000	0.000028	0.000026	0.000042	-59.541703	-82.918165	60.231161
21983	9.825666	-1.076925	0.630879	-0.011405	-0.024366	0.091896	1.000000	0.000035	0.000027	0.000033	-59.537343	-82.918784	60.229449
21984	9.843380	-1.062768	0.623884	-0.003534	-0.008361	0.107533	1.000000	0.000028	0.000026	0.000042	-59.538764	-82.918425	60.230844
21985	9.846810	-1.022611	0.634395	-0.014467	0.031912	0.107325	1.000000	0.000028	0.000026	0.000042	-59.541972	-82.918168	60.231097
21986	9.843158	-1.064220	0.624909	-0.004711	-0.009831	0.107531	1.000000	0.000023	0.000014	0.000028	-59.547556	-82.919914	60.236093
21987	9.843052	-1.064849	0.625523	-0.005287	-0.010578	0.107530	1.000000	0.000030	0.000043	0.000039	-59.534228	-82.918955	60.222832
21988	9.828645	-1.039597	0.643665	-0.024610	0.012959	0.091683	1.000000	0.000034	0.000014	0.000052	-59.549605	-82.918370	60.238985
21989	9.860640	-1.051666	0.619003	0.002032	0.004676	0.123175	1.000000	0.000028	0.000025	0.000034	-59.547851	-82.918875	60.235092
21990	9.842691	-1.067240	0.627122	-0.006976	-0.012794	0.107526	1.000000	0.000021	0.000024	0.000043	-59.552709	-82.918536	60.239120
21991	9.826049	-1.050790	0.622645	-0.003703	0.001876	0.088983	1.000000	0.000033	0.000036	0.000040	-59.544708	-82.917846	60.230078
21992	9.858041	-1.062748	0.598275	0.022917	-0.006416	0.120478	1.000000	0.000025	0.000032	0.000033	-59.537896	-82.918042	60.222809
21993	9.843657	-1.037325	0.616443	0.003681	0.017118	0.104637	1.000000	0.000035	0.000029	0.000041	-59.532532	-82.917510	60.217405
21994	9.860057	-1.055294	0.622099	-0.000727	0.000966	0.123176	1.000000	0.000013	0.000020	0.000037	-59.538325	-82.918071	60.221500
21995	9.859940	-1.056129	0.622545	-0.001213	0.000200	0.123176	1.000000	0.000031	0.000021	0.000051	-59.543986	-82.917061	60.231991
21996	9.843326	-1.039519	0.618029	0.002065	0.014879	0.104641	1.000000	0.000022	0.000036	0.000016	-59.526441	-82.918691	60.213493
21997	9.859736	-1.057258	0.623856	-0.002369	-0.001285	0.123176	1.000000	0.000053	0.000027	0.000039	-59.523939	-82.918700	60.213471
21998	9.841777	-1.072755	0.632038	-0.011377	-0.018741	0.107512	1.000000	0.000028	0.000025	0.000034	-59.522851	-82.919222	60.212295
21999	9.843899	-1.064575	0.655297	-0.034533	-0.010605	0.110204	1.000000	0.000025	0.000033	0.000041	-59.518624	-82.918581	60.206791
22000	9.827279	-1.048037	0.650787	-0.031247	0.004081	0.091672	1.000000	0.000028	0.000025	0.000034	-59.517535	-82.919104	60.205615
22001	9.875786	-1.077292	0.631379	-0.008580	-0.019659	0.141703	1.000000	0.000038	0.000022	0.000042	-59.524593	-82.919235	60.210371
22002	9.858280	-1.037759	0.591338	0.029589	0.018279	0.117625	1.000000	0.000024	0.000018	0.000052	-59.537674	-82.918344	60.223055
22003	9.842561	-1.044341	0.622068	-0.002049	0.009691	0.104647	1.000000	0.000024	0.000029	0.000017	-59.527309	-82.920554	60.220200
22004	9.840224	-1.053792	0.600073	0.019966	0.000072	0.101957	1.000000	0.000018	0.000031	0.000042	-59.526428	-82.919891	60.218121
22005	9.824481	-1.060508	0.630865	-0.011589	-0.008496	0.088973	1.000000	0.000038	0.000022	0.000042	-59.528735	-82.919780	60.219929
22006	9.842224	-1.046475	0.623818	-0.003716	0.007474	0.104649	1.000000	0.000028	0.000026	0.000042	-59.530147	-82.919425	60.221316
22007	9.824248	-1.061999	0.631968	-0.012723	-0.009965	0.088970	1.000000	0.000028	0.000025	0.000034	-59.529105	-82.919948	60.217240
22008	9.860725	-1.056257	0.652720	-0.031298	-0.000544	0.125856	1.000000	0.000028	0.000026	0.000042	-59.530516	-82.919592	60.218626
22009	9.839648	-1.057598	0.602826	0.017125	-0.003635	0.101962	1.000000	0.000031	0.000019	0.000043	-59.539018	-82.919727	60.230805
22010	9.841779	-1.049445	0.625846	-0.006021	0.004516	0.104649	1.000000	0.000024	0.000015	0.000036	-59.547100	-82.920596	60.238362
22011	9.839429	-1.059051	0.603850	0.016030	-0.005132	0.101963	1.000000	0.000030	0.000043	0.000039	-59.531534	-82.919576	60.228510
22012	9.858007	-1.068211	0.632458	-0.010991	-0.012419	0.123162	1.000000	0.000043	0.000033	0.000047	-59.528574	-82.918304	60.227199
22013	9.839158	-1.060738	0.605300	0.014918	-0.006617	0.101964	1.000000	0.000004	0.000026	0.000045	-59.533462	-82.917663	60.230377
22014	9.856918	-1.046682	0.598277	0.022789	0.009338	0.117655	1.000000	0.000035	0.000027	0.000033	-59.528940	-82.918169	60.226573
22015	9.859044	-1.038501	0.621395	-0.000344	0.017489	0.120341	1.000000	0.000024	0.000017	0.000044	-59.539018	-82.918130	60.234369
22016	9.838826	-1.062939	0.606822	0.013229	-0.008832	0.101965	1.000000	0.000028	0.000025	0.000034	-59.537929	-82.918655	60.233194
22017	9.859665	-1.063030	0.657715	-0.036370	-0.007231	0.125836	1.000000	0.000031	0.000018	0.000035	-59.542132	-82.919514	60.237801
22018	9.838622	-1.064309	0.607730	0.012102	-0.010313	0.101965	1.000000	0.000031	0.000019	0.000043	-59.549275	-82.919485	60.245288
22019	9.824257	-1.038872	0.625919	-0.007174	0.013282	0.086142	1.000000	0.000044	0.000048	0.000036	-59.529567	-82.918521	60.229647
22020	9.874956	-1.059396	0.629324	-0.007080	-0.001663	0.138848	1.000000	0.000009	0.000012	0.000047	-59.547006	-82.918548	60.245014
22021	9.838276	-1.066512	0.609464	0.010378	-0.012535	0.101964	1.000000	0.000038	0.000019	0.000026	-59.545832	-82.920274	60.243790
22022	9.839588	-1.035150	0.597257	0.022143	0.018855	0.099169	1.000000	0.000036	0.000030	0.000049	-59.546301	-82.919023	60.245103
22023	9.854510	-1.085239	0.615815	0.005348	-0.029473	0.120461	1.000000	0.000028	0.000025	0.000034	-59.544996	-82.919620	60.247400
22024	9.841589	-1.027726	0.621044	-0.001567	0.026267	0.101852	1.000000	0.000028	0.000026	0.000042	-59.546401	-82.919267	60.248782
22025	9.855709	-1.054632	0.604205	0.016546	0.001167	0.117672	1.000000	0.000018	0.000029	0.000034	-59.542754	-82.919538	60.246587
22026	9.839942	-1.061129	0.634957	-0.015034	-0.007346	0.104638	1.000000	0.000038	0.000020	0.000034	-59.543970	-82.920371	60.248890
22027	9.855492	-1.055943	0.605446	0.015382	-0.000311	0.117674	1.000000	0.000030	0.000043	0.000039	-59.531659	-82.919426	60.235789
22028	9.855362	-1.056798	0.606072	0.014815	-0.001050	0.117675	1.000000	0.000034	0.000014	0.000052	-59.547033	-82.918844	60.251938
22029	9.855248	-1.057606	0.606515	0.014196	-0.001792	0.117675	1.000000	0.000028	0.000025	0.000034	-59.547967	-82.919540	60.255156
22030	9.841690	-1.055247	0.659898	-0.039957	-0.001391	0.107306	1.000000	0.000028	0.000026	0.000042	-59.549370	-82.919188	60.256536
22031	9.857251	-1.050131	0.630224	-0.009534	0.005635	0.120350	1.000000	0.000021	0.000022	0.000035	-59.552579	-82.919788	60.258146
22032	9.854924	-1.059706	0.608123	0.012473	-0.004009	0.117677	1.000000	0.000028	0.000025	0.000034	-59.551489	-82.920315	60.256970
22033	9.857046	-1.051435	0.631253	-0.010681	0.004143	0.120350	1.000000	0.000021	0.000022	0.000035	-59.553997	-82.920974	60.264203
22034	9.838272	-1.043752	0.603919	0.015239	0.009962	0.099195	1.000000	0.000021	0.000022	0.000035	-59.556338	-82.921520	60.265652
22035	9.854608	-1.061744	0.609682	0.010783	-0.006242	0.117678	1.000000	0.000036	0.000029	0.000041	-59.553267	-82.921081	60.261161
22036	9.823114	-1.074192	0.670728	-0.051801	-0.022478	0.091561	1.000000	0.000018	0.000031	0.000042	-59.552357	-82.920423	60.259054
22037	9.835691	-1.055073	0.583001	0.036144	-0.001167	0.096529	1.000000	0.000034	0.000014	0.000052	-59.567467	-82.919849	60.275631
22038	9.856442	-1.055437	0.634009	-0.013488	0.000449	0.120347	1.000000	0.000033	0.000037	0.000048	-59.562188	-82.918276	60.270831
22039	9.836171	-1.079948	0.619706	0.000076	-0.025853	0.101944	1.000000	0.000036	0.000029	0.000041	-59.560402	-82.917913	60.268619
22040	9.855444	-1.033946	0.599866	0.020305	0.022182	0.114939	1.000000	0.000031	0.000019	0.000043	-59.567541	-82.917886	60.276103
22041	9.870295	-1.084009	0.618274	0.003488	-0.026153	0.136150	1.000000	0.000024	0.000015	0.000036	-59.573934	-82.918661	60.280998
22042	9.841771	-1.032249	0.653485	-0.034364	0.021884	0.104538	1.000000	0.000021	0.000022	0.000035	-59.576271	-82.919208	60.282444
22043	9.821511	-1.056625	0.639153	-0.020798	-0.004410	0.086131	1.000000	0.000030	0.000043	0.000039	-59.562957	-82.918182	60.267199
22044	9.837105	-1.051443	0.609568	0.009642	0.002580	0.099207	1.000000	0.000023	0.000014	0.000028	-59.568547	-82.919933	60.272201
22045	9.853426	-1.069434	0.615315	0.005108	-0.013630	0.117675	1.000000	0.000043	0.000033	0.000047	-59.566975	-82.918744	60.272082
22046	9.822659	-1.026771	0.628107	-0.010153	0.025506	0.083406	1.000000	0.000021	0.000024	0.000043	-59.571796	-82.918412	60.276075
22047	9.855404	-1.062069	0.639047	-0.018649	-0.006180	0.120337	1.000000	0.000038	0.000020	0.000034	-59.575252	-82.919369	60.279869
22048	9.836661	-1.054343	0.611724	0.007294	-0.000362	0.099209	1.000000	0.000028	0.000025	0.000034	-59.574160	-82.919898	60.278693
22049	9.855199	-1.063327	0.640107	-0.019756	-0.007656	0.120334	1.000000	0.000028	0.000025	0.000034	-59.571846	-82.920354	60.275092
22050	9.838665	-1.046746	0.635440	-0.016377	0.007087	0.101871	1.000000	0.000028	0.000026	0.000042	-59.573240	-82.920004	60.276464
22051	9.872907	-1.050029	0.633579	-0.012450	0.007506	0.136085	1.000000	0.000031	0.000018	0.000035	-59.577840	-82.920826	60.278580
22052	9.834011	-1.066050	0.591311	0.027627	-0.012239	0.096549	1.000000	0.000033	0.000036	0.000040	-59.570062	-82.920134	60.271219
22053	9.852522	-1.075074	0.619949	0.000523	-0.019527	0.117666	1.000000	0.000022	0.000039	0.000032	-59.558315	-82.920047	60.256982
22054	9.851702	-1.052803	0.585132	0.034914	0.002914	0.112310	1.000000	0.000024	0.000018	0.000052	-59.571363	-82.919160	60.269630
22055	9.854491	-1.067744	0.643648	-0.023169	-0.012078	0.120322	1.000000	0.000028	0.000025	0.000034	-59.569755	-82.919699	60.270315
22056	9.837288	-1.027992	0.603554	0.015182	0.025851	0.096520	1.000000	0.000035	0.000027	0.000033	-59.565238	-82.920211	60.266519
22057	9.840076	-1.042787	0.662218	-0.042922	0.010878	0.104523	1.000000	0.000036	0.000029	0.000041	-59.563826	-82.919854	60.263661
22058	9.869877	-1.064029	0.615308	0.006116	-0.006600	0.133425	1.000000	0.000036	0.000029	0.000041	-59.561793	-82.919488	60.262413
22059	9.851818	-1.079552	0.623338	-0.002889	-0.023965	0.117656	1.000000	0.000027	0.000010	0.000045	-59.577909	-82.919829	60.280690
22060	9.818902	-1.045691	0.613238	0.004474	0.006282	0.080760	1.000000	0.000028	0.000025	0.000034	-59.576814	-82.920361	60.279511
22061	9.853132	-1.049073	0.611478	0.008395	0.006669	0.114978	1.000000	0.000029	0.000028	0.000050	-59.580080	-82.919084	60.281401
22062	9.851455	-1.081941	0.624940	-0.004581	-0.026178	0.117650	1.000000	0.000036	0.000029	0.000041	-59.578046	-82.918718	60.280152
22063	9.855089	-1.041737	0.635382	-0.015297	0.014138	0.117634	1.000000	0.000026	0.000033	0.000041	-59.573644	-82.918018	60.273668
22064	9.853411	-1.074515	0.648899	-0.028277	-0.018707	0.120298	1.000000	0.000036	0.000029	0.000041	-59.571610	-82.917652	60.272419
22065	9.850427	-1.061223	0.591363	0.028697	-0.005229	0.112329	1.000000	0.000024	0.000017	0.000044	-59.581907	-82.917653	60.284559
22066	9.836138	-1.035681	0.609133	0.009546	0.018476	0.096543	1.000000	0.000038	0.000020	0.000034	-59.583139	-82.918491	60.286880
22067	9.865974	-1.056882	0.561985	0.058548	0.000952	0.125463	1.000000	0.000016	0.000013	0.000037	-59.595173	-82.919429	60.299168
22068	9.836592	-1.060066	0.645374	-0.026579	-0.006160	0.101850	1.000000	0.000028	0.000025	0.000034	-59.594078	-82.919961	60.297989
22069	9.817894	-1.052249	0.618139	-0.000611	-0.000341	0.080763	1.000000	0.000032	0.000033	0.000024	-59.581695	-82.921060	60.286856
22070	9.854340	-1.046611	0.638980	-0.019283	0.008969	0.117633	1.000000	0.000024	0.000018	0.000052	-59.594731	-82.920174	60.299492
22071	9.835612	-1.039244	0.611554	0.006693	0.014789	0.096552	1.000000	0.000031	0.000021	0.000051	-59.604540	-82.919275	60.309224
22072	9.886221	-1.060059	0.615032	0.006588	-0.000363	0.149205	1.000000	0.000028	0.000026	0.000042	-59.605922	-82.918928	60.310586
22073	9.835380	-1.040839	0.612571	0.005553	0.013313	0.096555	1.000000	0.000031	0.000018	0.000035	-59.610901	-82.919815	60.316753
22074	9.849460	-1.067774	0.595657	0.023555	-0.011885	0.112337	1.000000	0.000031	0.000018	0.000035	-59.615559	-82.920671	60.321694
22075	9.851552	-1.059492	0.618917	0.000422	-0.003676	0.114984	1.000000	0.000030	0.000043	0.000039	-59.602162	-82.919705	60.310781
22076	9.833458	-1.074960	0.627146	-0.008583	-0.021006	0.099186	1.000000	0.000024	0.000017	0.000044	-59.612714	-82.919699	60.320871
22077	9.851306	-1.061033	0.620203	-0.000706	-0.005152	0.114983	1.000000	0.000047	0.000041	0.000037	-59.597836	-82.918953	60.307120
22078	9.869169	-1.047056	0.613145	0.007165	0.010698	0.130784	1.000000	0.000019	0.000006	0.000038	-59.615080	-82.920167	60.323400
22079	9.851079	-1.062551	0.621209	-0.001850	-0.006627	0.114982	1.000000	0.000033	0.000037	0.000048	-59.610151	-82.918624	60.319132
22080	9.869534	-1.071670	0.649700	-0.028978	-0.013924	0.136044	1.000000	0.000031	0.000018	0.000035	-59.614808	-82.919481	60.324072
22081	9.834477	-1.046722	0.617027	0.001011	0.007409	0.096562	1.000000	0.000028	0.000026	0.000042	-59.616464	-82.919183	60.328668
22082	9.834360	-1.047501	0.617568	0.000446	0.006672	0.096563	1.000000	0.000038	0.000022	0.000042	-59.620179	-82.919143	60.333536
22083	9.850610	-1.065624	0.623368	-0.004139	-0.009580	0.114979	1.000000	0.000021	0.000024	0.000043	-59.625487	-82.918825	60.337264
22084	9.834151	-1.048836	0.618639	-0.000696	0.005202	0.096564	1.000000	0.000042	0.000027	0.000015	-59.612613	-82.921084	60.325796
22085	9.848210	-1.075746	0.601949	0.017286	-0.020016	0.112337	1.000000	0.000029	0.000028	0.000050	-59.616329	-82.919826	60.327946
22086	9.831719	-1.059295	0.597179	0.020733	-0.005232	0.093925	1.000000	0.000031	0.000019	0.000043	-59.623459	-82.919804	60.335423
22087	9.836016	-1.042041	0.642859	-0.024968	0.011955	0.099203	1.000000	0.000028	0.000025	0.000034	-59.623291	-82.920424	60.338923
22088	9.850065	-1.069076	0.626060	-0.006996	-0.013270	0.114973	1.000000	0.000031	0.000019	0.000043	-59.630423	-82.920402	60.346400
22089	9.851587	-1.037805	0.613668	0.004904	0.018092	0.112385	1.000000	0.000028	0.000025	0.000034	-59.628947	-82.920891	60.343418
22090	9.835680	-1.044154	0.644572	-0.026653	0.009751	0.099201	1.000000	0.000030	0.000043	0.000039	-59.615392	-82.919885	60.329920
22091	9.833358	-1.053933	0.622557	-0.004661	0.000047	0.096564	1.000000	0.000027	0.000010	0.000045	-59.631531	-82.920196	60.346320
22092	9.867613	-1.057184	0.620776	-0.000816	0.000346	0.130792	1.000000	0.000022	0.000036	0.000016	-59.613974	-82.921846	60.327826
22093	9.849515	-1.072471	0.628908	-0.009824	-0.016962	0.114965	1.000000	0.000034	0.000014	0.000052	-59.629413	-82.921295	60.346217
22094	9.830849	-1.064901	0.601516	0.016190	-0.011138	0.093929	1.000000	0.000042	0.000030	0.000031	-59.621486	-82.921797	60.339823
22095	9.850938	-1.041941	0.617079	0.001507	0.013666	0.112393	1.000000	0.000031	0.000019	0.000043	-59.628840	-82.921736	60.344343
22096	9.832824	-1.057293	0.625292	-0.007496	-0.003632	0.096562	1.000000	0.000022	0.000039	0.000032	-59.616221	-82.921627	60.330911
22097	9.850719	-1.043273	0.618319	0.000346	0.012197	0.112395	1.000000	0.000031	0.000018	0.000035	-59.622271	-82.922531	60.336433
22098	9.864762	-1.070338	0.601477	0.018293	-0.013054	0.128159	1.000000	0.000031	0.000019	0.000043	-59.629402	-82.922510	60.343910
22099	9.830297	-1.068422	0.604286	0.013314	-0.014807	0.093928	1.000000	0.000036	0.000029	0.000041	-59.627941	-82.922166	60.343030
22100	9.850387	-1.045475	0.619881	-0.001365	0.009986	0.112397	1.000000	0.000028	0.000025	0.000034	-59.626841	-82.922703	60.341848
22101	9.834475	-1.051743	0.650599	-0.032898	0.001677	0.099187	1.000000	0.000028	0.000025	0.000034	-59.624876	-82.923180	60.338888
22102	9.847976	-1.055818	0.598468	0.020073	-0.000471	0.109769	1.000000	0.000026	0.000033	0.000041	-59.620482	-82.922515	60.334110
22103	9.868058	-1.032963	0.614114	0.005379	0.024322	0.128243	1.000000	0.000028	0.000026	0.000042	-59.622560	-82.922201	60.336517
22104	9.828046	-1.104009	0.620122	-0.002002	-0.050581	0.096466	1.000000	0.000031	0.000019	0.000043	-59.629689	-82.922181	60.343993
22105	9.813283	-1.055406	0.602371	0.013969	-0.003685	0.075540	1.000000	0.000028	0.000025	0.000034	-59.628629	-82.922725	60.344469
22106	9.866059	-1.067125	0.628415	-0.008813	-0.009986	0.130783	1.000000	0.000026	0.000008	0.000037	-59.642467	-82.923923	60.358150
22107	9.849629	-1.050436	0.623528	-0.005308	0.004822	0.112400	1.000000	0.000025	0.000032	0.000033	-59.634857	-82.924084	60.349717
22108	9.831493	-1.065741	0.631841	-0.014312	-0.012455	0.096547	1.000000	0.000033	0.000036	0.000040	-59.627047	-82.923403	60.342331
22109	9.863517	-1.078253	0.607722	0.012056	-0.021188	0.128154	1.000000	0.000018	0.000031	0.000042	-59.625760	-82.922717	60.339038
22110	9.851446	-1.043654	0.648261	-0.029545	0.011601	0.115024	1.000000	0.000033	0.000036	0.000040	-59.617952	-82.922037	60.331654
22111	9.846943	-1.062454	0.603704	0.014986	-0.007114	0.109776	1.000000	0.000031	0.000019	0.000043	-59.624904	-82.921990	60.338766
22112	9.851216	-1.045143	0.649364	-0.030673	0.010130	0.115022	1.000000	0.000028	0.000025	0.000034	-59.623801	-82.922528	60.337582
22113	9.848926	-1.054816	0.627228	-0.008728	0.000403	0.112398	1.000000	0.000024	0.000015	0.000036	-59.633360	-82.923486	60.349534
22114	9.846638	-1.064491	0.605093	0.013251	-0.009327	0.109776	1.000000	0.000028	0.000025	0.000034	-59.632258	-82.924025	60.348352
22115	9.848728	-1.056113	0.628154	-0.009872	-0.001066	0.112397	1.000000	0.000031	0.000018	0.000035	-59.637483	-82.924886	60.353566
22116	9.848616	-1.056807	0.628747	-0.010439	-0.001804	0.112397	1.000000	0.000033	0.000036	0.000040	-59.629671	-82.924207	60.346178
22117	9.864814	-1.074850	0.634761	-0.015067	-0.018100	0.130764	1.000000	0.000028	0.000025	0.000034	-59.628029	-82.924710	60.345057
22118	9.848388	-1.058222	0.629938	-0.011560	-0.003280	0.112395	1.000000	0.000021	0.000024	0.000043	-59.632801	-82.924386	60.349004
22119	9.848279	-1.058958	0.630400	-0.010126	-0.003817	0.112396	1.000000	0.000031	0.000018	0.000035	-59.560302	-82.918496	60.273751
22120	9.813829	-1.056909	0.633086	-0.015050	-0.005512	0.078159	1.000000	0.000038	0.000022	0.000042	-59.563705	-82.918433	60.278265
22121	9.848052	-1.060438	0.631469	-0.011265	-0.005283	0.112394	1.000000	0.000026	0.000033	0.000041	-59.560021	-82.917768	60.273600
22122	9.831633	-1.043770	0.626701	-0.007743	0.009543	0.094031	1.000000	0.000038	0.000020	0.000034	-59.560953	-82.918584	60.275580
22123	9.845637	-1.070863	0.610114	0.010156	-0.015756	0.109772	1.000000	0.000016	0.000038	0.000041	-59.554103	-82.917574	60.266759
22124	9.861808	-1.089112	0.616040	0.005512	-0.032059	0.128131	1.000000	0.000034	0.000014	0.000052	-59.569142	-82.916972	60.282527
22125	9.847146	-1.040541	0.598053	0.021583	0.014851	0.107292	1.000000	0.000023	0.000014	0.000028	-59.573843	-82.918630	60.285307
22126	9.845300	-1.073132	0.611551	0.008494	-0.017964	0.109770	1.000000	0.000033	0.000036	0.000040	-59.565725	-82.917924	60.277570
22127	9.813016	-1.062107	0.636984	-0.018957	-0.010628	0.078148	1.000000	0.000021	0.000024	0.000043	-59.570232	-82.917555	60.281669
22128	9.844621	-1.051783	0.577241	0.042450	0.003631	0.104681	1.000000	0.000036	0.000029	0.000041	-59.567875	-82.917171	60.280058
22129	9.844940	-1.075382	0.613400	0.006805	-0.020169	0.109767	1.000000	0.000035	0.000027	0.000033	-59.563598	-82.917680	60.277569
22130	9.830704	-1.049725	0.631307	-0.012198	0.003677	0.094030	1.000000	0.000033	0.000037	0.000048	-59.557950	-82.916095	60.272365
22131	9.864938	-1.053112	0.629814	-0.008430	0.003880	0.128270	1.000000	0.000024	0.000029	0.000017	-59.546810	-82.918050	60.259580
22132	9.828320	-1.059933	0.609941	0.009206	-0.006797	0.091414	1.000000	0.000024	0.000017	0.000044	-59.557020	-82.918022	60.269284
22133	9.864731	-1.054489	0.630756	-0.009560	0.002416	0.128269	1.000000	0.000038	0.000022	0.000042	-59.561159	-82.917938	60.272100
22134	9.846154	-1.046859	0.603326	0.016522	0.008237	0.107309	1.000000	0.000028	0.000025	0.000034	-59.559733	-82.918450	60.270551
22135	9.866690	-1.046860	0.654418	-0.033222	0.009958	0.130881	1.000000	0.000028	0.000026	0.000042	-59.561077	-82.918096	60.273787
22136	9.862208	-1.065735	0.609851	0.011291	-0.008815	0.125655	1.000000	0.000028	0.000026	0.000042	-59.562120	-82.917729	60.274768
22137	9.847989	-1.040114	0.627544	-0.007714	0.015050	0.109925	1.000000	0.000031	0.000019	0.000043	-59.569816	-82.917717	60.283994
22138	9.846089	-1.072857	0.641027	-0.020826	-0.017757	0.112365	1.000000	0.000028	0.000026	0.000042	-59.570858	-82.917351	60.284975
22139	9.813417	-1.038922	0.630653	-0.013150	0.012674	0.075684	1.000000	0.000027	0.000010	0.000045	-59.586511	-82.917607	60.300627
22140	9.863944	-1.059681	0.634355	-0.013493	-0.002740	0.128264	1.000000	0.000022	0.000036	0.000016	-59.568625	-82.919234	60.281766
22141	9.827325	-1.066445	0.614601	0.004149	-0.013394	0.091411	1.000000	0.000038	0.000022	0.000041	-59.572469	-82.919156	60.285498
22142	9.863727	-1.060991	0.635528	-0.014620	-0.004208	0.128262	1.000000	0.000028	0.000026	0.000042	-59.573509	-82.918790	60.286477
22143	9.847340	-1.044414	0.630572	-0.011044	0.010648	0.109928	1.000000	0.000034	0.000012	0.000044	-59.585663	-82.918998	60.297429
22144	9.861328	-1.071573	0.613831	0.006808	-0.014704	0.125652	1.000000	0.000028	0.000025	0.000034	-59.584237	-82.919511	60.295880
22145	9.861216	-1.072285	0.614394	0.006263	-0.015439	0.125651	1.000000	0.000028	0.000026	0.000042	-59.584730	-82.919084	60.295631
22146	9.847000	-1.046630	0.632202	-0.012702	0.008443	0.109928	1.000000	0.000026	0.000033	0.000041	-59.580000	-82.918398	60.290477
22147	9.844706	-1.056381	0.610329	0.009263	-0.001321	0.107322	1.000000	0.000025	0.000032	0.000033	-59.573230	-82.918594	60.284289
22148	9.860859	-1.074495	0.616268	0.004574	-0.017651	0.125649	1.000000	0.000024	0.000017	0.000044	-59.583432	-82.918567	60.293986
22149	9.860403	-1.052264	0.581120	0.039115	0.004647	0.120638	1.000000	0.000038	0.000019	0.000026	-59.582274	-82.920259	60.294344
22150	9.844391	-1.058424	0.611860	0.007582	-0.003528	0.107323	1.000000	0.000043	0.000033	0.000047	-59.578976	-82.918983	60.292664
22151	9.862707	-1.067514	0.640415	-0.019645	-0.010819	0.128249	1.000000	0.000031	0.000018	0.000035	-59.583481	-82.919788	60.296557
22152	9.827904	-1.042508	0.607579	0.010603	0.010601	0.089002	1.000000	0.000026	0.000033	0.000041	-59.578746	-82.919102	60.291399
22153	9.844034	-1.060671	0.613706	0.005881	-0.005724	0.107323	1.000000	0.000026	0.000033	0.000041	-59.575209	-82.918438	60.287173
22154	9.828000	-1.066954	0.644398	-0.025651	-0.013884	0.093996	1.000000	0.000024	0.000017	0.000044	-59.585408	-82.918411	60.296867
22155	9.861884	-1.047736	0.607179	0.013204	0.009269	0.123253	1.000000	0.000036	0.000029	0.000041	-59.583350	-82.918016	60.295654
22156	9.843684	-1.062968	0.615355	0.004201	-0.007929	0.107322	1.000000	0.000028	0.000025	0.000034	-59.581922	-82.918531	60.294103
22157	9.861667	-1.049168	0.608235	0.012081	0.007799	0.123256	1.000000	0.000024	0.000017	0.000044	-59.592514	-82.918479	60.303091
22158	9.811298	-1.052490	0.641029	-0.023744	-0.001204	0.075673	1.000000	0.000035	0.000027	0.000033	-59.587689	-82.918978	60.298953
22159	9.841184	-1.074167	0.594374	0.025041	-0.019172	0.104722	1.000000	0.000036	0.000029	0.000041	-59.585668	-82.918592	60.298201
22160	9.861347	-1.051165	0.609965	0.010399	0.005588	0.123259	1.000000	0.000035	0.000026	0.000025	-59.578380	-82.919971	60.291539
22161	9.861562	-1.074634	0.646121	-0.025291	-0.018155	0.128225	1.000000	0.000028	0.000026	0.000042	-59.579650	-82.919585	60.292352
22162	9.843031	-1.067122	0.618603	0.000834	-0.012332	0.107319	1.000000	0.000024	0.000017	0.000044	-59.589847	-82.919559	60.302043
22163	9.844760	-1.036083	0.606145	0.012886	0.018993	0.104956	1.000000	0.000026	0.000035	0.000049	-59.587443	-82.917951	60.298826
22164	9.842793	-1.068597	0.619841	-0.000279	-0.013801	0.107317	1.000000	0.000042	0.000027	0.000015	-59.574301	-82.920193	60.287057
22165	9.842703	-1.069140	0.620337	-0.000825	-0.014539	0.107316	1.000000	0.000024	0.000017	0.000044	-59.583954	-82.920139	60.298283
22166	9.860685	-1.055427	0.613300	0.007061	0.001167	0.123264	1.000000	0.000026	0.000033	0.000041	-59.579210	-82.919455	60.293117
22167	9.842750	-1.093567	0.657112	-0.037098	-0.039005	0.112256	1.000000	0.000028	0.000026	0.000042	-59.581166	-82.919099	60.294957
22168	9.860450	-1.056904	0.614538	0.005925	-0.000301	0.123264	1.000000	0.000035	0.000027	0.000033	-59.576340	-82.919600	60.290819
22169	9.825999	-1.054724	0.617233	0.001093	-0.001853	0.089013	1.000000	0.000021	0.000024	0.000043	-59.580901	-82.919211	60.293803
22170	9.862384	-1.049341	0.638204	-0.017717	0.007287	0.125857	1.000000	0.000028	0.000026	0.000042	-59.581928	-82.918849	60.294771
22171	9.823599	-1.065430	0.595629	0.022499	-0.012374	0.086422	1.000000	0.000027	0.000010	0.000045	-59.598178	-82.919120	60.310935
22172	9.843786	-1.042408	0.611103	0.007863	0.012380	0.104972	1.000000	0.000022	0.000036	0.000016	-59.580281	-82.920753	60.292068
22173	9.841514	-1.052111	0.589224	0.029835	0.002591	0.102383	1.000000	0.000029	0.000028	0.000050	-59.583684	-82.919449	60.293454
22174	9.843559	-1.043814	0.612357	0.006755	0.010915	0.104974	1.000000	0.000028	0.000025	0.000034	-59.582250	-82.919966	60.291901
22175	9.841561	-1.076342	0.625974	-0.006443	-0.021868	0.107300	1.000000	0.000035	0.000027	0.000033	-59.578001	-82.920477	60.289645
22176	9.877686	-1.048050	0.611374	0.009888	0.010248	0.139230	1.000000	0.000021	0.000024	0.000043	-59.582418	-82.920131	60.293194
22177	9.845400	-1.036760	0.636610	-0.017455	0.017779	0.107565	1.000000	0.000035	0.000027	0.000033	-59.577927	-82.920615	60.289439
22178	9.825027	-1.060908	0.622097	-0.003937	-0.008445	0.089009	1.000000	0.000023	0.000014	0.000028	-59.583202	-82.922348	60.294086
22179	9.827082	-1.052438	0.645263	-0.027010	-0.000108	0.091595	1.000000	0.000030	0.000043	0.000039	-59.569186	-82.921288	60.279669
22180	9.842908	-1.047835	0.615950	0.003398	0.006510	0.104980	1.000000	0.000043	0.000033	0.000047	-59.565887	-82.920018	60.277990
22181	9.840633	-1.057615	0.594055	0.025343	-0.003285	0.102395	1.000000	0.000018	0.000028	0.000026	-59.560530	-82.921101	60.270049
22182	9.842704	-1.048980	0.617257	0.002265	0.005047	0.104981	1.000000	0.000032	0.000033	0.000024	-59.547464	-82.922161	60.257248
22183	9.856658	-1.076040	0.600775	0.020016	-0.020387	0.120675	1.000000	0.000021	0.000022	0.000035	-59.549964	-82.922704	60.260086
22184	9.840574	-1.082158	0.631437	-0.011508	-0.028467	0.107279	1.000000	0.000028	0.000026	0.000042	-59.550988	-82.922344	60.261051
22185	9.842386	-1.050963	0.618942	0.000572	0.002850	0.104982	1.000000	0.000028	0.000025	0.000034	-59.550105	-82.922846	60.259837
22186	9.856338	-1.078129	0.602281	0.018326	-0.022596	0.120674	1.000000	0.000034	0.000010	0.000036	-59.560225	-82.924007	60.270561
22187	9.825972	-1.034949	0.614444	0.003641	0.017021	0.086710	1.000000	0.000040	0.000040	0.000046	-59.552198	-82.922430	60.264471
22188	9.858250	-1.070537	0.626117	-0.005332	-0.014988	0.123253	1.000000	0.000028	0.000025	0.000034	-59.550759	-82.922949	60.262912
22189	9.839773	-1.063008	0.598659	0.020852	-0.009159	0.102402	1.000000	0.000029	0.000028	0.000050	-59.553666	-82.921631	60.264050
22190	9.859948	-1.040181	0.614270	0.006224	0.015584	0.120972	1.000000	0.000042	0.000030	0.000031	-59.545449	-82.922119	60.257331
22191	9.841696	-1.055349	0.622442	-0.002795	-0.001547	0.104982	1.000000	0.000021	0.000024	0.000043	-59.550602	-82.921778	60.262200
22192	9.875922	-1.059046	0.620851	0.000876	-0.001526	0.139240	1.000000	0.000021	0.000022	0.000035	-59.552550	-82.922313	60.263220
22193	9.841477	-1.056827	0.623401	-0.003925	-0.003012	0.104982	1.000000	0.000031	0.000019	0.000043	-59.560079	-82.922277	60.271525
22194	9.841356	-1.057597	0.624009	-0.004483	-0.003749	0.104981	1.000000	0.000033	0.000036	0.000040	-59.551930	-82.921582	60.263766
22195	9.839084	-1.067351	0.602252	0.017476	-0.013562	0.102404	1.000000	0.000040	0.000037	0.000030	-59.537945	-82.921698	60.249475
22196	9.854969	-1.062692	0.572720	0.047877	-0.006992	0.115827	1.000000	0.000024	0.000017	0.000044	-59.548130	-82.921675	60.259153
22197	9.841029	-1.059577	0.625804	-0.006172	-0.005940	0.104979	1.000000	0.000038	0.000018	0.000025	-59.547551	-82.923380	60.259399
22198	9.843085	-1.051089	0.648793	-0.029243	0.002412	0.107553	1.000000	0.000031	0.000019	0.000043	-59.554350	-82.923342	60.266501
22199	9.840819	-1.061024	0.626657	-0.007292	-0.007405	0.104977	1.000000	0.000024	0.000017	0.000044	-59.564838	-82.923292	60.276090
22200	9.875033	-1.064786	0.625161	-0.003637	-0.007405	0.139237	1.000000	0.000033	0.000036	0.000040	-59.556685	-82.922599	60.268326
22201	9.840571	-1.062556	0.627941	-0.008427	-0.008870	0.104975	1.000000	0.000036	0.000029	0.000041	-59.555210	-82.922240	60.268877
22202	9.860767	-1.039691	0.643468	-0.023051	0.015868	0.123557	1.000000	0.000021	0.000022	0.000035	-59.557154	-82.922776	60.269892
22203	9.840192	-1.041154	0.593314	0.025659	0.012603	0.100162	1.000000	0.000031	0.000018	0.000035	-59.561222	-82.923571	60.274055
22204	9.842404	-1.055538	0.651888	-0.032605	-0.001980	0.107543	1.000000	0.000024	0.000017	0.000044	-59.571405	-82.923549	60.283732
22205	9.844457	-1.047024	0.674905	-0.055668	0.006383	0.110112	1.000000	0.000052	0.000023	0.000023	-59.562953	-82.925186	60.278138
22206	9.842036	-1.034061	0.617347	0.001484	0.019490	0.102740	1.000000	0.000019	0.000032	0.000050	-59.564022	-82.923646	60.278038
22207	9.858075	-1.052375	0.623493	-0.003311	0.003096	0.120985	1.000000	0.000028	0.000026	0.000042	-59.564755	-82.923265	60.279881
22208	9.857957	-1.053171	0.624003	-0.003870	0.002358	0.120985	1.000000	0.000031	0.000019	0.000043	-59.571550	-82.923228	60.286980
22209	9.857849	-1.053871	0.624529	-0.004431	0.001631	0.120985	1.000000	0.000035	0.000027	0.000033	-59.567050	-82.923689	60.281124
22210	9.839562	-1.069089	0.632650	-0.013437	-0.015475	0.104962	1.000000	0.000031	0.000021	0.000051	-59.576298	-82.922774	60.290737
22211	9.839319	-1.046970	0.597549	0.021216	0.006721	0.100179	1.000000	0.000025	0.000029	0.000017	-59.564106	-82.924700	60.277890
22212	9.839365	-1.070287	0.633693	-0.014551	-0.016943	0.104958	1.000000	0.000024	0.000017	0.000044	-59.574286	-82.924678	60.287564
22213	9.859562	-1.047507	0.649231	-0.029175	0.007798	0.123550	1.000000	0.000033	0.000036	0.000040	-59.566484	-82.923960	60.279471
22214	9.857294	-1.057393	0.627332	-0.007227	-0.002044	0.120984	1.000000	0.000038	0.000022	0.000041	-59.569895	-82.923909	60.283996
22215	9.857180	-1.058179	0.627807	-0.007784	-0.002777	0.120983	1.000000	0.000031	0.000019	0.000043	-59.576695	-82.923847	60.291398
22216	9.840910	-1.041552	0.622683	-0.004081	0.012153	0.102751	1.000000	0.000024	0.000017	0.000044	-59.586871	-82.923825	60.301069
22217	9.822627	-1.056719	0.630656	-0.013097	-0.004932	0.086716	1.000000	0.000031	0.000018	0.000035	-59.591889	-82.924658	60.306143
22218	9.840696	-1.042967	0.623700	-0.005207	0.010689	0.102752	1.000000	0.000040	0.000038	0.000038	-59.580341	-82.923953	60.295796
22219	9.854579	-1.070354	0.607315	0.012479	-0.014827	0.118417	1.000000	0.000007	0.000019	0.000046	-59.591249	-82.923613	60.304728
22220	9.838420	-1.076429	0.637941	-0.019033	-0.022806	0.104938	1.000000	0.000053	0.000026	0.000039	-59.587897	-82.923533	60.304110
22221	9.842498	-1.036045	0.647899	-0.029378	0.017601	0.105314	1.000000	0.000003	0.000023	0.000029	-59.588528	-82.924632	60.301734
22222	9.840259	-1.045749	0.625928	-0.007431	0.007752	0.102753	1.000000	0.000043	0.000030	0.000031	-59.580319	-82.925126	60.295027
22223	9.838011	-1.055482	0.604067	0.014527	-0.002089	0.100193	1.000000	0.000025	0.000032	0.000033	-59.572863	-82.925240	60.283396
22224	9.837885	-1.056237	0.604809	0.013969	-0.002826	0.100193	1.000000	0.000033	0.000037	0.000048	-59.567148	-82.923672	60.278134
22225	9.837749	-1.057070	0.605567	0.013421	-0.003562	0.100194	1.000000	0.000026	0.000033	0.000041	-59.561931	-82.922966	60.273339
22226	9.853751	-1.075377	0.611848	0.008580	-0.019978	0.118412	1.000000	0.000026	0.000035	0.000049	-59.559598	-82.921413	60.270649
22227	9.837486	-1.058777	0.606850	0.012301	-0.005031	0.100195	1.000000	0.000041	0.000014	0.000042	-59.569072	-82.921666	60.281999
22228	9.839521	-1.050333	0.629841	-0.010758	0.003354	0.102752	1.000000	0.000028	0.000025	0.000034	-59.567624	-82.922190	60.280434
22229	9.837355	-1.082825	0.643523	-0.024038	-0.029397	0.104910	1.000000	0.000028	0.000025	0.000034	-59.565655	-82.922656	60.277436
22230	9.855440	-1.069113	0.636539	-0.016150	-0.013797	0.120964	1.000000	0.000036	0.000029	0.000040	-59.563277	-82.922287	60.275812
22231	9.839186	-1.052405	0.631616	-0.012410	0.001155	0.102751	1.000000	0.000036	0.000029	0.000040	-59.560726	-82.921873	60.273632
22232	9.853069	-1.079738	0.615145	0.005237	-0.024392	0.118405	1.000000	0.000024	0.000015	0.000036	-59.568443	-82.922732	60.280783
22233	9.855030	-1.048581	0.602629	0.017420	0.006893	0.116257	1.000000	0.000030	0.000043	0.000039	-59.554672	-82.921694	60.267043
22234	9.854960	-1.072037	0.639049	-0.018384	-0.016733	0.120955	1.000000	0.000028	0.000026	0.000042	-59.555671	-82.921340	60.267986
22235	9.838673	-1.032590	0.598294	0.020618	0.021107	0.098055	1.000000	0.000031	0.000018	0.000035	-59.559473	-82.922134	60.272243
22236	9.838620	-1.055993	0.634430	-0.015187	-0.002515	0.102747	1.000000	0.000038	0.000022	0.000041	-59.562883	-82.922085	60.276768
22237	9.836370	-1.065922	0.612407	0.006759	-0.012377	0.100194	1.000000	0.000038	0.000022	0.000041	-59.566148	-82.921991	60.280745
22238	9.856599	-1.043149	0.627899	-0.007848	0.012341	0.118815	1.000000	0.000028	0.000026	0.000042	-59.567144	-82.921639	60.281685
22239	9.836140	-1.067390	0.613541	0.005644	-0.013844	0.100192	1.000000	0.000035	0.000027	0.000032	-59.562351	-82.922107	60.277013
22240	9.854243	-1.053698	0.606556	0.013534	0.001738	0.116266	1.000000	0.000028	0.000026	0.000042	-59.563346	-82.921754	60.277952
22241	9.856260	-1.045344	0.629561	-0.009530	0.010149	0.118816	1.000000	0.000024	0.000017	0.000044	-59.574200	-82.921705	60.287247
22242	9.840038	-1.028700	0.624319	-0.005775	0.025108	0.100621	1.000000	0.000034	0.000012	0.000044	-59.586776	-82.921991	60.300489
22243	9.837811	-1.061318	0.638090	-0.019103	-0.007636	0.102738	1.000000	0.000030	0.000043	0.000039	-59.573144	-82.920989	60.288518
22244	9.851640	-1.066062	0.586105	0.033778	-0.010339	0.113721	1.000000	0.000024	0.000017	0.000044	-59.583302	-82.920971	60.298171
22245	9.853672	-1.057522	0.609176	0.010729	-0.001931	0.116269	1.000000	0.000032	0.000033	0.000024	-59.570196	-82.921995	60.284492
22246	9.871778	-1.043828	0.602326	0.018619	0.013639	0.132354	1.000000	0.000026	0.000035	0.000049	-59.567842	-82.920446	60.281783
22247	9.855552	-1.049884	0.633087	-0.012892	0.005745	0.118816	1.000000	0.000028	0.000026	0.000042	-59.569400	-82.920073	60.282779
22248	9.853304	-1.059854	0.611073	0.009043	-0.004136	0.116270	1.000000	0.000031	0.000019	0.000043	-59.576183	-82.920040	60.289867
22249	9.853177	-1.060744	0.611567	0.008477	-0.004871	0.116270	1.000000	0.000022	0.000025	0.000051	-59.583352	-82.918831	60.297871
22250	9.836947	-1.066814	0.642227	-0.023024	-0.012765	0.102724	1.000000	0.000028	0.000026	0.000042	-59.584343	-82.918480	60.298806
22251	9.852920	-1.062383	0.612871	0.007352	-0.006344	0.116270	1.000000	0.000030	0.000043	0.000039	-59.570708	-82.917481	60.286685
22252	9.852789	-1.063113	0.613713	0.006793	-0.007082	0.116270	1.000000	0.000033	0.000036	0.000039	-59.562539	-82.916796	60.278912
22253	9.873044	-1.040275	0.629186	-0.007811	0.017630	0.134908	1.000000	0.000034	0.000010	0.000036	-59.572779	-82.917945	60.290391
22254	9.850460	-1.073547	0.592248	0.028165	-0.017703	0.113728	1.000000	0.000022	0.000037	0.000024	-59.557301	-82.918712	60.274017
22255	9.854599	-1.055884	0.637919	-0.017373	-0.000137	0.118811	1.000000	0.000032	0.000021	0.000051	-59.566487	-82.917772	60.283583
22256	9.836257	-1.048455	0.610313	0.008898	0.005687	0.098093	1.000000	0.000028	0.000026	0.000042	-59.567476	-82.917421	60.284517
22257	9.817905	-1.063513	0.618447	-0.000114	-0.011335	0.081992	1.000000	0.000028	0.000025	0.000034	-59.566395	-82.917941	60.283966
22258	9.854225	-1.058303	0.639697	-0.019057	-0.002341	0.118807	1.000000	0.000034	0.000039	0.000055	-59.563108	-82.915502	60.281196
22259	9.849830	-1.077612	0.595334	0.025359	-0.021380	0.113728	1.000000	0.000021	0.000024	0.000043	-59.567819	-82.915142	60.284776
22260	9.835781	-1.051505	0.612733	0.006657	0.002753	0.098096	1.000000	0.000027	0.000022	0.000018	-59.561484	-82.917426	60.278205
22261	9.851759	-1.069625	0.618898	0.001755	-0.013696	0.116265	1.000000	0.000029	0.000028	0.000050	-59.564823	-82.916160	60.281275
22262	9.869877	-1.056132	0.611949	0.009644	0.001849	0.132375	1.000000	0.000036	0.000029	0.000040	-59.562443	-82.915796	60.279651
22263	9.839676	-1.035349	0.659574	-0.039975	0.018879	0.103171	1.000000	0.000036	0.000029	0.000040	-59.559805	-82.915350	60.275241
22264	9.851390	-1.071909	0.620824	0.000087	-0.015899	0.116262	1.000000	0.000025	0.000032	0.000033	-59.552560	-82.915559	60.267520
22265	9.869528	-1.058257	0.613912	0.007975	-0.000353	0.132377	1.000000	0.000036	0.000029	0.000040	-59.550398	-82.915172	60.266230
22266	9.853323	-1.041605	0.608973	0.011775	0.014630	0.114216	1.000000	0.000026	0.000035	0.000049	-59.548035	-82.913626	60.263513
22267	9.832820	-1.066023	0.594524	0.025260	-0.011540	0.095564	1.000000	0.000027	0.000010	0.000045	-59.563827	-82.913878	60.278003
22268	9.839090	-1.038999	0.662568	-0.042755	0.015221	0.103166	1.000000	0.000022	0.000036	0.000016	-59.545909	-82.915526	60.259132
22269	9.850887	-1.052894	0.587993	0.032584	0.003267	0.111688	1.000000	0.000034	0.000014	0.000052	-59.561615	-82.914899	60.274007
22270	9.855001	-1.035352	0.633579	-0.012944	0.020866	0.116755	1.000000	0.000033	0.000036	0.000039	-59.553443	-82.914218	60.266233
22271	9.832377	-1.068822	0.596829	0.023026	-0.014474	0.095565	1.000000	0.000036	0.000029	0.000040	-59.550744	-82.913808	60.263427
22272	9.868700	-1.063567	0.618020	0.004062	-0.005504	0.132378	1.000000	0.000028	0.000026	0.000042	-59.551726	-82.913460	60.264355
22273	9.834254	-1.061191	0.620495	-0.000581	-0.006766	0.098097	1.000000	0.000021	0.000024	0.000043	-59.556564	-82.913100	60.267705
22274	9.852325	-1.070245	0.649016	-0.027999	-0.014059	0.118777	1.000000	0.000026	0.000008	0.000037	-59.570055	-82.914281	60.280989
22275	9.836149	-1.053517	0.643911	-0.024170	0.000939	0.100625	1.000000	0.000041	0.000040	0.000046	-59.560571	-82.912667	60.272506
22276	9.854288	-1.040014	0.637025	-0.016277	0.016462	0.116758	1.000000	0.000038	0.000022	0.000041	-59.563980	-82.912624	60.277031
22277	9.870245	-1.058044	0.643303	-0.021214	-0.000003	0.134905	1.000000	0.000022	0.000036	0.000016	-59.546076	-82.914238	60.257721
22278	9.833694	-1.064673	0.623392	-0.003360	-0.010438	0.098093	1.000000	0.000029	0.000028	0.000050	-59.549494	-82.913012	60.261146
22279	9.867888	-1.068717	0.622098	0.000139	-0.010653	0.132375	1.000000	0.000036	0.000029	0.000040	-59.547540	-82.912650	60.260912
22280	9.851718	-1.051980	0.617051	0.003966	0.004346	0.114232	1.000000	0.000028	0.000026	0.000042	-59.548519	-82.912302	60.261838
22281	9.867644	-1.070292	0.623255	-0.000981	-0.012121	0.132373	1.000000	0.000021	0.000024	0.000043	-59.553020	-82.911916	60.263958
22282	9.819277	-1.041105	0.642514	-0.023688	0.011556	0.082475	1.000000	0.000021	0.000022	0.000035	-59.554923	-82.912461	60.264935
22283	9.833108	-1.068447	0.626174	-0.006154	-0.014100	0.098087	1.000000	0.000045	0.000022	0.000032	-59.552408	-82.913253	60.264238
22284	9.853391	-1.045586	0.641767	-0.020741	0.010594	0.116758	1.000000	0.000033	0.000036	0.000039	-59.544233	-82.912573	60.256461
22285	9.851156	-1.055471	0.620052	0.001183	0.000677	0.114234	1.000000	0.000023	0.000039	0.000032	-59.531156	-82.912429	60.242079
22286	9.853153	-1.046952	0.643188	-0.021854	0.009127	0.116757	1.000000	0.000031	0.000019	0.000043	-59.537926	-82.912401	60.249153
22287	9.832637	-1.071258	0.628760	-0.008376	-0.017035	0.098081	1.000000	0.000028	0.000026	0.000042	-59.538529	-82.912020	60.249715
22288	9.832518	-1.072050	0.629270	-0.008934	-0.017771	0.098079	1.000000	0.000031	0.000019	0.000043	-59.545298	-82.911992	60.256789
22289	9.834663	-1.040951	0.616586	0.003356	0.013484	0.096104	1.000000	0.000025	0.000032	0.000033	-59.538501	-82.912192	60.249901
22290	9.848471	-1.068390	0.600382	0.020868	-0.012193	0.111712	1.000000	0.000028	0.000026	0.000042	-59.539476	-82.911846	60.250823
22291	9.850466	-1.059866	0.623516	-0.002167	-0.003729	0.114233	1.000000	0.000025	0.000032	0.000033	-59.532411	-82.912010	60.242018
22292	9.852468	-1.051227	0.646697	-0.025201	0.004729	0.116752	1.000000	0.000043	0.000029	0.000031	-59.524233	-82.912514	60.235350
22293	9.848143	-1.070260	0.602430	0.019190	-0.014393	0.111713	1.000000	0.000023	0.000039	0.000032	-59.511338	-82.912385	60.221839
22294	9.850129	-1.061818	0.625511	-0.003845	-0.005934	0.114231	1.000000	0.000034	0.000014	0.000052	-59.526337	-82.911798	60.237562
22295	9.852122	-1.053389	0.648457	-0.026867	0.002531	0.116749	1.000000	0.000028	0.000025	0.000034	-59.524497	-82.912278	60.234812
22296	9.831787	-1.054982	0.598209	0.021942	-0.000849	0.093593	1.000000	0.000024	0.000015	0.000036	-59.532184	-82.913143	60.241933
22297	9.865993	-1.059040	0.596805	0.025419	-0.001114	0.127882	1.000000	0.000029	0.000028	0.000050	-59.535548	-82.911881	60.244821
22298	9.813241	-1.070819	0.606997	0.012378	-0.018537	0.077424	1.000000	0.000030	0.000041	0.000030	-59.519140	-82.911763	60.228395
22299	9.865757	-1.060506	0.598111	0.024299	-0.002588	0.127884	1.000000	0.000027	0.000010	0.000045	-59.535219	-82.912044	60.244423
22300	9.831331	-1.057993	0.600381	0.019714	-0.003785	0.093597	1.000000	0.000028	0.000025	0.000034	-59.533755	-82.912577	60.242847
22301	9.849336	-1.067084	0.629020	-0.007737	-0.011071	0.114225	1.000000	0.000034	0.000014	0.000052	-59.548570	-82.911939	60.257346
22302	9.831095	-1.059673	0.601280	0.018606	-0.005253	0.093599	1.000000	0.000028	0.000026	0.000042	-59.549539	-82.911594	60.258263
22303	9.835172	-1.042051	0.646939	-0.026893	0.012424	0.098626	1.000000	0.000026	0.000035	0.000049	-59.547044	-82.910050	60.256686
22304	9.832934	-1.052144	0.625097	-0.004979	0.002481	0.096113	1.000000	0.000028	0.000026	0.000042	-59.548013	-82.909706	60.257602
22305	9.867144	-1.056121	0.623791	-0.001515	0.002193	0.130402	1.000000	0.000028	0.000025	0.000034	-59.546374	-82.910204	60.255609
22306	9.848713	-1.071062	0.632020	-0.010526	-0.014752	0.114217	1.000000	0.000033	0.000036	0.000039	-59.538195	-82.909528	60.247830
22307	9.832591	-1.054322	0.626823	-0.006649	0.000284	0.096112	1.000000	0.000027	0.000010	0.000045	-59.554371	-82.909818	60.264255
22308	9.832505	-1.054905	0.627185	-0.007207	-0.000452	0.096112	1.000000	0.000027	0.000022	0.000018	-59.548046	-82.912107	60.257698
22309	9.830301	-1.064777	0.605231	0.014708	-0.010395	0.093601	1.000000	0.000029	0.000028	0.000050	-59.551417	-82.910848	60.260613
22310	9.864488	-1.068917	0.604034	0.018156	-0.010702	0.127892	1.000000	0.000026	0.000033	0.000041	-59.546587	-82.910186	60.255373
22311	9.848145	-1.074706	0.634677	-0.013325	-0.018414	0.114208	1.000000	0.000031	0.000019	0.000043	-59.553549	-82.910110	60.261407
22312	9.850356	-1.043697	0.621934	-0.000982	0.012819	0.112304	1.000000	0.000036	0.000029	0.000040	-59.551163	-82.909753	60.259781
22313	9.866242	-1.061933	0.628176	-0.006001	-0.003682	0.130400	1.000000	0.000031	0.000018	0.000035	-59.556075	-82.910584	60.264877
22314	9.850161	-1.044971	0.622888	-0.002107	0.011354	0.112305	1.000000	0.000020	0.000021	0.000027	-59.555532	-82.912009	60.263352
22315	9.831706	-1.060100	0.630949	-0.011117	-0.005569	0.096106	1.000000	0.000032	0.000024	0.000067	-59.569687	-82.909320	60.277967
22316	9.849912	-1.046636	0.624024	-0.003222	0.009886	0.112307	1.000000	0.000022	0.000036	0.000016	-59.551772	-82.910976	60.259104
22317	9.829391	-1.070585	0.609744	0.010223	-0.016255	0.093599	1.000000	0.000028	0.000025	0.000034	-59.550887	-82.911506	60.258792
22318	9.865697	-1.065325	0.630989	-0.008811	-0.007359	0.130396	1.000000	0.000036	0.000029	0.000040	-59.548501	-82.911150	60.257165
22319	9.815282	-1.045163	0.627693	-0.009209	0.007092	0.078015	1.000000	0.000028	0.000025	0.000034	-59.555513	-82.913534	60.254026
22320	9.885918	-1.043162	0.646987	-0.024258	0.016390	0.149105	1.000000	0.000031	0.000018	0.000035	-59.559878	-82.914392	60.258614
22321	9.849398	-1.049848	0.626725	-0.006331	0.006026	0.112308	1.000000	0.000024	0.000017	0.000044	-59.569752	-82.914341	60.267581
22322	9.814951	-1.047411	0.629119	-0.010873	0.004893	0.078014	1.000000	0.000026	0.000035	0.000049	-59.567365	-82.912809	60.264821
22323	9.863016	-1.078408	0.611157	0.010544	-0.020460	0.127888	1.000000	0.000021	0.000024	0.000043	-59.571553	-82.912439	60.267475
22324	9.812605	-1.058365	0.607698	0.010480	-0.005804	0.075513	1.000000	0.000024	0.000017	0.000044	-59.581694	-82.912433	60.277086
22325	9.848898	-1.053212	0.628935	-0.008563	0.003092	0.112308	1.000000	0.000033	0.000036	0.000039	-59.573749	-82.911722	60.268619
22326	9.850873	-1.044698	0.652065	-0.031583	0.011592	0.114807	1.000000	0.000038	0.000021	0.000041	-59.577192	-82.911690	60.273156
22327	9.867011	-1.040527	0.622480	-0.001222	0.017791	0.128528	1.000000	0.000031	0.000019	0.000043	-59.583832	-82.911638	60.280151
22328	9.830200	-1.069762	0.638056	-0.018692	-0.015283	0.096085	1.000000	0.000031	0.000019	0.000043	-59.590621	-82.911619	60.287223
22329	9.850523	-1.047079	0.653523	-0.033254	0.009391	0.114804	1.000000	0.000018	0.000031	0.000042	-59.589140	-82.910957	60.285068
22330	9.846216	-1.066323	0.609208	0.011105	-0.009827	0.109809	1.000000	0.000025	0.000032	0.000033	-59.581901	-82.911183	60.277336
22331	9.830126	-1.049538	0.604169	0.015036	0.005229	0.091739	1.000000	0.000026	0.000035	0.000049	-59.579464	-82.909643	60.275655
22332	9.864326	-1.053677	0.602863	0.018441	0.004860	0.126037	1.000000	0.000034	0.000010	0.000036	-59.589634	-82.910819	60.286405
22333	9.845863	-1.068618	0.610891	0.009436	-0.012038	0.109808	1.000000	0.000018	0.000031	0.000042	-59.587761	-82.910144	60.283191
22334	9.847840	-1.060061	0.633975	-0.013582	-0.003531	0.112302	1.000000	0.000028	0.000025	0.000034	-59.586325	-82.910687	60.281621
22335	9.831781	-1.043113	0.628794	-0.009640	0.011532	0.094238	1.000000	0.000035	0.000027	0.000032	-59.581435	-82.911187	60.277652
22336	9.845543	-1.070557	0.612641	0.007759	-0.014248	0.109806	1.000000	0.000028	0.000025	0.000034	-59.579998	-82.911730	60.276080
22337	9.863784	-1.057142	0.605652	0.015648	0.001175	0.126043	1.000000	0.000029	0.000028	0.000050	-59.583819	-82.910493	60.279686
22338	9.829353	-1.054557	0.607996	0.011136	0.000085	0.091746	1.000000	0.000038	0.000020	0.000033	-59.584842	-82.911340	60.281744
22339	9.863554	-1.058586	0.606885	0.014531	-0.000300	0.126045	1.000000	0.000030	0.000043	0.000038	-59.570752	-82.910331	60.267819
22340	9.847483	-1.041836	0.601700	0.018478	0.014762	0.107989	1.000000	0.000009	0.000012	0.000046	-59.587571	-82.910352	60.282483
22341	9.831085	-1.047533	0.632325	-0.012978	0.007132	0.094238	1.000000	0.000048	0.000041	0.000037	-59.572212	-82.909622	60.268709
22342	9.848990	-1.056531	0.661382	-0.040502	-0.000154	0.114782	1.000000	0.000026	0.000033	0.000041	-59.567390	-82.908972	60.263456
22343	9.847117	-1.044118	0.603722	0.016822	0.012553	0.107995	1.000000	0.000028	0.000026	0.000042	-59.568184	-82.908594	60.263517
22344	9.826548	-1.068279	0.589394	0.030261	-0.013583	0.089259	1.000000	0.000035	0.000027	0.000032	-59.563402	-82.909125	60.259414
22345	9.864924	-1.053780	0.633163	-0.011272	0.004537	0.128536	1.000000	0.000028	0.000026	0.000042	-59.564813	-82.908755	60.259946
22346	9.883179	-1.040365	0.626207	-0.003377	0.019937	0.144788	1.000000	0.000036	0.000029	0.000040	-59.562452	-82.908409	60.258323
22347	9.828289	-1.061248	0.613515	0.006123	-0.006523	0.091748	1.000000	0.000027	0.000010	0.000045	-59.578505	-82.908718	60.275029
22348	9.846576	-1.047635	0.606448	0.014019	0.008875	0.108003	1.000000	0.000022	0.000036	0.000016	-59.560614	-82.910385	60.256172
22349	9.846114	-1.070722	0.642820	-0.021975	-0.014541	0.112277	1.000000	0.000034	0.000014	0.000052	-59.575859	-82.909796	60.272646
22350	9.846351	-1.049135	0.607516	0.012898	0.007403	0.108006	1.000000	0.000026	0.000033	0.000041	-59.571031	-82.909147	60.267388
22351	9.880550	-1.053233	0.606367	0.016256	0.006984	0.142309	1.000000	0.000028	0.000025	0.000034	-59.570056	-82.909701	60.267433
22352	9.829826	-1.055419	0.638746	-0.019136	-0.000932	0.094231	1.000000	0.000028	0.000026	0.000042	-59.571034	-82.909368	60.268338
22353	9.877860	-1.086475	0.620860	0.002152	-0.026438	0.144085	1.000000	0.000028	0.000026	0.000042	-59.571787	-82.909017	60.269464
22354	9.827488	-1.066331	0.617532	0.002202	-0.011668	0.091745	1.000000	0.000033	0.000037	0.000047	-59.566037	-82.907479	60.264157
22355	9.847833	-1.043737	0.632971	-0.012352	0.012990	0.110494	1.000000	0.000027	0.000010	0.000045	-59.582037	-82.907770	60.280011
22356	9.845659	-1.053567	0.611053	0.009538	0.002985	0.108012	1.000000	0.000037	0.000041	0.000013	-59.557470	-82.909413	60.256104
22357	9.861470	-1.071724	0.617593	0.004438	-0.013571	0.126045	1.000000	0.000029	0.000028	0.000050	-59.560961	-82.908196	60.260279
22358	9.847509	-1.045723	0.634728	-0.014031	0.010782	0.110495	1.000000	0.000034	0.000012	0.000044	-59.573551	-82.908497	60.273508
22359	9.861240	-1.073327	0.618479	0.003320	-0.015045	0.126043	1.000000	0.000028	0.000025	0.000034	-59.572018	-82.909009	60.271453
22360	9.845214	-1.056453	0.613237	0.007303	0.000040	0.108015	1.000000	0.000028	0.000026	0.000042	-59.572993	-82.908678	60.272355
22361	9.845093	-1.057237	0.613813	0.006746	-0.000693	0.108015	1.000000	0.000028	0.000026	0.000042	-59.573981	-82.908320	60.273136
22362	9.826998	-1.049580	0.586141	0.033182	0.005120	0.087512	1.000000	0.000025	0.000030	0.000025	-59.564313	-82.909427	60.262921
22363	9.826470	-1.072698	0.622681	-0.002838	-0.018272	0.091735	1.000000	0.000026	0.000035	0.000049	-59.562431	-82.907903	60.261296
22364	9.863144	-1.045243	0.608180	0.013511	0.013208	0.124298	1.000000	0.000038	0.000021	0.000041	-59.565876	-82.907876	60.265837
22365	9.862617	-1.068365	0.644554	-0.022500	-0.010186	0.128513	1.000000	0.000028	0.000025	0.000034	-59.564313	-82.908400	60.264184
22366	9.842445	-1.070122	0.594322	0.026387	-0.013652	0.105539	1.000000	0.000021	0.000024	0.000043	-59.568622	-82.908082	60.267607
22367	9.812169	-1.048858	0.641557	-0.022963	0.003906	0.076186	1.000000	0.000028	0.000026	0.000042	-59.569835	-82.907729	60.268577
22368	9.828380	-1.044809	0.612097	0.007379	0.009991	0.089999	1.000000	0.000028	0.000026	0.000042	-59.570807	-82.907398	60.269476
22369	9.844157	-1.063173	0.618560	0.002267	-0.006574	0.108015	1.000000	0.000026	0.000033	0.000041	-59.565729	-82.906706	60.263156
22370	9.862002	-1.072216	0.647565	-0.025301	-0.013862	0.128502	1.000000	0.000026	0.000033	0.000041	-59.560893	-82.906060	60.257891
22371	9.844355	-1.042303	0.583954	0.036608	0.014608	0.103823	1.000000	0.000041	0.000014	0.000042	-59.570608	-82.906302	60.267856
22372	9.827467	-1.070236	0.650299	-0.030316	-0.015580	0.094191	1.000000	0.000028	0.000025	0.000034	-59.569165	-82.906849	60.266281
22373	9.841624	-1.075468	0.598259	0.022468	-0.018795	0.105540	1.000000	0.000024	0.000017	0.000044	-59.579229	-82.906815	60.275533
22374	9.827705	-1.049183	0.615445	0.004038	0.005595	0.090004	1.000000	0.000032	0.000033	0.000023	-59.566229	-82.907912	60.262799
22375	9.809182	-1.063913	0.623646	-0.004972	-0.011225	0.073704	1.000000	0.000028	0.000026	0.000042	-59.567163	-82.907551	60.263378
22376	9.859713	-1.063332	0.592563	0.029245	-0.004918	0.121842	1.000000	0.000033	0.000036	0.000039	-59.558989	-82.906893	60.255589
22377	9.845309	-1.059565	0.645803	-0.024653	-0.003160	0.110479	1.000000	0.000026	0.000033	0.000041	-59.554094	-82.906255	60.251459
22378	9.861546	-1.055462	0.616403	0.005683	0.002895	0.124314	1.000000	0.000028	0.000025	0.000034	-59.552648	-82.906803	60.249882
22379	9.843481	-1.047878	0.588688	0.032147	0.008706	0.103845	1.000000	0.000036	0.000029	0.000040	-59.550195	-82.906452	60.248810
22380	9.858785	-1.088575	0.630854	-0.008474	-0.030508	0.126005	1.000000	0.000034	0.000010	0.000036	-59.560369	-82.907632	60.259564
22381	9.845349	-1.039852	0.612216	0.008592	0.016524	0.106317	1.000000	0.000037	0.000044	0.000029	-59.540503	-82.907523	60.241430
22382	9.826794	-1.054718	0.620516	-0.000421	-0.000290	0.090007	1.000000	0.000022	0.000025	0.000051	-59.547215	-82.906330	60.247316
22383	9.860972	-1.059100	0.619333	0.002893	-0.000797	0.124315	1.000000	0.000021	0.000024	0.000043	-59.551242	-82.905979	60.250058
22384	9.860852	-1.059902	0.619879	0.002333	-0.001535	0.124316	1.000000	0.000028	0.000026	0.000042	-59.552208	-82.905650	60.250953
22385	9.860740	-1.060608	0.620439	0.001763	-0.002272	0.124316	1.000000	0.000028	0.000025	0.000034	-59.551175	-82.906215	60.250993
22386	9.844765	-1.043744	0.614982	0.005797	0.012842	0.106325	1.000000	0.000027	0.000010	0.000045	-59.567093	-82.906530	60.266736
22387	9.842077	-1.076239	0.628970	-0.007818	-0.019809	0.107994	1.000000	0.000030	0.000043	0.000038	-59.553498	-82.905534	60.252812
22388	9.844536	-1.045216	0.616147	0.004674	0.011375	0.106327	1.000000	0.000034	0.000010	0.000036	-59.563674	-82.906715	60.263568
22389	9.844435	-1.045843	0.616691	0.004122	0.010638	0.106328	1.000000	0.000023	0.000039	0.000032	-59.550335	-82.906610	60.249477
22390	9.858107	-1.073573	0.600766	0.021397	-0.015261	0.121852	1.000000	0.000022	0.000025	0.000051	-59.557039	-82.905418	60.255356
22391	9.862634	-1.033329	0.610356	0.011450	0.025227	0.122658	1.000000	0.000028	0.000025	0.000034	-59.555977	-82.905984	60.255303
22392	9.841505	-1.079762	0.631877	-0.010624	-0.023490	0.107984	1.000000	0.000028	0.000025	0.000034	-59.554529	-82.906534	60.253725
22393	9.841926	-1.058014	0.596502	0.024304	-0.001613	0.103871	1.000000	0.000038	0.000020	0.000033	-59.556020	-82.907395	60.257035
22394	9.828018	-1.031836	0.613636	0.005919	0.022818	0.088353	1.000000	0.000029	0.000028	0.000050	-59.559394	-82.906191	60.260396
22395	9.859627	-1.067678	0.625983	-0.003862	-0.009631	0.124311	1.000000	0.000025	0.000029	0.000017	-59.547562	-82.908130	60.246749
22396	9.843679	-1.050632	0.620610	0.000191	0.005494	0.106333	1.000000	0.000024	0.000017	0.000044	-59.557667	-82.908131	60.256324
22397	9.841502	-1.060777	0.598591	0.022055	-0.004557	0.103875	1.000000	0.000038	0.000021	0.000041	-59.561520	-82.908140	60.262916
22398	9.861912	-1.038041	0.614017	0.007515	0.020069	0.122673	1.000000	0.000028	0.000025	0.000034	-59.560072	-82.908691	60.261337
22399	9.843348	-1.052832	0.622134	-0.001494	0.003282	0.106334	1.000000	0.000028	0.000026	0.000042	-59.560851	-82.908355	60.262336
22400	9.861138	-1.061882	0.651046	-0.029107	-0.004006	0.126761	1.000000	0.000028	0.000026	0.000042	-59.561812	-82.908028	60.263226
22401	9.825208	-1.046052	0.594931	0.024440	0.008366	0.085909	1.000000	0.000028	0.000025	0.000034	-59.560679	-82.908550	60.261417
22402	9.858877	-1.072485	0.629574	-0.007800	-0.014790	0.124302	1.000000	0.000040	0.000011	0.000026	-59.565128	-82.910597	60.267201
22403	9.861396	-1.041399	0.616607	0.004732	0.016382	0.122682	1.000000	0.000036	0.000029	0.000040	-59.562193	-82.910231	60.264882
22404	9.840751	-1.065689	0.602196	0.018150	-0.009717	0.103880	1.000000	0.000034	0.000014	0.000051	-59.577196	-82.909658	60.280583
22405	9.824242	-1.071138	0.632672	-0.013291	-0.017172	0.089983	1.000000	0.000018	0.000028	0.000026	-59.570699	-82.910775	60.273064
22406	9.824713	-1.049349	0.597298	0.021666	0.004680	0.085918	1.000000	0.000038	0.000020	0.000033	-59.571742	-82.911630	60.275145
22407	9.843076	-1.036000	0.590164	0.029561	0.019980	0.102274	1.000000	0.000024	0.000017	0.000044	-59.581924	-82.911625	60.285122
22408	9.874640	-1.071969	0.602475	0.019730	-0.012509	0.138195	1.000000	0.000025	0.000032	0.000033	-59.574651	-82.911862	60.277365
22409	9.842273	-1.059812	0.627270	-0.007071	-0.004077	0.106332	1.000000	0.000036	0.000030	0.000048	-59.574500	-82.910622	60.277732
22410	9.857961	-1.078350	0.633872	-0.012271	-0.020691	0.124287	1.000000	0.000026	0.000035	0.000048	-59.572041	-82.909105	60.274907
22411	9.842610	-1.038992	0.592674	0.027331	0.017027	0.102286	1.000000	0.000045	0.000019	0.000016	-59.564985	-82.911721	60.270742
22412	9.844572	-1.030230	0.615664	0.004345	0.025617	0.104738	1.000000	0.000029	0.000028	0.000049	-59.568345	-82.910519	60.274091
22413	9.860276	-1.048778	0.621996	-0.000865	0.009006	0.122692	1.000000	0.000009	0.000012	0.000046	-59.585517	-82.910525	60.288705
22414	9.823220	-1.077664	0.637441	-0.018332	-0.023778	0.089961	1.000000	0.000031	0.000017	0.000035	-59.589888	-82.911392	60.293302
22415	9.858007	-1.059649	0.600337	0.020444	-0.001799	0.120245	1.000000	0.000021	0.000024	0.000043	-59.594176	-82.911055	60.296396
22416	9.839412	-1.074511	0.608372	0.011430	-0.018558	0.103877	1.000000	0.000031	0.000019	0.000043	-59.600951	-82.911045	60.303456
22417	9.844012	-1.034235	0.617899	0.001554	0.021942	0.104748	1.000000	0.000036	0.000029	0.000040	-59.598427	-82.910701	60.301896
22418	9.825421	-1.048954	0.626076	-0.007458	0.005188	0.088377	1.000000	0.000035	0.000027	0.000032	-59.593652	-82.911243	60.297806
22419	9.825304	-1.049725	0.626614	-0.008009	0.004457	0.088377	1.000000	0.000032	0.000021	0.000050	-59.602637	-82.910318	60.306404
22420	9.877973	-1.040093	0.617859	0.003681	0.019859	0.139070	1.000000	0.000014	0.000020	0.000036	-59.607830	-82.910894	60.309841
22421	9.818295	-1.101615	0.596247	0.022611	-0.047593	0.085050	1.000000	0.000023	0.000039	0.000032	-59.594594	-82.910814	60.296038
22422	9.859256	-1.055558	0.626676	-0.005891	0.002370	0.122694	1.000000	0.000032	0.000021	0.000050	-59.603768	-82.909928	60.305556
22423	9.861828	-1.024681	0.613539	0.006653	0.033536	0.121138	1.000000	0.000043	0.000006	0.000035	-59.617175	-82.911428	60.321352
22424	9.861730	-1.025412	0.613895	0.006095	0.032798	0.121140	1.000000	0.000021	0.000024	0.000043	-59.621444	-82.911116	60.324737
22425	9.845192	-1.030808	0.644292	-0.025346	0.025400	0.107201	1.000000	0.000034	0.000010	0.000036	-59.631936	-82.912299	60.336066
22426	9.856780	-1.067951	0.605751	0.014270	-0.009918	0.120251	1.000000	0.000011	0.000029	0.000043	-59.633697	-82.911685	60.335775
22427	9.838168	-1.082826	0.613723	0.005257	-0.026660	0.103864	1.000000	0.000027	0.000010	0.000045	-59.649547	-82.912005	60.351906
22428	9.856552	-1.069604	0.606541	0.013150	-0.011398	0.120251	1.000000	0.000038	0.000021	0.000041	-59.653000	-82.911985	60.356458
22429	9.876985	-1.046944	0.622069	-0.001371	0.013213	0.139082	1.000000	0.000033	0.000036	0.000039	-59.644536	-82.911294	60.347547
22430	9.847328	-1.002938	0.633344	-0.014995	0.053619	0.105668	1.000000	0.000035	0.000027	0.000032	-59.639765	-82.911838	60.343462
22431	9.876776	-1.048253	0.623169	-0.002496	0.011731	0.139083	1.000000	0.000026	0.000008	0.000037	-59.653410	-82.913053	60.357708
22432	9.842375	-1.045387	0.625157	-0.006828	0.010900	0.104764	1.000000	0.000021	0.000024	0.000043	-59.657672	-82.912742	60.361087
22433	9.835435	-1.096634	0.594341	0.024315	-0.040431	0.101414	1.000000	0.000019	0.000031	0.000042	-59.656177	-82.912107	60.358226
22434	9.855218	-1.096219	0.645761	-0.025771	-0.038366	0.124208	1.000000	0.000028	0.000025	0.000034	-59.654727	-82.912662	60.356648
22435	9.858494	-1.042759	0.597088	0.022363	0.015329	0.118729	1.000000	0.000044	0.000044	0.000020	-59.629498	-82.913435	60.333158
22436	9.858391	-1.043312	0.597823	0.021803	0.014590	0.118731	1.000000	0.000038	0.000021	0.000041	-59.632952	-82.913416	60.337711
22437	9.858267	-1.044165	0.598378	0.021243	0.013851	0.118734	1.000000	0.000029	0.000028	0.000049	-59.636333	-82.912219	60.341305
22438	9.839629	-1.059038	0.606526	0.012231	-0.002871	0.102330	1.000000	0.000029	0.000026	0.000042	-59.637273	-82.911898	60.342177
22439	9.855302	-1.077394	0.613032	0.006973	-0.019510	0.120245	1.000000	0.000028	0.000025	0.000034	-59.636060	-82.912424	60.340106
22440	9.855190	-1.078099	0.613594	0.006412	-0.020249	0.120244	1.000000	0.000029	0.000026	0.000042	-59.637000	-82.912103	60.340977
22441	9.818730	-1.084528	0.593418	0.024505	-0.030408	0.083487	1.000000	0.000033	0.000034	0.000031	-59.626910	-82.912325	60.331000
22442	9.839189	-1.061710	0.608976	0.009982	-0.005807	0.102331	1.000000	0.000035	0.000027	0.000032	-59.622138	-82.912870	60.326915
22443	9.839047	-1.062623	0.609682	0.009425	-0.006544	0.102331	1.000000	0.000027	0.000038	0.000064	-59.624329	-82.909591	60.328740
22444	9.856746	-1.071651	0.638720	-0.018255	-0.013831	0.122670	1.000000	0.000027	0.000021	0.000018	-59.618086	-82.911902	60.322254
22445	9.838829	-1.064039	0.610734	0.008310	-0.008018	0.102331	1.000000	0.000034	0.000014	0.000051	-59.632943	-82.911315	60.337633
22446	9.858562	-1.063845	0.662043	-0.041788	-0.005938	0.125096	1.000000	0.000029	0.000028	0.000049	-59.636271	-82.910117	60.340951
22447	9.822094	-1.070357	0.641842	-0.023676	-0.016086	0.088340	1.000000	0.000025	0.000032	0.000033	-59.629074	-82.910332	60.332691
22448	9.856984	-1.052471	0.604923	0.015085	0.005741	0.118753	1.000000	0.000029	0.000026	0.000042	-59.630010	-82.910011	60.333559
22449	9.838337	-1.067227	0.613084	0.006071	-0.010958	0.102330	1.000000	0.000036	0.000029	0.000040	-59.627726	-82.909666	60.331875
22450	9.843035	-1.026875	0.622558	-0.003731	0.029558	0.103285	1.000000	0.000021	0.000022	0.000035	-59.629584	-82.910234	60.332792
22451	9.842199	-1.049922	0.658993	-0.039866	0.006311	0.107184	1.000000	0.000032	0.000021	0.000050	-59.638412	-82.909332	60.341838
22452	9.824268	-1.042525	0.631074	-0.013292	0.012125	0.086860	1.000000	0.000038	0.000021	0.000041	-59.641865	-82.909315	60.346391
22453	9.837877	-1.070291	0.615134	0.003845	-0.013907	0.102328	1.000000	0.000028	0.000025	0.000034	-59.640151	-82.909849	60.344231
22454	9.841853	-1.052171	0.660562	-0.041537	0.004107	0.107178	1.000000	0.000029	0.000026	0.000041	-59.641083	-82.909530	60.345096
22455	9.806131	-1.036446	0.604316	0.012195	0.016469	0.066544	1.000000	0.000029	0.000026	0.000041	-59.641375	-82.909169	60.344689
22456	9.876651	-1.035096	0.624187	-0.003323	0.025163	0.137621	1.000000	0.000035	0.000027	0.000032	-59.636606	-82.909717	60.340609
22457	9.823722	-1.045997	0.633821	-0.016060	0.008452	0.086860	1.000000	0.000031	0.000017	0.000035	-59.641053	-82.910589	60.345572
22458	9.853832	-1.069174	0.587829	0.031921	-0.011024	0.116338	1.000000	0.000021	0.000022	0.000035	-59.642908	-82.911158	60.346486
22459	9.855029	-1.082751	0.646459	-0.026649	-0.024870	0.122629	1.000000	0.000032	-0.000005	0.000047	-59.670780	-82.912073	60.374316
22460	9.823418	-1.048218	0.634864	-0.017737	0.006254	0.086858	1.000000	0.000033	0.000036	0.000039	-59.662558	-82.911432	60.366490
22461	9.855547	-1.062121	0.611440	0.007824	-0.003855	0.118762	1.000000	0.000024	0.000017	0.000044	-59.672750	-82.911458	60.376942
22462	9.855440	-1.062851	0.611902	0.007263	-0.004593	0.118762	1.000000	0.000028	0.000025	0.000034	-59.671293	-82.912017	60.375360
22463	9.839585	-1.045884	0.606472	0.011437	0.010604	0.100883	1.000000	0.000029	0.000026	0.000041	-59.672626	-82.911714	60.377107
22464	9.853170	-1.073787	0.590511	0.028541	-0.015455	0.116342	1.000000	0.000024	0.000017	0.000044	-59.682702	-82.911718	60.386654
22465	9.853062	-1.074518	0.590973	0.027980	-0.016194	0.116342	1.000000	0.000028	0.000025	0.000034	-59.681271	-82.912277	60.385294
22466	9.854996	-1.065807	0.613895	0.005012	-0.007545	0.118762	1.000000	0.000031	0.000019	0.000042	-59.688036	-82.912271	60.392346
22467	9.855661	-1.044307	0.578477	0.040060	0.014201	0.114923	1.000000	0.000026	0.000032	0.000033	-59.680825	-82.912503	60.384520
22468	9.855547	-1.044980	0.579202	0.039501	0.013461	0.114927	1.000000	0.000033	0.000036	0.000039	-59.672600	-82.911864	60.376691
22469	9.873215	-1.053806	0.608370	0.011780	0.006176	0.135218	1.000000	0.000032	0.000032	0.000023	-59.659802	-82.912974	60.364198
22470	9.857382	-1.036756	0.602912	0.015975	0.021377	0.117350	1.000000	0.000024	0.000017	0.000044	-59.669878	-82.912980	60.373744
22471	9.852401	-1.078606	0.594551	0.024609	-0.020620	0.116343	1.000000	0.000036	0.000029	0.000040	-59.667602	-82.912626	60.371689
22472	9.817990	-1.075639	0.596705	0.020355	-0.021340	0.082014	1.000000	0.000029	0.000026	0.000041	-59.668526	-82.912309	60.372546
22473	9.854197	-1.070705	0.618193	0.001091	-0.012708	0.118758	1.000000	0.000036	0.000029	0.000040	-59.665685	-82.911990	60.370885
22474	9.874679	-1.047980	0.633823	-0.013420	0.011873	0.137637	1.000000	0.000030	0.000041	0.000030	-59.649236	-82.911916	60.354422
22475	9.838243	-1.054380	0.613499	0.004725	0.001758	0.100894	1.000000	0.000027	0.000010	0.000045	-59.665455	-82.912283	60.371808
22476	9.855885	-1.063449	0.642383	-0.023004	-0.005527	0.121168	1.000000	0.000019	0.000031	0.000042	-59.663844	-82.911665	60.368963
22477	9.838000	-1.055967	0.614654	0.003599	0.000289	0.100895	1.000000	0.000033	0.000036	0.000039	-59.656053	-82.911023	60.361562
22478	9.822177	-1.038882	0.609277	0.007810	0.015502	0.083037	1.000000	0.000028	0.000023	0.000026	-59.652210	-82.912461	60.357536
22479	9.837804	-1.057114	0.615822	0.002475	-0.001180	0.100895	1.000000	0.000028	0.000025	0.000034	-59.651073	-82.913011	60.356092
22480	9.836890	-1.079803	0.652407	-0.033712	-0.024376	0.104685	1.000000	0.000042	0.000028	0.000023	-59.640612	-82.914429	60.347080
22481	9.837611	-1.058218	0.617016	0.001353	-0.002655	0.100895	1.000000	0.000029	0.000026	0.000041	-59.641635	-82.914132	60.348649
22482	9.858089	-1.035686	0.632508	-0.013154	0.021921	0.119783	1.000000	0.000036	0.000030	0.000048	-59.641633	-82.912929	60.349455
22483	9.857967	-1.036562	0.632964	-0.013720	0.021188	0.119784	1.000000	0.000027	0.000010	0.000045	-59.657934	-82.913244	60.365522
22484	9.837273	-1.060515	0.618456	-0.000332	-0.004861	0.100894	1.000000	0.000028	0.000021	0.000018	-59.651706	-82.915560	60.359055
22485	9.820630	-1.065511	0.649053	-0.031741	-0.012091	0.086818	1.000000	0.000033	0.000036	0.000039	-59.643448	-82.914917	60.351235
22486	9.839101	-1.052281	0.642024	-0.023848	0.003076	0.103301	1.000000	0.000034	0.000010	0.000036	-59.653675	-82.916103	60.362043
22487	9.852670	-1.080141	0.626064	-0.006804	-0.023032	0.118737	1.000000	0.000029	0.000026	0.000041	-59.654861	-82.915820	60.364061
22488	9.838872	-1.053769	0.643090	-0.024974	0.001602	0.103298	1.000000	0.000026	0.000033	0.000040	-59.649932	-82.915194	60.358715
22489	9.871016	-1.067719	0.619688	0.000530	-0.008609	0.135223	1.000000	0.000024	0.000015	0.000036	-59.657453	-82.916047	60.365135
22490	9.836616	-1.064738	0.621641	-0.003690	-0.009280	0.100890	1.000000	0.000039	0.000023	0.000049	-59.663291	-82.915157	60.372134
22491	9.853072	-1.060889	0.592247	0.026608	-0.003537	0.114978	1.000000	0.000025	0.000028	0.000017	-59.650942	-82.917121	60.358511
22492	9.802137	-1.062209	0.624065	-0.008455	-0.010676	0.066556	1.000000	0.000040	-0.000001	0.000053	-59.677633	-82.917175	60.386603
22493	9.873482	-1.039113	0.607751	0.011540	0.020291	0.133881	1.000000	0.000004	0.000026	0.000044	-59.682776	-82.916587	60.389234
22494	9.856815	-1.044292	0.638179	-0.019867	0.013083	0.119788	1.000000	0.000048	0.000015	0.000033	-59.686403	-82.917753	60.395073
22495	9.849744	-1.095620	0.607322	0.011100	-0.038347	0.116315	1.000000	0.000017	0.000016	0.000053	-59.702515	-82.916916	60.410567
22496	9.859497	-1.014294	0.625391	-0.007738	0.043461	0.118458	1.000000	0.000045	0.000022	0.000032	-59.700294	-82.917772	60.410208
22497	9.851541	-1.087721	0.630685	-0.012412	-0.030406	0.118712	1.000000	0.000032	0.000021	0.000050	-59.709071	-82.916892	60.419625
22498	9.895594	-1.010205	0.647176	-0.027598	0.051314	0.155198	1.000000	0.000034	0.000010	0.000036	-59.719313	-82.918077	60.430449
22499	9.836514	-1.049463	0.589421	0.026922	0.006518	0.097158	1.000000	0.000046	0.000025	0.000048	-59.722209	-82.917203	60.435997
22500	9.872700	-1.044649	0.610960	0.007609	0.015108	0.133894	1.000000	0.000019	0.000031	0.000042	-59.720567	-82.916589	60.433124
22501	9.838304	-1.041550	0.613050	0.003413	0.014465	0.099561	1.000000	0.000028	0.000025	0.000034	-59.718987	-82.917162	60.431748
22502	9.884110	-1.082700	0.573214	0.046459	-0.021203	0.146922	1.000000	-0.000001	0.000015	0.000039	-59.730736	-82.917764	60.440112
22503	9.833147	-1.084025	0.605095	0.011420	-0.028283	0.098473	1.000000	0.000011	0.000027	0.000035	-59.730068	-82.918022	60.437140
22504	9.853670	-1.061405	0.620453	-0.003081	-0.003721	0.117384	1.000000	0.000031	0.000019	0.000042	-59.736831	-82.918019	60.444192
22505	9.793670	-1.122798	0.598830	0.015787	-0.070925	0.063039	1.000000	0.000019	0.000031	0.000042	-59.735199	-82.917406	60.441437
22506	9.867995	-1.067887	0.569275	0.049031	-0.008193	0.129109	1.000000	0.000025	0.000030	0.000025	-59.725513	-82.918538	60.431219
22507	9.849276	-1.082322	0.577665	0.040021	-0.024801	0.112591	1.000000	0.000045	0.000047	0.000036	-59.704676	-82.917577	60.412305
22508	9.851160	-1.073659	0.600969	0.017070	-0.016108	0.114987	1.000000	0.000009	0.000037	0.000050	-59.702851	-82.915785	60.408139
22509	9.869647	-1.060546	0.594132	0.024951	-0.000976	0.131510	1.000000	0.000043	0.000029	0.000031	-59.695362	-82.916315	60.401929
22510	9.852927	-1.065791	0.624713	-0.006451	-0.008141	0.117380	1.000000	0.000022	0.000027	0.000059	-59.704313	-82.914258	60.410116
22511	9.868447	-1.084415	0.631497	-0.011854	-0.024865	0.135189	1.000000	0.000040	0.000038	0.000038	-59.693103	-82.913651	60.400988
22512	9.839023	-1.040204	0.642480	-0.025134	0.015805	0.101963	1.000000	0.000053	0.000026	0.000039	-59.689965	-82.913622	60.400586
22513	9.857526	-1.027035	0.635591	-0.017245	0.030928	0.118493	1.000000	0.000043	0.000031	0.000039	-59.684488	-82.913283	60.396668
22514	9.838785	-1.041631	0.643806	-0.026254	0.014337	0.101962	1.000000	0.000036	0.000029	0.000040	-59.682096	-82.912963	60.395028
22515	9.861335	-1.009438	0.681787	-0.063131	0.048337	0.123278	1.000000	0.000040	0.000036	0.000030	-59.667988	-82.913176	60.381858
22516	9.822897	-1.025221	0.639158	-0.022523	0.028858	0.084159	1.000000	0.000019	0.000031	0.000042	-59.666339	-82.912564	60.378978
22517	9.840452	-1.034264	0.668165	-0.050309	0.021582	0.104351	1.000000	0.000024	0.000017	0.000044	-59.676456	-82.912541	60.388051
22518	9.817677	-1.067720	0.631549	-0.014546	-0.013888	0.083032	1.000000	0.000020	0.000044	0.000022	-59.655061	-82.913051	60.365423
22519	9.824589	-1.017703	0.663414	-0.046575	0.036109	0.086550	1.000000	0.000021	0.000022	0.000035	-59.656894	-82.913611	60.366129
22520	9.851750	-1.072741	0.631337	-0.012062	-0.015506	0.117366	1.000000	0.000035	0.000027	0.000032	-59.652128	-82.914168	60.362058
22521	9.854623	-1.041885	0.618224	0.000681	0.015602	0.116113	1.000000	0.000014	0.000021	0.000044	-59.659859	-82.913827	60.367187
22522	9.853550	-1.064724	0.654634	-0.035569	-0.007521	0.119750	1.000000	0.000034	0.000010	0.000036	-59.670097	-82.915015	60.378006
22523	9.799475	-1.062933	0.605621	0.009904	-0.011000	0.062843	1.000000	0.000012	0.000030	0.000051	-59.674012	-82.913512	60.379632
22524	9.856300	-1.034777	0.642016	-0.023376	0.022843	0.118502	1.000000	0.000028	0.000025	0.000033	-59.672544	-82.914079	60.378043
22525	9.814879	-1.082255	0.612743	0.003943	-0.028466	0.080631	1.000000	0.000034	0.000013	0.000051	-59.686967	-82.913456	60.392261
22526	9.840433	-1.018619	0.636888	-0.019616	0.037372	0.100715	1.000000	0.000033	0.000034	0.000031	-59.676350	-82.913703	60.381988
22527	9.816654	-1.074272	0.636320	-0.019554	-0.020479	0.083012	1.000000	0.000039	0.000023	0.000049	-59.682050	-82.912794	60.388540
22528	9.853823	-1.047332	0.621761	-0.003210	0.010444	0.116119	1.000000	0.000045	0.000022	0.000032	-59.679847	-82.913654	60.388200
22529	9.835076	-1.061874	0.629762	-0.012228	-0.006119	0.099563	1.000000	0.000024	0.000017	0.000044	-59.690203	-82.913673	60.398307
22530	9.869226	-1.066648	0.628822	-0.009206	-0.007034	0.133902	1.000000	0.000029	0.000028	0.000049	-59.693469	-82.912486	60.401568
22531	9.850480	-1.081083	0.636907	-0.018218	-0.023597	0.117341	1.000000	0.000045	0.000019	0.000016	-59.686477	-82.915100	60.396471
22532	9.835768	-1.041837	0.595153	0.021801	0.014040	0.095960	1.000000	0.000024	0.000017	0.000044	-59.696526	-82.915110	60.405991
22533	9.871935	-1.037117	0.616615	0.002442	0.022582	0.132684	1.000000	0.000029	0.000028	0.000049	-59.699746	-82.913889	60.408671
22534	9.851143	-1.061311	0.602356	0.015810	-0.003440	0.113740	1.000000	0.000029	0.000026	0.000041	-59.700642	-82.913580	60.409504
22535	9.871699	-1.038681	0.617766	0.001319	0.021105	0.132687	1.000000	0.000028	0.000025	0.000033	-59.699375	-82.914148	60.408246
22536	9.850923	-1.062735	0.603444	0.014686	-0.004915	0.113741	1.000000	0.000021	0.000024	0.000043	-59.703562	-82.913848	60.411556
22537	9.850809	-1.063447	0.604041	0.014135	-0.005654	0.113742	1.000000	0.000026	0.000032	0.000032	-59.695872	-82.914084	60.403126
22538	9.852705	-1.054623	0.627132	-0.008803	0.003075	0.116121	1.000000	0.000026	0.000033	0.000040	-59.690910	-82.913465	60.397750
22539	9.850576	-1.064939	0.605213	0.013008	-0.007130	0.113742	1.000000	0.000027	0.000010	0.000045	-59.707122	-82.913796	60.414053
22540	9.850459	-1.065729	0.605722	0.012447	-0.007868	0.113742	1.000000	0.000033	0.000036	0.000039	-59.698867	-82.913169	60.406202
22541	9.848328	-1.075901	0.584121	0.034256	-0.018075	0.111366	1.000000	0.000023	0.000039	0.000031	-59.686028	-82.913128	60.392842
22542	9.870911	-1.043686	0.621909	-0.002606	0.015934	0.132697	1.000000	0.000034	0.000010	0.000036	-59.696274	-82.914317	60.403669
22543	9.831479	-1.081469	0.615012	0.002308	-0.025885	0.097163	1.000000	0.000028	0.000025	0.000033	-59.694785	-82.914889	60.402221
22544	9.852052	-1.058765	0.630405	-0.012177	-0.001346	0.116117	1.000000	0.000028	0.000025	0.000033	-59.693313	-82.915458	60.400631
22545	9.834312	-1.051312	0.602515	0.014527	0.004470	0.095982	1.000000	0.000026	0.000035	0.000048	-59.691369	-82.913945	60.398013
22546	9.831101	-1.083771	0.617009	0.000616	-0.028086	0.097157	1.000000	0.000024	0.000042	0.000047	-59.682911	-82.912141	60.388850
22547	9.849639	-1.070805	0.610089	0.008505	-0.013026	0.113741	1.000000	0.000041	0.000014	0.000042	-59.692265	-82.912447	60.399872
22548	9.851536	-1.061970	0.633072	-0.014429	-0.004286	0.116114	1.000000	0.000023	0.000039	0.000031	-59.679076	-82.912397	60.385864
22549	9.820209	-1.027207	0.621548	-0.005176	0.027033	0.080604	1.000000	0.000043	0.000032	0.000047	-59.676009	-82.911160	60.383917
22550	9.837691	-1.036164	0.650789	-0.033014	0.019754	0.100730	1.000000	0.000026	0.000032	0.000032	-59.668679	-82.911420	60.376118
22551	9.851177	-1.064049	0.635160	-0.016105	-0.006492	0.116110	1.000000	0.000028	0.000025	0.000033	-59.666863	-82.911984	60.374246
22552	9.839477	-1.027943	0.674412	-0.056495	0.027765	0.103100	1.000000	0.000026	0.000033	0.000040	-59.661898	-82.911367	60.368869
22553	9.837352	-1.038228	0.652627	-0.034673	0.017550	0.100729	1.000000	0.000039	0.000021	0.000041	-59.665069	-82.911322	60.372657
22554	9.835241	-1.048463	0.630729	-0.012860	0.007329	0.098359	1.000000	0.000021	0.000022	0.000035	-59.666881	-82.911901	60.373533
22555	9.851808	-1.044902	0.601357	0.017405	0.012889	0.112589	1.000000	0.000036	0.000028	0.000040	-59.664389	-82.911581	60.371899
22556	9.837017	-1.040454	0.654120	-0.036345	0.015345	0.100726	1.000000	0.000009	0.000012	0.000046	-59.680996	-82.911611	60.386344
22557	9.834913	-1.050641	0.632213	-0.014535	0.005126	0.098358	1.000000	0.000033	0.000032	0.000023	-59.668162	-82.912724	60.373579
22558	9.832796	-1.060830	0.610513	0.007275	-0.005100	0.095990	1.000000	0.000036	0.000030	0.000048	-59.668131	-82.911532	60.374360
22559	9.834669	-1.052153	0.633490	-0.015652	0.003659	0.098357	1.000000	0.000021	0.000024	0.000043	-59.672380	-82.911210	60.377412
22560	9.834549	-1.052948	0.634034	-0.016211	0.002923	0.098356	1.000000	0.000029	0.000026	0.000041	-59.673269	-82.910904	60.378240
22561	9.851137	-1.049360	0.604589	0.014042	0.008469	0.112599	1.000000	0.000013	0.000018	0.000028	-59.676365	-82.912370	60.379581
22562	9.817659	-1.058511	0.664854	-0.048154	-0.004821	0.084108	1.000000	0.000031	0.000019	0.000042	-59.683115	-82.912374	60.386620
22563	9.832238	-1.064627	0.612885	0.004484	-0.008777	0.095989	1.000000	0.000027	0.000010	0.000045	-59.698546	-82.912666	60.401575
22564	9.834129	-1.055893	0.635642	-0.018442	-0.000016	0.098352	1.000000	0.000039	0.000021	0.000041	-59.702011	-82.912661	60.406146
22565	9.832007	-1.066210	0.613833	0.003357	-0.010246	0.095988	1.000000	0.000019	0.000031	0.000042	-59.700714	-82.912055	60.403721
22566	9.886863	-1.047592	0.627873	-0.007607	0.014003	0.149314	1.000000	0.000038	0.000020	0.000033	-59.701821	-82.912927	60.405876
22567	9.850497	-1.053757	0.607358	0.010689	0.004039	0.112606	1.000000	0.000028	0.000025	0.000033	-59.700269	-82.913520	60.404708
22568	9.852381	-1.045003	0.630248	-0.012236	0.012802	0.114968	1.000000	0.000032	0.000021	0.000050	-59.709377	-82.912648	60.414162
22569	9.868967	-1.041571	0.600833	0.018019	0.018317	0.129230	1.000000	0.000028	0.000025	0.000033	-59.707837	-82.913242	60.413014
22570	9.848168	-1.065530	0.586436	0.031373	-0.007683	0.110248	1.000000	0.000024	0.000015	0.000036	-59.715512	-82.914132	60.420104
22571	9.834487	-1.039017	0.603176	0.013406	0.017133	0.094887	1.000000	0.000026	0.000035	0.000048	-59.712698	-82.912599	60.416342
22572	9.851919	-1.048076	0.632366	-0.014467	0.009854	0.114969	1.000000	0.000039	0.000021	0.000041	-59.716164	-82.912595	60.420915
22573	9.868515	-1.044543	0.603103	0.015776	0.015360	0.129239	1.000000	0.000023	0.000039	0.000031	-59.703330	-82.912589	60.407955
22574	9.864410	-1.064346	0.558903	0.059942	-0.004395	0.124524	1.000000	0.000034	0.000012	0.000043	-59.715944	-82.912903	60.421208
22575	9.849580	-1.059790	0.611710	0.006202	-0.001873	0.112610	1.000000	0.000026	0.000033	0.000040	-59.711038	-82.912325	60.416535
22576	9.849464	-1.060474	0.612404	0.005642	-0.002611	0.112611	1.000000	0.000026	0.000032	0.000032	-59.703699	-82.912590	60.408729
22577	9.846189	-1.092703	0.626736	-0.008326	-0.035145	0.113688	1.000000	0.000021	0.000024	0.000043	-59.707796	-82.912282	60.411802
22578	9.849240	-1.061903	0.613529	0.004524	-0.004086	0.112611	1.000000	0.000028	0.000025	0.000033	-59.706322	-82.912856	60.410211
22579	9.849122	-1.062570	0.614254	0.003964	-0.004817	0.112611	1.000000	0.000031	0.000043	0.000038	-59.692355	-82.911893	60.395789
22580	9.867704	-1.049616	0.607536	0.011853	0.010185	0.129251	1.000000	0.000044	0.000032	0.000047	-59.689035	-82.910696	60.394102
22581	9.828146	-1.087385	0.601005	0.016753	-0.031540	0.093613	1.000000	0.000023	0.000039	0.000031	-59.675973	-82.910618	60.379689
22582	9.867463	-1.051032	0.609003	0.010733	0.008712	0.129254	1.000000	0.000029	0.000026	0.000041	-59.676855	-82.910315	60.380511
22583	9.835085	-1.038146	0.633197	-0.015669	0.017810	0.097259	1.000000	0.000031	0.000017	0.000034	-59.681353	-82.911234	60.385892
22584	9.834970	-1.038898	0.633764	-0.016227	0.017075	0.097259	1.000000	0.000044	0.000032	0.000047	-59.678035	-82.910038	60.384207
22585	9.851584	-1.035470	0.604488	0.014025	0.022551	0.111556	1.000000	0.000028	0.000025	0.000033	-59.676488	-82.910600	60.382394
22586	9.834753	-1.040288	0.634842	-0.017340	0.015604	0.097260	1.000000	0.000024	0.000015	0.000036	-59.684154	-82.911492	60.389474
22587	9.832649	-1.050543	0.613093	0.004456	0.005351	0.094909	1.000000	0.000031	0.000043	0.000038	-59.670217	-82.910549	60.375419
22588	9.851250	-1.037654	0.606178	0.012347	0.020340	0.111563	1.000000	0.000034	0.000013	0.000051	-59.685184	-82.909988	60.391080
22589	9.818861	-1.024847	0.630379	-0.014022	0.029466	0.079565	1.000000	0.000008	0.000034	0.000034	-59.678023	-82.909935	60.381150
22590	9.832292	-1.052945	0.614693	0.002792	0.003140	0.094910	1.000000	0.000027	0.000010	0.000045	-59.693910	-82.910259	60.396857
22591	9.851687	-1.052402	0.666071	-0.047466	0.005385	0.117301	1.000000	0.000029	0.000026	0.000041	-59.694685	-82.909979	60.398002
22592	9.832073	-1.054483	0.615562	0.001675	0.001663	0.094911	1.000000	0.000024	0.000015	0.000036	-59.702352	-82.910871	60.405084
22593	9.864247	-1.068767	0.592326	0.026925	-0.008949	0.126914	1.000000	0.000028	0.000025	0.000033	-59.701147	-82.911424	60.403396
22594	9.868125	-1.050250	0.637613	-0.018345	0.009371	0.131610	1.000000	0.000028	0.000025	0.000033	-59.699671	-82.911999	60.401804
22595	9.831764	-1.056471	0.617075	-0.000002	-0.000543	0.094911	1.000000	0.000021	0.000024	0.000043	-59.703666	-82.911708	60.405005
22596	9.830421	-1.079079	0.653801	-0.036362	-0.023531	0.098275	1.000000	0.000043	0.000029	0.000031	-59.695639	-82.912267	60.398498
22597	9.850277	-1.044186	0.610765	0.007330	0.013699	0.111579	1.000000	0.000029	0.000028	0.000049	-59.698923	-82.911066	60.401483
22598	9.846927	-1.076436	0.625208	-0.006680	-0.018822	0.112592	1.000000	0.000033	0.000034	0.000031	-59.688302	-82.911326	60.391216
22599	9.850049	-1.045633	0.611958	0.006216	0.012221	0.111582	1.000000	0.000034	0.000012	0.000043	-59.700715	-82.911641	60.404310
22600	9.846716	-1.077855	0.626089	-0.007798	-0.020298	0.112589	1.000000	0.000031	0.000017	0.000034	-59.705108	-82.912525	60.408935
22601	9.849835	-1.047148	0.612821	0.005097	0.010751	0.111584	1.000000	0.000029	0.000028	0.000049	-59.708475	-82.911315	60.411799
22602	9.849710	-1.048031	0.613314	0.004538	0.010014	0.111585	1.000000	0.000024	0.000017	0.000044	-59.718491	-82.911330	60.421287
22603	9.847620	-1.058349	0.591340	0.026331	-0.000269	0.109244	1.000000	0.000031	0.000017	0.000034	-59.722717	-82.912235	60.426120
22604	9.866996	-1.057591	0.642930	-0.023942	0.001994	0.131602	1.000000	0.000023	0.000039	0.000031	-59.709495	-82.912195	60.412086
22605	9.862910	-1.077435	0.598857	0.020189	-0.017825	0.126918	1.000000	0.000039	0.000021	0.000041	-59.713336	-82.912200	60.417071
22606	9.847280	-1.060508	0.593132	0.024644	-0.002483	0.109248	1.000000	0.000022	0.000025	0.000051	-59.719827	-82.911032	60.422743
22607	9.862653	-1.079178	0.599945	0.019070	-0.019310	0.126918	1.000000	0.000029	0.000026	0.000041	-59.720410	-82.910743	60.423508
22608	9.830266	-1.066195	0.624187	-0.007269	-0.010111	0.094903	1.000000	0.000018	0.000029	0.000034	-59.716332	-82.911020	60.418149
22609	9.832135	-1.057313	0.647147	-0.030183	-0.001300	0.097241	1.000000	0.000029	0.000026	0.000041	-59.717484	-82.910736	60.419471
22610	9.828044	-1.077276	0.603030	0.013954	-0.021130	0.092562	1.000000	0.000019	0.000031	0.000042	-59.715753	-82.910137	60.416516
22611	9.862177	-1.082160	0.602400	0.016829	-0.022270	0.126916	1.000000	0.000036	0.000028	0.000040	-59.712801	-82.909799	60.413979
22612	9.848543	-1.055540	0.619147	-0.001052	0.002629	0.111591	1.000000	0.000019	0.000031	0.000042	-59.711068	-82.909200	60.411023
22613	9.861925	-1.083816	0.603540	0.015712	-0.023759	0.126914	1.000000	0.000034	0.000013	0.000051	-59.725523	-82.908671	60.426754
22614	9.848314	-1.057123	0.620094	-0.002165	0.001144	0.111591	1.000000	0.000035	0.000025	0.000024	-59.718431	-82.910118	60.420309
22615	9.863696	-1.075506	0.627032	-0.007757	-0.015690	0.129248	1.000000	0.000033	0.000036	0.000039	-59.710016	-82.909523	60.412687
22616	9.832601	-1.040635	0.615200	0.001752	0.015757	0.093936	1.000000	0.000036	0.000028	0.000040	-59.707615	-82.909217	60.411046
22617	9.866735	-1.045518	0.614611	0.004618	0.014601	0.128292	1.000000	0.000026	0.000033	0.000040	-59.702041	-82.908583	60.404745
22618	9.882107	-1.064042	0.621413	-0.000982	-0.002233	0.145946	1.000000	0.000024	0.000015	0.000036	-59.709701	-82.909476	60.411821
22619	9.832251	-1.042742	0.617218	0.000093	0.013545	0.093939	1.000000	0.000040	0.000062	0.000033	-59.677164	-82.907921	60.380363
22620	9.866371	-1.047667	0.616782	0.002940	0.012383	0.128296	1.000000	0.000034	0.000013	0.000051	-59.692119	-82.907363	60.396013
22621	9.833976	-1.034701	0.640966	-0.023360	0.021637	0.096274	1.000000	0.000023	0.000039	0.000031	-59.678738	-82.907286	60.381311
22622	9.849333	-1.053207	0.647909	-0.028965	0.004803	0.113920	1.000000	0.000021	0.000024	0.000043	-59.682870	-82.906996	60.384567
22623	9.829784	-1.055359	0.597583	0.020209	0.001041	0.091611	1.000000	0.000041	0.000038	0.000038	-59.671287	-82.906384	60.374404
22624	9.849093	-1.054613	0.649269	-0.030084	0.003329	0.113917	1.000000	0.000028	0.000025	0.000033	-59.669803	-82.906963	60.372807
22625	9.865778	-1.051331	0.620026	0.000147	0.008683	0.128300	1.000000	0.000026	0.000035	0.000048	-59.666904	-82.905512	60.370100
22626	9.846886	-1.065731	0.627985	-0.008861	-0.007716	0.111585	1.000000	0.000019	0.000004	0.000030	-59.681344	-82.907599	60.383427
22627	9.846778	-1.066474	0.628416	-0.009421	-0.008449	0.111583	1.000000	0.000026	0.000035	0.000048	-59.678765	-82.906094	60.380230
22628	9.831177	-1.049481	0.622881	-0.004923	0.006919	0.093945	1.000000	0.000033	0.000036	0.000039	-59.670495	-82.905482	60.372374
22629	9.844546	-1.077649	0.607455	0.011801	-0.019482	0.109253	1.000000	0.000039	0.000021	0.000041	-59.674088	-82.905430	60.376296
22630	9.863217	-1.064763	0.600534	0.019688	-0.004566	0.125975	1.000000	0.000026	0.000033	0.000040	-59.669081	-82.904825	60.370885
22631	9.849612	-1.038113	0.617166	0.001853	0.020368	0.110669	1.000000	0.000031	0.000019	0.000042	-59.675651	-82.904858	60.378111
22632	9.846168	-1.070283	0.631484	-0.012219	-0.012129	0.111577	1.000000	0.000028	0.000024	0.000033	-59.674167	-82.905438	60.376514
22633	9.828633	-1.062790	0.603320	0.014632	-0.006322	0.091619	1.000000	0.000031	0.000019	0.000042	-59.680821	-82.905397	60.382769
22634	9.847314	-1.049936	0.596300	0.022521	0.008588	0.108349	1.000000	0.000029	0.000026	0.000041	-59.681682	-82.905100	60.383573
22635	9.830369	-1.054717	0.626785	-0.008811	0.001776	0.093944	1.000000	0.000036	0.000028	0.000040	-59.678678	-82.904782	60.381251
22636	9.864502	-1.059652	0.626133	-0.005996	0.000570	0.128302	1.000000	0.000039	0.000021	0.000041	-59.682148	-82.904785	60.385830
22637	9.881220	-1.056437	0.596695	0.024229	0.005896	0.142712	1.000000	0.000024	0.000017	0.000044	-59.692104	-82.904795	60.395171
22638	9.828041	-1.066746	0.605963	0.011850	-0.010009	0.091620	1.000000	0.000036	0.000030	0.000048	-59.692044	-82.903615	60.395930
22639	9.864142	-1.062076	0.627705	-0.007659	-0.001646	0.128301	1.000000	0.000028	0.000024	0.000033	-59.689803	-82.904151	60.393105
22640	9.844648	-1.064203	0.577250	0.041532	-0.005429	0.106036	1.000000	0.000029	0.000026	0.000041	-59.690660	-82.903856	60.393906
22641	9.861940	-1.073181	0.606491	0.013542	-0.012701	0.125978	1.000000	0.000029	0.000026	0.000041	-59.692105	-82.903577	60.395486
