// Start Time: Unknown
// Update Rate: 100.0Hz
// Filter Profile: human (46.1)
// Firmware Version: 4.4.0
PacketCounter	Acc_X	Acc_Y	Acc_Z	FreeAcc_X	FreeAcc_Y	FreeAcc_Z	OriInc_q0	OriInc_q1	OriInc_q2	OriInc_q3	Roll	Pitch	Yaw
54140	9.562544	-0.179557	2.386624	-0.000000	-0.000000	0.044821	1.000000	0.000024	0.000019	0.000017	-4.300277	-75.949519	-3.401126
54141	9.547978	-0.163286	2.376284	0.006302	0.006300	0.027902	1.000000	0.000033	0.000023	0.000018	-4.093854	-75.957069	-3.742048
54142	9.562340	-0.179854	2.387419	-0.002739	-0.008807	0.044817	1.000000	0.000023	0.000016	0.000006	-4.093368	-75.955144	-3.739784
54143	9.562243	-0.179949	2.387803	-0.002647	-0.008809	0.044817	1.000000	0.000033	0.000023	0.000018	-4.097153	-75.951868	-3.731987
54144	9.562152	-0.180105	2.388155	-0.002647	-0.008809	0.044817	1.000000	0.000026	0.000013	0.000013	-4.099678	-75.950265	-3.726273
54145	9.562059	-0.180306	2.388511	-0.002646	-0.008805	0.044817	1.000000	0.000044	0.000023	0.000026	-4.105665	-75.947448	-3.714884
54146	9.549802	-0.207659	2.418790	-0.037969	-0.031690	0.040736	1.000000	0.000031	0.000017	-0.000005	-4.099311	-75.945546	-3.717798
54147	9.588464	-0.169559	2.370218	0.023655	-0.001005	0.065813	1.000000	0.000012	0.000028	0.000026	-4.109242	-75.942023	-3.706138
54148	9.561744	-0.180698	2.389745	-0.002627	-0.008784	0.044817	1.000000	0.000026	0.000013	0.000013	-4.111762	-75.940420	-3.700431
54149	9.547200	-0.164381	2.379334	0.006419	0.006348	0.027902	1.000000	0.000033	0.000023	0.000018	-4.116094	-75.937662	-3.692119
54150	9.575997	-0.197527	2.401273	-0.011664	-0.023864	0.061732	1.000000	0.000024	0.000019	0.000017	-4.120624	-75.935319	-3.684560
54151	9.570691	-0.187237	2.369173	0.019718	-0.017822	0.048624	1.000000	0.000040	0.000023	0.000007	-4.119398	-75.932566	-3.681126
54152	9.552090	-0.175125	2.413063	-0.024945	0.000384	0.041010	1.000000	0.000016	0.000016	0.000017	-4.124760	-75.930618	-3.673704
54153	9.570495	-0.187597	2.369938	0.019732	-0.017768	0.048624	1.000000	0.000044	0.000023	0.000026	-4.131920	-75.927748	-3.661179
54154	9.555934	-0.171391	2.359603	0.028773	-0.002662	0.031709	1.000000	0.000003	0.000022	0.000014	-4.137115	-75.925134	-3.655490
54155	9.570270	-0.188080	2.370807	0.019695	-0.017695	0.048624	1.000000	0.000033	0.000023	0.000018	-4.142488	-75.922636	-3.646169
54156	9.569054	-0.159064	2.417233	-0.021017	0.017392	0.058198	1.000000	0.000040	0.000007	0.000016	-4.145160	-75.921697	-3.638747
54157	9.560855	-0.182221	2.393183	-0.002671	-0.008521	0.044817	1.000000	0.000030	0.000026	0.000011	-4.147481	-75.918864	-3.632914
54158	9.551492	-0.176309	2.415342	-0.025002	0.000582	0.041009	1.000000	0.000027	0.000016	0.000025	-4.155002	-75.916841	-3.621928
54159	9.592456	-0.182143	2.407410	-0.007761	-0.006665	0.078920	1.000000	0.000030	0.000026	0.000011	-4.157560	-75.913811	-3.615870
54160	9.555359	-0.172364	2.361861	0.028702	-0.002439	0.031710	1.000000	0.000026	0.000013	0.000013	-4.160063	-75.912208	-3.610181
54161	9.560454	-0.182828	2.394738	-0.002694	-0.008353	0.044817	1.000000	0.000022	0.000023	0.000010	-4.163632	-75.909711	-3.604084
54162	9.560340	-0.183090	2.395173	-0.002694	-0.008353	0.044817	1.000000	0.000025	0.000022	0.000029	-4.173148	-75.906947	-3.591261
54163	9.586857	-0.172447	2.376500	0.023572	-0.000467	0.065813	1.000000	0.000040	0.000023	0.000007	-4.173475	-75.904363	-3.586291
54164	9.560105	-0.183234	2.396099	-0.002710	-0.008247	0.044817	1.000000	0.000019	0.000026	0.000003	-4.171963	-75.901378	-3.585649
54165	9.545563	-0.166798	2.385726	0.006289	0.006971	0.027902	1.000000	0.000035	0.000016	0.000014	-4.176233	-75.899666	-3.577245
54166	9.572100	-0.156236	2.366988	0.032571	0.014751	0.048897	1.000000	0.000025	0.000022	0.000029	-4.185731	-75.896899	-3.564437
54167	9.559808	-0.183807	2.397239	-0.002861	-0.008058	0.044817	1.000000	0.000026	0.000013	0.000013	-4.189886	-75.895955	-3.557140
54168	9.577076	-0.167059	2.400275	0.001090	0.008825	0.062005	1.000000	0.000031	0.000029	0.000022	-4.195536	-75.892473	-3.547650
54169	9.582130	-0.177708	2.433248	-0.030393	0.002898	0.075112	1.000000	0.000027	0.000016	0.000025	-4.204663	-75.891111	-3.535162
54170	9.554304	-0.174241	2.365989	0.028403	-0.001981	0.031711	1.000000	0.000020	0.000029	0.000015	-4.208144	-75.887707	-3.529249
54171	9.544914	-0.168205	2.388222	0.005985	0.007185	0.027902	1.000000	0.000010	0.000022	0.000003	-4.208836	-75.885646	-3.527377
54172	9.559233	-0.184769	2.399457	-0.003057	-0.007920	0.044817	1.000000	0.000033	0.000023	0.000018	-4.212476	-75.882906	-3.519739
54173	9.544682	-0.168425	2.389135	0.005867	0.007247	0.027902	1.000000	0.000030	0.000026	0.000011	-4.214425	-75.880556	-3.514245
54174	9.573434	-0.201518	2.411142	-0.012218	-0.022962	0.061733	1.000000	0.000016	0.000016	0.000017	-4.219736	-75.878610	-3.506872
54175	9.585553	-0.174457	2.381607	0.023039	0.000021	0.065814	1.000000	0.000033	0.000023	0.000018	-4.225614	-75.876289	-3.497303
54176	9.580290	-0.164330	2.349480	0.054412	0.006023	0.052708	1.000000	0.000024	0.000019	0.000017	-4.230094	-75.873948	-3.489800
54177	9.558708	-0.185621	2.401482	-0.003413	-0.007695	0.044817	1.000000	0.000035	0.000016	0.000014	-4.233026	-75.872954	-3.482718
54178	9.558595	-0.185638	2.401931	-0.003413	-0.007695	0.044817	1.000000	0.000027	0.000029	0.000004	-4.230663	-75.869577	-3.481963
54179	9.575859	-0.168880	2.405000	0.000343	0.009275	0.062004	1.000000	0.000039	0.000016	0.000032	-4.242054	-75.868625	-3.465694
54180	9.553230	-0.175718	2.370211	0.027768	-0.001607	0.031712	1.000000	0.000010	0.000022	0.000003	-4.241363	-75.866039	-3.465202
54181	9.584945	-0.175306	2.383991	0.022445	0.000229	0.065815	1.000000	0.000026	0.000013	0.000013	-4.244838	-75.865781	-3.458325
54182	9.553053	-0.175816	2.370915	0.027538	-0.001551	0.031713	1.000000	0.000040	0.000023	0.000007	-4.242620	-75.863074	-3.455852
54183	9.562221	-0.182092	2.349604	0.049637	-0.010627	0.035525	1.000000	0.000036	0.000019	0.000025	-4.249494	-75.862006	-3.443825
54184	9.581649	-0.209048	2.393501	0.009219	-0.031735	0.065544	1.000000	0.000025	0.000035	0.000008	-4.249071	-75.857885	-3.441263
54185	9.534132	-0.163997	2.415826	-0.017739	0.016825	0.024089	1.000000	0.000027	0.000016	0.000025	-4.259511	-75.858144	-3.427814
54186	9.584415	-0.175998	2.386072	0.021825	0.000401	0.065817	1.000000	0.000037	0.000010	0.000009	-4.259120	-75.856891	-3.423878
54187	9.589485	-0.186401	2.418893	-0.009956	-0.005518	0.078919	1.000000	0.000046	0.000017	0.000021	-4.264293	-75.857202	-3.412998
54188	9.543148	-0.170536	2.395104	0.004184	0.007804	0.027902	1.000000	0.000017	0.000032	0.000008	-4.264708	-75.853497	-3.410571
54189	9.566706	-0.193286	2.384733	0.017244	-0.016337	0.048631	1.000000	0.000033	0.000023	0.000018	-4.269520	-75.852079	-3.401543
54190	9.552171	-0.176947	2.374384	0.026287	-0.001235	0.031717	1.000000	0.000030	0.000026	0.000011	-4.270092	-75.849030	-3.397391
54191	9.557175	-0.187437	2.407436	-0.005463	-0.007111	0.044817	1.000000	0.000023	0.000025	0.000022	-4.279025	-75.848168	-3.386247
54192	9.560047	-0.154416	2.399600	0.007525	0.024876	0.045089	1.000000	0.000030	0.000013	0.000032	-4.289442	-75.846477	-3.371920
54193	9.583648	-0.177324	2.389052	0.020453	0.000745	0.065820	1.000000	0.000022	0.000023	0.000010	-4.292147	-75.845911	-3.366867
54194	9.564970	-0.165253	2.432932	-0.024213	0.018948	0.058188	1.000000	0.000025	0.000022	0.000029	-4.301555	-75.843170	-3.354148
54195	9.566019	-0.194713	2.387369	0.016304	-0.016062	0.048633	1.000000	0.000027	0.000029	0.000004	-4.300795	-75.840960	-3.352986
54196	9.542223	-0.172035	2.398680	0.003018	0.008144	0.027902	1.000000	0.000045	0.000014	0.000010	-4.299601	-75.839331	-3.348914
54197	9.573964	-0.171562	2.412345	-0.002223	0.010067	0.062003	1.000000	0.000028	0.000007	0.000009	-4.303289	-75.839306	-3.344334
54198	9.578060	-0.167568	2.358328	0.051483	0.006967	0.052723	1.000000	0.000024	0.000019	0.000017	-4.307823	-75.836971	-3.336832
54199	9.565695	-0.195013	2.388644	0.015830	-0.015925	0.048634	1.000000	0.000024	0.000019	0.000017	-4.311581	-75.836536	-3.329607
54200	9.559285	-0.155683	2.402554	0.006491	0.025168	0.045089	1.000000	0.000044	0.000023	0.000026	-4.317407	-75.833734	-3.318432
54201	9.582874	-0.178511	2.392067	0.019347	0.000924	0.065822	1.000000	0.000035	0.000016	0.000014	-4.317483	-75.834196	-3.313256
54202	9.565403	-0.195372	2.389782	0.015398	-0.015958	0.048635	1.000000	0.000031	0.000017	-0.000005	-4.311173	-75.832335	-3.316163
54203	9.565292	-0.195345	2.390229	0.015059	-0.015895	0.048636	1.000000	0.000020	0.000029	0.000015	-4.315660	-75.830914	-3.310301
54204	9.573279	-0.172489	2.414996	-0.003332	0.010097	0.062003	1.000000	0.000027	0.000016	0.000025	-4.323164	-75.828918	-3.299386
54205	9.541367	-0.173208	2.402000	0.001442	0.008321	0.027903	1.000000	0.000028	0.000032	0.000015	-4.325422	-75.827052	-3.293362
54206	9.582317	-0.179108	2.394253	0.018658	0.001004	0.065823	1.000000	0.000024	0.000019	0.000017	-4.329917	-75.824741	-3.285885
54207	9.541131	-0.173594	2.402909	0.001100	0.008458	0.027903	1.000000	0.000033	0.000023	0.000018	-4.336306	-75.824004	-3.278347
54208	9.558455	-0.156783	2.405783	0.005036	0.025350	0.045089	1.000000	0.000020	0.000004	0.000008	-4.337751	-75.823577	-3.274612
54209	9.582060	-0.179604	2.395243	0.018085	0.001168	0.065824	1.000000	0.000031	0.000029	0.000022	-4.343617	-75.821416	-3.266190
54210	9.553142	-0.146792	2.374041	0.036184	0.031378	0.031998	1.000000	0.000040	0.000023	0.000007	-4.341549	-75.818745	-3.263677
54211	9.564484	-0.196771	2.393344	0.013981	-0.015875	0.048637	1.000000	0.000026	-0.000003	0.000022	-4.344642	-75.819735	-3.255051
54212	9.581801	-0.180070	2.396246	0.017920	0.001015	0.065825	1.000000	0.000028	0.000032	0.000015	-4.347322	-75.815957	-3.249045
54213	9.540583	-0.174516	2.405014	0.000411	0.008376	0.027903	1.000000	0.000033	0.000023	0.000018	-4.351505	-75.814921	-3.242690
54214	9.567151	-0.164029	2.386389	0.026677	0.016164	0.048913	1.000000	0.000023	0.000025	0.000022	-4.358057	-75.811855	-3.233369
54215	9.576319	-0.170538	2.365175	0.048387	0.007077	0.052739	1.000000	0.000023	0.000025	0.000022	-4.364098	-75.812387	-3.226018
54216	9.549516	-0.181363	2.384706	0.022108	-0.000694	0.031727	1.000000	0.000020	0.000020	-0.000001	-4.360741	-75.810203	-3.227179
54217	9.554534	-0.191639	2.417566	-0.009787	-0.006727	0.044814	1.000000	0.000018	0.000010	0.000013	-4.362465	-75.811966	-3.223687
54218	9.584139	-0.147569	2.390601	0.029467	0.033047	0.066104	1.000000	0.000027	0.000029	0.000004	-4.360245	-75.808660	-3.222907
54219	9.571717	-0.174818	2.421012	-0.005823	0.009985	0.062002	1.000000	0.000046	0.000017	0.000021	-4.359702	-75.806277	-3.215970
54220	9.539812	-0.175457	2.408006	-0.000712	0.008209	0.027903	1.000000	0.000028	0.000032	0.000015	-4.362406	-75.802500	-3.209963
54221	9.563368	-0.198187	2.397682	0.011918	-0.015949	0.048640	1.000000	0.000032	0.000020	0.000006	-4.361373	-75.803957	-3.210154
54222	9.566299	-0.164847	2.389746	0.024906	0.016046	0.048918	1.000000	0.000026	0.000013	0.000013	-4.364014	-75.802408	-3.204457
54223	9.548820	-0.181945	2.387451	0.020699	-0.000818	0.031730	1.000000	0.000024	0.000019	0.000017	-4.368617	-75.801610	-3.199188
54224	9.548743	-0.182176	2.387737	0.020690	-0.000807	0.031730	1.000000	0.000029	0.000010	0.000020	-4.374294	-75.800376	-3.190048
54225	9.548658	-0.182437	2.388061	0.020427	-0.000728	0.031730	1.000000	0.000044	0.000023	0.000026	-4.381628	-75.799105	-3.180939
54226	9.575262	-0.171744	2.369365	0.046686	0.007063	0.052747	1.000000	0.000031	0.000017	-0.000005	-4.375590	-75.797265	-3.183737
54227	9.557783	-0.188674	2.367076	0.041950	-0.009889	0.035562	1.000000	0.000016	0.000016	0.000017	-4.378175	-75.799953	-3.178561
54228	9.562745	-0.199131	2.400090	0.010547	-0.015867	0.048642	1.000000	0.000020	0.000029	0.000015	-4.381871	-75.796645	-3.172628
54229	9.560567	-0.155695	2.359735	0.054142	0.021942	0.035846	1.000000	0.000033	0.000023	0.000018	-4.380266	-75.798488	-3.166741
54230	9.562501	-0.199457	2.401034	0.009731	-0.016026	0.048642	1.000000	0.000021	0.000023	0.000010	-4.381916	-75.795964	-3.162656
54231	9.556088	-0.160037	2.414953	0.000268	0.025074	0.045091	1.000000	0.000031	0.000029	0.000022	-4.387472	-75.793256	-3.154714
54232	9.555942	-0.160313	2.415513	0.000249	0.025086	0.045091	1.000000	0.000031	0.000029	0.000022	-4.393259	-75.789890	-3.145263
54233	9.547767	-0.183556	2.391535	0.017510	-0.000936	0.031736	1.000000	0.000038	0.000004	0.000005	-4.388691	-75.795988	-3.145489
54234	9.547684	-0.183603	2.391860	0.017476	-0.000923	0.031736	1.000000	0.000020	0.000029	0.000015	-4.392331	-75.792781	-3.139592
54235	9.564991	-0.166681	2.394846	0.021292	0.016024	0.048926	1.000000	0.000014	0.000010	-0.000006	-4.389097	-75.792380	-3.144758
54236	9.547501	-0.183592	2.392592	0.017325	-0.000844	0.031736	1.000000	0.000041	0.000026	0.000018	-4.392123	-75.789426	-3.136978
54237	9.596576	-0.166340	2.409092	0.016026	0.017881	0.083023	1.000000	0.000026	0.000013	0.000013	-4.395827	-75.788436	-3.133497
54238	9.564729	-0.166916	2.395879	0.021129	0.016114	0.048926	1.000000	0.000035	0.000016	0.000014	-4.397784	-75.786596	-3.127627
54239	9.547220	-0.183918	2.393687	0.016430	-0.000760	0.031738	1.000000	0.000030	0.000026	0.000011	-4.397641	-75.788010	-3.126024
54240	9.556421	-0.190294	2.372440	0.038719	-0.009852	0.035575	1.000000	0.000024	0.000019	0.000017	-4.402436	-75.785863	-3.118461
54241	9.573720	-0.173527	2.375456	0.042357	0.007098	0.052766	1.000000	0.000021	0.000023	0.000010	-4.405127	-75.784945	-3.116775
54242	9.556204	-0.190590	2.373290	0.038388	-0.009765	0.035577	1.000000	0.000033	0.000023	0.000018	-4.409129	-75.782399	-3.109070
54243	9.554878	-0.161282	2.419653	-0.003589	0.025480	0.045090	1.000000	0.000023	0.000016	0.000006	-4.410182	-75.787975	-3.108999
54244	9.556011	-0.190856	2.374047	0.037071	-0.009608	0.035582	1.000000	0.000014	0.000022	0.000021	-4.417893	-75.785556	-3.099714
54245	9.546589	-0.184769	2.396140	0.014628	-0.000319	0.031741	1.000000	0.000032	0.000020	0.000006	-4.420575	-75.783981	-3.099729
54246	9.573215	-0.174063	2.377452	0.040842	0.007475	0.052772	1.000000	0.000032	0.000020	0.000006	-4.419769	-75.781925	-3.097199
54247	9.563797	-0.167958	2.399521	0.018406	0.016687	0.048931	1.000000	0.000036	0.000019	0.000025	-4.428478	-75.780189	-3.088517
54248	9.569988	-0.207795	2.386466	0.027670	-0.024379	0.052489	1.000000	0.000026	0.000013	0.000013	-4.431567	-75.778821	-3.082660
54249	9.531858	-0.168749	2.386669	0.022811	0.015173	0.014837	1.000000	0.000021	0.000023	0.000010	-4.438027	-75.780316	-3.080514
54250	9.587178	-0.191003	2.389928	0.030863	-0.007216	0.069681	1.000000	0.000027	0.000029	0.000004	-4.436360	-75.777214	-3.079539
54251	9.563368	-0.168485	2.401193	0.016670	0.016986	0.048933	1.000000	0.000025	0.000022	0.000029	-4.444179	-75.780021	-3.068261
54252	9.563253	-0.168793	2.401630	0.016617	0.017022	0.048933	1.000000	0.000033	0.000023	0.000018	-4.448481	-75.777600	-3.060447
54253	9.572471	-0.175126	2.380368	0.038129	0.007741	0.052783	1.000000	0.000032	0.000020	0.000006	-4.442177	-75.779935	-3.060090
54254	9.554951	-0.192063	2.378211	0.034134	-0.009109	0.035593	1.000000	0.000030	0.000026	0.000011	-4.443441	-75.777234	-3.055722
54255	9.572271	-0.175132	2.381171	0.037808	0.008038	0.052784	1.000000	0.000025	0.000010	0.000002	-4.447038	-75.777653	-3.057554
54256	9.562878	-0.168997	2.403108	0.015434	0.017200	0.048935	1.000000	0.000027	0.000016	0.000024	-4.455236	-75.775969	-3.046416
54257	9.572090	-0.175566	2.381869	0.036643	0.008020	0.052788	1.000000	0.000031	0.000029	0.000022	-4.457978	-75.778936	-3.039294
54258	9.554568	-0.192623	2.379707	0.032639	-0.008825	0.035598	1.000000	0.000023	0.000016	0.000006	-4.458218	-75.777422	-3.036818
54259	9.581208	-0.182065	2.361019	0.058175	-0.001090	0.056645	1.000000	0.000033	0.000023	0.000018	-4.460287	-75.778843	-3.031006
54260	9.554364	-0.192919	2.380501	0.031853	-0.008811	0.035601	1.000000	0.000024	0.000019	0.000017	-4.465476	-75.776927	-3.023307
54261	9.571661	-0.176143	2.383546	0.034881	0.008148	0.052795	1.000000	0.000030	0.000026	0.000011	-4.466737	-75.779186	-3.021247
54262	9.565312	-0.136679	2.397205	0.025513	0.049287	0.049229	1.000000	0.000021	0.000006	0.000020	-4.473827	-75.778758	-3.012039
54263	9.554092	-0.193460	2.381548	0.030843	-0.008574	0.035604	1.000000	0.000033	0.000023	0.000018	-4.480327	-75.776164	-3.007490
54264	9.603156	-0.176160	2.398108	0.029545	0.010145	0.086887	1.000000	0.000032	0.000020	0.000006	-4.479811	-75.774291	-3.004862
54265	9.553895	-0.193694	2.382318	0.030055	-0.008348	0.035607	1.000000	0.000027	0.000016	0.000024	-4.490770	-75.776471	-2.996571
54266	9.530105	-0.171232	2.393483	0.016763	0.015916	0.014848	1.000000	0.000020	0.000029	0.000015	-4.495087	-75.773528	-2.990438
54267	9.602884	-0.176704	2.399157	0.027701	0.010346	0.086892	1.000000	0.000033	-0.000003	0.000011	-4.494575	-75.779834	-2.986728
54268	9.547400	-0.154641	2.396535	0.019568	0.032815	0.032041	1.000000	0.000014	0.000022	0.000021	-4.502720	-75.777645	-2.977297
54269	9.570970	-0.177645	2.386210	0.032415	0.008650	0.052803	1.000000	0.000024	0.000019	0.000017	-4.507964	-75.777423	-2.972506
54270	9.570881	-0.177755	2.386559	0.032330	0.008697	0.052803	1.000000	0.000023	0.000016	0.000006	-4.508389	-75.776013	-2.969967
54271	9.547102	-0.155057	2.397693	0.018272	0.033310	0.032042	1.000000	0.000030	0.000026	0.000011	-4.517400	-75.778075	-2.969541
54272	9.567582	-0.211228	2.395793	0.018342	-0.022826	0.052514	1.000000	0.000021	0.000023	0.000010	-4.519912	-75.775952	-2.965153
54273	9.553130	-0.194994	2.385277	0.026368	-0.007889	0.035618	1.000000	0.000014	0.000022	0.000021	-4.522174	-75.779526	-2.957616
54274	9.561095	-0.171939	2.409985	0.007894	0.018180	0.048942	1.000000	0.000040	0.000023	0.000007	-4.520987	-75.777411	-2.954811
54275	9.543564	-0.189034	2.407828	0.003420	0.001407	0.031751	1.000000	0.000025	0.000022	0.000029	-4.532286	-75.777821	-2.944024
54276	9.570242	-0.178641	2.389052	0.029558	0.009207	0.052811	1.000000	0.000028	0.000007	0.000009	-4.533876	-75.777563	-2.939810
54277	9.587584	-0.161840	2.391944	0.033614	0.026106	0.070002	1.000000	0.000033	0.000023	0.000018	-4.537979	-75.774092	-2.935377
54278	9.565068	-0.168793	2.357137	0.061000	0.015222	0.039782	1.000000	0.000024	0.000019	0.000017	-4.543506	-75.772308	-2.927561
54279	9.555646	-0.162673	2.379115	0.037436	0.024493	0.035918	1.000000	0.000026	0.000013	0.000013	-4.547598	-75.778118	-2.923844
54280	9.569865	-0.179261	2.390515	0.028216	0.009467	0.052815	1.000000	0.000028	0.000032	0.000015	-4.551279	-75.774947	-2.917529
54281	9.555427	-0.163060	2.379967	0.036245	0.024516	0.035922	1.000000	0.000040	0.000010	0.000028	-4.556709	-75.779914	-2.907225
54282	9.569689	-0.179556	2.391197	0.027015	0.009490	0.052818	1.000000	0.000031	0.000017	-0.000005	-4.551526	-75.778709	-2.909728
54283	9.569592	-0.179650	2.391580	0.027063	0.010045	0.052818	1.000000	0.000025	0.000022	0.000029	-4.574371	-75.775801	-2.901957
54284	9.569509	-0.179942	2.391892	0.026954	0.010109	0.052818	1.000000	0.000018	0.000010	0.000012	-4.579011	-75.775232	-2.895970
54285	9.560084	-0.173765	2.413864	0.004538	0.019464	0.048942	1.000000	0.000021	0.000023	0.000010	-4.585194	-75.773289	-2.895189
54286	9.545644	-0.157456	2.403337	0.013557	0.034608	0.032045	1.000000	0.000033	0.000023	0.000018	-4.590163	-75.771173	-2.887146
54287	9.554868	-0.163883	2.382154	0.034977	0.025404	0.035924	1.000000	0.000030	0.000026	0.000011	-4.588358	-75.773241	-2.885013
54288	9.554756	-0.164023	2.382595	0.034867	0.025471	0.035925	1.000000	0.000024	0.000019	0.000017	-4.594172	-75.771552	-2.877091
54289	9.568989	-0.180625	2.393918	0.026548	0.010796	0.052818	1.000000	0.000035	0.000016	0.000014	-4.606453	-75.764924	-2.876934
54290	9.554568	-0.164196	2.383336	0.035580	0.025943	0.035921	1.000000	0.000040	0.000023	0.000007	-4.605773	-75.762805	-2.873935
54291	9.563789	-0.170692	2.362182	0.055953	0.017029	0.039809	1.000000	0.000012	0.000028	0.000026	-4.618541	-75.770708	-2.865951
54292	9.573603	-0.191270	2.427934	-0.007020	0.005283	0.065837	1.000000	0.000033	0.000023	0.000018	-4.623711	-75.768647	-2.857835
54293	9.563564	-0.171143	2.363060	0.054740	0.016881	0.039816	1.000000	0.000035	0.000016	0.000014	-4.618511	-75.772997	-2.854582
54294	9.568440	-0.181476	2.396046	0.023188	0.011042	0.052826	1.000000	0.000036	0.000019	0.000025	-4.626617	-75.771291	-2.843066
54295	9.540961	-0.178414	2.328659	0.081153	0.005868	0.009624	1.000000	0.000031	0.000029	0.000022	-4.628096	-75.773363	-2.837683
54296	9.571321	-0.148698	2.388530	0.035176	0.042951	0.053126	1.000000	0.000008	0.000012	0.000016	-4.635739	-75.772555	-2.829952
54297	9.553821	-0.165784	2.386218	0.029976	0.026462	0.035938	1.000000	0.000035	0.000016	0.000014	-4.645334	-75.778082	-2.827789
54298	9.536297	-0.182703	2.384015	0.025901	0.009659	0.018747	1.000000	0.000040	0.000023	0.000007	-4.644737	-75.776193	-2.824776
54299	9.553641	-0.165895	2.386934	0.028982	0.026632	0.035941	1.000000	0.000029	0.000010	0.000020	-4.651341	-75.779945	-2.818720
54300	9.567863	-0.182494	2.398275	0.019694	0.011644	0.052833	1.000000	0.000030	0.000026	0.000011	-4.653579	-75.777732	-2.814022
54301	9.567765	-0.182587	2.398658	0.019405	0.012128	0.052833	1.000000	0.000026	0.000013	0.000013	-4.667328	-75.777952	-2.813956
54302	9.562727	-0.172641	2.366338	0.050704	0.018107	0.039835	1.000000	0.000024	0.000019	0.000017	-4.673556	-75.776435	-2.805886
54303	9.567614	-0.182880	2.399235	0.018230	0.012698	0.052835	1.000000	0.000028	0.000007	0.000009	-4.684425	-75.781765	-2.807469
54304	9.553245	-0.166621	2.388468	0.027242	0.027851	0.035942	1.000000	0.000027	0.000016	0.000024	-4.693779	-75.780595	-2.795918
54305	9.567452	-0.183372	2.399846	0.017418	0.012970	0.052836	1.000000	0.000044	0.000023	0.000026	-4.702982	-75.781702	-2.789493
54306	9.576695	-0.189967	2.378639	0.039552	0.003883	0.056736	1.000000	0.000003	0.000022	0.000014	-4.710050	-75.779965	-2.783225
54307	9.521214	-0.167767	2.376006	0.030432	0.026366	0.001865	1.000000	0.000036	0.000010	0.000009	-4.709829	-75.785852	-2.781993
54308	9.562218	-0.173804	2.368306	0.047339	0.019102	0.039850	1.000000	0.000022	0.000025	0.000022	-4.718207	-75.783688	-2.772066
54309	9.567044	-0.184111	2.401414	0.014143	0.013365	0.052841	1.000000	0.000021	0.000023	0.000010	-4.720807	-75.791289	-2.769614
54310	9.571341	-0.180546	2.347599	0.067702	0.010149	0.043767	1.000000	0.000022	0.000025	0.000022	-4.729215	-75.789204	-2.759678
54311	9.566809	-0.184573	2.402316	0.014312	0.013970	0.052840	1.000000	0.000024	0.000019	0.000017	-4.746146	-75.785000	-2.757264
54312	9.598457	-0.184336	2.416234	0.008924	0.015904	0.086920	1.000000	0.000037	0.000013	0.000021	-4.752960	-75.784282	-2.747290
54313	9.534900	-0.185272	2.389397	0.018514	0.012480	0.018761	1.000000	0.000029	0.000023	-0.000001	-4.753167	-75.786762	-2.751449
54314	9.561584	-0.174739	2.370797	0.044573	0.020273	0.039861	1.000000	0.000033	0.000023	0.000018	-4.758987	-75.785016	-2.743105
54315	9.561474	-0.174833	2.371235	0.043236	0.020670	0.039866	1.000000	0.000010	0.000022	0.000003	-4.766313	-75.790382	-2.745153
54316	9.566310	-0.185022	2.404265	0.011603	0.014933	0.052842	1.000000	0.000046	0.000017	0.000021	-4.772434	-75.789352	-2.735008
54317	9.561286	-0.175129	2.371972	0.041901	0.021299	0.039870	1.000000	0.000024	0.000019	0.000017	-4.788088	-75.793946	-2.732417
54318	9.584857	-0.198078	2.361706	0.054796	-0.002834	0.060679	1.000000	0.000035	0.000016	0.000014	-4.792189	-75.793042	-2.725770
54319	9.574112	-0.162298	2.429510	-0.008467	0.041356	0.066113	1.000000	0.000016	0.000016	0.000017	-4.789555	-75.793329	-2.720827
54320	9.561012	-0.175564	2.373044	0.041129	0.021225	0.039874	1.000000	0.000019	0.000026	0.000003	-4.790386	-75.791452	-2.719409
54321	9.551554	-0.169365	2.395027	0.017351	0.030628	0.035956	1.000000	0.000040	0.000010	0.000028	-4.800983	-75.798959	-2.710922
54322	9.580052	-0.202630	2.417386	-0.001234	0.000659	0.069732	1.000000	0.000025	0.000022	0.000029	-4.812804	-75.797320	-2.697403
54323	9.560725	-0.176321	2.374144	0.038631	0.021420	0.039884	1.000000	0.000010	0.000022	0.000003	-4.808269	-75.799342	-2.699534
54324	9.568682	-0.153165	2.398799	0.020116	0.047625	0.053147	1.000000	0.000033	0.000023	0.000018	-4.814268	-75.797770	-2.691134
54325	9.547997	-0.203647	2.405028	0.002649	-0.000814	0.035656	1.000000	0.000027	0.000016	0.000024	-4.829965	-75.797962	-2.684921
54326	9.563590	-0.143578	2.366807	0.051028	0.053935	0.040187	1.000000	0.000026	0.000013	0.000013	-4.834976	-75.797527	-2.678370
54327	9.550956	-0.170685	2.397315	0.015531	0.031604	0.035956	1.000000	0.000028	0.000032	0.000015	-4.846371	-75.794289	-2.676279
54328	9.591918	-0.176725	2.389835	0.032350	0.024355	0.073960	1.000000	0.000021	0.000023	0.000010	-4.850414	-75.792784	-2.671353
54329	9.565008	-0.187464	2.409252	0.006660	0.016815	0.052843	1.000000	0.000027	0.000016	0.000024	-4.861274	-75.787661	-2.666231
54330	9.560010	-0.177774	2.376912	0.037943	0.022754	0.039883	1.000000	0.000038	0.000016	0.000032	-4.873516	-75.786638	-2.650870
54331	9.542469	-0.194848	2.374714	0.032339	0.006076	0.022701	1.000000	0.000040	0.000023	0.000007	-4.874293	-75.793624	-2.651914
54332	9.569175	-0.184304	2.356121	0.058361	0.013859	0.043822	1.000000	0.000010	0.000022	0.000003	-4.876275	-75.792220	-2.650507
54333	9.550322	-0.171668	2.399770	0.012991	0.032173	0.035958	1.000000	0.000024	0.000019	0.000017	-4.876355	-75.794787	-2.645612
54334	9.591314	-0.177795	2.392182	0.029791	0.024923	0.073967	1.000000	0.000033	0.000023	0.000018	-4.882605	-75.793236	-2.637126
54335	9.573788	-0.194897	2.389918	0.026166	0.007711	0.056779	1.000000	0.000029	0.000010	0.000020	-4.880390	-75.789867	-2.629933
54336	9.567483	-0.155350	2.403434	0.016883	0.048974	0.053147	1.000000	0.000030	0.000026	0.000011	-4.883582	-75.787972	-2.624909
54337	9.581641	-0.171866	2.414948	0.008183	0.034085	0.070032	1.000000	0.000021	0.000023	0.000010	-4.888917	-75.782348	-2.626529
54338	9.582855	-0.201773	2.369506	0.048551	-0.001124	0.060712	1.000000	0.000038	0.000016	0.000032	-4.901167	-75.781329	-2.611178
54339	9.537173	-0.199697	2.432168	-0.050197	-0.016521	0.031610	1.000000	0.000040	0.000023	0.000007	-4.228312	-75.934246	-3.618834
54340	9.568376	-0.185556	2.359264	0.029322	-0.012928	0.043953	1.000000	0.000013	0.000019	0.000010	-4.227590	-75.934388	-3.621328
54341	9.540154	-0.166526	2.424429	-0.037685	0.015134	0.032031	1.000000	0.000026	0.000013	0.000013	-4.227513	-75.935347	-3.624633
54342	9.563734	-0.189410	2.414152	-0.025284	-0.009363	0.052823	1.000000	0.000023	0.000016	0.000006	-4.223967	-75.935840	-3.628827
54343	9.566808	-0.156181	2.406065	-0.012317	0.022371	0.053250	1.000000	0.000033	0.000023	0.000018	-4.224793	-75.935489	-3.626776
54344	9.558664	-0.179500	2.382191	0.005428	-0.003920	0.039980	1.000000	0.000025	0.000010	0.000002	-4.219261	-75.936725	-3.632794
54345	9.558581	-0.179594	2.382517	0.005017	-0.004014	0.039980	1.000000	0.000044	0.000023	0.000025	-4.222251	-75.936266	-3.629612
54346	9.585297	-0.169365	2.363920	0.030798	0.003304	0.061206	1.000000	0.000003	0.000022	0.000014	-4.224352	-75.936057	-3.630412
54347	9.558370	-0.180071	2.383328	0.004136	-0.004208	0.039981	1.000000	0.000046	0.000017	0.000021	-4.225242	-75.936622	-3.623104
54348	9.552072	-0.140558	2.396815	-0.005074	0.036903	0.036433	1.000000	0.000024	0.000019	0.000017	-4.226707	-75.936689	-3.622016
54349	9.563062	-0.190404	2.416736	-0.028279	-0.010019	0.052814	1.000000	0.000032	0.000020	0.000006	-4.222531	-75.936883	-3.629000
54350	9.566144	-0.157103	2.408645	-0.015303	0.021702	0.053247	1.000000	0.000043	0.000020	0.000014	-4.220332	-75.936910	-3.629485
54351	9.572258	-0.196850	2.395877	-0.006956	-0.019601	0.056794	1.000000	0.000023	0.000016	0.000006	-4.216958	-75.937462	-3.636750
54352	9.557874	-0.180371	2.385290	0.002002	-0.004688	0.039981	1.000000	0.000035	0.000033	0.000004	-4.210687	-75.936114	-3.642330
54353	9.581407	-0.203210	2.375231	0.014350	-0.029179	0.060778	1.000000	0.000035	0.000016	0.000014	-4.209814	-75.936658	-3.649720
54354	9.565715	-0.157227	2.410342	-0.017012	0.021340	0.053245	1.000000	0.000033	0.000023	0.000018	-4.210437	-75.936334	-3.648509
54355	9.565617	-0.157441	2.410717	-0.017399	0.021229	0.053245	1.000000	0.000016	0.000016	0.000017	-4.212517	-75.936589	-3.643476
54356	9.571722	-0.197331	2.397977	-0.009059	-0.020086	0.056792	1.000000	0.000021	0.000023	0.000010	-4.210951	-75.936339	-3.645851
54357	9.557348	-0.181036	2.387346	-0.000092	-0.005178	0.039981	1.000000	0.000033	0.000023	0.000018	-4.211514	-75.936019	-3.638855
54358	9.542983	-0.164802	2.376681	0.008877	0.009733	0.023172	1.000000	0.000024	0.000019	0.000017	-4.212976	-75.936087	-3.637771
54359	9.588837	-0.180976	2.401854	-0.006311	-0.003586	0.074041	1.000000	0.000041	0.000026	0.000018	-4.212761	-75.935410	-3.634230
54360	9.565079	-0.158329	2.412790	-0.019513	0.020732	0.053242	1.000000	0.000016	0.000016	0.000017	-4.215062	-75.935869	-3.633272
54361	9.556895	-0.181760	2.389106	-0.001778	-0.005571	0.039981	1.000000	0.000025	0.000035	0.000008	-4.211711	-75.934127	-3.640118
54362	9.556752	-0.181868	2.389671	-0.002200	-0.005671	0.039981	1.000000	0.000033	0.000023	0.000018	-4.212333	-75.933804	-3.638909
54363	9.569233	-0.155040	2.360014	0.032960	0.016636	0.044419	1.000000	0.000040	0.000023	0.000007	-4.207374	-75.933595	-3.644393
54364	9.556526	-0.181947	2.390567	-0.003056	-0.005857	0.039980	1.000000	0.000021	0.000023	0.000010	-4.205807	-75.933346	-3.646769
54365	9.556443	-0.182117	2.390885	-0.003446	-0.005960	0.039980	1.000000	0.000029	0.000010	0.000020	-4.208267	-75.934287	-3.644254
54366	9.573814	-0.165410	2.393778	0.000158	0.010738	0.057233	1.000000	0.000021	0.000023	0.000010	-4.206700	-75.934039	-3.646631
54367	9.561099	-0.192432	2.424329	-0.035829	-0.011759	0.052788	1.000000	0.000033	0.000023	0.000018	-4.207089	-75.933519	-3.642718
54368	9.573572	-0.165658	2.394727	-0.000652	0.010528	0.057233	1.000000	0.000038	0.000029	0.000011	-4.203843	-75.932489	-3.644845
54369	9.564058	-0.159293	2.416772	-0.023223	0.019849	0.053235	1.000000	0.000035	0.000016	0.000014	-4.202509	-75.932818	-3.646963
54370	9.570200	-0.199225	2.403889	-0.014917	-0.021473	0.056782	1.000000	0.000012	0.000003	0.000019	-4.206694	-75.934726	-3.644496
54371	9.555884	-0.183040	2.393047	-0.005908	-0.006567	0.039979	1.000000	0.000033	0.000023	0.000018	-4.207315	-75.934286	-3.646044
54372	9.565173	-0.189610	2.371894	0.015833	-0.016093	0.043979	1.000000	0.000021	0.000023	0.000010	-4.205746	-75.934038	-3.648424
54373	9.573123	-0.166337	2.396476	-0.002745	0.010046	0.057234	1.000000	0.000032	0.000020	0.000006	-4.201710	-75.934280	-3.656466
54374	9.564989	-0.189691	2.372632	0.014964	-0.016278	0.043980	1.000000	0.000026	0.000013	0.000013	-4.201188	-75.935090	-3.657208
54375	9.582340	-0.173019	2.375617	0.018573	0.000420	0.061237	1.000000	0.000031	0.000029	0.000022	-4.203953	-75.934018	-3.658078
54376	9.541109	-0.167165	2.384028	0.001384	0.007963	0.023177	1.000000	0.000010	0.000022	0.000003	-4.200194	-75.933843	-3.664044
54377	9.582088	-0.173299	2.376612	0.017746	0.000220	0.061238	1.000000	0.000031	0.000029	0.000022	-4.202859	-75.932677	-3.664325
54378	9.564502	-0.190281	2.374547	0.013290	-0.016673	0.043982	1.000000	0.000040	0.000023	0.000007	-4.197630	-75.932390	-3.668274
54379	9.550209	-0.173977	2.363643	0.022300	-0.001762	0.027184	1.000000	0.000025	-0.000003	0.000022	-4.202350	-75.934954	-3.669028
54380	9.545573	-0.177827	2.418148	-0.031861	0.002028	0.035968	1.000000	0.000022	0.000025	0.000022	-4.205789	-75.934279	-3.666131
54381	9.572333	-0.167599	2.399543	-0.006085	0.009284	0.057233	1.000000	0.000035	0.000016	0.000014	-4.204652	-75.934658	-3.669679
54382	9.564205	-0.191070	2.375679	0.011608	-0.017052	0.043983	1.000000	0.000037	0.000013	0.000021	-4.206319	-75.935394	-3.666836
54383	9.572180	-0.167984	2.400123	-0.006924	0.009090	0.057232	1.000000	0.000016	0.000016	0.000017	-4.208715	-75.935834	-3.668197
54384	9.581507	-0.174602	2.378855	0.014804	-0.000460	0.061243	1.000000	0.000035	0.000016	0.000013	-4.207352	-75.936255	-3.668814
54385	9.540288	-0.168778	2.387197	-0.002339	0.007081	0.023178	1.000000	0.000031	0.000029	0.000022	-4.209561	-75.935025	-3.656905
54386	9.595515	-0.191356	2.390858	0.004546	-0.015673	0.078038	1.000000	0.000023	0.000016	0.000006	-4.206008	-75.935519	-3.661108
54387	9.540078	-0.169130	2.388011	-0.003194	0.006905	0.023178	1.000000	0.000025	0.000022	0.000029	-4.212968	-75.935258	-3.662478
54388	9.562252	-0.162480	2.423695	-0.031168	0.018056	0.053217	1.000000	0.000043	0.000020	0.000014	-4.210766	-75.935289	-3.662971
54389	9.563523	-0.192338	2.378321	0.008676	-0.017742	0.043985	1.000000	0.000035	0.000016	0.000013	-4.209482	-75.935641	-3.664535
54390	9.572839	-0.198891	2.357124	0.030399	-0.027301	0.048001	1.000000	0.000021	0.000022	0.000010	-4.207908	-75.935393	-3.666920
54391	9.561979	-0.162814	2.424751	-0.032411	0.017771	0.053213	1.000000	0.000029	0.000010	0.000020	-4.210520	-75.936481	-3.665199
54392	9.590147	-0.182306	2.360305	0.033600	-0.010715	0.065265	1.000000	0.000032	0.000020	0.000006	-4.206126	-75.936585	-3.669279
54393	9.571227	-0.169536	2.403814	-0.011113	0.008116	0.057229	1.000000	0.000027	0.000016	0.000024	-4.210722	-75.936987	-3.660138
54394	9.571127	-0.169797	2.404192	-0.011534	0.008017	0.057229	1.000000	0.000033	0.000023	0.000018	-4.211338	-75.936665	-3.658940
54395	9.562980	-0.193342	2.380423	0.006144	-0.018330	0.043986	1.000000	0.000016	0.000016	0.000017	-4.213646	-75.937142	-3.652608
54396	9.570954	-0.170119	2.404860	-0.012382	0.007820	0.057228	1.000000	0.000045	0.000014	0.000010	-4.209463	-75.937916	-3.654921
54397	9.562821	-0.193545	2.381044	0.005291	-0.018521	0.043986	1.000000	0.000024	0.000019	0.000017	-4.211124	-75.938025	-3.658265
54398	9.548502	-0.177213	2.370291	0.014330	-0.003630	0.027199	1.000000	0.000032	0.000020	0.000006	-4.206728	-75.938130	-3.662347
54399	9.573920	-0.137107	2.397379	-0.000156	0.039322	0.057704	1.000000	0.000024	0.000019	0.000017	-4.208543	-75.938274	-3.666395
54400	9.562535	-0.194008	2.382155	0.004009	-0.018804	0.043986	1.000000	0.000027	0.000016	0.000024	-4.213029	-75.938658	-3.661862
54401	9.562438	-0.194101	2.382538	0.003611	-0.018910	0.043986	1.000000	0.000029	0.000023	-0.000001	-4.205483	-75.938309	-3.664570
54402	9.548137	-0.177846	2.371715	0.012657	-0.004021	0.027201	1.000000	0.000022	0.000009	0.000031	-4.213840	-75.939400	-3.656701
54403	9.570321	-0.171177	2.407301	-0.015308	0.007156	0.057225	1.000000	0.000010	0.000022	0.000003	-4.210254	-75.939120	-3.667023
54404	9.546578	-0.148426	2.418136	-0.028393	0.031525	0.036412	1.000000	0.000035	0.000019	0.000025	-4.213900	-75.939114	-3.662366
54405	9.579552	-0.178071	2.386461	0.005994	-0.002519	0.061252	1.000000	0.000037	0.000013	0.000021	-4.215643	-75.939783	-3.662340
54406	9.538353	-0.172225	2.394674	-0.011131	0.005071	0.023173	1.000000	0.000033	0.000023	0.000018	-4.216256	-75.939461	-3.661146
54407	9.555702	-0.155488	2.397711	-0.007498	0.021751	0.040440	1.000000	0.000030	0.000026	0.000011	-4.213863	-75.938777	-3.660864
54408	9.561785	-0.195350	2.385053	0.000689	-0.019597	0.043985	1.000000	0.000039	0.000007	0.000016	-4.213552	-75.940257	-3.659841
54409	9.569726	-0.172203	2.409594	-0.017825	0.006578	0.057221	1.000000	0.000018	0.000035	0.000019	-4.216109	-75.938567	-3.660922
54410	9.579038	-0.178830	2.388468	0.003883	-0.003010	0.061253	1.000000	0.000036	0.000010	0.000009	-4.212766	-75.939732	-3.663361
54411	9.537846	-0.172868	2.396644	-0.013233	0.004592	0.023171	1.000000	0.000033	0.000023	0.000018	-4.213477	-75.939424	-3.663306
54412	9.561376	-0.195982	2.386643	-0.001012	-0.019981	0.043984	1.000000	0.000024	0.000019	0.000017	-4.214929	-75.939492	-3.662238
54413	9.573969	-0.169411	2.356861	0.034231	0.002187	0.048510	1.000000	0.000024	0.000019	0.000017	-4.216444	-75.939551	-3.660551
54414	9.569216	-0.173044	2.411555	-0.019934	0.006093	0.057217	1.000000	0.000033	0.000023	0.000018	-4.217055	-75.939230	-3.659360
54415	9.554919	-0.156774	2.400746	-0.010880	0.020994	0.040438	1.000000	0.000026	0.000013	0.000013	-4.216859	-75.940156	-3.668290
54416	9.546791	-0.180298	2.376939	0.006772	-0.005380	0.027206	1.000000	0.000024	0.000019	0.000017	-4.218310	-75.940224	-3.667224
54417	9.578364	-0.179987	2.391080	0.000900	-0.003681	0.061253	1.000000	0.000051	0.000023	0.000015	-4.215353	-75.939899	-3.670047
54418	9.564048	-0.163705	2.380357	0.009977	0.011198	0.044477	1.000000	0.000003	0.000022	0.000013	-4.217427	-75.939689	-3.670877
54419	9.578170	-0.180249	2.391837	0.000056	-0.003881	0.061253	1.000000	0.000036	0.000010	0.000009	-4.214079	-75.940849	-3.672674
54420	9.571938	-0.140577	2.405081	-0.008932	0.037278	0.057708	1.000000	0.000024	0.000019	0.000017	-4.215529	-75.940918	-3.671608
54421	9.560514	-0.197366	2.389977	-0.004832	-0.020860	0.043981	1.000000	0.000021	0.000022	0.000010	-4.213768	-75.940619	-3.667715
54422	9.569841	-0.203951	2.368836	0.016866	-0.030466	0.048024	1.000000	0.000043	0.000020	0.000014	-4.211562	-75.940652	-3.668217
54423	9.568369	-0.174173	2.414836	-0.023743	0.005217	0.057209	1.000000	0.000026	0.000013	0.000013	-4.210968	-75.941446	-3.663169
54424	9.563491	-0.164279	2.382553	0.007461	0.010590	0.044480	1.000000	0.000035	0.000033	0.000004	-4.204670	-75.940105	-3.668782
54425	9.550670	-0.191163	2.413143	-0.028634	-0.011745	0.039934	1.000000	0.000040	0.000010	0.000028	-4.209461	-75.941138	-3.666148
54426	9.577499	-0.181114	2.394458	-0.002887	-0.004584	0.061253	1.000000	0.000003	0.000022	0.000013	-4.211532	-75.940928	-3.666981
54427	9.563178	-0.164787	2.383774	0.006212	0.010295	0.044481	1.000000	0.000027	0.000029	0.000004	-4.206137	-75.939924	-3.675698
54428	9.567833	-0.174721	2.416918	-0.025839	0.004736	0.057204	1.000000	0.000026	0.000013	0.000013	-4.205610	-75.940736	-3.676449
54429	9.550263	-0.191802	2.414703	-0.030300	-0.012139	0.039928	1.000000	0.000014	0.000022	0.000021	-4.209769	-75.940368	-3.669633
54430	9.553459	-0.158760	2.406421	-0.017153	0.019509	0.040432	1.000000	0.000026	0.000013	0.000013	-4.209242	-75.941180	-3.670384
54431	9.545343	-0.182238	2.382603	0.000486	-0.006873	0.027207	1.000000	0.000034	0.000016	0.000013	-4.207960	-75.941615	-3.670710
54432	9.553270	-0.158928	2.407159	-0.017995	0.019316	0.040431	1.000000	0.000038	0.000029	0.000011	-4.204694	-75.940590	-3.672863
54433	9.572037	-0.172036	2.364508	0.025817	0.000175	0.048535	1.000000	0.000034	0.000016	0.000013	-4.203321	-75.940968	-3.672317
54434	9.549782	-0.192547	2.416548	-0.032404	-0.012623	0.039921	1.000000	0.000008	0.000015	0.000028	-4.211459	-75.941388	-3.666226
54435	9.571844	-0.172544	2.365251	0.024986	-0.000029	0.048538	1.000000	0.000027	0.000029	0.000004	-4.205954	-75.940366	-3.670564
54436	9.562284	-0.166095	2.387270	0.002453	0.009395	0.044484	1.000000	0.000024	0.000019	0.000017	-4.207402	-75.940435	-3.669503
54437	9.576364	-0.182712	2.398871	-0.007474	-0.005683	0.061250	1.000000	0.000033	0.000023	0.000018	-4.207915	-75.939995	-3.667576
54438	9.562064	-0.166479	2.388121	0.001631	0.009191	0.044484	1.000000	0.000033	0.000023	0.000018	-4.208523	-75.939675	-3.666392
54439	9.576152	-0.182989	2.399697	-0.008303	-0.005887	0.061249	1.000000	0.000023	0.000016	0.000006	-4.204850	-75.940078	-3.670040
54440	9.552402	-0.160161	2.410520	-0.021303	0.018516	0.040426	1.000000	0.000039	0.000032	0.000023	-4.206592	-75.938625	-3.666920
54441	9.571174	-0.173429	2.367897	0.022502	-0.000644	0.048544	1.000000	0.000005	0.000016	0.000009	-4.206727	-75.939099	-3.673038
54442	9.552198	-0.160649	2.411294	-0.022132	0.018322	0.040425	1.000000	0.000038	0.000016	0.000032	-4.213403	-75.939409	-3.664929
54443	9.558240	-0.200632	2.398784	-0.014037	-0.023046	0.043968	1.000000	0.000040	0.000023	0.000007	-4.208134	-75.939113	-3.667858
54444	9.570851	-0.173895	2.369166	0.021239	-0.000947	0.048546	1.000000	0.000025	0.000035	0.000008	-4.204645	-75.937419	-3.671790
54445	9.570725	-0.173958	2.369671	0.020821	-0.001049	0.048547	1.000000	0.000034	0.000016	0.000013	-4.203206	-75.937817	-3.667313
54446	9.561186	-0.167570	2.391561	-0.001705	0.008387	0.044485	1.000000	0.000024	0.000019	0.000017	-4.204652	-75.937887	-3.666255
54447	9.567214	-0.207513	2.379116	0.006396	-0.032988	0.048028	1.000000	0.000030	0.000026	0.000011	-4.202102	-75.937171	-3.664858
54448	9.570420	-0.174407	2.370869	0.019569	-0.001355	0.048550	1.000000	0.000016	0.000016	0.000017	-4.204388	-75.937630	-3.663924
54449	9.533931	-0.178419	2.411768	-0.029104	0.000858	0.023138	1.000000	0.000044	0.000023	0.000025	-4.207156	-75.937186	-3.656283
54450	9.584367	-0.191193	2.382968	0.009189	-0.016527	0.065310	1.000000	0.000027	0.000029	0.000004	-4.201692	-75.936236	-3.662028
54451	9.578115	-0.151570	2.396287	0.000269	0.024649	0.061767	1.000000	0.000038	0.000016	0.000032	-4.208487	-75.936541	-3.658434
54452	9.569975	-0.175165	2.372608	0.017892	-0.001755	0.048553	1.000000	0.000019	0.000026	0.000003	-4.203862	-75.935980	-3.664304
54453	9.552370	-0.192039	2.370524	0.013415	-0.018614	0.031271	1.000000	0.000021	0.000022	0.000010	-4.202301	-75.935723	-3.667263
54454	9.587236	-0.158493	2.376071	0.021107	0.014805	0.065837	1.000000	0.000033	0.000023	0.000018	-4.202906	-75.935404	-3.666084
54455	9.556880	-0.202190	2.404068	-0.019079	-0.024232	0.043956	1.000000	0.000026	0.000013	0.000013	-4.202393	-75.936203	-3.666459
54456	9.560126	-0.169042	2.395692	-0.005888	0.007395	0.044484	1.000000	0.000034	0.000016	0.000013	-4.201025	-75.936627	-3.667091
54457	9.569499	-0.175816	2.374480	0.015794	-0.002253	0.048556	1.000000	0.000027	0.000016	0.000024	-4.205579	-75.936968	-3.664827
54458	9.569387	-0.175955	2.374920	0.015372	-0.002354	0.048557	1.000000	0.000027	0.000029	0.000004	-4.200113	-75.936018	-3.670576
54459	9.575407	-0.215956	2.362509	0.023426	-0.043727	0.052101	1.000000	0.000038	0.000016	0.000032	-4.206917	-75.936301	-3.666817
54460	9.573873	-0.186189	2.408530	-0.017123	-0.007956	0.061236	1.000000	0.000019	0.000026	0.000003	-4.202291	-75.935741	-3.672690
54461	9.559620	-0.169883	2.397649	-0.007972	0.006908	0.044483	1.000000	0.000029	0.000010	0.000020	-4.204793	-75.936819	-3.668669
54462	9.569012	-0.176619	2.376382	0.013698	-0.002751	0.048559	1.000000	0.000034	0.000016	0.000013	-4.203424	-75.937244	-3.669302
54463	9.573608	-0.186540	2.409556	-0.018386	-0.008247	0.061234	1.000000	0.000030	0.000026	0.000011	-4.201113	-75.936630	-3.672845
54464	9.541834	-0.187044	2.396244	-0.013301	-0.010138	0.027195	1.000000	0.000021	0.000022	0.000010	-4.199520	-75.936385	-3.675256
54465	9.573388	-0.186830	2.410405	-0.019230	-0.008437	0.061232	1.000000	0.000027	0.000016	0.000024	-4.204143	-75.936757	-3.672436
54466	9.568610	-0.177160	2.377962	0.012010	-0.003141	0.048561	1.000000	0.000023	0.000016	0.000006	-4.200578	-75.937255	-3.676656
54467	9.569885	-0.220339	2.419737	-0.033716	-0.040344	0.060692	1.000000	0.000046	0.000016	0.000021	-4.201511	-75.937625	-3.671256
54468	9.558942	-0.170801	2.400284	-0.010924	0.006233	0.044480	1.000000	0.000017	0.000032	0.000007	-4.198852	-75.936321	-3.675324
54469	9.590473	-0.170450	2.414544	-0.016847	0.007933	0.078516	1.000000	0.000034	0.000016	0.000013	-4.197638	-75.936670	-3.676657
54470	9.558732	-0.171030	2.401105	-0.011753	0.006042	0.044480	1.000000	0.000024	0.000019	0.000017	-4.199080	-75.936740	-3.675606
54471	9.568095	-0.177640	2.379996	0.009916	-0.003624	0.048564	1.000000	0.000029	0.000023	-0.000001	-4.191798	-75.936503	-3.684272
54472	9.568014	-0.177688	2.380319	0.009494	-0.003724	0.048564	1.000000	0.000029	0.000010	0.000020	-4.194304	-75.937632	-3.681567
54473	9.536253	-0.178253	2.366964	0.014603	-0.005613	0.014529	1.000000	0.000025	0.000035	0.000008	-4.190907	-75.935878	-3.683944
54474	9.566362	-0.147960	2.426727	-0.031438	0.031985	0.057681	1.000000	0.000042	0.000004	0.000023	-4.193638	-75.937677	-3.679460
54475	9.550241	-0.194925	2.378855	0.004182	-0.020767	0.031275	1.000000	0.000010	0.000022	0.000002	-4.189917	-75.937461	-3.683653
54476	9.544014	-0.155125	2.392079	-0.004667	0.020420	0.027733	1.000000	0.000043	0.000020	0.000014	-4.187708	-75.937497	-3.684165
54477	9.567529	-0.178198	2.382229	0.007411	-0.004213	0.048566	1.000000	0.000021	0.000022	0.000010	-4.186197	-75.937205	-3.685235
54478	9.567418	-0.178290	2.382667	0.006990	-0.004313	0.048566	1.000000	0.000021	0.000022	0.000010	-4.184601	-75.936960	-3.687651
54479	9.567306	-0.178429	2.383107	0.006561	-0.004403	0.048566	1.000000	0.000033	0.000023	0.000018	-4.185430	-75.936682	-3.689172
54480	9.567218	-0.178414	2.383461	0.006139	-0.004503	0.048566	1.000000	0.000022	0.000013	-0.000006	-4.176856	-75.937609	-3.698668
54481	9.581261	-0.194852	2.395132	-0.003882	-0.019550	0.065308	1.000000	0.000031	0.000029	0.000022	-4.179619	-75.936552	-3.696700
54482	9.525867	-0.172507	2.392081	-0.011249	0.003101	0.010440	1.000000	0.000033	0.000023	0.000018	-4.180219	-75.936233	-3.695529
54483	9.571541	-0.188547	2.417598	-0.026789	-0.010159	0.061213	1.000000	0.000040	0.000023	0.000007	-4.175018	-75.935873	-3.694920
54484	9.566767	-0.178816	2.385239	0.004465	-0.004892	0.048567	1.000000	0.000024	0.000019	0.000017	-4.176457	-75.935943	-3.693873
54485	9.552505	-0.162533	2.374448	0.013652	0.009968	0.031828	1.000000	0.000038	0.000029	0.000011	-4.173326	-75.934888	-3.693922
54486	9.566534	-0.179001	2.386162	0.003627	-0.005086	0.048567	1.000000	0.000034	0.000016	0.000013	-4.171955	-75.935314	-3.694560
54487	9.548943	-0.195987	2.383969	-0.000851	-0.021927	0.031273	1.000000	0.000024	0.000019	0.000017	-4.173490	-75.935334	-3.690171
54488	9.566339	-0.179308	2.386920	0.002793	-0.005281	0.048567	1.000000	0.000021	0.000022	0.000010	-4.171892	-75.935089	-3.692590
54489	9.542624	-0.156389	2.397536	-0.010086	0.019170	0.027731	1.000000	0.000034	0.000016	0.000013	-4.170631	-75.935470	-3.689351
54490	9.575642	-0.185933	2.366124	0.024029	-0.015070	0.052668	1.000000	0.000031	0.000017	-0.000005	-4.161217	-75.936009	-3.698725
54491	9.566065	-0.179417	2.388011	0.001540	-0.005571	0.048568	1.000000	0.000025	0.000022	0.000029	-4.167779	-75.935627	-3.688711
54492	9.551814	-0.163320	2.377172	0.010729	0.009283	0.031832	1.000000	0.000033	0.000023	0.000018	-4.168377	-75.935309	-3.687543
54493	9.575348	-0.186552	2.367265	0.022769	-0.015360	0.052671	1.000000	0.000029	0.000010	0.000020	-4.171032	-75.936425	-3.683827
54494	9.592761	-0.169877	2.370158	0.026412	0.001282	0.069968	1.000000	0.000030	0.000026	0.000011	-4.168593	-75.935792	-3.686124
54495	9.551523	-0.163766	2.378310	0.009472	0.008997	0.031834	1.000000	0.000021	0.000022	0.000010	-4.167165	-75.935543	-3.688695
54496	9.565551	-0.180246	2.390005	-0.000566	-0.006055	0.048567	1.000000	0.000043	0.000020	0.000014	-4.164954	-75.935580	-3.689212
54497	9.551328	-0.163922	2.379080	0.008633	0.008805	0.031835	1.000000	0.000034	0.000016	0.000013	-4.163794	-75.936002	-3.693796
54498	9.541760	-0.157592	2.400890	-0.013854	0.018311	0.027728	1.000000	0.000008	0.000015	0.000028	-4.171915	-75.936420	-3.687730
54499	9.574720	-0.187541	2.369727	0.020230	-0.015944	0.052675	1.000000	0.000023	0.000041	0.000012	-4.170593	-75.933999	-3.695293
54500	9.555618	-0.174479	2.413223	-0.024320	0.003177	0.044458	1.000000	0.000029	0.000010	0.000020	-4.173097	-75.935128	-3.692593
54501	9.547533	-0.198052	2.389442	-0.006745	-0.023268	0.031268	1.000000	0.000023	0.000016	0.000006	-4.169655	-75.935609	-3.696712
54502	9.550823	-0.164931	2.381040	0.006533	0.008320	0.031837	1.000000	0.000024	0.000019	0.000017	-4.171091	-75.935679	-3.695671
54503	9.564874	-0.181440	2.392623	-0.003512	-0.006723	0.048566	1.000000	0.000036	0.000010	0.000009	-4.167839	-75.936813	-3.695298
54504	9.547308	-0.198329	2.390316	-0.008005	-0.023561	0.031266	1.000000	0.000026	0.000013	0.000013	-4.167305	-75.937627	-3.696064
54505	9.555233	-0.175071	2.414704	-0.026424	0.002702	0.044453	1.000000	0.000044	0.000023	0.000025	-4.170297	-75.937282	-3.688717
54506	9.569241	-0.191730	2.426434	-0.036481	-0.012342	0.061179	1.000000	0.000003	0.000022	0.000013	-4.172341	-75.937070	-3.689583
54507	9.564515	-0.181961	2.394020	-0.005203	-0.007106	0.048565	1.000000	0.000031	0.000017	-0.000005	-4.163067	-75.937588	-3.695830
54508	9.564433	-0.182007	2.394342	-0.005625	-0.007205	0.048565	1.000000	0.000027	0.000016	0.000024	-4.167539	-75.937973	-3.691326
54509	9.540720	-0.159232	2.404912	-0.018475	0.017277	0.027722	1.000000	0.000032	0.000023	0.000018	-4.168462	-75.937723	-3.693823
54510	9.564251	-0.182436	2.395038	-0.006480	-0.007388	0.048564	1.000000	0.000018	0.000010	0.000012	-4.168767	-75.938926	-3.694713
54511	9.569036	-0.179482	2.341071	0.046854	-0.011783	0.040076	1.000000	0.000032	0.000023	0.000018	-4.169597	-75.938605	-3.695928
54512	9.572084	-0.159401	2.419761	-0.025305	0.018786	0.061747	1.000000	0.000027	0.000016	0.000024	-4.174069	-75.938991	-3.691425
54513	9.546462	-0.199657	2.393584	-0.011818	-0.024403	0.031260	1.000000	0.000036	0.000023	-0.000012	-4.160950	-75.938828	-3.702845
54514	9.573372	-0.189522	2.375011	0.013886	-0.017395	0.052684	1.000000	0.000008	0.000015	0.000028	-4.169069	-75.939245	-3.696784
54515	9.549662	-0.166694	2.385567	0.001068	0.007084	0.031840	1.000000	0.000040	0.000023	0.000007	-4.163995	-75.938935	-3.699792
54516	9.567062	-0.149888	2.388547	0.004721	0.023718	0.049144	1.000000	0.000021	0.000022	0.000010	-4.162389	-75.938691	-3.702220
54517	9.581073	-0.166316	2.400270	-0.005349	0.008683	0.065866	1.000000	0.000032	0.000020	0.000006	-4.158139	-75.938783	-3.705439
54518	9.587068	-0.206260	2.387977	0.002551	-0.032724	0.069406	1.000000	0.000032	0.000023	0.000018	-4.158733	-75.938466	-3.704279
54519	9.549231	-0.166954	2.387274	-0.000608	0.006702	0.031840	1.000000	0.000021	0.000022	0.000010	-4.157350	-75.938212	-3.709122
54520	9.580766	-0.166637	2.401472	-0.006612	0.008395	0.065865	1.000000	0.000026	0.000013	0.000013	-4.156815	-75.939027	-3.709890
54521	9.558525	-0.173790	2.366607	0.020608	-0.003129	0.035967	1.000000	0.000025	0.000035	0.000008	-4.153444	-75.937288	-3.714076
54522	9.571016	-0.160165	2.423933	-0.029494	0.017843	0.061737	1.000000	0.000046	0.000016	0.000021	-4.154270	-75.937642	-3.711134
54523	9.562922	-0.183732	2.400241	-0.011940	-0.008622	0.048558	1.000000	0.000023	0.000016	0.000006	-4.150833	-75.938116	-3.714171
54524	9.558219	-0.174085	2.367819	0.019349	-0.003425	0.035969	1.000000	0.000032	0.000023	0.000018	-4.151426	-75.937799	-3.713013
54525	9.572237	-0.190635	2.379493	0.009262	-0.018455	0.052687	1.000000	0.000026	0.000013	0.000013	-4.151115	-75.938597	-3.718932
54526	9.562659	-0.184037	2.401261	-0.013204	-0.008908	0.048556	1.000000	0.000023	0.000016	0.000006	-4.147540	-75.939097	-3.723167
54527	9.572073	-0.190852	2.380134	0.008419	-0.018648	0.052688	1.000000	0.000035	0.000019	0.000025	-4.151349	-75.939082	-3.717540
54528	9.579977	-0.167569	2.404555	-0.009967	0.007631	0.065863	1.000000	0.000021	0.000022	0.000010	-4.149740	-75.938838	-3.719972
54529	9.579879	-0.167661	2.404936	-0.010385	0.007537	0.065863	1.000000	0.000034	0.000016	0.000013	-4.148503	-75.939243	-3.716822
54530	9.521141	-0.178373	2.410399	-0.031329	-0.001431	0.010396	1.000000	0.000032	0.000023	0.000018	-4.149095	-75.938926	-3.715665
54531	9.592588	-0.141439	2.375487	0.024573	0.029356	0.070593	1.000000	0.000032	0.000023	0.000018	-4.149862	-75.938574	-3.715237
54532	9.571515	-0.191574	2.382320	0.006316	-0.019134	0.052688	1.000000	0.000025	0.000035	0.000008	-4.146341	-75.936885	-3.719209
54533	9.557273	-0.175363	2.371539	0.015580	-0.004294	0.035976	1.000000	0.000014	0.000022	0.000021	-4.150702	-75.936561	-3.714236
54534	9.561760	-0.185192	2.404753	-0.016560	-0.009672	0.048551	1.000000	0.000020	0.000020	-0.000001	-4.144088	-75.936747	-3.721938
54535	9.565068	-0.151950	2.396390	-0.003220	0.021895	0.049149	1.000000	0.000030	0.000026	0.000011	-4.141791	-75.936105	-3.720539
54536	9.539458	-0.192242	2.370205	0.010241	-0.021313	0.018667	1.000000	0.000025	0.000010	0.000002	-4.136249	-75.937349	-3.726579
54537	9.578979	-0.168541	2.408458	-0.013741	0.006768	0.065859	1.000000	0.000023	0.000028	0.000033	-4.144785	-75.936220	-3.715893
54538	9.548774	-0.199394	2.349488	0.031440	-0.031166	0.022808	1.000000	0.000036	0.000010	0.000009	-4.141444	-75.937392	-3.718344
54539	9.547187	-0.169223	2.395279	-0.008281	0.007168	0.031836	1.000000	0.000010	0.000022	0.000002	-4.196052	-75.934073	-3.666025
54540	9.574106	-0.159347	2.376776	0.017416	0.014147	0.053287	1.000000	0.000036	0.000022	0.000036	-4.204928	-75.933626	-3.655914
54541	9.556487	-0.176469	2.374625	0.012921	-0.002672	0.035980	1.000000	0.000034	0.000016	0.000013	-4.203798	-75.934020	-3.658202
54542	9.560974	-0.186209	2.407796	-0.019222	-0.008026	0.048547	1.000000	0.000032	0.000020	0.000006	-4.199629	-75.934122	-3.662088
54543	9.564313	-0.153034	2.399332	-0.005872	0.023544	0.049144	1.000000	0.000034	0.000016	0.000013	-4.198564	-75.934568	-3.664374
54544	9.570279	-0.193046	2.387161	0.001965	-0.017866	0.052692	1.000000	0.000028	0.000032	0.000015	-4.198319	-75.933180	-3.664663
54545	9.556069	-0.176779	2.376281	0.011245	-0.003029	0.035982	1.000000	0.000034	0.000016	0.000013	-4.197216	-75.933579	-3.668525
54546	9.532383	-0.153746	2.386711	-0.001504	0.021478	0.015124	1.000000	0.000023	0.000016	0.000006	-4.193886	-75.934067	-3.672533
54547	9.587486	-0.176494	2.390926	0.004798	-0.001412	0.070002	1.000000	0.000019	0.000029	0.000014	-4.194394	-75.933021	-3.670157
54548	9.560355	-0.186768	2.410210	-0.021733	-0.008554	0.048542	1.000000	0.000039	0.000007	0.000016	-4.194343	-75.934495	-3.668909
54549	9.573235	-0.160414	2.380212	0.013666	0.013331	0.053294	1.000000	0.000032	0.000023	0.000018	-4.195108	-75.934137	-3.663388
54550	9.587221	-0.176942	2.391956	0.003544	-0.001684	0.070003	1.000000	0.000034	0.000016	0.000013	-4.193978	-75.934553	-3.663809
54551	9.569616	-0.193921	2.389746	-0.000954	-0.018500	0.052691	1.000000	0.000016	0.000016	0.000017	-4.196436	-75.934968	-3.662176
54552	9.555442	-0.177808	2.378728	0.008333	-0.003666	0.035985	1.000000	0.000035	0.000019	0.000025	-4.200309	-75.934953	-3.657333
54553	9.536292	-0.164606	2.422054	-0.036136	0.015600	0.027676	1.000000	0.000021	0.000022	0.000010	-4.198924	-75.934693	-3.658752
54554	9.559812	-0.187863	2.412278	-0.024238	-0.009090	0.048535	1.000000	0.000029	0.000010	0.000020	-4.201676	-75.935810	-3.655828
54555	9.572697	-0.161460	2.382304	0.011161	0.012786	0.053298	1.000000	0.000040	0.000023	0.000007	-4.196629	-75.935524	-3.656015
54556	9.545551	-0.171580	2.401622	-0.015364	0.005654	0.031829	1.000000	0.000034	0.000016	0.000013	-4.195499	-75.935939	-3.656437
54557	9.569078	-0.194781	2.391829	-0.003472	-0.019038	0.052690	1.000000	0.000026	0.000013	0.000013	-4.195221	-75.936736	-3.658423
54558	9.554910	-0.178547	2.380807	0.005824	-0.004205	0.035986	1.000000	0.000032	0.000023	0.000018	-4.196051	-75.936408	-3.657049
54559	9.595933	-0.185035	2.373661	0.021796	-0.012181	0.074163	1.000000	0.000024	0.000019	0.000017	-4.197711	-75.936451	-3.654729
54560	9.554670	-0.178867	2.381745	0.004989	-0.004385	0.035987	1.000000	0.000025	0.000035	0.000008	-4.194417	-75.934751	-3.658493
54561	9.568618	-0.195314	2.393626	-0.005144	-0.019397	0.052688	1.000000	0.000034	0.000016	0.000013	-4.193264	-75.935137	-3.656650
54562	9.563973	-0.185902	2.361175	0.026177	-0.014253	0.040149	1.000000	0.000025	0.000022	0.000029	-4.199936	-75.934764	-3.650135
54563	9.544802	-0.172655	2.404520	-0.018277	0.005038	0.031824	1.000000	0.000040	0.000023	0.000007	-4.194971	-75.934464	-3.656445
54564	9.544681	-0.172776	2.404992	-0.018695	0.004949	0.031824	1.000000	0.000022	0.000025	0.000021	-4.198600	-75.933777	-3.653398
54565	9.595226	-0.186052	2.376435	0.019282	-0.012724	0.074167	1.000000	0.000024	0.000019	0.000017	-4.200300	-75.933820	-3.652017
54566	9.571514	-0.163085	2.386940	0.006574	0.011798	0.053304	1.000000	0.000030	0.000026	0.000011	-4.198087	-75.933178	-3.654113
54567	9.544341	-0.173305	2.406303	-0.019946	0.004688	0.031821	1.000000	0.000024	0.000019	0.000017	-4.199791	-75.933242	-3.653213
54568	9.585427	-0.179700	2.398932	-0.003995	-0.003297	0.070002	1.000000	0.000021	-0.000003	0.000004	-4.196423	-75.935922	-3.657470
54569	9.575827	-0.173098	2.420637	-0.026423	0.006311	0.065834	1.000000	0.000031	0.000029	0.000022	-4.199205	-75.934815	-3.652985
54570	9.563167	-0.187197	2.364333	0.022832	-0.014977	0.040156	1.000000	0.000032	0.000023	0.000018	-4.200033	-75.934486	-3.651614
54571	9.553520	-0.180654	2.386221	0.000404	-0.005365	0.035988	1.000000	0.000032	0.000023	0.000018	-4.200882	-75.934140	-3.649634
54572	9.566417	-0.154395	2.356314	0.035821	0.016475	0.040781	1.000000	0.000024	0.000019	0.000017	-4.202550	-75.934199	-3.648386
54573	9.584941	-0.180679	2.400800	-0.006085	-0.003743	0.070001	1.000000	0.000020	0.000006	0.000020	-4.206163	-75.935695	-3.646242
54574	9.562790	-0.188104	2.365784	0.021159	-0.015338	0.040160	1.000000	0.000031	0.000029	0.000022	-4.208948	-75.934622	-3.643079
54575	9.553134	-0.181493	2.387700	-0.001269	-0.005720	0.035987	1.000000	0.000032	0.000020	0.000006	-4.204819	-75.934723	-3.648156
54576	9.567097	-0.197968	2.399480	-0.011433	-0.020723	0.052680	1.000000	0.000024	0.000019	0.000017	-4.206486	-75.934781	-3.646909
54577	9.500903	-0.219550	2.293491	0.071142	-0.055341	-0.036833	1.000000	0.000005	-0.000009	0.000003	-4.204865	-75.938235	-3.651766
54578	9.616979	0.006767	2.579896	-0.145866	0.205415	0.141142	1.000000	0.000103	0.000012	0.000007	-4.193058	-75.939238	-3.655060
54579	9.643945	-0.619437	2.067081	0.270180	-0.484056	0.054171	1.000000	-0.000087	0.000120	0.000073	-4.229441	-75.927256	-3.632165
54580	9.122652	0.504335	2.230730	0.135192	0.658719	-0.431797	1.000000	0.000320	-0.000314	-0.000113	-4.148867	-75.966459	-3.680736
54581	9.708055	-0.524183	2.174622	0.191978	-0.376750	0.140768	1.000000	-0.000501	0.000275	0.000094	-4.237266	-75.936648	-3.648722
54582	9.717874	-0.278550	3.302195	-0.851879	0.017809	0.419279	1.000000	0.000689	0.000171	-0.000024	-4.138768	-75.919677	-3.672240
54583	9.689856	-0.136700	2.078754	0.336809	-0.006253	0.092854	1.000000	-0.000430	-0.000030	0.000073	-4.219682	-75.924893	-3.639435
54584	9.534860	-0.254476	2.518878	-0.140251	-0.060725	0.051374	1.000000	0.000332	-0.000014	-0.000024	-4.168335	-75.929122	-3.656433
54585	9.504818	-0.068153	2.196345	0.186712	0.080799	-0.059290	1.000000	-0.000202	-0.000009	0.000043	-4.208699	-75.932115	-3.639447
54586	9.609123	-0.142087	2.432514	-0.025362	0.038239	0.100458	1.000000	0.000133	-0.000013	0.000005	-4.193477	-75.935953	-3.642731
54587	9.619347	-0.285795	2.370717	0.016579	-0.112303	0.097960	1.000000	-0.000103	-0.000013	0.000041	-4.221738	-75.939459	-3.632104
54588	9.597058	-0.062859	2.457382	-0.042491	0.120751	0.093362	1.000000	0.000179	0.000017	0.000005	-4.200382	-75.939922	-3.636345
54589	9.561490	-0.339060	2.418264	-0.050316	-0.158069	0.054305	1.000000	-0.000013	0.000057	0.000009	-4.201380	-75.935787	-3.641480
54590	9.517486	-0.110769	2.383235	0.003847	0.064108	-0.000935	1.000000	0.000026	0.000038	0.000019	-4.203072	-75.933656	-3.640001
54591	9.526905	-0.117485	2.362319	0.025432	0.054295	0.003253	1.000000	0.000082	0.000014	0.000003	-4.191968	-75.934376	-3.644664
54592	9.571507	-0.239881	2.393339	-0.010017	-0.063478	0.056215	1.000000	-0.000023	0.000021	0.000027	-4.203704	-75.934131	-3.638647
54593	9.583778	-0.077019	2.403681	0.005111	0.099064	0.067726	1.000000	0.000079	0.000043	0.000002	-4.191516	-75.931605	-3.643794
54594	9.571182	-0.240199	2.394607	-0.010861	-0.063653	0.056212	1.000000	0.000017	0.000022	0.000039	-4.204016	-75.931185	-3.632156
54595	9.590518	-0.160209	2.434122	-0.033221	0.020756	0.083125	1.000000	0.000014	0.000035	0.000000	-4.198610	-75.929559	-3.641147
54596	9.553728	-0.163446	2.475023	-0.081721	0.023431	0.057416	1.000000	0.000051	0.000023	0.000014	-4.195796	-75.929204	-3.641338
54597	9.560265	-0.191016	2.375737	0.011524	-0.017397	0.040172	1.000000	0.000026	0.000013	0.000013	-4.195525	-75.929975	-3.639420
54598	9.577770	-0.174303	2.378393	0.015197	-0.000781	0.057499	1.000000	0.000041	0.000001	0.000012	-4.193525	-75.932197	-3.639965
54599	9.550668	-0.184432	2.397322	-0.011305	-0.007839	0.035979	1.000000	0.000022	0.000000	0.000015	-4.195186	-75.934439	-3.636684
54600	9.561745	-0.221900	2.330665	0.050157	-0.053847	0.031234	1.000000	-0.000000	0.000012	0.000027	-4.204369	-75.935224	-3.630544
54601	9.530460	-0.128767	2.398832	-0.010467	0.048239	0.015752	1.000000	0.000021	0.000022	0.000010	-4.203056	-75.934924	-3.632402
54602	9.565007	-0.189361	2.322694	0.063201	-0.022421	0.031887	1.000000	0.000038	0.000041	0.000038	-4.211943	-75.932287	-3.622086
54603	9.540679	-0.178776	2.420381	-0.034959	0.001557	0.031780	1.000000	0.000031	0.000017	-0.000005	-4.202853	-75.932811	-3.634328
54604	9.561262	-0.222535	2.332585	0.048480	-0.054213	0.031241	1.000000	0.000040	0.000023	0.000007	-4.197834	-75.932531	-3.638109
54605	9.591117	-0.191750	2.392517	0.002485	-0.016306	0.074180	1.000000	0.000012	0.000041	0.000004	-4.194351	-75.930160	-3.643057
54606	9.581371	-0.185116	2.414671	-0.019922	-0.006648	0.069981	1.000000	0.000017	0.000035	0.000019	-4.196876	-75.928416	-3.641708
54607	9.557599	-0.162014	2.425357	-0.032535	0.017918	0.049104	1.000000	0.000052	0.000039	0.000005	-4.189198	-75.926311	-3.647178
54608	9.563528	-0.201946	2.413336	-0.024859	-0.023522	0.052649	1.000000	0.000039	0.000007	0.000016	-4.189154	-75.927787	-3.645933
54609	9.563484	-0.201961	2.413510	-0.025276	-0.023607	0.052648	1.000000	0.000025	0.000010	0.000001	-4.183954	-75.929010	-3.649746
54610	9.584466	-0.152055	2.407401	-0.007707	0.024607	0.070633	1.000000	0.000032	0.000023	0.000018	-4.184774	-75.928683	-3.648390
54611	9.549277	-0.185723	2.402758	-0.016314	-0.008878	0.035972	1.000000	0.000023	0.000016	0.000006	-4.181542	-75.929156	-3.654583
54612	9.530706	-0.159742	2.358760	0.024852	0.011075	0.006828	1.000000	0.000053	0.000017	0.000010	-4.176772	-75.929548	-3.656566
54613	9.554213	-0.183001	2.349131	0.036615	-0.013666	0.027707	1.000000	0.000016	0.000016	0.000017	-4.179403	-75.929985	-3.655775
54614	9.576155	-0.175988	2.384761	0.008509	-0.002197	0.057507	1.000000	0.000018	0.000010	0.000012	-4.179949	-75.931176	-3.656450
54615	9.593607	-0.159368	2.387644	0.012189	0.014416	0.074839	1.000000	0.000019	0.000029	0.000014	-4.180633	-75.930173	-3.657414
54616	9.583900	-0.152752	2.409609	-0.010209	0.024088	0.070632	1.000000	0.000019	0.000029	0.000014	-4.181202	-75.929174	-3.657858
54617	9.583756	-0.152979	2.410166	-0.010626	0.024004	0.070632	1.000000	0.000030	0.000029	0.000022	-4.184095	-75.928102	-3.655882
54618	9.544078	-0.177087	2.372778	0.012545	-0.004349	0.023505	1.000000	0.000040	0.000023	0.000007	-4.179076	-75.927822	-3.659664
54619	9.561470	-0.160452	2.375909	0.016227	0.012260	0.040839	1.000000	0.000016	0.000041	0.000023	-4.183603	-75.925330	-3.656170
54620	9.565774	-0.170368	2.409336	-0.015980	0.007043	0.053297	1.000000	0.000027	0.000016	0.000024	-4.188304	-75.925702	-3.651470
54621	9.559608	-0.130634	2.422279	-0.024451	0.048318	0.049750	1.000000	0.000036	0.000035	0.000015	-4.187253	-75.923914	-3.654157
54622	9.561049	-0.161121	2.377556	0.014978	0.011991	0.040841	1.000000	0.000030	0.000026	0.000011	-4.185027	-75.923275	-3.656271
54623	9.565386	-0.170881	2.410841	-0.017232	0.006783	0.053296	1.000000	0.000027	0.000016	0.000024	-4.189784	-75.923647	-3.652302
54624	9.551282	-0.154662	2.399714	-0.007828	0.021588	0.036628	1.000000	0.000031	0.000020	0.000006	-4.185606	-75.923754	-3.656204
54625	9.533655	-0.171599	2.397496	-0.012343	0.004804	0.019293	1.000000	0.000040	0.000010	0.000028	-4.190564	-75.924772	-3.650560
54626	9.546687	-0.145427	2.367440	0.023138	0.026524	0.024178	1.000000	0.000010	0.000022	0.000002	-4.186973	-75.924592	-3.656383
54627	9.543018	-0.178882	2.376904	0.008794	-0.005151	0.023509	1.000000	0.000034	0.000028	0.000040	-4.197801	-75.923381	-3.646847
54628	9.568421	-0.138928	2.403808	-0.005383	0.037927	0.053963	1.000000	0.000003	0.000022	0.000013	-4.200046	-75.923154	-3.647537
54629	9.578770	-0.188661	2.424697	-0.029564	-0.008636	0.069955	1.000000	0.000032	0.000023	0.000018	-4.200824	-75.922814	-3.645438
54630	9.550650	-0.156118	2.402137	-0.010319	0.021055	0.036627	1.000000	0.000024	0.000019	0.000017	-4.202481	-75.922873	-3.644207
54631	9.566171	-0.203197	2.368631	0.019259	-0.030186	0.044393	1.000000	0.000018	0.000013	0.000024	-4.208018	-75.923604	-3.642654
54632	9.556545	-0.196806	2.390188	-0.003126	-0.020489	0.040173	1.000000	0.000034	0.000003	0.000034	-4.216859	-75.925345	-3.632806
54633	9.591574	-0.163539	2.395517	0.004670	0.012804	0.074848	1.000000	0.000008	0.000029	0.000007	-4.215219	-75.924404	-3.639066
54634	9.565957	-0.203966	2.369428	0.017999	-0.030458	0.044395	1.000000	0.000049	0.000004	0.000013	-4.212391	-75.926242	-3.639484
54635	9.583400	-0.187372	2.372379	0.021687	-0.013858	0.061734	1.000000	0.000016	0.000041	0.000023	-4.216849	-75.923745	-3.635610
54636	9.542133	-0.181304	2.380269	0.005042	-0.005959	0.023511	1.000000	0.000040	0.000010	0.000028	-4.221805	-75.924789	-3.629110
54637	9.570037	-0.214287	2.403614	-0.015066	-0.035818	0.056830	1.000000	0.000041	0.000026	0.000018	-4.221805	-75.924083	-3.626208
54638	9.555924	-0.198101	2.392562	-0.005641	-0.021021	0.040170	1.000000	0.000024	0.000019	0.000017	-4.223460	-75.924143	-3.624980
54639	9.559391	-0.165001	2.383949	0.007897	0.010465	0.040851	1.000000	0.000020	0.000019	-0.000001	-4.217115	-75.924310	-3.630804
54640	9.590883	-0.164472	2.398220	0.001738	0.012179	0.074850	1.000000	0.000046	0.000007	0.000005	-4.211242	-75.925836	-3.634690
54641	9.556535	-0.240775	2.435398	-0.052667	-0.057936	0.051915	1.000000	0.000043	0.000023	0.000025	-4.214340	-75.925435	-3.633549
54642	9.552723	-0.219247	2.315953	0.064295	-0.052582	0.018860	1.000000	-0.000007	0.000041	0.000007	-4.214384	-75.923093	-3.637615
54643	9.526618	-0.178143	2.458883	-0.073601	0.007958	0.027476	1.000000	-0.000005	0.000022	0.000024	-4.222580	-75.922805	-3.635083
54644	9.565234	-0.111586	2.455178	-0.051831	0.072814	0.062842	1.000000	0.000035	0.000007	-0.000002	-4.214505	-75.924406	-3.642553
54645	9.523708	-0.199005	2.381154	-0.002824	-0.023435	0.006170	1.000000	0.000076	0.000008	0.000010	-4.207247	-75.925812	-3.643999
54646	9.579580	-0.209546	2.298240	0.088680	-0.046072	0.040444	1.000000	0.000019	0.000003	0.000008	-4.205845	-75.927749	-3.646459
54647	9.582351	-0.188732	2.376507	0.016649	-0.014928	0.061742	1.000000	0.000009	0.000006	0.000012	-4.207345	-75.929343	-3.647226
54648	9.585826	-0.155685	2.367882	0.030203	0.016546	0.062432	1.000000	0.000046	0.000032	0.000011	-4.203428	-75.927935	-3.649114
54649	9.544552	-0.149264	2.375796	0.013590	0.024465	0.024201	1.000000	0.000051	0.000023	0.000014	-4.200654	-75.927571	-3.647962
54650	9.560055	-0.196089	2.342440	0.043095	-0.026815	0.031984	1.000000	0.000053	0.000017	0.000010	-4.195887	-75.927967	-3.649949
54651	9.564343	-0.205664	2.375786	0.010861	-0.031967	0.044400	1.000000	0.000019	0.000029	0.000014	-4.196519	-75.926963	-3.649151
54652	9.548615	-0.158957	2.410027	-0.019476	0.019136	0.036617	1.000000	0.000021	0.000022	0.000010	-4.195125	-75.926711	-3.651396
54653	9.558077	-0.165991	2.389144	0.002058	0.009234	0.040855	1.000000	0.000030	0.000029	0.000022	-4.197957	-75.925625	-3.649596
54654	9.571911	-0.182443	2.401260	-0.008233	-0.005733	0.057506	1.000000	0.000035	0.000032	0.000004	-4.191835	-75.924291	-3.655073
54655	9.565755	-0.142480	2.414186	-0.016610	0.035561	0.053960	1.000000	0.000041	0.000026	0.000018	-4.191903	-75.923582	-3.654663
54656	9.557647	-0.166322	2.390841	0.000804	0.008970	0.040856	1.000000	0.000030	0.000029	0.000022	-4.194660	-75.922511	-3.651540
54657	9.547955	-0.159673	2.412591	-0.021563	0.018708	0.036613	1.000000	0.000018	0.000010	0.000012	-4.195308	-75.923731	-3.652363
54658	9.579421	-0.159461	2.426925	-0.027745	0.020426	0.070607	1.000000	0.000003	0.000022	0.000013	-4.197542	-75.923503	-3.653065
54659	9.547808	-0.159990	2.413152	-0.022399	0.018537	0.036612	1.000000	0.000049	0.000004	0.000013	-4.194814	-75.925357	-3.653603
54660	9.543326	-0.150629	2.380629	0.009008	0.023496	0.024209	1.000000	0.000017	0.000035	0.000018	-4.197311	-75.923613	-3.652288
54661	9.571163	-0.183548	2.404155	-0.011175	-0.006341	0.057502	1.000000	0.000026	0.000013	0.000013	-4.197041	-75.924406	-3.652915
54662	9.574670	-0.150585	2.395439	0.002407	0.025123	0.058203	1.000000	0.000024	0.000019	0.000017	-4.198692	-75.924466	-3.651695
54663	9.547424	-0.160653	2.414626	-0.024061	0.018188	0.036609	1.000000	0.000026	0.000013	0.000013	-4.198413	-75.925250	-3.652843
54664	9.547342	-0.160819	2.414941	-0.024479	0.018100	0.036608	1.000000	0.000024	0.000019	0.000017	-4.200063	-75.925310	-3.651622
54665	9.597957	-0.174367	2.386713	0.013209	0.000148	0.079097	1.000000	0.000060	0.000029	0.000026	-4.201388	-75.924120	-3.644960
54666	9.547088	-0.161255	2.415916	-0.025310	0.017924	0.036606	1.000000	0.000003	0.000022	0.000013	-4.203618	-75.923893	-3.645666
54667	9.566175	-0.175216	2.373610	0.018147	-0.001838	0.045107	1.000000	0.000032	0.000023	0.000018	-4.204418	-75.923562	-3.642906
54668	9.578433	-0.161149	2.430709	-0.031922	0.019553	0.070596	1.000000	0.000036	0.000010	0.000009	-4.201335	-75.924729	-3.645130
54669	9.529254	-0.178488	2.414430	-0.030677	0.000983	0.019254	1.000000	0.000027	0.000016	0.000024	-4.206029	-75.925096	-3.639174
54670	9.560732	-0.178386	2.428692	-0.036876	0.002701	0.053244	1.000000	0.000020	0.000006	0.000020	-4.209622	-75.926599	-3.636384
54671	9.529138	-0.179110	2.414838	-0.031511	0.000809	0.019251	1.000000	0.000018	0.000013	0.000024	-4.215152	-75.927347	-3.633365
54672	9.565853	-0.176369	2.374822	0.016055	-0.002290	0.045110	1.000000	0.000018	0.000010	0.000012	-4.215697	-75.928538	-3.634044
54673	9.570181	-0.186122	2.407864	-0.016195	-0.007405	0.057495	1.000000	0.000023	0.000003	0.000027	-4.222324	-75.930327	-3.628411
54674	9.562125	-0.210059	2.384315	0.001198	-0.034014	0.044399	1.000000	0.000019	0.000029	0.000014	-4.222868	-75.929330	-3.628886
54675	9.579618	-0.193418	2.387125	0.004902	-0.017431	0.061751	1.000000	0.000019	0.000003	0.000008	-4.221450	-75.931236	-3.630971
54676	9.555976	-0.170279	2.397230	-0.007540	0.007196	0.040854	1.000000	0.000041	0.000026	0.000018	-4.221415	-75.930527	-3.629519
54677	9.547891	-0.194111	2.373813	0.009858	-0.019417	0.027761	1.000000	0.000024	0.000019	0.000017	-4.223078	-75.930542	-3.631533
54678	9.579345	-0.193999	2.388173	0.003647	-0.017700	0.061751	1.000000	0.000018	0.000013	0.000024	-4.228617	-75.931298	-3.626963
54679	9.579292	-0.194199	2.388368	0.003229	-0.017790	0.061751	1.000000	0.000028	0.000007	0.000009	-4.226383	-75.932841	-3.627388
54680	9.592468	-0.168113	2.358113	0.038770	0.003803	0.066729	1.000000	0.000029	0.000010	0.000020	-4.229137	-75.933958	-3.624479
54681	9.551985	-0.204250	2.407725	-0.023655	-0.024784	0.040135	1.000000	0.000029	0.000023	-0.000001	-4.221907	-75.933744	-3.630455
54682	9.582703	-0.161312	2.380115	0.016009	0.013478	0.062469	1.000000	0.000029	0.000010	0.000020	-4.224660	-75.934862	-3.627546
54683	9.557058	-0.201943	2.354146	0.029275	-0.029810	0.032026	1.000000	0.000019	0.000029	0.000014	-4.225241	-75.933858	-3.626870
54684	9.551696	-0.204702	2.408833	-0.024913	-0.025046	0.040131	1.000000	0.000037	0.000013	0.000021	-4.227153	-75.934591	-3.623844
54685	9.564819	-0.178560	2.378819	0.010640	-0.003461	0.045117	1.000000	0.000027	0.000029	0.000003	-4.221855	-75.933601	-3.627337
54686	9.564693	-0.178620	2.379323	0.010221	-0.003551	0.045117	1.000000	0.000032	0.000023	0.000018	-4.222660	-75.933277	-3.626005
54687	9.546973	-0.195483	2.377392	0.005684	-0.020307	0.027762	1.000000	0.000025	0.000035	0.000008	-4.219396	-75.931572	-3.631012
54688	9.591620	-0.168993	2.361495	0.035428	0.003076	0.066742	1.000000	0.000037	0.000013	0.000021	-4.221307	-75.932305	-3.627987
54689	9.573952	-0.185905	2.359353	0.030887	-0.013680	0.049388	1.000000	0.000021	0.000022	0.000010	-4.219994	-75.932054	-3.630929
54690	9.546637	-0.195769	2.378715	0.004426	-0.020572	0.027763	1.000000	0.000027	0.000029	0.000003	-4.214697	-75.931109	-3.636543
54691	9.578026	-0.195425	2.393339	-0.001804	-0.018853	0.061749	1.000000	0.000019	0.000029	0.000014	-4.215278	-75.930121	-3.636342
54692	9.571914	-0.155508	2.406115	-0.010086	0.022455	0.058205	1.000000	0.000051	0.000023	0.000014	-4.212456	-75.929775	-3.636555
54693	9.563828	-0.179221	2.382753	0.007289	-0.004167	0.045120	1.000000	0.000030	0.000026	0.000010	-4.210314	-75.929149	-3.639910
54694	9.563709	-0.179295	2.383222	0.006870	-0.004257	0.045120	1.000000	0.000021	0.000022	0.000010	-4.208909	-75.928899	-3.642170
54695	9.567232	-0.146321	2.374573	0.020516	0.027181	0.045851	1.000000	0.000032	0.000022	0.000018	-4.209787	-75.928562	-3.641710
54696	9.539899	-0.156326	2.393959	-0.005939	0.020302	0.024218	1.000000	0.000028	0.000032	0.000015	-4.209482	-75.927181	-3.642076
54697	9.566992	-0.146733	2.375512	0.019682	0.027002	0.045853	1.000000	0.000040	0.000010	0.000028	-4.214474	-75.928224	-3.634184
54698	9.553638	-0.173059	2.406333	-0.016716	0.005268	0.040844	1.000000	0.000027	0.000029	0.000003	-4.209177	-75.927279	-3.639799
54699	9.563116	-0.180037	2.385547	0.004778	-0.004698	0.045121	1.000000	0.000019	0.000029	0.000014	-4.209772	-75.926282	-3.640935
54700	9.580577	-0.163526	2.388505	0.008484	0.011876	0.062481	1.000000	0.000035	0.000019	0.000025	-4.213624	-75.926270	-3.636137
54701	9.553251	-0.173644	2.407828	-0.017971	0.005008	0.040842	1.000000	0.000030	0.000029	0.000022	-4.216407	-75.925204	-3.633302
54702	9.556751	-0.140809	2.399286	-0.004313	0.036438	0.041578	1.000000	0.000030	0.000029	0.000022	-4.219149	-75.924135	-3.630200
54703	9.580196	-0.164394	2.389973	0.007225	0.011611	0.062482	1.000000	0.000027	0.000016	0.000024	-4.223906	-75.924519	-3.625261
54704	9.557196	-0.183836	2.442166	-0.051089	-0.000221	0.053181	1.000000	0.000030	0.000026	0.000010	-4.221657	-75.923885	-3.627407
54705	9.566711	-0.190962	2.421235	-0.029597	-0.010195	0.057461	1.000000	0.000027	0.000016	0.000024	-4.226391	-75.924239	-3.621781
54706	9.552693	-0.174897	2.409950	-0.020061	0.004571	0.040838	1.000000	0.000016	0.000016	0.000017	-4.228876	-75.924684	-3.620689
54707	9.552626	-0.175018	2.410207	-0.020477	0.004482	0.040837	1.000000	0.000036	0.000010	0.000009	-4.225793	-75.925837	-3.620322
54708	9.579763	-0.165310	2.391647	0.005137	0.011163	0.062484	1.000000	0.000024	0.000019	0.000017	-4.227435	-75.925898	-3.619115
54709	9.562072	-0.182211	2.389564	0.000596	-0.005585	0.045122	1.000000	0.000021	0.000022	0.000010	-4.226073	-75.925619	-3.621577
54710	9.544395	-0.199065	2.387423	-0.003950	-0.022334	0.027759	1.000000	0.000026	0.000013	0.000013	-4.225775	-75.926427	-3.622144
54711	9.561916	-0.182439	2.390168	-0.000239	-0.005764	0.045122	1.000000	0.000026	0.000013	0.000013	-4.225461	-75.927219	-3.622697
54712	9.530334	-0.182912	2.376330	0.005179	-0.007661	0.011140	1.000000	0.000015	0.000013	0.000005	-4.222954	-75.928100	-3.626852
54713	9.579336	-0.165795	2.393321	0.003056	0.010717	0.062485	1.000000	0.000038	0.000029	0.000011	-4.219897	-75.927055	-3.630039
54714	9.575562	-0.199151	2.402875	-0.011460	-0.020882	0.061739	1.000000	0.000008	0.000016	0.000027	-4.228212	-75.927448	-3.623821
54715	9.571152	-0.189956	2.370366	0.019994	-0.016020	0.049412	1.000000	0.000027	0.000029	0.000003	-4.222968	-75.926472	-3.631822
54716	9.557784	-0.216216	2.401112	-0.016427	-0.037713	0.044372	1.000000	0.000033	0.000000	0.000023	-4.226834	-75.928648	-3.627218
54717	9.547455	-0.166937	2.380638	0.007234	0.008554	0.028506	1.000000	0.000030	0.000026	0.000010	-4.224604	-75.927995	-3.629738
54718	9.592773	-0.183011	2.406821	-0.009004	-0.004577	0.079101	1.000000	0.000032	0.000022	0.000018	-4.225403	-75.927673	-3.628416
54719	9.580432	-0.197460	2.350411	0.040213	-0.026285	0.053709	1.000000	0.000026	0.000013	0.000013	-4.225177	-75.928490	-3.627477
54720	9.570687	-0.190693	2.372184	0.017897	-0.016468	0.049416	1.000000	0.000039	0.000032	0.000022	-4.227072	-75.927037	-3.624267
54721	9.560964	-0.183818	2.393870	-0.004415	-0.006646	0.045120	1.000000	0.000038	0.000004	0.000005	-4.222113	-75.928937	-3.631336
54722	9.556597	-0.174348	2.361249	0.027042	-0.001801	0.032804	1.000000	0.000027	0.000029	0.000003	-4.216807	-75.927994	-3.636961
54723	9.566152	-0.181305	2.340239	0.048512	-0.011801	0.037103	1.000000	0.000019	0.000003	0.000008	-4.215514	-75.929960	-3.638423
54724	9.560715	-0.183845	2.394860	-0.005677	-0.006908	0.045119	1.000000	0.000028	0.000032	0.000015	-4.215198	-75.928581	-3.638802
54725	9.537049	-0.160673	2.405002	-0.017996	0.017766	0.024209	1.000000	0.000026	0.000013	0.000013	-4.214925	-75.929368	-3.640788
54726	9.546603	-0.167800	2.383991	0.003477	0.007760	0.028508	1.000000	0.000024	0.000019	0.000017	-4.216565	-75.929429	-3.639585
54727	9.564107	-0.151208	2.386823	0.007192	0.024327	0.045877	1.000000	0.000034	0.000016	0.000013	-4.215530	-75.929868	-3.641257
54728	9.564033	-0.151315	2.387112	0.006775	0.024237	0.045877	1.000000	0.000026	0.000013	0.000013	-4.215230	-75.930677	-3.641827
54729	9.555959	-0.175097	2.363774	0.024111	-0.002425	0.032812	1.000000	0.000025	0.000035	0.000008	-4.211890	-75.928983	-3.643159
54730	9.581428	-0.134814	2.390377	0.010074	0.040711	0.063248	1.000000	0.000025	-0.000003	0.000022	-4.216599	-75.931543	-3.638673
54731	9.560070	-0.184737	2.397365	-0.008609	-0.007522	0.045117	1.000000	0.000043	0.000036	0.000004	-4.209635	-75.929832	-3.643931
54732	9.573273	-0.158617	2.367371	0.026991	0.013955	0.050184	1.000000	0.000026	0.000013	0.000013	-4.209335	-75.930640	-3.644502
54733	9.545949	-0.168541	2.386557	0.000554	0.007142	0.028509	1.000000	0.000032	0.000022	0.000018	-4.210135	-75.930308	-3.641704
54734	9.545843	-0.168663	2.386971	0.000137	0.007053	0.028509	1.000000	0.000043	0.000020	0.000014	-4.208151	-75.930349	-3.642043
54735	9.553700	-0.145083	2.411150	-0.018025	0.033545	0.041572	1.000000	0.000024	0.000019	0.000017	-4.209829	-75.930392	-3.641613
54736	9.555306	-0.175942	2.366350	0.021188	-0.003055	0.032818	1.000000	0.000026	0.000013	0.000013	-4.209528	-75.931200	-3.642185
54737	9.577063	-0.168766	2.402195	-0.006979	0.008598	0.062485	1.000000	0.000030	0.000029	0.000022	-4.212314	-75.930115	-3.641493
54738	9.545461	-0.169299	2.388455	-0.001527	0.006700	0.028510	1.000000	0.000036	0.000010	0.000009	-4.209234	-75.931287	-3.643721
54739	9.567207	-0.162103	2.424334	-0.029692	0.018358	0.058174	1.000000	0.000028	0.000035	0.000026	-4.213929	-75.929443	-3.639977
54740	9.545225	-0.169768	2.389364	-0.002357	0.006523	0.028509	1.000000	0.000037	0.000013	0.000020	-4.215840	-75.930178	-3.636960
54741	9.576659	-0.169541	2.403749	-0.008650	0.008243	0.062484	1.000000	0.000026	0.000013	0.000013	-4.215532	-75.930990	-3.639197
54742	9.549316	-0.179505	2.422958	-0.035085	0.001450	0.040797	1.000000	0.000022	0.000025	0.000021	-4.219105	-75.930304	-3.636229
54743	9.568509	-0.193690	2.380709	0.008251	-0.018525	0.049425	1.000000	0.000026	0.000013	0.000013	-4.218786	-75.931094	-3.640622
54744	9.527272	-0.187248	2.388241	-0.008165	-0.010478	0.011135	1.000000	0.000032	0.000022	0.000018	-4.219580	-75.930772	-3.639309
54745	9.568337	-0.194010	2.381377	0.007409	-0.018703	0.049425	1.000000	0.000018	0.000010	0.000012	-4.220149	-75.931971	-3.641124
54746	9.558606	-0.187309	2.402998	-0.014884	-0.008844	0.045108	1.000000	0.000025	0.000022	0.000028	-4.226775	-75.931595	-3.634684
54747	9.544596	-0.171176	2.391775	-0.005277	0.005902	0.028509	1.000000	0.000010	0.000022	0.000002	-4.223162	-75.931416	-3.641066
54748	9.550443	-0.211337	2.380024	0.002007	-0.035614	0.032050	1.000000	0.000045	0.000016	0.000021	-4.224231	-75.931768	-3.637934
54749	9.585563	-0.178006	2.385306	0.009874	-0.002417	0.066801	1.000000	0.000034	0.000016	0.000013	-4.223108	-75.932181	-3.637634
54750	9.553982	-0.178614	2.371489	0.015342	-0.004318	0.032829	1.000000	0.000027	0.000016	0.000024	-4.227797	-75.932552	-3.632964
54751	9.575730	-0.171482	2.407310	-0.012833	0.007358	0.062481	1.000000	0.000032	0.000022	0.000018	-4.228578	-75.932222	-3.630461
54752	9.550074	-0.212086	2.381436	0.000331	-0.035971	0.032049	1.000000	0.000034	0.000016	0.000013	-4.227435	-75.932648	-3.630919
54753	9.553703	-0.179226	2.372567	0.014087	-0.004586	0.032830	1.000000	0.000027	0.000016	0.000024	-4.232168	-75.933027	-3.624994
54754	9.567495	-0.195826	2.384610	0.003633	-0.019506	0.049426	1.000000	0.000032	0.000022	0.000018	-4.232959	-75.932705	-3.623685
54755	9.553477	-0.179666	2.373442	0.013257	-0.004767	0.032831	1.000000	0.000019	0.000029	0.000014	-4.233457	-75.931666	-3.623523
54756	9.567254	-0.196067	2.385557	0.002800	-0.019686	0.049426	1.000000	0.000053	0.000017	0.000010	-4.228694	-75.932073	-3.625520
54757	9.553269	-0.179742	2.374274	0.012424	-0.004946	0.032832	1.000000	0.000021	0.000022	0.000010	-4.227299	-75.931804	-3.627373
54758	9.567038	-0.196155	2.386415	0.001964	-0.019864	0.049425	1.000000	0.000029	0.000026	0.000010	-4.225034	-75.931173	-3.629540
54759	9.543376	-0.172925	2.396513	-0.010278	0.004845	0.028505	1.000000	0.000032	0.000022	0.000018	-4.225936	-75.930864	-3.627573
54760	9.574747	-0.172651	2.411133	-0.016597	0.006567	0.062475	1.000000	0.000029	0.000026	0.000010	-4.223671	-75.930233	-3.629740
54761	9.574628	-0.172724	2.411603	-0.017020	0.006481	0.062475	1.000000	0.000021	0.000022	0.000010	-4.222313	-75.930011	-3.631770
54762	9.535075	-0.196996	2.374120	0.006181	-0.022025	0.015455	1.000000	0.000032	0.000022	0.000018	-4.223103	-75.929690	-3.630463
54763	9.584073	-0.180058	2.391131	0.004007	-0.003665	0.066805	1.000000	0.000045	0.000016	0.000021	-4.224201	-75.930013	-3.625743
54764	9.556222	-0.147536	2.368117	0.023689	0.025898	0.033626	1.000000	0.000013	0.000019	0.000009	-4.223619	-75.930148	-3.628141
54765	9.562035	-0.187819	2.356497	0.030938	-0.015626	0.037169	1.000000	0.000030	0.000029	0.000022	-4.226362	-75.929060	-3.622482
54766	9.569871	-0.164252	2.380705	0.012805	0.010893	0.050217	1.000000	0.000034	0.000016	0.000013	-4.225218	-75.929487	-3.622944
54767	9.552173	-0.181011	2.378585	0.008244	-0.005831	0.032836	1.000000	0.000031	0.000019	0.000006	-4.221091	-75.929591	-3.630194
54768	9.569679	-0.164358	2.381469	0.011971	0.010715	0.050218	1.000000	0.000032	0.000022	0.000018	-4.221880	-75.929270	-3.628889
54769	9.546012	-0.141222	2.391570	-0.000244	0.035427	0.029296	1.000000	0.000030	0.000029	0.000022	-4.224593	-75.928198	-3.625372
54770	9.579073	-0.171718	2.361241	0.032990	0.000555	0.054557	1.000000	0.000027	0.000029	0.000003	-4.219271	-75.927258	-3.631017
54771	9.559604	-0.157715	2.404378	-0.011138	0.020428	0.045882	1.000000	0.000019	0.000029	0.000014	-4.219832	-75.926272	-3.632844
54772	9.549839	-0.150941	2.426042	-0.033409	0.030323	0.041543	1.000000	0.000040	0.000010	0.000028	-4.224797	-75.927317	-3.626358
54773	9.565353	-0.198342	2.392979	-0.004335	-0.021186	0.049422	1.000000	0.000024	0.000019	0.000017	-4.226489	-75.927378	-3.628424
54774	9.576929	-0.141656	2.407949	-0.008240	0.036798	0.063265	1.000000	0.000029	0.000026	0.000010	-4.224221	-75.926748	-3.630596
54775	9.555458	-0.191621	2.415147	-0.027026	-0.011376	0.045080	1.000000	0.000035	0.000019	0.000025	-4.228045	-75.926741	-3.625975
54776	9.559089	-0.158818	2.406351	-0.013225	0.019988	0.045880	1.000000	0.000011	0.000025	0.000014	-4.229393	-75.926129	-3.626612
54777	9.551052	-0.182854	2.382940	0.004060	-0.006723	0.032838	1.000000	0.000040	0.000010	0.000028	-4.234355	-75.927154	-3.619694
54778	9.572765	-0.175682	2.418775	-0.024131	0.004992	0.062461	1.000000	0.000019	0.000029	0.000014	-4.234859	-75.926159	-3.620218
54779	9.564677	-0.199502	2.395581	-0.006857	-0.021719	0.049419	1.000000	0.000027	0.000029	0.000003	-4.229571	-75.925237	-3.627447
54780	9.541045	-0.176214	2.405537	-0.019045	0.003006	0.028493	1.000000	0.000029	0.000010	0.000020	-4.232325	-75.926356	-3.624551
54781	9.564513	-0.199714	2.396220	-0.007697	-0.021896	0.049418	1.000000	0.000023	0.000016	0.000006	-4.228970	-75.926851	-3.629104
54782	9.554315	-0.150431	2.375619	0.016198	0.024278	0.033646	1.000000	0.000024	0.000019	0.000017	-4.230598	-75.926913	-3.627918
54783	9.550464	-0.183697	2.385233	0.001549	-0.007258	0.032839	1.000000	0.000024	0.000019	0.000017	-4.232217	-75.926958	-3.628929
54784	9.540730	-0.176954	2.406733	-0.020712	0.002655	0.028490	1.000000	0.000023	0.000003	0.000027	-4.238870	-75.928768	-3.622672
54785	9.536459	-0.167884	2.374060	0.010796	0.007382	0.016261	1.000000	0.000038	0.000029	0.000011	-4.235805	-75.927767	-3.623628
54786	9.564049	-0.200653	2.397992	-0.009797	-0.022338	0.049415	1.000000	0.000032	0.000022	0.000018	-4.236590	-75.927447	-3.622329
54787	9.559780	-0.191710	2.365315	0.021714	-0.017619	0.037190	1.000000	0.000021	0.000009	0.000031	-4.245168	-75.928500	-3.616187
54788	9.581497	-0.184605	2.401091	-0.006483	-0.005888	0.066802	1.000000	0.000032	0.000022	0.000018	-4.245953	-75.928180	-3.614889
54789	9.563780	-0.201413	2.399003	-0.011059	-0.022603	0.049414	1.000000	0.000023	0.000016	0.000006	-4.242607	-75.928693	-3.619572
54790	9.573374	-0.208516	2.378051	0.010358	-0.032702	0.053767	1.000000	0.000034	0.000016	0.000013	-4.241461	-75.929121	-3.620037
54791	9.535900	-0.168946	2.376232	0.008298	0.006844	0.016264	1.000000	0.000024	0.000019	0.000017	-4.243095	-75.929158	-3.619064
54792	9.576966	-0.175957	2.369461	0.023773	-0.001446	0.054583	1.000000	0.000029	0.000013	0.000031	-4.250836	-75.929838	-3.610930
54793	9.549547	-0.185853	2.388735	-0.002639	-0.008145	0.032838	1.000000	0.000025	0.000035	0.000007	-4.247451	-75.928170	-3.612265
54794	9.576705	-0.176304	2.370491	0.022932	-0.001625	0.054585	1.000000	0.000032	0.000022	0.000018	-4.248234	-75.927850	-3.610968
54795	9.590474	-0.192606	2.382546	0.012410	-0.016527	0.071158	1.000000	0.000044	0.000010	-0.000002	-4.239322	-75.929085	-3.619021
54796	9.525706	-0.162435	2.399520	-0.015624	0.016417	0.011907	1.000000	0.000029	0.000026	0.000010	-4.237047	-75.928456	-3.621202
54797	9.590253	-0.192634	2.383436	0.011571	-0.016708	0.071158	1.000000	0.000019	0.000029	0.000014	-4.237528	-75.927446	-3.620832
54798	9.562415	-0.160200	2.360530	0.031365	0.012821	0.038018	1.000000	0.000030	0.000029	0.000022	-4.240239	-75.926378	-3.617776
54799	9.556778	-0.162582	2.415261	-0.022822	0.017970	0.045867	1.000000	0.000013	0.000019	0.000009	-4.239745	-75.926508	-3.620738
54800	9.580216	-0.186135	2.406079	-0.011520	-0.006950	0.066797	1.000000	0.000045	0.000016	0.000021	-4.240813	-75.926863	-3.617615
54801	9.566289	-0.169972	2.394658	-0.001828	0.007770	0.050228	1.000000	0.000004	0.000016	0.000009	-4.241091	-75.927379	-3.621366
54802	9.566193	-0.170137	2.395030	-0.002246	0.007681	0.050228	1.000000	0.000032	0.000022	0.000018	-4.241873	-75.927059	-3.620072
54803	9.569908	-0.137189	2.386021	0.011605	0.039019	0.051054	1.000000	0.000049	0.000004	0.000013	-4.239080	-75.928926	-3.618656
54804	9.567781	-0.201132	2.350659	0.036409	-0.029176	0.041566	1.000000	0.000016	0.000032	0.000007	-4.236516	-75.927623	-3.622668
54805	9.565895	-0.170315	2.396207	-0.003505	0.007414	0.050228	1.000000	0.000029	0.000026	0.000010	-4.234254	-75.926998	-3.624482
54806	9.548143	-0.187085	2.394245	-0.008082	-0.009294	0.032834	1.000000	0.000029	0.000026	0.000010	-4.231978	-75.926369	-3.626665
54807	9.565650	-0.170445	2.397177	-0.004344	0.007236	0.050228	1.000000	0.000021	0.000022	0.000010	-4.230536	-75.926133	-3.626865
54808	9.557655	-0.194257	2.373681	0.012903	-0.019506	0.037202	1.000000	0.000030	0.000000	0.000004	-4.226376	-75.928439	-3.630970
54809	9.555816	-0.163357	2.419014	-0.027001	0.017092	0.045858	1.000000	0.000025	0.000035	0.000007	-4.222968	-75.926736	-3.634451
54810	9.565376	-0.170668	2.398255	-0.005596	0.006968	0.050227	1.000000	0.000038	0.000016	0.000032	-4.229864	-75.927034	-3.626208
54811	9.574953	-0.177938	2.377438	0.015804	-0.003156	0.054599	1.000000	0.000027	0.000029	0.000003	-4.224574	-75.926110	-3.631453
54812	9.547516	-0.187632	2.396701	-0.010595	-0.009824	0.032831	1.000000	0.000024	0.000019	0.000017	-4.226197	-75.926173	-3.630276
54813	9.557111	-0.194813	2.375825	0.010809	-0.019951	0.037203	1.000000	0.000031	0.000019	0.000006	-4.222041	-75.926280	-3.633964
54814	9.564950	-0.171100	2.399922	-0.007270	0.006617	0.050226	1.000000	0.000024	0.000019	0.000017	-4.223664	-75.926343	-3.632788
54815	9.564822	-0.171279	2.400419	-0.007690	0.006531	0.050226	1.000000	0.000028	0.000032	0.000015	-4.223380	-75.924975	-3.631726
54816	9.542923	-0.178877	2.365472	0.019684	-0.005415	0.020644	1.000000	0.000021	0.000022	0.000010	-4.221945	-75.924730	-3.634025
54817	9.574286	-0.178582	2.380073	0.013286	-0.003693	0.054602	1.000000	0.000034	0.000016	0.000013	-4.220776	-75.925182	-3.634587
54818	9.542717	-0.178982	2.366292	0.018844	-0.005596	0.020646	1.000000	0.000027	0.000029	0.000003	-4.215440	-75.924246	-3.640248
54819	9.554668	-0.164577	2.423460	-0.031183	0.016226	0.045847	1.000000	0.000038	0.000016	0.000032	-4.222389	-75.924541	-3.632833
54820	9.573948	-0.179082	2.381395	0.012028	-0.003961	0.054604	1.000000	0.000019	0.000029	0.000014	-4.222879	-75.923548	-3.633374
54821	9.542379	-0.179724	2.367602	0.017587	-0.005864	0.020648	1.000000	0.000027	0.000016	0.000024	-4.227550	-75.923939	-3.627072
54822	9.569929	-0.212628	2.391515	-0.003120	-0.035553	0.053762	1.000000	0.000032	0.000022	0.000018	-4.228329	-75.923620	-3.625785
54823	9.563925	-0.172627	2.403895	-0.011048	0.005823	0.050223	1.000000	0.000021	0.000022	0.000010	-4.226912	-75.923388	-3.626811
54824	9.563828	-0.172716	2.404274	-0.011467	0.005735	0.050223	1.000000	0.000034	0.000016	0.000013	-4.225765	-75.923817	-3.627282
54825	9.555799	-0.196620	2.380946	0.005762	-0.021018	0.037206	1.000000	0.000021	0.000022	0.000010	-4.224382	-75.923587	-3.629255
54826	9.545986	-0.189644	2.402630	-0.016468	-0.011051	0.032821	1.000000	0.000032	0.000022	0.000018	-4.225160	-75.923268	-3.627968
54827	9.559387	-0.163910	2.372511	0.019239	0.010212	0.038053	1.000000	0.000032	0.000022	0.000018	-4.225965	-75.922933	-3.626252
54828	9.573065	-0.180334	2.384849	0.008668	-0.004675	0.054607	1.000000	0.000025	0.000035	0.000007	-4.222552	-75.921249	-3.630159
54829	9.576739	-0.147411	2.376092	0.022566	0.026642	0.055456	1.000000	0.000032	0.000022	0.000018	-4.223334	-75.920932	-3.628508
54830	9.564882	-0.204393	2.362148	0.025474	-0.031526	0.041593	1.000000	0.000021	0.000022	0.000010	-4.221896	-75.920686	-3.630812
54831	9.558877	-0.164324	2.374537	0.017568	0.009855	0.038056	1.000000	0.000029	0.000026	0.000010	-4.219714	-75.920064	-3.633272
54832	9.572595	-0.180781	2.386701	0.006990	-0.005029	0.054608	1.000000	0.000037	0.000013	0.000020	-4.221624	-75.920802	-3.630269
54833	9.548984	-0.157492	2.396504	-0.005075	0.019746	0.033668	1.000000	0.000021	0.000022	0.000010	-4.220298	-75.920567	-3.630314
54834	9.590059	-0.164275	2.389829	0.010313	0.011405	0.072012	1.000000	0.000036	0.000010	0.000009	-4.217226	-75.921745	-3.632544
54835	9.562602	-0.174036	2.409050	-0.016075	0.004779	0.050217	1.000000	0.000028	0.000035	0.000026	-4.221958	-75.919939	-3.627452
54836	9.572173	-0.181446	2.388339	0.005309	-0.005378	0.054609	1.000000	0.000024	0.000019	0.000017	-4.223577	-75.920002	-3.626283
54837	9.558252	-0.165262	2.376987	0.015060	0.009324	0.038061	1.000000	0.000029	0.000026	0.000010	-4.221294	-75.919359	-3.629301
54838	9.571965	-0.181671	2.389158	0.004473	-0.005558	0.054609	1.000000	0.000026	0.000013	0.000013	-4.220989	-75.920171	-3.629888
54839	9.562164	-0.174693	2.410741	-0.017743	0.004430	0.050214	1.000000	0.000032	0.000022	0.000018	-4.221842	-75.919835	-3.629969
54840	9.563859	-0.205807	2.366165	0.021271	-0.032415	0.041600	1.000000	0.000026	0.000013	0.000013	-4.221537	-75.920647	-3.630556
54841	9.548161	-0.158720	2.399700	-0.008408	0.019046	0.033667	1.000000	0.000030	0.000029	0.000022	-4.224272	-75.919592	-3.626605
54842	9.561836	-0.175262	2.411997	-0.019001	0.004167	0.050212	1.000000	0.000032	0.000022	0.000017	-4.225047	-75.919274	-3.625324
54843	9.539994	-0.182839	2.376953	0.008382	-0.007813	0.020659	1.000000	0.000040	0.000023	0.000007	-4.220046	-75.919053	-3.628295
54844	9.571331	-0.182653	2.391620	0.001951	-0.006087	0.054610	1.000000	0.000016	0.000019	0.000028	-4.227486	-75.919058	-3.622011
54845	9.571232	-0.182987	2.391991	0.001533	-0.006172	0.054610	1.000000	0.000024	0.000019	0.000017	-4.229217	-75.919117	-3.622051
54846	9.561426	-0.175997	2.413569	-0.020681	0.003822	0.050209	1.000000	0.000034	0.000016	0.000013	-4.228069	-75.919548	-3.622525
54847	9.549319	-0.190799	2.357232	0.028503	-0.018249	0.025061	1.000000	0.000032	0.000022	0.000017	-4.228858	-75.919237	-3.619692
54848	9.561230	-0.176220	2.414329	-0.021520	0.003646	0.050207	1.000000	0.000023	0.000016	0.000006	-4.225494	-75.919741	-3.623756
54849	9.557081	-0.167217	2.381552	0.010044	0.008258	0.038068	1.000000	0.000040	0.000010	0.000028	-4.230468	-75.920768	-3.619925
54850	9.556996	-0.167600	2.381868	0.009626	0.008168	0.038069	1.000000	0.000025	0.000022	0.000028	-4.237064	-75.920391	-3.613530
54851	9.553035	-0.200792	2.391666	-0.005155	-0.023309	0.037201	1.000000	0.000040	0.000023	0.000007	-4.231987	-75.920154	-3.617078
54852	9.547068	-0.160644	2.403916	-0.013003	0.018080	0.033664	1.000000	0.000034	0.000016	0.000013	-4.230838	-75.920585	-3.617554
54853	9.592202	-0.176713	2.430381	-0.029640	0.005023	0.084151	1.000000	0.000032	0.000022	0.000017	-4.231626	-75.920273	-3.615980
54854	9.580097	-0.191597	2.374075	0.019542	-0.017069	0.059016	1.000000	0.000024	0.000019	0.000017	-4.233241	-75.920337	-3.614816
54855	9.542915	-0.194070	2.414445	-0.028622	-0.013569	0.032791	1.000000	0.000031	0.000019	0.000006	-4.229011	-75.920461	-3.618391
54856	9.570146	-0.184573	2.396212	-0.003085	-0.007154	0.054609	1.000000	0.000036	0.000035	0.000015	-4.227802	-75.918706	-3.618724
54857	9.587676	-0.168108	2.399109	0.000662	0.009359	0.072019	1.000000	0.000040	0.000010	0.000028	-4.232829	-75.919773	-3.610588
54858	9.556366	-0.210935	2.427559	-0.040083	-0.028612	0.049323	1.000000	0.000003	0.000022	0.000013	-4.234990	-75.919543	-3.611374
54859	9.556018	-0.168831	2.385703	0.005852	0.007366	0.038072	1.000000	0.000043	0.000035	0.000004	-4.227999	-75.917870	-3.616726
54860	9.559961	-0.177977	2.419221	-0.026554	0.002597	0.050195	1.000000	0.000026	0.000013	0.000013	-4.227693	-75.918683	-3.617317
54861	9.555811	-0.168933	2.386522	0.005016	0.007188	0.038073	1.000000	0.000021	0.000022	0.000010	-4.226272	-75.918439	-3.619940
54862	9.538076	-0.185729	2.384415	0.000427	-0.009498	0.020661	1.000000	0.000026	0.000013	0.000013	-4.225965	-75.919251	-3.620531
54863	9.573297	-0.152453	2.389607	0.008356	0.023607	0.055486	1.000000	0.000034	0.000016	0.000013	-4.224843	-75.919656	-3.620264
54864	9.569307	-0.185512	2.399489	-0.006444	-0.007859	0.054606	1.000000	0.000025	0.000035	0.000007	-4.221415	-75.917974	-3.624189
54865	9.555412	-0.169410	2.388087	0.003352	0.006832	0.038074	1.000000	0.000010	0.000009	0.000023	-4.227797	-75.919090	-3.619416
54866	9.569110	-0.186010	2.400232	-0.007280	-0.008036	0.054606	1.000000	0.000032	0.000022	0.000017	-4.228567	-75.918773	-3.618142
54867	9.564959	-0.177055	2.367569	0.024294	-0.003456	0.042493	1.000000	0.000045	0.000016	0.000021	-4.229676	-75.919132	-3.616050
54868	9.551256	-0.202955	2.398579	-0.012292	-0.024807	0.037191	1.000000	0.000018	0.000026	0.000003	-4.225169	-75.918580	-3.621843
54869	9.568802	-0.186293	2.401440	-0.008537	-0.008302	0.054605	1.000000	0.000034	0.000016	0.000013	-4.224003	-75.919003	-3.620391
54870	9.554912	-0.170116	2.390038	0.001263	0.006387	0.038075	1.000000	0.000019	0.000029	0.000014	-4.224475	-75.918011	-3.620956
54871	9.554808	-0.170265	2.390442	0.000845	0.006300	0.038075	1.000000	0.000026	0.000013	0.000013	-4.224215	-75.918824	-3.623124
54872	9.586160	-0.169993	2.405024	-0.005623	0.008027	0.072019	1.000000	0.000034	0.000016	0.000013	-4.223065	-75.919256	-3.623603
54873	9.554639	-0.170339	2.391112	0.000008	0.006122	0.038075	1.000000	0.000029	0.000023	-0.000001	-4.215816	-75.919081	-3.632335
54874	9.558582	-0.179600	2.424546	-0.032410	0.001380	0.050178	1.000000	0.000038	0.000016	0.000032	-4.222705	-75.919379	-3.624111
54875	9.554428	-0.170655	2.391933	-0.000830	0.005945	0.038075	1.000000	0.000027	0.000029	0.000003	-4.217370	-75.918458	-3.629306
54876	9.562218	-0.146838	2.416086	-0.018844	0.032571	0.051066	1.000000	0.000032	0.000022	0.000017	-4.218139	-75.918141	-3.628036
54877	9.550337	-0.203843	2.402161	-0.016078	-0.025596	0.037183	1.000000	0.000047	0.000010	0.000017	-4.217315	-75.919280	-3.626402
54878	9.585566	-0.170623	2.407349	-0.008148	0.007497	0.072017	1.000000	0.000024	0.000019	0.000017	-4.218925	-75.919344	-3.625245
54879	9.550151	-0.204312	2.402859	-0.016916	-0.025774	0.037181	1.000000	0.000025	0.000022	0.000028	-4.225491	-75.918951	-3.618733
54880	9.553929	-0.171637	2.393855	-0.002923	0.005500	0.038075	1.000000	0.000024	0.000019	0.000017	-4.227101	-75.919016	-3.617577
54881	9.561770	-0.147910	2.417792	-0.020927	0.032133	0.051063	1.000000	0.000047	0.000010	0.000017	-4.226293	-75.920101	-3.617113
54882	9.585191	-0.171549	2.408775	-0.009819	0.007142	0.072016	1.000000	0.000032	0.000022	0.000017	-4.227060	-75.919784	-3.615845
54883	9.604572	-0.186035	2.366757	0.033291	-0.013213	0.080879	1.000000	0.000023	0.000016	0.000006	-4.223722	-75.920298	-3.619497
54884	9.549678	-0.205153	2.404669	-0.019013	-0.026211	0.037176	1.000000	0.000022	0.000025	0.000021	-4.227248	-75.919613	-3.616592
54885	9.563180	-0.179665	2.374547	0.016755	-0.005076	0.042508	1.000000	0.000022	0.000025	0.000021	-4.230818	-75.918917	-3.613188
54886	9.543587	-0.165395	2.417378	-0.027190	0.015109	0.033640	1.000000	0.000031	0.000019	0.000006	-4.226606	-75.919042	-3.617147
54887	9.553233	-0.172564	2.396564	-0.005844	0.004884	0.038074	1.000000	0.000031	0.000019	0.000006	-4.222412	-75.919160	-3.622642
54888	9.562857	-0.179766	2.375843	0.015499	-0.005346	0.042509	1.000000	0.000038	0.000029	0.000011	-4.219274	-75.918156	-3.624740
54889	9.558833	-0.212809	2.385770	0.000649	-0.036786	0.041608	1.000000	0.000021	0.000022	0.000010	-4.217896	-75.917932	-3.623148
54890	9.576408	-0.196294	2.388532	0.004406	-0.020290	0.059029	1.000000	0.000028	0.000010	0.000020	-4.220648	-75.919053	-3.620267
54891	9.552822	-0.172994	2.398171	-0.007519	0.004531	0.038073	1.000000	0.000032	0.000022	0.000017	-4.221398	-75.918732	-3.618632
54892	9.580091	-0.163641	2.379950	0.017999	0.010882	0.059934	1.000000	0.000016	0.000032	0.000007	-4.218800	-75.917432	-3.622684
54893	9.566310	-0.189407	2.411104	-0.018612	-0.010410	0.054589	1.000000	0.000040	0.000023	0.000007	-4.213810	-75.917176	-3.627500
54894	9.575854	-0.154685	2.347796	0.049178	0.015322	0.047860	1.000000	0.000027	0.000016	0.000024	-4.218478	-75.917548	-3.622872
54895	9.575874	-0.196969	2.390616	0.002299	-0.020735	0.059029	1.000000	0.000034	0.000016	0.000013	-4.217341	-75.918015	-3.621783
54896	9.548291	-0.164520	2.367148	0.022401	0.008707	0.025999	1.000000	0.000037	0.000013	0.000020	-4.219250	-75.918755	-3.618790
54897	9.552176	-0.173721	2.400687	-0.010041	0.004004	0.038071	1.000000	0.000025	0.000035	0.000007	-4.215840	-75.917120	-3.622218
54898	9.579431	-0.164239	2.382564	0.015474	0.010346	0.059939	1.000000	0.000027	0.000029	0.000003	-4.210482	-75.916189	-3.627908
54899	9.561661	-0.181005	2.380557	0.010882	-0.006327	0.042515	1.000000	0.000015	0.000016	0.000016	-4.212937	-75.916596	-3.628904
54900	9.565577	-0.190174	2.413950	-0.021557	-0.011024	0.054582	1.000000	0.000053	0.000017	0.000010	-4.208183	-75.917017	-3.630913
54901	9.579128	-0.164478	2.383766	0.014219	0.010076	0.059941	1.000000	0.000019	0.000029	0.000014	-4.208681	-75.916059	-3.631155
54902	9.543678	-0.198013	2.379379	0.005438	-0.023175	0.025091	1.000000	0.000032	0.000022	0.000017	-4.209444	-75.915744	-3.629893
54903	9.574973	-0.197816	2.394154	-0.001078	-0.021445	0.059027	1.000000	0.000032	0.000022	0.000017	-4.210225	-75.915461	-3.628244
54904	9.569054	-0.157654	2.406204	-0.008791	0.019968	0.055494	1.000000	0.000025	0.000010	0.000001	-4.204937	-75.916716	-3.634067
54905	9.564968	-0.148675	2.373506	0.022811	0.024483	0.043434	1.000000	0.000030	0.000029	0.000022	-4.207723	-75.915672	-3.630244
54906	9.578584	-0.165200	2.385901	0.012117	0.009632	0.059944	1.000000	0.000032	0.000022	0.000017	-4.208486	-75.915357	-3.628984
54907	9.574554	-0.198261	2.395793	-0.002766	-0.021796	0.059026	1.000000	0.000010	0.000022	0.000002	-4.204848	-75.915205	-3.633394
54908	9.546949	-0.165784	2.372467	0.017374	0.007635	0.026010	1.000000	0.000051	0.000026	0.000026	-4.206986	-75.914436	-3.628432
54909	9.560583	-0.182371	2.384780	0.006679	-0.007209	0.042518	1.000000	0.000026	0.000016	0.000024	-4.211789	-75.914784	-3.625059
54910	9.560491	-0.182645	2.385124	0.006260	-0.007299	0.042518	1.000000	0.000024	0.000019	0.000017	-4.213393	-75.914849	-3.623912
54911	9.550621	-0.175538	2.406737	-0.015902	0.002782	0.038064	1.000000	0.000029	0.000026	0.000010	-4.211093	-75.914226	-3.626380
54912	9.568174	-0.158997	2.409615	-0.012136	0.019271	0.055491	1.000000	0.000024	0.000019	0.000017	-4.212697	-75.914290	-3.625234
54913	9.550418	-0.175820	2.407522	-0.016737	0.002610	0.038062	1.000000	0.000034	0.000016	0.000013	-4.211630	-75.914718	-3.626452
54914	9.577745	-0.166648	2.389166	0.008770	0.008923	0.059948	1.000000	0.000025	0.000022	0.000028	-4.218209	-75.914341	-3.620084
54915	9.577632	-0.166829	2.389606	0.008352	0.008830	0.059949	1.000000	0.000040	0.000023	0.000007	-4.213099	-75.914082	-3.624642
54916	9.550107	-0.176343	2.408717	-0.017991	0.002344	0.038060	1.000000	0.000015	0.000016	0.000016	-4.215545	-75.914527	-3.623609
54917	9.569542	-0.191066	2.366717	0.025070	-0.018103	0.046979	1.000000	0.000024	0.000019	0.000017	-4.217167	-75.914569	-3.623211
54918	9.567556	-0.160073	2.411993	-0.014638	0.018742	0.055489	1.000000	0.000027	0.000032	0.000014	-4.216778	-75.913198	-3.623686
54919	9.559524	-0.184173	2.388882	0.002500	-0.008100	0.042519	1.000000	0.000024	0.000019	0.000017	-4.218444	-75.913233	-3.623100
54920	9.545695	-0.168135	2.377343	0.012381	0.006564	0.026018	1.000000	0.000035	0.000019	0.000025	-4.222266	-75.913225	-3.618367
54921	9.580997	-0.176909	2.425016	-0.026187	0.003729	0.071988	1.000000	0.000038	0.000004	0.000005	-4.217326	-75.915152	-3.622324
54922	9.590710	-0.184364	2.404042	-0.004873	-0.006546	0.076451	1.000000	0.000008	0.000016	0.000027	-4.225589	-75.915534	-3.616182
54923	9.555254	-0.175912	2.356973	0.032863	-0.003893	0.030485	1.000000	0.000040	0.000023	0.000007	-4.220497	-75.915275	-3.621353
54924	9.590482	-0.184800	2.404920	-0.005713	-0.006725	0.076451	1.000000	0.000023	0.000028	0.000032	-4.228986	-75.914149	-3.613245
54925	9.554976	-0.176469	2.358058	0.032027	-0.004072	0.030488	1.000000	0.000027	0.000032	0.000014	-4.228678	-75.912775	-3.613294
54926	9.558813	-0.185574	2.391614	-0.000431	-0.008721	0.042519	1.000000	0.000023	0.000016	0.000006	-4.225305	-75.913282	-3.617372
54927	9.599881	-0.192554	2.385195	0.014758	-0.017179	0.080918	1.000000	0.000032	0.000022	0.000017	-4.226173	-75.912952	-3.617080
54928	9.568382	-0.193002	2.371243	0.020461	-0.019090	0.046988	1.000000	0.000031	0.000019	0.000006	-4.221957	-75.913080	-3.621047
54929	9.536901	-0.193406	2.357230	0.026172	-0.021001	0.013059	1.000000	0.000034	0.000016	0.000013	-4.220808	-75.913487	-3.620779
54930	9.572101	-0.202158	2.405250	-0.012417	-0.023821	0.059014	1.000000	0.000023	0.000041	0.000011	-4.219264	-75.911060	-3.622994
54931	9.536651	-0.193595	2.358224	0.025338	-0.021179	0.013060	1.000000	0.000019	0.000003	0.000008	-4.217963	-75.912990	-3.625690
54932	9.567971	-0.193282	2.372881	0.018789	-0.019448	0.046991	1.000000	0.000029	0.000026	0.000010	-4.215658	-75.912368	-3.627915
54933	9.534573	-0.162488	2.403794	-0.014756	0.015614	0.021551	1.000000	0.000038	0.000029	0.000011	-4.212522	-75.911359	-3.631022
54934	9.585393	-0.176656	2.376327	0.022141	-0.003061	0.064428	1.000000	0.000031	0.000019	0.000006	-4.208305	-75.911487	-3.634990
54935	9.544109	-0.169875	2.383579	0.006132	0.005233	0.026025	1.000000	0.000030	0.000029	0.000022	-4.210981	-75.910429	-3.632199
54936	9.577235	-0.200819	2.353770	0.038831	-0.030015	0.051469	1.000000	0.000027	0.000029	0.000003	-4.205613	-75.909501	-3.637900
54937	9.557571	-0.186276	2.396521	-0.005036	-0.009688	0.042517	1.000000	0.000034	0.000016	0.000013	-4.204513	-75.909962	-3.637354
54938	9.567250	-0.193692	2.375750	0.016265	-0.019986	0.046994	1.000000	0.000032	0.000022	0.000017	-4.205269	-75.909647	-3.636103
54939	9.561324	-0.153516	2.387835	0.006405	0.021844	0.043464	1.000000	0.000040	0.000023	0.000007	-4.206404	-75.922635	-3.653998
54940	9.557225	-0.186509	2.397881	-0.008553	-0.009548	0.042515	1.000000	0.000027	0.000032	0.000014	-4.206021	-75.921293	-3.654491
54941	9.561087	-0.153631	2.388777	0.005559	0.021667	0.043465	1.000000	0.000036	0.000010	0.000009	-4.202970	-75.922516	-3.656628
54942	9.543337	-0.170401	2.386630	0.000942	0.005015	0.026027	1.000000	0.000024	0.000019	0.000017	-4.204583	-75.922610	-3.655497
54943	9.570663	-0.203126	2.410883	-0.020170	-0.024549	0.058999	1.000000	0.000034	0.000016	0.000013	-4.203445	-75.923053	-3.656553
54944	9.541233	-0.139411	2.432207	-0.039125	0.041851	0.034491	1.000000	0.000036	0.000035	0.000015	-4.202219	-75.921332	-3.656936
54945	9.574421	-0.170415	2.402191	-0.006477	0.006578	0.059952	1.000000	0.000043	-0.000003	0.000019	-4.203445	-75.923915	-3.652891
54946	9.548859	-0.169414	2.333684	0.053025	-0.001053	0.018522	1.000000	0.000008	0.000016	0.000027	-4.211720	-75.924325	-3.646761
54947	9.560566	-0.154660	2.390796	0.003031	0.021138	0.043468	1.000000	0.000027	0.000029	0.000003	-4.206355	-75.923414	-3.654082
54948	9.578071	-0.179961	2.436325	-0.039809	0.001810	0.071943	1.000000	0.000013	0.000019	0.000009	-4.205742	-75.923580	-3.656544
54949	9.560353	-0.154895	2.391634	0.002185	0.020964	0.043468	1.000000	0.000035	0.000019	0.000025	-4.209652	-75.923609	-3.650873
54950	9.573947	-0.171348	2.404011	-0.008595	0.006142	0.059951	1.000000	0.000051	0.000023	0.000014	-4.206825	-75.923315	-3.651151
54951	9.552262	-0.179098	2.368828	0.018848	-0.006004	0.030521	1.000000	0.000026	0.000013	0.000013	-4.206594	-75.924163	-3.652124
54952	9.569832	-0.162648	2.371690	0.022622	0.010466	0.047964	1.000000	0.000009	0.000032	0.000018	-4.209802	-75.922831	-3.651104
54953	9.563839	-0.164550	2.426393	-0.031573	0.016118	0.055454	1.000000	0.000004	0.000016	0.000009	-4.210019	-75.923390	-3.652855
54954	9.550058	-0.148551	2.414736	-0.021632	0.030764	0.038973	1.000000	0.000037	0.000016	0.000032	-4.216920	-75.923718	-3.644655
54955	9.551850	-0.180094	2.370414	0.017159	-0.006361	0.030524	1.000000	0.000062	0.000023	0.000022	-4.216325	-75.923311	-3.641166
54956	9.555718	-0.147244	2.361350	0.031301	0.024839	0.031489	1.000000	0.000029	0.000026	0.000010	-4.214025	-75.922719	-3.643409
54957	9.551595	-0.180423	2.371416	0.016313	-0.006535	0.030525	1.000000	0.000012	0.000028	0.000025	-4.220400	-75.921692	-3.639581
54958	9.559354	-0.156769	2.395500	-0.001611	0.020177	0.043470	1.000000	0.000011	0.000025	0.000013	-4.221695	-75.921110	-3.640306
54959	9.590611	-0.156543	2.410367	-0.008197	0.021917	0.077391	1.000000	0.000021	0.000022	0.000010	-4.220284	-75.920849	-3.645319
54960	9.564921	-0.197346	2.384812	0.004676	-0.021530	0.047003	1.000000	0.000043	0.000022	0.000025	-4.223274	-75.920491	-3.640491
54961	9.564820	-0.197651	2.385193	0.004249	-0.021620	0.047003	1.000000	0.000026	0.000016	0.000024	-4.227923	-75.920900	-3.637054
54962	9.564732	-0.198033	2.385511	0.003824	-0.021708	0.047003	1.000000	0.000037	0.000016	0.000032	-4.234823	-75.921228	-3.628856
54963	9.574428	-0.205562	2.364754	0.025104	-0.032051	0.051507	1.000000	0.000010	0.000022	0.000002	-4.231151	-75.921016	-3.637310
54964	9.558723	-0.158059	2.397933	-0.004123	0.019649	0.043470	1.000000	0.000040	0.000026	0.000018	-4.231074	-75.920352	-3.635963
54965	9.554623	-0.191130	2.407868	-0.019130	-0.011718	0.042498	1.000000	0.000026	0.000013	0.000013	-4.230781	-75.921180	-3.637169
54966	9.540732	-0.216891	2.438904	-0.055834	-0.032825	0.037017	1.000000	0.000032	0.000022	0.000017	-4.231546	-75.920895	-3.635934
54967	9.564237	-0.198753	2.387436	0.001717	-0.022149	0.047003	1.000000	0.000026	0.000013	0.000013	-4.231304	-75.921713	-3.636880
54968	9.564170	-0.198875	2.387693	0.001292	-0.022237	0.047003	1.000000	0.000026	0.000013	0.000013	-4.231005	-75.922558	-3.637494
54969	9.544457	-0.184292	2.430417	-0.042510	-0.001802	0.037985	1.000000	0.000025	0.000035	0.000007	-4.227538	-75.920903	-3.641102
54970	9.571813	-0.175191	2.412217	-0.017041	0.004401	0.059941	1.000000	0.000037	0.000016	0.000032	-4.234438	-75.921230	-3.632906
54971	9.563810	-0.199229	2.389108	0.000021	-0.022500	0.047002	1.000000	0.000034	0.000029	-0.000008	-4.223287	-75.920380	-3.643785
54972	9.581376	-0.182465	2.392038	0.003801	-0.006038	0.064450	1.000000	0.000021	0.000022	0.000010	-4.221827	-75.920168	-3.646144
54973	9.563588	-0.199326	2.389986	-0.000826	-0.022676	0.047002	1.000000	0.000026	0.000016	0.000024	-4.226524	-75.920549	-3.642110
54974	9.540014	-0.175800	2.399490	-0.012537	0.002226	0.026020	1.000000	0.000029	0.000023	-0.000001	-4.219245	-75.920402	-3.649577
54975	9.581071	-0.182776	2.393235	0.002533	-0.006300	0.064451	1.000000	0.000032	0.000022	0.000017	-4.220077	-75.920102	-3.647714
54976	9.549579	-0.183202	2.379308	0.008304	-0.008217	0.030534	1.000000	0.000027	0.000029	0.000003	-4.214705	-75.919206	-3.653444
54977	9.549482	-0.183338	2.379689	0.007888	-0.008307	0.030534	1.000000	0.000039	0.000010	0.000028	-4.219682	-75.920239	-3.647302
54978	9.570943	-0.175885	2.415617	-0.020416	0.003707	0.059934	1.000000	0.000019	0.000029	0.000014	-4.220127	-75.919278	-3.647925
54979	9.570799	-0.176181	2.416167	-0.020835	0.003623	0.059934	1.000000	0.000012	0.000028	0.000025	-4.226458	-75.918222	-3.644421
54980	9.580496	-0.183840	2.395453	0.000421	-0.006741	0.064451	1.000000	0.000037	0.000013	0.000020	-4.228382	-75.918994	-3.641446
54981	9.553082	-0.151437	2.371727	0.020816	0.022607	0.031522	1.000000	0.000034	0.000016	0.000013	-4.227285	-75.919461	-3.642845
54982	9.580324	-0.184007	2.396130	-0.000429	-0.006916	0.064451	1.000000	0.000040	0.000023	0.000007	-4.222231	-75.919242	-3.646722
54983	9.570578	-0.134880	2.374943	0.024185	0.038973	0.048976	1.000000	0.000024	0.000019	0.000017	-4.223794	-75.919312	-3.645380
54984	9.566494	-0.167940	2.384752	0.009140	0.007622	0.047988	1.000000	0.000019	0.000003	0.000008	-4.222430	-75.921286	-3.647845
54985	9.580066	-0.184259	2.397142	-0.001703	-0.007178	0.064450	1.000000	0.000025	0.000035	0.000007	-4.219062	-75.919665	-3.649252
54986	9.556511	-0.160675	2.406559	-0.013386	0.017734	0.043466	1.000000	0.000032	-0.000003	0.000012	-4.218018	-75.922315	-3.649862
54987	9.566268	-0.168151	2.385644	0.007870	0.007361	0.047989	1.000000	0.000032	0.000022	0.000017	-4.218795	-75.922011	-3.649225
54988	9.552493	-0.152009	2.374062	0.017867	0.021986	0.031529	1.000000	0.000021	0.000022	0.000010	-4.217331	-75.921800	-3.651589
54989	9.579724	-0.184649	2.398479	-0.003401	-0.007526	0.064450	1.000000	0.000034	0.000016	0.000013	-4.216282	-75.922273	-3.653106
54990	9.565962	-0.168631	2.386835	0.006599	0.007099	0.047990	1.000000	0.000024	0.000022	0.000028	-4.222861	-75.921923	-3.646771
54991	9.575675	-0.176322	2.366096	0.027847	-0.003282	0.052518	1.000000	0.000015	0.000016	0.000016	-4.225318	-75.922391	-3.645417
54992	9.583449	-0.152575	2.390063	0.009963	0.023464	0.065446	1.000000	0.000030	0.000029	0.000022	-4.227983	-75.921357	-3.642454
54993	9.579311	-0.185826	2.400036	-0.005095	-0.007877	0.064449	1.000000	0.000010	0.000009	0.000023	-4.234375	-75.922490	-3.637606
54994	9.547872	-0.186480	2.385899	0.000700	-0.009795	0.030536	1.000000	0.000032	0.000022	0.000017	-4.235135	-75.922206	-3.636379
54995	9.547772	-0.186662	2.386282	0.000279	-0.009882	0.030536	1.000000	0.000045	0.000016	0.000021	-4.236250	-75.922583	-3.634016
54996	9.557496	-0.194179	2.365524	0.021522	-0.020269	0.035067	1.000000	0.000013	0.000019	0.000009	-4.235626	-75.922750	-3.636493
54997	9.575091	-0.177809	2.368347	0.025308	-0.003816	0.052524	1.000000	0.000024	0.000022	0.000028	-4.242257	-75.922412	-3.629066
54998	9.570959	-0.211060	2.378272	0.010235	-0.035155	0.051523	1.000000	0.000028	0.000010	0.000020	-4.245027	-75.923562	-3.626202
54999	9.547386	-0.187610	2.387752	-0.001422	-0.010233	0.030535	1.000000	0.000027	0.000032	0.000014	-4.244587	-75.922256	-3.624270
55000	9.574798	-0.178539	2.369477	0.024029	-0.004085	0.052528	1.000000	0.000028	0.000010	0.000020	-4.247357	-75.923406	-3.621406
55001	9.574482	-0.220488	2.412613	-0.023153	-0.039825	0.063440	1.000000	0.000038	0.000029	0.000011	-4.244241	-75.922458	-3.619845
55002	9.551096	-0.155006	2.379485	0.011957	0.020752	0.031541	1.000000	0.000027	0.000029	0.000003	-4.238859	-75.921564	-3.625587
55003	9.570410	-0.211778	2.380416	0.008096	-0.035598	0.051523	1.000000	0.000021	0.000009	0.000031	-4.247415	-75.922664	-3.617424
55004	9.595913	-0.171462	2.406673	-0.005568	0.007696	0.081903	1.000000	0.000032	0.000022	0.000017	-4.248173	-75.922381	-3.616201
55005	9.550580	-0.197549	2.423340	-0.036079	-0.015157	0.042445	1.000000	0.000024	0.000019	0.000017	-4.249818	-75.922488	-3.613475
55006	9.542810	-0.179834	2.357523	0.027712	-0.006448	0.018624	1.000000	0.000027	0.000029	0.000003	-4.244434	-75.921595	-3.619218
55007	9.577858	-0.188296	2.405635	-0.011050	-0.009098	0.064443	1.000000	0.000040	0.000023	0.000007	-4.239522	-75.921339	-3.623319
55008	9.556243	-0.196071	2.370424	0.016423	-0.021328	0.035075	1.000000	0.000026	0.000013	0.000013	-4.239221	-75.922184	-3.623939
55009	9.564008	-0.172122	2.394407	-0.001444	0.005434	0.047993	1.000000	0.000025	0.000035	0.000007	-4.235791	-75.920524	-3.629744
55010	9.550012	-0.197530	2.425577	-0.038191	-0.015578	0.042437	1.000000	0.000043	0.000010	-0.000002	-4.226927	-75.921808	-3.637093
55011	9.573628	-0.179365	2.374139	0.019368	-0.005059	0.052537	1.000000	0.000019	0.000029	0.000014	-4.227367	-75.920830	-3.638225
55012	9.567513	-0.181052	2.428786	-0.034824	0.000785	0.059895	1.000000	0.000037	0.000013	0.000020	-4.229292	-75.921602	-3.635254
55013	9.577262	-0.188594	2.407985	-0.013594	-0.009620	0.064439	1.000000	0.000034	0.000016	0.000013	-4.228176	-75.922069	-3.634253
55014	9.545819	-0.189094	2.393892	-0.007772	-0.011538	0.030531	1.000000	0.000032	0.000022	0.000017	-4.228933	-75.921786	-3.633033
55015	9.586883	-0.196318	2.387684	0.007209	-0.020113	0.068985	1.000000	0.000024	0.000019	0.000017	-4.230630	-75.921876	-3.633569
55016	9.553504	-0.165361	2.418151	-0.026055	0.015148	0.043445	1.000000	0.000023	0.000016	0.000006	-4.227256	-75.922416	-3.637674
55017	9.563207	-0.172765	2.397559	-0.004823	0.004737	0.047993	1.000000	0.000025	0.000035	0.000007	-4.223806	-75.920752	-3.642825
55018	9.549430	-0.156596	2.386056	0.005221	0.019349	0.031550	1.000000	0.000032	0.000022	0.000017	-4.224561	-75.920470	-3.641606
55019	9.580659	-0.156411	2.400975	-0.001458	0.021098	0.065456	1.000000	0.000032	0.000022	0.000017	-4.225454	-75.920210	-3.641139
55020	9.553007	-0.165820	2.420084	-0.027745	0.014810	0.043441	1.000000	0.000032	0.000022	0.000017	-4.226210	-75.919927	-3.639920
55021	9.562748	-0.173372	2.399345	-0.006517	0.004395	0.047992	1.000000	0.000026	0.000013	0.000013	-4.226006	-75.920753	-3.638989
55022	9.562658	-0.173522	2.399692	-0.006941	0.004307	0.047992	1.000000	0.000032	0.000022	0.000017	-4.226761	-75.920470	-3.637771
55023	9.545149	-0.148560	2.354784	0.035235	0.023281	0.019665	1.000000	0.000017	0.000010	0.000012	-4.227281	-75.921677	-3.637146
55024	9.562499	-0.174037	2.400288	-0.007785	0.004131	0.047991	1.000000	0.000027	0.000019	0.000035	-4.236922	-75.921632	-3.627341
55025	9.544986	-0.149110	2.355411	0.034390	0.023101	0.019669	1.000000	0.000041	0.000016	0.000002	-4.229972	-75.922183	-3.633482
55026	9.575937	-0.190512	2.413096	-0.019115	-0.010741	0.064429	1.000000	0.000032	0.000022	0.000017	-4.230726	-75.921901	-3.632265
55027	9.562213	-0.174455	2.401396	-0.009060	0.003869	0.047990	1.000000	0.000015	0.000016	0.000016	-4.233183	-75.922382	-3.630769
55028	9.558349	-0.165784	2.368521	0.022642	0.008137	0.036111	1.000000	0.000026	0.000013	0.000013	-4.232880	-75.923228	-3.631393
55029	9.571898	-0.182279	2.380883	0.011740	-0.006646	0.052548	1.000000	0.000026	0.000016	0.000024	-4.237618	-75.923591	-3.627226
55030	9.571807	-0.182552	2.381228	0.011316	-0.006735	0.052549	1.000000	0.000024	0.000019	0.000017	-4.239215	-75.923687	-3.626119
55031	9.561890	-0.175300	2.402621	-0.010745	0.003520	0.047989	1.000000	0.000026	0.000013	0.000013	-4.238906	-75.924516	-3.626653
55032	9.553900	-0.199478	2.379567	0.006251	-0.023439	0.035082	1.000000	0.000027	0.000032	0.000014	-4.238486	-75.923178	-3.627193
55033	9.571507	-0.183094	2.382392	0.010051	-0.006997	0.052550	1.000000	0.000039	0.000010	0.000028	-4.243605	-75.924225	-3.620126
55034	9.543889	-0.192344	2.401316	-0.016229	-0.013263	0.030518	1.000000	0.000030	0.000016	-0.000005	-4.234413	-75.924835	-3.629340
55035	9.571359	-0.183233	2.382975	0.009195	-0.007173	0.052551	1.000000	0.000037	0.000016	0.000032	-4.241344	-75.925205	-3.621347
55036	9.543683	-0.192793	2.402101	-0.017084	-0.013435	0.030517	1.000000	0.000009	0.000032	0.000018	-4.244508	-75.923872	-3.620378
55037	9.588826	-0.167222	2.386343	0.012573	0.009174	0.070021	1.000000	0.000024	0.000019	0.000017	-4.246131	-75.923931	-3.618528
55038	9.543442	-0.193174	2.403028	-0.017925	-0.013609	0.030515	1.000000	0.000029	0.000026	0.000010	-4.243810	-75.923344	-3.620800
55039	9.574675	-0.192901	2.417910	-0.024631	-0.011861	0.064415	1.000000	0.000026	0.000013	0.000013	-4.243550	-75.924201	-3.620464
55040	9.561304	-0.135069	2.363320	0.032303	0.038289	0.037163	1.000000	0.000032	0.000022	0.000017	-4.244301	-75.923919	-3.619252
55041	9.584326	-0.200617	2.397571	-0.003851	-0.022392	0.068982	1.000000	0.000034	0.000016	0.000013	-4.243174	-75.924387	-3.618921
55042	9.521570	-0.201473	2.368938	0.008293	-0.026146	0.001181	1.000000	0.000032	0.000022	0.000017	-4.243925	-75.924106	-3.617710
55043	9.547083	-0.160883	2.395148	-0.005314	0.017173	0.031554	1.000000	0.000036	0.000010	0.000009	-4.240983	-75.925304	-3.619688
55044	9.560628	-0.177218	2.407499	-0.016245	0.002397	0.047981	1.000000	0.000004	0.000016	0.000009	-4.241191	-75.925850	-3.622289
55045	9.586134	-0.136592	2.433729	-0.029854	0.045716	0.078353	1.000000	0.000031	0.000019	0.000006	-4.237009	-75.926023	-3.626460
55046	9.580132	-0.192166	2.366092	0.026160	-0.018503	0.057127	1.000000	0.000042	0.000019	0.000014	-4.235018	-75.926114	-3.626869
55047	9.535094	-0.176389	2.339890	0.042540	-0.005738	0.006802	1.000000	0.000032	0.000022	0.000017	-4.235789	-75.925832	-3.624302
55048	9.560223	-0.177658	2.409071	-0.017941	0.002050	0.047978	1.000000	0.000013	0.000022	0.000021	-4.240124	-75.925554	-3.621582
55049	9.574103	-0.152461	2.378619	0.017994	0.022800	0.053602	1.000000	0.000017	0.000010	0.000012	-4.240625	-75.926808	-3.621956
55050	9.577780	-0.161442	2.412104	-0.014571	0.018394	0.065451	1.000000	0.000032	0.000022	0.000017	-4.241374	-75.926526	-3.620747
55051	9.556173	-0.169397	2.377028	0.012918	0.006105	0.036130	1.000000	0.000049	0.000029	0.000018	-4.240486	-75.925536	-3.618940
55052	9.583266	-0.202048	2.401686	-0.008547	-0.023353	0.068977	1.000000	0.000004	0.000016	0.000009	-4.240692	-75.926082	-3.621544
55053	9.541983	-0.195118	2.408656	-0.024299	-0.014901	0.030499	1.000000	0.000019	0.000029	0.000014	-4.241118	-75.925145	-3.621566
55054	9.573549	-0.153248	2.380798	0.015868	0.022356	0.053607	1.000000	0.000032	0.000022	0.000017	-4.241867	-75.924863	-3.620357
55055	9.582889	-0.202546	2.403147	-0.009826	-0.023617	0.068975	1.000000	0.000027	0.000032	0.000014	-4.241432	-75.923513	-3.619790
55056	9.555581	-0.170086	2.379359	0.010801	0.005661	0.036133	1.000000	0.000044	0.000013	0.000010	-4.237543	-75.924356	-3.621927
55057	9.569073	-0.186465	2.391890	-0.000145	-0.009112	0.052553	1.000000	0.000030	0.000029	0.000021	-4.240158	-75.923294	-3.619100
55058	9.541384	-0.195756	2.410976	-0.026411	-0.015337	0.030493	1.000000	0.000023	0.000016	0.000006	-4.236779	-75.923836	-3.623213
55059	9.559010	-0.179348	2.413758	-0.022602	0.001094	0.047969	1.000000	0.000024	0.000022	0.000028	-4.243396	-75.923435	-3.616962
55060	9.555148	-0.170788	2.381047	0.009124	0.005306	0.036135	1.000000	0.000029	0.000026	0.000010	-4.241070	-75.922849	-3.619241
55061	9.596179	-0.177991	2.375085	0.024011	-0.003332	0.074617	1.000000	0.000027	0.000032	0.000014	-4.240633	-75.921482	-3.619982
55062	9.527261	-0.180167	2.400901	-0.017556	-0.001002	0.014071	1.000000	0.000036	0.000035	0.000015	-4.239358	-75.919769	-3.620428
55063	9.578150	-0.194714	2.373895	0.018936	-0.020023	0.057140	1.000000	0.000029	0.000023	-0.000001	-4.232125	-75.919626	-3.628817
55064	9.544719	-0.163581	2.404367	-0.014174	0.015341	0.031548	1.000000	0.000030	0.000029	0.000021	-4.234768	-75.918594	-3.625887
55065	9.582082	-0.162019	2.364987	0.032858	0.010988	0.058205	1.000000	0.000008	0.000003	0.000000	-4.231178	-75.920612	-3.632064
55066	9.550295	-0.204110	2.393605	-0.008173	-0.026414	0.035073	1.000000	0.000032	0.000022	0.000017	-4.231925	-75.920331	-3.630859
55067	9.581921	-0.162280	2.365622	0.032013	0.010808	0.058208	1.000000	0.000045	0.000016	0.000021	-4.233004	-75.920714	-3.627185
