// Start Time: Unknown
// Update Rate: 100.0Hz
// Filter Profile: human (46.1)
// Firmware Version: 4.4.0
PacketCounter	Acc_X	Acc_Y	Acc_Z	FreeAcc_X	FreeAcc_Y	FreeAcc_Z	OriInc_q0	OriInc_q1	OriInc_q2	OriInc_q3	Roll	Pitch	Yaw
46184	1.457178	-0.326965	9.695187	-0.010487	0.005757	-0.003162	1.000000	-0.000048	0.000006	0.000025	-2.003608	-8.556883	49.252079
46185	1.456165	-0.359643	9.681323	0.014552	-0.014326	-0.015883	1.000000	-0.000055	0.000017	0.000020	-2.010299	-8.554831	49.254374
46186	1.485904	-0.346975	9.691115	0.022348	0.016437	-0.002222	1.000000	-0.000055	0.000017	0.000038	-2.017346	-8.552627	49.258713
46187	1.449188	-0.334212	9.661652	-0.007916	0.000889	-0.037244	1.000000	-0.000049	0.000016	-0.000001	-2.022944	-8.550826	49.258553
46188	1.491649	-0.376717	9.710812	0.044819	0.001244	0.019139	1.000000	-0.000051	0.000006	0.000036	-2.029392	-8.549980	49.262658
46189	1.455914	-0.332275	9.695197	-0.010483	0.005779	-0.003162	1.000000	-0.000045	0.000005	0.000014	-2.034745	-8.549355	49.264309
46190	1.473141	-0.371685	9.696051	0.029670	-0.006537	0.001628	1.000000	-0.000042	0.000013	0.000014	-2.039882	-8.547883	49.265829
46191	1.472844	-0.372637	9.696060	0.029670	-0.006537	0.001628	1.000000	-0.000052	0.000016	0.000010	-2.046027	-8.545956	49.266896
46192	1.455107	-0.335152	9.695219	-0.010553	0.005773	-0.003162	1.000000	-0.000052	0.000016	0.000010	-2.052409	-8.544222	49.267998
46193	1.491124	-0.349913	9.724714	0.019711	0.021321	0.031860	1.000000	-0.000037	0.000020	0.000020	-2.056964	-8.541826	49.270206
46194	1.465571	-0.347874	9.676423	0.007086	0.008635	-0.019733	1.000000	-0.000054	0.000008	0.000029	-2.063853	-8.541136	49.273503
46195	1.447105	-0.342119	9.661687	-0.008046	0.000861	-0.037244	1.000000	-0.000062	0.000020	0.000006	-2.071059	-8.538852	49.274125
46196	1.460039	-0.366975	9.714945	0.011808	-0.009462	0.018199	1.000000	-0.000047	0.000023	0.000034	-2.077108	-8.536418	49.277973
46197	1.494471	-0.337402	9.686290	0.014819	0.039345	-0.006071	1.000000	-0.000053	0.000025	0.000020	-2.083529	-8.533421	49.280127
46198	1.463964	-0.352293	9.676507	0.006949	0.008551	-0.019733	1.000000	-0.000052	0.000016	0.000028	-2.090106	-8.532045	49.283278
46199	1.469949	-0.380946	9.696176	0.029423	-0.006638	0.001628	1.000000	-0.000042	0.000013	0.000014	-2.095189	-8.530476	49.284789
46200	1.470439	-0.350332	9.710094	0.004263	0.013387	0.014349	1.000000	-0.000052	0.000016	0.000028	-2.101941	-8.529253	49.287965
46201	1.462916	-0.355171	9.676560	0.006829	0.008494	-0.019732	1.000000	-0.000038	0.000030	0.000012	-2.106482	-8.525797	49.289197
46202	1.457627	-0.372914	9.715081	0.011475	-0.009660	0.018199	1.000000	-0.000049	0.000015	0.000035	-2.112921	-8.524841	49.293202
46203	1.462164	-0.357075	9.676604	0.006698	0.008411	-0.019732	1.000000	-0.000049	0.000016	-0.000001	-2.118520	-8.523041	49.293040
46204	1.487064	-0.360967	9.724932	0.019111	0.020997	0.031862	1.000000	-0.000034	0.000019	0.000027	-2.123189	-8.521691	49.296141
46205	1.438315	-0.368508	9.700417	-0.003808	-0.017513	0.000687	1.000000	-0.000035	0.000029	0.000001	-2.127184	-8.518362	49.296145
46206	1.460969	-0.359543	9.676693	0.006387	0.008251	-0.019732	1.000000	-0.000058	0.000009	0.000021	-2.134552	-8.518216	49.298641
46207	1.479715	-0.335937	9.705356	-0.003523	0.036107	0.010501	1.000000	-0.000042	0.000013	0.000014	-2.139633	-8.516648	49.300151
46208	1.437425	-0.371387	9.700439	-0.004139	-0.017742	0.000686	1.000000	-0.000049	0.000015	0.000017	-2.145711	-8.516146	49.302090
46209	1.479123	-0.337868	9.705379	-0.003694	0.035958	0.010501	1.000000	-0.000049	0.000015	0.000017	-2.151597	-8.514337	49.303991
46210	1.466912	-0.359584	9.710289	0.003521	0.012808	0.014350	1.000000	-0.000046	0.000014	0.000024	-2.157076	-8.513948	49.306765
46211	1.448349	-0.353597	9.695576	-0.011609	0.005034	-0.003163	1.000000	-0.000050	0.000025	0.000009	-2.162942	-8.511083	49.307690
46212	1.478125	-0.340819	9.705428	-0.003963	0.035616	0.010503	1.000000	-0.000051	0.000007	0.000000	-2.168862	-8.511448	49.307597
46213	1.477910	-0.341795	9.705426	-0.003964	0.035616	0.010503	1.000000	-0.000046	0.000014	0.000024	-2.174492	-8.509753	49.310334
46214	1.465717	-0.363443	9.710326	0.003270	0.012346	0.014351	1.000000	-0.000042	0.000013	0.000014	-2.178881	-8.509960	49.311770
46215	1.466146	-0.332781	9.724302	-0.021772	0.032426	0.027072	1.000000	-0.000047	0.000023	0.000016	-2.184497	-8.507213	49.313532
46216	1.446719	-0.358311	9.695646	-0.011828	0.004188	-0.003163	1.000000	-0.000043	0.000022	0.000023	-2.188202	-8.506152	49.316061
46217	1.458273	-0.338504	9.690783	-0.019168	0.027149	-0.007009	1.000000	-0.000046	0.000014	0.000024	-2.193810	-8.504459	49.318798
46218	1.476080	-0.346388	9.705542	-0.003946	0.034609	0.010506	1.000000	-0.000044	0.000023	0.000005	-2.197262	-8.502835	49.319103
46219	1.468705	-0.351302	9.671974	-0.001372	0.029722	-0.023576	1.000000	-0.000061	0.000010	0.000032	-2.204741	-8.501582	49.322759
46220	1.456486	-0.373041	9.676858	0.005975	0.006291	-0.019730	1.000000	-0.000034	0.000019	0.000027	-2.207213	-8.501357	49.325549
46221	1.486224	-0.360170	9.686739	0.013767	0.037023	-0.006060	1.000000	-0.000052	0.000016	0.000010	-2.213326	-8.499419	49.326610
46222	1.445482	-0.332580	9.709708	-0.036739	0.023091	0.009562	1.000000	-0.000052	0.000016	0.000010	-2.217872	-8.499136	49.327357
46223	1.462563	-0.372059	9.710475	0.003438	0.010782	0.014353	1.000000	-0.000039	0.000012	0.000021	-2.222667	-8.497656	49.329697
46224	1.456035	-0.345286	9.690881	-0.018968	0.025533	-0.007005	1.000000	-0.000052	0.000016	0.000028	-2.227096	-8.497418	49.332495
46225	1.466773	-0.357104	9.672054	-0.001262	0.028422	-0.023572	1.000000	-0.000043	0.000022	0.000023	-2.232427	-8.494738	49.335084
46226	1.466478	-0.358053	9.672064	-0.001164	0.027698	-0.023570	1.000000	-0.000051	0.000007	0.000000	-2.235046	-8.496741	49.334856
46227	1.484459	-0.365932	9.686794	0.013974	0.035463	-0.006055	1.000000	-0.000036	0.000011	0.000028	-2.239566	-8.495377	49.338032
46228	1.436619	-0.342097	9.676197	-0.033862	0.016457	-0.024517	1.000000	-0.000060	0.000028	0.000005	-2.243695	-8.494265	49.338232
46229	1.494691	-0.378810	9.668001	0.031805	0.037766	-0.022621	1.000000	-0.000047	0.000023	0.000034	-2.249548	-8.491455	49.342047
46230	1.430813	-0.361180	9.714695	-0.029200	-0.002158	0.013406	1.000000	-0.000055	0.000017	0.000020	-2.254799	-8.492207	49.343730
46231	1.476574	-0.342477	9.667301	-0.008482	0.049555	-0.027406	1.000000	-0.000059	0.000018	0.000013	-2.261726	-8.489999	49.345177
46232	1.453179	-0.353494	9.691013	-0.018732	0.022957	-0.006998	1.000000	-0.000049	0.000015	0.000017	-2.264267	-8.491092	49.346695
46233	1.482101	-0.372217	9.686915	0.014103	0.033611	-0.006048	1.000000	-0.000040	0.000021	0.000013	-2.269044	-8.488552	49.348058
46234	1.463575	-0.366138	9.672201	-0.000917	0.024927	-0.023563	1.000000	-0.000049	0.000015	0.000035	-2.271151	-8.490415	49.351764
46235	1.481428	-0.374147	9.686944	0.014221	0.032684	-0.006045	1.000000	-0.000049	0.000016	-0.000001	-2.276693	-8.488612	49.351598
46236	1.463695	-0.336565	9.686250	-0.025847	0.044101	-0.010825	1.000000	-0.000047	0.000023	0.000034	-2.278665	-8.489446	49.355105
46237	1.462529	-0.368991	9.672251	-0.000799	0.024017	-0.023561	1.000000	-0.000039	0.000012	0.000003	-2.283118	-8.488025	49.355387
46238	1.481223	-0.345352	9.701017	-0.010491	0.051226	0.006696	1.000000	-0.000049	0.000015	0.000017	-2.285632	-8.488129	49.356921
46239	1.457790	-0.356202	9.724729	-0.020834	0.025356	0.027094	1.000000	-0.000040	0.000021	0.000013	-2.290359	-8.485612	49.358285
46240	1.450327	-0.360842	9.691170	-0.018189	0.019597	-0.006990	1.000000	-0.000043	0.000022	0.000023	-2.291917	-8.486647	49.360390
46241	1.468106	-0.368820	9.705925	-0.003047	0.027345	0.010529	1.000000	-0.000049	0.000015	0.000017	-2.297717	-8.484846	49.362288
46242	1.479613	-0.348920	9.701135	-0.010219	0.049522	0.006705	1.000000	-0.000035	0.000029	0.000001	-2.297904	-8.484366	49.361802
46243	1.460866	-0.342711	9.686461	-0.025340	0.041754	-0.010814	1.000000	-0.000044	0.000031	0.000033	-2.303443	-8.480666	49.365482
46244	1.472336	-0.322969	9.681679	-0.032475	0.063872	-0.014634	1.000000	-0.000052	0.000016	0.000010	-2.305376	-8.481716	49.366026
46245	1.471197	-0.355540	9.667649	-0.007425	0.043791	-0.027377	1.000000	-0.000052	0.000016	0.000010	-2.311421	-8.479805	49.367088
46246	1.459742	-0.345791	9.686521	-0.024670	0.040129	-0.010805	1.000000	-0.000052	0.000016	0.000010	-2.312602	-8.479506	49.367956
46247	1.448295	-0.336023	9.705394	-0.042350	0.037220	0.005763	1.000000	-0.000049	0.000015	0.000017	-2.318385	-8.477670	49.369848
46248	1.459132	-0.347785	9.686542	-0.023877	0.038958	-0.010799	1.000000	-0.000046	0.000014	0.000024	-2.315975	-8.478161	49.372724
46249	1.465783	-0.344973	9.720162	-0.026411	0.043792	0.023290	1.000000	-0.000043	0.000022	0.000023	-2.321155	-8.475486	49.375308
46250	1.476470	-0.356643	9.701333	-0.008206	0.045656	0.006726	1.000000	-0.000044	0.000023	0.000006	-2.319917	-8.475509	49.375634
46251	1.477003	-0.326052	9.715405	-0.033213	0.065703	0.019481	1.000000	-0.000048	0.000006	0.000025	-2.325618	-8.474711	49.378497
46252	1.446681	-0.340770	9.705470	-0.040477	0.034174	0.005782	1.000000	-0.000052	0.000016	0.000010	-2.326281	-8.474355	49.379069
46253	1.498739	-0.349634	9.677686	0.002732	0.070691	-0.013654	1.000000	-0.000046	0.000014	0.000024	-2.331698	-8.472590	49.381787
46254	1.469157	-0.332828	9.681828	-0.029622	0.058885	-0.014593	1.000000	-0.000052	0.000016	0.000028	-2.331545	-8.473962	49.384275
46255	1.456978	-0.354613	9.686618	-0.022239	0.035897	-0.010783	1.000000	-0.000048	0.000006	0.000025	-2.337201	-8.473152	49.387135
46256	1.474826	-0.362644	9.701361	-0.006568	0.042210	0.006743	1.000000	-0.000047	0.000023	0.000016	-2.334865	-8.474750	49.388394
46257	1.486387	-0.342927	9.696595	-0.013874	0.065151	0.002936	1.000000	-0.000052	0.000016	0.000028	-2.341003	-8.472784	49.391507
46258	1.456033	-0.357720	9.686646	-0.021203	0.033706	-0.010773	1.000000	-0.000058	0.000009	0.000004	-2.342789	-8.473153	49.391033
46259	1.473859	-0.365800	9.701390	-0.006021	0.041423	0.006746	1.000000	-0.000043	0.000022	0.000023	-2.347849	-8.470465	49.393611
46260	1.474229	-0.335248	9.715514	-0.030281	0.060251	0.019525	1.000000	-0.000047	0.000023	0.000034	-2.345507	-8.470184	49.397235
46261	1.484967	-0.347041	9.696667	-0.012541	0.063134	0.002951	1.000000	-0.000052	0.000016	0.000010	-2.351294	-8.468206	49.398278
46262	1.473608	-0.337296	9.715537	-0.029869	0.059384	0.019531	1.000000	-0.000048	0.000006	0.000025	-2.352411	-8.469758	49.400736
46263	1.461331	-0.359084	9.720321	-0.022471	0.036388	0.023330	1.000000	-0.000053	0.000025	0.000020	-2.358500	-8.466685	49.402864
46264	1.484102	-0.350176	9.696686	-0.011585	0.061188	0.002965	1.000000	-0.000051	0.000007	0.000018	-2.358006	-8.468559	49.404200
46265	1.483048	-0.382700	9.682577	0.013503	0.041107	-0.009815	1.000000	-0.000049	0.000015	0.000017	-2.363538	-8.466672	49.406076
46266	1.465417	-0.345188	9.681962	-0.026126	0.052299	-0.014546	1.000000	-0.000055	0.000017	0.000020	-2.363427	-8.467523	49.407846
46267	1.483157	-0.353289	9.696718	-0.010926	0.060003	0.002973	1.000000	-0.000043	0.000022	0.000023	-2.368403	-8.464806	49.410418
46268	1.475594	-0.357989	9.663157	-0.007492	0.053686	-0.031113	1.000000	-0.000054	0.000034	0.000029	-2.365228	-8.464010	49.414199
46269	1.459023	-0.365252	9.720438	-0.020298	0.032563	0.023348	1.000000	-0.000039	0.000012	0.000003	-2.369320	-8.462485	49.414453
46270	1.463881	-0.349136	9.682053	-0.024505	0.048954	-0.014525	1.000000	-0.000053	-0.000002	0.000037	-2.366447	-8.468152	49.418316
46271	1.481878	-0.357270	9.696768	-0.009289	0.056634	0.002995	1.000000	-0.000046	0.000014	0.000024	-2.371563	-8.466416	49.421030
46272	1.481583	-0.358247	9.696777	-0.008735	0.055530	0.003002	1.000000	-0.000049	0.000015	0.000017	-2.370686	-8.467399	49.422151
46273	1.481288	-0.359225	9.696786	-0.008660	0.055474	0.003002	1.000000	-0.000046	0.000014	0.000024	-2.375766	-8.465667	49.424864
46274	1.480155	-0.391692	9.682660	0.017272	0.034316	-0.009794	1.000000	-0.000049	0.000015	0.000017	-2.373258	-8.465364	49.426821
46275	1.439330	-0.363939	9.705721	-0.033149	0.020666	0.005847	1.000000	-0.000031	0.000027	0.000026	-2.376675	-8.462081	49.429694
46276	1.450961	-0.344039	9.700999	-0.039753	0.042397	0.002080	1.000000	-0.000051	0.000007	0.000000	-2.374355	-8.463897	49.429102
46277	1.479970	-0.362996	9.696847	-0.006833	0.052989	0.003017	1.000000	-0.000059	0.000018	0.000031	-2.380922	-8.461663	49.432591
46278	1.450342	-0.346082	9.701019	-0.039320	0.041687	0.002084	1.000000	-0.000030	0.000018	0.000016	-2.380680	-8.461064	49.433170
46279	1.478479	-0.396344	9.682727	0.018629	0.032243	-0.009790	1.000000	-0.000061	0.000010	0.000014	-2.387235	-8.459772	49.434733
46280	1.479065	-0.365972	9.696873	-0.006842	0.050579	0.003030	1.000000	-0.000049	0.000015	0.000017	-2.388590	-8.467293	49.434661
46281	1.461489	-0.328360	9.696305	-0.046940	0.062821	-0.001676	1.000000	-0.000046	0.000014	0.000024	-2.393572	-8.465626	49.437381
46282	1.490396	-0.347096	9.692173	-0.013410	0.071860	-0.000723	1.000000	-0.000040	0.000021	0.000013	-2.388948	-8.467645	49.438950
46283	1.460653	-0.329997	9.696375	-0.046152	0.061117	-0.001661	1.000000	-0.000031	0.000027	0.000026	-2.392264	-8.464473	49.441837
46284	1.466499	-0.358854	9.715840	-0.022589	0.044539	0.019629	1.000000	-0.000063	0.000001	0.000033	-2.390183	-8.465970	49.447347
46285	1.453232	-0.335660	9.662752	-0.042478	0.054941	-0.035750	1.000000	-0.000039	0.000012	0.000003	-2.393959	-8.464555	49.447609
46286	1.471011	-0.343616	9.677506	-0.026793	0.061199	-0.018220	1.000000	-0.000043	0.000022	0.000023	-2.391273	-8.466396	49.449764
46287	1.459500	-0.333836	9.696417	-0.044369	0.058157	-0.001635	1.000000	-0.000049	0.000015	0.000017	-2.396360	-8.464639	49.451647
46288	1.488394	-0.352598	9.692282	-0.010302	0.066364	-0.000681	1.000000	-0.000040	0.000021	0.000013	-2.386036	-8.468337	49.454393
46289	1.488848	-0.322126	9.706485	-0.035220	0.086271	0.012158	1.000000	-0.000059	0.000018	0.000013	-2.392050	-8.466271	49.455834
46290	1.464398	-0.364583	9.715944	-0.019269	0.038348	0.019663	1.000000	-0.000038	0.000030	0.000012	-2.383363	-8.466879	49.457279
46291	1.445837	-0.358366	9.701245	-0.034304	0.030508	0.002144	1.000000	-0.000049	0.000014	0.000035	-2.388480	-8.465187	49.461230
46292	1.468722	-0.349415	9.677646	-0.023089	0.055377	-0.018176	1.000000	-0.000058	0.000010	-0.000014	-2.386663	-8.465367	49.460305
46293	1.475422	-0.346978	9.711269	-0.025468	0.059988	0.015933	1.000000	-0.000059	0.000018	0.000031	-2.392804	-8.463298	49.463807
46294	1.449920	-0.344521	9.662938	-0.037337	0.045838	-0.035682	1.000000	-0.000047	0.000023	0.000016	-2.388279	-8.465167	49.465465
46295	1.485844	-0.359791	9.692409	-0.006883	0.061097	-0.000644	1.000000	-0.000051	0.000007	0.000018	-2.393274	-8.464438	49.467490
46296	1.466595	-0.385067	9.663486	0.004694	0.031314	-0.031014	1.000000	-0.000040	0.000021	0.000031	-2.382557	-8.464600	49.473148
46297	1.478989	-0.333797	9.673029	-0.027540	0.074139	-0.021872	1.000000	-0.000050	0.000025	0.000009	-2.387120	-8.461871	49.474054
46298	1.448480	-0.348436	9.663014	-0.035263	0.041888	-0.035656	1.000000	-0.000052	0.000016	0.000028	-2.387134	-8.466720	49.475902
46299	1.477420	-0.367314	9.658857	-0.002292	0.052387	-0.034729	1.000000	-0.000049	0.000016	-0.000001	-2.391415	-8.465115	49.475728
46300	1.472007	-0.385462	9.697192	0.002296	0.031649	0.003111	1.000000	-0.000047	0.000023	0.000034	-2.389007	-8.474571	49.476013
46301	1.465561	-0.358414	9.677796	-0.020091	0.046746	-0.018124	1.000000	-0.000033	0.000010	0.000017	-2.391670	-8.473690	49.477976
46302	1.484173	-0.335000	9.706765	-0.028409	0.072566	0.012291	1.000000	-0.000053	0.000025	0.000020	-2.383858	-8.473143	49.482185
46303	1.464825	-0.360273	9.677838	-0.018398	0.044673	-0.018111	1.000000	-0.000042	0.000013	0.000014	-2.387458	-8.471906	49.483700
46304	1.441388	-0.371280	9.701422	-0.028095	0.016737	0.002197	1.000000	-0.000052	0.000016	0.000028	-2.383573	-8.476528	49.486482
46305	1.475292	-0.372955	9.658966	0.000010	0.045467	-0.034694	1.000000	-0.000043	0.000022	0.000023	-2.387383	-8.474276	49.489092
46306	1.470806	-0.359725	9.711506	-0.019023	0.045298	0.016026	1.000000	-0.000054	0.000007	0.000029	-2.381787	-8.477439	49.493277
46307	1.445457	-0.357035	9.663152	-0.031540	0.032691	-0.035609	1.000000	-0.000037	0.000021	0.000002	-2.384406	-8.475461	49.493432
46308	1.475253	-0.344452	9.673226	-0.022935	0.062168	-0.021777	1.000000	-0.000064	0.000011	0.000007	-2.383664	-8.476352	49.493426
46309	1.433497	-0.348412	9.682100	-0.048219	0.028276	-0.019003	1.000000	-0.000042	0.000039	0.000032	-2.387327	-8.472119	49.496986
46310	1.480403	-0.374357	9.692690	0.000658	0.044400	-0.000552	1.000000	-0.000045	0.000005	0.000014	-2.380082	-8.478084	49.499224
46311	1.462098	-0.368140	9.677954	-0.014335	0.036468	-0.018070	1.000000	-0.000049	0.000015	0.000017	-2.384182	-8.476742	49.501142
46312	1.461815	-0.369093	9.677961	-0.014783	0.035424	-0.018067	1.000000	-0.000042	0.000012	0.000031	-2.387599	-8.481590	49.500356
46313	1.468406	-0.366503	9.711616	-0.017095	0.039838	0.016053	1.000000	-0.000047	0.000023	0.000016	-2.391455	-8.479365	49.502144
46314	1.480163	-0.346630	9.706969	-0.023075	0.061635	0.012380	1.000000	-0.000035	0.000001	0.000036	-2.385190	-8.479059	49.507555
46315	1.449880	-0.361055	9.696885	-0.030699	0.030714	-0.001459	1.000000	-0.000049	0.000016	-0.000001	-2.388946	-8.477762	49.507413
46316	1.461509	-0.341291	9.692258	-0.037430	0.052199	-0.005127	1.000000	-0.000047	0.000023	0.000034	-2.386195	-8.479268	49.510787
46317	1.460288	-0.373608	9.678018	-0.012229	0.031945	-0.018052	1.000000	-0.000039	0.000012	0.000003	-2.388844	-8.478355	49.511093
46318	1.449918	-0.332347	9.711173	-0.052790	0.048538	0.011489	1.000000	-0.000047	-0.000003	0.000015	-2.383507	-8.472250	49.518038
46319	1.460151	-0.375464	9.677967	-0.009925	0.031301	-0.018047	1.000000	-0.000051	0.000007	0.000018	-2.387709	-8.471810	49.520084
46320	1.460897	-0.345010	9.692219	-0.033823	0.050304	-0.005104	1.000000	-0.000045	0.000005	0.000014	-2.384263	-8.471232	49.522875
46321	1.460694	-0.345963	9.692216	-0.033609	0.050032	-0.005102	1.000000	-0.000049	0.000015	0.000017	-2.388145	-8.469827	49.524778
46322	1.478506	-0.354086	9.706952	-0.018043	0.055842	0.012425	1.000000	-0.000042	0.000013	0.000014	-2.384348	-8.475103	49.524596
46323	1.467077	-0.344359	9.725873	-0.035469	0.052542	0.029035	1.000000	-0.000049	0.000014	0.000035	-2.388474	-8.473748	49.528571
46324	1.483030	-0.338947	9.668687	-0.021597	0.072910	-0.025349	1.000000	-0.000064	0.000011	0.000007	-2.386942	-8.472377	49.530883
46325	1.477704	-0.357315	9.706956	-0.016451	0.054284	0.012437	1.000000	-0.000046	0.000014	0.000024	-2.390474	-8.471122	49.533625
46326	1.448124	-0.340301	9.711165	-0.048462	0.040430	0.011548	1.000000	-0.000037	0.000020	0.000020	-2.379118	-8.479850	49.534897
46327	1.489120	-0.338330	9.702360	-0.022792	0.073780	0.008808	1.000000	-0.000048	0.000005	0.000025	-2.382802	-8.479642	49.537790
46328	1.447639	-0.342235	9.711169	-0.047277	0.038305	0.011563	1.000000	-0.000052	0.000016	0.000028	-2.377943	-8.482140	49.541263
46329	1.469707	-0.364608	9.673332	-0.011778	0.044037	-0.021659	1.000000	-0.000048	0.000006	0.000007	-2.381266	-8.481966	49.542093
46330	1.470273	-0.334238	9.687641	-0.035859	0.062204	-0.008675	1.000000	-0.000053	0.000025	0.000038	-2.376857	-8.483403	49.547718
46331	1.481017	-0.345953	9.668748	-0.017990	0.064903	-0.025285	1.000000	-0.000049	0.000016	-0.000001	-2.380104	-8.482193	49.547575
46332	1.457462	-0.356997	9.692302	-0.027618	0.037855	-0.005029	1.000000	-0.000047	0.000023	0.000034	-2.379250	-8.481665	49.551005
46333	1.487224	-0.344359	9.702439	-0.019570	0.068151	0.008856	1.000000	-0.000039	0.000012	0.000003	-2.381416	-8.480816	49.551307
46334	1.467984	-0.369434	9.673410	-0.007531	0.038225	-0.021630	1.000000	-0.000049	0.000015	0.000017	-2.368203	-8.480953	49.555015
46335	1.445296	-0.349121	9.711273	-0.042521	0.031788	0.011608	1.000000	-0.000050	0.000024	0.000027	-2.371834	-8.478680	49.558025
46336	1.467208	-0.371453	9.673451	-0.006255	0.035532	-0.021619	1.000000	-0.000046	0.000014	0.000024	-2.363819	-8.483602	49.560661
46337	1.467800	-0.341025	9.687780	-0.030998	0.055101	-0.008616	1.000000	-0.000049	0.000015	0.000017	-2.367085	-8.482444	49.562585
46338	1.455455	-0.362809	9.692388	-0.022729	0.030906	-0.004992	1.000000	-0.000052	0.000016	0.000028	-2.364892	-8.482541	49.567193
46339	1.473194	-0.370902	9.707132	-0.007260	0.038169	0.012524	1.000000	-0.000030	0.000018	0.000016	-2.365987	-8.481037	49.569031
46340	1.436509	-0.357329	9.677727	-0.035996	0.022519	-0.022497	1.000000	-0.000054	0.000034	0.000030	-2.363725	-8.472269	49.576032
46341	1.465346	-0.376241	9.673548	-0.002895	0.032840	-0.021608	1.000000	-0.000045	0.000005	0.000014	-2.366384	-8.472224	49.577689
46342	1.460865	-0.363021	9.726130	-0.022011	0.032532	0.029160	1.000000	-0.000040	0.000021	0.000013	-2.360002	-8.474435	49.579017
46343	1.465699	-0.346613	9.687900	-0.026701	0.050560	-0.008579	1.000000	-0.000048	0.000005	0.000025	-2.363145	-8.474298	49.581904
46344	1.435280	-0.361111	9.677769	-0.032192	0.019086	-0.022476	1.000000	-0.000050	0.000025	0.000009	-2.355211	-8.466339	49.588155
46345	1.465025	-0.348565	9.687932	-0.024074	0.049326	-0.008566	1.000000	-0.000042	0.000012	0.000031	-2.357733	-8.465306	49.591729
46346	1.464593	-0.349428	9.687966	-0.023096	0.046363	-0.008549	1.000000	-0.000041	0.000031	0.000005	-2.346667	-8.471298	49.590581
46347	1.489232	-0.354174	9.736366	-0.009972	0.058147	0.043102	1.000000	-0.000048	0.000005	0.000025	-2.349610	-8.471169	49.593464
46348	1.440787	-0.361289	9.711498	-0.033168	0.016869	0.011681	1.000000	-0.000034	0.000019	0.000027	-2.343038	-8.483191	49.590202
46349	1.463539	-0.352110	9.688028	-0.022648	0.042503	-0.008530	1.000000	-0.000053	0.000025	0.000020	-2.346436	-8.480945	49.592385
46350	1.451032	-0.373801	9.692633	-0.015105	0.016289	-0.004942	1.000000	-0.000040	0.000021	0.000013	-2.338161	-8.492361	49.589269
46351	1.480887	-0.361177	9.702796	-0.006985	0.046442	0.008999	1.000000	-0.000045	0.000005	0.000014	-2.340418	-8.492603	49.590956
46352	1.462632	-0.354808	9.688067	-0.021999	0.038258	-0.008511	1.000000	-0.000042	0.000013	0.000014	-2.342454	-8.492838	49.592056
46353	1.462300	-0.355626	9.688087	-0.021697	0.037809	-0.008509	1.000000	-0.000037	0.000020	0.000020	-2.343932	-8.491311	49.594307
46354	1.480985	-0.332458	9.717189	-0.030971	0.064536	0.022072	1.000000	-0.000054	0.000007	0.000029	-2.345281	-8.491894	49.599316
46355	1.479876	-0.364841	9.702814	-0.005667	0.044179	0.009011	1.000000	-0.000042	0.000013	0.000014	-2.347292	-8.491186	49.600866
46356	1.479603	-0.365751	9.702821	-0.005592	0.042667	0.009017	1.000000	-0.000046	0.000014	0.000024	-2.346802	-8.496002	49.600262
46357	1.450040	-0.348983	9.707041	-0.038111	0.031518	0.008137	1.000000	-0.000065	0.000020	0.000017	-2.351471	-8.494505	49.602159
46358	1.484073	-0.350587	9.664628	-0.009145	0.060416	-0.028686	1.000000	-0.000039	0.000012	0.000021	-2.350046	-8.489811	49.606918
46359	1.459676	-0.393038	9.673737	0.005956	0.013982	-0.021564	1.000000	-0.000055	0.000017	0.000021	-2.353641	-8.488625	49.609252
46360	1.449071	-0.352187	9.707070	-0.034773	0.029380	0.008156	1.000000	-0.000059	0.000018	0.000013	-2.346677	-8.485646	49.613773
46361	1.472015	-0.343214	9.683586	-0.024258	0.055008	-0.012032	1.000000	-0.000054	0.000008	0.000011	-2.349910	-8.485500	49.615008
46362	1.483025	-0.354887	9.664632	-0.004613	0.057553	-0.028665	1.000000	-0.000048	0.000005	0.000025	-2.344386	-8.479356	49.622642
46363	1.471432	-0.345166	9.683605	-0.021873	0.054002	-0.012021	1.000000	-0.000039	0.000038	0.000022	-2.345953	-8.475609	49.624997
46364	1.458904	-0.366904	9.688178	-0.013286	0.029535	-0.008466	1.000000	-0.000058	0.000009	0.000021	-2.341895	-8.476606	49.628754
46365	1.463771	-0.350464	9.649987	-0.017986	0.047565	-0.046157	1.000000	-0.000034	0.000019	0.000027	-2.342893	-8.475107	49.631823
46366	1.495259	-0.352088	9.732058	-0.006975	0.063188	0.039656	1.000000	-0.000065	0.000020	0.000017	-2.344574	-8.475114	49.632956
46367	1.469937	-0.349298	9.683684	-0.019494	0.050627	-0.011998	1.000000	-0.000049	0.000015	0.000017	-2.347152	-8.474088	49.634881
46368	1.468669	-0.381591	9.669290	0.006672	0.029804	-0.025101	1.000000	-0.000040	0.000021	0.000031	-2.343349	-8.471304	49.639481
46369	1.464048	-0.368618	9.721916	-0.012924	0.030723	0.025699	1.000000	-0.000052	0.000016	0.000028	-2.346439	-8.470140	49.642631
46370	1.480128	-0.362897	9.664779	0.001102	0.050539	-0.028625	1.000000	-0.000051	0.000007	0.000018	-2.338900	-8.471631	49.646153
46371	1.474795	-0.381469	9.702948	0.006519	0.031556	0.009059	1.000000	-0.000061	0.000009	0.000032	-2.342990	-8.471177	49.649830
46372	1.457297	-0.343999	9.702662	-0.032546	0.042328	0.004687	1.000000	-0.000053	0.000025	0.000020	-2.338360	-8.470541	49.652757
46373	1.479124	-0.366226	9.664807	0.002978	0.048081	-0.028613	1.000000	-0.000047	0.000024	-0.000002	-2.340205	-8.468564	49.652476
46374	1.444365	-0.366711	9.707233	-0.022423	0.017424	0.008221	1.000000	-0.000049	0.000014	0.000035	-2.330283	-8.464212	49.661452
46375	1.467196	-0.357608	9.683796	-0.011883	0.043053	-0.011949	1.000000	-0.000050	0.000025	0.000009	-2.332579	-8.462077	49.662393
46376	1.465811	-0.389931	9.669391	0.013478	0.022789	-0.025089	1.000000	-0.000047	0.000023	0.000016	-2.335031	-8.459689	49.664343
46377	1.467188	-0.328166	9.698309	-0.036125	0.062044	0.001199	1.000000	-0.000043	0.000022	0.000023	-2.336831	-8.457781	49.666955
46378	1.477138	-0.371098	9.664925	0.007872	0.043464	-0.028595	1.000000	-0.000051	0.000007	0.000018	-2.329409	-8.459708	49.669611
46379	1.484657	-0.337436	9.713052	-0.019059	0.067295	0.018719	1.000000	-0.000043	0.000022	0.000023	-2.331135	-8.457810	49.672223
46380	1.442149	-0.372643	9.707337	-0.018322	0.011090	0.008239	1.000000	-0.000058	0.000009	0.000021	-2.322854	-8.464172	49.674683
46381	1.464967	-0.363575	9.683912	-0.007781	0.036712	-0.011919	1.000000	-0.000048	0.000033	0.000008	-2.324735	-8.461138	49.675493
46382	1.494720	-0.351112	9.694161	0.016076	0.021775	0.002275	1.000000	-0.000045	0.000004	0.000032	-2.083453	-8.603732	49.221573
46383	1.464415	-0.365438	9.683925	0.008527	-0.009568	-0.011856	1.000000	-0.000042	0.000013	0.000014	-2.082779	-8.604145	49.220998
46384	1.446006	-0.359021	9.669225	-0.006367	-0.017820	-0.029366	1.000000	-0.000047	0.000023	0.000016	-2.083107	-8.603599	49.220821
46385	1.452433	-0.356699	9.702932	-0.008080	-0.014413	0.004818	1.000000	-0.000047	0.000023	0.000016	-2.082965	-8.602831	49.220510
46386	1.475319	-0.347446	9.679515	0.002701	0.010936	-0.015230	1.000000	-0.000039	0.000012	0.000021	-2.082554	-8.603147	49.218594
46387	1.451861	-0.358633	9.702947	-0.007083	-0.016110	0.004816	1.000000	-0.000061	0.000009	0.000032	-2.084316	-8.603918	49.220168
46388	1.462818	-0.370206	9.683985	0.010988	-0.013861	-0.011863	1.000000	-0.000033	0.000010	0.000017	-2.082809	-8.604497	49.219538
46389	1.481483	-0.347208	9.713192	0.002028	0.012600	0.018960	1.000000	-0.000065	0.000020	0.000017	-2.084805	-8.604076	49.219309
46390	1.467214	-0.354810	9.645876	0.007000	0.003178	-0.049416	1.000000	-0.000041	0.000030	0.000023	-2.084236	-8.602321	49.220029
46391	1.462398	-0.341895	9.698558	-0.012260	0.003475	0.001454	1.000000	-0.000050	0.000025	0.000009	-2.084347	-8.601430	49.218883
46392	1.491117	-0.360847	9.694358	0.021121	0.013074	0.002281	1.000000	-0.000050	0.000024	0.000027	-2.085002	-8.600556	49.219486
46393	1.478719	-0.382631	9.698833	0.028895	-0.010887	0.005634	1.000000	-0.000051	0.000007	0.000018	-2.085407	-8.601677	49.219435
46394	1.461204	-0.345008	9.698628	-0.010694	0.000834	0.001456	1.000000	-0.000051	0.000033	0.000019	-2.085654	-8.599558	49.220539
46395	1.471864	-0.356682	9.679705	0.007379	0.003041	-0.015227	1.000000	-0.000055	0.000017	0.000021	-2.086591	-8.599499	49.220753
46396	1.478519	-0.354470	9.713382	0.005664	0.006473	0.018964	1.000000	-0.000045	0.000005	0.000014	-2.086522	-8.600689	49.220482
46397	1.471403	-0.358521	9.679707	0.008394	0.001320	-0.015227	1.000000	-0.000034	0.000019	0.000027	-2.085067	-8.600409	49.221451
46398	1.489908	-0.335536	9.708968	-0.000603	0.027884	0.015624	1.000000	-0.000060	0.000027	0.000023	-2.087280	-8.598832	49.218791
46399	1.459350	-0.350053	9.698726	-0.008175	-0.003436	0.001458	1.000000	-0.000052	0.000016	0.000010	-2.087665	-8.598885	49.217776
46400	1.477072	-0.358432	9.713456	0.007646	0.003126	0.018965	1.000000	-0.000049	0.000015	0.000017	-2.088382	-8.598791	49.213857
46401	1.469889	-0.362670	9.679783	0.010368	-0.002016	-0.015229	1.000000	-0.000052	0.000016	0.000010	-2.088767	-8.598845	49.212842
46402	1.470519	-0.332356	9.694311	-0.013958	0.017016	-0.001873	1.000000	-0.000046	0.000014	0.000024	-2.088678	-8.599547	49.215203
46403	1.476186	-0.361367	9.713482	0.009160	0.000398	0.018964	1.000000	-0.000042	0.000013	0.000014	-2.088004	-8.599962	49.214629
46404	1.457883	-0.354912	9.698770	-0.005734	-0.007833	0.001457	1.000000	-0.000046	0.000014	0.000024	-2.088201	-8.600478	49.214375
46405	1.468745	-0.366481	9.679813	0.012331	-0.005617	-0.015233	1.000000	-0.000052	0.000016	0.000010	-2.088586	-8.600532	49.213360
46406	1.457211	-0.356866	9.698800	-0.004700	-0.009585	0.001456	1.000000	-0.000040	0.000020	0.000031	-2.088077	-8.599904	49.214653
46407	1.462036	-0.340145	9.660712	-0.009237	0.008369	-0.036060	1.000000	-0.000037	0.000020	0.000020	-2.086876	-8.599501	49.214787
46408	1.478778	-0.379707	9.660916	0.031447	-0.005117	-0.031928	1.000000	-0.000049	0.000015	0.000017	-2.087031	-8.599464	49.213664
46409	1.444039	-0.380355	9.703287	0.004126	-0.035306	0.004768	1.000000	-0.000052	0.000015	0.000028	-2.087715	-8.599532	49.214716
46410	1.485938	-0.347376	9.709161	0.005459	0.017291	0.015647	1.000000	-0.000055	0.000017	0.000021	-2.088885	-8.599671	49.214831
46411	1.478895	-0.351740	9.675458	0.008163	0.012180	-0.018551	1.000000	-0.000060	0.000000	0.000022	-2.090369	-8.601502	49.215305
46412	1.489838	-0.363321	9.656484	0.026244	0.014382	-0.035244	1.000000	-0.000040	0.000021	0.000013	-2.089226	-8.600997	49.216845
46413	1.436921	-0.356503	9.684161	-0.016429	-0.023147	-0.016055	1.000000	-0.000053	0.000025	0.000020	-2.089890	-8.599997	49.216933
46414	1.466591	-0.344132	9.694496	-0.007805	0.006419	-0.001854	1.000000	-0.000040	0.000020	0.000031	-2.089475	-8.599302	49.217029
46415	1.447267	-0.368967	9.665240	0.002135	-0.021758	-0.032754	1.000000	-0.000049	0.000015	0.000017	-2.089607	-8.599482	49.216852
46416	1.483020	-0.384727	9.694682	0.033394	-0.007934	0.002252	1.000000	-0.000046	0.000014	0.000024	-2.089684	-8.599430	49.215338
46417	1.436466	-0.329071	9.698790	-0.039131	-0.006625	-0.002658	1.000000	-0.000049	0.000015	0.000017	-2.089816	-8.599610	49.215161
46418	1.476357	-0.358527	9.675596	0.011807	0.006050	-0.018549	1.000000	-0.000044	0.000031	0.000016	-2.089502	-8.597948	49.215470
46419	1.464751	-0.348859	9.694605	-0.005208	0.002038	-0.001850	1.000000	-0.000042	0.000013	0.000014	-2.088828	-8.598365	49.214898
46420	1.476664	-0.329102	9.690198	-0.011917	0.024204	-0.005136	1.000000	-0.000051	0.000006	0.000036	-2.089367	-8.599554	49.220169
46421	1.487601	-0.340720	9.671221	0.006136	0.026439	-0.021834	1.000000	-0.000052	0.000016	0.000010	-2.089752	-8.599610	49.219156
46422	1.451817	-0.372665	9.699014	0.003566	-0.023732	0.001433	1.000000	-0.000047	0.000022	0.000034	-2.090152	-8.598982	49.222009
46423	1.440201	-0.363076	9.718022	-0.013445	-0.027751	0.018132	1.000000	-0.000043	0.000022	0.000024	-2.089757	-8.598346	49.222540
46424	1.462973	-0.353728	9.694697	-0.002692	-0.002424	-0.001849	1.000000	-0.000038	0.000029	0.000012	-2.088809	-8.597051	49.221881
46425	1.474650	-0.333878	9.690341	-0.009415	0.019769	-0.005124	1.000000	-0.000049	0.000015	0.000017	-2.088942	-8.597233	49.221705
46426	1.455307	-0.358718	9.661056	0.000497	-0.008353	-0.036055	1.000000	-0.000047	0.000023	0.000016	-2.088922	-8.596376	49.220284
46427	1.473910	-0.335762	9.690389	-0.008379	0.018014	-0.005119	1.000000	-0.000042	0.000013	0.000014	-2.088248	-8.596795	49.219713
46428	1.454479	-0.360620	9.661110	0.001493	-0.010151	-0.036057	1.000000	-0.000054	0.000034	0.000030	-2.089285	-8.594994	49.221954
46429	1.473025	-0.337631	9.690459	-0.007379	0.016210	-0.005115	1.000000	-0.000026	0.000007	0.000032	-2.087045	-8.596025	49.223497
46430	1.501936	-0.356525	9.686204	0.026001	0.025803	-0.004317	1.000000	-0.000062	0.000019	0.000024	-2.089183	-8.595673	49.221994
46431	1.460354	-0.360526	9.694841	0.000858	-0.008606	-0.001852	1.000000	-0.000058	0.000009	0.000021	-2.090395	-8.596565	49.222340
46432	1.448853	-0.351080	9.713833	-0.016163	-0.012595	0.014854	1.000000	-0.000050	0.000025	0.000009	-2.090729	-8.595564	49.219082
46433	1.471837	-0.341901	9.690489	-0.005357	0.012739	-0.005109	1.000000	-0.000051	0.000007	0.000018	-2.091135	-8.596691	49.219033
46434	1.459470	-0.363725	9.694855	0.002350	-0.011233	-0.001855	1.000000	-0.000055	0.000017	0.000021	-2.092326	-8.596802	49.218897
46435	1.459169	-0.364724	9.694863	0.002869	-0.012125	-0.001856	1.000000	-0.000042	0.000013	0.000014	-2.091652	-8.597221	49.218326
46436	1.471027	-0.344899	9.690506	-0.003873	0.010030	-0.005105	1.000000	-0.000046	0.000014	0.000024	-2.091473	-8.597819	49.222095
46437	1.481738	-0.356379	9.671556	0.014166	0.012283	-0.021814	1.000000	-0.000048	0.000033	0.000008	-2.091311	-8.595989	49.220828
46438	1.463196	-0.349870	9.656888	-0.000715	0.004147	-0.039315	1.000000	-0.000043	0.000022	0.000024	-2.091114	-8.595259	49.220267
46439	1.475531	-0.375913	9.709685	0.020296	-0.008420	0.015639	1.000000	-0.000049	0.000015	0.000017	-2.091247	-8.595443	49.220092
46440	1.458097	-0.338212	9.709623	-0.019352	0.003353	0.011610	1.000000	-0.000050	0.000024	0.000009	-2.091471	-8.594663	49.219436
46441	1.456825	-0.370490	9.694997	0.005922	-0.017482	-0.001866	1.000000	-0.000051	0.000007	0.000018	-2.091877	-8.595792	49.219388
46442	1.457616	-0.340099	9.709629	-0.018334	0.001556	0.011612	1.000000	-0.000033	0.000010	0.000017	-2.090199	-8.596721	49.219860
46443	1.479571	-0.361865	9.671684	0.017216	0.006965	-0.021814	1.000000	-0.000038	0.000029	0.000012	-2.088979	-8.595253	49.219035
46444	1.479192	-0.362840	9.671706	0.017739	0.006070	-0.021814	1.000000	-0.000058	0.000009	0.000021	-2.090156	-8.596157	49.220053
46445	1.467719	-0.353321	9.690704	0.000744	0.002027	-0.005100	1.000000	-0.000040	0.000021	0.000013	-2.089209	-8.595634	49.219356
46446	1.467389	-0.354410	9.690715	0.001255	0.001160	-0.005099	1.000000	-0.000067	0.000012	0.000018	-2.091611	-8.596096	49.217650
46447	1.486009	-0.331755	9.720095	-0.007575	0.027472	0.025896	1.000000	-0.000043	0.000022	0.000024	-2.091217	-8.595464	49.218185
46448	1.448615	-0.348997	9.676041	-0.013107	-0.007922	-0.022599	1.000000	-0.000043	0.000022	0.000024	-2.090694	-8.595018	49.221225
46449	1.484227	-0.364919	9.705494	0.018208	0.005709	0.012400	1.000000	-0.000052	0.000015	0.000028	-2.091380	-8.595096	49.222282
46450	1.477984	-0.337746	9.686469	-0.003926	0.020603	-0.008313	1.000000	-0.000047	0.000023	0.000016	-2.091132	-8.594638	49.226452
46451	1.454219	-0.348905	9.709826	-0.013679	-0.006544	0.011618	1.000000	-0.000043	0.000022	0.000024	-2.090738	-8.594007	49.226987
46452	1.470291	-0.342581	9.652830	-0.000789	0.014701	-0.042527	1.000000	-0.000040	0.000021	0.000013	-2.089724	-8.593644	49.228042
46453	1.453440	-0.350657	9.709879	-0.012647	-0.008357	0.011618	1.000000	-0.000046	0.000013	0.000024	-2.089605	-8.593958	49.228704
46454	1.476540	-0.341450	9.686560	-0.001889	0.017013	-0.008305	1.000000	-0.000054	0.000008	0.000011	-2.090413	-8.595089	49.227921
46455	1.465154	-0.331922	9.705554	-0.018874	0.012956	0.008417	1.000000	-0.000042	0.000013	0.000014	-2.089740	-8.595511	49.227352
46456	1.487316	-0.353857	9.667556	0.016678	0.018402	-0.025024	1.000000	-0.000048	0.000005	0.000025	-2.089802	-8.596670	49.228300
46457	1.487108	-0.354856	9.667552	0.017197	0.017513	-0.025023	1.000000	-0.000049	0.000015	0.000017	-2.089935	-8.596857	49.228127
46458	1.446540	-0.327447	9.690830	-0.032706	0.003017	-0.009075	1.000000	-0.000054	0.000007	0.000029	-2.090859	-8.598011	49.230881
46459	1.474481	-0.377792	9.671853	0.025459	-0.007385	-0.021832	1.000000	-0.000055	0.000017	0.000021	-2.091798	-8.597964	49.231103
46460	1.480753	-0.375711	9.705613	0.023877	-0.004206	0.012388	1.000000	-0.000036	0.000038	0.000011	-2.090350	-8.595587	49.229300
46461	1.456632	-0.341005	9.671888	-0.013657	0.003523	-0.025794	1.000000	-0.000062	-0.000008	0.000023	-2.092111	-8.598372	49.229900
46462	1.474499	-0.349493	9.686584	0.002252	0.009875	-0.008296	1.000000	-0.000034	0.000018	0.000027	-2.090769	-8.598174	49.229770
46463	1.462906	-0.339844	9.705619	-0.014727	0.005808	0.008431	1.000000	-0.000047	0.000023	0.000016	-2.090628	-8.597419	49.229471
46464	1.484890	-0.361780	9.667636	0.020780	0.011270	-0.025021	1.000000	-0.000046	0.000013	0.000024	-2.090546	-8.597772	49.230384
46465	1.461270	-0.373000	9.690941	0.011034	-0.015899	-0.005118	1.000000	-0.000049	0.000015	0.000017	-2.090679	-8.597961	49.230211
46466	1.467239	-0.324945	9.667663	-0.018322	0.022193	-0.028964	1.000000	-0.000040	0.000021	0.000013	-2.089753	-8.597393	49.229112
46467	1.472797	-0.354084	9.686676	0.004844	0.005429	-0.008293	1.000000	-0.000048	0.000005	0.000025	-2.089907	-8.598654	49.229901
46468	1.448993	-0.365332	9.710003	-0.004896	-0.021758	0.011604	1.000000	-0.000049	0.000042	0.000018	-2.089960	-8.595820	49.230577
46469	1.501959	-0.342695	9.697185	0.014076	0.033961	0.006038	1.000000	-0.000033	0.000010	0.000017	-2.088228	-8.596605	49.230451
46470	1.459302	-0.377565	9.691061	0.013625	-0.020363	-0.005130	1.000000	-0.000057	0.000026	0.000013	-2.089185	-8.595558	49.229724
46471	1.483212	-0.337166	9.682521	-0.000316	0.024953	-0.011454	1.000000	-0.000049	0.000015	0.000017	-2.089319	-8.595748	49.229552
46472	1.470752	-0.358897	9.686810	0.007423	0.000947	-0.008293	1.000000	-0.000049	0.000015	0.000017	-2.089453	-8.596033	49.229735
46473	1.482684	-0.339207	9.682530	0.000713	0.023160	-0.011449	1.000000	-0.000054	0.000008	0.000011	-2.090113	-8.597039	49.228853
46474	1.440153	-0.374203	9.676362	0.000268	-0.031167	-0.022637	1.000000	-0.000049	0.000015	0.000017	-2.090189	-8.597288	49.229459
46475	1.469852	-0.361868	9.686836	0.008983	-0.001739	-0.008295	1.000000	-0.000038	0.000029	0.000012	-2.088968	-8.595825	49.228641
46476	1.469513	-0.362707	9.686856	0.009493	-0.002657	-0.008295	1.000000	-0.000045	0.000005	0.000015	-2.088505	-8.597352	49.230021
46477	1.470060	-0.332413	9.701631	-0.014704	0.016365	0.005293	1.000000	-0.000042	0.000039	0.000033	-2.088118	-8.594733	49.231540
46478	1.475379	-0.361736	9.720645	0.008443	-0.000443	0.025934	1.000000	-0.000061	0.000010	0.000014	-2.089658	-8.595699	49.232059
46479	1.480436	-0.345020	9.682669	0.003792	0.017761	-0.011439	1.000000	-0.000043	0.000022	0.000024	-2.089265	-8.595074	49.232599
46480	1.426689	-0.369380	9.695494	-0.014173	-0.039715	-0.005919	1.000000	-0.000041	0.000003	0.000022	-2.088840	-8.596546	49.231109
46481	1.479911	-0.346817	9.682685	0.004806	0.016008	-0.011436	1.000000	-0.000047	0.000023	0.000016	-2.088700	-8.595794	49.230812
46482	1.456100	-0.358037	9.705988	-0.004927	-0.011191	0.008436	1.000000	-0.000047	0.000023	0.000016	-2.088538	-8.595039	49.230417
46483	1.461245	-0.341329	9.668006	-0.009585	0.007029	-0.028928	1.000000	-0.000060	0.000000	0.000022	-2.090027	-8.596884	49.230891
46484	1.455730	-0.360127	9.705966	-0.003894	-0.012976	0.008435	1.000000	-0.000039	0.000012	0.000003	-2.088827	-8.597446	49.228573
46485	1.448596	-0.363941	9.672259	-0.001329	-0.017859	-0.025801	1.000000	-0.000047	0.000022	0.000034	-2.088989	-8.596717	49.230344
46486	1.496306	-0.359351	9.697456	0.022802	0.018741	0.006063	1.000000	-0.000055	0.000017	0.000021	-2.090078	-8.596821	49.230228
46487	1.466839	-0.342422	9.701771	-0.009594	0.007456	0.005310	1.000000	-0.000049	0.000015	0.000017	-2.090212	-8.597014	49.230058
46488	1.477654	-0.353835	9.682776	0.008406	0.009744	-0.011430	1.000000	-0.000043	0.000022	0.000024	-2.089715	-8.596500	49.232498
46489	1.459333	-0.347224	9.668085	-0.006515	0.001669	-0.028924	1.000000	-0.000046	0.000013	0.000024	-2.089597	-8.596822	49.233163
46490	1.477129	-0.355632	9.682790	0.009448	0.007925	-0.011430	1.000000	-0.000038	0.000003	0.000011	-2.088226	-8.598585	49.234642
46491	1.435516	-0.359339	9.691340	-0.015724	-0.026469	-0.009068	1.000000	-0.000056	0.000026	0.000031	-2.089447	-8.597495	49.235974
46492	1.476334	-0.357746	9.682833	0.010486	0.006140	-0.011429	1.000000	-0.000053	0.000025	0.000020	-2.090107	-8.596535	49.236296
46493	1.470542	-0.376603	9.720813	0.016200	-0.013897	0.025914	1.000000	-0.000046	0.000013	0.000024	-2.089989	-8.596858	49.236962
46494	1.453280	-0.338870	9.720905	-0.023425	-0.002101	0.022062	1.000000	-0.000052	0.000016	0.000010	-2.090268	-8.597083	49.238447
46495	1.486443	-0.371212	9.663864	0.029512	0.006652	-0.028176	1.000000	-0.000047	0.000023	0.000016	-2.090127	-8.596333	49.238152
46496	1.475890	-0.330542	9.697707	-0.012167	0.022445	0.002218	1.000000	-0.000046	0.000013	0.000024	-2.090150	-8.596766	49.239016
46497	1.463418	-0.352252	9.701936	-0.004422	-0.001560	0.005317	1.000000	-0.000049	0.000015	0.000017	-2.090285	-8.596960	49.238846
46498	1.456447	-0.356086	9.668198	-0.001891	-0.006419	-0.028924	1.000000	-0.000045	0.000005	0.000015	-2.089873	-8.598445	49.239485
46499	1.475186	-0.333498	9.697713	-0.010616	0.019755	0.002226	1.000000	-0.000055	0.000017	0.000021	-2.090813	-8.598406	49.239711
46500	1.473966	-0.365692	9.682897	0.014578	-0.001025	-0.011433	1.000000	-0.000045	0.000005	0.000015	-2.090520	-8.599826	49.238705
46501	1.492527	-0.342865	9.712453	0.005859	0.025141	0.019722	1.000000	-0.000029	0.000035	0.000026	-2.088520	-8.597681	49.239439
46502	1.485231	-0.346644	9.678767	0.008384	0.020307	-0.014518	1.000000	-0.000059	0.000018	0.000014	-2.089746	-8.597562	49.238917
46503	1.461606	-0.358050	9.701996	-0.001339	-0.006924	0.005315	1.000000	-0.000051	0.000007	0.000018	-2.090155	-8.598702	49.238872
46504	1.502717	-0.356352	9.693471	0.024861	0.025671	0.002976	1.000000	-0.000049	0.000015	0.000017	-2.090313	-8.599029	49.239667
46505	1.473189	-0.339340	9.697814	-0.007538	0.014396	0.002238	1.000000	-0.000050	0.000024	0.000009	-2.090425	-8.598152	49.238539
46506	1.483827	-0.350725	9.678835	0.010442	0.016718	-0.014513	1.000000	-0.000044	0.000031	0.000016	-2.089969	-8.596536	49.238216
46507	1.460008	-0.361910	9.702094	0.000721	-0.010520	0.005312	1.000000	-0.000042	0.000013	0.000014	-2.089298	-8.596965	49.237651
46508	1.471983	-0.342202	9.697896	-0.005981	0.011688	0.002243	1.000000	-0.000058	0.000008	0.000021	-2.090445	-8.597963	49.238607
46509	1.470728	-0.374473	9.683054	0.019221	-0.009091	-0.011445	1.000000	-0.000052	0.000016	0.000010	-2.090832	-8.598030	49.237602
46510	1.470440	-0.375450	9.683060	0.019717	-0.009983	-0.011447	1.000000	-0.000042	0.000012	0.000032	-2.090564	-8.598582	49.239026
46511	1.453144	-0.337638	9.683216	-0.019906	0.001868	-0.015244	1.000000	-0.000047	0.000023	0.000016	-2.090424	-8.597835	49.238734
46512	1.458515	-0.366936	9.702130	0.003273	-0.014988	0.005306	1.000000	-0.000049	0.000015	0.000017	-2.090711	-8.598070	49.236986
46513	1.458117	-0.367981	9.702150	0.003793	-0.015880	0.005304	1.000000	-0.000053	0.000025	0.000020	-2.091378	-8.597090	49.237091
46514	1.499002	-0.366200	9.693679	0.029995	0.016717	0.002981	1.000000	-0.000037	0.000020	0.000020	-2.090241	-8.596825	49.237297
46515	1.462796	-0.352072	9.664272	-0.000418	0.001552	-0.031998	1.000000	-0.000068	0.000012	0.000018	-2.092515	-8.597370	49.237208
46516	1.480531	-0.360941	9.678965	0.015556	0.007793	-0.014509	1.000000	-0.000058	0.000008	0.000021	-2.093768	-8.598346	49.237325
46517	1.438859	-0.364788	9.687472	-0.009630	-0.026593	-0.012192	1.000000	-0.000053	0.000025	0.000020	-2.094435	-8.597367	49.237430
46518	1.475289	-0.349854	9.731787	-0.002856	0.006632	0.036501	1.000000	-0.000043	0.000022	0.000024	-2.094000	-8.596924	49.239984
46519	1.473525	-0.335738	9.660169	-0.005588	0.021090	-0.035040	1.000000	-0.000053	0.000025	0.000020	-2.094667	-8.595945	49.240089
46520	1.467703	-0.354619	9.698099	0.000167	0.000944	0.002252	1.000000	-0.000039	0.000011	0.000021	-2.093686	-8.596583	49.241497
46521	1.467516	-0.355552	9.698093	0.000688	0.000053	0.002252	1.000000	-0.000051	0.000006	0.000018	-2.094096	-8.597725	49.241453
46522	1.478318	-0.366959	9.679077	0.018638	0.002404	-0.014511	1.000000	-0.000048	0.000033	0.000009	-2.094005	-8.596004	49.240756
46523	1.466908	-0.357574	9.698111	0.001708	-0.001735	0.002251	1.000000	-0.000052	-0.000011	0.000027	-2.094713	-8.599164	49.241795
46524	1.448974	-0.350845	9.683372	-0.013271	-0.009762	-0.015237	1.000000	-0.000033	0.000010	0.000017	-2.093027	-8.600111	49.242780
46525	1.466603	-0.359213	9.698096	0.002726	-0.003533	0.002251	1.000000	-0.000040	0.000021	0.000013	-2.092081	-8.599599	49.242095
46526	1.459480	-0.362972	9.664370	0.005208	-0.008290	-0.032003	1.000000	-0.000055	0.000017	0.000021	-2.093049	-8.599597	49.241660
46527	1.472642	-0.358528	9.731873	0.001792	-0.001456	0.036503	1.000000	-0.000052	0.000015	0.000028	-2.093739	-8.599694	49.242726
46528	1.447657	-0.354727	9.683427	-0.011213	-0.013320	-0.015239	1.000000	-0.000049	0.000015	0.000017	-2.093932	-8.599933	49.242549
46529	1.472046	-0.360561	9.731888	0.002825	-0.003244	0.036502	1.000000	-0.000046	0.000013	0.000024	-2.093816	-8.600263	49.243219
46530	1.477322	-0.343582	9.693992	-0.001922	0.015118	-0.000767	1.000000	-0.000048	0.000005	0.000025	-2.093963	-8.601676	49.245774
46531	1.457998	-0.368005	9.664403	0.007773	-0.012750	-0.032010	1.000000	-0.000045	0.000032	-0.000002	-2.093245	-8.599961	49.243295
46532	1.482994	-0.342637	9.727840	-0.002855	0.017186	0.033492	1.000000	-0.000042	0.000039	0.000033	-2.092954	-8.597399	49.244213
46533	1.468974	-0.349133	9.660388	0.001578	0.008607	-0.035019	1.000000	-0.000052	0.000016	0.000010	-2.093341	-8.597469	49.243211
46534	1.464239	-0.336916	9.713193	-0.017306	0.008323	0.016009	1.000000	-0.000039	0.000011	0.000021	-2.092559	-8.597953	49.240762
46535	1.504178	-0.366316	9.689829	0.033583	0.021054	-0.000045	1.000000	-0.000057	0.000026	0.000013	-2.093478	-8.596847	49.240033
46536	1.485782	-0.359650	9.675159	0.018596	0.013056	-0.017531	1.000000	-0.000040	0.000021	0.000013	-2.092579	-8.596445	49.239939
46537	1.445118	-0.332116	9.698569	-0.031251	-0.001458	-0.001473	1.000000	-0.000046	0.000013	0.000024	-2.092463	-8.596776	49.240609
46538	1.472828	-0.382288	9.679320	0.026841	-0.011859	-0.014537	1.000000	-0.000053	0.000025	0.000020	-2.093142	-8.595834	49.240098
46539	1.485611	-0.331444	9.690165	-0.004499	0.030248	-0.003749	1.000000	-0.000043	0.000022	0.000024	-2.092752	-8.595222	49.240646
46540	1.442885	-0.366186	9.683713	-0.005062	-0.023994	-0.015254	1.000000	-0.000046	0.000013	0.000024	-2.092699	-8.595590	49.240553
46541	1.473764	-0.322996	9.709249	-0.020904	0.025200	0.013031	1.000000	-0.000052	0.000016	0.000010	-2.093086	-8.595661	49.239552
46542	1.472598	-0.355153	9.694294	0.004262	0.004438	-0.000757	1.000000	-0.000050	-0.000003	0.000026	-2.093493	-8.597909	49.240219
46543	1.483598	-0.366513	9.675237	0.022215	0.006818	-0.017533	1.000000	-0.000043	0.000022	0.000024	-2.093103	-8.597297	49.240768
46544	1.484244	-0.336429	9.690203	-0.001920	0.025783	-0.003736	1.000000	-0.000055	0.000017	0.000021	-2.094077	-8.597348	49.240863
46545	1.453758	-0.350633	9.679614	-0.009690	-0.005322	-0.018242	1.000000	-0.000055	0.000017	0.000021	-2.095020	-8.597318	49.241094
46546	1.483603	-0.338613	9.690225	-0.000889	0.023998	-0.003731	1.000000	-0.000046	0.000013	0.000024	-2.094936	-8.597703	49.241448
46547	1.488914	-0.367984	9.709050	0.022341	0.007046	0.016727	1.000000	-0.000050	0.000024	0.000009	-2.095048	-8.596830	49.240326
46548	1.459381	-0.351060	9.713423	-0.010082	-0.004210	0.016021	1.000000	-0.000059	0.000017	0.000031	-2.096549	-8.596806	49.242392
46549	1.482513	-0.341704	9.690284	0.000660	0.021312	-0.003725	1.000000	-0.000039	0.000012	0.000003	-2.095323	-8.597343	49.240600
46550	1.487848	-0.370965	9.709100	0.023889	0.004356	0.016725	1.000000	-0.000047	0.000023	0.000017	-2.095207	-8.596597	49.238802
46551	1.475150	-0.346259	9.656557	0.003620	0.015745	-0.037986	1.000000	-0.000051	0.000006	0.000018	-2.095619	-8.597744	49.238760
46552	1.458118	-0.354995	9.713470	-0.008001	-0.007780	0.016021	1.000000	-0.000053	0.000025	0.000020	-2.096274	-8.596784	49.238239
46553	1.481166	-0.345657	9.690349	0.002740	0.017748	-0.003718	1.000000	-0.000046	0.000013	0.000024	-2.096159	-8.597118	49.238912
46554	1.480829	-0.346498	9.690371	0.003266	0.016833	-0.003717	1.000000	-0.000037	0.000021	0.000002	-2.094535	-8.596793	49.237931
46555	1.480522	-0.347248	9.690391	0.003786	0.015942	-0.003715	1.000000	-0.000036	0.000010	0.000028	-2.093362	-8.597492	49.239043
46556	1.480239	-0.348253	9.690398	0.004309	0.015046	-0.003714	1.000000	-0.000059	0.000017	0.000031	-2.094832	-8.597373	49.239348
46557	1.433025	-0.370125	9.736678	-0.015607	-0.038698	0.035749	1.000000	-0.000052	0.000016	0.000010	-2.095219	-8.597446	49.238349
46558	1.461605	-0.342699	9.675730	-0.010170	0.006215	-0.021194	1.000000	-0.000047	0.000023	0.000017	-2.095129	-8.596716	49.236542
46559	1.467878	-0.340917	9.709528	-0.011557	0.009089	0.013075	1.000000	-0.000040	0.000021	0.000013	-2.094183	-8.596208	49.235861
46560	1.477691	-0.383244	9.675492	0.030981	-0.008378	-0.017558	1.000000	-0.000046	0.000013	0.000024	-2.094129	-8.596686	49.237161
46561	1.472762	-0.324786	9.671729	-0.015839	0.026678	-0.024128	1.000000	-0.000055	0.000017	0.000021	-2.095073	-8.596659	49.237394
46562	1.448061	-0.367287	9.679851	-0.000928	-0.020507	-0.018257	1.000000	-0.000045	0.000004	0.000032	-2.094992	-8.598166	49.239203
46563	1.460069	-0.347648	9.675785	-0.007611	0.001746	-0.021190	1.000000	-0.000062	0.000019	0.000006	-2.096437	-8.597876	49.237765
46564	1.477560	-0.356461	9.690508	0.008417	0.007888	-0.003708	1.000000	-0.000047	0.000022	0.000034	-2.096612	-8.597259	49.239763
46565	1.477175	-0.357485	9.690529	0.008937	0.006997	-0.003708	1.000000	-0.000052	0.000016	0.000010	-2.097000	-8.597333	49.238764
46566	1.471131	-0.330051	9.671799	-0.013284	0.022194	-0.024113	1.000000	-0.000047	0.000023	0.000017	-2.096876	-8.596741	49.239537
46567	1.458515	-0.351706	9.675873	-0.005564	-0.001839	-0.021189	1.000000	-0.000046	0.000014	0.000007	-2.096457	-8.597047	49.238142
46568	1.458247	-0.352588	9.675881	-0.005067	-0.002743	-0.021189	1.000000	-0.000042	0.000013	0.000014	-2.095826	-8.597629	49.238400
46569	1.475804	-0.361185	9.690601	0.010977	0.003401	-0.003708	1.000000	-0.000043	0.000022	0.000024	-2.095437	-8.597023	49.238953
46570	1.446194	-0.343972	9.695014	-0.021452	-0.007826	-0.004397	1.000000	-0.000038	0.000029	0.000012	-2.094255	-8.595633	49.237643
46571	1.469216	-0.334496	9.671937	-0.010721	0.017732	-0.024101	1.000000	-0.000049	0.000014	0.000035	-2.094697	-8.595872	49.239549
46572	1.474580	-0.363943	9.690684	0.012524	0.000712	-0.003710	1.000000	-0.000046	0.000013	0.000024	-2.094544	-8.596262	49.240090
46573	1.456456	-0.357293	9.675978	-0.002485	-0.007204	-0.021190	1.000000	-0.000058	0.000008	0.000022	-2.095763	-8.597181	49.240445
46574	1.462914	-0.355767	9.709744	-0.003852	-0.004390	0.013084	1.000000	-0.000049	0.000015	0.000017	-2.095886	-8.597481	49.240714
46575	1.462537	-0.356746	9.709765	-0.003332	-0.005282	0.013084	1.000000	-0.000047	0.000023	0.000017	-2.095748	-8.596744	49.240432
46576	1.467794	-0.339649	9.671973	-0.008137	0.013251	-0.024092	1.000000	-0.000054	0.000008	0.000011	-2.096373	-8.597824	49.239733
46577	1.462012	-0.358792	9.709769	-0.002292	-0.007079	0.013083	1.000000	-0.000046	0.000013	0.000024	-2.096259	-8.598164	49.240408
46578	1.455077	-0.362261	9.676001	0.000100	-0.011675	-0.021194	1.000000	-0.000036	0.000010	0.000028	-2.095084	-8.598858	49.240276
46579	1.449097	-0.334688	9.657299	-0.022113	0.003572	-0.041566	1.000000	-0.000050	0.000024	0.000009	-2.095196	-8.597990	49.239158
46580	1.491264	-0.348554	9.720481	0.007606	0.020391	0.027670	1.000000	-0.000051	0.000007	0.000000	-2.095272	-8.599189	49.237570
46581	1.454213	-0.365113	9.676024	0.001651	-0.014357	-0.021198	1.000000	-0.000046	0.000013	0.000024	-2.095159	-8.599529	49.238245
46582	1.460535	-0.363480	9.709816	0.000031	-0.012905	0.013077	1.000000	-0.000047	0.000023	0.000017	-2.091024	-8.605825	49.224520
46583	1.465755	-0.346247	9.672049	-0.004778	0.005665	-0.024082	1.000000	-0.000042	0.000013	0.000014	-2.090336	-8.606294	49.223940
46584	1.448694	-0.355001	9.728920	-0.016336	-0.018022	0.029875	1.000000	-0.000049	0.000015	0.000017	-2.090461	-8.606565	49.223335
46585	1.466233	-0.317175	9.687135	-0.028337	0.023709	-0.010154	1.000000	-0.000052	0.000015	0.000028	-2.091138	-8.606704	49.224384
46586	1.471532	-0.346736	9.705852	-0.005095	0.006639	0.010200	1.000000	-0.000056	0.000017	0.000003	-2.091749	-8.606772	49.223664
46587	1.471056	-0.347760	9.705887	-0.004575	0.005741	0.010201	1.000000	-0.000044	0.000030	0.000034	-2.091624	-8.605156	49.225309
46588	1.476227	-0.330715	9.668133	-0.009397	0.024326	-0.026946	1.000000	-0.000064	0.000011	0.000007	-2.093341	-8.605876	49.223738
46589	1.481551	-0.360191	9.686839	0.013856	0.007264	-0.006601	1.000000	-0.000034	0.000018	0.000027	-2.091878	-8.605667	49.224710
46590	1.451042	-0.374096	9.676156	0.006008	-0.023778	-0.021218	1.000000	-0.000055	0.000017	0.000021	-2.092817	-8.605710	49.224664
46591	1.469696	-0.351839	9.705946	-0.002508	0.002143	0.010203	1.000000	-0.000042	0.000012	0.000032	-2.092436	-8.606215	49.226153
46592	1.469422	-0.352798	9.705953	-0.001991	0.001252	0.010204	1.000000	-0.000049	0.000015	0.000017	-2.092596	-8.606428	49.224376
46593	1.480325	-0.364156	9.686878	0.015923	0.003681	-0.006602	1.000000	-0.000052	0.000015	0.000028	-2.093273	-8.606569	49.225427
46594	1.468661	-0.354802	9.705995	-0.000955	-0.000548	0.010204	1.000000	-0.000041	0.000031	0.000005	-2.092284	-8.605049	49.223034
46595	1.491764	-0.345335	9.682950	0.009772	0.025041	-0.009452	1.000000	-0.000054	0.000008	0.000011	-2.092930	-8.606099	49.222136
46596	1.455741	-0.377391	9.710006	0.007265	-0.025510	0.013050	1.000000	-0.000034	0.000018	0.000027	-2.091449	-8.605932	49.222937
46597	1.462138	-0.329130	9.687356	-0.022140	0.012939	-0.010118	1.000000	-0.000058	0.000008	0.000022	-2.092652	-8.606884	49.223271
46598	1.460835	-0.361247	9.672244	0.002950	-0.007794	-0.024083	1.000000	-0.000049	0.000015	0.000017	-2.092749	-8.607176	49.224075
46599	1.490705	-0.349246	9.682973	0.011842	0.021439	-0.009446	1.000000	-0.000046	0.000014	0.000007	-2.092312	-8.607513	49.222660
46600	1.479208	-0.339900	9.702070	-0.005033	0.017204	0.007365	1.000000	-0.000049	0.000015	0.000017	-2.092444	-8.607789	49.222408
46601	1.455415	-0.351376	9.725137	-0.014718	-0.010190	0.027012	1.000000	-0.000052	0.000015	0.000028	-2.093121	-8.607932	49.223459
46602	1.478548	-0.341858	9.702102	-0.003991	0.015414	0.007369	1.000000	-0.000037	0.000021	0.000002	-2.091610	-8.607528	49.220301
46603	1.471537	-0.345260	9.668340	-0.001648	0.010894	-0.026917	1.000000	-0.000049	0.000014	0.000035	-2.092037	-8.607805	49.222188
46604	1.465601	-0.364614	9.706094	0.004229	-0.009554	0.010198	1.000000	-0.000059	0.000017	0.000031	-2.093486	-8.607764	49.223692
46605	1.459553	-0.337059	9.687473	-0.017998	0.005755	-0.010102	1.000000	-0.000035	0.000029	0.000002	-2.091691	-8.606445	49.221643
46606	1.464688	-0.366525	9.706160	0.005275	-0.011355	0.010196	1.000000	-0.000059	0.000017	0.000031	-2.093123	-8.606350	49.222586
46607	1.469888	-0.349461	9.668440	0.000429	0.007300	-0.026914	1.000000	-0.000053	0.000025	0.000020	-2.093775	-8.605416	49.222683
46608	1.464893	-0.337609	9.721351	-0.018253	0.006666	0.024192	1.000000	-0.000037	0.000020	0.000020	-2.092570	-8.605112	49.222457
46609	1.469082	-0.351346	9.668494	0.001460	0.005507	-0.026913	1.000000	-0.000055	0.000017	0.000021	-2.093498	-8.605123	49.222673
46610	1.468839	-0.352482	9.668489	0.001980	0.004597	-0.026912	1.000000	-0.000054	0.000007	0.000029	-2.094381	-8.606271	49.225208
46611	1.446123	-0.332937	9.706684	-0.032262	-0.002991	0.006721	1.000000	-0.000043	0.000021	0.000024	-2.093976	-8.605703	49.225744
46612	1.474916	-0.351975	9.702293	0.001210	0.006392	0.007380	1.000000	-0.000051	0.000007	0.000000	-2.094019	-8.606891	49.224172
46613	1.456825	-0.345242	9.687595	-0.013844	-0.001447	-0.010094	1.000000	-0.000052	0.000014	0.000046	-2.095004	-8.607074	49.227293
46614	1.474431	-0.353984	9.702294	0.002253	0.004587	0.007380	1.000000	-0.000036	0.000011	0.000010	-2.093459	-8.607799	49.226333
46615	1.462953	-0.344617	9.721398	-0.014604	0.000338	0.024200	1.000000	-0.000052	0.000015	0.000028	-2.094137	-8.607945	49.227386
46616	1.486156	-0.335221	9.698375	-0.003881	0.025950	0.004585	1.000000	-0.000049	0.000015	0.000017	-2.094203	-8.608210	49.227388
46617	1.466834	-0.359385	9.668540	0.005612	-0.001694	-0.026913	1.000000	-0.000047	0.000023	0.000017	-2.094049	-8.607509	49.227090
46618	1.473130	-0.357832	9.702350	0.004333	0.000979	0.007381	1.000000	-0.000042	0.000013	0.000014	-2.093337	-8.608024	49.226710
46619	1.484070	-0.369063	9.683257	0.022225	0.003437	-0.009441	1.000000	-0.000049	0.000014	0.000035	-2.093765	-8.608305	49.228599
46620	1.484874	-0.339075	9.698438	-0.001802	0.022352	0.004594	1.000000	-0.000046	0.000013	0.000024	-2.093631	-8.608677	49.228211
46621	1.454456	-0.352840	9.687677	-0.009690	-0.008640	-0.010093	1.000000	-0.000039	0.000012	0.000003	-2.092387	-8.609246	49.226401
46622	1.442975	-0.343454	9.706786	-0.026541	-0.012893	0.006731	1.000000	-0.000049	0.000015	0.000017	-2.092510	-8.609478	49.225003
46623	1.471754	-0.362547	9.702384	0.006932	-0.003509	0.007379	1.000000	-0.000049	0.000015	0.000017	-2.092631	-8.609722	49.224823
46624	1.465900	-0.334999	9.683786	-0.015304	0.011851	-0.012870	1.000000	-0.000049	0.000015	0.000017	-2.092756	-8.609929	49.222837
46625	1.477807	-0.362113	9.736192	0.006193	-0.001746	0.041674	1.000000	-0.000049	0.000015	0.000017	-2.092877	-8.610172	49.222657
46626	1.441885	-0.347457	9.706806	-0.024466	-0.016495	0.006730	1.000000	-0.000048	0.000005	0.000025	-2.092972	-8.611592	49.225588
46627	1.470723	-0.366374	9.702397	0.009008	-0.007114	0.007375	1.000000	-0.000030	0.000018	0.000017	-2.090953	-8.611487	49.225332
46628	1.464796	-0.338795	9.683821	-0.013235	0.008237	-0.012863	1.000000	-0.000065	0.000020	0.000017	-2.092893	-8.611190	49.226376
46629	1.463300	-0.370842	9.668643	0.011821	-0.012463	-0.026926	1.000000	-0.000040	0.000021	0.000013	-2.091931	-8.610720	49.225681
46630	1.481891	-0.348608	9.698556	0.003389	0.013349	0.004610	1.000000	-0.000049	0.000015	0.000017	-2.092056	-8.610998	49.225493
46631	1.469189	-0.370376	9.702477	0.011081	-0.010722	0.007370	1.000000	-0.000053	0.000025	0.000020	-2.092708	-8.610069	49.225594
46632	1.486864	-0.332393	9.660894	-0.000971	0.031187	-0.032444	1.000000	-0.000048	0.000005	0.000025	-2.092804	-8.611412	49.226661
46633	1.450819	-0.364628	9.687786	-0.003472	-0.019428	-0.010104	1.000000	-0.000052	0.000015	0.000028	-2.093484	-8.611562	49.227715
46634	1.480561	-0.352645	9.698613	0.005457	0.009746	0.004613	1.000000	-0.000031	0.000026	0.000027	-2.091792	-8.610493	49.229032
46635	1.473422	-0.355889	9.664861	0.007739	0.005325	-0.029687	1.000000	-0.000050	0.000024	0.000009	-2.091888	-8.609659	49.227900
46636	1.479747	-0.354484	9.698671	0.006493	0.007953	0.004614	1.000000	-0.000051	0.000007	0.000000	-2.092002	-8.610811	49.224883
46637	1.468284	-0.345349	9.717778	-0.010346	0.003678	0.021447	1.000000	-0.000059	0.000017	0.000032	-2.093489	-8.610732	49.226336
46638	1.448855	-0.369533	9.687894	-0.000895	-0.023912	-0.010113	1.000000	-0.000044	0.000031	0.000016	-2.093028	-8.609076	49.224940
46639	1.478544	-0.357692	9.698736	0.008056	0.005259	0.004615	1.000000	-0.000055	0.000016	0.000021	-2.093958	-8.609092	49.225160
46640	1.465924	-0.379461	9.702620	0.015744	-0.018823	0.007351	1.000000	-0.000046	0.000013	0.000025	-2.093799	-8.609503	49.226407
46641	1.490254	-0.339069	9.694877	0.001927	0.026633	0.001881	1.000000	-0.000055	0.000016	0.000021	-2.094728	-8.609520	49.226627
46642	1.459769	-0.353040	9.684071	-0.005992	-0.004316	-0.012854	1.000000	-0.000052	0.000015	0.000028	-2.095452	-8.609639	49.225450
46643	1.459288	-0.354109	9.684104	-0.005474	-0.005212	-0.012854	1.000000	-0.000051	0.000033	0.000019	-2.095829	-8.607768	49.225436
46644	1.458777	-0.354997	9.684149	-0.004950	-0.006112	-0.012854	1.000000	-0.000034	0.000018	0.000027	-2.094324	-8.607566	49.225820
46645	1.470827	-0.335234	9.680291	-0.011597	0.016171	-0.015578	1.000000	-0.000058	0.000008	0.000022	-2.095530	-8.608527	49.226157
46646	1.464832	-0.354591	9.717966	-0.005658	-0.004413	0.021451	1.000000	-0.000040	0.000021	0.000013	-2.094587	-8.608062	49.224644
46647	1.457867	-0.357839	9.684181	-0.003399	-0.008798	-0.012856	1.000000	-0.000046	0.000013	0.000025	-2.094460	-8.608444	49.225303
46648	1.434059	-0.369234	9.707161	-0.013068	-0.036263	0.006699	1.000000	-0.000042	0.000013	0.000014	-2.093782	-8.608927	49.224026
46649	1.487504	-0.346819	9.695025	0.006085	0.019461	0.001896	1.000000	-0.000046	0.000013	0.000025	-2.093654	-8.609310	49.224684
46650	1.498524	-0.358079	9.675901	0.023950	0.021945	-0.014943	1.000000	-0.000051	0.000005	0.000036	-2.094337	-8.610593	49.227523
46651	1.469092	-0.340942	9.680355	-0.008494	0.010791	-0.015568	1.000000	-0.000044	0.000032	-0.000002	-2.093597	-8.608912	49.225043
46652	1.468559	-0.341872	9.680403	-0.007974	0.009885	-0.015566	1.000000	-0.000047	0.000022	0.000034	-2.093705	-8.608298	49.227666
46653	1.455728	-0.363431	9.684295	-0.000293	-0.014193	-0.012861	1.000000	-0.000035	0.000029	0.000002	-2.091909	-8.606981	49.225625
46654	1.467691	-0.343642	9.680472	-0.006937	0.008082	-0.015564	1.000000	-0.000058	0.000008	0.000022	-2.093065	-8.607998	49.227073
46655	1.466190	-0.375628	9.665214	0.018087	-0.012600	-0.029708	1.000000	-0.000044	0.000031	0.000016	-2.092634	-8.606359	49.226664
46656	1.466754	-0.345638	9.680543	-0.005896	0.006279	-0.015562	1.000000	-0.000050	0.000024	0.000009	-2.092663	-8.605564	49.226394
46657	1.471868	-0.375249	9.699088	0.017405	-0.010946	0.004598	1.000000	-0.000049	0.000015	0.000017	-2.092786	-8.605813	49.226217
46658	1.483830	-0.355535	9.695273	0.010771	0.011326	0.001905	1.000000	-0.000047	0.000022	0.000034	-2.092847	-8.605192	49.229100
46659	1.436570	-0.330495	9.685043	-0.037296	-0.006676	-0.016179	1.000000	-0.000049	0.000016	-0.000000	-2.092660	-8.605398	49.226855
46660	1.494371	-0.367725	9.676182	0.029148	0.012924	-0.014941	1.000000	-0.000052	0.000016	0.000010	-2.092989	-8.605567	49.227059
46661	1.453798	-0.340392	9.699750	-0.020636	-0.001631	0.001288	1.000000	-0.000046	0.000013	0.000025	-2.092863	-8.605952	49.227719
46662	1.471264	-0.349254	9.714457	-0.004489	0.004325	0.018754	1.000000	-0.000047	0.000023	0.000017	-2.092725	-8.605220	49.225614
46663	1.463174	-0.383467	9.665364	0.022238	-0.019789	-0.029728	1.000000	-0.000049	0.000015	0.000017	-2.092848	-8.605470	49.225438
46664	1.459288	-0.341003	9.733626	-0.020787	-0.000888	0.035604	1.000000	-0.000047	0.000023	0.000017	-2.092675	-8.604812	49.225640
46665	1.474746	-0.364766	9.661584	0.016111	0.001602	-0.032408	1.000000	-0.000055	0.000016	0.000021	-2.093606	-8.604834	49.225862
46666	1.481055	-0.363497	9.695402	0.014929	0.004130	0.001905	1.000000	-0.000042	0.000012	0.000032	-2.093192	-8.605356	49.227112
46667	1.464032	-0.325726	9.696041	-0.024676	0.016173	-0.001376	1.000000	-0.000062	0.000019	0.000007	-2.094621	-8.605106	49.225663
46668	1.474972	-0.336884	9.676924	-0.006826	0.018689	-0.018225	1.000000	-0.000033	0.000009	0.000018	-2.092885	-8.605961	49.225124
46669	1.462360	-0.358558	9.680738	0.000850	-0.005396	-0.015560	1.000000	-0.000059	0.000017	0.000032	-2.094374	-8.605891	49.226580
46670	1.469611	-0.326361	9.729910	-0.024807	0.016892	0.032947	1.000000	-0.000038	0.000029	0.000012	-2.093072	-8.604471	49.225329
46671	1.461396	-0.360399	9.680815	0.001896	-0.007192	-0.015561	1.000000	-0.000043	0.000021	0.000024	-2.092669	-8.603914	49.225874
46672	1.473281	-0.340682	9.677048	-0.004743	0.015100	-0.018218	1.000000	-0.000053	0.000025	0.000020	-2.093319	-8.603005	49.225644
46673	1.501948	-0.359833	9.672625	0.028742	0.024447	-0.017608	1.000000	-0.000046	0.000013	0.000025	-2.093193	-8.603393	49.226305
46674	1.449085	-0.353093	9.700001	-0.013876	-0.013311	0.001291	1.000000	-0.000036	0.000010	0.000028	-2.091959	-8.604177	49.227845
46675	1.471221	-0.374330	9.661755	0.021297	-0.007366	-0.032420	1.000000	-0.000043	0.000021	0.000024	-2.091557	-8.603621	49.228391
46676	1.478581	-0.342092	9.710932	-0.004363	0.014892	0.016106	1.000000	-0.000046	0.000013	0.000025	-2.091426	-8.604102	49.230835
46677	1.460471	-0.335157	9.696256	-0.019485	0.007177	-0.001354	1.000000	-0.000052	0.000016	0.000010	-2.091798	-8.604218	49.229825
46678	1.482506	-0.356676	9.658014	0.015678	0.013125	-0.035067	1.000000	-0.000060	0.000027	0.000024	-2.093261	-8.603118	49.230867
46679	1.477461	-0.345328	9.710987	-0.002808	0.012190	0.016110	1.000000	-0.000046	0.000013	0.000025	-2.093135	-8.603507	49.231529
46680	1.476073	-0.377145	9.695640	0.022193	-0.008476	0.001889	1.000000	-0.000042	0.000013	0.000014	-2.092426	-8.603985	49.230283
46681	1.459111	-0.339229	9.696320	-0.017411	0.003582	-0.001348	1.000000	-0.000049	0.000015	0.000017	-2.092549	-8.604238	49.230109
46682	1.458822	-0.340255	9.696327	-0.016894	0.002688	-0.001347	1.000000	-0.000049	0.000013	0.000035	-2.092997	-8.604537	49.231128
46683	1.480988	-0.361625	9.658063	0.018266	0.008652	-0.035067	1.000000	-0.000049	0.000016	-0.000000	-2.092810	-8.604744	49.228885
46684	1.469424	-0.352279	9.677220	0.001464	0.004309	-0.018206	1.000000	-0.000034	0.000018	0.000028	-2.091283	-8.604632	49.231647
46685	1.470138	-0.322199	9.692622	-0.022490	0.023175	-0.003967	1.000000	-0.000047	0.000024	-0.000001	-2.090820	-8.603896	49.229289
46686	1.480905	-0.333355	9.673522	-0.004648	0.025698	-0.020826	1.000000	-0.000050	0.000023	0.000027	-2.091146	-8.603167	49.231415
46687	1.474741	-0.352872	9.711130	0.001358	0.004968	0.016117	1.000000	-0.000049	0.000015	0.000017	-2.091270	-8.603421	49.231241
46688	1.467803	-0.356048	9.677328	0.003544	0.000708	-0.018206	1.000000	-0.000043	0.000021	0.000024	-2.090837	-8.602873	49.231267
46689	1.485267	-0.364897	9.692030	0.019717	0.006605	-0.000747	1.000000	-0.000042	0.000013	0.000014	-2.090153	-8.603355	49.230695
46690	1.467191	-0.357891	9.677353	0.004580	-0.001086	-0.018206	1.000000	-0.000049	0.000013	0.000035	-2.090574	-8.603666	49.232047
46691	1.450176	-0.319923	9.678075	-0.035023	0.010986	-0.021408	1.000000	-0.000037	0.000021	0.000003	-2.089054	-8.603296	49.230127
46692	1.472951	-0.357521	9.711231	0.003961	0.000456	0.016117	1.000000	-0.000060	0.000028	0.000006	-2.090157	-8.602162	49.229608
46693	1.479237	-0.356573	9.745053	0.002828	0.002899	0.050442	1.000000	-0.000063	0.000000	0.000033	-2.092201	-8.603985	49.231296
46694	1.465877	-0.362042	9.677397	0.006650	-0.004684	-0.018208	1.000000	-0.000040	0.000021	0.000013	-2.091235	-8.603542	49.230227
46695	1.460089	-0.334261	9.658991	-0.015642	0.010838	-0.038265	1.000000	-0.000049	0.000014	0.000017	-2.091358	-8.603797	49.230054
46696	1.483099	-0.371969	9.692093	0.023351	0.000298	-0.000752	1.000000	-0.000055	0.000008	0.000011	-2.091973	-8.604877	49.229090
46697	1.466120	-0.334182	9.692824	-0.016251	0.012375	-0.003936	1.000000	-0.000050	0.000023	0.000027	-2.092379	-8.604098	49.230037
46698	1.476963	-0.345390	9.673702	0.001581	0.014919	-0.020803	1.000000	-0.000052	0.000016	0.000010	-2.092700	-8.604236	49.228926
46699	1.452936	-0.356806	9.696616	-0.008061	-0.012626	-0.001343	1.000000	-0.000031	0.000026	0.000027	-2.090966	-8.603107	49.229798
46700	1.464871	-0.337052	9.692914	-0.014682	0.009672	-0.003930	1.000000	-0.000059	0.000017	0.000032	-2.092399	-8.603044	49.230712
46701	1.464627	-0.338165	9.692912	-0.014163	0.008775	-0.003928	1.000000	-0.000051	0.000007	0.000000	-2.092489	-8.604196	49.228585
46702	1.481057	-0.378043	9.692171	0.026474	-0.005104	-0.000762	1.000000	-0.000052	0.000016	0.000010	-2.092863	-8.604333	49.227232
46703	1.464026	-0.340160	9.692933	-0.013128	0.006980	-0.003926	1.000000	-0.000043	0.000021	0.000024	-2.092461	-8.603784	49.227782
46704	1.474821	-0.351248	9.673818	0.004694	0.009540	-0.020797	1.000000	-0.000047	0.000023	0.000017	-2.092314	-8.603098	49.226808
46705	1.450776	-0.362693	9.696721	-0.004946	-0.018015	-0.001350	1.000000	-0.000040	0.000021	0.000013	-2.091353	-8.602638	49.226124
46706	1.492999	-0.330082	9.703983	-0.003038	0.034248	0.010963	1.000000	-0.000039	0.000011	0.000021	-2.090376	-8.603274	49.226261
46707	1.480340	-0.351777	9.707708	0.004626	0.010146	0.013534	1.000000	-0.000056	0.000016	0.000021	-2.091308	-8.603303	49.226488
46708	1.449709	-0.365493	9.696775	-0.003390	-0.020723	-0.001355	1.000000	-0.000041	0.000030	0.000023	-2.090607	-8.601870	49.227670
46709	1.479475	-0.353850	9.707765	0.005661	0.008339	0.013535	1.000000	-0.000064	0.000011	0.000007	-2.092313	-8.602568	49.226339
46710	1.454711	-0.349123	9.659276	-0.007875	-0.002604	-0.038250	1.000000	-0.000048	0.000031	0.000027	-2.092430	-8.600854	49.226476
46711	1.478579	-0.356013	9.707822	0.006702	0.006540	0.013536	1.000000	-0.000052	0.000016	0.000010	-2.092803	-8.600974	49.225469
46712	1.478193	-0.357013	9.707844	0.007222	0.005629	0.013536	1.000000	-0.000047	0.000023	0.000017	-2.092602	-8.600341	49.225888
46713	1.460033	-0.349981	9.693186	-0.007939	-0.002016	-0.003918	1.000000	-0.000049	0.000014	0.000017	-2.092727	-8.600599	49.225717
46714	1.470862	-0.361235	9.674053	0.009877	0.000548	-0.020797	1.000000	-0.000060	0.000026	0.000024	-2.094154	-8.599482	49.226266
46715	1.459230	-0.352141	9.693228	-0.006900	-0.003816	-0.003917	1.000000	-0.000042	0.000013	0.000014	-2.093471	-8.599967	49.225697
46716	1.482633	-0.342339	9.670385	0.003773	0.021959	-0.023343	1.000000	-0.000033	0.000009	0.000018	-2.091701	-8.600837	49.225421
46717	1.476338	-0.361889	9.707946	0.009824	0.001124	0.013536	1.000000	-0.000061	0.000036	0.000016	-2.093137	-8.598615	49.224985
46718	1.463398	-0.383603	9.711680	0.017481	-0.022990	0.016076	1.000000	-0.000037	0.000019	0.000020	-2.091911	-8.598341	49.225605
46719	1.469969	-0.335021	9.689660	-0.011967	0.015793	-0.006456	1.000000	-0.000047	0.000023	0.000017	-2.091759	-8.597657	49.225321
46720	1.451449	-0.375319	9.730871	0.001237	-0.028260	0.032952	1.000000	-0.000048	0.000005	0.000025	-2.091883	-8.598952	49.224318
46721	1.468261	-0.367822	9.674200	0.013508	-0.005731	-0.020803	1.000000	-0.000047	0.000023	0.000017	-2.091731	-8.598268	49.224035
46722	1.450072	-0.360904	9.659541	-0.001666	-0.013356	-0.038256	1.000000	-0.000062	0.000018	0.000024	-2.093473	-8.598080	49.224064
46723	1.456247	-0.359762	9.693397	-0.002746	-0.011000	-0.003921	1.000000	-0.000030	0.000018	0.000017	-2.091457	-8.597989	49.223819
46724	1.498549	-0.327284	9.700734	-0.000808	0.041250	0.008479	1.000000	-0.000058	0.000008	0.000022	-2.092671	-8.598962	49.223412
46725	1.461404	-0.343253	9.655915	-0.007253	0.007175	-0.040783	1.000000	-0.000061	0.000036	0.000016	-2.094107	-8.596741	49.222978
46726	1.473929	-0.340060	9.723640	-0.009920	0.012753	0.027893	1.000000	-0.000034	0.000018	0.000028	-2.092630	-8.596610	49.224647
46727	1.478234	-0.353110	9.670672	0.009474	0.012099	-0.023330	1.000000	-0.000047	0.000023	0.000017	-2.092478	-8.595926	49.224364
46728	1.442906	-0.354511	9.712691	-0.017438	-0.018987	0.012961	1.000000	-0.000043	0.000021	0.000024	-2.092020	-8.595428	49.225538
46729	1.465067	-0.375618	9.674384	0.017647	-0.012916	-0.020816	1.000000	-0.000039	0.000011	0.000021	-2.091089	-8.596054	49.225805
46730	1.477303	-0.355772	9.670716	0.011032	0.009401	-0.023329	1.000000	-0.000045	0.000004	0.000015	-2.090674	-8.597477	49.224502
46731	1.454551	-0.336447	9.709049	-0.023013	0.001533	0.010450	1.000000	-0.000043	0.000021	0.000024	-2.090274	-8.596933	49.225056
46732	1.435364	-0.360134	9.678870	-0.013782	-0.025803	-0.021383	1.000000	-0.000045	0.000004	0.000015	-2.089856	-8.598385	49.224460
46733	1.476513	-0.358548	9.670735	0.012584	0.006712	-0.023328	1.000000	-0.000047	0.000022	0.000035	-2.090016	-8.597753	49.226248
46734	1.482638	-0.357582	9.704597	0.011532	0.009027	0.011012	1.000000	-0.000059	0.000018	0.000014	-2.091158	-8.597646	49.225051
46735	1.458023	-0.352670	9.656087	-0.002079	-0.001786	-0.040778	1.000000	-0.000049	0.000014	0.000017	-2.091283	-8.597907	49.224882
46736	1.486666	-0.371813	9.651617	0.031415	0.007499	-0.040221	1.000000	-0.000047	0.000023	0.000017	-2.091094	-8.597312	49.226269
46737	1.452528	-0.342578	9.709138	-0.019897	-0.003876	0.010456	1.000000	-0.000059	0.000017	0.000032	-2.092588	-8.597259	49.227733
46738	1.487190	-0.343223	9.667158	0.008036	0.025423	-0.025821	1.000000	-0.000051	0.000006	0.000018	-2.092981	-8.598525	49.228314
46739	1.475591	-0.334025	9.686348	-0.008721	0.021032	-0.008925	1.000000	-0.000038	0.000029	0.000013	-2.091744	-8.597126	49.227523
46740	1.469328	-0.353676	9.723851	-0.002631	0.000118	0.027906	1.000000	-0.000058	0.000008	0.000022	-2.092944	-8.598084	49.226540
46741	1.480172	-0.364849	9.704703	0.015162	0.002716	0.011011	1.000000	-0.000048	0.000032	0.000009	-2.092763	-8.596320	49.225312
46742	1.490880	-0.375931	9.685579	0.032951	0.005314	-0.005885	1.000000	-0.000047	0.000022	0.000035	-2.092927	-8.595717	49.226966
46743	1.443581	-0.350640	9.675441	-0.015228	-0.012459	-0.023886	1.000000	-0.000044	0.000031	0.000016	-2.092498	-8.594092	49.226574
46744	1.443038	-0.351590	9.675487	-0.014715	-0.013360	-0.023886	1.000000	-0.000050	0.000024	0.000010	-2.092584	-8.593317	49.225959
46745	1.484109	-0.349964	9.667389	0.011659	0.019150	-0.025810	1.000000	-0.000039	0.000011	0.000021	-2.091654	-8.593945	49.226228
46746	1.472579	-0.340847	9.686569	-0.005092	0.014752	-0.008911	1.000000	-0.000056	0.000016	0.000021	-2.092589	-8.593982	49.225792
46747	1.459698	-0.362604	9.690220	0.002554	-0.009364	-0.006441	1.000000	-0.000044	0.000030	0.000034	-2.092473	-8.592410	49.227470
46748	1.459118	-0.363423	9.690276	0.003066	-0.010263	-0.006442	1.000000	-0.000035	0.000029	0.000002	-2.090693	-8.591137	49.225416
46749	1.453304	-0.335625	9.672022	-0.019262	0.005385	-0.026353	1.000000	-0.000065	0.000020	0.000017	-2.092683	-8.590808	49.225211
46750	1.470589	-0.344734	9.686733	-0.003025	0.011159	-0.008905	1.000000	-0.000035	0.000028	0.000020	-2.091180	-8.589577	49.225038
46751	1.463657	-0.347618	9.652917	-0.000963	0.007100	-0.043251	1.000000	-0.000052	0.000016	0.000010	-2.091554	-8.589702	49.224035
46752	1.487607	-0.354733	9.701453	0.013738	0.016039	0.008543	1.000000	-0.000049	0.000014	0.000017	-2.091683	-8.589940	49.222462
46753	1.463573	-0.366314	9.724251	0.004120	-0.011592	0.027899	1.000000	-0.000043	0.000021	0.000024	-2.091284	-8.589400	49.223019
46754	1.456805	-0.369263	9.690404	0.006183	-0.015649	-0.006451	1.000000	-0.000048	0.000005	0.000025	-2.091399	-8.590743	49.223143
46755	1.438603	-0.362118	9.675759	-0.009025	-0.023209	-0.023898	1.000000	-0.000045	0.000041	0.000008	-2.090941	-8.588036	49.221806
46756	1.468294	-0.350553	9.686873	0.000097	0.005776	-0.008900	1.000000	-0.000058	0.000008	0.000022	-2.092122	-8.589035	49.221876
46757	1.450239	-0.343545	9.672204	-0.015113	-0.001780	-0.026344	1.000000	-0.000047	0.000022	0.000035	-2.092284	-8.588410	49.223668
46758	1.445228	-0.332652	9.725231	-0.033388	-0.003062	0.024911	1.000000	-0.000067	0.000003	0.000008	-2.094242	-8.590112	49.223219
46759	1.479989	-0.333259	9.683272	-0.005473	0.026301	-0.011337	1.000000	-0.000049	0.000014	0.000017	-2.094368	-8.590377	49.223052
46760	1.461325	-0.373729	9.724307	0.007766	-0.017913	0.027887	1.000000	-0.000052	0.000016	0.000010	-2.094727	-8.590508	49.221466
46761	1.484654	-0.364007	9.701562	0.018421	0.007933	0.008545	1.000000	-0.000037	0.000019	0.000020	-2.093520	-8.590196	49.221625
46762	1.436334	-0.369285	9.675825	-0.005409	-0.029497	-0.023912	1.000000	-0.000040	0.000021	0.000013	-2.092546	-8.589787	49.221612
46763	1.467197	-0.326958	9.702557	-0.020655	0.019185	0.005581	1.000000	-0.000063	0.000028	0.000017	-2.094260	-8.588517	49.221297
46764	1.465543	-0.358779	9.686988	0.004243	-0.001419	-0.008899	1.000000	-0.000040	0.000021	0.000013	-2.093271	-8.588075	49.220183
46765	1.465251	-0.359780	9.686995	0.004761	-0.002315	-0.008900	1.000000	-0.000058	0.000008	0.000022	-2.094483	-8.589059	49.220527
46766	1.476150	-0.370802	9.667831	0.022533	0.000310	-0.025810	1.000000	-0.000035	0.000028	0.000020	-2.092977	-8.587823	49.220447
46767	1.482200	-0.369745	9.701720	0.021537	0.002527	0.008541	1.000000	-0.000052	0.000016	0.000010	-2.093351	-8.587950	49.219445
46768	1.446508	-0.354519	9.672367	-0.009417	-0.011649	-0.026344	1.000000	-0.000048	0.000005	0.000025	-2.093467	-8.589280	49.219128
46769	1.463900	-0.363580	9.687058	0.006842	-0.005908	-0.008903	1.000000	-0.000041	0.000029	0.000023	-2.092791	-8.587800	49.219576
46770	1.469811	-0.362446	9.720972	0.005856	-0.003707	0.025450	1.000000	-0.000035	0.000028	0.000020	-2.091271	-8.586557	49.219572
46771	1.462893	-0.365311	9.687145	0.007881	-0.007706	-0.008905	1.000000	-0.000056	0.000016	0.000021	-2.092207	-8.586599	49.219805
46772	1.463734	-0.335732	9.702781	-0.015959	0.011089	0.005602	1.000000	-0.000059	0.000017	0.000032	-2.093656	-8.586549	49.220606
46773	1.444393	-0.359271	9.672507	-0.006822	-0.016131	-0.026348	1.000000	-0.000028	0.000026	0.000016	-2.091363	-8.585521	49.220256
46774	1.450485	-0.358350	9.706387	-0.007799	-0.013940	0.008006	1.000000	-0.000071	0.000013	0.000011	-2.093838	-8.586001	49.218982
46775	1.492745	-0.326261	9.713974	-0.005764	0.038248	0.020650	1.000000	-0.000047	0.000023	0.000017	-2.093688	-8.585325	49.218706
46776	1.462311	-0.339738	9.702856	-0.013876	0.007489	0.005609	1.000000	-0.000041	0.000003	0.000022	-2.093009	-8.586929	49.219317
46777	1.462131	-0.340673	9.702850	-0.013357	0.006592	0.005610	1.000000	-0.000049	0.000014	0.000017	-2.093136	-8.587197	49.219151
46778	1.471693	-0.382389	9.668059	0.028765	-0.010460	-0.025832	1.000000	-0.000039	0.000038	0.000023	-2.092167	-8.584782	49.219108
46779	1.484819	-0.331772	9.680214	-0.002189	0.031568	-0.013693	1.000000	-0.000042	0.000013	0.000014	-2.091485	-8.585275	49.218544
46780	1.465697	-0.355397	9.649885	0.006930	0.004359	-0.045662	1.000000	-0.000058	0.000008	0.000022	-2.092677	-8.586308	49.219517
46781	1.460795	-0.344458	9.702918	-0.011281	0.002991	0.005615	1.000000	-0.000038	0.000001	0.000029	-2.091778	-8.588028	49.220734
46782	1.455241	-0.316533	9.684722	-0.034522	0.017370	-0.014205	1.000000	-0.000053	0.000026	0.000002	-2.090902	-8.596501	49.209604
46783	1.471371	-0.356524	9.683757	0.006099	0.003385	-0.011303	1.000000	-0.000056	0.000016	0.000021	-2.091834	-8.596571	49.209833
46784	1.459860	-0.347643	9.702945	-0.010625	-0.001067	0.005616	1.000000	-0.000058	0.000008	0.000022	-2.093021	-8.597610	49.210821
46785	1.459518	-0.348803	9.702955	-0.010109	-0.001969	0.005616	1.000000	-0.000056	0.000026	0.000013	-2.093922	-8.596596	49.210105
46786	1.487926	-0.368095	9.698479	0.023412	0.007272	0.006137	1.000000	-0.000051	0.000033	0.000020	-2.094251	-8.594773	49.209891
46787	1.464588	-0.331950	9.665638	-0.014699	0.016415	-0.031109	1.000000	-0.000035	0.000001	0.000018	-2.092788	-8.596605	49.209867
46788	1.480953	-0.371740	9.664625	0.025922	0.002422	-0.028225	1.000000	-0.000052	0.000016	0.000010	-2.093140	-8.596774	49.209236
46789	1.469238	-0.362659	9.683853	0.009201	-0.002030	-0.011305	1.000000	-0.000041	0.000029	0.000023	-2.092461	-8.595325	49.209682
46790	1.446338	-0.343572	9.722265	-0.024750	-0.010039	0.022538	1.000000	-0.000055	0.000008	0.000011	-2.093085	-8.596411	49.208178
46791	1.457312	-0.354606	9.703076	-0.006998	-0.007386	0.005616	1.000000	-0.000043	0.000021	0.000024	-2.092684	-8.595905	49.208734
46792	1.468291	-0.365664	9.683884	0.010758	-0.004729	-0.011307	1.000000	-0.000055	0.000006	0.000029	-2.093632	-8.597024	49.208742
46793	1.468060	-0.366755	9.683877	0.011273	-0.005629	-0.011308	1.000000	-0.000052	0.000016	0.000010	-2.094003	-8.597180	49.207737
46794	1.439958	-0.318889	9.704111	-0.045547	0.003007	0.002753	1.000000	-0.000052	0.000015	0.000028	-2.094670	-8.597411	49.209336
46795	1.490998	-0.358216	9.661216	0.022432	0.019366	-0.030581	1.000000	-0.000051	0.000033	0.000020	-2.095047	-8.595595	49.209348
46796	1.479202	-0.349123	9.680463	0.005714	0.014902	-0.013655	1.000000	-0.000040	0.000021	0.000013	-2.094079	-8.595200	49.209176
46797	1.467635	-0.339851	9.699683	-0.011000	0.010440	0.003272	1.000000	-0.000033	0.000009	0.000018	-2.092339	-8.596090	49.209044
46798	1.448515	-0.363411	9.669301	-0.001915	-0.016708	-0.028753	1.000000	-0.000068	0.000011	0.000018	-2.094582	-8.596686	49.207353
46799	1.467084	-0.342036	9.699689	-0.009958	0.008643	0.003275	1.000000	-0.000047	0.000023	0.000017	-2.094429	-8.596041	49.207075
46800	1.460286	-0.344772	9.665840	-0.007984	0.004731	-0.031089	1.000000	-0.000042	0.000013	0.000014	-2.093704	-8.596575	49.206588
46801	1.477650	-0.353873	9.680528	0.008306	0.010401	-0.013651	1.000000	-0.000047	0.000023	0.000017	-2.093551	-8.595929	49.206310
46802	1.478408	-0.324089	9.696281	-0.015512	0.029171	0.000951	1.000000	-0.000043	0.000021	0.000024	-2.093157	-8.595470	49.208056
46803	1.435390	-0.358320	9.688597	-0.016570	-0.024780	-0.011832	1.000000	-0.000056	0.000016	0.000021	-2.094091	-8.595544	49.208287
46804	1.465269	-0.346867	9.699792	-0.007375	0.004119	0.003280	1.000000	-0.000046	0.000013	0.000025	-2.093930	-8.596007	49.209557
46805	1.482762	-0.356142	9.714453	0.008920	0.009778	0.020717	1.000000	-0.000058	0.000008	0.000022	-2.095141	-8.597025	49.209897
46806	1.464774	-0.348920	9.699793	-0.006335	0.002317	0.003282	1.000000	-0.000037	0.000019	0.000020	-2.093903	-8.596718	49.209388
46807	1.456807	-0.382298	9.650203	0.019943	-0.021237	-0.045702	1.000000	-0.000046	0.000013	0.000025	-2.093781	-8.597159	49.210056
46808	1.470219	-0.331797	9.662475	-0.010959	0.020773	-0.033398	1.000000	-0.000042	0.000013	0.000014	-2.093053	-8.597697	49.209719
46809	1.475253	-0.361683	9.680605	0.012438	0.003183	-0.013650	1.000000	-0.000055	0.000008	0.000011	-2.093703	-8.598798	49.208824
46810	1.476264	-0.331933	9.696342	-0.011363	0.021943	0.000975	1.000000	-0.000039	0.000011	0.000021	-2.092736	-8.599495	49.209636
46811	1.481147	-0.361759	9.714492	0.012037	0.004346	0.020718	1.000000	-0.000050	0.000024	0.000010	-2.092830	-8.598709	49.208524
46812	1.456684	-0.356419	9.665961	-0.001801	-0.006077	-0.031086	1.000000	-0.000058	0.000008	0.000022	-2.094023	-8.599752	49.209198
46813	1.475289	-0.335032	9.696384	-0.009814	0.019235	0.000983	1.000000	-0.000047	0.000021	0.000035	-2.094185	-8.599169	49.210993
46814	1.473640	-0.366712	9.680661	0.015020	-0.001336	-0.013653	1.000000	-0.000047	0.000023	0.000017	-2.093989	-8.598540	49.210808
46815	1.473270	-0.367690	9.680680	0.015535	-0.002237	-0.013654	1.000000	-0.000049	0.000014	0.000017	-2.094114	-8.598841	49.210641
46816	1.449233	-0.379394	9.703349	0.005932	-0.029974	0.005574	1.000000	-0.000049	0.000014	0.000017	-2.094222	-8.599167	49.210799
46817	1.467418	-0.340650	9.662593	-0.006322	0.012668	-0.033380	1.000000	-0.000037	0.000019	0.000020	-2.093013	-8.598891	49.210959
46818	1.484793	-0.349745	9.677275	0.009986	0.018310	-0.015945	1.000000	-0.000046	0.000013	0.000025	-2.092907	-8.599312	49.210895
46819	1.460783	-0.361364	9.699939	0.000385	-0.009426	0.003279	1.000000	-0.000042	0.000012	0.000014	-2.092223	-8.599838	49.210328
46820	1.460486	-0.362413	9.699945	0.000906	-0.010325	0.003278	1.000000	-0.000059	0.000016	0.000032	-2.093704	-8.599802	49.211236
46821	1.477917	-0.371609	9.714612	0.017219	-0.004697	0.020710	1.000000	-0.000033	0.000009	0.000018	-2.091965	-8.600695	49.211105
46822	1.490048	-0.351822	9.711194	0.010643	0.017644	0.018431	1.000000	-0.000056	0.000026	0.000013	-2.092843	-8.599704	49.210505
46823	1.454273	-0.336344	9.681891	-0.020436	0.003691	-0.016432	1.000000	-0.000042	0.000012	0.000014	-2.092159	-8.600230	49.209939
46824	1.459134	-0.366192	9.700006	0.002980	-0.013934	0.003274	1.000000	-0.000047	0.000023	0.000017	-2.091975	-8.599551	49.208555
46825	1.476451	-0.375463	9.714687	0.019296	-0.008314	0.020704	1.000000	-0.000052	0.000015	0.000028	-2.092662	-8.599772	49.209625
46826	1.453179	-0.339253	9.681954	-0.018882	0.000996	-0.016428	1.000000	-0.000043	0.000022	0.000006	-2.091953	-8.599210	49.208121
46827	1.481924	-0.358525	9.677394	0.014641	0.010211	-0.015939	1.000000	-0.000060	-0.000000	0.000022	-2.093443	-8.601176	49.208570
46828	1.488095	-0.357957	9.711269	0.013759	0.012229	0.018436	1.000000	-0.000053	0.000024	0.000020	-2.094086	-8.600295	49.208180
46829	1.470064	-0.350596	9.696627	-0.001528	0.004812	0.001005	1.000000	-0.000033	0.000009	0.000018	-2.092347	-8.601189	49.208049
46830	1.469714	-0.351506	9.696648	-0.001008	0.003908	0.001006	1.000000	-0.000056	0.000026	0.000013	-2.093222	-8.600182	49.206873
46831	1.469332	-0.352506	9.696669	-0.000492	0.003007	0.001006	1.000000	-0.000042	0.000012	0.000014	-2.092539	-8.600709	49.206308
46832	1.473842	-0.365104	9.643585	0.018626	0.002798	-0.050316	1.000000	-0.000047	0.000023	0.000017	-2.092330	-8.600066	49.205651
46833	1.457337	-0.344423	9.715931	-0.016653	-0.002405	0.017953	1.000000	-0.000049	0.000014	0.000017	-2.092455	-8.600370	49.205486
46834	1.479480	-0.365480	9.677508	0.018263	0.003907	-0.015941	1.000000	-0.000060	0.000026	0.000024	-2.093943	-8.599263	49.205825
46835	1.461356	-0.358149	9.662879	0.002967	-0.003494	-0.033371	1.000000	-0.000030	0.000017	0.000017	-2.091926	-8.599214	49.205588
46836	1.462317	-0.328394	9.678705	-0.020807	0.015254	-0.018665	1.000000	-0.000058	0.000008	0.000022	-2.093143	-8.600257	49.206136
46837	1.479603	-0.337728	9.693389	-0.004478	0.020852	-0.001234	1.000000	-0.000048	0.000032	0.000009	-2.092959	-8.598530	49.204921
46838	1.479166	-0.338663	9.693423	-0.003964	0.019945	-0.001232	1.000000	-0.000043	0.000011	0.000032	-2.092576	-8.599160	49.206827
46839	1.477712	-0.370194	9.677599	0.020835	-0.000601	-0.015945	1.000000	-0.000039	0.000011	0.000021	-2.091647	-8.599831	49.207097
46840	1.449636	-0.322186	9.698015	-0.035940	0.008034	-0.001705	1.000000	-0.000047	0.000023	0.000017	-2.091464	-8.599207	49.206482
46841	1.465708	-0.362166	9.696862	0.004673	-0.006020	0.001004	1.000000	-0.000056	0.000016	0.000021	-2.092399	-8.599288	49.206718
46842	1.447632	-0.354982	9.682221	-0.010628	-0.013418	-0.016425	1.000000	-0.000050	0.000023	0.000028	-2.092766	-8.598602	49.208010
46843	1.466178	-0.333565	9.712740	-0.018570	0.011811	0.015730	1.000000	-0.000042	0.000012	0.000014	-2.092083	-8.599130	49.207445
46844	1.465760	-0.334433	9.712774	-0.018056	0.010902	0.015732	1.000000	-0.000041	0.000029	0.000023	-2.091395	-8.597730	49.208811
46845	1.470153	-0.347152	9.659694	0.001021	0.010754	-0.035600	1.000000	-0.000065	0.000019	0.000017	-2.093385	-8.597444	49.208611
46846	1.446063	-0.358960	9.682309	-0.008563	-0.017019	-0.016428	1.000000	-0.000039	0.000011	0.000021	-2.092432	-8.598076	49.207899
46847	1.475999	-0.347444	9.693595	0.000693	0.011819	-0.001218	1.000000	-0.000046	0.000013	0.000025	-2.092312	-8.598526	49.208570
46848	1.456850	-0.370690	9.663086	0.009657	-0.015190	-0.033386	1.000000	-0.000039	0.000011	0.000021	-2.091399	-8.599165	49.207913
46849	1.464136	-0.339275	9.712851	-0.015460	0.006401	0.015740	1.000000	-0.000047	0.000023	0.000017	-2.091247	-8.598527	49.207643
46850	1.475119	-0.350275	9.693627	0.002244	0.009114	-0.001215	1.000000	-0.000055	0.000006	0.000029	-2.092183	-8.599732	49.209213
46851	1.468734	-0.370252	9.730891	0.008484	-0.012202	0.035373	1.000000	-0.000037	0.000020	0.000003	-2.090659	-8.599397	49.207307
46852	1.475710	-0.321547	9.709523	-0.020985	0.026943	0.013542	1.000000	-0.000059	0.000016	0.000032	-2.092124	-8.599405	49.208483
46853	1.461754	-0.373953	9.697011	0.010877	-0.016854	0.000986	1.000000	-0.000045	0.000004	0.000015	-2.091719	-8.600878	49.208025
46854	1.486579	-0.333570	9.690282	-0.002765	0.028762	-0.003410	1.000000	-0.000052	0.000015	0.000028	-2.092377	-8.601123	49.209557
46855	1.473679	-0.355310	9.693663	0.004831	0.004599	-0.001213	1.000000	-0.000050	0.000024	0.000010	-2.092471	-8.600342	49.208452
46856	1.473317	-0.356241	9.693684	0.005348	0.003695	-0.001213	1.000000	-0.000042	0.000012	0.000014	-2.091772	-8.600881	49.208141
46857	1.461827	-0.347328	9.712914	-0.011317	-0.000838	0.015748	1.000000	-0.000058	0.000008	0.000022	-2.092987	-8.601909	49.208484
46858	1.485346	-0.337554	9.690333	-0.000693	0.025147	-0.003400	1.000000	-0.000037	0.000019	0.000021	-2.091719	-8.601663	49.209122
46859	1.461266	-0.349340	9.712926	-0.010278	-0.002652	0.015749	1.000000	-0.000061	0.000008	0.000032	-2.093497	-8.602612	49.210702
46860	1.454499	-0.352032	9.679052	-0.008421	-0.006381	-0.018637	1.000000	-0.000041	0.000029	0.000023	-2.092785	-8.601224	49.211725
46861	1.447878	-0.372202	9.716321	-0.002167	-0.027730	0.017928	1.000000	-0.000065	0.000019	0.000017	-2.094776	-8.600941	49.211528
46862	1.472534	-0.331819	9.709660	-0.015803	0.017887	0.013572	1.000000	-0.000034	0.000019	0.000010	-2.092963	-8.600781	49.210613
46863	1.488728	-0.371561	9.708421	0.024809	0.003807	0.016208	1.000000	-0.000045	0.000004	0.000015	-2.092559	-8.602256	49.210156
46864	1.470874	-0.364194	9.693759	0.009483	-0.003542	-0.001216	1.000000	-0.000049	0.000014	0.000018	-2.092686	-8.602570	49.210081
46865	1.310865	-0.372552	9.231719	-0.030319	-0.087096	-0.481381	1.000000	-0.000131	0.000012	0.000033	-2.102479	-8.603046	49.211735
46866	1.592353	-0.359278	10.039478	0.039002	0.062423	0.358368	1.000000	-0.000191	0.000103	0.000035	-2.119108	-8.593198	49.214187
46867	1.539027	-0.468149	9.878753	0.107498	-0.035465	0.195545	1.000000	0.000206	-0.000075	0.000013	-2.089930	-8.603757	49.213845
46868	1.260494	-0.544297	9.073046	0.086267	-0.223063	-0.639462	1.000000	-0.000221	0.000059	0.000021	-2.109763	-8.598872	49.213277
46869	1.654689	-0.159244	10.281998	-0.101385	0.218192	0.600043	1.000000	0.000012	0.000004	0.000021	-2.102963	-8.600378	49.213547
46870	1.366343	-0.345546	9.465718	-0.044199	-0.048628	-0.242850	1.000000	0.000037	-0.000022	0.000015	-2.093186	-8.604838	49.213517
46871	1.448159	-0.272899	9.693078	-0.074161	0.039773	-0.008591	1.000000	-0.000082	0.000061	0.000011	-2.096982	-8.599823	49.212431
46872	1.595204	-0.204869	9.961127	-0.063611	0.170686	0.275797	1.000000	0.000012	0.000004	0.000021	-2.090152	-8.601328	49.212253
46873	1.418225	-0.372137	9.509776	0.004867	-0.031981	-0.190596	1.000000	-0.000045	0.000003	0.000032	-2.090066	-8.602872	49.213867
46874	1.450975	-0.334843	9.695203	-0.025443	0.000613	-0.003826	1.000000	-0.000073	0.000032	-0.000005	-2.092512	-8.601230	49.211268
46875	1.516165	-0.357618	9.807004	0.020009	0.024524	0.117215	1.000000	-0.000012	0.000019	0.000034	-2.088671	-8.600902	49.213036
46876	1.463906	-0.419307	9.590987	0.059710	-0.035880	-0.101816	1.000000	-0.000083	0.000007	0.000026	-2.092792	-8.602085	49.214063
46877	1.453681	-0.397673	9.697281	0.023273	-0.038558	0.000903	1.000000	-0.000048	0.000032	0.000009	-2.092607	-8.600363	49.212857
46878	1.463236	-0.287700	9.707930	-0.054679	0.039878	0.008878	1.000000	-0.000045	0.000003	0.000032	-2.092478	-8.601932	49.214942
46879	1.454192	-0.351429	9.642132	-0.004388	-0.003003	-0.055185	1.000000	-0.000049	0.000014	0.000018	-2.092606	-8.602243	49.214781
46880	1.455358	-0.339403	9.729186	-0.023645	-0.002059	0.030573	1.000000	-0.000046	0.000013	0.000025	-2.092458	-8.602743	49.215584
46881	1.466307	-0.350200	9.709956	-0.005966	0.000699	0.013599	1.000000	-0.000040	0.000021	0.000013	-2.091497	-8.602333	49.214917
46882	1.454634	-0.341073	9.729236	-0.022605	-0.003870	0.030575	1.000000	-0.000034	0.000018	0.000028	-2.090009	-8.602216	49.215484
46883	1.459168	-0.353342	9.676115	-0.003630	-0.003854	-0.020793	1.000000	-0.000043	0.000021	0.000024	-2.089612	-8.601729	49.216054
46884	1.446309	-0.375119	9.679412	0.003955	-0.028028	-0.018672	1.000000	-0.000064	0.000011	0.000007	-2.091303	-8.602482	49.214874
46885	1.604094	-0.214258	10.029278	-0.059245	0.164100	0.344822	1.000000	-0.000011	-0.000017	0.000040	-2.087523	-8.606299	49.217496
46886	1.276517	-0.342041	9.252475	-0.077280	-0.095598	-0.467118	1.000000	-0.000091	0.000055	0.000015	-2.092364	-8.602001	49.216532
46887	1.542989	-0.276716	10.148829	-0.066785	0.067271	0.456058	1.000000	-0.000046	0.000013	0.000025	-2.092246	-8.602458	49.217207
46888	1.448836	-0.403331	9.539194	0.044201	-0.032488	-0.155824	1.000000	-0.000008	-0.000018	0.000030	-2.087849	-8.606379	49.218614
46889	1.423669	-0.445872	9.545711	0.058842	-0.079922	-0.151611	1.000000	-0.000107	0.000023	0.000021	-2.094658	-8.605640	49.218859
46890	1.454111	-0.354288	9.887393	-0.033674	-0.027165	0.187244	1.000000	-0.000039	0.000011	0.000021	-2.093712	-8.606291	49.218248
46891	1.454567	-0.387518	9.501945	0.039945	-0.014595	-0.192340	1.000000	-0.000034	-0.000008	0.000008	-2.091970	-8.609158	49.217094
46892	1.492873	-0.397033	9.776405	0.037268	-0.017025	0.084925	1.000000	-0.000051	0.000005	0.000036	-2.092686	-8.610510	49.219766
46893	1.481209	-0.370544	9.724577	0.016129	-0.003762	0.031011	1.000000	-0.000052	0.000016	0.000010	-2.093059	-8.610676	49.218771
46894	1.497323	-0.392754	9.652136	0.052234	-0.000032	-0.037350	1.000000	-0.000041	-0.000006	0.000012	-2.092059	-8.613327	49.217881
46895	1.475766	-0.325622	9.635554	-0.010280	0.029174	-0.059387	1.000000	-0.000049	0.000014	0.000018	-2.092187	-8.613640	49.217722
46896	1.462898	-0.347393	9.638828	-0.002704	0.005002	-0.057293	1.000000	-0.000059	0.000018	0.000014	-2.093373	-8.613593	49.217115
46897	1.486542	-0.355205	9.687397	0.012415	0.013188	-0.005481	1.000000	-0.000030	0.000017	0.000017	-2.091357	-8.613553	49.216885
46898	1.503608	-0.346726	9.631007	0.024283	0.036540	-0.058948	1.000000	-0.000053	0.000026	0.000003	-2.091674	-8.612672	49.215796
46899	1.503343	-0.365878	9.702085	0.029325	0.017756	0.011934	1.000000	-0.000087	0.000015	0.000046	-2.096694	-8.612743	49.218983
46900	1.493064	-0.326697	9.737352	-0.011515	0.032756	0.043823	1.000000	-0.000033	0.000009	0.000018	-2.094941	-8.613687	49.219272
46901	1.424468	-0.366606	9.593616	-0.007696	-0.031831	-0.107024	1.000000	-0.000067	0.000036	0.000038	-2.097504	-8.611372	49.221346
46902	1.485719	-0.348139	9.774603	-0.004679	0.010351	0.080305	1.000000	-0.000044	0.000031	0.000016	-2.097071	-8.609817	49.221395
46903	1.472513	-0.351987	9.706834	-0.001637	0.004078	0.011507	1.000000	-0.000043	0.000021	0.000024	-2.096675	-8.609335	49.221969
46904	1.451998	-0.405628	9.660161	0.031402	-0.042379	-0.035737	1.000000	-0.000046	0.000013	0.000025	-2.096537	-8.609838	49.223321
46905	1.444147	-0.305113	9.727520	-0.057836	0.011799	0.026003	1.000000	-0.000053	0.000024	0.000020	-2.097195	-8.608988	49.223461
46906	1.465113	-0.374160	9.744050	0.005712	-0.019248	0.047975	1.000000	-0.000043	0.000022	0.000006	-2.096484	-8.608483	49.222949
46907	1.493598	-0.375492	9.668392	0.034703	0.007842	-0.022469	1.000000	-0.000036	0.000009	0.000028	-2.095312	-8.609314	49.224061
46908	1.477009	-0.337586	9.669780	-0.004866	0.020171	-0.024954	1.000000	-0.000071	0.000014	-0.000007	-2.097506	-8.609735	49.220675
46909	1.459068	-0.348067	9.726211	-0.015678	-0.005039	0.028498	1.000000	-0.000041	0.000029	0.000024	-2.096830	-8.608309	49.221145
46910	1.459818	-0.300587	9.671238	-0.043919	0.031596	-0.027426	1.000000	-0.000042	0.000012	0.000014	-2.096110	-8.608864	49.220598
46911	1.463340	-0.361172	9.673070	0.003743	-0.005812	-0.022894	1.000000	-0.000049	0.000014	0.000018	-2.096238	-8.609180	49.220440
46912	1.464400	-0.331699	9.689110	-0.019934	0.012867	-0.007954	1.000000	-0.000055	0.000006	0.000029	-2.097182	-8.610375	49.221849
46913	1.457854	-0.334201	9.655195	-0.018177	0.009317	-0.042355	1.000000	-0.000049	0.000014	0.000018	-2.097311	-8.610691	49.221692
46914	1.440040	-0.344596	9.711602	-0.028966	-0.015917	0.011089	1.000000	-0.000049	0.000014	0.000018	-2.097370	-8.610967	49.220235
46915	1.463620	-0.334801	9.689122	-0.018372	0.010165	-0.007948	1.000000	-0.000049	0.000013	0.000035	-2.097818	-8.611356	49.222150
46916	1.457136	-0.355226	9.726241	-0.012036	-0.011382	0.028498	1.000000	-0.000064	0.000011	0.000007	-2.099504	-8.612125	49.221373
46917	1.458087	-0.307955	9.671267	-0.040294	0.025301	-0.027392	1.000000	-0.000046	0.000013	0.000025	-2.099388	-8.612589	49.222051
46918	1.438994	-0.348933	9.711602	-0.026895	-0.019530	0.011088	1.000000	-0.000052	0.000014	0.000028	-2.100054	-8.612820	49.222754
46919	1.467513	-0.368324	9.706985	0.006652	-0.010387	0.011501	1.000000	-0.000053	0.000024	0.000021	-2.100713	-8.611972	49.222896
46920	1.460861	-0.370867	9.673078	0.008402	-0.013924	-0.022905	1.000000	-0.000058	0.000008	0.000022	-2.101885	-8.613023	49.223239
46921	1.473203	-0.351326	9.669871	0.001862	0.008461	-0.024936	1.000000	-0.000052	0.000014	0.000028	-2.102579	-8.613266	49.224319
46922	1.477897	-0.381365	9.687725	0.025341	-0.009403	-0.005501	1.000000	-0.000037	0.000020	0.000003	-2.100978	-8.612970	49.222560
46923	1.496460	-0.360182	9.718461	0.017580	0.015601	0.026879	1.000000	-0.000049	0.000013	0.000035	-2.101427	-8.613361	49.224476
46924	1.478476	-0.352709	9.703844	0.002195	0.008367	0.009472	1.000000	-0.000047	0.000024	-0.000001	-2.100941	-8.612656	49.222274
46925	1.460426	-0.345114	9.689242	-0.013194	0.001138	-0.007935	1.000000	-0.000040	0.000021	0.000013	-2.099981	-8.612252	49.221614
46926	1.466491	-0.344643	9.723163	-0.013891	0.002842	0.026473	1.000000	-0.000048	0.000004	0.000025	-2.100101	-8.613675	49.222282
46927	1.483930	-0.336212	9.666764	-0.002086	0.026335	-0.026947	1.000000	-0.000051	0.000006	0.000018	-2.100510	-8.614937	49.222229
46928	1.476176	-0.387057	9.687761	0.028444	-0.014828	-0.005516	1.000000	-0.000049	0.000014	0.000018	-2.100588	-8.615301	49.222608
46929	1.482243	-0.368754	9.650655	0.023120	0.004958	-0.041935	1.000000	-0.000048	0.000004	0.000025	-2.100752	-8.616711	49.223390
46930	1.500961	-0.347687	9.681383	0.015375	0.029935	-0.009534	1.000000	-0.000046	0.000013	0.000025	-2.100589	-8.617211	49.224543
46931	1.500460	-0.348578	9.681429	0.015892	0.029035	-0.009532	1.000000	-0.000039	0.000037	0.000023	-2.099635	-8.614847	49.224916
46932	1.458494	-0.351998	9.689285	-0.009582	-0.005198	-0.007932	1.000000	-0.000064	0.000011	0.000007	-2.101342	-8.615659	49.224939
46933	1.486952	-0.371257	9.684670	0.023967	0.003937	-0.007530	1.000000	-0.000029	0.000034	0.000027	-2.099334	-8.613664	49.225745
46934	1.468695	-0.363606	9.670103	0.008573	-0.003273	-0.024936	1.000000	-0.000048	0.000031	0.000027	-2.099447	-8.611999	49.226154
46935	1.504679	-0.351011	9.715534	0.016755	0.028006	0.024884	1.000000	-0.000043	0.000021	0.000024	-2.099053	-8.611523	49.226732
46936	1.473970	-0.364125	9.704108	0.008403	-0.002499	0.009472	1.000000	-0.000044	0.000031	0.000016	-2.098603	-8.609987	49.227049
46937	1.467076	-0.366312	9.670246	0.010117	-0.005976	-0.024939	1.000000	-0.000038	0.000029	0.000013	-2.097364	-8.608641	49.226289
46938	1.462858	-0.325476	9.739621	-0.031838	0.011513	0.041497	1.000000	-0.000047	0.000024	-0.000001	-2.096823	-8.607987	49.224227
46939	1.467414	-0.337551	9.686453	-0.013012	0.011772	-0.009917	1.000000	-0.000043	0.000021	0.000024	-2.096428	-8.607512	49.224805
46940	1.449273	-0.347847	9.742867	-0.023755	-0.013589	0.043483	1.000000	-0.000029	0.000034	0.000027	-2.094420	-8.605545	49.225631
46941	1.466370	-0.339172	9.686554	-0.011982	0.009969	-0.009914	1.000000	-0.000052	0.000016	0.000010	-2.094794	-8.605718	49.224641
46942	1.464780	-0.370691	9.670428	0.012686	-0.010490	-0.024946	1.000000	-0.000049	0.000014	0.000018	-2.094942	-8.606078	49.225427
46943	1.478313	-0.320474	9.683437	-0.018004	0.031457	-0.011884	1.000000	-0.000043	0.000021	0.000024	-2.094548	-8.605604	49.226006
46944	1.465347	-0.342177	9.686603	-0.010437	0.007264	-0.009910	1.000000	-0.000056	0.000016	0.000021	-2.095461	-8.605699	49.226146
46945	1.477460	-0.322593	9.683496	-0.016967	0.029656	-0.011877	1.000000	-0.000051	0.000032	0.000020	-2.095842	-8.603912	49.226190
46946	1.457837	-0.345628	9.652789	-0.008222	0.002914	-0.044320	1.000000	-0.000052	0.000042	0.000012	-2.096159	-8.601040	49.225001
46947	1.469794	-0.343978	9.720695	-0.010064	0.007104	0.024506	1.000000	-0.000043	0.000021	0.000024	-2.095765	-8.600567	49.225581
46948	1.437719	-0.387556	9.693093	0.005724	-0.042931	-0.005985	1.000000	-0.000042	0.000038	0.000034	-2.095334	-8.598141	49.227041
46949	1.462275	-0.347250	9.686887	-0.007849	0.002755	-0.009905	1.000000	-0.000060	0.000027	0.000006	-2.096483	-8.597002	49.225517
46950	1.437847	-0.359272	9.709338	-0.017387	-0.025192	0.009064	1.000000	-0.000056	0.000026	0.000013	-2.097321	-8.596023	49.224354
46951	1.419859	-0.351832	9.694721	-0.032805	-0.032370	-0.008338	1.000000	-0.000049	0.000014	0.000018	-2.097451	-8.596346	49.224200
46952	1.455965	-0.339351	9.740180	-0.024563	-0.001179	0.041525	1.000000	-0.000047	0.000022	0.000017	-2.097259	-8.595739	49.223719
46953	1.454302	-0.370813	9.724031	0.000101	-0.021630	0.026459	1.000000	-0.000049	0.000014	0.000018	-2.097390	-8.596062	49.223565
46954	1.455410	-0.341295	9.740195	-0.023524	-0.002997	0.041527	1.000000	-0.000045	0.000004	0.000015	-2.096942	-8.597583	49.223473
46955	1.447675	-0.374196	9.690076	0.002301	-0.025965	-0.007960	1.000000	-0.000068	0.000011	0.000018	-2.099217	-8.598260	49.223388
46956	1.448729	-0.344884	9.706247	-0.021327	-0.007329	0.007113	1.000000	-0.000046	0.000013	0.000025	-2.099080	-8.598773	49.224926
46957	1.464753	-0.384839	9.704704	0.019270	-0.021508	0.009433	1.000000	-0.000046	0.000013	0.000025	-2.098967	-8.599246	49.225608
46958	1.459422	-0.356600	9.686977	-0.003195	-0.005385	-0.009904	1.000000	-0.000047	0.000022	0.000017	-2.098786	-8.598658	49.225572
46959	1.476719	-0.366127	9.701618	0.013262	-0.000024	0.007494	1.000000	-0.000051	0.000006	0.000018	-2.099197	-8.599925	49.225520
46960	1.482940	-0.347747	9.664566	0.007886	0.019858	-0.028853	1.000000	-0.000048	0.000004	0.000025	-2.099352	-8.601414	49.227502
46961	1.428666	-0.371686	9.675421	-0.010558	-0.037651	-0.025375	1.000000	-0.000039	0.000011	0.000021	-2.098429	-8.602107	49.227783
46962	1.458709	-0.360436	9.686943	-0.001147	-0.009000	-0.009906	1.000000	-0.000045	0.000003	0.000032	-2.098371	-8.603722	49.230618
46963	1.464549	-0.360115	9.720902	-0.001780	-0.007407	0.024511	1.000000	-0.000045	0.000040	0.000009	-2.097906	-8.601066	49.229328
46964	1.481673	-0.351417	9.664627	0.009939	0.016250	-0.028848	1.000000	-0.000046	0.000013	0.000025	-2.097747	-8.601585	49.230506
46965	1.444849	-0.383976	9.690115	0.007440	-0.035009	-0.007991	1.000000	-0.000052	0.000016	0.000010	-2.098122	-8.601760	49.229519
46966	1.487439	-0.352217	9.698560	0.009825	0.016927	0.005572	1.000000	-0.000051	0.000006	0.000018	-2.098502	-8.603077	49.229980
46967	1.498541	-0.363027	9.679255	0.027433	0.019791	-0.011450	1.000000	-0.000049	0.000014	0.000018	-2.098633	-8.603402	49.229828
46968	1.486946	-0.354247	9.698561	0.010868	0.015120	0.005573	1.000000	-0.000049	0.000014	0.000018	-2.098713	-8.603709	49.229477
46969	1.469004	-0.346680	9.683951	-0.004567	0.007976	-0.011821	1.000000	-0.000047	0.000022	0.000017	-2.098564	-8.603091	49.229225
46970	1.474789	-0.328280	9.646989	-0.009947	0.027906	-0.048145	1.000000	-0.000057	0.000036	0.000006	-2.099413	-8.600982	49.227215
46971	1.479349	-0.358567	9.664721	0.013558	0.009948	-0.028844	1.000000	-0.000048	0.000004	0.000025	-2.099580	-8.602401	49.227998
46972	1.491741	-0.338765	9.661649	0.007042	0.032355	-0.030744	1.000000	-0.000034	0.000017	0.000028	-2.098128	-8.602261	49.228560
46973	1.473811	-0.349401	9.717961	-0.003622	0.006844	0.022602	1.000000	-0.000058	0.000008	0.000022	-2.099349	-8.603311	49.228911
46974	1.478477	-0.361440	9.664747	0.015114	0.007248	-0.028844	1.000000	-0.000044	0.000031	0.000016	-2.098865	-8.601767	49.228594
46975	1.466720	-0.352622	9.684082	-0.001456	0.002575	-0.011818	1.000000	-0.000049	0.000014	0.000018	-2.098996	-8.602094	49.228443
46976	1.466435	-0.353623	9.684089	-0.000940	0.001675	-0.011817	1.000000	-0.000049	0.000014	0.000018	-2.099130	-8.602418	49.228556
46977	1.448580	-0.346061	9.669466	-0.016385	-0.005452	-0.029211	1.000000	-0.000049	0.000014	0.000018	-2.099261	-8.602745	49.228405
46978	1.459242	-0.375046	9.721136	0.006014	-0.020979	0.024490	1.000000	-0.000045	0.000040	0.000009	-2.098763	-8.600045	49.226540
46979	1.464921	-0.356510	9.684212	0.000617	-0.001022	-0.011817	1.000000	-0.000045	0.000029	0.000034	-2.098656	-8.598565	49.228261
46980	1.446867	-0.349080	9.669614	-0.014822	-0.008140	-0.029210	1.000000	-0.000065	0.000019	0.000018	-2.100620	-8.598256	49.227281
46981	1.481688	-0.367265	9.698882	0.017622	0.003399	0.005575	1.000000	-0.000039	0.000012	0.000003	-2.099375	-8.598873	49.225491
46982	1.465058	-0.329261	9.700530	-0.021931	0.015796	0.003338	1.000000	-0.000060	0.000026	0.000024	-2.100795	-8.597819	49.225908
46983	1.493376	-0.348667	9.695901	0.011631	0.024894	0.003701	1.000000	-0.000044	0.000031	0.000016	-2.100366	-8.596260	49.225557
46984	1.462546	-0.361759	9.684376	0.003213	-0.005526	-0.011819	1.000000	-0.000054	0.000034	0.000013	-2.100982	-8.594326	49.224695
46985	1.452128	-0.322712	9.719971	-0.037455	0.009306	0.020378	1.000000	-0.000058	0.000008	0.000022	-2.102204	-8.595378	49.225045
46986	1.463228	-0.333515	9.700660	-0.019857	0.012188	0.003347	1.000000	-0.000046	0.000014	0.000007	-2.101731	-8.595777	49.223272
46987	1.438930	-0.345343	9.723026	-0.029385	-0.015808	0.022245	1.000000	-0.000044	0.000021	0.000024	-2.101338	-8.595313	49.223857
46988	1.467541	-0.364691	9.718349	0.004178	-0.006724	0.022602	1.000000	-0.000051	0.000004	0.000036	-2.102041	-8.596705	49.226321
46989	1.449807	-0.357042	9.703712	-0.011278	-0.013830	0.005211	1.000000	-0.000039	0.000012	0.000003	-2.100796	-8.597323	49.224531
46990	1.473574	-0.347080	9.681364	-0.000717	0.012362	-0.013680	1.000000	-0.000055	0.000006	0.000029	-2.101745	-8.598548	49.226099
46991	1.467077	-0.367600	9.718309	0.005731	-0.009440	0.022599	1.000000	-0.000042	0.000002	0.000022	-2.101103	-8.600191	49.226481
46992	1.443203	-0.361050	9.669722	-0.008629	-0.018943	-0.029218	1.000000	-0.000045	0.000004	0.000015	-2.100681	-8.601668	49.225692
46993	1.490763	-0.358578	9.695942	0.016813	0.015857	0.003712	1.000000	-0.000052	0.000014	0.000028	-2.101380	-8.601929	49.226780
46994	1.455385	-0.342390	9.666694	-0.014625	0.002556	-0.031065	1.000000	-0.000043	0.000011	0.000032	-2.100964	-8.602607	49.228658
46995	1.450040	-0.332436	9.719955	-0.032267	0.000252	0.020400	1.000000	-0.000049	0.000015	-0.000000	-2.100773	-8.602856	49.226436
46996	1.483824	-0.362551	9.662005	0.019463	0.010755	-0.030713	1.000000	-0.000038	0.000001	0.000029	-2.099868	-8.604585	49.227058
46997	1.485024	-0.333190	9.678286	-0.004114	0.029365	-0.015512	1.000000	-0.000064	0.000011	0.000007	-2.101578	-8.605339	49.225740
46998	1.477013	-0.384085	9.698943	0.026436	-0.011970	0.005548	1.000000	-0.000030	0.000017	0.000017	-2.099553	-8.605317	49.225342
46999	1.484370	-0.334873	9.678328	-0.003081	0.027564	-0.015506	1.000000	-0.000040	0.000021	0.000014	-2.098595	-8.604923	49.224691
47000	1.472719	-0.326026	9.697666	-0.019628	0.022854	0.001537	1.000000	-0.000046	0.000012	0.000025	-2.098455	-8.605425	49.225502
47001	1.475927	-0.386734	9.699003	0.027986	-0.014682	0.005540	1.000000	-0.000053	0.000024	0.000021	-2.099118	-8.604594	49.225656
47002	1.476895	-0.357266	9.715336	0.004419	0.003920	0.020755	1.000000	-0.000039	0.000012	0.000003	-2.097863	-8.605201	49.223759
47003	1.483057	-0.338631	9.678399	-0.001013	0.023960	-0.015496	1.000000	-0.000049	0.000013	0.000035	-2.098319	-8.605614	49.225682
47004	1.471314	-0.329862	9.697749	-0.017555	0.019248	0.001549	1.000000	-0.000041	0.000029	0.000024	-2.097621	-8.604213	49.226007
47005	1.506159	-0.329613	9.656149	0.010061	0.049280	-0.034352	1.000000	-0.000052	0.000016	0.000010	-2.097997	-8.604393	49.225023
47006	1.499335	-0.350287	9.693109	0.016532	0.027428	0.001896	1.000000	-0.000057	0.000024	0.000031	-2.099215	-8.603485	49.226193
47007	1.463720	-0.333971	9.663911	-0.014935	0.014191	-0.032873	1.000000	-0.000035	0.000029	0.000002	-2.097409	-8.602216	49.224207
47008	1.456793	-0.354351	9.700890	-0.008466	-0.007670	0.003368	1.000000	-0.000047	0.000022	0.000017	-2.097262	-8.601619	49.224169
47009	1.480323	-0.344366	9.678615	0.002087	0.018557	-0.015485	1.000000	-0.000047	0.000022	0.000017	-2.097114	-8.601008	49.223922
47010	1.449739	-0.357495	9.666996	-0.006370	-0.011822	-0.031063	1.000000	-0.000059	0.000016	0.000032	-2.098595	-8.601064	49.225627
47011	1.455482	-0.357450	9.700973	-0.006914	-0.010378	0.003367	1.000000	-0.000044	0.000032	-0.000001	-2.097843	-8.599426	49.223209
47012	1.485153	-0.346353	9.712662	0.002580	0.018184	0.018951	1.000000	-0.000047	0.000021	0.000035	-2.097988	-8.598938	49.225199
47013	1.455919	-0.329028	9.717383	-0.029954	0.007305	0.018617	1.000000	-0.000052	0.000016	0.000010	-2.098364	-8.599120	49.224216
47014	1.436639	-0.351861	9.686434	-0.021367	-0.019246	-0.014019	1.000000	-0.000056	0.000026	0.000013	-2.099270	-8.598153	49.223733
47015	1.460194	-0.342067	9.664161	-0.010818	0.006992	-0.032860	1.000000	-0.000059	0.000017	0.000014	-2.100457	-8.598117	49.223153
47016	1.441960	-0.352971	9.720433	-0.021392	-0.018731	0.020412	1.000000	-0.000041	0.000029	0.000024	-2.099763	-8.596792	49.224373
47017	1.478074	-0.322337	9.695222	-0.017859	0.030822	-0.000212	1.000000	-0.000053	0.000024	0.000021	-2.100427	-8.595964	49.224529
47018	1.453793	-0.334390	9.717518	-0.027373	0.002773	0.018626	1.000000	-0.000051	0.000004	0.000036	-2.101131	-8.597350	49.226799
47019	1.469813	-0.374398	9.715765	0.013214	-0.011473	0.020741	1.000000	-0.000043	0.000012	0.000014	-2.100453	-8.597903	49.226249
47020	1.434406	-0.358033	9.686539	-0.018277	-0.024670	-0.014024	1.000000	-0.000047	0.000021	0.000035	-2.100583	-8.597398	49.227982
47021	1.452991	-0.337320	9.717537	-0.025818	0.000058	0.018631	1.000000	-0.000051	0.000007	0.000000	-2.100673	-8.598591	49.225860
47022	1.457821	-0.349050	9.664270	-0.007214	0.000673	-0.032854	1.000000	-0.000047	0.000022	0.000017	-2.100492	-8.598005	49.225971
47023	1.452241	-0.339276	9.717581	-0.024781	-0.001753	0.018634	1.000000	-0.000050	0.000024	0.000010	-2.100588	-8.597245	49.224891
47024	1.485611	-0.387921	9.730458	0.031816	-0.009878	0.038111	1.000000	-0.000043	0.000011	0.000032	-2.100200	-8.597920	49.226464
47025	1.462910	-0.350787	9.698286	-0.006703	0.000269	0.001581	1.000000	-0.000037	0.000019	0.000021	-2.098999	-8.597682	49.226652
47026	1.456345	-0.352802	9.664356	-0.005154	-0.002930	-0.032853	1.000000	-0.000059	0.000017	0.000014	-2.100170	-8.597653	49.226250
47027	1.474943	-0.332088	9.695370	-0.012682	0.021782	-0.000180	1.000000	-0.000036	0.000009	0.000028	-2.099007	-8.598510	49.227371
47028	1.468455	-0.334167	9.661428	-0.011127	0.018591	-0.034613	1.000000	-0.000065	0.000019	0.000018	-2.100946	-8.598221	49.226752
47029	1.461662	-0.354941	9.698323	-0.004624	-0.003340	0.001582	1.000000	-0.000046	0.000012	0.000025	-2.100837	-8.598708	49.227440
47030	1.478903	-0.364617	9.712947	0.011918	0.001882	0.018961	1.000000	-0.000052	0.000016	0.000010	-2.101169	-8.598859	49.226229
47031	1.473766	-0.336286	9.695404	-0.010594	0.018177	-0.000170	1.000000	-0.000046	0.000012	0.000025	-2.101060	-8.599346	49.226918
47032	1.508543	-0.354623	9.724646	0.021953	0.029514	0.034589	1.000000	-0.000049	0.000014	0.000018	-2.101220	-8.599712	49.226962
47033	1.467018	-0.339281	9.661468	-0.008550	0.014101	-0.034603	1.000000	-0.000049	0.000014	0.000018	-2.101354	-8.600048	49.226816
47034	1.484350	-0.348965	9.676078	0.007991	0.019322	-0.017223	1.000000	-0.000048	0.000004	0.000025	-2.101511	-8.601448	49.226995
47035	1.471342	-0.370514	9.679019	0.015517	-0.004899	-0.015480	1.000000	-0.000038	0.000029	0.000013	-2.100273	-8.600116	49.226253
47036	1.470855	-0.371309	9.679062	0.016040	-0.005806	-0.015482	1.000000	-0.000040	0.000020	0.000014	-2.099253	-8.599727	49.225134
47037	1.467028	-0.312508	9.677964	-0.030520	0.029980	-0.019272	1.000000	-0.000046	0.000012	0.000025	-2.099144	-8.600216	49.225823
47038	1.488976	-0.351411	9.710146	0.009056	0.017967	0.017220	1.000000	-0.000038	0.000029	0.000013	-2.097872	-8.598908	49.225201
47039	1.464779	-0.344556	9.661621	-0.005446	0.008704	-0.034594	1.000000	-0.000044	0.000021	0.000024	-2.097483	-8.598454	49.225793
47040	1.470529	-0.344550	9.695606	-0.005932	0.010045	-0.000154	1.000000	-0.000050	0.000022	0.000028	-2.097838	-8.597821	49.226966
47041	1.439851	-0.357607	9.683931	-0.014436	-0.020280	-0.015803	1.000000	-0.000056	0.000026	0.000014	-2.098745	-8.596844	49.226291
47042	1.469587	-0.346669	9.695673	-0.004900	0.008237	-0.000152	1.000000	-0.000044	0.000021	0.000024	-2.098336	-8.596422	49.227687
47043	1.469095	-0.347513	9.695717	-0.004383	0.007336	-0.000151	1.000000	-0.000038	0.000029	0.000013	-2.097098	-8.595091	49.226946
47044	1.468731	-0.348493	9.695737	-0.003856	0.006437	-0.000150	1.000000	-0.000058	0.000008	0.000022	-2.098281	-8.596104	49.226820
47045	1.481021	-0.328904	9.692861	-0.010345	0.028861	-0.001866	1.000000	-0.000048	0.000032	0.000009	-2.098096	-8.594402	49.225647
47046	1.448958	-0.372146	9.664741	0.005189	-0.020930	-0.032875	1.000000	-0.000044	0.000019	0.000042	-2.097939	-8.594019	49.227735
47047	1.478830	-0.361111	9.676478	0.014734	0.007587	-0.017215	1.000000	-0.000043	0.000012	0.000014	-2.097262	-8.594575	49.227187
47048	1.455809	-0.342731	9.715177	-0.018798	-0.001037	0.016919	1.000000	-0.000050	0.000022	0.000028	-2.097668	-8.593899	49.228344
47049	1.466695	-0.353404	9.695868	-0.001257	0.001923	-0.000148	1.000000	-0.000047	0.000022	0.000017	-2.097522	-8.593295	49.228103
47050	1.448745	-0.345647	9.681284	-0.016779	-0.005067	-0.017521	1.000000	-0.000047	0.000022	0.000017	-2.097357	-8.592718	49.227975
47051	1.465870	-0.355409	9.695919	-0.000225	0.000116	-0.000147	1.000000	-0.000056	0.000016	0.000021	-2.098302	-8.592839	49.228233
47052	1.465580	-0.356461	9.695924	0.000290	-0.000787	-0.000148	1.000000	-0.000046	0.000012	0.000025	-2.098193	-8.593343	49.229218
47053	1.466616	-0.327284	9.712397	-0.023216	0.017771	0.015226	1.000000	-0.000065	0.000019	0.000018	-2.100192	-8.593094	49.229045
47054	1.460161	-0.329274	9.678446	-0.021724	0.014657	-0.019214	1.000000	-0.000036	0.000009	0.000028	-2.099026	-8.593988	49.230389
47055	1.464730	-0.359545	9.695939	0.001836	-0.003494	-0.000148	1.000000	-0.000049	0.000014	0.000018	-2.099161	-8.594328	49.230244
47056	1.447024	-0.351844	9.681318	-0.013686	-0.010470	-0.017520	1.000000	-0.000051	0.000006	0.000018	-2.099544	-8.595601	49.230349
47057	1.464354	-0.361509	9.695923	0.002874	-0.005299	-0.000149	1.000000	-0.000039	0.000011	0.000021	-2.098625	-8.596311	49.230637
47058	1.452839	-0.352839	9.715260	-0.013633	-0.010083	0.016922	1.000000	-0.000055	0.000006	0.000029	-2.099603	-8.597597	49.232434
47059	1.465262	-0.333217	9.712400	-0.020116	0.012343	0.015241	1.000000	-0.000044	0.000021	0.000024	-2.099214	-8.597147	49.233029
47060	1.494006	-0.352568	9.707643	0.013471	0.021377	0.015540	1.000000	-0.000049	-0.000013	0.000016	-2.099331	-8.600537	49.232636
47061	1.469930	-0.364597	9.729821	0.003973	-0.006733	0.034291	1.000000	-0.000052	0.000016	0.000011	-2.099709	-8.600725	49.231658
47062	1.445905	-0.357750	9.681269	-0.010595	-0.015890	-0.017524	1.000000	-0.000044	0.000021	0.000024	-2.099284	-8.600317	49.232394
47063	1.487091	-0.356444	9.673690	0.015985	0.016480	-0.018901	1.000000	-0.000049	0.000014	0.000018	-2.099419	-8.600658	49.232251
47064	1.475392	-0.347776	9.693061	-0.000515	0.011689	-0.001825	1.000000	-0.000047	0.000022	0.000017	-2.099252	-8.600119	49.232721
47065	1.486281	-0.358426	9.673742	0.017012	0.014671	-0.018900	1.000000	-0.000050	0.000022	0.000028	-2.099674	-8.599453	49.233720
47066	1.450612	-0.360841	9.715299	-0.009488	-0.017327	0.016917	1.000000	-0.000051	0.000006	0.000018	-2.100060	-8.600705	49.233447
47067	1.503253	-0.369070	9.688360	0.034107	0.018923	-0.001531	1.000000	-0.000030	0.000017	0.000017	-2.098049	-8.600691	49.233237
47068	1.478956	-0.380995	9.710562	0.024602	-0.009208	0.017205	1.000000	-0.000058	0.000007	0.000022	-2.099271	-8.601847	49.234546
47069	1.445055	-0.334200	9.697861	-0.030999	-0.002762	-0.002110	1.000000	-0.000040	0.000020	0.000014	-2.098314	-8.601462	49.233905
47070	1.473510	-0.353595	9.693136	0.002579	0.006276	-0.001820	1.000000	-0.000059	0.000017	0.000014	-2.099536	-8.601428	49.233522
47071	1.473110	-0.354712	9.693156	0.003095	0.005376	-0.001820	1.000000	-0.000050	0.000022	0.000028	-2.099959	-8.600764	49.234523
47072	1.453898	-0.377197	9.662045	0.011549	-0.021012	-0.034618	1.000000	-0.000043	0.000012	0.000014	-2.099281	-8.601350	49.234138
47073	1.472447	-0.356494	9.693192	0.004125	0.003570	-0.001820	1.000000	-0.000037	0.000019	0.000021	-2.098082	-8.601120	49.234332
47074	1.471987	-0.357248	9.693234	0.004649	0.002666	-0.001820	1.000000	-0.000035	0.000027	0.000020	-2.096556	-8.599932	49.234373
47075	1.473041	-0.327836	9.709779	-0.018831	0.021203	0.013621	1.000000	-0.000048	0.000004	0.000025	-2.096731	-8.601372	49.235161
47076	1.454014	-0.350239	9.678636	-0.010379	-0.005178	-0.019185	1.000000	-0.000039	0.000012	0.000003	-2.095438	-8.602018	49.233387
47077	1.490053	-0.338543	9.724392	-0.001727	0.025423	0.030992	1.000000	-0.000065	0.000019	0.000018	-2.097438	-8.601773	49.233217
47078	1.483459	-0.340407	9.690461	-0.000273	0.022381	-0.003454	1.000000	-0.000031	0.000025	0.000027	-2.095683	-8.600780	49.234247
47079	1.458905	-0.352322	9.712682	-0.009764	-0.005754	0.015263	1.000000	-0.000053	0.000024	0.000021	-2.096349	-8.599963	49.234413
47080	1.452302	-0.354197	9.678749	-0.008303	-0.008776	-0.019186	1.000000	-0.000047	0.000022	0.000017	-2.096160	-8.599289	49.233595
47081	1.446756	-0.344638	9.732092	-0.025714	-0.011456	0.032347	1.000000	-0.000043	0.000012	0.000014	-2.095485	-8.599849	49.233050
47082	1.464413	-0.335391	9.675962	-0.014273	0.012753	-0.020810	1.000000	-0.000049	0.000014	0.000018	-2.095634	-8.600263	49.233563
47083	1.486306	-0.374561	9.708001	0.025377	0.000560	0.015540	1.000000	-0.000044	0.000021	0.000024	-2.095246	-8.599818	49.234162
47084	1.446186	-0.328679	9.661397	-0.029311	0.004933	-0.038170	1.000000	-0.000065	0.000019	0.000018	-2.097215	-8.599579	49.233950
47085	1.452041	-0.328847	9.695372	-0.029717	0.006145	-0.003718	1.000000	-0.000033	0.000009	0.000018	-2.095487	-8.600511	49.233837
47086	1.480599	-0.348186	9.690622	0.003872	0.015160	-0.003441	1.000000	-0.000059	0.000017	0.000014	-2.096627	-8.600508	49.233813
47087	1.451459	-0.330921	9.695388	-0.028681	0.004337	-0.003714	1.000000	-0.000052	0.000014	0.000028	-2.097332	-8.600791	49.234910
47088	1.449755	-0.362099	9.678838	-0.004184	-0.016004	-0.019193	1.000000	-0.000034	0.000017	0.000028	-2.095839	-8.600781	49.236652
47089	1.455655	-0.362125	9.712809	-0.004582	-0.014806	0.015257	1.000000	-0.000048	0.000006	0.000008	-2.095687	-8.602131	49.235367
47090	1.462082	-0.343183	9.676041	-0.010131	0.005536	-0.020798	1.000000	-0.000039	0.000011	0.000021	-2.094723	-8.602808	49.235147
47091	1.450469	-0.334554	9.695412	-0.026605	0.000722	-0.003707	1.000000	-0.000056	0.000016	0.000021	-2.095670	-8.602937	49.235410
47092	1.461734	-0.345372	9.676015	-0.009103	0.003734	-0.020796	1.000000	-0.000063	-0.000009	0.000023	-2.097461	-8.605922	49.236436
47093	1.490455	-0.364789	9.671228	0.024483	0.012754	-0.020526	1.000000	-0.000034	0.000017	0.000028	-2.096021	-8.605851	49.237468
47094	1.461210	-0.347313	9.676025	-0.008072	0.001927	-0.020795	1.000000	-0.000056	0.000026	0.000014	-2.096893	-8.604923	49.236797
47095	1.472081	-0.357961	9.656691	0.009430	0.004948	-0.037887	1.000000	-0.000047	0.000022	0.000017	-2.096748	-8.604325	49.236563
47096	1.466408	-0.348540	9.710062	-0.007945	0.002205	0.013658	1.000000	-0.000050	0.000024	0.000010	-2.096861	-8.603583	49.235710
47097	1.447077	-0.371021	9.678901	0.000456	-0.024109	-0.019208	1.000000	-0.000053	0.000024	0.000021	-2.097528	-8.602769	49.235880
47098	1.494425	-0.369191	9.705333	0.026162	0.010317	0.013925	1.000000	-0.000061	0.000008	0.000032	-2.099328	-8.603768	49.237774
47099	1.441810	-0.343818	9.661524	-0.021585	-0.008555	-0.038152	1.000000	-0.000043	0.000012	0.000014	-2.098654	-8.604331	49.237231
47100	1.476496	-0.362366	9.690728	0.011110	0.002517	-0.003435	1.000000	-0.000046	0.000012	0.000025	-2.098514	-8.604855	49.238001
47101	1.476191	-0.363216	9.690743	0.011626	0.001616	-0.003435	1.000000	-0.000034	0.000017	0.000028	-2.097075	-8.604785	49.239034
47102	1.464932	-0.335388	9.639439	-0.010037	0.016016	-0.056821	1.000000	-0.000050	0.000024	0.000010	-2.097141	-8.604018	49.237911
47103	1.445121	-0.376879	9.678967	0.003554	-0.029510	-0.019224	1.000000	-0.000047	0.000022	0.000017	-2.096996	-8.603422	49.237678
47104	1.498889	-0.354941	9.668719	0.023172	0.026170	-0.022102	1.000000	-0.000044	0.000030	0.000017	-2.096537	-8.601968	49.238567
47105	1.445469	-0.348508	9.695667	-0.019381	-0.011914	-0.003698	1.000000	-0.000047	0.000022	0.000017	-2.096392	-8.601372	49.238334
47106	1.486658	-0.347263	9.688159	0.007237	0.020438	-0.005002	1.000000	-0.000049	0.000014	0.000018	-2.096483	-8.601680	49.237808
47107	1.444646	-0.350512	9.695717	-0.018339	-0.013714	-0.003698	1.000000	-0.000051	0.000032	0.000020	-2.096868	-8.599925	49.237886
