// Start Time: Unknown
// Update Rate: 100.0Hz
// Filter Profile: human (46.1)
// Firmware Version: 4.4.0
PacketCounter	Acc_X	Acc_Y	Acc_Z	FreeAcc_X	FreeAcc_Y	FreeAcc_Z	OriInc_q0	OriInc_q1	OriInc_q2	OriInc_q3	Roll	Pitch	Yaw
31036	1.415046	-0.585382	9.652040	-0.015916	-0.000349	-0.039937	1.000000	-0.000057	0.000006	0.000024	-3.547137	-8.384064	51.997335
31037	1.414705	-0.586573	9.652018	-0.015916	-0.000349	-0.039937	1.000000	-0.000059	0.000027	0.000026	-3.554350	-8.380840	52.000147
31038	1.386703	-0.606234	9.661285	-0.019623	-0.034072	-0.033662	1.000000	-0.000048	0.000012	0.000023	-3.560843	-8.379501	52.002773
31039	1.390808	-0.583435	9.657933	-0.034978	-0.015541	-0.037773	1.000000	-0.000045	0.000026	0.000023	-3.566367	-8.376399	52.005300
31040	1.408900	-0.613404	9.655367	-0.000651	-0.018831	-0.035826	1.000000	-0.000053	0.000025	0.000018	-3.572643	-8.373294	52.007159
31041	1.383484	-0.587554	9.634484	-0.034042	-0.020083	-0.061741	1.000000	-0.000049	0.000006	0.000030	-3.578769	-8.372373	52.010568
31042	1.389605	-0.586543	9.657918	-0.034937	-0.015502	-0.037773	1.000000	-0.000052	0.000027	0.000032	-3.585180	-8.368821	52.014035
31043	1.414305	-0.614269	9.678785	-0.001545	-0.014250	-0.011858	1.000000	-0.000027	0.000010	0.000012	-3.588453	-8.367629	52.015381
31044	1.390958	-0.609977	9.684686	-0.020456	-0.029435	-0.009694	1.000000	-0.000062	0.000013	0.000026	-3.595956	-8.365585	52.018232
31045	1.395138	-0.587331	9.681329	-0.035810	-0.010905	-0.013805	1.000000	-0.000047	0.000018	0.000016	-3.601586	-8.363424	52.019977
31046	1.417858	-0.593573	9.675399	-0.016763	0.004397	-0.015969	1.000000	-0.000054	0.000019	0.000024	-3.607984	-8.360380	52.022647
31047	1.394237	-0.589365	9.681336	-0.035721	-0.010832	-0.013804	1.000000	-0.000044	0.000032	0.000017	-3.613260	-8.356656	52.024337
31048	1.417048	-0.595472	9.675401	-0.016629	0.004475	-0.015969	1.000000	-0.000044	-0.000003	0.000014	-3.618235	-8.356063	52.025969
31049	1.387280	-0.593250	9.657843	-0.034667	-0.015309	-0.037771	1.000000	-0.000046	0.000020	0.000030	-3.624008	-8.353575	52.029321
31050	1.404272	-0.566410	9.701428	-0.051680	0.012416	0.006054	1.000000	-0.000053	0.000025	0.000018	-3.629769	-8.349514	52.031101
31051	1.386442	-0.595364	9.657833	-0.034484	-0.015223	-0.037771	1.000000	-0.000056	0.000012	0.000017	-3.636422	-8.348068	52.033011
31052	1.399117	-0.592204	9.704718	-0.036049	-0.006027	0.010166	1.000000	-0.000033	0.000013	0.000035	-3.639784	-8.344928	52.036770
31053	1.415472	-0.600324	9.675332	-0.016170	0.004648	-0.015968	1.000000	-0.000048	0.000012	0.000023	-3.645663	-8.343382	52.039342
31054	1.424116	-0.553828	9.668702	-0.046549	0.041793	-0.024188	1.000000	-0.000053	0.000025	0.000018	-3.650721	-8.338793	52.041016
31055	1.387011	-0.620993	9.684552	-0.019442	-0.029027	-0.009690	1.000000	-0.000054	0.000019	0.000024	-3.657268	-8.336403	52.043703
31056	1.418683	-0.579704	9.672022	-0.030777	0.023336	-0.020076	1.000000	-0.000045	0.000026	0.000023	-3.661115	-8.331449	52.045982
31057	1.401601	-0.573404	9.701404	-0.050653	0.012662	0.006059	1.000000	-0.000047	0.000018	0.000016	-3.666746	-8.329279	52.047721
31058	1.392997	-0.554636	9.651166	-0.063675	0.022090	-0.045983	1.000000	-0.000043	-0.000001	0.000028	-3.669910	-8.327375	52.050673
31059	1.413164	-0.606305	9.675296	-0.014923	0.004813	-0.015966	1.000000	-0.000050	0.000037	0.000004	-3.675716	-8.323128	52.050864
31060	1.433763	-0.590828	9.642643	-0.009827	0.033988	-0.046211	1.000000	-0.000054	0.000019	0.000024	-3.679461	-8.318795	52.053146
31061	1.387152	-0.581502	9.654471	-0.047744	0.003529	-0.041871	1.000000	-0.000054	0.000019	0.000024	-3.686013	-8.316404	52.055829
31062	1.393224	-0.580447	9.677925	-0.048015	0.008010	-0.017900	1.000000	-0.000039	0.000018	0.000022	-3.687600	-8.312158	52.057779
31063	1.415935	-0.586631	9.672007	-0.029058	0.023240	-0.020071	1.000000	-0.000054	0.000019	0.000024	-3.694155	-8.309766	52.060461
31064	1.392463	-0.582576	9.677907	-0.047245	0.007876	-0.017896	1.000000	-0.000062	0.000017	0.000005	-3.697253	-8.305642	52.060278
31065	1.398537	-0.581806	9.701346	-0.048158	0.012431	0.006072	1.000000	-0.000061	0.000021	0.000033	-3.704722	-8.303022	52.063905
31066	1.414743	-0.590044	9.671973	-0.027464	0.022944	-0.020066	1.000000	-0.000039	0.000022	0.000001	-3.704756	-8.298241	52.063203
31067	1.412456	-0.569095	9.645240	-0.041911	0.036921	-0.048138	1.000000	-0.000040	0.000013	0.000029	-3.709865	-8.296591	52.066434
31068	1.420559	-0.589861	9.695415	-0.027360	0.027205	0.003906	1.000000	-0.000055	0.000014	0.000031	-3.710863	-8.292519	52.069052
31069	1.386124	-0.611396	9.681134	-0.030051	-0.011109	-0.013785	1.000000	-0.000039	0.000018	0.000022	-3.715710	-8.290250	52.071450
31070	1.413366	-0.593816	9.671944	-0.025490	0.022364	-0.020059	1.000000	-0.000054	0.000019	0.000024	-3.716726	-8.285721	52.073269
31071	1.373229	-0.582413	9.707227	-0.064307	-0.003544	0.008263	1.000000	-0.000047	0.000018	0.000016	-3.722338	-8.283550	52.075002
31072	1.412659	-0.595758	9.671928	-0.024523	0.022085	-0.020056	1.000000	-0.000040	0.000013	0.000029	-3.721932	-8.279707	52.077370
31073	1.412232	-0.596626	9.671937	-0.024519	0.022082	-0.020056	1.000000	-0.000045	0.000030	0.000003	-3.727041	-8.276300	52.077440
31074	1.395044	-0.590663	9.701313	-0.043342	0.011044	0.006096	1.000000	-0.000082	0.000025	0.000009	-3.730441	-8.271292	52.077271
31075	1.417733	-0.597139	9.695383	-0.024380	0.026269	0.003917	1.000000	-0.000040	0.000015	0.000043	-3.735645	-8.269315	52.082105
31076	1.387950	-0.594786	9.677813	-0.041413	0.006268	-0.017868	1.000000	-0.000042	0.000005	0.000022	-3.735302	-8.265935	52.084035
31077	1.415280	-0.577216	9.668632	-0.037811	0.040027	-0.024143	1.000000	-0.000053	0.000025	0.000018	-3.741581	-8.262906	52.085878
31078	1.391738	-0.573005	9.674548	-0.055672	0.024328	-0.021954	1.000000	-0.000047	0.000018	0.000016	-3.740391	-8.258969	52.086477
31079	1.433031	-0.608106	9.665973	-0.002396	0.036253	-0.022229	1.000000	-0.000039	0.000018	0.000022	-3.745224	-8.256695	52.088871
31080	1.392958	-0.596664	9.701246	-0.040099	0.009752	0.006111	1.000000	-0.000056	0.000012	0.000017	-3.744578	-8.254009	52.089440
31081	1.415607	-0.602770	9.695346	-0.021138	0.024976	0.003928	1.000000	-0.000029	0.000033	0.000028	-3.748261	-8.250084	52.092444
31082	1.411361	-0.560183	9.641935	-0.048968	0.052580	-0.052180	1.000000	-0.000071	0.000011	0.000006	-3.749980	-8.246509	52.092334
31083	1.389783	-0.577857	9.674541	-0.053448	0.023362	-0.021939	1.000000	-0.000037	0.000026	0.000029	-3.754690	-8.243286	52.095503
31084	1.412426	-0.583897	9.668648	-0.033487	0.037772	-0.024118	1.000000	-0.000039	0.000018	0.000022	-3.751876	-8.241227	52.096064
31085	1.390976	-0.601398	9.701238	-0.037967	0.008545	0.006121	1.000000	-0.000050	0.000004	0.000016	-3.757819	-8.240650	52.097852
31086	1.395290	-0.578616	9.697979	-0.052243	0.026373	0.002047	1.000000	-0.000047	0.000018	0.000016	-3.755856	-8.237855	52.098141
31087	1.411582	-0.586752	9.668598	-0.032403	0.037047	-0.024112	1.000000	-0.000047	0.000018	0.000016	-3.761448	-8.235737	52.099878
31088	1.411356	-0.587801	9.668568	-0.031016	0.036297	-0.024104	1.000000	-0.000058	0.000004	0.000010	-3.758984	-8.233701	52.099686
31089	1.410981	-0.588690	9.668568	-0.031013	0.036281	-0.024104	1.000000	-0.000029	0.000033	0.000028	-3.762640	-8.229823	52.102695
31090	1.382986	-0.608011	9.677701	-0.033306	0.001533	-0.017836	1.000000	-0.000044	-0.000001	0.000028	-3.758413	-8.229625	52.104125
31091	1.410371	-0.590608	9.668541	-0.029706	0.035274	-0.024096	1.000000	-0.000067	0.000026	0.000020	-3.766292	-8.226552	52.106254
31092	1.409922	-0.591762	9.668535	-0.028415	0.034287	-0.024089	1.000000	-0.000047	0.000018	0.000016	-3.762275	-8.224321	52.106156
31093	1.409528	-0.592729	9.668534	-0.028405	0.034256	-0.024089	1.000000	-0.000046	0.000020	0.000030	-3.767891	-8.221920	52.109502
31094	1.402694	-0.595633	9.645062	-0.026266	0.029260	-0.048057	1.000000	-0.000047	0.000018	0.000016	-3.765914	-8.217272	52.110849
31095	1.408827	-0.594737	9.668512	-0.027120	0.033768	-0.024084	1.000000	-0.000056	0.000012	0.000017	-3.772389	-8.215874	52.112747
31096	1.415004	-0.593801	9.691960	-0.027218	0.037066	-0.000103	1.000000	-0.000041	0.000013	0.000029	-3.769392	-8.217217	52.113229
31097	1.401937	-0.598600	9.644988	-0.025465	0.027963	-0.048051	1.000000	-0.000050	0.000004	0.000016	-3.775176	-8.216734	52.115025
31098	1.412630	-0.573942	9.665238	-0.039955	0.049860	-0.028125	1.000000	-0.000053	0.000025	0.000018	-3.768997	-8.212841	52.115570
31099	1.386311	-0.615265	9.701036	-0.029020	0.002038	0.006155	1.000000	-0.000038	0.000026	0.000029	-3.773448	-8.209749	52.118750
31100	1.411511	-0.575668	9.665298	-0.038905	0.048795	-0.028115	1.000000	-0.000036	0.000032	0.000022	-3.769463	-8.206959	52.119322
31101	1.381448	-0.573294	9.647751	-0.056970	0.028983	-0.049896	1.000000	-0.000054	0.000019	0.000024	-3.775691	-8.204709	52.122006
31102	1.412467	-0.599491	9.691980	-0.023223	0.033642	-0.000081	1.000000	-0.000047	0.000018	0.000016	-3.771993	-8.203430	52.122081
31103	1.393614	-0.571467	9.694679	-0.057514	0.036887	-0.001934	1.000000	-0.000048	0.000012	0.000023	-3.777534	-8.202052	52.124656
31104	1.410078	-0.579585	9.665273	-0.035803	0.046476	-0.028092	1.000000	-0.000050	0.000008	-0.000005	-3.770127	-8.199458	52.123465
31105	1.409780	-0.580691	9.665251	-0.035763	0.046410	-0.028092	1.000000	-0.000061	0.000021	0.000033	-3.777167	-8.196983	52.127089
31106	1.388160	-0.598256	9.697811	-0.039097	0.015911	0.002130	1.000000	-0.000025	0.000014	0.000040	-3.770971	-8.196960	52.129538
31107	1.408984	-0.582605	9.665251	-0.034613	0.045085	-0.028081	1.000000	-0.000067	0.000026	0.000020	-3.778480	-8.193995	52.131670
31108	1.410390	-0.605629	9.691900	-0.019199	0.030135	-0.000061	1.000000	-0.000047	0.000018	0.000016	-3.776528	-8.192890	52.131764
31109	1.416449	-0.604687	9.715370	-0.020002	0.034567	0.023918	1.000000	-0.000047	0.000018	0.000016	-3.781648	-8.190918	52.133507
31110	1.409704	-0.607564	9.691879	-0.018226	0.028858	-0.000055	1.000000	-0.000048	0.000012	0.000023	-3.778848	-8.191582	52.133999
31111	1.401092	-0.588637	9.641738	-0.031848	0.038281	-0.052043	1.000000	-0.000054	0.000019	0.000024	-3.784837	-8.189416	52.136688
31112	1.395119	-0.556952	9.691403	-0.066635	0.049397	-0.005906	1.000000	-0.000057	0.000010	0.000003	-3.781176	-8.189490	52.135543
31113	1.385645	-0.605681	9.697710	-0.035844	0.012217	0.002148	1.000000	-0.000061	0.000021	0.000033	-3.788013	-8.187112	52.139175
31114	1.406525	-0.589968	9.665163	-0.030637	0.040219	-0.028047	1.000000	-0.000025	0.000014	0.000040	-3.783353	-8.188349	52.141539
31115	1.419202	-0.587108	9.712089	-0.032268	0.049120	0.019914	1.000000	-0.000058	-0.000000	0.000031	-3.789870	-8.188429	52.145118
31116	1.407867	-0.613883	9.691748	-0.014506	0.025101	-0.000038	1.000000	-0.000052	0.000031	0.000011	-3.785089	-8.183677	52.145971
31117	1.359327	-0.582508	9.676925	-0.066874	0.008559	-0.023642	1.000000	-0.000047	0.000018	0.000016	-3.790014	-8.181779	52.147719
31118	1.428297	-0.599165	9.659213	-0.009237	0.053137	-0.030228	1.000000	-0.000048	0.000016	0.000002	-3.787784	-8.182332	52.145989
31119	1.417668	-0.591136	9.712069	-0.029798	0.046784	0.019933	1.000000	-0.000046	0.000020	0.000030	-3.792838	-8.180146	52.149350
31120	1.404422	-0.595784	9.665112	-0.027320	0.037025	-0.028024	1.000000	-0.000039	0.000019	0.000022	-3.791156	-8.178481	52.150564
31121	1.385636	-0.567704	9.667848	-0.061574	0.040212	-0.029837	1.000000	-0.000049	0.000006	0.000030	-3.796544	-8.177856	52.153975
31122	1.416539	-0.594140	9.712050	-0.027653	0.045367	0.019946	1.000000	-0.000065	0.000038	0.000006	-3.796214	-8.171313	52.154762
31123	1.407806	-0.575155	9.661953	-0.041288	0.054799	-0.032026	1.000000	-0.000041	0.000011	0.000015	-3.800422	-8.170253	52.156393
31124	1.409329	-0.597900	9.688567	-0.026084	0.039774	-0.004030	1.000000	-0.000039	0.000019	0.000022	-3.798637	-8.170133	52.157204
31125	1.407116	-0.577021	9.661942	-0.040555	0.053702	-0.032017	1.000000	-0.000062	0.000019	0.000019	-3.805206	-8.168116	52.159227
31126	1.402197	-0.601912	9.665055	-0.023966	0.034345	-0.028006	1.000000	-0.000048	0.000012	0.000023	-3.802423	-8.165911	52.161785
31127	1.406403	-0.579172	9.661917	-0.039262	0.052768	-0.032006	1.000000	-0.000053	0.000025	0.000018	-3.807951	-8.163156	52.163639
31128	1.384653	-0.596879	9.694432	-0.042598	0.021856	-0.001813	1.000000	-0.000046	0.000020	0.000030	-3.802794	-8.164363	52.165203
31129	1.428647	-0.586406	9.656025	-0.019167	0.066249	-0.034192	1.000000	-0.000047	0.000018	0.000016	-3.807584	-8.162500	52.166950
31130	1.377403	-0.600708	9.670945	-0.040451	0.016100	-0.025790	1.000000	-0.000053	0.000025	0.000018	-3.803917	-8.160247	52.168509
31131	1.393711	-0.608617	9.641567	-0.020597	0.026716	-0.051974	1.000000	-0.000026	0.000012	0.000026	-3.806445	-8.159037	52.171474
31132	1.427437	-0.589277	9.656030	-0.017195	0.064202	-0.034174	1.000000	-0.000075	0.000026	0.000014	-3.809387	-8.157248	52.171512
31133	1.410417	-0.583316	9.685391	-0.036877	0.053309	-0.007988	1.000000	-0.000035	0.000005	0.000027	-3.812928	-8.156758	52.174640
31134	1.387042	-0.579006	9.691270	-0.054208	0.036624	-0.005773	1.000000	-0.000054	0.000020	0.000024	-3.806600	-8.155215	52.177256
31135	1.409777	-0.585207	9.685370	-0.035160	0.051712	-0.007973	1.000000	-0.000040	0.000017	0.000008	-3.810325	-8.153581	52.178056
31136	1.414072	-0.562477	9.682244	-0.049609	0.069266	-0.011944	1.000000	-0.000063	0.000013	0.000025	-3.809983	-8.153135	52.179968
31137	1.374920	-0.607689	9.670862	-0.036895	0.012316	-0.025770	1.000000	-0.000045	0.000030	0.000002	-3.814099	-8.150036	52.180050
31138	1.415038	-0.586367	9.708844	-0.033881	0.053252	0.016037	1.000000	-0.000041	0.000011	0.000015	-3.807577	-8.153203	52.180005
31139	1.403536	-0.612752	9.688480	-0.017590	0.030072	-0.003976	1.000000	-0.000035	0.000038	0.000016	-3.810732	-8.149116	52.181537
31140	1.401225	-0.591870	9.661900	-0.031470	0.043655	-0.031933	1.000000	-0.000070	0.000013	0.000019	-3.814122	-8.147297	52.183170
31141	1.424054	-0.598254	9.655977	-0.012415	0.058731	-0.034133	1.000000	-0.000041	0.000013	0.000029	-3.818144	-8.145991	52.186408
31142	1.400679	-0.593941	9.661852	-0.030925	0.042109	-0.031925	1.000000	-0.000048	0.000012	0.000023	-3.816968	-8.149312	52.187080
31143	1.388271	-0.564083	9.688129	-0.065950	0.049710	-0.009702	1.000000	-0.000047	0.000018	0.000016	-3.821515	-8.147533	52.188831
31144	1.429541	-0.599473	9.679414	-0.010577	0.059429	-0.010118	1.000000	-0.000063	0.000013	0.000025	-3.811113	-8.148511	52.192462
31145	1.376642	-0.591753	9.667691	-0.047548	0.024303	-0.029707	1.000000	-0.000033	0.000015	-0.000000	-3.813675	-8.147213	52.192331
31146	1.410461	-0.572318	9.682194	-0.043819	0.060699	-0.011860	1.000000	-0.000055	0.000014	0.000031	-3.809232	-8.150563	52.193668
31147	1.405573	-0.597236	9.685247	-0.028315	0.041947	-0.007904	1.000000	-0.000056	0.000012	0.000017	-3.814562	-8.149576	52.195587
31148	1.403551	-0.576247	9.658651	-0.041552	0.053971	-0.035832	1.000000	-0.000041	0.000011	0.000015	-3.805641	-8.153033	52.196302
31149	1.403360	-0.577186	9.658622	-0.041416	0.053748	-0.035830	1.000000	-0.000049	0.000006	0.000030	-3.810335	-8.152619	52.199721
31150	1.403104	-0.578248	9.658596	-0.040091	0.052473	-0.035817	1.000000	-0.000055	0.000018	0.000010	-3.805877	-8.151651	52.201531
31151	1.381473	-0.596026	9.691033	-0.044303	0.022900	-0.005682	1.000000	-0.000048	0.000012	0.000023	-3.810272	-8.150615	52.204119
31152	1.425716	-0.585543	9.652652	-0.020243	0.065740	-0.038001	1.000000	-0.000050	0.000004	0.000016	-3.806315	-8.155401	52.203759
31153	1.408629	-0.579607	9.682027	-0.039830	0.054695	-0.011807	1.000000	-0.000059	0.000033	0.000019	-3.811740	-8.152104	52.205749
31154	1.414440	-0.578954	9.705538	-0.040367	0.058175	0.012194	1.000000	-0.000053	0.000025	0.000017	-3.813437	-8.152627	52.205248
31155	1.424358	-0.588738	9.652659	-0.019706	0.064299	-0.037990	1.000000	-0.000041	0.000013	0.000029	-3.817004	-8.151580	52.208513
31156	1.402833	-0.606426	9.685073	-0.023235	0.033981	-0.007860	1.000000	-0.000050	0.000004	0.000016	-3.815680	-8.152444	52.210439
31157	1.400753	-0.585470	9.658502	-0.037688	0.047851	-0.035784	1.000000	-0.000053	0.000025	0.000017	-3.820443	-8.150022	52.212319
31158	1.402081	-0.608487	9.685053	-0.022638	0.031340	-0.007850	1.000000	-0.000047	0.000018	0.000016	-3.815239	-8.157370	52.211131
31159	1.401702	-0.609379	9.685051	-0.022498	0.031074	-0.007849	1.000000	-0.000040	0.000019	0.000022	-3.818493	-8.155806	52.213582
31160	1.422572	-0.593650	9.652621	-0.016794	0.059142	-0.037952	1.000000	-0.000060	0.000027	0.000026	-3.814592	-8.153659	52.217151
31161	1.382268	-0.582485	9.687899	-0.055311	0.032804	-0.009565	1.000000	-0.000046	0.000020	0.000030	-3.818698	-8.151861	52.220538
31162	1.432649	-0.570096	9.673092	-0.031424	0.080510	-0.017856	1.000000	-0.000038	0.000024	0.000015	-3.811960	-8.150131	52.223337
31163	1.404439	-0.589538	9.682036	-0.034825	0.046437	-0.011746	1.000000	-0.000054	0.000024	0.000003	-3.816393	-8.148126	52.223620
31164	1.410403	-0.588717	9.705538	-0.034098	0.049778	0.012263	1.000000	-0.000040	0.000019	0.000022	-3.810307	-8.145391	52.227279
31165	1.408263	-0.567526	9.679009	-0.048541	0.063630	-0.015642	1.000000	-0.000040	0.000019	0.000022	-3.813367	-8.143792	52.229718
31166	1.420084	-0.599310	9.652638	-0.011914	0.054842	-0.037920	1.000000	-0.000057	0.000006	0.000024	-3.809174	-8.142363	52.233986
31167	1.421631	-0.622420	9.679131	0.002885	0.040421	-0.010016	1.000000	-0.000048	0.000012	0.000023	-3.813197	-8.141452	52.236580
31168	1.401129	-0.572437	9.655433	-0.044801	0.056482	-0.039610	1.000000	-0.000055	0.000014	0.000031	-3.809057	-8.141487	52.240264
31169	1.413456	-0.569958	9.702437	-0.046142	0.065007	0.008394	1.000000	-0.000045	0.000030	0.000002	-3.812267	-8.138718	52.240372
31170	1.406774	-0.572605	9.678927	-0.044417	0.058088	-0.015588	1.000000	-0.000044	-0.000001	0.000028	-3.804083	-8.146851	52.242275
31171	1.372373	-0.594012	9.664305	-0.047009	0.019575	-0.033502	1.000000	-0.000067	0.000027	0.000020	-3.810064	-8.144414	52.244433
31172	1.405985	-0.574821	9.678910	-0.041908	0.055219	-0.015560	1.000000	-0.000038	0.000024	0.000015	-3.794450	-8.145024	52.248576
31173	1.405607	-0.575714	9.678912	-0.041695	0.054887	-0.015557	1.000000	-0.000048	0.000012	0.000023	-3.798148	-8.144214	52.251177
31174	1.398918	-0.578492	9.655393	-0.039419	0.047586	-0.039540	1.000000	-0.000055	0.000018	0.000010	-3.786784	-8.150191	52.252369
31175	1.423370	-0.606830	9.676016	-0.005620	0.048322	-0.013854	1.000000	-0.000046	0.000020	0.000030	-3.790243	-8.148514	52.255757
31176	1.391860	-0.582263	9.631866	-0.036987	0.041813	-0.063532	1.000000	-0.000049	0.000006	0.000030	-3.785738	-8.147073	52.260588
31177	1.410599	-0.578053	9.702373	-0.039000	0.054602	0.008488	1.000000	-0.000044	0.000032	0.000016	-3.788639	-8.144129	52.262315
31178	1.397387	-0.582386	9.655380	-0.037685	0.045094	-0.039521	1.000000	-0.000041	0.000013	0.000029	-3.791975	-8.146600	52.263290
31179	1.409887	-0.579799	9.702373	-0.038958	0.053497	0.008494	1.000000	-0.000041	0.000011	0.000015	-3.794615	-8.146094	52.264958
31180	1.379900	-0.577400	9.684756	-0.055994	0.031678	-0.013306	1.000000	-0.000072	0.000040	0.000015	-3.789704	-8.147462	52.265514
31181	1.420997	-0.612791	9.675989	-0.002500	0.043268	-0.013829	1.000000	-0.000035	0.000005	0.000027	-3.791726	-8.147533	52.268682
31182	1.385540	-0.577715	9.708245	-0.054660	0.034363	0.010720	1.000000	-0.000054	0.000020	0.000024	-3.784868	-8.144515	52.274210
31183	1.401816	-0.585846	9.678854	-0.034742	0.044874	-0.015479	1.000000	-0.000061	0.000025	0.000012	-3.789451	-8.142425	52.275433
31184	1.424610	-0.592151	9.672954	-0.013278	0.058417	-0.017658	1.000000	-0.000043	0.000005	0.000021	-3.776483	-8.140499	52.283977
31185	1.375208	-0.628552	9.714167	-0.020798	-0.005228	0.018429	1.000000	-0.000062	0.000019	0.000018	-3.781193	-8.138996	52.286019
31186	1.422182	-0.572298	9.646433	-0.026971	0.070789	-0.045495	1.000000	-0.000053	0.000026	0.000017	-3.778982	-8.140041	52.286954
31187	1.423383	-0.595450	9.672932	-0.012034	0.056207	-0.017643	1.000000	-0.000053	0.000026	0.000017	-3.782636	-8.137851	52.288839
31188	1.393527	-0.592988	9.655293	-0.028770	0.035494	-0.039451	1.000000	-0.000056	0.000012	0.000017	-3.778457	-8.136157	52.291646
31189	1.399585	-0.592337	9.678781	-0.029220	0.039453	-0.015438	1.000000	-0.000047	0.000018	0.000016	-3.781376	-8.134796	52.293414
31190	1.415951	-0.600248	9.649388	-0.009049	0.048072	-0.041632	1.000000	-0.000047	0.000018	0.000016	-3.776259	-8.141440	52.292832
31191	1.392457	-0.596021	9.655260	-0.027699	0.032395	-0.039437	1.000000	-0.000054	0.000020	0.000024	-3.780047	-8.139926	52.295549
31192	1.416824	-0.624391	9.675859	0.005914	0.033008	-0.013790	1.000000	-0.000046	0.000024	0.000009	-3.783827	-8.139174	52.294095
31193	1.374814	-0.591182	9.684648	-0.047073	0.020619	-0.013229	1.000000	-0.000061	0.000021	0.000032	-3.788572	-8.137434	52.297751
31194	1.425200	-0.578823	9.669945	-0.022782	0.068342	-0.021422	1.000000	-0.000023	0.000025	0.000027	-3.778016	-8.133983	52.303413
31195	1.403409	-0.596491	9.702300	-0.026736	0.038452	0.008605	1.000000	-0.000056	0.000012	0.000017	-3.781863	-8.133392	52.305344
31196	1.401400	-0.575433	9.675812	-0.040713	0.051156	-0.019214	1.000000	-0.000047	0.000018	0.000016	-3.778733	-8.135641	52.306019
31197	1.396336	-0.600186	9.678767	-0.025019	0.032182	-0.015399	1.000000	-0.000047	0.000020	0.000030	-3.781662	-8.134044	52.309402
31198	1.423744	-0.582739	9.669925	-0.020062	0.063470	-0.021383	1.000000	-0.000055	0.000014	0.000031	-3.772487	-8.138833	52.313050
31199	1.394003	-0.580286	9.652261	-0.037976	0.043430	-0.043205	1.000000	-0.000056	0.000012	0.000017	-3.776194	-8.138317	52.314988
31200	1.418459	-0.608723	9.672829	-0.003314	0.042755	-0.017568	1.000000	-0.000047	0.000020	0.000030	-3.770822	-8.140065	52.318510
31201	1.378211	-0.597500	9.708091	-0.041568	0.016089	0.010831	1.000000	-0.000047	0.000018	0.000016	-3.773447	-8.138862	52.320292
31202	1.422433	-0.586816	9.669871	-0.015291	0.059171	-0.021348	1.000000	-0.000042	0.000011	0.000014	-3.757493	-8.134006	52.329230
31203	1.405314	-0.580851	9.699256	-0.034586	0.047758	0.004868	1.000000	-0.000053	0.000026	0.000017	-3.760636	-8.131900	52.331114
31204	1.415118	-0.590561	9.646371	-0.012959	0.052396	-0.045350	1.000000	-0.000059	0.000033	0.000019	-3.754206	-8.132624	52.332444
31205	1.397836	-0.584791	9.675767	-0.032242	0.040965	-0.019135	1.000000	-0.000054	0.000020	0.000024	-3.757515	-8.131168	52.335155
31206	1.414248	-0.592766	9.646363	-0.011872	0.049357	-0.045333	1.000000	-0.000048	0.000012	0.000023	-3.750514	-8.138896	52.335390
31207	1.395372	-0.564665	9.649315	-0.045871	0.052145	-0.046913	1.000000	-0.000044	0.000032	0.000016	-3.752476	-8.136178	52.337127
31208	1.402941	-0.586041	9.699287	-0.030627	0.040873	0.004912	1.000000	-0.000041	0.000013	0.000029	-3.747061	-8.136296	52.342405
31209	1.396262	-0.588600	9.675763	-0.029590	0.036078	-0.019107	1.000000	-0.000047	0.000018	0.000016	-3.749336	-8.135139	52.344185
31210	1.402157	-0.588121	9.699275	-0.028436	0.038538	0.004928	1.000000	-0.000067	0.000027	0.000020	-3.742010	-8.133844	52.349272
31211	1.400079	-0.567093	9.672830	-0.042813	0.052289	-0.022851	1.000000	-0.000041	0.000013	0.000028	-3.743666	-8.133219	52.352545
31212	1.394991	-0.591781	9.675752	-0.026839	0.032307	-0.019086	1.000000	-0.000045	0.000026	0.000023	-3.741448	-8.134755	52.354506
31213	1.400868	-0.591179	9.699275	-0.027170	0.036092	0.004941	1.000000	-0.000054	0.000020	0.000024	-3.744536	-8.133396	52.357225
31214	1.394175	-0.593803	9.675746	-0.025484	0.029592	-0.019074	1.000000	-0.000041	0.000013	0.000028	-3.736945	-8.138419	52.359483
31215	1.404961	-0.569317	9.696334	-0.041230	0.051907	0.001208	1.000000	-0.000049	0.000011	0.000009	-3.739153	-8.138273	52.360487
31216	1.411971	-0.624740	9.672757	0.010629	0.024884	-0.017512	1.000000	-0.000045	0.000026	0.000023	-3.734705	-8.134301	52.366481
31217	1.397936	-0.572739	9.672808	-0.038767	0.046178	-0.022804	1.000000	-0.000036	0.000004	0.000013	-3.735427	-8.134891	52.368037
31218	1.402432	-0.549899	9.669877	-0.054809	0.063136	-0.026537	1.000000	-0.000055	0.000014	0.000031	-3.739429	-8.142782	52.365680
31219	1.397332	-0.574798	9.672773	-0.039030	0.044057	-0.022795	1.000000	-0.000053	0.000026	0.000017	-3.742191	-8.140891	52.367584
31220	1.424685	-0.557305	9.664010	-0.034098	0.076886	-0.028704	1.000000	-0.000047	0.000018	0.000016	-3.737393	-8.138136	52.371391
31221	1.391869	-0.600512	9.675664	-0.021793	0.023970	-0.019050	1.000000	-0.000041	0.000013	0.000028	-3.738911	-8.137609	52.374672
31222	1.396229	-0.577578	9.672766	-0.035954	0.040607	-0.022768	1.000000	-0.000040	0.000019	0.000022	-3.730894	-8.139675	52.377267
31223	1.414239	-0.607608	9.669789	-0.001246	0.036803	-0.021226	1.000000	-0.000054	0.000020	0.000024	-3.733794	-8.138408	52.379993
31224	1.420141	-0.607086	9.693306	0.000146	0.040187	0.002807	1.000000	-0.000054	0.000024	0.000003	-3.727085	-8.132325	52.385924
31225	1.401418	-0.578801	9.696285	-0.033807	0.042907	0.001280	1.000000	-0.000020	0.000006	0.000039	-3.726247	-8.132448	52.390425
31226	1.417948	-0.586505	9.666880	-0.013298	0.051785	-0.024925	1.000000	-0.000055	0.000014	0.000031	-3.720878	-8.137292	52.393868
31227	1.417670	-0.587650	9.666852	-0.012912	0.051235	-0.024922	1.000000	-0.000056	0.000012	0.000017	-3.723769	-8.136960	52.395807
31228	1.388048	-0.585042	9.649157	-0.030606	0.030335	-0.046761	1.000000	-0.000050	0.000005	0.000015	-3.722298	-8.140656	52.396514
31229	1.406821	-0.581252	9.719702	-0.032201	0.042534	0.025338	1.000000	-0.000047	0.000018	0.000016	-3.724146	-8.139633	52.398301
31230	1.412173	-0.614457	9.669658	0.005044	0.028685	-0.021200	1.000000	-0.000047	0.000018	0.000016	-3.714758	-8.141455	52.401249
31231	1.391769	-0.564158	9.646250	-0.043678	0.045683	-0.050441	1.000000	-0.000047	0.000018	0.000016	-3.716524	-8.140451	52.403036
31232	1.422414	-0.591034	9.690306	-0.009278	0.049972	-0.000856	1.000000	-0.000046	0.000022	0.000044	-3.712620	-8.137042	52.411154
31233	1.397257	-0.564541	9.669782	-0.042563	0.048418	-0.026392	1.000000	-0.000047	0.000018	0.000016	-3.714352	-8.136016	52.412937
31234	1.438562	-0.599828	9.660888	0.030487	0.019828	-0.026948	1.000000	-0.000044	-0.000001	0.000028	-3.479776	-8.254124	51.985009
31235	1.392076	-0.590413	9.672590	-0.006960	-0.011428	-0.022627	1.000000	-0.000068	0.000027	0.000020	-3.481904	-8.253093	51.984844
31236	1.391691	-0.591516	9.672578	-0.006366	-0.012332	-0.022628	1.000000	-0.000042	0.000011	0.000014	-3.480837	-8.253768	51.984579
31237	1.420833	-0.596193	9.690222	0.012627	0.006073	-0.000735	1.000000	-0.000055	0.000018	0.000010	-3.481370	-8.253813	51.983359
31238	1.414181	-0.598745	9.666682	0.013776	0.001045	-0.024789	1.000000	-0.000041	0.000013	0.000028	-3.480578	-8.254163	51.984166
31239	1.386037	-0.618164	9.675390	0.010647	-0.033710	-0.019060	1.000000	-0.000047	0.000018	0.000016	-3.480335	-8.254123	51.983617
31240	1.419828	-0.598978	9.690197	0.014356	0.003385	-0.000736	1.000000	-0.000040	0.000017	0.000008	-3.479132	-8.254102	51.981308
31241	1.390003	-0.596299	9.672527	-0.003524	-0.016826	-0.022633	1.000000	-0.000061	0.000021	0.000032	-3.480737	-8.253611	51.982634
31242	1.407945	-0.626383	9.669509	0.031350	-0.021265	-0.021230	1.000000	-0.000039	0.000023	0.000001	-3.479246	-8.253315	51.982028
31243	1.416990	-0.579643	9.663827	0.001280	0.015181	-0.028354	1.000000	-0.000040	0.000015	0.000042	-3.478628	-8.253506	51.984578
31244	1.399800	-0.573647	9.693229	-0.017676	0.003204	-0.002138	1.000000	-0.000039	0.000025	0.000015	-3.477048	-8.252670	51.985140
31245	1.388374	-0.599881	9.672540	-0.001241	-0.020503	-0.022639	1.000000	-0.000049	0.000012	0.000023	-3.477057	-8.253254	51.985411
31246	1.417409	-0.604653	9.690199	0.017787	-0.002105	-0.000741	1.000000	-0.000053	0.000026	0.000017	-3.477446	-8.252215	51.984252
31247	1.385926	-0.579633	9.646174	-0.014861	-0.007739	-0.050251	1.000000	-0.000040	0.000019	0.000022	-3.476429	-8.252088	51.984371
31248	1.393371	-0.601290	9.696077	-0.000107	-0.019038	0.001413	1.000000	-0.000052	0.000028	0.000031	-3.477259	-8.250655	51.983857
31249	1.391289	-0.580223	9.669715	-0.014307	-0.005378	-0.026192	1.000000	-0.000062	0.000019	0.000018	-3.478719	-8.250471	51.983571
31250	1.414091	-0.586412	9.663844	0.005268	0.008884	-0.028348	1.000000	-0.000027	0.000010	0.000012	-3.476063	-8.251397	51.983636
31251	1.396946	-0.580405	9.693238	-0.013729	-0.003085	-0.002132	1.000000	-0.000053	0.000026	0.000017	-3.476495	-8.250501	51.983200
31252	1.419591	-0.586855	9.687375	0.005863	0.011124	-0.004287	1.000000	-0.000062	0.000019	0.000018	-3.477648	-8.250467	51.985491
31253	1.378718	-0.609602	9.648974	0.003824	-0.031845	-0.046718	1.000000	-0.000054	0.000020	0.000024	-3.478333	-8.250198	51.985875
31254	1.389372	-0.585323	9.669683	-0.011453	-0.010008	-0.026192	1.000000	-0.000047	0.000018	0.000016	-3.477834	-8.250263	51.987825
31255	1.428961	-0.598326	9.634421	0.027664	0.015329	-0.054563	1.000000	-0.000042	0.000011	0.000014	-3.476921	-8.251070	51.987156
31256	1.395112	-0.585638	9.693188	-0.010870	-0.007752	-0.002131	1.000000	-0.000048	0.000014	0.000037	-3.476955	-8.251444	51.990981
31257	1.393075	-0.564328	9.666853	-0.025081	0.005931	-0.029717	1.000000	-0.000045	0.000030	0.000002	-3.476211	-8.250144	51.988785
31258	1.415759	-0.570620	9.660998	-0.005496	0.020189	-0.031868	1.000000	-0.000056	0.000012	0.000017	-3.476888	-8.250766	51.989655
31259	1.393825	-0.588719	9.693186	-0.009168	-0.010484	-0.002132	1.000000	-0.000052	0.000028	0.000031	-3.477471	-8.249560	51.990825
31260	1.393412	-0.589838	9.693178	-0.008619	-0.011329	-0.002132	1.000000	-0.000056	0.000012	0.000017	-3.478547	-8.249978	51.988410
31261	1.391495	-0.568624	9.666829	-0.022836	0.002364	-0.029710	1.000000	-0.000047	0.000020	0.000030	-3.478458	-8.249624	51.989464
31262	1.414181	-0.574965	9.660971	-0.003244	0.016681	-0.031861	1.000000	-0.000054	0.000020	0.000024	-3.479227	-8.249023	51.987992
31263	1.392310	-0.593015	9.693142	-0.006914	-0.014003	-0.002134	1.000000	-0.000049	0.000012	0.000023	-3.479242	-8.249603	51.988257
31264	1.396690	-0.570369	9.690335	-0.021606	0.003794	-0.005640	1.000000	-0.000061	0.000021	0.000032	-3.480639	-8.248831	51.989072
31265	1.419620	-0.576850	9.684434	-0.002036	0.018053	-0.007791	1.000000	-0.000053	-0.000007	0.000029	-3.481262	-8.251602	51.990191
31266	1.408492	-0.603253	9.663625	0.014389	-0.005601	-0.028355	1.000000	-0.000056	0.000012	0.000017	-3.482007	-8.252070	51.989078
31267	1.420604	-0.601472	9.710698	0.013897	0.001637	0.019777	1.000000	-0.000065	0.000039	0.000006	-3.483640	-8.249772	51.987262
31268	1.407541	-0.605478	9.663624	0.015550	-0.007393	-0.028358	1.000000	-0.000035	0.000006	0.000027	-3.482086	-8.250868	51.987135
31269	1.412030	-0.582549	9.660832	0.000801	0.010394	-0.031852	1.000000	-0.000047	0.000018	0.000016	-3.481849	-8.250820	51.986579
31270	1.423688	-0.614154	9.634206	0.036238	0.001896	-0.054579	1.000000	-0.000054	0.000020	0.000024	-3.482377	-8.250398	51.987004
31271	1.406549	-0.608435	9.663583	0.017265	-0.010111	-0.028363	1.000000	-0.000049	0.000013	0.000023	-3.482393	-8.250976	51.987268
31272	1.410916	-0.585543	9.660813	0.002538	0.007671	-0.031849	1.000000	-0.000039	0.000025	0.000015	-3.480999	-8.250173	51.987191
31273	1.393645	-0.579801	9.690213	-0.016431	-0.004342	-0.005631	1.000000	-0.000061	0.000021	0.000032	-3.482614	-8.249674	51.988506
31274	1.380804	-0.583856	9.643101	-0.014883	-0.013376	-0.053769	1.000000	-0.000044	-0.000001	0.000028	-3.482373	-8.251941	51.991270
31275	1.416256	-0.587061	9.684313	0.003659	0.008995	-0.007779	1.000000	-0.000039	0.000025	0.000015	-3.481108	-8.251181	51.990564
31276	1.415855	-0.588037	9.684312	0.004290	0.008079	-0.007778	1.000000	-0.000056	0.000014	0.000031	-3.481701	-8.251311	51.991447
31277	1.415416	-0.589170	9.684307	0.004851	0.007171	-0.007778	1.000000	-0.000052	0.000028	0.000031	-3.482288	-8.250100	51.992613
31278	1.403939	-0.615477	9.663516	0.021213	-0.016437	-0.028379	1.000000	-0.000049	0.000013	0.000023	-3.482556	-8.250499	51.990991
31279	1.419459	-0.567456	9.681534	-0.009348	0.024105	-0.011243	1.000000	-0.000048	0.000014	0.000037	-3.482724	-8.250768	51.992861
31280	1.407921	-0.593671	9.660754	0.007027	0.000398	-0.031848	1.000000	-0.000044	0.000032	0.000016	-3.481931	-8.249398	51.995991
31281	1.425704	-0.623716	9.657672	0.041906	-0.004047	-0.030535	1.000000	-0.000046	0.000022	0.000044	-3.481997	-8.248732	51.998648
31282	1.383655	-0.590331	9.666653	-0.010887	-0.016579	-0.029703	1.000000	-0.000051	0.000038	0.000004	-3.482021	-8.246639	51.997453
31283	1.407664	-0.619000	9.687115	0.023490	-0.016988	-0.004322	1.000000	-0.000053	0.000026	0.000017	-3.482461	-8.245734	51.997009
31284	1.418277	-0.594574	9.707933	0.008273	0.004821	0.016296	1.000000	-0.000025	0.000018	0.000019	-3.479537	-8.245728	51.998199
31285	1.411428	-0.596728	9.684427	0.009335	-0.000122	-0.007778	1.000000	-0.000043	0.000038	0.000010	-3.478695	-8.243484	51.996787
31286	1.433891	-0.602934	9.678617	0.028855	0.014188	-0.009924	1.000000	-0.000046	0.000026	0.000023	-3.478813	-8.242431	51.995479
31287	1.403983	-0.599946	9.660940	0.010899	-0.005911	-0.031854	1.000000	-0.000039	0.000025	0.000015	-3.477551	-8.241668	51.994770
31288	1.414513	-0.575727	9.681770	-0.004343	0.015917	-0.011223	1.000000	-0.000060	0.000027	0.000025	-3.478931	-8.240524	51.995553
31289	1.390981	-0.571368	9.687621	-0.022797	-0.000153	-0.009077	1.000000	-0.000034	0.000016	-0.000001	-3.476846	-8.240920	51.993120
31290	1.413556	-0.577635	9.681796	-0.003204	0.014083	-0.011220	1.000000	-0.000065	0.000039	0.000006	-3.478335	-8.238634	51.992360
31291	1.406739	-0.580292	9.658253	-0.002152	0.009156	-0.035294	1.000000	-0.000056	0.000014	0.000031	-3.479283	-8.238983	51.993554
31292	1.389697	-0.574516	9.687619	-0.021086	-0.002875	-0.009074	1.000000	-0.000035	0.000006	0.000027	-3.477878	-8.240197	51.993168
31293	1.378437	-0.600615	9.666765	-0.004734	-0.026507	-0.029720	1.000000	-0.000049	0.000013	0.000022	-3.477899	-8.240770	51.993425
31294	1.384451	-0.600191	9.690290	-0.004649	-0.023408	-0.005645	1.000000	-0.000049	0.000013	0.000022	-3.477840	-8.241331	51.994288
31295	1.411980	-0.582704	9.681722	-0.000376	0.009556	-0.011214	1.000000	-0.000047	0.000020	0.000030	-3.477759	-8.240969	51.995333
31296	1.388475	-0.578376	9.687565	-0.018821	-0.006487	-0.009071	1.000000	-0.000047	0.000018	0.000016	-3.477573	-8.240754	51.993530
31297	1.405027	-0.586105	9.658151	0.001238	0.003760	-0.035290	1.000000	-0.000050	0.000007	0.000029	-3.477849	-8.241955	51.994606
31298	1.394183	-0.578870	9.711083	-0.018165	-0.004295	0.015009	1.000000	-0.000039	0.000023	0.000001	-3.476384	-8.241426	51.992107
31299	1.381402	-0.582405	9.663972	-0.016647	-0.013208	-0.033149	1.000000	-0.000030	-0.000002	0.000025	-3.474283	-8.243625	51.992805
31300	1.387618	-0.581967	9.687473	-0.016558	-0.010120	-0.009070	1.000000	-0.000065	0.000006	0.000018	-3.476065	-8.244990	51.993634
31301	1.392130	-0.559459	9.684736	-0.031300	0.007687	-0.012478	1.000000	-0.000062	0.000020	0.000018	-3.477538	-8.244789	51.993332
31302	1.421178	-0.564487	9.702427	-0.012180	0.025903	0.009464	1.000000	-0.000049	0.000013	0.000022	-3.477373	-8.245439	51.995945
31303	1.374817	-0.554990	9.714071	-0.049652	-0.005326	0.013747	1.000000	-0.000059	0.000000	0.000030	-3.478681	-8.247348	51.997165
31304	1.391413	-0.562870	9.684642	-0.029593	0.004947	-0.012471	1.000000	-0.000054	0.000020	0.000024	-3.479386	-8.246972	51.997325
31305	1.384741	-0.565309	9.661086	-0.028562	0.000052	-0.036551	1.000000	-0.000047	0.000018	0.000016	-3.479157	-8.246914	51.996760
31306	1.409126	-0.594101	9.681446	0.005886	-0.000461	-0.011211	1.000000	-0.000059	0.000000	0.000030	-3.480168	-8.248842	52.000151
31307	1.414015	-0.571417	9.678681	-0.008855	0.017349	-0.014604	1.000000	-0.000047	-0.000014	0.000027	-3.480129	-8.252458	52.001138
31308	1.402990	-0.597889	9.657725	0.007472	-0.006256	-0.035295	1.000000	-0.000080	0.000007	0.000020	-3.483675	-8.253664	52.001838
31309	1.425949	-0.604440	9.651824	0.027050	0.007996	-0.037434	1.000000	-0.000043	0.000005	0.000021	-3.483027	-8.255088	52.001976
31310	1.408801	-0.598730	9.681208	0.008156	-0.004091	-0.011213	1.000000	-0.000053	0.000026	0.000017	-3.483349	-8.254070	52.001476
31311	1.402208	-0.601160	9.657636	0.009177	-0.008974	-0.035298	1.000000	-0.000051	0.000005	0.000015	-3.483478	-8.255573	52.000939
31312	1.425118	-0.607482	9.651755	0.028762	0.005280	-0.037437	1.000000	-0.000049	0.000013	0.000022	-3.483477	-8.256111	52.001754
31313	1.437345	-0.605714	9.698849	0.028405	0.012314	0.010731	1.000000	-0.000047	0.000019	0.000016	-3.483250	-8.256051	52.001188
31314	1.401232	-0.604317	9.657580	0.010820	-0.011651	-0.035303	1.000000	-0.000068	0.000027	0.000020	-3.485739	-8.254957	51.999727
31315	1.424063	-0.610631	9.651712	0.030398	0.002599	-0.037441	1.000000	-0.000030	-0.000002	0.000025	-3.483642	-8.257155	52.000421
31316	1.417585	-0.612880	9.628132	0.031413	-0.002250	-0.061528	1.000000	-0.000054	0.000020	0.000024	-3.484410	-8.256765	51.999748
31317	1.406573	-0.605789	9.681092	0.012046	-0.010388	-0.011222	1.000000	-0.000039	0.000025	0.000015	-3.483152	-8.255995	51.999036
31318	1.423012	-0.613298	9.651698	0.032079	-0.000071	-0.037446	1.000000	-0.000041	0.000013	0.000028	-3.482505	-8.256343	51.998154
31319	1.416332	-0.615568	9.628145	0.033087	-0.004935	-0.061535	1.000000	-0.000046	0.000026	0.000023	-3.482177	-8.255348	51.998376
31320	1.411486	-0.607202	9.704672	0.013268	-0.009121	0.012860	1.000000	-0.000053	0.000028	0.000031	-3.482867	-8.254137	51.999760
31321	1.434084	-0.613568	9.698838	0.032851	0.005122	0.010724	1.000000	-0.000047	0.000020	0.000030	-3.482793	-8.253770	52.000800
31322	1.408923	-0.586680	9.678510	-0.000472	0.003848	-0.014585	1.000000	-0.000036	0.000038	0.000015	-3.481270	-8.251420	51.999869
31323	1.386904	-0.604491	9.710564	-0.004080	-0.026996	0.014989	1.000000	-0.000030	-0.000002	0.000025	-3.479174	-8.253617	52.000561
31324	1.413016	-0.564433	9.675880	-0.014670	0.020768	-0.017934	1.000000	-0.000051	0.000034	0.000024	-3.479644	-8.251824	52.001415
31325	1.407692	-0.589092	9.678543	0.001187	0.001129	-0.014585	1.000000	-0.000033	0.000017	0.000013	-3.477714	-8.251907	52.000586
31326	1.413512	-0.588560	9.702117	0.001317	0.004163	0.009505	1.000000	-0.000046	0.000026	0.000023	-3.477350	-8.250877	52.000830
31327	1.388441	-0.561666	9.681783	-0.032003	0.002894	-0.015793	1.000000	-0.000039	0.000025	0.000015	-3.476095	-8.250105	52.000117
31328	1.409775	-0.545310	9.649755	-0.027261	0.031940	-0.045352	1.000000	-0.000035	0.000006	0.000027	-3.474608	-8.251369	52.000481
31329	1.382921	-0.587064	9.684422	-0.015570	-0.017650	-0.012454	1.000000	-0.000044	0.000032	0.000016	-3.474027	-8.249741	51.999883
31330	1.410241	-0.569454	9.675990	-0.011265	0.015335	-0.017919	1.000000	-0.000038	0.000027	0.000029	-3.472879	-8.248583	52.000097
31331	1.381512	-0.588959	9.684508	-0.014435	-0.019459	-0.012455	1.000000	-0.000062	0.000054	0.000021	-3.474321	-8.244389	51.999846
31332	1.408684	-0.571400	9.676102	-0.010150	0.013501	-0.017915	1.000000	-0.000025	0.000020	0.000033	-3.471723	-8.244202	52.003320
31333	1.391343	-0.565588	9.705519	-0.029042	0.001368	0.008310	1.000000	-0.000053	0.000028	0.000031	-3.472326	-8.242977	52.004473
31334	1.407510	-0.573302	9.676161	-0.009004	0.011672	-0.017912	1.000000	-0.000050	0.000040	0.000018	-3.472254	-8.240467	52.004715
31335	1.367090	-0.562434	9.711389	-0.046919	-0.015616	0.010443	1.000000	-0.000058	0.000006	0.000023	-3.473317	-8.241739	52.005104
31336	1.396154	-0.567523	9.729099	-0.027757	0.002548	0.032408	1.000000	-0.000047	0.000020	0.000030	-3.473261	-8.241358	52.006472
31337	1.373746	-0.618606	9.687180	0.004239	-0.043676	-0.009149	1.000000	-0.000036	0.000004	0.000013	-3.471690	-8.243002	52.005668
31338	1.378302	-0.595841	9.684544	-0.010489	-0.025835	-0.012465	1.000000	-0.000069	0.000023	-0.000009	-3.473551	-8.242476	52.002101
31339	1.377925	-0.597081	9.684521	-0.009929	-0.026743	-0.012467	1.000000	-0.000056	0.000014	0.000031	-3.474513	-8.242813	52.003280
31340	1.382538	-0.574383	9.681882	-0.024683	-0.008892	-0.015776	1.000000	-0.000051	0.000005	0.000015	-3.474810	-8.244305	52.003021
31341	1.404057	-0.558290	9.649846	-0.019973	0.020185	-0.045303	1.000000	-0.000057	0.000011	0.000003	-3.475468	-8.245248	52.000983
31342	1.359044	-0.571252	9.687639	-0.042571	-0.025826	-0.013647	1.000000	-0.000056	0.000012	0.000017	-3.476289	-8.245689	51.998553
31343	1.388263	-0.576374	9.705326	-0.023397	-0.007680	0.008322	1.000000	-0.000052	-0.000001	0.000022	-3.476680	-8.247814	51.998824
31344	1.409844	-0.560361	9.673283	-0.018666	0.021403	-0.021198	1.000000	-0.000065	0.000010	-0.000003	-3.478021	-8.248753	51.996608
31345	1.409772	-0.561548	9.673225	-0.018106	0.020496	-0.021195	1.000000	-0.000052	-0.000005	0.000043	-3.478820	-8.251204	51.999305
31346	1.381831	-0.581061	9.681585	-0.021249	-0.014309	-0.015774	1.000000	-0.000044	0.000001	0.000042	-3.478421	-8.252848	52.002217
31347	1.398387	-0.588696	9.652167	-0.001253	-0.003963	-0.041999	1.000000	-0.000053	0.000026	0.000017	-3.478876	-8.251923	52.001759
31348	1.404404	-0.588578	9.675695	-0.001059	-0.000991	-0.017901	1.000000	-0.000060	-0.000005	0.000037	-3.480204	-8.254371	52.004954
31349	1.432288	-0.571270	9.667220	0.003239	0.031997	-0.023310	1.000000	-0.000050	0.000007	0.000029	-3.480494	-8.255561	52.006014
31350	1.386797	-0.617051	9.631049	0.016159	-0.029305	-0.062818	1.000000	-0.000041	0.000013	0.000028	-3.479838	-8.255920	52.005761
31351	1.445212	-0.626085	9.666495	0.053971	0.007857	-0.018874	1.000000	-0.000049	0.000013	0.000022	-3.479874	-8.256480	52.006004
31352	1.403550	-0.592610	9.675573	0.001198	-0.004590	-0.017902	1.000000	-0.000048	0.000017	0.000002	-3.479452	-8.256640	52.003962
31353	1.438762	-0.596354	9.716870	0.019991	0.017412	0.028173	1.000000	-0.000047	0.000020	0.000030	-3.479386	-8.256266	52.004994
31354	1.432291	-0.598594	9.693277	0.020945	0.012624	0.004073	1.000000	-0.000044	-0.000001	0.000028	-3.479048	-8.258315	52.006746
31355	1.414820	-0.625963	9.648662	0.037587	-0.014792	-0.040861	1.000000	-0.000056	0.000012	0.000017	-3.479861	-8.258951	52.006313
31356	1.430364	-0.578285	9.667088	0.007202	0.025678	-0.023293	1.000000	-0.000061	0.000026	0.000011	-3.480953	-8.258015	52.005289
31357	1.419019	-0.604478	9.646048	0.023444	0.002145	-0.044131	1.000000	-0.000052	-0.000001	0.000022	-3.481347	-8.260137	52.005556
31358	1.431311	-0.602969	9.693150	0.023221	0.008993	0.004072	1.000000	-0.000048	0.000019	0.000016	-3.481173	-8.260005	52.004456
31359	1.442945	-0.634317	9.666297	0.058491	0.000605	-0.018897	1.000000	-0.000048	0.000019	0.000016	-3.480955	-8.259932	52.003879
31360	1.424430	-0.606058	9.669561	0.024766	0.003305	-0.020032	1.000000	-0.000035	0.000006	0.000027	-3.479382	-8.261158	52.004011
31361	1.435138	-0.581978	9.690577	0.009652	0.025017	0.000818	1.000000	-0.000060	0.000032	0.000005	-3.480361	-8.259675	52.002058
31362	1.417136	-0.609357	9.646018	0.026294	-0.002377	-0.044138	1.000000	-0.000051	0.000038	0.000004	-3.480186	-8.257422	51.999658
31363	1.404478	-0.579890	9.672913	-0.007849	0.004191	-0.021161	1.000000	-0.000038	0.000027	0.000029	-3.479091	-8.256340	52.000548
31364	1.420945	-0.587236	9.643523	0.012108	0.014579	-0.047386	1.000000	-0.000034	0.000012	0.000020	-3.477539	-8.257070	52.000579
31365	1.404974	-0.604063	9.699055	0.008158	-0.012518	0.006187	1.000000	-0.000051	0.000038	0.000004	-3.477487	-8.254879	51.998484
31366	1.409133	-0.581224	9.696559	-0.006569	0.005332	0.002946	1.000000	-0.000045	0.000032	0.000016	-3.476930	-8.253248	51.998006
31367	1.408463	-0.582147	9.696601	-0.006007	0.004423	0.002947	1.000000	-0.000044	0.000034	0.000030	-3.476511	-8.251308	51.999011
31368	1.406422	-0.560580	9.670533	-0.020354	0.018443	-0.024392	1.000000	-0.000052	0.000032	0.000010	-3.476779	-8.249671	51.996244
31369	1.377912	-0.580067	9.678909	-0.023544	-0.016366	-0.019038	1.000000	-0.000046	0.000022	0.000044	-3.476872	-8.248992	51.998881
31370	1.378675	-0.603634	9.705035	-0.008056	-0.032220	0.008297	1.000000	-0.000051	0.000038	0.000004	-3.476644	-8.246872	51.999043
31371	1.364894	-0.551551	9.705815	-0.057098	-0.010746	0.003962	1.000000	-0.000029	0.000000	0.000039	-3.474712	-8.248764	52.001332
31372	1.399589	-0.588023	9.673130	-0.002810	-0.003966	-0.021158	1.000000	-0.000043	0.000040	0.000024	-3.474053	-8.246139	52.000945
31373	1.393201	-0.557306	9.723617	-0.037306	0.006425	0.025956	1.000000	-0.000040	0.000019	0.000021	-3.473062	-8.245988	52.001041
31374	1.375379	-0.584486	9.679003	-0.020739	-0.020901	-0.019040	1.000000	-0.000052	0.000032	0.000010	-3.473402	-8.244383	51.998916
31375	1.381150	-0.584287	9.702581	-0.020545	-0.017975	0.005067	1.000000	-0.000049	0.000013	0.000022	-3.473443	-8.244937	51.999152
31376	1.385819	-0.561512	9.700035	-0.035254	-0.000124	0.001854	1.000000	-0.000051	0.000005	0.000015	-3.473507	-8.246402	51.999330
31377	1.379312	-0.563606	9.676448	-0.034329	-0.004860	-0.022253	1.000000	-0.000032	0.000021	0.000041	-3.471894	-8.245873	52.001709
31378	1.403319	-0.592545	9.696717	0.000195	-0.005568	0.002948	1.000000	-0.000069	0.000024	-0.000009	-3.473723	-8.245360	51.998853
31379	1.395377	-0.572272	9.647043	-0.013806	0.004643	-0.048477	1.000000	-0.000041	0.000013	0.000028	-3.472989	-8.245839	51.999764
31380	1.412405	-0.547003	9.691680	-0.029243	0.030175	-0.003457	1.000000	-0.000049	0.000013	0.000022	-3.473107	-8.246273	51.998467
31381	1.396232	-0.596825	9.673076	0.002238	-0.012092	-0.021165	1.000000	-0.000050	0.000007	0.000029	-3.473406	-8.247457	51.999517
31382	1.377780	-0.568722	9.676367	-0.031510	-0.009355	-0.022247	1.000000	-0.000049	0.000013	0.000022	-3.473445	-8.247922	51.998979
31383	1.423770	-0.580494	9.664692	0.007125	0.020014	-0.026477	1.000000	-0.000058	0.000007	0.000023	-3.474522	-8.249180	51.999352
31384	1.395632	-0.599997	9.672967	0.003950	-0.014806	-0.021169	1.000000	-0.000042	0.000007	0.000035	-3.473925	-8.250228	52.001405
31385	1.434416	-0.557499	9.685725	-0.007363	0.040779	-0.005551	1.000000	-0.000048	0.000019	0.000016	-3.473713	-8.250149	52.000822
31386	1.429305	-0.582403	9.688184	0.008498	0.021092	-0.002361	1.000000	-0.000058	0.000002	0.000044	-3.475088	-8.251690	52.003906
31387	1.411684	-0.609743	9.643487	0.025035	-0.006203	-0.047402	1.000000	-0.000053	0.000026	0.000017	-3.475553	-8.250752	52.003438
31388	1.399205	-0.580521	9.670404	-0.009054	0.000316	-0.024357	1.000000	-0.000055	0.000020	0.000024	-3.476136	-8.250465	52.005357
31389	1.412257	-0.634536	9.669520	0.041103	-0.023003	-0.020114	1.000000	-0.000050	0.000007	0.000029	-3.476438	-8.251647	52.006405
31390	1.398622	-0.582693	9.670357	-0.007929	-0.001492	-0.024356	1.000000	-0.000055	0.000020	0.000024	-3.477153	-8.251300	52.006552
31391	1.439517	-0.618232	9.661190	0.045988	0.009097	-0.025409	1.000000	-0.000047	0.000020	0.000030	-3.477097	-8.250918	52.007576
31392	1.420893	-0.590074	9.664535	0.012248	0.011822	-0.026469	1.000000	-0.000048	0.000019	0.000016	-3.476775	-8.250809	52.007506
31393	1.415736	-0.614875	9.666983	0.028086	-0.007862	-0.023301	1.000000	-0.000050	0.000007	0.000029	-3.477078	-8.251990	52.008552
31394	1.392289	-0.610595	9.672785	0.009619	-0.023914	-0.021191	1.000000	-0.000053	0.000026	0.000017	-3.477451	-8.251050	52.008954
31395	1.413552	-0.594253	9.640935	0.014277	0.005304	-0.050584	1.000000	-0.000039	0.000025	0.000015	-3.476207	-8.250263	52.008230
31396	1.419303	-0.594043	9.664525	0.014497	0.008192	-0.026468	1.000000	-0.000055	0.000020	0.000024	-3.476974	-8.249937	52.008547
31397	1.420278	-0.617739	9.690553	0.030001	-0.007711	0.000806	1.000000	-0.000049	0.000013	0.000022	-3.477021	-8.250486	52.008777
31398	1.412218	-0.597284	9.640943	0.015952	0.002598	-0.050586	1.000000	-0.000050	0.000040	0.000018	-3.477122	-8.247961	52.008394
31399	1.417834	-0.597054	9.664555	0.016180	0.005473	-0.026469	1.000000	-0.000040	0.000019	0.000021	-3.476136	-8.247804	52.008485
31400	1.394316	-0.592554	9.670380	-0.002303	-0.010564	-0.024359	1.000000	-0.000039	0.000021	0.000035	-3.475334	-8.247337	52.009991
31401	1.393797	-0.593425	9.670401	-0.001744	-0.011471	-0.024360	1.000000	-0.000045	0.000031	0.000002	-3.474612	-8.245991	52.007774
31402	1.404440	-0.569505	9.691541	-0.016783	0.010181	-0.003387	1.000000	-0.000056	0.000014	0.000030	-3.475587	-8.246287	52.008694
31403	1.409955	-0.602097	9.640975	0.018746	-0.001919	-0.050591	1.000000	-0.000057	0.000013	0.000016	-3.476413	-8.246908	52.008245
31404	1.374392	-0.567416	9.673753	-0.034372	-0.010541	-0.025394	1.000000	-0.000037	0.000033	0.000022	-3.475023	-8.245180	52.008544
31405	1.385800	-0.598565	9.646828	0.000827	-0.018865	-0.048485	1.000000	-0.000046	0.000026	0.000023	-3.474715	-8.244164	52.008749
31406	1.403877	-0.596012	9.717608	0.000418	-0.008480	0.023874	1.000000	-0.000039	0.000025	0.000015	-3.473504	-8.243409	52.009285
31407	1.372885	-0.569983	9.673816	-0.032700	-0.013261	-0.025391	1.000000	-0.000041	0.000013	0.000028	-3.472776	-8.243882	52.010189
31408	1.386024	-0.591463	9.747024	-0.017811	-0.021667	0.050101	1.000000	-0.000065	0.000041	0.000020	-3.474598	-8.241161	52.009534
31409	1.394837	-0.577568	9.668037	-0.012531	0.000067	-0.027498	1.000000	-0.000048	0.000019	0.000016	-3.474391	-8.241075	52.008945
31410	1.402017	-0.600008	9.717631	0.002693	-0.012116	0.023870	1.000000	-0.000042	0.000011	0.000014	-3.473427	-8.241776	52.007795
31411	1.394281	-0.579470	9.668003	-0.011393	-0.001744	-0.027496	1.000000	-0.000057	0.000013	0.000016	-3.474254	-8.242395	52.007344
31412	1.393929	-0.580471	9.667994	-0.010817	-0.002665	-0.027496	1.000000	-0.000039	0.000021	0.000035	-3.473298	-8.241945	52.010658
31413	1.404669	-0.556489	9.689158	-0.025841	0.018966	-0.006489	1.000000	-0.000049	0.000013	0.000022	-3.473349	-8.242490	52.010883
31414	1.399495	-0.581359	9.691553	-0.009998	-0.000739	-0.003373	1.000000	-0.000057	0.000013	0.000016	-3.474117	-8.243112	52.011640
31415	1.376073	-0.577060	9.697345	-0.028481	-0.016778	-0.001266	1.000000	-0.000048	0.000019	0.000016	-3.473912	-8.243024	52.011050
31416	1.398792	-0.583383	9.691533	-0.008872	-0.002545	-0.003372	1.000000	-0.000048	0.000019	0.000016	-3.473731	-8.242878	52.009639
31417	1.397274	-0.561555	9.665515	-0.023280	0.011599	-0.030601	1.000000	-0.000036	0.000004	0.000013	-3.472173	-8.244508	52.008818
31418	1.387400	-0.609977	9.670291	0.007831	-0.026892	-0.024393	1.000000	-0.000044	-0.000001	0.000027	-3.471777	-8.246521	52.010450
31419	1.415229	-0.592734	9.662027	0.012163	0.006124	-0.029601	1.000000	-0.000071	0.000016	0.000033	-3.474473	-8.246684	52.011856
31420	1.421052	-0.592775	9.685601	0.012424	0.008950	-0.005476	1.000000	-0.000040	0.000019	0.000021	-3.473487	-8.246524	52.012947
31421	1.424423	-0.547091	9.657198	-0.017261	0.041899	-0.035791	1.000000	-0.000036	0.000006	0.000027	-3.472086	-8.247854	52.013733
31422	1.397555	-0.589114	9.691364	-0.005493	-0.007992	-0.003372	1.000000	-0.000051	0.000005	0.000015	-3.472236	-8.249282	52.012592
31423	1.419192	-0.572860	9.659528	-0.000863	0.021298	-0.032692	1.000000	-0.000057	0.000013	0.000016	-3.473066	-8.249898	52.012137
31424	1.409092	-0.621522	9.664291	0.030255	-0.017196	-0.026516	1.000000	-0.000049	0.000013	0.000022	-3.473069	-8.250362	52.011384
31425	1.418705	-0.574965	9.659475	0.000273	0.019492	-0.032688	1.000000	-0.000050	0.000007	0.000029	-3.473380	-8.251537	52.012421
31426	1.419758	-0.598765	9.685422	0.015813	0.003518	-0.005477	1.000000	-0.000057	0.000013	0.000016	-3.474250	-8.252099	52.011329
31427	1.419495	-0.599907	9.685390	0.016374	0.002609	-0.005478	1.000000	-0.000057	0.000013	0.000016	-3.475082	-8.252713	52.010873
31428	1.412908	-0.602039	9.661791	0.017222	-0.002011	-0.029607	1.000000	-0.000046	0.000026	0.000023	-3.474799	-8.251678	52.011231
31429	1.411107	-0.580278	9.635837	0.002798	0.012170	-0.056810	1.000000	-0.000046	0.000026	0.000023	-3.474496	-8.250656	52.011432
31430	1.393839	-0.574838	9.665230	-0.015969	-0.000148	-0.030579	1.000000	-0.000050	0.000007	0.000029	-3.474787	-8.251794	52.012241
31431	1.411813	-0.604943	9.661770	0.018908	-0.004729	-0.029611	1.000000	-0.000042	0.000011	0.000014	-3.473908	-8.252563	52.011533
31432	1.419015	-0.627440	9.711313	0.034168	-0.017033	0.021713	1.000000	-0.000042	0.000011	0.000014	-3.473021	-8.253381	52.011958
31433	1.416060	-0.582880	9.659389	0.004754	0.012253	-0.032678	1.000000	-0.000045	0.000032	0.000016	-3.472462	-8.251727	52.011345
31434	1.416980	-0.606527	9.685346	0.020309	-0.003750	-0.005486	1.000000	-0.000044	-0.000001	0.000027	-3.472094	-8.253714	52.011387
31435	1.414069	-0.562056	9.633420	-0.009111	0.025550	-0.059865	1.000000	-0.000050	0.000040	0.000018	-3.472211	-8.251199	52.010889
31436	1.415983	-0.608507	9.685367	0.021434	-0.005561	-0.005489	1.000000	-0.000048	0.000019	0.000016	-3.472024	-8.251058	52.009681
31437	1.392441	-0.604027	9.691182	0.002945	-0.021594	-0.003392	1.000000	-0.000039	0.000025	0.000015	-3.470788	-8.250262	52.008952
31438	1.419975	-0.586456	9.683035	0.007279	0.011451	-0.008543	1.000000	-0.000047	0.000025	0.000009	-3.470469	-8.249467	52.006236
31439	1.396420	-0.582120	9.688844	-0.011211	-0.004581	-0.006444	1.000000	-0.000055	0.000020	0.000024	-3.471203	-8.249146	52.006570
31440	1.389858	-0.584079	9.665249	-0.010376	-0.009178	-0.030576	1.000000	-0.000033	0.000018	0.000013	-3.469271	-8.249197	52.006141
31441	1.395663	-0.583848	9.688850	-0.010085	-0.006398	-0.006444	1.000000	-0.000048	0.000019	0.000015	-3.469072	-8.249104	52.005546
31442	1.372240	-0.579540	9.694636	-0.028585	-0.022418	-0.004346	1.000000	-0.000057	0.000013	0.000016	-3.469993	-8.249697	52.004993
31443	1.382733	-0.587867	9.641622	-0.008442	-0.015566	-0.054711	1.000000	-0.000027	0.000012	0.000026	-3.467562	-8.250322	52.005640
31444	1.394748	-0.586760	9.688805	-0.008414	-0.009112	-0.006444	1.000000	-0.000070	0.000020	0.000012	-3.469858	-8.250151	52.005619
31445	1.405465	-0.563102	9.710046	-0.023380	0.012467	0.014657	1.000000	-0.000048	0.000019	0.000015	-3.469659	-8.250057	52.005023
31446	1.369643	-0.560791	9.668650	-0.041352	-0.010914	-0.031513	1.000000	-0.000048	0.000019	0.000015	-3.469481	-8.249973	52.005157
31447	1.393652	-0.589965	9.688768	-0.006736	-0.011837	-0.006446	1.000000	-0.000057	0.000013	0.000016	-3.470318	-8.250581	52.004695
31448	1.375114	-0.561841	9.692227	-0.040489	-0.009049	-0.007375	1.000000	-0.000047	0.000025	0.000009	-3.469869	-8.249824	52.003114
31449	1.409732	-0.598503	9.659359	0.013697	-0.002196	-0.032679	1.000000	-0.000062	0.000022	0.000032	-3.471542	-8.249274	52.004374
31450	1.368101	-0.565059	9.668620	-0.039102	-0.014535	-0.031508	1.000000	-0.000041	0.000013	0.000028	-3.470764	-8.249724	52.006038
31451	1.421428	-0.598394	9.706532	0.014318	0.003315	0.015592	1.000000	-0.000042	0.000011	0.000014	-3.469889	-8.250488	52.005325
31452	1.373730	-0.565906	9.692187	-0.038221	-0.012691	-0.007370	1.000000	-0.000056	0.000014	0.000030	-3.470787	-8.250771	52.006762
31453	1.402627	-0.571400	9.709971	-0.018857	0.005182	0.014674	1.000000	-0.000055	0.000020	0.000024	-3.471526	-8.250448	52.007092
31454	1.385004	-0.598305	9.665076	-0.002520	-0.021855	-0.030591	1.000000	-0.000049	0.000013	0.000022	-3.471534	-8.250917	52.007317
31455	1.418939	-0.579871	9.680536	0.001583	0.014830	-0.011555	1.000000	-0.000049	0.000013	0.000022	-3.471596	-8.251453	52.007532
31456	1.412607	-0.581940	9.656896	0.002390	0.010275	-0.035692	1.000000	-0.000052	0.000001	0.000035	-3.472195	-8.253230	52.009812
31457	1.413610	-0.605886	9.682770	0.017967	-0.005799	-0.008552	1.000000	-0.000063	0.000018	0.000004	-3.473554	-8.253272	52.007855
31458	1.418262	-0.583133	9.680440	0.003285	0.012116	-0.011551	1.000000	-0.000042	0.000011	0.000014	-3.472607	-8.253945	52.006540
31459	1.401034	-0.577916	9.709816	-0.015451	-0.000265	0.014681	1.000000	-0.000071	0.000016	0.000032	-3.475318	-8.254095	52.007931
31460	1.411469	-0.586429	9.656791	0.004665	0.006660	-0.035689	1.000000	-0.000041	0.000017	0.000007	-3.474122	-8.254140	52.006150
31461	1.434205	-0.592686	9.650990	0.024280	0.020873	-0.037781	1.000000	-0.000048	0.000019	0.000015	-3.473927	-8.254041	52.005551
31462	1.387599	-0.582928	9.662590	-0.013268	-0.010268	-0.033597	1.000000	-0.000047	0.000021	0.000029	-3.473879	-8.253630	52.006556
31463	1.434646	-0.617470	9.676881	0.040427	0.003876	-0.010655	1.000000	-0.000049	0.000013	0.000022	-3.473942	-8.254164	52.006769
31464	1.433148	-0.595760	9.650957	0.025978	0.018163	-0.037780	1.000000	-0.000056	0.000014	0.000030	-3.474899	-8.254375	52.006895
31465	1.420829	-0.566527	9.678063	-0.008011	0.024596	-0.014528	1.000000	-0.000033	0.000018	0.000013	-3.472991	-8.254433	52.006046
31466	1.409392	-0.592091	9.656749	0.008050	0.001232	-0.035689	1.000000	-0.000041	0.000013	0.000028	-3.472227	-8.254872	52.006557
31467	1.419992	-0.568248	9.678085	-0.006879	0.022779	-0.014522	1.000000	-0.000051	0.000038	0.000004	-3.472193	-8.252644	52.004447
31468	1.397630	-0.586716	9.709779	-0.010350	-0.008430	0.014684	1.000000	-0.000050	0.000007	0.000029	-3.472588	-8.253754	52.005133
31469	1.401920	-0.596102	9.633149	0.009952	-0.005095	-0.059833	1.000000	-0.000054	0.000026	0.000017	-3.473071	-8.252792	52.004647
31470	1.413691	-0.595161	9.680376	0.010068	0.001244	-0.011549	1.000000	-0.000046	0.000027	0.000023	-3.472732	-8.251724	52.005383
31471	1.413222	-0.596058	9.680389	0.010629	0.000336	-0.011549	1.000000	-0.000040	0.000019	0.000021	-3.471761	-8.251553	52.005461
31472	1.406562	-0.598037	9.656795	0.011420	-0.004184	-0.035693	1.000000	-0.000060	0.000032	0.000004	-3.472748	-8.249972	52.003137
31473	1.399873	-0.599960	9.633208	0.012201	-0.008705	-0.059839	1.000000	-0.000032	0.000021	0.000041	-3.471160	-8.249436	52.005502
31474	1.394978	-0.592513	9.709808	-0.006958	-0.013892	0.014681	1.000000	-0.000045	-0.000000	0.000027	-3.470778	-8.251488	52.007380
31475	1.416513	-0.576031	9.678134	-0.002375	0.015532	-0.014506	1.000000	-0.000051	0.000038	0.000004	-3.470746	-8.249257	52.005268
31476	1.364801	-0.589981	9.692013	-0.024673	-0.034435	-0.007379	1.000000	-0.000041	0.000017	0.000007	-3.469596	-8.249366	52.004025
31477	1.415579	-0.577841	9.678163	-0.001249	0.013716	-0.014503	1.000000	-0.000047	0.000021	0.000029	-3.469564	-8.248967	52.005028
31478	1.370139	-0.590843	9.715624	-0.023764	-0.032647	0.016763	1.000000	-0.000040	0.000019	0.000021	-3.468586	-8.248789	52.005708
31479	1.408692	-0.580706	9.654549	0.000087	0.008299	-0.038647	1.000000	-0.000057	0.000013	0.000016	-3.469431	-8.249387	52.005236
31480	1.385316	-0.576340	9.660321	-0.018417	-0.007712	-0.036560	1.000000	-0.000041	0.000013	0.000028	-3.468765	-8.249824	52.005852
31481	1.384861	-0.577365	9.660325	-0.017858	-0.008617	-0.036560	1.000000	-0.000060	0.000032	0.000004	-3.469770	-8.248293	52.003871
31482	1.395545	-0.553632	9.681686	-0.032762	0.012912	-0.015348	1.000000	-0.000042	0.000011	0.000014	-3.468927	-8.249028	52.003662
31483	1.390186	-0.578398	9.683934	-0.016948	-0.006830	-0.012412	1.000000	-0.000054	0.000026	0.000017	-3.469415	-8.248062	52.003172
31484	1.378819	-0.604136	9.662544	-0.000922	-0.030158	-0.033629	1.000000	-0.000045	-0.000002	0.000013	-3.468895	-8.250339	52.003445
31485	1.412909	-0.585737	9.678079	0.003240	0.006472	-0.014496	1.000000	-0.000049	0.000013	0.000022	-3.468964	-8.250868	52.003652
31486	1.394492	-0.557655	9.681607	-0.030500	0.009283	-0.015336	1.000000	-0.000056	0.000014	0.000030	-3.469883	-8.251144	52.004549
31487	1.376947	-0.584480	9.636597	-0.014284	-0.017628	-0.060709	1.000000	-0.000057	0.000013	0.000016	-3.470730	-8.251740	52.004075
31488	1.388892	-0.583600	9.683807	-0.014116	-0.011366	-0.012412	1.000000	-0.000040	0.000019	0.000021	-3.469731	-8.251520	52.004490
31489	1.416583	-0.566088	9.675785	-0.009746	0.021676	-0.017412	1.000000	-0.000048	0.000019	0.000015	-3.469542	-8.251413	52.003884
31490	1.411130	-0.591057	9.678015	0.006066	0.001929	-0.014495	1.000000	-0.000068	0.000028	0.000019	-3.471745	-8.250292	52.004427
31491	1.393874	-0.585910	9.707390	-0.012630	-0.010515	0.011737	1.000000	-0.000045	-0.000000	0.000027	-3.471397	-8.252316	52.005329
31492	1.410615	-0.593249	9.677956	0.007203	0.000124	-0.014496	1.000000	-0.000055	0.000020	0.000024	-3.472115	-8.251875	52.004283
31493	1.444483	-0.574986	9.693542	0.011383	0.036737	0.004666	1.000000	-0.000049	0.000013	0.000022	-3.472186	-8.252402	52.004488
31494	1.375768	-0.614665	9.662315	0.004705	-0.039212	-0.033663	1.000000	-0.000049	0.000013	0.000022	-3.472240	-8.252918	52.005195
31495	1.409656	-0.596326	9.677906	0.008887	-0.002601	-0.014498	1.000000	-0.000048	0.000019	0.000015	-3.472052	-8.252810	52.004588
31496	1.386127	-0.592007	9.683693	-0.009610	-0.018625	-0.012417	1.000000	-0.000054	0.000022	0.000038	-3.472909	-8.252189	52.007298
31497	1.438064	-0.602767	9.695729	0.028892	0.014247	0.007572	1.000000	-0.000034	0.000016	-0.000001	-3.470846	-8.252536	52.004839
31498	1.408402	-0.599309	9.677905	0.010570	-0.005326	-0.014501	1.000000	-0.000068	0.000028	0.000019	-3.473094	-8.251397	52.005293
31499	1.437244	-0.604757	9.695727	0.030012	0.012432	0.007571	1.000000	-0.000027	0.000010	0.000012	-3.470513	-8.252311	52.004325
31500	1.412799	-0.577373	9.675672	-0.003548	0.011699	-0.017391	1.000000	-0.000057	0.000009	0.000037	-3.471715	-8.253224	52.006286
31501	1.401434	-0.603182	9.654227	0.012443	-0.011607	-0.038658	1.000000	-0.000049	0.000013	0.000022	-3.471788	-8.253749	52.006489
31502	1.418274	-0.578575	9.699257	-0.002594	0.013433	0.006765	1.000000	-0.000046	0.000027	0.000023	-3.471448	-8.252678	52.007077
31503	1.400536	-0.605138	9.654235	0.013571	-0.013420	-0.038662	1.000000	-0.000047	0.000021	0.000029	-3.471422	-8.252274	52.008075
31504	1.422079	-0.588680	9.622632	0.018122	0.016089	-0.067775	1.000000	-0.000055	0.000020	0.000023	-3.472192	-8.251914	52.007993
31505	1.410812	-0.582707	9.675642	-0.000734	0.007165	-0.017386	1.000000	-0.000063	0.000020	0.000018	-3.473722	-8.251642	52.007629
31506	1.428478	-0.612904	9.672046	0.034141	0.002508	-0.016591	1.000000	-0.000040	0.000023	0.000001	-3.472310	-8.251157	52.006296
31507	1.381908	-0.602958	9.683620	-0.003430	-0.028614	-0.012437	1.000000	-0.000042	0.000013	0.000028	-3.471607	-8.251614	52.007178
31508	1.403477	-0.586413	9.652030	0.001120	0.000909	-0.041540	1.000000	-0.000054	0.000026	0.000017	-3.472128	-8.250584	52.006233
31509	1.392214	-0.580317	9.705047	-0.017724	-0.008034	0.008849	1.000000	-0.000049	0.000013	0.000022	-3.472203	-8.251107	52.006433
31510	1.409971	-0.610429	9.701434	0.017157	-0.012682	0.009635	1.000000	-0.000040	0.000019	0.000021	-3.471241	-8.250875	52.005911
31511	1.385366	-0.583026	9.681423	-0.016430	-0.013375	-0.015307	1.000000	-0.000048	0.000019	0.000015	-3.471057	-8.250763	52.005300
31512	1.401937	-0.590269	9.652019	0.003359	-0.002708	-0.041541	1.000000	-0.000047	0.000021	0.000029	-3.471037	-8.250382	52.007420
31513	1.412544	-0.566544	9.673484	-0.011491	0.018765	-0.020238	1.000000	-0.000045	0.000031	0.000002	-3.470333	-8.249000	52.005188
31514	1.372963	-0.610685	9.659974	0.000660	-0.038467	-0.036615	1.000000	-0.000059	0.000003	0.000043	-3.471879	-8.250494	52.007194
31515	1.383663	-0.587152	9.681417	-0.014187	-0.016997	-0.015309	1.000000	-0.000051	0.000038	0.000004	-3.471855	-8.248248	52.005076
31516	1.406303	-0.593570	9.675638	0.005448	-0.002793	-0.017385	1.000000	-0.000050	0.000007	0.000029	-3.472189	-8.249347	52.006234
31517	1.394104	-0.564561	9.702849	-0.028462	0.003568	0.006005	1.000000	-0.000049	0.000013	0.000022	-3.472266	-8.249868	52.006432
31518	1.387713	-0.566433	9.679209	-0.027743	-0.000848	-0.018153	1.000000	-0.000049	0.000013	0.000022	-3.472365	-8.250350	52.006781
31519	1.382422	-0.591242	9.681345	-0.011939	-0.020612	-0.015313	1.000000	-0.000049	0.000013	0.000022	-3.472442	-8.250870	52.006979
31520	1.405121	-0.597749	9.675552	0.007697	-0.006404	-0.017388	1.000000	-0.000061	0.000026	0.000011	-3.473732	-8.249877	52.004907
31521	1.386691	-0.569699	9.679163	-0.026056	-0.003555	-0.018149	1.000000	-0.000050	0.000007	0.000029	-3.474070	-8.251032	52.005914
31522	1.404436	-0.599813	9.675524	0.008814	-0.008210	-0.017391	1.000000	-0.000039	0.000025	0.000015	-3.472898	-8.250188	52.005830
31523	1.392091	-0.570609	9.702784	-0.025087	-0.001857	0.006014	1.000000	-0.000042	0.000012	0.000014	-3.472037	-8.250936	52.005102
31524	1.402700	-0.578762	9.649733	-0.005158	0.005332	-0.044380	1.000000	-0.000064	0.000014	0.000024	-3.473811	-8.251285	52.005897
31525	1.408517	-0.579082	9.673329	-0.004744	0.007926	-0.020218	1.000000	-0.000049	0.000013	0.000022	-3.473890	-8.251804	52.006093
31526	1.425157	-0.586381	9.643912	0.015030	0.018641	-0.046451	1.000000	-0.000055	0.000021	0.000023	-3.474711	-8.251383	52.006064
31527	1.402798	-0.605088	9.675433	0.011618	-0.012734	-0.017399	1.000000	-0.000057	0.000013	0.000016	-3.475569	-8.251966	52.005578
31528	1.407572	-0.582357	9.673270	-0.003064	0.005226	-0.020215	1.000000	-0.000050	0.000011	0.000008	-3.475503	-8.252760	52.004909
31529	1.401267	-0.584205	9.649613	-0.002365	0.000829	-0.044378	1.000000	-0.000050	0.000007	0.000029	-3.475843	-8.253913	52.005914
31530	1.412152	-0.560698	9.671078	-0.017179	0.022282	-0.023024	1.000000	-0.000056	0.000015	0.000030	-3.476859	-8.254155	52.006444
31531	1.406838	-0.585377	9.673194	-0.001377	0.002510	-0.020214	1.000000	-0.000027	0.000012	0.000026	-3.474445	-8.254772	52.007078
31532	1.430748	-0.614620	9.693147	0.033372	0.001327	0.004684	1.000000	-0.000057	0.000013	0.000016	-3.475278	-8.255283	52.005761
31533	1.406252	-0.587371	9.673159	-0.000246	0.000703	-0.020213	1.000000	-0.000056	0.000019	0.000009	-3.475876	-8.255229	52.004463
31534	1.405978	-0.588450	9.673133	0.000323	-0.000201	-0.020213	1.000000	-0.000050	0.000007	0.000029	-3.476188	-8.256333	52.004817
31535	1.405567	-0.589436	9.673133	0.000884	-0.001109	-0.020213	1.000000	-0.000045	0.000033	0.000016	-3.475650	-8.254651	52.004189
31536	1.393996	-0.614990	9.651626	0.016811	-0.024366	-0.041585	1.000000	-0.000050	0.000011	0.000008	-3.475542	-8.255495	52.003228
31537	1.428960	-0.619766	9.693083	0.036189	-0.003230	0.004674	1.000000	-0.000047	0.000021	0.000029	-3.475526	-8.255083	52.004218
31538	1.392451	-0.562468	9.700412	-0.031859	0.003420	0.003232	1.000000	-0.000056	0.000015	0.000030	-3.476535	-8.255243	52.004460
31539	1.427118	-0.598702	9.667342	0.022214	0.010368	-0.022283	1.000000	-0.000024	0.000024	0.000012	-3.473601	-8.254588	52.003474
31540	1.374246	-0.589560	9.655303	-0.015256	-0.024202	-0.042314	1.000000	-0.000060	0.000034	0.000018	-3.474788	-8.252763	52.004109
31541	1.431023	-0.576929	9.665283	0.008093	0.027422	-0.025065	1.000000	-0.000055	0.000021	0.000023	-3.475550	-8.252415	52.004416
31542	1.402531	-0.596334	9.673151	0.004820	-0.007444	-0.020217	1.000000	-0.000042	0.000013	0.000028	-3.474876	-8.252804	52.004863
31543	1.385134	-0.591050	9.702556	-0.013814	-0.019989	0.006016	1.000000	-0.000047	0.000025	0.000009	-3.474438	-8.252047	52.003436
31544	1.400644	-0.575181	9.647435	-0.009176	0.006173	-0.047160	1.000000	-0.000048	0.000019	0.000015	-3.474296	-8.251842	52.002056
31545	1.423225	-0.581521	9.641679	0.010459	0.020364	-0.049226	1.000000	-0.000045	0.000033	0.000016	-3.473761	-8.250157	52.001426
31546	1.383552	-0.593963	9.702604	-0.012121	-0.022694	0.006013	1.000000	-0.000053	0.000028	0.000031	-3.474429	-8.248821	52.002476
31547	1.422068	-0.583487	9.641731	0.011583	0.018563	-0.049223	1.000000	-0.000039	0.000025	0.000015	-3.473215	-8.248000	52.001731
31548	1.376457	-0.596732	9.678995	-0.010880	-0.027947	-0.018159	1.000000	-0.000063	0.000020	0.000017	-3.474765	-8.247621	52.001173
31549	1.399189	-0.603350	9.673199	0.008757	-0.013760	-0.020227	1.000000	-0.000056	0.000015	0.000030	-3.475791	-8.247905	52.002287
31550	1.403822	-0.580539	9.671120	-0.005915	0.004211	-0.022986	1.000000	-0.000039	0.000025	0.000015	-3.474568	-8.247072	52.001736
31551	1.425411	-0.563813	9.639657	-0.001405	0.033835	-0.051975	1.000000	-0.000047	0.000021	0.000029	-3.474556	-8.246656	52.002722
31552	1.403951	-0.605466	9.696842	0.010347	-0.013047	0.003938	1.000000	-0.000047	0.000021	0.000029	-3.474468	-8.246215	52.003527
31553	1.379405	-0.578020	9.676909	-0.023300	-0.013607	-0.020920	1.000000	-0.000048	0.000019	0.000015	-3.474293	-8.246091	52.002906
31554	1.402019	-0.584467	9.671145	-0.003664	0.000588	-0.022984	1.000000	-0.000053	0.000028	0.000031	-3.475004	-8.244779	52.004200
31555	1.384565	-0.579302	9.700551	-0.022283	-0.011980	0.003251	1.000000	-0.000042	0.000013	0.000028	-3.474313	-8.245227	52.005071
31556	1.407256	-0.585761	9.694776	-0.002641	0.002205	0.001188	1.000000	-0.000061	0.000026	0.000011	-3.475592	-8.244289	52.003897
31557	1.399695	-0.564571	9.645450	-0.017117	0.013323	-0.049894	1.000000	-0.000048	0.000019	0.000015	-3.475418	-8.244164	52.003276
31558	1.400328	-0.588519	9.671144	-0.001421	-0.003044	-0.022984	1.000000	-0.000040	0.000019	0.000021	-3.474441	-8.243997	52.004473
31559	1.406067	-0.588697	9.694771	-0.000956	-0.000528	0.001189	1.000000	-0.000049	0.000013	0.000022	-3.474529	-8.244508	52.004660
31560	1.411790	-0.589026	9.718390	-0.000473	0.001988	0.025362	1.000000	-0.000055	0.000021	0.000023	-3.475247	-8.244079	52.004770
31561	1.376023	-0.586122	9.676903	-0.018807	-0.020852	-0.020923	1.000000	-0.000046	0.000031	0.000002	-3.474552	-8.242680	52.002530
31562	1.404603	-0.591787	9.694795	0.000746	-0.003246	0.001188	1.000000	-0.000053	0.000028	0.000031	-3.475225	-8.241359	52.004107
31563	1.432320	-0.574677	9.686970	0.005157	0.029821	-0.003596	1.000000	-0.000072	0.000014	0.000018	-3.477811	-8.241764	52.003848
31564	1.374841	-0.589443	9.676870	-0.017114	-0.023564	-0.020926	1.000000	-0.000030	-0.000002	0.000025	-3.475723	-8.243894	52.004684
31565	1.397673	-0.595720	9.671088	0.002526	-0.009381	-0.022988	1.000000	-0.000054	0.000027	0.000017	-3.476231	-8.242902	52.004175
31566	1.386183	-0.589938	9.724136	-0.016165	-0.018550	0.027421	1.000000	-0.000054	0.000027	0.000017	-3.476793	-8.241853	52.003546
31567	1.418818	-0.580134	9.639661	0.007579	0.019391	-0.051938	1.000000	-0.000042	0.000013	0.000028	-3.476105	-8.242300	52.004414
31568	1.396494	-0.598765	9.671070	0.004212	-0.012082	-0.022992	1.000000	-0.000051	0.000007	0.000029	-3.476445	-8.243388	52.004906
31569	1.401133	-0.576100	9.669033	-0.010457	0.005900	-0.025700	1.000000	-0.000060	0.000034	0.000018	-3.477634	-8.241529	52.004511
31570	1.384642	-0.594076	9.724103	-0.013902	-0.022168	0.027417	1.000000	-0.000042	0.000012	0.000014	-3.476827	-8.242149	52.003168
31571	1.418437	-0.607206	9.665284	0.024980	0.000305	-0.025055	1.000000	-0.000042	0.000013	0.000028	-3.476140	-8.242594	52.004035
31572	1.400000	-0.579052	9.669021	-0.008763	0.003210	-0.025697	1.000000	-0.000061	0.000026	0.000011	-3.477422	-8.241587	52.002215
31573	1.382486	-0.574039	9.698425	-0.027360	-0.009392	0.000539	1.000000	-0.000047	0.000021	0.000029	-3.477416	-8.241167	52.003196
31574	1.399166	-0.581235	9.669010	-0.007648	0.001393	-0.025696	1.000000	-0.000057	0.000013	0.000016	-3.478295	-8.241776	52.003666
31575	1.403851	-0.558411	9.666995	-0.022315	0.019379	-0.028387	1.000000	-0.000039	0.000025	0.000015	-3.477087	-8.240947	52.002916
31576	1.393312	-0.606910	9.671021	0.008701	-0.019312	-0.023006	1.000000	-0.000049	0.000013	0.000022	-3.477172	-8.241431	52.003702
31577	1.427041	-0.588948	9.686892	0.013050	0.017145	-0.003573	1.000000	-0.000059	0.000036	0.000032	-3.478528	-8.239279	52.004911
31578	1.420385	-0.590652	9.663279	0.013679	0.012863	-0.027751	1.000000	-0.000040	0.000024	0.000001	-3.477178	-8.238706	52.003064
31579	1.396805	-0.586023	9.669063	-0.004846	-0.003131	-0.025695	1.000000	-0.000039	0.000025	0.000015	-3.475970	-8.237877	52.002314
31580	1.391320	-0.610872	9.671058	0.010951	-0.022929	-0.023016	1.000000	-0.000064	0.000015	0.000024	-3.477744	-8.238153	52.002169
31581	1.424274	-0.569787	9.661276	0.000145	0.029043	-0.030427	1.000000	-0.000042	0.000013	0.000028	-3.477060	-8.238597	52.003034
31582	1.401874	-0.588496	9.692654	-0.003207	-0.002471	-0.001515	1.000000	-0.000057	0.000013	0.000016	-3.477904	-8.239113	52.002381
31583	1.401411	-0.589529	9.692658	-0.002646	-0.003380	-0.001515	1.000000	-0.000045	0.000033	0.000016	-3.477378	-8.237417	52.001745
31584	1.422922	-0.572915	9.661290	0.001844	0.026331	-0.030419	1.000000	-0.000061	0.000028	0.000025	-3.478806	-8.236139	52.002005
31585	1.399489	-0.568495	9.667039	-0.016682	0.010340	-0.028362	1.000000	-0.000037	0.000004	0.000012	-3.477278	-8.237738	52.001147
31586	1.406345	-0.591731	9.716286	-0.001003	-0.002735	0.022665	1.000000	-0.000042	0.000012	0.000014	-3.476422	-8.238428	52.000296
31587	1.393838	-0.593931	9.669008	-0.000334	-0.010367	-0.025698	1.000000	-0.000039	0.000027	0.000029	-3.475380	-8.237307	52.001151
31588	1.398564	-0.571143	9.667017	-0.014991	0.007651	-0.028357	1.000000	-0.000058	0.000007	0.000023	-3.476576	-8.238376	52.000948
31589	1.392218	-0.572976	9.643348	-0.014381	0.003389	-0.052538	1.000000	-0.000055	0.000021	0.000023	-3.477352	-8.238012	52.001240
31590	1.403961	-0.572643	9.690626	-0.013921	0.009195	-0.004172	1.000000	-0.000042	0.000013	0.000028	-3.476676	-8.238447	52.003113
31591	1.420651	-0.579738	9.661218	0.005776	0.020018	-0.030406	1.000000	-0.000055	0.000021	0.000023	-3.477453	-8.238082	52.003405
31592	1.392108	-0.599191	9.668933	0.002476	-0.014877	-0.025705	1.000000	-0.000049	0.000013	0.000022	-3.477511	-8.238576	52.003534
31593	1.403044	-0.575757	9.690574	-0.012231	0.006467	-0.004167	1.000000	-0.000051	0.000006	0.000014	-3.477705	-8.240004	52.002912
31594	1.368476	-0.595856	9.674638	-0.015493	-0.031771	-0.023656	1.000000	-0.000054	0.000027	0.000017	-3.478230	-8.238993	52.003199
31595	1.419391	-0.583724	9.661163	0.008021	0.016392	-0.030401	1.000000	-0.000028	0.000010	0.000012	-3.475663	-8.239893	52.002217
31596	1.402072	-0.578522	9.690550	-0.010547	0.003747	-0.004164	1.000000	-0.000056	0.000015	0.000030	-3.476712	-8.240146	52.003402
31597	1.419774	-0.608836	9.686730	0.024324	-0.000985	-0.003580	1.000000	-0.000049	0.000013	0.000022	-3.476810	-8.240646	52.003578
31598	1.395371	-0.581346	9.666870	-0.009379	-0.001401	-0.028347	1.000000	-0.000055	0.000021	0.000023	-3.477567	-8.240231	52.003395
31599	1.401080	-0.581694	9.690504	-0.008855	0.001027	-0.004161	1.000000	-0.000042	0.000012	0.000014	-3.476722	-8.240960	52.002649
31600	1.400798	-0.582713	9.690484	-0.008301	0.000116	-0.004161	1.000000	-0.000056	0.000015	0.000030	-3.477789	-8.241268	52.004887
31601	1.417391	-0.589808	9.661087	0.011382	0.010959	-0.030396	1.000000	-0.000046	0.000031	0.000002	-3.477101	-8.239856	52.002641
31602	1.393976	-0.585302	9.666833	-0.007141	-0.005029	-0.028346	1.000000	-0.000045	-0.000000	0.000027	-3.476747	-8.241840	52.004183
31603	1.411682	-0.615405	9.663010	0.027728	-0.009764	-0.027778	1.000000	-0.000039	0.000027	0.000029	-3.475709	-8.240716	52.005035
31604	1.422336	-0.592020	9.684720	0.013056	0.011568	-0.006209	1.000000	-0.000063	0.000021	0.000017	-3.477214	-8.240318	52.004346
31605	1.387559	-0.612117	9.668777	0.009773	-0.026652	-0.025734	1.000000	-0.000045	0.000033	0.000016	-3.476692	-8.238615	52.003706
31606	1.415166	-0.594746	9.661110	0.014207	0.006437	-0.030396	1.000000	-0.000054	0.000027	0.000017	-3.477214	-8.237575	52.003615
31607	1.420788	-0.595107	9.684758	0.014743	0.008847	-0.006208	1.000000	-0.000042	0.000013	0.000028	-3.476537	-8.238014	52.004474
31608	1.397324	-0.590630	9.690506	-0.003781	-0.007138	-0.004161	1.000000	-0.000048	0.000021	0.000029	-3.476525	-8.237549	52.005657
31609	1.396909	-0.591620	9.690505	-0.003220	-0.008047	-0.004161	1.000000	-0.000048	0.000019	0.000015	-3.476363	-8.237409	52.005024
31610	1.395651	-0.569505	9.664914	-0.017844	0.006640	-0.030950	1.000000	-0.000057	0.000013	0.000016	-3.477147	-8.237966	52.003922
31611	1.413252	-0.599699	9.661084	0.017024	0.001898	-0.030398	1.000000	-0.000039	0.000025	0.000015	-3.475945	-8.237129	52.003167
31612	1.413700	-0.623781	9.686668	0.032789	-0.014627	-0.003615	1.000000	-0.000048	0.000021	0.000029	-3.475893	-8.236715	52.003998
31613	1.389187	-0.596154	9.666859	-0.000943	-0.015001	-0.028354	1.000000	-0.000046	0.000027	0.000023	-3.475636	-8.235648	52.004163
31614	1.423014	-0.578163	9.682842	0.003474	0.021379	-0.008801	1.000000	-0.000049	0.000013	0.000022	-3.475735	-8.236198	52.005124
31615	1.388411	-0.598150	9.666847	0.000171	-0.016821	-0.028357	1.000000	-0.000048	0.000021	0.000029	-3.475740	-8.235769	52.006095
31616	1.358992	-0.594211	9.648934	-0.018352	-0.036096	-0.050504	1.000000	-0.000036	0.000006	0.000026	-3.474404	-8.237052	52.007824
31617	1.403989	-0.551816	9.686663	-0.029151	0.022500	-0.009332	1.000000	-0.000060	0.000033	0.000004	-3.475441	-8.235463	52.005811
31618	1.393429	-0.600193	9.690479	0.001835	-0.016235	-0.004171	1.000000	-0.000015	-0.000001	0.000037	-3.471907	-8.237493	52.008188
31619	1.409299	-0.583908	9.635511	0.006288	0.010275	-0.057176	1.000000	-0.000069	0.000028	0.000019	-3.474151	-8.236312	52.007901
31620	1.397824	-0.578421	9.688556	-0.012255	0.000865	-0.006748	1.000000	-0.000042	0.000013	0.000028	-3.473452	-8.236747	52.008563
31621	1.391385	-0.580002	9.664905	-0.011690	-0.003327	-0.030939	1.000000	-0.000054	0.000027	0.000017	-3.473975	-8.235736	52.008041
31622	1.384971	-0.581565	9.641251	-0.011130	-0.007515	-0.055132	1.000000	-0.000042	0.000012	0.000014	-3.473143	-8.236469	52.007664
31623	1.396603	-0.581377	9.688555	-0.010574	-0.001859	-0.006746	1.000000	-0.000053	0.000028	0.000031	-3.473833	-8.235170	52.008747
31624	1.419189	-0.587871	9.682818	0.009072	0.012312	-0.008789	1.000000	-0.000048	0.000021	0.000029	-3.473897	-8.234755	52.010161
31625	1.390682	-0.607254	9.690434	0.005752	-0.022594	-0.004185	1.000000	-0.000051	0.000006	0.000014	-3.474099	-8.236174	52.009530
31626	1.412700	-0.590416	9.659115	0.010197	0.007220	-0.032981	1.000000	-0.000042	0.000012	0.000014	-3.473227	-8.236886	52.007884
31627	1.389202	-0.585826	9.664868	-0.008339	-0.008760	-0.030939	1.000000	-0.000039	0.000027	0.000028	-3.472195	-8.235758	52.008732
31628	1.417972	-0.591549	9.682773	0.011327	0.008686	-0.008787	1.000000	-0.000044	0.000006	0.000020	-3.471628	-8.237060	52.009251
31629	1.382623	-0.588155	9.641188	-0.007224	-0.013830	-0.055135	1.000000	-0.000042	0.000013	0.000028	-3.470956	-8.237495	52.010105
31630	1.388276	-0.588527	9.664837	-0.006655	-0.011471	-0.030941	1.000000	-0.000048	0.000021	0.000029	-3.470954	-8.237067	52.011397
31631	1.410074	-0.571722	9.633561	-0.002221	0.018361	-0.059722	1.000000	-0.000048	0.000019	0.000015	-3.470797	-8.236921	52.010758
31632	1.393408	-0.589916	9.688499	-0.005518	-0.010023	-0.006747	1.000000	-0.000046	0.000027	0.000023	-3.470512	-8.235827	52.010897
31633	1.381788	-0.615242	9.666723	0.010240	-0.033116	-0.028404	1.000000	-0.000048	0.000019	0.000015	-3.470356	-8.235680	52.010258
31634	1.409801	-0.597711	9.659089	0.013726	-0.000846	-0.032983	1.000000	-0.000030	0.000000	0.000039	-3.469958	-8.244860	52.024081
31635	1.415507	-0.598185	9.682726	0.014297	0.001497	-0.008787	1.000000	-0.000069	0.000028	0.000019	-3.472211	-8.243692	52.023813
31636	1.409029	-0.599774	9.659074	0.014835	-0.002659	-0.032985	1.000000	-0.000033	0.000018	0.000013	-3.470374	-8.243739	52.024142
31637	1.413772	-0.576888	9.657214	0.000179	0.015360	-0.035515	1.000000	-0.000055	0.000021	0.000023	-3.471168	-8.243382	52.024445
31638	1.390187	-0.572497	9.662965	-0.018353	-0.000625	-0.033478	1.000000	-0.000046	0.000027	0.000023	-3.470891	-8.242310	52.024859
31639	1.441918	-0.583727	9.675153	0.020414	0.031861	-0.013350	1.000000	-0.000041	0.000019	0.000021	-3.469961	-8.242125	52.024928
31640	1.385121	-0.621357	9.690336	0.013216	-0.037043	-0.004236	1.000000	-0.000050	0.000012	0.000008	-3.469911	-8.242826	52.023962
31641	1.389045	-0.575454	9.662954	-0.016672	-0.003334	-0.033476	1.000000	-0.000062	0.000022	0.000031	-3.471651	-8.242237	52.025183
31642	1.412503	-0.605340	9.682720	0.018222	-0.004854	-0.008795	1.000000	-0.000054	0.000027	0.000017	-3.472182	-8.241188	52.024580
31643	1.388103	-0.577648	9.662958	-0.015553	-0.005142	-0.033475	1.000000	-0.000041	0.000015	0.000042	-3.471685	-8.241354	52.027059
31644	1.387757	-0.578512	9.662956	-0.014989	-0.006046	-0.033474	1.000000	-0.000041	0.000018	0.000007	-3.470569	-8.241413	52.024811
31645	1.411316	-0.608124	9.682718	0.019904	-0.007583	-0.008800	1.000000	-0.000048	0.000021	0.000029	-3.470586	-8.240996	52.025798
31646	1.410020	-0.585865	9.657222	0.005226	0.007216	-0.035507	1.000000	-0.000048	0.000021	0.000029	-3.470597	-8.240548	52.026953
31647	1.392559	-0.580840	9.686616	-0.013282	-0.005542	-0.009274	1.000000	-0.000042	0.000013	0.000028	-3.469933	-8.241000	52.027826
31648	1.415245	-0.587340	9.680873	0.006381	0.008628	-0.011306	1.000000	-0.000062	0.000027	0.000011	-3.471235	-8.240000	52.026172
31649	1.414897	-0.588207	9.680871	0.006939	0.007718	-0.011306	1.000000	-0.000021	0.000006	0.000038	-3.468334	-8.241208	52.028304
31650	1.408652	-0.589572	9.657196	0.007463	0.003598	-0.035507	1.000000	-0.000057	0.000015	0.000030	-3.469419	-8.241447	52.029912
31651	1.408207	-0.590851	9.657183	0.008020	0.002690	-0.035507	1.000000	-0.000069	0.000028	0.000019	-3.471676	-8.240272	52.029638
31652	1.390649	-0.585991	9.686580	-0.010472	-0.010066	-0.009274	1.000000	-0.000041	0.000018	0.000007	-3.470568	-8.240284	52.027917
31653	1.435606	-0.574510	9.649626	0.013036	0.034893	-0.040025	1.000000	-0.000048	0.000021	0.000029	-3.470588	-8.239865	52.028903
31654	1.390860	-0.611228	9.712031	0.005899	-0.027609	0.017412	1.000000	-0.000053	-0.000000	0.000021	-3.471060	-8.241891	52.029153
31655	1.389732	-0.588898	9.686535	-0.008792	-0.012791	-0.009275	1.000000	-0.000039	0.000027	0.000028	-3.470038	-8.240777	52.030021
31656	1.406481	-0.595650	9.657140	0.010828	-0.001832	-0.035509	1.000000	-0.000036	0.000006	0.000026	-3.468672	-8.242066	52.030908
31657	1.406098	-0.596755	9.657127	0.011385	-0.002740	-0.035510	1.000000	-0.000076	0.000032	-0.000008	-3.471277	-8.240591	52.027535
31658	1.410942	-0.573878	9.655307	-0.003256	0.015303	-0.037985	1.000000	-0.000015	-0.000001	0.000037	-3.467696	-8.242579	52.028915
31659	1.393561	-0.568675	9.684701	-0.021750	0.002523	-0.011750	1.000000	-0.000054	0.000027	0.000017	-3.468232	-8.241576	52.028408
31660	1.393076	-0.569790	9.684706	-0.021202	0.001622	-0.011749	1.000000	-0.000055	0.000021	0.000023	-3.469112	-8.241208	52.030010
31661	1.410571	-0.600103	9.680772	0.013663	-0.003158	-0.011310	1.000000	-0.000048	0.000021	0.000029	-3.469134	-8.240788	52.030994
31662	1.387126	-0.595521	9.686504	-0.004877	-0.019138	-0.009283	1.000000	-0.000035	0.000012	0.000020	-3.467516	-8.241459	52.031374
31663	1.414988	-0.578024	9.678978	-0.000423	0.013963	-0.013773	1.000000	-0.000046	0.000027	0.000022	-3.467274	-8.240399	52.031553
31664	1.408510	-0.579558	9.655323	0.000076	0.009876	-0.037977	1.000000	-0.000055	0.000021	0.000023	-3.468123	-8.240005	52.032894
31665	1.408882	-0.603807	9.680788	0.015895	-0.006790	-0.011315	1.000000	-0.000032	0.000021	0.000041	-3.466590	-8.239473	52.035251
31666	1.407552	-0.581558	9.655343	0.001196	0.008052	-0.037976	1.000000	-0.000069	0.000028	0.000019	-3.468789	-8.238313	52.035127
31667	1.407097	-0.582707	9.655340	0.001753	0.007145	-0.037975	1.000000	-0.000041	0.000015	0.000042	-3.468299	-8.238475	52.037601
31668	1.395732	-0.577214	9.708380	-0.016662	-0.002476	0.012465	1.000000	-0.000044	0.000006	0.000020	-3.467716	-8.239820	52.037626
31669	1.435728	-0.589560	9.673224	0.022039	0.023574	-0.015794	1.000000	-0.000050	0.000013	0.000022	-3.467836	-8.240323	52.037806
31670	1.406359	-0.585529	9.655276	0.003429	0.004425	-0.037974	1.000000	-0.000042	0.000014	0.000028	-3.467187	-8.240770	52.038985
31671	1.377800	-0.604884	9.662766	0.000087	-0.030497	-0.033509	1.000000	-0.000057	0.000013	0.000016	-3.468086	-8.241326	52.038477
31672	1.404841	-0.564354	9.629809	-0.010723	0.018380	-0.064618	1.000000	-0.000054	0.000029	0.000031	-3.468742	-8.240056	52.039283
31673	1.406062	-0.612105	9.680677	0.020376	-0.014088	-0.011332	1.000000	-0.000051	0.000007	0.000028	-3.469128	-8.241197	52.040266
31674	1.405050	-0.589734	9.655211	0.005661	0.000779	-0.037974	1.000000	-0.000042	0.000012	0.000014	-3.468280	-8.241966	52.040448
31675	1.387527	-0.584942	9.684599	-0.012813	-0.012034	-0.011742	1.000000	-0.000069	0.000028	0.000019	-3.470544	-8.240781	52.040167
31676	1.392911	-0.585561	9.708286	-0.012169	-0.009783	0.012467	1.000000	-0.000038	0.000031	0.000008	-3.469039	-8.239256	52.038541
31677	1.404239	-0.616204	9.680682	0.022621	-0.017735	-0.011342	1.000000	-0.000054	0.000029	0.000031	-3.469748	-8.237962	52.039634
31678	1.431235	-0.575511	9.647776	0.011804	0.031178	-0.042421	1.000000	-0.000041	0.000020	0.000021	-3.468875	-8.237716	52.040263
31679	1.380247	-0.612641	9.686419	0.004632	-0.034610	-0.009325	1.000000	-0.000048	0.000019	0.000015	-3.468733	-8.237577	52.039637
31680	1.408087	-0.595329	9.678935	0.009105	-0.001501	-0.013768	1.000000	-0.000055	0.000025	0.000003	-3.469060	-8.236798	52.037134
31681	1.396448	-0.620466	9.657033	0.024783	-0.024510	-0.035565	1.000000	-0.000032	0.000021	0.000041	-3.467531	-8.236265	52.039488
31682	1.430461	-0.602540	9.673205	0.029327	0.011752	-0.015791	1.000000	-0.000045	-0.000000	0.000027	-3.467264	-8.238241	52.040945
31683	1.401214	-0.598580	9.655224	0.010697	-0.007366	-0.037981	1.000000	-0.000057	0.000015	0.000030	-3.468336	-8.238509	52.042039
31684	1.400929	-0.599599	9.655202	0.011251	-0.008273	-0.037982	1.000000	-0.000042	0.000012	0.000014	-3.467524	-8.239243	52.041901
31685	1.434796	-0.581814	9.671398	0.015801	0.027977	-0.018197	1.000000	-0.000054	0.000027	0.000016	-3.468065	-8.238230	52.041387
31686	1.411151	-0.577315	9.677147	-0.002747	0.012007	-0.016174	1.000000	-0.000039	0.000027	0.000028	-3.467073	-8.237095	52.042448
31687	1.399564	-0.602459	9.655222	0.012921	-0.010991	-0.037987	1.000000	-0.000050	0.000013	0.000022	-3.467198	-8.237593	52.042623
31688	1.387298	-0.573844	9.682864	-0.020736	-0.004884	-0.014152	1.000000	-0.000056	0.000019	0.000009	-3.467805	-8.237541	52.041360
31689	1.409966	-0.580511	9.677129	-0.001071	0.009271	-0.016171	1.000000	-0.000063	0.000023	0.000031	-3.469561	-8.236937	52.042566
31690	1.398555	-0.605566	9.655174	0.014590	-0.013712	-0.037993	1.000000	-0.000015	-0.000001	0.000037	-3.466031	-8.238969	52.045450
31691	1.415299	-0.581642	9.700799	0.000139	0.010589	0.008044	1.000000	-0.000052	0.000039	0.000003	-3.466044	-8.236675	52.043329
31692	1.402754	-0.583624	9.653478	0.000512	0.003443	-0.040382	1.000000	-0.000063	0.000023	0.000031	-3.467816	-8.235992	52.044284
31693	1.403087	-0.608206	9.678861	0.016365	-0.013302	-0.013786	1.000000	-0.000056	0.000019	0.000009	-3.468455	-8.235901	52.042966
31694	1.407896	-0.585393	9.677136	0.001724	0.004746	-0.016168	1.000000	-0.000041	0.000020	0.000021	-3.467545	-8.235714	52.043899
31695	1.413513	-0.585922	9.700801	0.002383	0.006953	0.008047	1.000000	-0.000050	0.000013	0.000022	-3.467672	-8.236210	52.044072
31696	1.389243	-0.558062	9.681138	-0.031454	0.006832	-0.016524	1.000000	-0.000047	0.000027	0.000022	-3.467419	-8.235079	52.043865
31697	1.394703	-0.589249	9.629792	0.003200	-0.004199	-0.064597	1.000000	-0.000063	0.000023	0.000031	-3.469178	-8.234471	52.045068
31698	1.406247	-0.589676	9.677116	0.003958	0.001125	-0.016167	1.000000	-0.000057	0.000013	0.000016	-3.470157	-8.235003	52.045843
31699	1.428924	-0.596137	9.671395	0.023625	0.015277	-0.018184	1.000000	-0.000039	0.000027	0.000028	-3.469146	-8.233881	52.046703
31700	1.404717	-0.568284	9.651730	-0.010235	0.015157	-0.042747	1.000000	-0.000059	0.000007	0.000022	-3.470327	-8.235119	52.047718
31701	1.406113	-0.616224	9.702426	0.020932	-0.017469	0.010409	1.000000	-0.000053	-0.000000	0.000021	-3.470816	-8.237177	52.047890
31702	1.410422	-0.570017	9.675315	-0.009007	0.016450	-0.018527	1.000000	-0.000042	0.000014	0.000028	-3.470175	-8.237583	52.048655
31703	1.398963	-0.595147	9.653324	0.006633	-0.006521	-0.040386	1.000000	-0.000050	0.000013	0.000022	-3.470304	-8.238077	52.048826
31704	1.427619	-0.601212	9.671273	0.026415	0.010750	-0.018186	1.000000	-0.000047	0.000025	0.000008	-3.469972	-8.237186	52.048142
31705	1.404198	-0.596596	9.676989	0.007864	-0.005220	-0.016171	1.000000	-0.000036	0.000006	0.000026	-3.468639	-8.238498	52.048887
31706	1.404108	-0.597458	9.676949	0.008431	-0.006116	-0.016172	1.000000	-0.000045	-0.000000	0.000027	-3.468363	-8.240408	52.049713
31707	1.403698	-0.598582	9.676939	0.008989	-0.007025	-0.016173	1.000000	-0.000066	0.000040	0.000005	-3.470107	-8.237929	52.047817
31708	1.409107	-0.599306	9.700625	0.009670	-0.004831	0.008044	1.000000	-0.000042	0.000014	0.000028	-3.469502	-8.238278	52.048819
31709	1.396908	-0.600936	9.653263	0.009988	-0.011913	-0.040394	1.000000	-0.000042	0.000014	0.000028	-3.468854	-8.238718	52.049677
31710	1.379345	-0.596088	9.682657	-0.008446	-0.024789	-0.014163	1.000000	-0.000054	0.000027	0.000016	-3.469440	-8.237673	52.049727
31711	1.401986	-0.602451	9.676947	0.011223	-0.010639	-0.016179	1.000000	-0.000034	0.000018	0.000013	-3.467577	-8.237704	52.048866
31712	1.401640	-0.603385	9.676939	0.011783	-0.011543	-0.016180	1.000000	-0.000057	0.000015	0.000030	-3.468673	-8.237930	52.049877
31713	1.400447	-0.580991	9.651594	-0.002978	0.003441	-0.042731	1.000000	-0.000046	0.000031	0.000002	-3.468006	-8.236499	52.047639
31714	1.412020	-0.581195	9.698937	-0.002170	0.008683	0.005708	1.000000	-0.000045	-0.000000	0.000027	-3.467751	-8.238516	52.048474
31715	1.400694	-0.606393	9.676888	0.013451	-0.014270	-0.016186	1.000000	-0.000057	0.000013	0.000016	-3.468662	-8.239058	52.047953
31716	1.411470	-0.583230	9.698895	-0.001042	0.006871	0.005710	1.000000	-0.000039	0.000026	0.000014	-3.467485	-8.238138	52.046941
31717	1.393772	-0.608648	9.653233	0.014442	-0.019146	-0.040411	1.000000	-0.000053	0.000033	0.000010	-3.467769	-8.236474	52.045618
31718	1.381374	-0.580006	9.680974	-0.019161	-0.013067	-0.016498	1.000000	-0.000042	0.000014	0.000028	-3.467104	-8.236853	52.046249
31719	1.404124	-0.586415	9.675251	0.000510	0.001081	-0.018509	1.000000	-0.000048	0.000020	0.000015	-3.466971	-8.236702	52.045613
31720	1.391818	-0.588025	9.627901	0.000798	-0.005941	-0.066951	1.000000	-0.000040	0.000021	0.000035	-3.466245	-8.236163	52.047251
31721	1.408509	-0.564480	9.673608	-0.013559	0.018245	-0.020818	1.000000	-0.000048	0.000020	0.000015	-3.466112	-8.236011	52.046615
31722	1.390728	-0.559689	9.703032	-0.031979	0.005345	0.005416	1.000000	-0.000051	0.000042	0.000031	-3.466531	-8.233117	52.048442
31723	1.402224	-0.590154	9.675299	0.002742	-0.002538	-0.018510	1.000000	-0.000030	-0.000001	0.000025	-3.464519	-8.235299	52.049069
31724	1.407967	-0.590705	9.698952	0.003447	-0.000387	0.005712	1.000000	-0.000056	0.000019	0.000009	-3.465177	-8.235142	52.047717
31725	1.400938	-0.568622	9.649944	-0.011470	0.011579	-0.045031	1.000000	-0.000048	0.000020	0.000015	-3.465045	-8.234988	52.047080
31726	1.407100	-0.592726	9.698955	0.004560	-0.002204	0.005711	1.000000	-0.000047	0.000027	0.000022	-3.464867	-8.233907	52.047170
31727	1.366477	-0.612681	9.658947	0.000898	-0.043237	-0.038434	1.000000	-0.000050	0.000014	0.000022	-3.465002	-8.234393	52.047335
31728	1.411556	-0.571016	9.697305	-0.009502	0.014951	0.003420	1.000000	-0.000056	0.000021	0.000023	-3.465799	-8.233990	52.047414
31729	1.382781	-0.590402	9.704651	-0.012871	-0.019992	0.007717	1.000000	-0.000048	0.000021	0.000029	-3.465840	-8.233553	52.048381
31730	1.428058	-0.578725	9.667896	0.010585	0.025150	-0.022808	1.000000	-0.000030	-0.000001	0.000025	-3.463826	-8.235696	52.048772
31731	1.404839	-0.574005	9.673581	-0.007972	0.009188	-0.020799	1.000000	-0.000043	0.000012	0.000014	-3.463012	-8.236414	52.048020
31732	1.381220	-0.569539	9.679309	-0.026529	-0.006776	-0.018791	1.000000	-0.000059	0.000041	0.000011	-3.463972	-8.233880	52.047001
31733	1.398548	-0.599824	9.675237	0.008331	-0.011613	-0.018520	1.000000	-0.000043	0.000012	0.000014	-3.463157	-8.234598	52.046248
31734	1.398201	-0.600759	9.675229	0.008886	-0.012536	-0.018521	1.000000	-0.000048	0.000021	0.000029	-3.463159	-8.234236	52.047880
31735	1.385894	-0.572280	9.702989	-0.024698	-0.006490	0.005436	1.000000	-0.000057	0.000015	0.000030	-3.464246	-8.234489	52.048957
31736	1.402755	-0.579169	9.673576	-0.005190	0.004621	-0.020794	1.000000	-0.000050	0.000014	0.000022	-3.464399	-8.235032	52.049800
31737	1.368104	-0.598935	9.657203	-0.008726	-0.033344	-0.040747	1.000000	-0.000063	0.000023	0.000031	-3.466171	-8.234411	52.050990
31738	1.419750	-0.610640	9.669468	0.030242	-0.001119	-0.020534	1.000000	-0.000040	0.000024	0.000000	-3.464785	-8.233755	52.048315
31739	1.396421	-0.605873	9.675167	0.011683	-0.017081	-0.018531	1.000000	-0.000030	-0.000001	0.000025	-3.462776	-8.235935	52.048939
31740	1.401330	-0.583086	9.673547	-0.002948	0.001009	-0.020792	1.000000	-0.000068	0.000035	0.000012	-3.464871	-8.234037	52.048651
31741	1.400790	-0.584247	9.673555	-0.002390	0.000100	-0.020792	1.000000	-0.000048	0.000020	0.000015	-3.464743	-8.233879	52.048010
31742	1.417490	-0.590989	9.644173	0.017109	0.011238	-0.047023	1.000000	-0.000047	0.000027	0.000022	-3.464583	-8.232794	52.048537
31743	1.405817	-0.585929	9.697249	-0.001111	0.001298	0.003436	1.000000	-0.000050	0.000014	0.000022	-3.464722	-8.233277	52.048697
31744	1.394171	-0.611038	9.675166	0.014464	-0.021610	-0.018544	1.000000	-0.000053	0.000033	0.000010	-3.464973	-8.231606	52.046954
31745	1.404281	-0.564375	9.671980	-0.015342	0.015455	-0.023038	1.000000	-0.000036	0.000006	0.000026	-3.463650	-8.232913	52.047690
31746	1.398679	-0.589099	9.673566	0.000390	-0.004439	-0.020793	1.000000	-0.000054	0.000027	0.000016	-3.464253	-8.231897	52.047448
31747	1.404160	-0.589965	9.697244	0.001124	-0.002348	0.003435	1.000000	-0.000057	0.000015	0.000030	-3.465344	-8.232147	52.048521
31748	1.403793	-0.590984	9.697236	0.001686	-0.003258	0.003435	1.000000	-0.000041	0.000020	0.000021	-3.464435	-8.231925	52.048419
31749	1.421167	-0.621086	9.693130	0.036545	-0.008109	0.003668	1.000000	-0.000039	0.000026	0.000014	-3.463264	-8.231074	52.047666
31750	1.396942	-0.593053	9.673576	0.002623	-0.008065	-0.020795	1.000000	-0.000056	0.000021	0.000023	-3.464119	-8.230650	52.048156
31751	1.419671	-0.599556	9.667862	0.022301	0.006075	-0.022797	1.000000	-0.000042	0.000014	0.000027	-3.463481	-8.231082	52.049004
31752	1.395541	-0.571638	9.648293	-0.011628	0.006128	-0.047254	1.000000	-0.000063	0.000023	0.000031	-3.465306	-8.230431	52.050592
31753	1.389857	-0.596417	9.649868	0.004108	-0.013769	-0.045028	1.000000	-0.000034	0.000018	0.000013	-3.463450	-8.230453	52.049726
31754	1.395313	-0.597051	9.673565	0.004850	-0.011689	-0.020800	1.000000	-0.000054	0.000027	0.000016	-3.464026	-8.229409	52.049210
31755	1.423254	-0.579747	9.666293	0.009350	0.021442	-0.025021	1.000000	-0.000042	0.000014	0.000027	-3.463389	-8.229840	52.050058
31756	1.394471	-0.599039	9.673563	0.005981	-0.013500	-0.020803	1.000000	-0.000054	0.000027	0.000016	-3.463901	-8.228715	52.048661
31757	1.405226	-0.575997	9.695686	-0.008448	0.007562	0.001213	1.000000	-0.000042	0.000014	0.000027	-3.463265	-8.229145	52.049508
31758	1.399530	-0.600715	9.697254	0.007276	-0.012344	0.003425	1.000000	-0.000047	0.000027	0.000022	-3.463105	-8.228111	52.050444
31759	1.421441	-0.583696	9.666322	0.011587	0.017814	-0.025016	1.000000	-0.000054	0.000027	0.000016	-3.463666	-8.227073	52.049913
31760	1.397871	-0.579177	9.672033	-0.006982	0.001864	-0.023016	1.000000	-0.000041	0.000020	0.000021	-3.462799	-8.226857	52.049862
31761	1.397322	-0.580208	9.672051	-0.006424	0.000955	-0.023016	1.000000	-0.000060	0.000035	0.000018	-3.464046	-8.224945	52.049444
31762	1.431874	-0.586164	9.713723	0.013653	0.021026	0.023452	1.000000	-0.000030	-0.000001	0.000025	-3.462052	-8.227117	52.050209
31763	1.379384	-0.576397	9.701431	-0.024232	-0.012941	0.003215	1.000000	-0.000066	0.000041	0.000005	-3.463811	-8.224611	52.048299
31764	1.373577	-0.601136	9.702996	-0.008489	-0.032843	0.005411	1.000000	-0.000027	0.000012	0.000025	-3.461432	-8.225165	52.048219
31765	1.412964	-0.589542	9.642670	0.014737	0.009416	-0.049245	1.000000	-0.000042	0.000014	0.000027	-3.460798	-8.225594	52.049064
31766	1.401354	-0.584632	9.695730	-0.003421	-0.000621	0.001219	1.000000	-0.000057	0.000015	0.000029	-3.461890	-8.225831	52.050255
31767	1.418242	-0.591457	9.666320	0.016057	0.010558	-0.025011	1.000000	-0.000050	0.000014	0.000021	-3.462035	-8.226308	52.050408
31768	1.376985	-0.557616	9.676172	-0.036804	-0.001438	-0.023205	1.000000	-0.000041	0.000020	0.000021	-3.461117	-8.226082	52.050024
31769	1.394398	-0.587812	9.672013	-0.001948	-0.006303	-0.023016	1.000000	-0.000049	0.000020	0.000015	-3.460995	-8.225916	52.049376
31770	1.405716	-0.588418	9.719400	-0.000972	-0.001308	0.025453	1.000000	-0.000054	0.000027	0.000016	-3.461595	-8.224846	52.048685
31771	1.410946	-0.595629	9.642591	0.018081	0.003985	-0.049247	1.000000	-0.000048	-0.000012	0.000040	-3.461858	-8.228123	52.051122
31772	1.404823	-0.566997	9.694093	-0.015229	0.012923	-0.000957	1.000000	-0.000056	0.000020	0.000009	-3.462479	-8.227991	52.049206
31773	1.393245	-0.591974	9.671926	0.000288	-0.009932	-0.023019	1.000000	-0.000041	0.000020	0.000021	-3.461580	-8.227777	52.049249
31774	1.392882	-0.593056	9.671912	0.000840	-0.010840	-0.023020	1.000000	-0.000065	0.000015	0.000023	-3.463485	-8.228088	52.049994
31775	1.420823	-0.575844	9.664694	0.005353	0.022297	-0.027182	1.000000	-0.000039	0.000027	0.000028	-3.462492	-8.226951	52.050842
31776	1.409168	-0.600803	9.642530	0.020868	-0.000542	-0.049252	1.000000	-0.000056	0.000020	0.000009	-3.463164	-8.226777	52.049494
31777	1.408743	-0.601730	9.642535	0.021424	-0.001449	-0.049253	1.000000	-0.000033	0.000021	0.000041	-3.461661	-8.226235	52.051833
31778	1.391771	-0.620296	9.697138	0.018461	-0.030533	0.003371	1.000000	-0.000027	0.000012	0.000025	-3.459361	-8.226827	52.053134
31779	1.407958	-0.603395	9.642545	0.022531	-0.003252	-0.049256	1.000000	-0.000069	0.000029	0.000018	-3.461659	-8.225597	52.052819
31780	1.395632	-0.575042	9.670415	-0.010983	0.002743	-0.025182	1.000000	-0.000043	0.000012	0.000013	-3.460875	-8.226251	52.051947
31781	1.413104	-0.605184	9.666223	0.023872	-0.002133	-0.025022	1.000000	-0.000041	0.000020	0.000021	-3.459977	-8.226035	52.051989
31782	1.412112	-0.582500	9.641028	0.009037	0.013049	-0.051410	1.000000	-0.000049	0.000020	0.000015	-3.459855	-8.225832	52.051503
31783	1.388674	-0.577998	9.646711	-0.009534	-0.002896	-0.049418	1.000000	-0.000050	0.000014	0.000021	-3.460004	-8.226305	52.051652
31784	1.394825	-0.602406	9.695583	0.006660	-0.016968	0.001202	1.000000	-0.000049	0.000018	0.000001	-3.459710	-8.226333	52.049424
31785	1.417068	-0.585313	9.664677	0.010948	0.013256	-0.027170	1.000000	-0.000051	0.000008	0.000028	-3.460128	-8.227447	52.050372
31786	1.394201	-0.604225	9.695560	0.007778	-0.018784	0.001198	1.000000	-0.000024	0.000026	0.000026	-3.457424	-8.226470	52.051087
31787	1.387346	-0.581493	9.646692	-0.007299	-0.006504	-0.049417	1.000000	-0.000043	0.000012	0.000013	-3.456621	-8.227174	52.050322
31788	1.416425	-0.611408	9.689888	0.028026	-0.005557	-0.000797	1.000000	-0.000053	0.000035	0.000024	-3.457134	-8.225156	52.050626
31789	1.398131	-0.583110	9.694104	-0.005712	-0.002494	-0.000939	1.000000	-0.000042	0.000014	0.000027	-3.456506	-8.225580	52.051466
31790	1.403508	-0.583933	9.717812	-0.004913	-0.000486	0.023301	1.000000	-0.000053	0.000035	0.000024	-3.457036	-8.223539	52.052375
31791	1.408399	-0.591049	9.641051	0.014057	0.004937	-0.051408	1.000000	-0.000056	0.000021	0.000023	-3.457872	-8.223133	52.052635
31792	1.373466	-0.580766	9.699829	-0.023156	-0.020241	0.001050	1.000000	-0.000047	0.000027	0.000022	-3.457647	-8.221983	52.052496
31793	1.418868	-0.569055	9.663256	0.000255	0.025041	-0.029288	1.000000	-0.000040	-0.000007	0.000025	-3.456696	-8.224846	52.053213
31794	1.390242	-0.588577	9.670377	-0.003146	-0.009921	-0.025181	1.000000	-0.000085	0.000029	0.000006	-3.460518	-8.223694	52.051199
31795	1.372575	-0.584337	9.699741	-0.021473	-0.022974	0.001047	1.000000	-0.000057	0.000015	0.000029	-3.461624	-8.223931	52.052256
31796	1.417832	-0.572737	9.663190	0.001947	0.022329	-0.029282	1.000000	-0.000041	0.000020	0.000021	-3.460732	-8.223601	52.052128
31797	1.378011	-0.616058	9.648078	0.013454	-0.034535	-0.047316	1.000000	-0.000068	0.000002	0.000022	-3.462979	-8.225447	52.052485
31798	1.370699	-0.540314	9.649334	-0.050620	0.006573	-0.051652	1.000000	-0.000043	0.000012	0.000013	-3.462192	-8.226174	52.051922
31799	1.383477	-0.617894	9.671707	0.014813	-0.033467	-0.023082	1.000000	-0.000043	0.000012	0.000013	-3.461392	-8.226874	52.051154
31800	1.411625	-0.600759	9.664526	0.019327	-0.000340	-0.027174	1.000000	-0.000073	0.000014	0.000003	-3.463876	-8.227605	52.049453
31801	1.393636	-0.572565	9.668724	-0.014411	0.002735	-0.027287	1.000000	-0.000036	0.000006	0.000026	-3.462565	-8.228903	52.050177
31802	1.382359	-0.597348	9.646439	0.001059	-0.020060	-0.049433	1.000000	-0.000045	0.000000	0.000026	-3.462301	-8.230830	52.050974
31803	1.393255	-0.574454	9.668666	-0.013289	0.000928	-0.027286	1.000000	-0.000054	0.000027	0.000016	-3.462873	-8.229778	52.050433
31804	1.421780	-0.580976	9.686670	0.006662	0.017926	-0.005027	1.000000	-0.000057	0.000015	0.000029	-3.463981	-8.230005	52.051356
31805	1.392379	-0.576738	9.668657	-0.012173	-0.000887	-0.027284	1.000000	-0.000054	0.000027	0.000016	-3.464554	-8.228953	52.050814
31806	1.392449	-0.601372	9.693806	0.003814	-0.017941	-0.000954	1.000000	-0.000041	0.000020	0.000021	-3.463665	-8.228670	52.050339
31807	1.426305	-0.583976	9.710378	0.008610	0.018068	0.019221	1.000000	-0.000056	0.000021	0.000023	-3.464506	-8.228260	52.050595
31808	1.408291	-0.585397	9.639279	0.008364	0.008561	-0.053511	1.000000	-0.000049	0.000020	0.000015	-3.464423	-8.228160	52.050685
31809	1.408410	-0.610059	9.664412	0.024347	-0.008508	-0.027189	1.000000	-0.000048	0.000021	0.000029	-3.464486	-8.227704	52.051634
31810	1.437001	-0.616542	9.682409	0.044289	0.008475	-0.004929	1.000000	-0.000058	0.000014	0.000015	-3.465507	-8.228277	52.052078
31811	1.413591	-0.612073	9.688076	0.025714	-0.007469	-0.002948	1.000000	-0.000042	0.000015	0.000041	-3.465060	-8.228419	52.054517
31812	1.389514	-0.583899	9.668639	-0.008298	-0.007247	-0.027283	1.000000	-0.000054	0.000027	0.000016	-3.465636	-8.227416	52.053739
31813	1.406729	-0.614227	9.664393	0.026554	-0.012149	-0.027198	1.000000	-0.000047	0.000027	0.000022	-3.465431	-8.226317	52.053889
31814	1.405740	-0.591440	9.639282	0.011688	0.003131	-0.053511	1.000000	-0.000041	0.000018	0.000007	-3.464365	-8.226286	52.052574
31815	1.405964	-0.615962	9.664394	0.027678	-0.013955	-0.027204	1.000000	-0.000043	0.000012	0.000013	-3.463567	-8.226983	52.051803
31816	1.422933	-0.622584	9.634983	0.047093	-0.002653	-0.053434	1.000000	-0.000058	0.000014	0.000015	-3.464604	-8.227389	52.051555
31817	1.387590	-0.588745	9.668621	-0.005504	-0.011751	-0.027285	1.000000	-0.000049	0.000020	0.000015	-3.464493	-8.227209	52.050897
31818	1.404472	-0.595159	9.639238	0.013908	-0.000472	-0.053514	1.000000	-0.000027	0.000014	0.000039	-3.462314	-8.227564	52.053279
31819	1.409414	-0.572078	9.637843	-0.000693	0.017650	-0.055566	1.000000	-0.000040	0.000024	0.000000	-3.460979	-8.226974	52.050912
31820	1.415223	-0.596529	9.686685	0.015574	0.003383	-0.005021	1.000000	-0.000045	0.000033	0.000016	-3.460547	-8.225288	52.050547
31821	1.390996	-0.568199	9.667296	-0.018445	0.003639	-0.029335	1.000000	-0.000039	0.000027	0.000028	-3.459566	-8.224142	52.051388
31822	1.385121	-0.592802	9.668727	-0.002736	-0.016295	-0.027290	1.000000	-0.000040	0.000026	0.000014	-3.458448	-8.223281	52.051031
31823	1.389925	-0.569971	9.667346	-0.017335	0.001827	-0.029333	1.000000	-0.000054	0.000027	0.000016	-3.459025	-8.222223	52.050485
31824	1.424185	-0.576280	9.709093	0.002947	0.021601	0.017186	1.000000	-0.000040	0.000026	0.000014	-3.457816	-8.221319	52.048857
31825	1.388905	-0.571700	9.667390	-0.016209	0.000012	-0.029331	1.000000	-0.000033	0.000021	0.000041	-3.456325	-8.220772	52.051189
31826	1.423211	-0.577975	9.709135	0.004065	0.019789	0.017189	1.000000	-0.000055	0.000026	0.000002	-3.456791	-8.219943	52.048996
31827	1.393847	-0.573532	9.691111	-0.014805	0.001029	-0.005080	1.000000	-0.000042	0.000015	0.000041	-3.456349	-8.220084	52.051431
31828	1.422428	-0.579788	9.709141	0.005195	0.017965	0.017192	1.000000	-0.000034	0.000018	0.000013	-3.454468	-8.220060	52.050314
31829	1.387261	-0.575246	9.667416	-0.013974	-0.003605	-0.029328	1.000000	-0.000049	0.000020	0.000015	-3.454360	-8.219876	52.049653
31830	1.386881	-0.576147	9.667417	-0.013417	-0.004507	-0.029327	1.000000	-0.000041	0.000018	0.000007	-3.453316	-8.219903	52.048268
31831	1.415546	-0.582547	9.685427	0.006579	0.012423	-0.007054	1.000000	-0.000051	0.000008	0.000028	-3.453746	-8.221007	52.049201
31832	1.397509	-0.554340	9.689701	-0.027150	0.015535	-0.007094	1.000000	-0.000056	0.000020	0.000009	-3.454441	-8.220789	52.047561
31833	1.362792	-0.573872	9.673042	-0.030879	-0.022243	-0.027351	1.000000	-0.000063	0.000023	0.000031	-3.456246	-8.220138	52.048720
31834	1.391360	-0.580420	9.691058	-0.013793	-0.007423	-0.005081	1.000000	-0.000043	0.000012	0.000013	-3.461364	-8.241042	52.026083
31835	1.390959	-0.581405	9.691057	-0.013241	-0.008338	-0.005081	1.000000	-0.000055	0.000027	0.000016	-3.461956	-8.240021	52.025513
31836	1.408001	-0.588011	9.661644	0.006159	0.002978	-0.031300	1.000000	-0.000047	-0.000007	0.000019	-3.461830	-8.242939	52.025879
31837	1.384279	-0.559732	9.642209	-0.027881	0.003301	-0.055590	1.000000	-0.000049	0.000020	0.000015	-3.461736	-8.242795	52.025195
31838	1.419060	-0.589936	9.709023	0.007874	0.006745	0.017204	1.000000	-0.000055	0.000027	0.000016	-3.462341	-8.241686	52.024681
31839	1.418208	-0.567287	9.683944	-0.007018	0.022087	-0.009047	1.000000	-0.000051	0.000008	0.000028	-3.462786	-8.242829	52.025590
31840	1.418298	-0.592066	9.709004	0.008988	0.004921	0.017204	1.000000	-0.000046	0.000029	0.000036	-3.462790	-8.241421	52.027078
31841	1.383180	-0.587496	9.667264	-0.010220	-0.016578	-0.029337	1.000000	-0.000037	0.000005	0.000012	-3.461323	-8.243031	52.026167
31842	1.411890	-0.593952	9.685268	0.009790	0.000311	-0.007049	1.000000	-0.000057	0.000015	0.000029	-3.462462	-8.243269	52.027577
31843	1.388503	-0.589457	9.690923	-0.008807	-0.015620	-0.005085	1.000000	-0.000043	0.000012	0.000013	-3.461682	-8.244001	52.026778
31844	1.428569	-0.601629	9.655841	0.029729	0.010726	-0.033268	1.000000	-0.000065	0.000015	0.000023	-3.463634	-8.244307	52.028263
31845	1.405113	-0.597256	9.661497	0.011131	-0.005203	-0.031305	1.000000	-0.000049	0.000020	0.000015	-3.463541	-8.244161	52.027577
31846	1.422022	-0.603679	9.632113	0.030526	0.006142	-0.057524	1.000000	-0.000035	0.000014	0.000033	-3.462174	-8.244485	52.028618
31847	1.376004	-0.617279	9.668498	0.008230	-0.041080	-0.027366	1.000000	-0.000050	0.000014	0.000021	-3.462352	-8.244983	52.028728
31848	1.427151	-0.605532	9.655807	0.031945	0.007088	-0.033272	1.000000	-0.000047	0.000026	0.000008	-3.461979	-8.244183	52.027082
31849	1.385979	-0.571704	9.665806	-0.020945	-0.004803	-0.031321	1.000000	-0.000051	0.000008	0.000028	-3.462428	-8.245324	52.027988
31850	1.420610	-0.607637	9.632073	0.032734	0.002505	-0.057530	1.000000	-0.000055	0.000027	0.000016	-3.463017	-8.244250	52.027256
31851	1.402604	-0.579208	9.636400	-0.001006	0.005633	-0.057537	1.000000	-0.000031	-0.000001	0.000024	-3.461043	-8.246460	52.027834
31852	1.431710	-0.609374	9.679461	0.034490	0.006202	-0.009022	1.000000	-0.000055	0.000027	0.000016	-3.461595	-8.245380	52.026883
31853	1.402369	-0.604920	9.661419	0.015567	-0.012482	-0.031318	1.000000	-0.000050	0.000014	0.000021	-3.461774	-8.245876	52.026992
31854	1.413213	-0.582139	9.683793	0.001304	0.008419	-0.009024	1.000000	-0.000049	0.000020	0.000015	-3.461713	-8.245707	52.027176
31855	1.378471	-0.601356	9.667084	-0.002485	-0.029314	-0.029361	1.000000	-0.000047	0.000026	0.000008	-3.461353	-8.244913	52.025692
31856	1.412241	-0.583976	9.683824	0.002405	0.006594	-0.009023	1.000000	-0.000040	0.000026	0.000014	-3.460245	-8.244076	52.024832
31857	1.405921	-0.585032	9.660123	0.002628	0.002933	-0.033279	1.000000	-0.000063	0.000023	0.000031	-3.462070	-8.243459	52.025962
31858	1.411500	-0.586021	9.683808	0.003507	0.004780	-0.009022	1.000000	-0.000031	-0.000001	0.000024	-3.460166	-8.245611	52.027167
31859	1.411255	-0.586610	9.683808	0.004060	0.003865	-0.009022	1.000000	-0.000025	0.000024	0.000012	-3.457291	-8.244967	52.026163
31860	1.393070	-0.558131	9.688185	-0.029677	0.007010	-0.009007	1.000000	-0.000056	0.000021	0.000023	-3.458213	-8.244524	52.026710
31861	1.404548	-0.588430	9.660116	0.004829	-0.000688	-0.033279	1.000000	-0.000041	0.000020	0.000021	-3.457345	-8.244332	52.026716
31862	1.404252	-0.589391	9.660100	0.005379	-0.001603	-0.033280	1.000000	-0.000051	0.000008	0.000028	-3.457791	-8.245488	52.027088
31863	1.415183	-0.566693	9.682482	-0.008866	0.019277	-0.010958	1.000000	-0.000050	0.000015	0.000035	-3.458151	-8.245706	52.028799
31864	1.380604	-0.585951	9.665722	-0.012673	-0.018429	-0.031323	1.000000	-0.000051	0.000012	0.000007	-3.458186	-8.246434	52.027345
31865	1.386111	-0.586815	9.689426	-0.011781	-0.016613	-0.007065	1.000000	-0.000034	0.000018	0.000013	-3.456361	-8.246475	52.026441
31866	1.420185	-0.598745	9.630681	0.026408	0.007055	-0.059499	1.000000	-0.000054	0.000029	0.000030	-3.457139	-8.245060	52.027124
31867	1.379513	-0.588598	9.665717	-0.011009	-0.021151	-0.031327	1.000000	-0.000031	-0.000001	0.000024	-3.455167	-8.247269	52.027698
31868	1.407768	-0.571322	9.658730	-0.006439	0.012012	-0.035208	1.000000	-0.000064	0.000021	0.000017	-3.456847	-8.246924	52.027403
31869	1.402023	-0.596252	9.660003	0.009244	-0.007962	-0.033286	1.000000	-0.000050	0.000014	0.000021	-3.457031	-8.247415	52.027508
31870	1.406965	-0.573618	9.658711	-0.005345	0.010190	-0.035205	1.000000	-0.000062	0.000029	0.000024	-3.458636	-8.246172	52.028906
31871	1.406949	-0.598578	9.683702	0.010688	-0.007070	-0.009028	1.000000	-0.000050	0.000014	0.000021	-3.458819	-8.246663	52.029010
31872	1.406215	-0.575937	9.658683	-0.004229	0.008372	-0.035203	1.000000	-0.000065	0.000015	0.000023	-3.460698	-8.246889	52.028678
31873	1.406422	-0.600792	9.683642	0.011806	-0.008894	-0.009031	1.000000	-0.000037	0.000005	0.000012	-3.459236	-8.248493	52.027760
31874	1.405781	-0.577940	9.658626	-0.003116	0.006555	-0.035201	1.000000	-0.000057	0.000015	0.000029	-3.460355	-8.248678	52.028791
31875	1.405224	-0.578909	9.658649	-0.002564	0.005643	-0.035200	1.000000	-0.000037	0.000040	0.000015	-3.458857	-8.246273	52.028012
31876	1.376278	-0.597979	9.665602	-0.006042	-0.029341	-0.031343	1.000000	-0.000044	0.000006	0.000020	-3.458364	-8.247643	52.028194
31877	1.410348	-0.580759	9.682354	-0.001105	0.006522	-0.010938	1.000000	-0.000050	0.000014	0.000021	-3.458549	-8.248132	52.028297
31878	1.398858	-0.605512	9.659886	0.014213	-0.016156	-0.033302	1.000000	-0.000050	0.000014	0.000021	-3.458766	-8.248625	52.029064
31879	1.403953	-0.582696	9.658606	-0.000365	0.001999	-0.035198	1.000000	-0.000042	0.000014	0.000027	-3.458173	-8.249074	52.029862
31880	1.404066	-0.607496	9.683566	0.015675	-0.015280	-0.009044	1.000000	-0.000050	0.000014	0.000021	-3.458390	-8.249545	52.030309
31881	1.420450	-0.590258	9.629216	0.019529	0.012495	-0.061413	1.000000	-0.000060	0.000035	0.000018	-3.459681	-8.247629	52.029842
31882	1.402808	-0.585721	9.658590	0.001278	-0.000739	-0.035198	1.000000	-0.000031	-0.000001	0.000024	-3.457720	-8.249905	52.030784
31883	1.408316	-0.586816	9.682285	0.002195	0.001037	-0.010936	1.000000	-0.000070	0.000029	0.000018	-3.460062	-8.248673	52.030415
31884	1.431387	-0.617271	9.701582	0.037399	-0.001241	0.013257	1.000000	-0.000035	0.000012	0.000019	-3.458583	-8.249297	52.031028
31885	1.401687	-0.588730	9.658570	0.002928	-0.003460	-0.035199	1.000000	-0.000055	0.000028	0.000016	-3.459188	-8.248260	52.030447
31886	1.412326	-0.565998	9.681062	-0.011284	0.017375	-0.012812	1.000000	-0.000039	0.000028	0.000028	-3.458245	-8.247190	52.031212
31887	1.418387	-0.619885	9.654181	0.038310	-0.009355	-0.035278	1.000000	-0.000042	0.000014	0.000027	-3.457654	-8.247638	52.032008
31888	1.406554	-0.615361	9.707269	0.020452	-0.019905	0.015197	1.000000	-0.000042	0.000018	0.000007	-3.456651	-8.247631	52.030789
31889	1.394038	-0.592362	9.634895	0.004753	-0.009772	-0.059466	1.000000	-0.000060	0.000035	0.000018	-3.457944	-8.245713	52.030319
31890	1.405125	-0.593587	9.682336	0.006059	-0.005335	-0.010939	1.000000	-0.000042	0.000014	0.000027	-3.457351	-8.246140	52.031152
31891	1.375697	-0.588781	9.664307	-0.012928	-0.023923	-0.033255	1.000000	-0.000037	0.000040	0.000015	-3.455856	-8.243731	52.030372
31892	1.449975	-0.582553	9.646099	0.029974	0.039245	-0.040964	1.000000	-0.000053	0.000000	0.000020	-3.456420	-8.245831	52.030883
31893	1.432457	-0.578137	9.675446	0.011746	0.025994	-0.014748	1.000000	-0.000049	0.000020	0.000015	-3.456338	-8.245671	52.030187
31894	1.380894	-0.615638	9.712930	0.004615	-0.040402	0.017126	1.000000	-0.000042	0.000014	0.000027	-3.455749	-8.246033	52.030727
31895	1.408586	-0.574537	9.681104	-0.006301	0.009175	-0.012797	1.000000	-0.000055	0.000028	0.000016	-3.456356	-8.244992	52.030144
31896	1.396918	-0.599311	9.658610	0.008996	-0.013465	-0.035212	1.000000	-0.000049	0.000017	0.000049	-3.456908	-8.244868	52.033033
31897	1.402458	-0.600332	9.682306	0.009933	-0.011721	-0.010947	1.000000	-0.000037	0.000005	0.000012	-3.455451	-8.246467	52.032110
31898	1.378529	-0.571803	9.663042	-0.024194	-0.011206	-0.035113	1.000000	-0.000051	0.000041	0.000017	-3.455753	-8.243848	52.032417
31899	1.389674	-0.573016	9.710480	-0.022864	-0.006814	0.013421	1.000000	-0.000046	0.000000	0.000026	-3.455528	-8.245857	52.033195
31900	1.377904	-0.573690	9.663019	-0.023085	-0.013020	-0.035112	1.000000	-0.000042	0.000018	0.000007	-3.454487	-8.245864	52.031395
31901	1.406766	-0.604138	9.706009	0.012535	-0.012715	0.013312	1.000000	-0.000049	0.000020	0.000015	-3.454407	-8.245702	52.030697
31902	1.400499	-0.605005	9.682299	0.012709	-0.016263	-0.010957	1.000000	-0.000047	0.000028	0.000022	-3.454219	-8.244506	52.030509
31903	1.404994	-0.558376	9.656188	-0.017376	0.018340	-0.038889	1.000000	-0.000055	0.000028	0.000016	-3.454828	-8.243463	52.029923
31904	1.381787	-0.577765	9.686773	-0.020468	-0.014014	-0.010845	1.000000	-0.000049	0.000020	0.000015	-3.454725	-8.243302	52.028790
31905	1.381383	-0.578751	9.686772	-0.019916	-0.014928	-0.010845	1.000000	-0.000049	0.000020	0.000015	-3.454646	-8.243138	52.028091
31906	1.421569	-0.590696	9.651715	0.018570	0.011533	-0.039003	1.000000	-0.000046	0.000000	0.000026	-3.454439	-8.245082	52.028969
31907	1.381225	-0.604655	9.711639	-0.003287	-0.033193	0.015243	1.000000	-0.000055	0.000028	0.000016	-3.455049	-8.244036	52.028382
31908	1.420854	-0.592855	9.651688	0.019682	0.009715	-0.039003	1.000000	-0.000058	0.000014	0.000015	-3.456001	-8.244487	52.027271
31909	1.380157	-0.583049	9.686689	-0.017693	-0.018564	-0.010847	1.000000	-0.000058	0.000014	0.000015	-3.456974	-8.245006	52.026668
31910	1.385359	-0.560247	9.685477	-0.032252	-0.000385	-0.012661	1.000000	-0.000037	0.000006	0.000026	-3.455700	-8.246263	52.026928
31911	1.397026	-0.590274	9.657268	0.002177	-0.008009	-0.037061	1.000000	-0.000043	0.000014	0.000027	-3.455115	-8.246706	52.027719
31912	1.419816	-0.596723	9.651602	0.021891	0.006077	-0.039005	1.000000	-0.000043	0.000014	0.000027	-3.454547	-8.247153	52.028817
31913	1.396332	-0.592275	9.657246	0.003276	-0.009832	-0.037063	1.000000	-0.000063	0.000023	0.000031	-3.456391	-8.246517	52.029930
31914	1.378494	-0.588073	9.686622	-0.014924	-0.023122	-0.010852	1.000000	-0.000055	0.000028	0.000016	-3.456979	-8.245447	52.028629
31915	1.418518	-0.599869	9.651598	0.023550	0.003342	-0.039007	1.000000	-0.000028	0.000011	0.000011	-3.454474	-8.246359	52.027605
31916	1.389720	-0.619038	9.658404	0.020046	-0.031648	-0.035270	1.000000	-0.000065	0.000016	0.000023	-3.456447	-8.246624	52.028227
31917	1.400212	-0.572578	9.656051	-0.009635	0.005616	-0.038863	1.000000	-0.000041	0.000020	0.000021	-3.455591	-8.246419	52.028222
31918	1.405967	-0.597603	9.704656	0.006865	-0.009168	0.011471	1.000000	-0.000050	0.000014	0.000021	-3.455785	-8.246901	52.027981
31919	1.399772	-0.598515	9.680930	0.007000	-0.012690	-0.012801	1.000000	-0.000055	0.000028	0.000016	-3.456398	-8.245852	52.027392
31920	1.428056	-0.605416	9.699010	0.027132	0.004005	0.009528	1.000000	-0.000062	0.000029	0.000024	-3.458051	-8.244553	52.028653
31921	1.404264	-0.577084	9.679764	-0.007018	0.004582	-0.014588	1.000000	-0.000052	0.000006	0.000014	-3.458338	-8.245949	52.027934
31922	1.392984	-0.601415	9.657165	0.008222	-0.018021	-0.037078	1.000000	-0.000015	-0.000001	0.000036	-3.454836	-8.248085	52.030057
31923	1.426993	-0.584116	9.674077	0.013253	0.017750	-0.016526	1.000000	-0.000055	0.000028	0.000016	-3.455450	-8.247035	52.029467
31924	1.421130	-0.608957	9.675226	0.028919	-0.002267	-0.014749	1.000000	-0.000050	0.000014	0.000021	-3.455603	-8.247559	52.029584
31925	1.397609	-0.604403	9.680877	0.010302	-0.018175	-0.012812	1.000000	-0.000047	0.000028	0.000022	-3.455438	-8.246471	52.029690
31926	1.379470	-0.575987	9.685394	-0.023413	-0.014981	-0.012647	1.000000	-0.000041	0.000020	0.000021	-3.454546	-8.246170	52.029137
31927	1.407970	-0.582666	9.703462	-0.003261	0.001686	0.009687	1.000000	-0.000050	0.000014	0.000021	-3.454744	-8.246646	52.029226
31928	1.407904	-0.612395	9.627788	0.030277	-0.011081	-0.063303	1.000000	-0.000039	0.000028	0.000028	-3.453841	-8.245505	52.030238
31929	1.401440	-0.584221	9.679745	-0.002590	-0.002723	-0.014585	1.000000	-0.000037	0.000005	0.000012	-3.452389	-8.247097	52.029308
31930	1.401109	-0.585149	9.679737	-0.002033	-0.003635	-0.014586	1.000000	-0.000055	0.000028	0.000016	-3.452986	-8.246021	52.028552
31931	1.423778	-0.591842	9.674081	0.017691	0.010443	-0.016523	1.000000	-0.000058	0.000014	0.000015	-3.453964	-8.246533	52.027943
31932	1.400281	-0.587270	9.679729	-0.000924	-0.005456	-0.014586	1.000000	-0.000040	0.000026	0.000014	-3.452843	-8.245633	52.027224
31933	1.405628	-0.588383	9.703457	0.000066	-0.003796	0.009687	1.000000	-0.000050	0.000014	0.000021	-3.453042	-8.246108	52.027311
31934	1.399501	-0.589282	9.679719	0.000174	-0.007281	-0.014587	1.000000	-0.000056	0.000022	0.000023	-3.453973	-8.245710	52.027995
31935	1.375960	-0.584805	9.685365	-0.018446	-0.023185	-0.012653	1.000000	-0.000048	0.000022	0.000029	-3.454084	-8.245266	52.028892
31936	1.421691	-0.596945	9.674074	0.020454	0.005894	-0.016524	1.000000	-0.000048	0.000022	0.000029	-3.454220	-8.244756	52.030133
31937	1.398002	-0.568441	9.654857	-0.013719	0.006523	-0.040607	1.000000	-0.000052	0.000006	0.000014	-3.454511	-8.246147	52.029408
31938	1.403297	-0.569675	9.678588	-0.012714	0.008193	-0.016330	1.000000	-0.000052	0.000040	0.000003	-3.454610	-8.243686	52.027458
31939	1.397306	-0.594404	9.679723	0.002946	-0.011820	-0.014592	1.000000	-0.000043	0.000014	0.000027	-3.454032	-8.244123	52.028242
31940	1.397009	-0.595436	9.679702	0.003491	-0.012731	-0.014594	1.000000	-0.000058	0.000014	0.000015	-3.455056	-8.244639	52.028422
31941	1.373197	-0.566958	9.660509	-0.030687	-0.012090	-0.038668	1.000000	-0.000047	0.000028	0.000022	-3.454895	-8.243547	52.028525
31942	1.390406	-0.597291	9.655971	0.004146	-0.017110	-0.038872	1.000000	-0.000050	0.000014	0.000021	-3.455097	-8.244001	52.028541
31943	1.418928	-0.604184	9.674031	0.024323	-0.000481	-0.016531	1.000000	-0.000058	0.000016	0.000029	-3.456262	-8.244237	52.029531
31944	1.401054	-0.575971	9.678541	-0.009406	0.002723	-0.016323	1.000000	-0.000052	0.000006	0.000014	-3.456577	-8.245611	52.028826
31945	1.377826	-0.595537	9.709003	-0.012467	-0.029734	0.011607	1.000000	-0.000061	0.000035	0.000017	-3.457886	-8.243670	52.028343
31946	1.399987	-0.553921	9.653715	-0.023869	0.017441	-0.042317	1.000000	-0.000016	-0.000001	0.000036	-3.454348	-8.245878	52.030355
31947	1.423366	-0.608367	9.697702	0.026984	-0.001603	0.007739	1.000000	-0.000070	0.000028	0.000004	-3.456527	-8.244889	52.028362
31948	1.399626	-0.580026	9.678505	-0.007199	-0.000927	-0.016321	1.000000	-0.000052	0.000008	0.000028	-3.457052	-8.245919	52.029715
31949	1.399309	-0.581140	9.678484	-0.006647	-0.001840	-0.016321	1.000000	-0.000056	0.000022	0.000023	-3.457945	-8.245507	52.029911
31950	1.393119	-0.581987	9.654756	-0.006548	-0.005282	-0.040598	1.000000	-0.000049	0.000022	0.000029	-3.458039	-8.244989	52.030527
31951	1.393020	-0.607020	9.679558	0.009571	-0.022766	-0.014616	1.000000	-0.000050	0.000014	0.000021	-3.458244	-8.245458	52.030609
31952	1.398488	-0.608345	9.703257	0.010576	-0.021152	0.009660	1.000000	-0.000058	0.000013	0.000001	-3.459087	-8.246293	52.028984
31953	1.426407	-0.567353	9.671710	-0.000367	0.028602	-0.019951	1.000000	-0.000063	0.000023	0.000030	-3.460944	-8.245643	52.030084
31954	1.403455	-0.610798	9.726959	0.012156	-0.020452	0.033933	1.000000	-0.000027	0.000014	0.000039	-3.458812	-8.245965	52.032227
31955	1.397012	-0.587403	9.678438	-0.003332	-0.007312	-0.016322	1.000000	-0.000055	0.000028	0.000016	-3.459434	-8.244903	52.031629
31956	1.425283	-0.594330	9.696539	0.016875	0.009292	0.006028	1.000000	-0.000055	0.000028	0.000016	-3.460059	-8.243775	52.031052
