// Start Time: Unknown
// Update Rate: 100.0Hz
// Filter Profile: human (46.1)
// Firmware Version: 4.4.0
PacketCounter	Acc_X	Acc_Y	Acc_Z	FreeAcc_X	FreeAcc_Y	FreeAcc_Z	OriInc_q0	OriInc_q1	OriInc_q2	OriInc_q3	Roll	Pitch	Yaw
59294	9.915315	-0.162713	0.548065	0.000000	-0.000000	0.119096	1.000000	0.000032	0.000012	0.000040	-16.502713	-86.701314	15.145408
59295	9.897492	-0.164296	0.531821	0.001995	0.008194	0.100441	1.000000	0.000028	0.000034	0.000046	-17.948355	-86.754146	16.688502
59296	9.915227	-0.164301	0.549178	-0.013705	0.009627	0.119082	1.000000	0.000031	0.000030	0.000036	-17.994855	-86.749590	16.738617
59297	9.920785	-0.172113	0.508383	0.027694	0.001648	0.122568	1.000000	0.000031	0.000019	0.000029	-18.039314	-86.746263	16.786168
59298	9.897371	-0.166287	0.533458	0.002024	0.008246	0.100441	1.000000	0.000031	0.000030	0.000036	-18.085572	-86.741702	16.836040
59299	9.928613	-0.152540	0.535779	0.002321	0.023292	0.131514	1.000000	0.000034	0.000030	0.000044	-18.146215	-86.736884	16.900714
59300	9.915064	-0.167107	0.551282	-0.013683	0.009676	0.119082	1.000000	0.000019	0.000019	0.000043	-18.214774	-86.733220	16.971574
59301	9.897242	-0.168526	0.535138	0.002016	0.008226	0.100441	1.000000	0.000030	0.000037	0.000025	-18.234124	-86.728294	16.994407
59302	9.928490	-0.154633	0.537458	0.002319	0.023275	0.131514	1.000000	0.000028	0.000023	0.000039	-18.290221	-86.724418	17.053838
59303	9.905068	-0.148943	0.562528	-0.023355	0.029839	0.109387	1.000000	0.000041	0.000026	0.000042	-18.345272	-86.720115	17.113677
59304	9.910632	-0.156897	0.521814	0.018015	0.021807	0.112872	1.000000	0.000031	0.000030	0.000036	-18.390730	-86.715540	17.162751
59305	9.910589	-0.157703	0.522387	0.018015	0.021734	0.112873	1.000000	0.000025	0.000027	0.000048	-18.455633	-86.710990	17.230663
59306	9.906896	-0.192417	0.528290	0.011678	-0.012096	0.110136	1.000000	0.000035	0.000019	0.000037	-18.509401	-86.707589	17.288518
59307	9.887122	-0.152857	0.547988	-0.007682	0.028253	0.090746	1.000000	0.000021	0.000038	0.000047	-18.565512	-86.702012	17.347166
59308	9.910469	-0.160160	0.523926	0.017988	0.021654	0.112873	1.000000	0.000032	0.000012	0.000040	-18.629381	-86.699294	17.414842
59309	9.900576	-0.140542	0.533904	0.008285	0.041739	0.103178	1.000000	0.000043	0.000030	0.000021	-18.634653	-86.695724	17.425117
59310	9.920260	-0.181601	0.515288	0.027618	0.001310	0.122568	1.000000	0.000022	0.000020	0.000051	-18.716158	-86.691719	17.509339
59311	9.904741	-0.155006	0.566626	-0.023496	0.029379	0.109388	1.000000	0.000031	0.000030	0.000036	-18.746226	-86.687860	17.543054
59312	9.900464	-0.142747	0.535395	0.008208	0.041562	0.103179	1.000000	0.000035	0.000019	0.000037	-18.799314	-86.684442	17.600229
59313	9.896751	-0.177327	0.541343	0.001813	0.007473	0.100441	1.000000	0.000031	0.000030	0.000036	-18.820724	-86.680620	17.625285
59314	9.928012	-0.163569	0.543600	0.002116	0.022520	0.131515	1.000000	0.000028	0.000023	0.000039	-18.875329	-86.676710	17.683225
59315	9.892446	-0.165896	0.510464	0.033464	0.019363	0.094234	1.000000	0.000042	0.000008	0.000046	-18.924738	-86.674957	17.737696
59316	9.927950	-0.165248	0.544236	0.002063	0.022225	0.131516	1.000000	0.000032	0.000023	0.000047	-18.993330	-86.670731	17.810042
59317	9.900286	-0.146621	0.537627	0.007985	0.040684	0.103183	1.000000	0.000024	0.000034	0.000038	-19.011635	-86.666831	17.831078
59318	9.923637	-0.153670	0.513720	0.033654	0.034083	0.125310	1.000000	0.000024	0.000030	0.000020	-19.027105	-86.662846	17.849328
59319	9.910057	-0.167919	0.529255	0.017479	0.020038	0.112877	1.000000	0.000028	0.000023	0.000039	-19.045776	-86.660635	17.871313
59320	9.886625	-0.162148	0.554260	-0.008190	0.026641	0.090750	1.000000	0.000028	0.000023	0.000039	-19.099855	-86.656710	17.928719
59321	9.923526	-0.155677	0.515247	0.033326	0.033176	0.125314	1.000000	0.000031	0.000030	0.000036	-19.103520	-86.653796	17.935915
59322	9.900093	-0.149850	0.540285	0.007658	0.039781	0.103187	1.000000	0.000035	0.000019	0.000037	-19.155780	-86.650352	17.992252
59323	9.913607	-0.136902	0.525740	0.023401	0.052804	0.115627	1.000000	0.000022	0.000027	0.000041	-19.163770	-86.648418	18.002993
59324	9.923415	-0.157816	0.516741	0.033066	0.032588	0.125317	1.000000	0.000037	0.000026	0.000034	-19.205594	-86.644293	18.049175
59325	9.909825	-0.172237	0.532208	0.016665	0.018316	0.112882	1.000000	0.000019	0.000019	0.000043	-19.221715	-86.643939	18.067065
59326	9.923338	-0.159339	0.517739	0.032665	0.031930	0.125321	1.000000	0.000024	0.000034	0.000038	-19.266906	-86.638846	18.115092
59327	9.876500	-0.146909	0.567338	-0.019060	0.044393	0.081067	1.000000	0.000031	0.000019	0.000029	-19.246160	-86.639222	18.098546
59328	9.882105	-0.154884	0.526563	0.022306	0.036361	0.084556	1.000000	0.000034	0.000030	0.000044	-19.303628	-86.634309	18.160028
59329	9.927418	-0.174363	0.551050	0.000169	0.018161	0.131525	1.000000	0.000028	0.000023	0.000039	-19.291482	-86.634032	18.151583
59330	9.923191	-0.162141	0.519693	0.031869	0.030349	0.125328	1.000000	0.000022	0.000015	0.000034	-19.341359	-86.631117	18.204083
59331	9.881996	-0.157094	0.527942	0.021654	0.034704	0.084564	1.000000	0.000034	0.000030	0.000044	-19.328148	-86.629070	18.195460
59332	9.927300	-0.176527	0.552474	-0.000093	0.017328	0.131526	1.000000	0.000037	0.000026	0.000034	-19.369511	-86.624954	18.241194
59333	9.868343	-0.172040	0.544157	0.005113	0.020211	0.072122	1.000000	0.000030	0.000037	0.000025	-19.322155	-86.624552	18.197508
59334	9.923030	-0.164878	0.521904	0.031065	0.028626	0.125336	1.000000	0.000029	0.000016	0.000050	-19.399788	-86.621008	18.278605
59335	9.922994	-0.165670	0.522330	0.030552	0.027744	0.125340	1.000000	0.000018	0.000027	0.000033	-19.374321	-86.621300	18.255422
59336	9.922953	-0.166325	0.522901	0.030546	0.027745	0.125340	1.000000	0.000031	0.000030	0.000036	-19.417398	-86.616711	18.302100
59337	9.913076	-0.146860	0.533021	0.020291	0.046967	0.115663	1.000000	0.000034	0.000030	0.000044	-19.399197	-86.616858	18.289628
59338	9.899463	-0.161255	0.548488	0.004280	0.033360	0.103213	1.000000	0.000022	0.000015	0.000034	-19.448702	-86.613984	18.341789
59339	9.909258	-0.182191	0.539404	0.013229	0.012186	0.112896	1.000000	0.000022	0.000027	0.000041	-19.437151	-86.615215	18.332397
59340	9.889560	-0.142685	0.558846	-0.006112	0.052633	0.093536	1.000000	0.000052	0.000015	0.000059	-19.529241	-86.611382	18.430568
59341	9.905009	-0.171028	0.508617	0.044680	0.023324	0.106718	1.000000	0.000030	0.000037	0.000025	-19.456602	-86.609623	18.364104
59342	9.912895	-0.150636	0.535325	0.019292	0.044955	0.115674	1.000000	0.000039	0.000008	0.000038	-19.516522	-86.607428	18.428636
59343	9.912869	-0.151285	0.535636	0.018546	0.043764	0.115681	1.000000	0.000025	0.000023	0.000031	-19.467759	-86.610092	18.386143
59344	9.899244	-0.165617	0.551140	0.002529	0.030152	0.103224	1.000000	0.000041	0.000026	0.000042	-19.522480	-86.605779	18.445747
59345	9.916944	-0.165595	0.568462	-0.013859	0.030384	0.121860	1.000000	0.000031	0.000030	0.000036	-19.476913	-86.607041	18.406412
59346	9.895004	-0.154240	0.520486	0.033529	0.041162	0.097055	1.000000	0.000013	0.000023	0.000045	-19.542753	-86.602983	18.473944
59347	9.902885	-0.134111	0.547269	0.008059	0.061793	0.106019	1.000000	0.000034	0.000030	0.000044	-19.508882	-86.600355	18.445282
59348	9.926636	-0.188262	0.560472	-0.004344	0.009127	0.131536	1.000000	0.000032	0.000012	0.000040	-19.569377	-86.597744	18.509768
59349	9.898673	-0.122867	0.516316	0.038846	0.072853	0.099860	1.000000	0.000044	0.000026	0.000050	-19.562270	-86.599948	18.508683
59350	9.902776	-0.136610	0.548615	0.007108	0.060640	0.106027	1.000000	0.000022	0.000027	0.000041	-19.615931	-86.595709	18.565093
59351	9.935967	-0.164192	0.515203	0.041649	0.032542	0.137842	1.000000	0.000031	0.000030	0.000036	-19.567751	-86.597636	18.522281
59352	9.898903	-0.171887	0.555314	-0.000033	0.025557	0.103237	1.000000	0.000031	0.000030	0.000036	-19.609687	-86.593248	18.568012
59353	9.922274	-0.179204	0.531466	0.025107	0.017801	0.125378	1.000000	0.000024	0.000034	0.000038	-19.565538	-86.593006	18.527689
59354	9.926023	-0.146014	0.526546	0.031393	0.051611	0.128180	1.000000	0.000037	0.000026	0.000034	-19.605815	-86.589114	18.572523
59355	9.898767	-0.173970	0.557098	-0.001591	0.023273	0.103242	1.000000	0.000022	0.000027	0.000041	-19.586050	-86.592354	18.554823
59356	9.894595	-0.161719	0.525969	0.030064	0.035459	0.097088	1.000000	0.000030	0.000037	0.000025	-19.604202	-86.587678	18.576641
59357	9.902483	-0.141333	0.552701	0.004432	0.055923	0.106056	1.000000	0.000032	0.000012	0.000040	-19.565578	-86.588368	18.545780
59358	9.898637	-0.175983	0.558770	-0.001938	0.022076	0.103245	1.000000	0.000030	0.000041	0.000043	-19.612353	-86.582543	18.596347
59359	9.894471	-0.163946	0.527607	0.028962	0.033326	0.097098	1.000000	0.000038	0.000019	0.000045	-19.614751	-86.584957	18.600887
59360	9.921974	-0.184245	0.535326	0.022852	0.014468	0.125389	1.000000	0.000028	0.000023	0.000039	-19.667069	-86.581308	18.656718
59361	9.902315	-0.144438	0.554909	0.002667	0.053982	0.106067	1.000000	0.000027	0.000041	0.000035	-19.640468	-86.582030	18.631223
59362	9.912066	-0.165461	0.546197	0.012269	0.033736	0.115730	1.000000	0.000028	0.000034	0.000046	-19.698304	-86.576925	18.692486
59363	9.902215	-0.145904	0.556305	0.001645	0.052969	0.106073	1.000000	0.000028	0.000030	0.000028	-19.665180	-86.579782	18.661909
59364	9.904055	-0.187848	0.521104	0.036621	0.011104	0.106772	1.000000	0.000019	0.000019	0.000044	-19.730116	-86.576387	18.729260
59365	9.919867	-0.146708	0.573996	-0.015349	0.053141	0.124702	1.000000	0.000032	0.000023	0.000047	-19.723300	-86.580983	18.729634
59366	9.890079	-0.156337	0.499674	0.057392	0.042334	0.090984	1.000000	0.000025	0.000023	0.000031	-19.762935	-86.577817	18.772335
59367	9.925500	-0.155491	0.533637	0.025408	0.044148	0.128233	1.000000	0.000035	0.000019	0.000037	-19.743035	-86.579000	18.756173
59368	9.894107	-0.170500	0.532333	0.025073	0.029166	0.097122	1.000000	0.000037	0.000026	0.000034	-19.784780	-86.575323	18.802421
59369	9.911786	-0.170511	0.549714	0.008742	0.029399	0.115747	1.000000	0.000028	0.000034	0.000046	-19.755140	-86.575332	18.779630
59370	9.907660	-0.158400	0.518391	0.040364	0.041592	0.109620	1.000000	0.000029	0.000011	0.000032	-19.803246	-86.573367	18.831312
59371	9.907624	-0.159272	0.518817	0.039655	0.040705	0.109627	1.000000	0.000041	0.000030	0.000060	-19.827648	-86.573318	18.858716
59372	9.929378	-0.172308	0.568029	-0.007878	0.029858	0.134370	1.000000	0.000024	0.000034	0.000038	-19.872233	-86.568715	18.906334
59373	9.884104	-0.154260	0.544385	0.013537	0.046342	0.087481	1.000000	0.000032	0.000012	0.000040	-19.853274	-86.569925	18.892833
59374	9.938867	-0.147229	0.522186	0.039326	0.054632	0.140750	1.000000	0.000030	0.000037	0.000025	-19.872108	-86.565464	18.915347
59375	9.889742	-0.162900	0.504245	0.053953	0.037608	0.091022	1.000000	0.000028	0.000023	0.000039	-19.889198	-86.567529	18.929440
59376	9.907427	-0.162878	0.521446	0.038122	0.038972	0.109640	1.000000	0.000035	0.000019	0.000037	-19.941411	-86.564601	18.985868
59377	9.925111	-0.162856	0.538648	0.021040	0.039430	0.128263	1.000000	0.000028	0.000023	0.000039	-19.952576	-86.569772	18.999627
59378	9.893705	-0.177863	0.537376	0.020690	0.024466	0.097145	1.000000	0.000037	0.000026	0.000034	-19.995145	-86.566239	19.046672
59379	9.925020	-0.164374	0.539865	0.019153	0.038662	0.128270	1.000000	0.000046	0.000045	0.000054	-20.045353	-86.570472	19.099277
59380	9.897474	-0.145723	0.533093	0.025115	0.057529	0.100005	1.000000	0.000032	0.000012	0.000040	-20.109549	-86.568367	19.167315
59381	9.911280	-0.179446	0.555948	0.001550	0.024419	0.115765	1.000000	0.000030	0.000037	0.000025	-20.115284	-86.572887	19.170403
59382	9.901452	-0.159765	0.565984	-0.008241	0.044666	0.106111	1.000000	0.000028	0.000023	0.000039	-20.171728	-86.569693	19.230152
59383	9.907140	-0.167929	0.525288	0.032238	0.036120	0.109671	1.000000	0.000031	0.000030	0.000036	-20.196378	-86.570837	19.250583
59384	9.907095	-0.168685	0.525896	0.032090	0.036132	0.109672	1.000000	0.000034	0.000030	0.000044	-20.257022	-86.566639	19.315135
59385	9.897271	-0.149207	0.535895	0.020785	0.055795	0.100025	1.000000	0.000022	0.000027	0.000041	-20.311511	-86.572478	19.365530
59386	9.932662	-0.148475	0.569820	-0.010881	0.058564	0.137235	1.000000	0.000020	0.000008	0.000037	-20.376843	-86.571042	19.433025
59387	9.893163	-0.137923	0.504865	0.051172	0.067182	0.093949	1.000000	0.000047	0.000034	0.000047	-20.395968	-86.573545	19.458016
59388	9.914870	-0.150894	0.554029	0.003519	0.056378	0.118635	1.000000	0.000032	0.000023	0.000047	-20.468430	-86.570159	19.534028
59389	9.938272	-0.158697	0.530101	0.028196	0.048521	0.140819	1.000000	0.000013	0.000027	0.000063	-20.483492	-86.572023	19.559999
59390	9.883397	-0.167075	0.553366	0.002187	0.040268	0.087517	1.000000	0.000037	0.000033	0.000023	-20.506029	-86.568500	19.586638
59391	9.906800	-0.174369	0.529574	0.026724	0.033053	0.109699	1.000000	0.000031	0.000030	0.000036	-20.533741	-86.570746	19.610365
59392	9.920435	-0.161551	0.515131	0.042498	0.046642	0.122226	1.000000	0.000022	0.000027	0.000041	-20.594242	-86.567274	19.673244
59393	9.916370	-0.149451	0.483857	0.072836	0.058184	0.116168	1.000000	0.000038	0.000026	0.000034	-20.620244	-86.571979	19.699940
59394	9.918635	-0.168328	0.589153	-0.032181	0.041867	0.124715	1.000000	0.000019	0.000019	0.000044	-20.691868	-86.569233	19.773617
59395	9.914572	-0.156226	0.557877	-0.000471	0.053355	0.118653	1.000000	0.000040	0.000033	0.000031	-20.656833	-86.565824	19.739920
59396	9.920280	-0.164429	0.517191	0.040684	0.045322	0.122240	1.000000	0.000019	0.000019	0.000044	-20.728173	-86.563034	19.813299
59397	9.892776	-0.145602	0.510259	0.045263	0.063176	0.094005	1.000000	0.000038	0.000026	0.000034	-20.724060	-86.569359	19.820606
59398	9.914458	-0.158392	0.559291	-0.002442	0.052363	0.118658	1.000000	0.000026	0.000015	0.000042	-20.794286	-86.567149	19.893662
59399	9.902474	-0.167417	0.501700	0.054531	0.041845	0.103663	1.000000	0.000022	0.000027	0.000041	-20.749931	-86.565562	19.859190
59400	9.896683	-0.160654	0.543375	0.012961	0.049907	0.100070	1.000000	0.000035	0.000019	0.000037	-20.807636	-86.563162	19.920824
59401	9.902401	-0.168849	0.502655	0.052411	0.041117	0.103677	1.000000	0.000031	0.000030	0.000036	-20.844360	-86.570416	19.960210
59402	9.914300	-0.161212	0.561273	-0.004945	0.050544	0.118666	1.000000	0.000028	0.000030	0.000028	-20.880171	-86.567305	19.999050
59403	9.878863	-0.163328	0.528236	0.024654	0.046416	0.081497	1.000000	0.000022	0.000027	0.000041	-20.867144	-86.576181	20.005445
59404	9.896512	-0.163374	0.545683	0.008628	0.047776	0.100085	1.000000	0.000037	0.000037	0.000041	-20.919686	-86.571865	20.062245
59405	9.927861	-0.149952	0.548081	0.007140	0.062270	0.131224	1.000000	0.000032	0.000023	0.000047	-21.002122	-86.577497	20.140741
59406	9.910132	-0.151402	0.531698	0.022644	0.060927	0.112640	1.000000	0.000031	0.000019	0.000029	-21.047995	-86.575740	20.190148
59407	9.906155	-0.185782	0.537704	0.015373	0.026621	0.109742	1.000000	0.000031	0.000019	0.000029	-21.072111	-86.578700	20.208882
59408	9.919827	-0.172829	0.523108	0.031049	0.040201	0.122296	1.000000	0.000025	0.000023	0.000031	-21.119901	-86.576478	20.259405
59409	9.919790	-0.173442	0.523601	0.029443	0.039969	0.122302	1.000000	0.000038	0.000026	0.000034	-21.193728	-86.581519	20.324353
59410	9.892303	-0.154590	0.516747	0.035312	0.058892	0.094071	1.000000	0.000034	0.000030	0.000044	-21.259624	-86.578007	20.393996
59411	9.905992	-0.188374	0.539794	0.012147	0.025963	0.109748	1.000000	0.000028	0.000030	0.000028	-21.279169	-86.580326	20.410123
59412	9.909918	-0.155312	0.534546	0.018187	0.059809	0.112656	1.000000	0.000026	0.000008	0.000053	-21.377218	-86.578811	20.511021
59413	9.923596	-0.142544	0.519989	0.033962	0.072618	0.125222	1.000000	0.000030	0.000037	0.000025	-21.331111	-86.576244	20.468204
59414	9.913811	-0.169512	0.567438	-0.014023	0.046899	0.118675	1.000000	0.000032	0.000023	0.000047	-21.407706	-86.573386	20.548224
59415	9.909801	-0.157422	0.536104	0.016388	0.058034	0.112669	1.000000	0.000034	0.000026	0.000026	-21.380948	-86.578856	20.534945
59416	9.901825	-0.179090	0.510409	0.041483	0.036443	0.103747	1.000000	0.000028	0.000023	0.000039	-21.443808	-86.576412	20.600874
59417	9.899979	-0.138417	0.546499	0.004982	0.077598	0.103025	1.000000	0.000031	0.000030	0.000036	-21.469252	-86.581262	20.630409
59418	9.933152	-0.166287	0.513273	0.039837	0.050657	0.134898	1.000000	0.000028	0.000023	0.000039	-21.532524	-86.578883	20.696753
59419	9.891959	-0.160842	0.521410	0.029584	0.055257	0.094111	1.000000	0.000040	0.000033	0.000031	-21.508537	-86.578131	20.680243
59420	9.909595	-0.160766	0.538903	0.013476	0.056633	0.112682	1.000000	0.000024	0.000034	0.000038	-21.562255	-86.574590	20.736566
59421	9.917492	-0.140643	0.565625	-0.012485	0.077698	0.121605	1.000000	0.000026	0.000020	0.000059	-21.621218	-86.574141	20.794459
59422	9.919250	-0.183005	0.530545	0.022213	0.035848	0.122337	1.000000	0.000022	0.000027	0.000041	-21.685550	-86.571245	20.861086
59423	9.899726	-0.143142	0.549840	0.001830	0.075358	0.103043	1.000000	0.000034	0.000030	0.000044	-21.686451	-86.574533	20.873353
59424	9.909417	-0.164257	0.541123	0.011116	0.055117	0.112693	1.000000	0.000024	0.000034	0.000038	-21.740007	-86.571036	20.929541
59425	9.909374	-0.164989	0.541693	0.010053	0.054566	0.112698	1.000000	0.000028	0.000023	0.000039	-21.777452	-86.573891	20.966233
59426	9.909333	-0.165700	0.542225	0.009720	0.054588	0.112698	1.000000	0.000031	0.000030	0.000036	-21.830175	-86.570915	21.022317
59427	9.913237	-0.178969	0.574519	-0.022782	0.041842	0.118682	1.000000	0.000015	0.000015	0.000018	-21.827384	-86.573808	21.018512
59428	9.923012	-0.153322	0.528008	0.024563	0.067618	0.125285	1.000000	0.000019	0.000019	0.000044	-21.902761	-86.571648	21.095902
59429	9.901289	-0.188736	0.517273	0.033198	0.031607	0.103795	1.000000	0.000032	0.000023	0.000047	-21.918082	-86.573491	21.119316
59430	9.930798	-0.180470	0.592615	-0.040095	0.042382	0.137242	1.000000	0.000038	0.000026	0.000034	-21.969759	-86.571035	21.175104
59431	9.887552	-0.157095	0.495771	0.054375	0.062956	0.088182	1.000000	0.000028	0.000023	0.000039	-21.935789	-86.572638	21.157265
59432	9.940541	-0.155652	0.546673	0.006621	0.066994	0.143863	1.000000	0.000035	0.000019	0.000037	-21.997527	-86.570853	21.222903
59433	9.891507	-0.124538	0.491005	0.060002	0.095863	0.091136	1.000000	0.000043	0.000029	0.000022	-21.938166	-86.570641	21.172449
59434	9.958139	-0.156286	0.564456	-0.009882	0.067412	0.162428	1.000000	-0.000022	0.000017	0.000061	-22.049968	-86.568007	21.281791
59435	9.807156	-0.165332	0.617321	-0.072714	0.056812	0.014836	1.000000	0.000060	0.000006	0.000001	-22.138283	-86.576280	21.349860
59436	9.785163	-0.223915	0.466436	0.076254	-0.003873	-0.014152	1.000000	0.000074	0.000059	0.000058	-22.203952	-86.569352	21.423850
59437	9.956100	-0.094164	0.424115	0.130047	0.129978	0.151190	1.000000	0.000030	0.000057	0.000067	-22.298223	-86.565414	21.509130
59438	10.309281	-0.104041	0.619782	-0.046704	0.131420	0.514789	1.000000	-0.000069	-0.000113	0.000000	-22.405095	-86.579284	21.607829
59439	9.796959	-0.287429	0.740115	-0.199118	-0.061667	0.014181	1.000000	-0.000000	0.000075	0.000038	-22.390952	-86.576392	21.593486
59440	9.840435	-0.102515	0.510713	0.035696	0.121109	0.040716	1.000000	0.000111	0.000053	-0.000003	-22.349691	-86.572804	21.564515
59441	9.694993	-0.142912	0.382789	0.155266	0.076600	-0.110633	1.000000	0.000012	0.000054	0.000094	-22.513071	-86.566034	21.708096
59442	9.888915	-0.206361	0.465850	0.082661	0.019920	0.088980	1.000000	0.000089	0.000017	0.000034	-22.566211	-86.564594	21.771029
59443	10.159857	-0.157378	0.639679	-0.074914	0.077624	0.367932	1.000000	-0.000039	-0.000017	0.000039	-22.599432	-86.564618	21.793981
59444	9.943886	-0.223333	0.620881	-0.069798	0.007260	0.152819	1.000000	0.000034	-0.000023	0.000020	-22.663289	-86.567970	21.861289
59445	9.820717	-0.112173	0.568663	-0.023161	0.115061	0.024419	1.000000	0.000055	0.000055	0.000039	-22.672339	-86.563761	21.868747
59446	9.828402	-0.115468	0.455401	0.090916	0.111070	0.025890	1.000000	0.000030	0.000041	0.000043	-22.731016	-86.559317	21.930441
59447	9.818475	-0.142464	0.502989	0.043437	0.084984	0.019232	1.000000	0.000034	0.000030	0.000044	-22.740733	-86.553837	21.934849
59448	9.839611	-0.225549	0.449581	0.097204	0.002558	0.039291	1.000000	0.000034	0.000041	0.000051	-22.812578	-86.548975	22.010087
59449	9.981224	-0.127574	0.509752	0.045536	0.105203	0.181702	1.000000	0.000041	0.000015	0.000035	-22.895345	-86.553751	22.086408
59450	9.955404	-0.196698	0.504484	0.048241	0.036287	0.157248	1.000000	0.000001	0.000001	0.000046	-22.993176	-86.553367	22.183869
59451	9.951864	-0.114514	0.575743	-0.021426	0.118905	0.155742	1.000000	0.000066	0.000029	0.000031	-22.899233	-86.550118	22.109135
59452	9.892807	-0.156071	0.604711	-0.053784	0.077023	0.099368	1.000000	-0.000021	0.000046	0.000026	-22.930173	-86.545913	22.137080
59453	9.871232	-0.144693	0.556532	-0.007656	0.087148	0.074892	1.000000	0.000058	0.000007	0.000040	-22.979751	-86.552711	22.196730
59454	9.884762	-0.178491	0.579723	-0.030208	0.054746	0.090471	1.000000	0.000036	0.000056	0.000037	-23.016536	-86.546990	22.237083
59455	9.863173	-0.167325	0.531875	0.016428	0.065209	0.066004	1.000000	0.000019	0.000031	0.000050	-23.084156	-86.547413	22.301494
59456	9.955134	-0.201071	0.508070	0.044991	0.034173	0.157271	1.000000	0.000026	0.000015	0.000042	-23.160732	-86.545755	22.380511
59457	9.951607	-0.118781	0.579300	-0.025361	0.118009	0.155744	1.000000	0.000019	0.000015	0.000026	-23.208845	-86.545440	22.415577
59458	9.898154	-0.214539	0.604270	-0.054542	0.022065	0.106040	1.000000	0.000016	0.000019	0.000036	-23.273484	-86.543633	22.481412
59459	9.837791	-0.121821	0.593333	-0.046051	0.113816	0.042968	1.000000	0.000060	0.000037	0.000051	-23.343025	-86.542601	22.547801
59460	9.919661	-0.205254	0.476583	0.074576	0.031342	0.120207	1.000000	0.000022	0.000059	0.000023	-23.354988	-86.537131	22.561579
59461	9.909906	-0.185692	0.486712	0.064066	0.051411	0.110561	1.000000	0.000039	0.000023	0.000063	-23.459905	-86.537447	22.662669
59462	9.980726	-0.137224	0.516951	0.038529	0.102888	0.181756	1.000000	0.000032	0.000019	0.000029	-23.512763	-86.536004	22.718408
59463	9.853143	-0.152805	0.545479	0.002503	0.085255	0.056357	1.000000	0.000044	0.000022	0.000033	-23.567370	-86.535896	22.765435
59464	9.874595	-0.165432	0.594732	-0.045481	0.074559	0.080799	1.000000	0.000050	0.000030	0.000038	-23.624734	-86.532913	22.827762
59465	9.898313	-0.126693	0.533560	0.018558	0.113588	0.100137	1.000000	0.000043	0.000045	0.000046	-23.642477	-86.524470	22.836757
59466	9.904124	-0.135171	0.493035	0.059514	0.105503	0.103882	1.000000	0.000016	0.000019	0.000036	-23.708319	-86.522594	22.903557
59467	9.925571	-0.147893	0.542230	0.010456	0.093678	0.128337	1.000000	0.000022	0.000027	0.000041	-23.714934	-86.527952	22.924718
59468	9.907602	-0.195993	0.563341	-0.012262	0.046447	0.112736	1.000000	0.000026	0.000008	0.000053	-23.817151	-86.526490	23.029243
59469	9.911687	-0.162938	0.558062	-0.007303	0.080024	0.115710	1.000000	0.000030	0.000037	0.000025	-23.864349	-86.529682	23.072429
59470	9.943102	-0.149513	0.560504	-0.007585	0.094976	0.146867	1.000000	0.000032	0.000023	0.000047	-23.945500	-86.526991	23.156412
59471	9.880138	-0.178510	0.557360	-0.009979	0.065155	0.084549	1.000000	0.000031	0.000030	0.000036	-24.058870	-86.534118	23.264620
59472	9.901868	-0.144816	0.569047	-0.019815	0.100406	0.106047	1.000000	0.000025	0.000027	0.000049	-24.141859	-86.530991	23.349632
59473	9.903551	-0.187134	0.534201	0.014443	0.057511	0.106849	1.000000	0.000031	0.000030	0.000036	-24.119751	-86.531740	23.337839
59474	9.917326	-0.174524	0.519823	0.029979	0.071090	0.119487	1.000000	0.000028	0.000034	0.000046	-24.191476	-86.528000	23.411906
59475	9.926961	-0.195762	0.511160	0.038499	0.050369	0.129151	1.000000	0.000022	0.000027	0.000041	-24.240390	-86.529673	23.459982
59476	9.893732	-0.169026	0.545220	0.003091	0.077540	0.097194	1.000000	0.000025	0.000023	0.000031	-24.296087	-86.527841	23.517638
59477	9.885741	-0.190836	0.519467	0.028160	0.055273	0.088338	1.000000	0.000045	0.000015	0.000043	-24.313309	-86.527271	23.538608
59478	9.907497	-0.157041	0.530962	0.018313	0.090518	0.109840	1.000000	0.000025	0.000023	0.000031	-24.368860	-86.525427	23.596115
59479	9.917135	-0.178163	0.522226	0.027310	0.069470	0.119506	1.000000	0.000034	0.000030	0.000044	-24.371554	-86.524742	23.605865
59480	9.921248	-0.145264	0.517041	0.033311	0.103343	0.122493	1.000000	0.000025	0.000027	0.000049	-24.453941	-86.521623	23.690298
59481	9.907371	-0.159431	0.532596	0.017177	0.089249	0.109854	1.000000	0.000038	0.000026	0.000034	-24.443930	-86.519706	23.683323
59482	9.907323	-0.160161	0.533273	0.016774	0.089327	0.109854	1.000000	0.000031	0.000041	0.000043	-24.504144	-86.515325	23.746150
59483	9.911449	-0.127237	0.528044	0.022662	0.122384	0.112853	1.000000	0.000016	0.000012	0.000047	-24.528064	-86.516311	23.773639
59484	9.899287	-0.182914	0.508064	0.041232	0.066999	0.101004	1.000000	0.000038	0.000026	0.000034	-24.584392	-86.513932	23.833398
59485	9.921053	-0.148940	0.519730	0.030676	0.102045	0.122515	1.000000	0.000043	0.000029	0.000022	-24.627655	-86.516057	23.873569
59486	9.938647	-0.148931	0.537096	0.014409	0.103495	0.141027	1.000000	0.000023	0.000019	0.000052	-24.720933	-86.513542	23.968562
59487	9.875654	-0.178007	0.533822	0.013836	0.073156	0.078706	1.000000	0.000013	0.000023	0.000045	-24.741838	-86.512605	23.991124
59488	9.924719	-0.164027	0.553082	-0.002356	0.089467	0.128381	1.000000	0.000031	0.000030	0.000036	-24.799190	-86.509730	24.051099
59489	9.893189	-0.178812	0.551908	-0.002910	0.074594	0.097216	1.000000	0.000018	0.000038	0.000040	-24.853600	-86.506517	24.095970
59490	9.920842	-0.152866	0.522616	0.028553	0.101658	0.122525	1.000000	0.000037	0.000037	0.000041	-24.913272	-86.502607	24.158900
59491	9.893080	-0.180386	0.553339	-0.004000	0.073899	0.097221	1.000000	0.000034	0.000030	0.000044	-24.919320	-86.502796	24.172074
59492	9.924513	-0.166984	0.555873	-0.004338	0.088843	0.128386	1.000000	0.000030	0.000037	0.000025	-24.952739	-86.499692	24.207940
59493	9.948003	-0.174632	0.532024	0.006315	-0.013075	0.151052	1.000000	0.000045	0.000004	0.000037	-16.685747	-86.767731	15.433072
59494	9.820330	-0.189999	0.560371	-0.029360	-0.029728	0.025364	1.000000	0.000037	0.000037	0.000041	-16.683545	-86.766382	15.431681
59495	9.869008	-0.246436	0.477496	0.055280	-0.087290	0.070398	1.000000	0.000077	0.000062	0.000037	-16.653357	-86.762687	15.418898
59496	10.038547	-0.122257	0.507930	0.037030	0.040280	0.239296	1.000000	-0.000022	0.000017	0.000061	-16.708583	-86.762890	15.468280
59497	9.870196	-0.084442	0.505728	0.030549	0.075300	0.070483	1.000000	0.000108	0.000004	-0.000018	-16.621010	-86.767208	15.346845
59498	9.906170	-0.218183	0.580121	-0.044633	-0.056157	0.112593	1.000000	-0.000036	0.000052	0.000096	-16.725439	-86.762448	15.443914
59499	9.973776	-0.110771	0.540993	0.000545	0.051489	0.176232	1.000000	0.000079	0.000013	-0.000008	-16.641244	-86.765604	15.361236
59500	9.878800	-0.199827	0.573599	-0.039164	-0.038415	0.084617	1.000000	-0.000039	0.000036	0.000064	-16.692083	-86.763632	15.404272
59501	9.871616	-0.104786	0.613080	-0.076599	0.057426	0.078040	1.000000	0.000100	0.000035	0.000015	-16.633737	-86.762877	15.349182
59502	9.857336	-0.189311	0.526222	0.007659	-0.029322	0.060453	1.000000	-0.000023	0.000036	0.000057	-16.670575	-86.761184	15.380007
59503	9.865736	-0.122586	0.515334	0.020586	0.037358	0.067167	1.000000	0.000069	0.000036	0.000028	-16.643665	-86.760737	15.358926
59504	9.988642	-0.189078	0.531385	0.009668	-0.026783	0.191826	1.000000	-0.000050	0.000003	0.000058	-16.703181	-86.762619	15.409400
59505	9.941919	-0.104905	0.682545	-0.142271	0.060050	0.151989	1.000000	0.000041	0.000006	0.000000	-16.640225	-86.765594	15.332837
59506	9.752550	-0.259820	0.569367	-0.042973	-0.100746	-0.040690	1.000000	0.000033	0.000056	0.000029	-16.604760	-86.762625	15.297602
59507	9.851693	-0.138646	0.532682	0.002543	0.021371	0.054347	1.000000	0.000052	0.000068	0.000084	-16.667168	-86.756124	15.352643
59508	10.009953	-0.228346	0.442319	0.099289	-0.067506	0.208916	1.000000	-0.000004	-0.000025	0.000045	-16.713316	-86.761438	15.394997
59509	9.971200	-0.122782	0.619326	-0.077917	0.041167	0.178094	1.000000	0.000050	0.000010	-0.000005	-16.635702	-86.765117	15.340268
59510	9.923230	-0.225829	0.603156	-0.067013	-0.063300	0.130994	1.000000	0.000004	0.000009	0.000043	-16.658177	-86.766854	15.359776
59511	9.823802	-0.167975	0.563986	-0.031775	-0.007784	0.028670	1.000000	0.000080	0.000069	0.000034	-16.626568	-86.762061	15.312532
59512	9.908248	-0.176971	0.477090	0.059675	-0.017371	0.108423	1.000000	0.000023	0.000012	0.000063	-16.681912	-86.762758	15.367188
59513	9.892638	-0.149690	0.527815	0.008795	0.011173	0.095141	1.000000	0.000041	0.000026	0.000042	-16.689816	-86.761883	15.361413
59514	9.935792	-0.127839	0.587951	-0.048678	0.035041	0.141126	1.000000	0.000020	-0.000003	0.000030	-16.691627	-86.765368	15.362093
59515	9.861099	-0.164944	0.526221	0.007578	-0.004775	0.063815	1.000000	0.000035	0.000007	0.000030	-16.685430	-86.767560	15.368249
59516	9.864763	-0.178149	0.558704	-0.024912	-0.017297	0.069444	1.000000	0.000068	0.000047	0.000035	-16.662141	-86.765302	15.349310
59517	9.920314	-0.125621	0.499458	0.039091	0.034611	0.120849	1.000000	-0.000001	0.000038	0.000038	-16.648976	-86.762178	15.333316
59518	9.971054	-0.153306	0.483548	0.057201	0.007350	0.171095	1.000000	0.000048	0.000022	0.000041	-16.653231	-86.762516	15.339594
59519	9.925618	-0.181342	0.496897	0.040319	-0.020984	0.126911	1.000000	0.000004	-0.000003	0.000037	-16.678871	-86.766272	15.333317
59520	9.906318	-0.141065	0.515702	0.021315	0.019354	0.108006	1.000000	0.000056	0.000044	0.000032	-16.652681	-86.764503	15.310023
59521	9.911627	-0.195970	0.513055	0.023256	-0.035597	0.114053	1.000000	0.000022	0.000027	0.000041	-16.652270	-86.764006	15.327694
59522	9.947369	-0.149009	0.509743	0.029694	0.011852	0.148797	1.000000	0.000037	0.000037	0.000041	-16.650203	-86.762660	15.326442
59523	9.966591	-0.190558	0.491968	0.047550	-0.029939	0.167700	1.000000	0.000041	0.000022	0.000025	-16.624825	-86.764000	15.315581
59524	9.906162	-0.143720	0.517951	0.019149	0.016434	0.108015	1.000000	0.000020	0.000008	0.000037	-16.633356	-86.766016	15.322936
59525	9.901836	-0.178008	0.524391	0.011706	-0.017965	0.104599	1.000000	0.000036	0.000052	0.000020	-16.582454	-86.764314	15.285208
59526	9.895823	-0.170790	0.566442	-0.030030	-0.009954	0.100754	1.000000	0.000015	0.000042	0.000049	-16.596277	-86.762198	15.297306
59527	9.936907	-0.178077	0.559938	-0.021277	-0.016697	0.141539	1.000000	0.000034	0.000037	0.000033	-16.583604	-86.761581	15.286355
59528	9.919271	-0.179478	0.543558	-0.005909	-0.018759	0.123067	1.000000	0.000007	0.000016	0.000040	-16.595926	-86.762616	15.296000
59529	9.892017	-0.160284	0.536276	0.000126	-0.000246	0.095152	1.000000	0.000043	0.000029	0.000022	-16.566834	-86.763319	15.260593
59530	9.878051	-0.174149	0.551862	-0.016467	-0.014097	0.082276	1.000000	0.000022	0.000027	0.000041	-16.571997	-86.763164	15.264827
59531	9.901552	-0.182070	0.528339	0.008234	-0.022220	0.104594	1.000000	0.000027	0.000041	0.000035	-16.557696	-86.761868	15.266094
59532	9.909465	-0.161728	0.555146	-0.017448	-0.001064	0.113618	1.000000	0.000019	0.000031	0.000051	-16.579761	-86.760946	15.286892
59533	9.923357	-0.149351	0.540582	-0.001939	0.011377	0.126498	1.000000	0.000045	0.000015	0.000044	-16.596898	-86.761972	15.302608
59534	9.891799	-0.163933	0.539176	-0.002615	-0.003811	0.095151	1.000000	0.000037	0.000033	0.000024	-16.563032	-86.761669	15.269482
59535	9.909340	-0.163825	0.556764	-0.019064	-0.003156	0.113615	1.000000	0.000044	0.000033	0.000040	-16.562068	-86.760742	15.262661
59536	9.896031	-0.131481	0.534509	0.003150	0.028453	0.098599	1.000000	0.000035	0.000019	0.000037	-16.563448	-86.761569	15.264610
59537	9.921548	-0.110184	0.578034	-0.038317	0.051025	0.126090	1.000000	0.000037	0.000033	0.000024	-16.531977	-86.760606	15.214751
59538	9.885659	-0.158422	0.582595	-0.045846	0.002185	0.091285	1.000000	0.000057	0.000025	0.000036	-16.524325	-86.760735	15.210164
59539	9.921478	-0.111215	0.579032	-0.039493	0.049563	0.126093	1.000000	0.000016	0.000015	0.000018	-16.493617	-86.763091	15.198353
59540	9.907500	-0.125008	0.594546	-0.056084	0.035730	0.113200	1.000000	0.000025	0.000034	0.000038	-16.488704	-86.762233	15.192802
59541	9.881914	-0.147744	0.551965	-0.015528	0.011809	0.085713	1.000000	0.000026	0.000008	0.000053	-16.527960	-86.763459	15.223512
59542	9.881884	-0.148546	0.552275	-0.016065	0.011093	0.085713	1.000000	0.000025	0.000022	0.000031	-16.516245	-86.764070	15.211204
59543	9.922991	-0.155940	0.545408	-0.007230	0.004240	0.126502	1.000000	0.000013	0.000016	0.000056	-16.554541	-86.764401	15.263322
59544	9.922957	-0.156793	0.545794	-0.007770	0.003521	0.126501	1.000000	0.000044	0.000022	0.000033	-16.543928	-86.765018	15.254321
59545	9.914956	-0.178650	0.520063	0.016802	-0.019090	0.117473	1.000000	0.000013	0.000012	0.000039	-16.554390	-86.766657	15.264850
59546	9.913291	-0.137703	0.555596	-0.018071	0.022631	0.117073	1.000000	0.000035	0.000019	0.000037	-16.555811	-86.767485	15.266842
59547	9.914889	-0.180125	0.520831	0.015701	-0.020518	0.117472	1.000000	0.000022	0.000027	0.000041	-16.562929	-86.767409	15.265444
59548	9.899248	-0.152627	0.571723	-0.035217	0.008111	0.104166	1.000000	0.000044	0.000037	0.000057	-16.591055	-86.765516	15.295214
59549	9.887614	-0.162175	0.514188	0.021352	-0.002718	0.089592	1.000000	0.000032	0.000011	0.000040	-16.604732	-86.767021	15.296643
59550	9.919120	-0.149082	0.516437	0.020943	0.010996	0.120958	1.000000	0.000032	0.000023	0.000047	-16.623098	-86.767082	15.315243
59551	9.905117	-0.163114	0.531996	0.004533	-0.002833	0.108046	1.000000	0.000031	0.000030	0.000036	-16.609558	-86.765699	15.302998
59552	9.905076	-0.163905	0.532526	0.003994	-0.003551	0.108046	1.000000	0.000032	0.000023	0.000047	-16.627925	-86.765760	15.321598
59553	9.914638	-0.185212	0.523811	0.012579	-0.024798	0.117467	1.000000	0.000035	0.000019	0.000037	-16.634973	-86.766808	15.307369
59554	9.918972	-0.152282	0.518335	0.018927	0.008134	0.120965	1.000000	0.000051	0.000022	0.000049	-16.654473	-86.766874	15.329307
59555	9.918940	-0.153193	0.518684	0.018425	0.007403	0.120967	1.000000	0.000016	0.000012	0.000047	-16.677752	-86.767931	15.357312
59556	9.946065	-0.173753	0.527058	0.011125	-0.012549	0.148834	1.000000	0.000017	0.000045	0.000029	-16.649518	-86.766158	15.327574
59557	9.922456	-0.167258	0.551751	-0.014659	-0.005790	0.126493	1.000000	0.000026	0.000008	0.000053	-16.687122	-86.767691	15.375197
59558	9.904855	-0.168743	0.535126	0.000737	-0.007845	0.108044	1.000000	0.000025	0.000022	0.000031	-16.675470	-86.768305	15.362953
59559	9.928384	-0.176724	0.511463	0.025373	-0.016057	0.130387	1.000000	0.000022	0.000027	0.000041	-16.682652	-86.768458	15.370665
59560	9.904774	-0.170218	0.536151	-0.000398	-0.009277	0.108043	1.000000	0.000022	0.000027	0.000041	-16.687905	-86.768304	15.374991
59561	9.904733	-0.170933	0.536680	-0.000873	-0.010013	0.108042	1.000000	0.000038	0.000026	0.000034	-16.675875	-86.768110	15.373834
59562	9.904692	-0.171648	0.537209	-0.001413	-0.010731	0.108041	1.000000	0.000022	0.000027	0.000041	-16.681134	-86.767956	15.378165
59563	9.918631	-0.159247	0.522748	0.014108	0.001627	0.120976	1.000000	0.000034	0.000030	0.000044	-16.689840	-86.767297	15.388099
59564	9.909000	-0.139384	0.532539	0.004402	0.021485	0.111567	1.000000	0.000030	0.000037	0.000025	-16.657888	-86.766510	15.356143
59565	9.904554	-0.173799	0.539052	-0.002993	-0.012874	0.108039	1.000000	0.000032	0.000023	0.000047	-16.675891	-86.766356	15.370929
59566	9.896531	-0.195662	0.513557	0.021573	-0.035506	0.099004	1.000000	0.000037	0.000033	0.000024	-16.642092	-86.766060	15.337875
59567	9.891314	-0.141973	0.517383	0.018794	0.018011	0.093132	1.000000	0.000050	0.000029	0.000038	-16.636659	-86.765571	15.335265
59568	9.907990	-0.188368	0.572789	-0.036595	-0.026750	0.113530	1.000000	0.000025	0.000027	0.000049	-16.656961	-86.765141	15.355052
59569	9.908796	-0.142830	0.535419	0.001790	0.017921	0.111575	1.000000	0.000034	0.000026	0.000027	-16.634492	-86.765447	15.325798
59570	9.902741	-0.135540	0.577030	-0.039909	0.026068	0.107662	1.000000	0.000025	0.000027	0.000049	-16.654801	-86.765017	15.345592
59571	9.867584	-0.137712	0.543589	-0.008505	0.022684	0.070788	1.000000	0.000035	0.000019	0.000037	-16.654699	-86.765588	15.350573
59572	9.926240	-0.144536	0.553847	-0.015727	0.017092	0.130015	1.000000	0.000019	0.000031	0.000051	-16.676870	-86.764666	15.371481
59573	9.877073	-0.159806	0.535653	-0.000339	0.000661	0.080191	1.000000	0.000030	0.000037	0.000025	-16.642434	-86.763391	15.334211
59574	9.912149	-0.159149	0.570044	-0.032777	0.002607	0.117061	1.000000	0.000036	0.000011	0.000048	-16.669182	-86.764646	15.361649
59575	9.881436	-0.127682	0.530556	0.005507	0.032842	0.083749	1.000000	0.000032	0.000023	0.000047	-16.684341	-86.764658	15.401826
59576	9.880511	-0.174610	0.568961	-0.033943	-0.013243	0.085665	1.000000	0.000034	0.000026	0.000027	-16.660748	-86.765065	15.378686
59577	9.908490	-0.148874	0.539425	-0.002325	0.012132	0.111584	1.000000	0.000022	0.000026	0.000041	-16.664264	-86.764684	15.382315
59578	9.876882	-0.163600	0.538032	-0.002965	-0.002955	0.080190	1.000000	0.000044	0.000026	0.000050	-16.685762	-86.764262	15.405503
59579	9.894399	-0.163854	0.555373	-0.019300	-0.002325	0.098621	1.000000	0.000016	0.000012	0.000047	-16.708787	-86.764598	15.408139
59580	9.900400	-0.172723	0.514536	0.021316	-0.011930	0.102548	1.000000	0.000032	0.000011	0.000040	-16.720569	-86.766130	15.420200
59581	9.917916	-0.172669	0.531980	0.004895	-0.011328	0.120979	1.000000	0.000030	0.000037	0.000025	-16.686167	-86.764939	15.385750
59582	9.898744	-0.132192	0.550751	-0.013914	0.029156	0.102195	1.000000	0.000028	0.000023	0.000039	-16.689631	-86.765278	15.389038
59583	9.909847	-0.195318	0.506996	0.028884	-0.034684	0.111939	1.000000	0.000032	0.000023	0.000047	-16.710137	-86.765396	15.398829
59584	9.908235	-0.154488	0.542508	-0.005870	0.007135	0.111587	1.000000	0.000029	0.000015	0.000050	-16.738816	-86.766158	15.427450
59585	9.900202	-0.176647	0.517003	0.018705	-0.015517	0.102549	1.000000	0.000021	0.000038	0.000048	-16.750073	-86.764378	15.440765
59586	9.931736	-0.163650	0.519430	0.018269	-0.001885	0.133951	1.000000	0.000013	0.000012	0.000039	-16.760717	-86.765902	15.449483
59587	9.900125	-0.178283	0.517923	0.017619	-0.016960	0.102548	1.000000	0.000035	0.000030	0.000044	-16.768562	-86.765330	15.466424
59588	9.931661	-0.165168	0.520381	0.017178	-0.003333	0.133953	1.000000	0.000025	0.000022	0.000031	-16.757028	-86.765948	15.454302
59589	9.917605	-0.178968	0.535681	0.000578	-0.017062	0.120972	1.000000	0.000045	0.000003	0.000037	-16.766278	-86.768424	15.458443
59590	9.890475	-0.159945	0.528067	0.006884	0.001506	0.093164	1.000000	0.000016	0.000023	0.000054	-16.798676	-86.768199	15.489286
59591	9.941116	-0.188096	0.512387	0.024671	-0.026117	0.143337	1.000000	0.000031	0.000030	0.000036	-16.789672	-86.767971	15.504821
59592	9.913979	-0.169003	0.505025	0.030974	-0.007547	0.115533	1.000000	0.000032	0.000023	0.000047	-16.808232	-86.768033	15.523619
59593	9.913941	-0.169829	0.505483	0.030451	-0.008273	0.115535	1.000000	0.000028	0.000023	0.000039	-16.810245	-86.768307	15.536471
59594	9.931446	-0.169933	0.522944	0.013942	-0.007680	0.133956	1.000000	0.000022	0.000026	0.000041	-16.815594	-86.768154	15.540895
59595	9.904313	-0.150726	0.515643	0.020281	0.010896	0.106158	1.000000	0.000040	0.000033	0.000032	-16.795542	-86.767421	15.528343
59596	9.913814	-0.171944	0.507251	0.028865	-0.010438	0.115537	1.000000	0.000025	0.000034	0.000038	-16.790708	-86.766570	15.522879
59597	9.907717	-0.164832	0.548886	-0.012741	-0.002257	0.111583	1.000000	0.000039	0.000023	0.000063	-16.836236	-86.765639	15.575604
59598	9.925216	-0.165069	0.566315	-0.029252	-0.001666	0.129999	1.000000	0.000025	0.000022	0.000031	-16.824746	-86.766258	15.563526
59599	9.921685	-0.153123	0.534908	0.002327	0.009305	0.124581	1.000000	0.000030	0.000037	0.000025	-16.788907	-86.764989	15.537083
59600	9.907592	-0.166871	0.550539	-0.014264	-0.004428	0.111580	1.000000	0.000028	0.000023	0.000039	-16.792452	-86.765330	15.540454
59601	9.917091	-0.188154	0.542013	-0.005693	-0.025760	0.120951	1.000000	0.000031	0.000030	0.000036	-16.786421	-86.765022	15.537540
59602	9.875917	-0.182047	0.549688	-0.015426	-0.020175	0.080158	1.000000	0.000038	0.000026	0.000035	-16.777975	-86.765157	15.529963
59603	9.907466	-0.168965	0.552156	-0.015857	-0.006572	0.111577	1.000000	0.000022	0.000026	0.000041	-16.783169	-86.764813	15.533506
59604	9.921471	-0.156660	0.537840	-0.000344	0.005715	0.124584	1.000000	0.000024	0.000045	0.000045	-16.785036	-86.762492	15.534703
59605	9.889827	-0.171205	0.536607	-0.001001	-0.009290	0.093162	1.000000	0.000038	0.000026	0.000035	-16.779964	-86.762843	15.525127
59606	9.921383	-0.158111	0.539041	-0.001466	0.004297	0.124585	1.000000	0.000028	0.000022	0.000039	-16.783531	-86.763184	15.528519
59607	9.894282	-0.138867	0.531560	0.004906	0.022909	0.096808	1.000000	0.000025	0.000022	0.000031	-16.772228	-86.763596	15.512784
59608	9.903782	-0.160112	0.522969	0.013473	0.001564	0.106175	1.000000	0.000028	0.000022	0.000039	-16.775801	-86.763937	15.516183
59609	9.897680	-0.152695	0.564403	-0.028272	0.009810	0.102203	1.000000	0.000022	0.000015	0.000034	-16.778585	-86.765603	15.512371
59610	9.903724	-0.161521	0.523620	0.012328	0.000146	0.106177	1.000000	0.000032	0.000011	0.000040	-16.790543	-86.767137	15.524608
59611	9.897618	-0.154073	0.565122	-0.029375	0.008392	0.102201	1.000000	0.000040	0.000033	0.000032	-16.774097	-86.766711	15.506510
59612	9.897577	-0.154787	0.565648	-0.029913	0.007676	0.102200	1.000000	0.000019	0.000019	0.000044	-16.789686	-86.767258	15.520880
59613	9.907066	-0.176243	0.557036	-0.021374	-0.013652	0.111559	1.000000	0.000032	0.000023	0.000047	-16.810580	-86.767360	15.532731
59614	9.913105	-0.185099	0.516403	0.019218	-0.023337	0.115539	1.000000	0.000032	0.000018	0.000029	-16.797321	-86.768473	15.519635
59615	9.887941	-0.136542	0.575971	-0.040554	0.026212	0.092838	1.000000	0.000025	0.000027	0.000049	-16.817449	-86.767676	15.528619
59616	9.927101	-0.173557	0.502394	0.034257	-0.011796	0.128568	1.000000	0.000031	0.000030	0.000036	-16.810864	-86.767320	15.522156
59617	9.920983	-0.166137	0.543970	-0.007408	-0.003530	0.124582	1.000000	0.000028	0.000022	0.000039	-16.814796	-86.767637	15.528776
59618	9.917506	-0.154360	0.512403	0.024104	0.007410	0.119214	1.000000	0.000025	0.000022	0.000031	-16.803355	-86.768258	15.516750
59619	9.903390	-0.168113	0.527852	0.007475	-0.006270	0.106180	1.000000	0.000035	0.000019	0.000037	-16.806606	-86.769244	15.523905
59620	9.903351	-0.169071	0.528274	0.006936	-0.006989	0.106180	1.000000	0.000039	0.000023	0.000063	-16.855420	-86.768749	15.573782
59621	9.934914	-0.156160	0.530831	0.006487	0.006564	0.137619	1.000000	0.000031	0.000037	0.000025	-16.823092	-86.767851	15.544478
59622	9.924216	-0.182464	0.578385	-0.042169	-0.018774	0.129935	1.000000	0.000020	0.000012	0.000055	-16.863991	-86.768815	15.584276
59623	9.893717	-0.150912	0.538737	-0.003652	0.011513	0.096829	1.000000	0.000025	0.000022	0.000031	-16.851350	-86.769015	15.564216
59624	9.903199	-0.172157	0.530134	0.004875	-0.009855	0.106179	1.000000	0.000035	0.000018	0.000038	-16.853203	-86.769851	15.566645
59625	9.920681	-0.172178	0.547576	-0.011663	-0.009248	0.124575	1.000000	0.000038	0.000026	0.000035	-16.846498	-86.769967	15.551313
59626	9.903116	-0.173540	0.531222	0.003794	-0.011276	0.106178	1.000000	0.000018	0.000038	0.000040	-16.843524	-86.768624	15.546964
59627	9.911076	-0.152921	0.557859	-0.021755	0.009995	0.115226	1.000000	0.000054	0.000025	0.000028	-16.821981	-86.768790	15.512138
59628	9.917135	-0.161769	0.517270	0.018823	0.000245	0.119228	1.000000	0.000019	0.000019	0.000044	-16.837632	-86.769336	15.526572
59629	9.934614	-0.161864	0.534720	0.002221	0.000840	0.137623	1.000000	0.000038	0.000026	0.000035	-16.831078	-86.769818	15.537127
59630	9.902962	-0.176325	0.533177	0.001617	-0.014131	0.106174	1.000000	0.000026	0.000015	0.000042	-16.844954	-86.770857	15.550534
59631	9.910930	-0.155890	0.559635	-0.023933	0.007105	0.115223	1.000000	0.000035	0.000030	0.000044	-16.851330	-86.770003	15.569376
59632	9.910886	-0.156576	0.560233	-0.024471	0.006387	0.115222	1.000000	0.000028	0.000030	0.000028	-16.829721	-86.769927	15.547479
59633	9.902831	-0.178543	0.534871	0.000085	-0.016294	0.106171	1.000000	0.000028	0.000034	0.000046	-16.839107	-86.768564	15.556559
59634	9.951910	-0.164872	0.554581	-0.016401	-0.001467	0.156012	1.000000	0.000043	0.000040	0.000029	-16.810399	-86.767309	15.529317
59635	9.893227	-0.159164	0.545316	-0.010061	0.002936	0.096830	1.000000	0.000028	0.000030	0.000028	-16.789721	-86.767345	15.514905
59636	9.893189	-0.159853	0.545806	-0.010599	0.002219	0.096830	1.000000	0.000019	0.000019	0.000044	-16.805386	-86.767892	15.529353
59637	9.910660	-0.160076	0.563230	-0.027089	0.002805	0.115217	1.000000	0.000032	0.000023	0.000047	-16.822757	-86.767645	15.546267
59638	9.910613	-0.160839	0.563831	-0.027628	0.002087	0.115216	1.000000	0.000034	0.000037	0.000033	-16.806059	-86.766594	15.529990
59639	9.885051	-0.183412	0.521502	0.012896	-0.021887	0.087777	1.000000	0.000031	0.000030	0.000036	-16.800784	-86.766190	15.518758
59640	9.893016	-0.162938	0.548024	-0.012690	-0.000633	0.096828	1.000000	0.000032	0.000023	0.000047	-16.819546	-86.766255	15.537760
59641	9.910477	-0.163029	0.565592	-0.029214	-0.000038	0.115211	1.000000	0.000040	0.000033	0.000032	-16.801133	-86.765544	15.517425
59642	9.907052	-0.151337	0.534182	0.002324	0.010863	0.109903	1.000000	0.000035	0.000030	0.000044	-16.809711	-86.764912	15.526540
59643	9.892888	-0.165265	0.549640	-0.014300	-0.002774	0.096825	1.000000	0.000016	0.000012	0.000047	-16.836433	-86.766272	15.558554
59644	9.924497	-0.152361	0.551773	-0.014789	0.010728	0.128287	1.000000	0.000045	0.000003	0.000037	-16.845024	-86.768795	15.568921
59645	9.930585	-0.161292	0.511125	0.025831	0.000955	0.132317	1.000000	0.000025	0.000034	0.000038	-16.839681	-86.767653	15.556322
59646	9.878658	-0.180470	0.565777	-0.031930	-0.017828	0.083738	1.000000	0.000025	0.000022	0.000031	-16.828331	-86.768276	15.544389
59647	9.906884	-0.154960	0.536263	-0.000372	0.007296	0.109907	1.000000	0.000021	0.000034	0.000030	-16.811126	-86.767879	15.523434
59648	9.906843	-0.155621	0.536826	-0.000911	0.006578	0.109907	1.000000	0.000028	0.000022	0.000039	-16.814856	-86.768223	15.526993
59649	9.898796	-0.177568	0.511293	0.023591	-0.016115	0.100854	1.000000	0.000025	0.000022	0.000031	-16.804538	-86.768801	15.510452
59650	9.910129	-0.169375	0.569818	-0.034069	-0.006448	0.115194	1.000000	0.000022	0.000026	0.000041	-16.810053	-86.768650	15.515048
59651	9.910095	-0.170079	0.570196	-0.034559	-0.007167	0.115192	1.000000	0.000048	0.000010	0.000034	-16.807023	-86.770204	15.516406
59652	9.903349	-0.145976	0.506541	0.029078	0.015314	0.104628	1.000000	0.000025	0.000034	0.000038	-16.802342	-86.769356	15.511103
59653	9.889164	-0.159827	0.522143	0.012500	0.001703	0.091533	1.000000	0.000032	0.000023	0.000047	-16.821223	-86.769262	15.526705
59654	9.912756	-0.168235	0.498559	0.037037	-0.006810	0.113952	1.000000	0.000035	0.000018	0.000038	-16.823204	-86.770100	15.529263
59655	9.916067	-0.181426	0.531032	0.004460	-0.019111	0.119227	1.000000	0.000032	0.000023	0.000047	-16.841734	-86.769815	15.532386
59656	9.906550	-0.161614	0.540449	-0.005078	0.000865	0.109908	1.000000	0.000028	0.000022	0.000039	-16.845495	-86.770158	15.535977
59657	9.926799	-0.157597	0.484849	0.051494	0.003931	0.127061	1.000000	0.000028	0.000022	0.000039	-16.850896	-86.770793	15.556954
59658	9.923969	-0.162388	0.558375	-0.022236	0.000729	0.128279	1.000000	0.000025	0.000022	0.000031	-16.839573	-86.771417	15.545049
59659	9.906436	-0.163750	0.541881	-0.006739	-0.001282	0.109907	1.000000	0.000035	0.000030	0.000044	-16.848653	-86.770723	15.554132
59660	9.915871	-0.185224	0.533380	0.001718	-0.022698	0.119220	1.000000	0.000045	0.000015	0.000044	-16.864004	-86.771777	15.571221
59661	9.928529	-0.130963	0.553866	-0.016770	0.032157	0.132074	1.000000	0.000017	0.000045	0.000029	-16.835563	-86.769993	15.549902
59662	9.898286	-0.187178	0.517703	0.016675	-0.025433	0.100849	1.000000	0.000031	0.000030	0.000036	-16.829141	-86.769641	15.543608
59663	9.912406	-0.174833	0.503226	0.032237	-0.013267	0.113962	1.000000	0.000038	0.000026	0.000035	-16.821006	-86.769565	15.527419
59664	9.937866	-0.153589	0.546821	-0.009355	0.009311	0.141388	1.000000	0.000025	0.000034	0.000038	-16.816358	-86.768718	15.522150
59665	9.915639	-0.188523	0.536525	-0.000954	-0.026279	0.119211	1.000000	0.000028	0.000030	0.000028	-16.795625	-86.768701	15.506635
59666	9.874483	-0.182066	0.543964	-0.010516	-0.020463	0.078417	1.000000	0.000032	0.000018	0.000030	-16.782557	-86.769819	15.493733
59667	9.906096	-0.168984	0.546472	-0.011011	-0.006984	0.109901	1.000000	0.000040	0.000033	0.000032	-16.766350	-86.769163	15.461027
59668	9.896582	-0.148988	0.556081	-0.020527	0.013008	0.100595	1.000000	0.000025	0.000034	0.000038	-16.761730	-86.768316	15.455785
59669	9.920175	-0.157455	0.532670	0.003976	0.004448	0.123024	1.000000	0.000032	0.000023	0.000047	-16.781263	-86.768411	15.481557
59670	9.888483	-0.171923	0.531133	0.003402	-0.010432	0.091535	1.000000	0.000028	0.000022	0.000039	-16.785073	-86.768756	15.485197
59671	9.923400	-0.171435	0.565724	-0.029178	-0.008555	0.128257	1.000000	0.000035	0.000030	0.000044	-16.792827	-86.767936	15.496662
59672	9.896419	-0.152192	0.558113	-0.022652	0.010143	0.100594	1.000000	0.000035	0.000018	0.000038	-16.794883	-86.768776	15.499296
59673	9.902545	-0.161225	0.517525	0.017888	0.000286	0.104666	1.000000	0.000028	0.000022	0.000039	-16.800325	-86.769123	15.498899
59674	9.888323	-0.175013	0.533091	0.001277	-0.013286	0.091532	1.000000	0.000035	0.000030	0.000044	-16.809051	-86.768493	15.508165
59675	9.893004	-0.142049	0.527575	0.007856	0.019582	0.095370	1.000000	0.000028	0.000030	0.000028	-16.789172	-86.768357	15.476737
59676	9.919901	-0.162763	0.536175	0.000236	-0.000556	0.123026	1.000000	0.000019	0.000019	0.000044	-16.804960	-86.768904	15.491309
59677	9.907119	-0.130631	0.513445	0.022831	0.030999	0.108513	1.000000	0.000032	0.000023	0.000047	-16.824978	-86.769083	15.520333
59678	9.919822	-0.164438	0.537125	-0.000865	-0.001990	0.123026	1.000000	0.000031	0.000030	0.000036	-16.818621	-86.768732	15.514105
59679	9.919781	-0.165158	0.537651	-0.001401	-0.002700	0.123026	1.000000	0.000028	0.000022	0.000039	-16.823272	-86.769044	15.515484
59680	9.896097	-0.158188	0.562135	-0.026970	0.004466	0.100587	1.000000	0.000031	0.000030	0.000036	-16.816923	-86.768693	15.509265
59681	9.900801	-0.125237	0.556497	-0.020385	0.037321	0.104441	1.000000	0.000035	0.000018	0.000038	-16.819778	-86.769521	15.512269
59682	9.902189	-0.168011	0.522152	0.013027	-0.006147	0.104672	1.000000	0.000028	0.000034	0.000046	-16.830288	-86.768397	15.522571
59683	9.910170	-0.147626	0.548602	-0.012534	0.015157	0.113734	1.000000	0.000029	0.000015	0.000050	-16.860037	-86.769276	15.563767
59684	9.933781	-0.156135	0.525067	0.011951	0.006546	0.136176	1.000000	0.000038	0.000026	0.000035	-16.851956	-86.769422	15.556564
59685	9.902065	-0.170586	0.523665	0.011422	-0.008301	0.104672	1.000000	0.000031	0.000034	0.000054	-16.876649	-86.767840	15.580859
59686	9.906783	-0.137740	0.518060	0.018008	0.024541	0.108541	1.000000	0.000032	0.000018	0.000030	-16.863694	-86.768962	15.568073
59687	9.910011	-0.150690	0.550628	-0.014673	0.012290	0.113735	1.000000	0.000031	0.000030	0.000036	-16.858343	-86.768703	15.565709
59688	9.895765	-0.164370	0.566193	-0.031283	-0.001256	0.100575	1.000000	0.000028	0.000022	0.000039	-16.862233	-86.769049	15.569431
59689	9.919373	-0.172864	0.542739	-0.006800	-0.009871	0.123019	1.000000	0.000041	0.000026	0.000043	-16.869860	-86.768860	15.572570
59690	9.919328	-0.173559	0.543334	-0.007340	-0.010590	0.123018	1.000000	0.000041	0.000033	0.000032	-16.851599	-86.768311	15.555486
59691	9.901826	-0.174943	0.526740	0.008199	-0.012598	0.104671	1.000000	0.000016	0.000012	0.000047	-16.877294	-86.769413	15.576299
59692	9.895605	-0.167358	0.568108	-0.033406	-0.004103	0.100567	1.000000	0.000038	0.000026	0.000035	-16.869251	-86.769560	15.569134
59693	9.919214	-0.175993	0.544629	-0.008936	-0.012733	0.123014	1.000000	0.000026	0.000019	0.000060	-16.916184	-86.769516	15.610370
59694	9.898466	-0.165031	0.496012	0.038717	-0.003226	0.099496	1.000000	0.000034	0.000033	0.000016	-16.867717	-86.769529	15.562258
59695	9.915891	-0.164912	0.513619	0.022137	-0.002651	0.117841	1.000000	0.000028	0.000022	0.000039	-16.871288	-86.769770	15.566836
59696	9.892196	-0.157910	0.538113	-0.003404	0.004564	0.095391	1.000000	0.000025	0.000034	0.000038	-16.866726	-86.768926	15.561657
59697	9.928473	-0.199417	0.537992	-0.002175	-0.036347	0.132284	1.000000	0.000022	0.000026	0.000041	-16.873481	-86.768892	15.573258
59698	9.892113	-0.159366	0.539200	-0.004502	0.003135	0.095391	1.000000	0.000044	0.000022	0.000033	-16.863737	-86.769535	15.565141
59699	9.933186	-0.167211	0.532850	0.003902	-0.004224	0.136184	1.000000	0.000035	0.000030	0.000044	-16.873486	-86.768835	15.566774
59700	9.918910	-0.180938	0.548530	-0.012715	-0.017744	0.123002	1.000000	0.000025	0.000034	0.000038	-16.868939	-86.767991	15.561611
59701	9.923660	-0.147935	0.543112	-0.006100	0.015098	0.126912	1.000000	0.000043	0.000040	0.000029	-16.841823	-86.766766	15.532598
59702	9.883899	-0.183617	0.515795	0.018328	-0.021754	0.086324	1.000000	0.000016	0.000023	0.000054	-16.874527	-86.766537	15.563751
59703	9.923573	-0.149649	0.544245	-0.007133	0.013657	0.126913	1.000000	0.000041	0.000026	0.000043	-16.880160	-86.766161	15.570603
59704	9.891841	-0.164033	0.542787	-0.007683	-0.001145	0.095389	1.000000	0.000035	0.000030	0.000044	-16.889002	-86.765534	15.579989
59705	9.909247	-0.164297	0.560414	-0.024266	-0.000559	0.113724	1.000000	0.000025	0.000027	0.000049	-16.909855	-86.764960	15.592458
59706	9.905990	-0.152824	0.528873	0.007344	0.010215	0.108580	1.000000	0.000050	0.000029	0.000038	-16.905059	-86.764629	15.590000
59707	9.891717	-0.166270	0.544357	-0.009278	-0.003276	0.095387	1.000000	0.000016	0.000015	0.000018	-16.874944	-86.766519	15.555638
59708	9.899717	-0.145559	0.570665	-0.034785	0.018062	0.104455	1.000000	0.000032	0.000023	0.000047	-16.894014	-86.766586	15.574953
59709	9.909097	-0.167013	0.562251	-0.026403	-0.003408	0.113718	1.000000	0.000025	0.000022	0.000031	-16.882726	-86.767066	15.556953
59710	9.891607	-0.168360	0.545710	-0.010870	-0.005419	0.095385	1.000000	0.000035	0.000030	0.000044	-16.891595	-86.766439	15.566366
59711	9.923259	-0.155689	0.548263	-0.011347	0.007929	0.126915	1.000000	0.000032	0.000022	0.000047	-16.909015	-86.766217	15.580127
59712	9.915184	-0.177826	0.522862	0.013075	-0.014853	0.117846	1.000000	0.000031	0.000030	0.000036	-16.902785	-86.765870	15.574030
59713	9.905733	-0.157815	0.532208	0.003656	0.005197	0.108586	1.000000	0.000035	0.000018	0.000038	-16.904761	-86.766677	15.584509
59714	9.905702	-0.158389	0.532618	0.003117	0.004478	0.108587	1.000000	0.000022	0.000022	0.000023	-16.878534	-86.767585	15.557293
59715	9.905663	-0.159288	0.533077	0.002555	0.003761	0.108587	1.000000	0.000023	0.000024	0.000070	-16.942102	-86.766917	15.634309
59716	9.908812	-0.172528	0.565608	-0.030142	-0.008438	0.113704	1.000000	0.000051	0.000018	0.000031	-16.930770	-86.768060	15.625353
59717	9.923030	-0.160144	0.551117	-0.014573	0.003618	0.126914	1.000000	0.000031	0.000037	0.000026	-16.898945	-86.767131	15.586259
59718	9.905540	-0.161430	0.534715	0.000968	0.001611	0.108588	1.000000	0.000035	0.000030	0.000045	-16.907846	-86.766504	15.595704
59719	9.922939	-0.161601	0.552313	-0.015635	0.002185	0.126912	1.000000	0.000029	0.000022	0.000039	-16.911725	-86.766748	15.597030
59720	9.896055	-0.142277	0.544578	-0.008969	0.020954	0.099336	1.000000	0.000022	0.000026	0.000041	-16.917444	-86.766600	15.601836
59721	9.913456	-0.142421	0.562142	-0.025593	0.021530	0.117659	1.000000	0.000029	0.000022	0.000039	-16.922047	-86.766958	15.608116
59722	9.905383	-0.164511	0.536679	-0.001174	-0.001253	0.108588	1.000000	0.000009	0.000023	0.000038	-16.924585	-86.767288	15.608281
59723	9.908510	-0.177440	0.569358	-0.033852	-0.013446	0.113687	1.000000	0.000041	0.000033	0.000032	-16.905079	-86.766610	15.596193
59724	9.940167	-0.164585	0.572062	-0.034398	-0.000125	0.145228	1.000000	0.000025	0.000034	0.000038	-16.900599	-86.765768	15.591100
59725	9.887815	-0.167146	0.521426	0.013310	-0.004699	0.090267	1.000000	0.000038	0.000026	0.000035	-16.892921	-86.765993	15.596923
59726	9.919480	-0.154405	0.524060	0.012762	0.008616	0.121814	1.000000	0.000028	0.000034	0.000046	-16.903559	-86.764871	15.607359
59727	9.930631	-0.146132	0.582662	-0.044907	0.018493	0.135977	1.000000	0.000029	0.000022	0.000039	-16.908040	-86.765222	15.613690
59728	9.895727	-0.148205	0.548954	-0.013266	0.015215	0.099341	1.000000	0.000032	0.000022	0.000047	-16.927195	-86.765290	15.633091
59729	9.905085	-0.169871	0.540505	-0.004908	-0.006278	0.108585	1.000000	0.000029	0.000015	0.000050	-16.956467	-86.765888	15.653081
59730	9.913083	-0.149493	0.566879	-0.030403	0.015073	0.117658	1.000000	0.000019	0.000030	0.000051	-16.979010	-86.764962	15.674374
59731	9.904994	-0.171635	0.541603	-0.005983	-0.007712	0.108583	1.000000	0.000041	0.000033	0.000032	-16.961025	-86.764396	15.659826
59732	9.901803	-0.160043	0.510145	0.025650	0.003027	0.103507	1.000000	0.000025	0.000034	0.000038	-16.956564	-86.763556	15.654753
59733	9.919190	-0.160113	0.527826	0.009027	0.003588	0.121822	1.000000	0.000038	0.000026	0.000035	-16.948474	-86.763653	15.649808
59734	9.904859	-0.173781	0.543394	-0.007591	-0.009866	0.108580	1.000000	0.000025	0.000026	0.000049	-16.969335	-86.763224	15.670167
59735	9.906588	-0.128777	0.505537	0.031296	0.034389	0.107518	1.000000	0.000029	0.000022	0.000039	-16.972070	-86.763417	15.674893
59736	9.904778	-0.175322	0.544377	-0.008640	-0.011307	0.108578	1.000000	0.000019	0.000026	0.000033	-16.962739	-86.763551	15.664238
59737	9.882837	-0.122256	0.530443	0.005278	0.041015	0.085044	1.000000	0.000031	0.000030	0.000037	-16.956866	-86.763252	15.665572
59738	9.881015	-0.168743	0.569319	-0.034657	-0.004678	0.086092	1.000000	0.000025	0.000022	0.000031	-16.945855	-86.763883	15.653985
59739	9.926988	-0.143038	0.556958	-0.019141	0.021347	0.130900	1.000000	0.000028	0.000041	0.000035	-16.932163	-86.762350	15.635692
59740	9.910866	-0.186485	0.505672	0.030219	-0.023519	0.112749	1.000000	0.000032	0.000011	0.000041	-16.944788	-86.763889	15.648599
59741	9.895189	-0.157981	0.555883	-0.020213	0.005911	0.099340	1.000000	0.000025	0.000034	0.000038	-16.940996	-86.763142	15.650671
59742	9.909447	-0.145760	0.541473	-0.004674	0.017916	0.112595	1.000000	0.000028	0.000029	0.000029	-16.919790	-86.763080	15.629191
59743	9.918791	-0.167053	0.533145	0.003668	-0.003610	0.121825	1.000000	0.000032	0.000018	0.000030	-16.905279	-86.764026	15.616938
59744	9.904451	-0.180556	0.548599	-0.012948	-0.017048	0.108565	1.000000	0.000029	0.000022	0.000039	-16.909391	-86.764376	15.620885
59745	9.895028	-0.160572	0.558002	-0.022337	0.003042	0.099336	1.000000	0.000037	0.000037	0.000042	-16.908884	-86.763087	15.620597
59746	9.894982	-0.161343	0.558595	-0.022875	0.002325	0.099335	1.000000	0.000048	0.000022	0.000041	-16.914541	-86.763457	15.628297
59747	9.906150	-0.136922	0.511930	0.024880	0.025756	0.107562	1.000000	0.000028	0.000029	0.000029	-16.891940	-86.763232	15.604859
59748	9.901178	-0.171301	0.518552	0.017102	-0.008480	0.103522	1.000000	0.000026	0.000008	0.000053	-16.931596	-86.764688	15.644158
59749	9.917237	-0.129368	0.570653	-0.033291	0.034963	0.121679	1.000000	0.000025	0.000022	0.000031	-16.919832	-86.765150	15.624924
59750	9.909156	-0.151491	0.545208	-0.008888	0.012163	0.112601	1.000000	0.000032	0.000022	0.000047	-16.939087	-86.765220	15.644426
59751	9.901073	-0.173566	0.519798	0.015534	-0.010638	0.103522	1.000000	0.000034	0.000025	0.000027	-16.915842	-86.765529	15.615117
59752	9.909079	-0.152783	0.546246	-0.009941	0.010730	0.112602	1.000000	0.000031	0.000030	0.000037	-16.909770	-86.765187	15.609183
59753	9.909033	-0.153494	0.546880	-0.010444	0.010015	0.112602	1.000000	0.000025	0.000034	0.000038	-16.904519	-86.764157	15.593389
59754	9.908987	-0.154211	0.547510	-0.010983	0.009297	0.112602	1.000000	0.000051	0.000029	0.000038	-16.900013	-86.763836	15.591229
59755	9.918316	-0.175783	0.539138	-0.002668	-0.012240	0.121818	1.000000	0.000016	0.000012	0.000047	-16.924981	-86.764856	15.604447
59756	9.891519	-0.156191	0.531083	0.004096	0.006583	0.094306	1.000000	0.000031	0.000014	0.000012	-16.880390	-86.767042	15.559956
59757	9.923226	-0.143336	0.533549	0.003525	0.019821	0.125885	1.000000	0.000045	0.000026	0.000051	-16.902225	-86.766645	15.593891
59758	9.900809	-0.178396	0.523193	0.011829	-0.015680	0.103521	1.000000	0.000029	0.000022	0.000039	-16.906386	-86.766996	15.597888
59759	9.923152	-0.144946	0.534488	0.002455	0.018383	0.125888	1.000000	0.000029	0.000022	0.000039	-16.910549	-86.767305	15.599997
59760	9.911852	-0.170688	0.582207	-0.046370	-0.006420	0.117605	1.000000	0.000031	0.000030	0.000037	-16.904501	-86.766963	15.594088
59761	9.918090	-0.179967	0.541913	-0.005877	-0.016565	0.121811	1.000000	0.000025	0.000034	0.000038	-16.898771	-86.765988	15.587329
59762	9.908687	-0.159963	0.551286	-0.015220	0.003543	0.112600	1.000000	0.000041	0.000026	0.000043	-16.906194	-86.765863	15.596049
59763	9.914942	-0.169398	0.510740	0.025249	-0.006604	0.116811	1.000000	0.000016	0.000012	0.000047	-16.932237	-86.767100	15.625246
59764	9.914907	-0.170081	0.511187	0.024709	-0.007325	0.116812	1.000000	0.000056	0.000032	0.000026	-16.900758	-86.766865	15.596752
59765	9.908569	-0.162090	0.552774	-0.016828	0.001396	0.112598	1.000000	0.000025	0.000034	0.000038	-16.896866	-86.765973	15.585382
59766	9.886136	-0.196977	0.542427	-0.008535	-0.034095	0.090215	1.000000	0.000022	0.000015	0.000034	-16.896131	-86.767297	15.583772
59767	9.899140	-0.142647	0.562549	-0.026686	0.020804	0.103392	1.000000	0.000034	0.000037	0.000034	-16.880270	-86.766194	15.561911
59768	9.905391	-0.151897	0.522292	0.013777	0.010638	0.107612	1.000000	0.000031	0.000030	0.000037	-16.874259	-86.765853	15.556040
59769	9.908398	-0.164904	0.555015	-0.018975	-0.001464	0.112594	1.000000	0.000025	0.000026	0.000049	-16.895344	-86.765425	15.576946
59770	9.932055	-0.173740	0.531702	0.005358	-0.010362	0.135100	1.000000	0.000029	0.000022	0.000039	-16.899552	-86.765777	15.580991
59771	9.908315	-0.166524	0.555997	-0.020048	-0.002892	0.112592	1.000000	0.000022	0.000026	0.000041	-16.905814	-86.765588	15.582004
59772	9.905233	-0.155062	0.524358	0.011630	0.007768	0.107617	1.000000	0.000038	0.000025	0.000035	-16.898154	-86.765745	15.575232
59773	9.908229	-0.167806	0.557147	-0.021129	-0.004333	0.112589	1.000000	0.000031	0.000037	0.000026	-16.866455	-86.765016	15.551519
59774	9.890788	-0.169183	0.540624	-0.005538	-0.006323	0.094306	1.000000	0.000035	0.000023	0.000056	-16.900952	-86.764807	15.586675
59775	9.919469	-0.144460	0.511026	0.026074	0.018261	0.120935	1.000000	0.000019	0.000026	0.000033	-16.892117	-86.765046	15.587863
59776	9.922459	-0.157379	0.543754	-0.006681	0.006160	0.125901	1.000000	0.000035	0.000030	0.000045	-16.901280	-86.764425	15.597577
59777	9.895688	-0.137976	0.535865	0.000165	0.025019	0.098428	1.000000	0.000035	0.000018	0.000038	-16.903437	-86.765132	15.590490
59778	9.908011	-0.171688	0.559843	-0.023821	-0.007917	0.112581	1.000000	0.000037	0.000037	0.000042	-16.902399	-86.763819	15.590305
59779	9.895603	-0.139384	0.537084	-0.000883	0.023575	0.098432	1.000000	0.000028	0.000029	0.000029	-16.879613	-86.763623	15.570785
59780	9.907921	-0.173170	0.560967	-0.024873	-0.009362	0.112577	1.000000	0.000013	0.000016	0.000057	-16.922723	-86.764084	15.612043
59781	9.890489	-0.174568	0.544370	-0.009251	-0.011352	0.094299	1.000000	0.000031	0.000037	0.000026	-16.890320	-86.763203	15.577683
59782	9.912874	-0.141061	0.555748	-0.018607	0.022688	0.116712	1.000000	0.000038	0.000018	0.000046	-16.908052	-86.763772	15.596411
59783	9.904785	-0.163276	0.530296	0.005749	-0.000153	0.107625	1.000000	0.000029	0.000022	0.000040	-16.912383	-86.764172	15.606611
59784	9.922131	-0.163392	0.547947	-0.010930	0.000396	0.125899	1.000000	0.000031	0.000029	0.000037	-16.906440	-86.763832	15.600809
59785	9.890326	-0.177485	0.546385	-0.011440	-0.014216	0.094293	1.000000	0.000029	0.000022	0.000040	-16.912025	-86.764328	15.611427
59786	9.936438	-0.152056	0.533804	0.004047	0.011593	0.139233	1.000000	0.000022	0.000015	0.000034	-16.911370	-86.765654	15.609896
59787	9.895309	-0.145244	0.540931	-0.005171	0.017826	0.098442	1.000000	0.000041	0.000033	0.000032	-16.892006	-86.765004	15.593244
59788	9.913916	-0.187515	0.524138	0.011810	-0.024605	0.116808	1.000000	0.000025	0.000034	0.000038	-16.887734	-86.764167	15.588367
59789	9.936325	-0.154059	0.535328	0.002480	0.009420	0.139236	1.000000	0.000045	0.000003	0.000037	-16.896263	-86.766553	15.595268
59790	9.904527	-0.168242	0.533544	0.002000	-0.005187	0.107625	1.000000	0.000025	0.000026	0.000049	-16.917354	-86.766127	15.615862
59791	9.912540	-0.147591	0.560002	-0.023438	0.016219	0.116714	1.000000	0.000021	0.000033	0.000030	-16.897930	-86.765570	15.596878
59792	9.887063	-0.170252	0.517530	0.017070	-0.007887	0.089357	1.000000	0.000035	0.000018	0.000038	-16.900577	-86.766422	15.600111
59793	9.928121	-0.178443	0.511312	0.025212	-0.015587	0.130148	1.000000	0.000029	0.000022	0.000040	-16.905124	-86.766804	15.605278
59794	9.895045	-0.150317	0.544354	-0.008910	0.012805	0.098448	1.000000	0.000044	0.000033	0.000040	-16.902510	-86.765991	15.604267
59795	9.912386	-0.150543	0.561942	-0.025552	0.013348	0.116713	1.000000	0.000016	0.000012	0.000047	-16.927080	-86.766996	15.619017
59796	9.918684	-0.160040	0.521500	0.014888	0.003107	0.120975	1.000000	0.000025	0.000034	0.000038	-16.922818	-86.766160	15.614151
59797	9.918644	-0.160835	0.522029	0.014388	0.002377	0.120976	1.000000	0.000019	0.000019	0.000044	-16.937059	-86.766503	15.622923
59798	9.918609	-0.161511	0.522478	0.013848	0.001657	0.120977	1.000000	0.000035	0.000025	0.000027	-16.914360	-86.766945	15.600704
59799	9.889765	-0.187582	0.553123	-0.018853	-0.024266	0.094262	1.000000	0.000031	0.000029	0.000037	-16.907865	-86.766524	15.591831
59800	9.894809	-0.154793	0.547383	-0.012036	0.008490	0.098449	1.000000	0.000035	0.000030	0.000045	-16.917133	-86.765906	15.601653
59801	9.927795	-0.184452	0.515480	0.020991	-0.021385	0.130147	1.000000	0.000038	0.000025	0.000035	-16.908673	-86.765979	15.593970
59802	9.912103	-0.155621	0.565525	-0.029251	0.008317	0.116709	1.000000	0.000035	0.000018	0.000038	-16.911366	-86.766831	15.597249
59803	9.924761	-0.173635	0.484221	0.052145	-0.011495	0.125252	1.000000	0.000028	0.000029	0.000029	-16.890332	-86.766837	15.583143
59804	9.912020	-0.156877	0.566638	-0.030341	0.006876	0.116707	1.000000	0.000025	0.000033	0.000038	-16.886102	-86.766001	15.578310
59805	9.918323	-0.166425	0.526344	0.010103	-0.003399	0.120981	1.000000	0.000045	0.000026	0.000051	-16.907628	-86.765556	15.607114
59806	9.867886	-0.138971	0.542164	-0.007814	0.023790	0.071027	1.000000	0.000022	0.000026	0.000041	-16.913613	-86.765413	15.612193
59807	9.926303	-0.146543	0.553275	-0.015849	0.017296	0.130075	1.000000	0.000028	0.000029	0.000029	-16.891821	-86.765301	15.588630
59808	9.886408	-0.182003	0.525961	0.008569	-0.019409	0.089352	1.000000	0.000028	0.000034	0.000046	-16.902761	-86.764185	15.599379
59809	9.918146	-0.169477	0.528700	0.007962	-0.006283	0.120981	1.000000	0.000031	0.000029	0.000037	-16.896710	-86.763808	15.593428
59810	9.894381	-0.162160	0.552961	-0.017383	0.001300	0.098445	1.000000	0.000032	0.000022	0.000048	-16.916227	-86.763882	15.613196
59811	9.926128	-0.149699	0.555558	-0.017994	0.014422	0.130076	1.000000	0.000022	0.000026	0.000041	-16.922183	-86.763713	15.617850
59812	9.894294	-0.163642	0.554081	-0.018455	-0.000132	0.098443	1.000000	0.000031	0.000037	0.000026	-16.890991	-86.762967	15.586697
59813	9.894261	-0.164353	0.554454	-0.019008	-0.000856	0.098442	1.000000	0.000039	-0.000000	0.000050	-16.927642	-86.765506	15.633697
59814	9.891297	-0.152954	0.522626	0.012706	0.009749	0.093574	1.000000	0.000031	0.000037	0.000026	-16.896437	-86.764760	15.602532
59815	9.894184	-0.165754	0.555419	-0.020070	-0.002296	0.098439	1.000000	0.000032	0.000022	0.000048	-16.914866	-86.764763	15.622556
59816	9.946734	-0.149285	0.502125	0.036357	0.013815	0.147755	1.000000	0.000031	0.000029	0.000037	-16.909044	-86.764428	15.616880
59817	9.908531	-0.154542	0.541489	-0.005044	0.008849	0.111827	1.000000	0.000031	0.000029	0.000037	-16.903380	-86.763986	15.603902
59818	9.925846	-0.154818	0.559177	-0.021753	0.009386	0.130074	1.000000	0.000016	0.000023	0.000054	-16.936396	-86.763754	15.635371
59819	9.891088	-0.156829	0.525422	0.010085	0.006159	0.093580	1.000000	0.000041	0.000033	0.000032	-16.918119	-86.763034	15.609578
59820	9.884675	-0.148806	0.566821	-0.031411	0.015036	0.089283	1.000000	0.000019	0.000019	0.000044	-16.934356	-86.763582	15.624605
59821	9.925723	-0.157245	0.560682	-0.023353	0.007232	0.130073	1.000000	0.000032	0.000022	0.000048	-16.954145	-86.763743	15.651579
59822	9.905419	-0.146445	0.511797	0.024544	0.016563	0.106982	1.000000	0.000035	0.000025	0.000027	-16.931568	-86.764188	15.629485
59823	9.911206	-0.171292	0.576622	-0.040549	-0.006767	0.116670	1.000000	0.000026	0.000015	0.000042	-16.947198	-86.765397	15.656329
59824	9.903102	-0.193439	0.551170	-0.016216	-0.029634	0.107569	1.000000	0.000025	0.000022	0.000032	-16.936458	-86.766035	15.645020
59825	9.890880	-0.161200	0.528004	0.006809	0.001854	0.093585	1.000000	0.000026	0.000015	0.000042	-16.951146	-86.767096	15.660382
59826	9.939998	-0.148086	0.547735	-0.010001	0.016190	0.143474	1.000000	0.000031	0.000029	0.000037	-16.945359	-86.766762	15.654741
59827	9.893716	-0.174649	0.561000	-0.026533	-0.010885	0.098418	1.000000	0.000023	0.000004	0.000028	-16.938337	-86.769574	15.650306
59828	9.925485	-0.162160	0.563497	-0.027168	0.002198	0.130065	1.000000	0.000032	0.000034	0.000054	-16.964539	-86.768178	15.676729
59829	9.908082	-0.163641	0.547006	-0.011518	0.000228	0.111825	1.000000	0.000025	0.000033	0.000038	-16.959785	-86.767300	15.672511
59830	9.902859	-0.197788	0.553987	-0.019454	-0.033943	0.107550	1.000000	0.000035	0.000025	0.000027	-16.937220	-86.767747	15.650430
59831	9.908001	-0.164957	0.548081	-0.012572	-0.001221	0.111824	1.000000	0.000032	0.000022	0.000048	-16.954888	-86.767710	15.671533
59832	9.922424	-0.153098	0.533447	0.002972	0.010605	0.125240	1.000000	0.000035	0.000018	0.000038	-16.957742	-86.768566	15.674975
59833	9.881311	-0.146152	0.540386	-0.006165	0.017005	0.084451	1.000000	0.000025	0.000022	0.000032	-16.947298	-86.769279	15.672373
59834	9.914290	-0.175945	0.508341	0.026750	-0.012988	0.116140	1.000000	0.000023	0.000008	0.000045	-16.972250	-86.771016	15.696556
59835	9.907861	-0.168061	0.549667	-0.014715	-0.004098	0.111820	1.000000	0.000022	0.000038	0.000048	-16.983776	-86.769255	15.703077
59836	9.881203	-0.148535	0.541699	-0.007746	0.014852	0.084453	1.000000	0.000051	0.000017	0.000032	-16.973205	-86.770419	15.694893
59837	9.922248	-0.156647	0.535688	0.000316	0.006992	0.125243	1.000000	0.000018	0.000033	0.000022	-16.937000	-86.770023	15.656475
59838	9.914136	-0.178721	0.510357	0.024641	-0.015886	0.116142	1.000000	0.000026	0.000015	0.000043	-16.951722	-86.771071	15.670735
59839	9.914098	-0.179548	0.510814	0.024100	-0.016608	0.116142	1.000000	0.000016	0.000030	0.000043	-16.959180	-86.770445	15.679348
59840	9.922136	-0.158867	0.537120	-0.001305	0.004829	0.125244	1.000000	0.000035	0.000018	0.000038	-16.962073	-86.771302	15.682829
59841	9.907627	-0.172255	0.552578	-0.017912	-0.008422	0.111812	1.000000	0.000029	0.000022	0.000040	-16.965831	-86.771583	15.687539
59842	9.904724	-0.160885	0.520843	0.013824	0.002146	0.107016	1.000000	0.000019	0.000026	0.000033	-16.956733	-86.771723	15.677127
59843	9.912758	-0.140327	0.547219	-0.011542	0.023585	0.116120	1.000000	0.000041	0.000030	0.000061	-16.995426	-86.770369	15.711669
59844	9.890153	-0.175097	0.537117	-0.003305	-0.011818	0.093580	1.000000	0.000024	0.000036	0.000010	-16.933852	-86.770193	15.649321
59845	9.890111	-0.175633	0.537706	-0.003830	-0.012535	0.093579	1.000000	0.000032	0.000022	0.000048	-16.953140	-86.770191	15.668456
59846	9.895302	-0.142974	0.531670	0.003055	0.020189	0.097898	1.000000	0.000026	0.000015	0.000043	-16.967899	-86.771239	15.682752
59847	9.928265	-0.172843	0.499813	0.035932	-0.009869	0.129583	1.000000	0.000031	0.000029	0.000037	-16.961681	-86.770837	15.674413
59848	9.904483	-0.165330	0.524010	0.010651	-0.002176	0.107020	1.000000	0.000029	0.000022	0.000040	-16.966208	-86.771195	15.678783
59849	9.912530	-0.144600	0.550229	-0.014756	0.019269	0.116125	1.000000	0.000035	0.000018	0.000038	-16.969085	-86.772125	15.688072
59850	9.880665	-0.158621	0.548615	-0.015177	0.004803	0.084455	1.000000	0.000028	0.000034	0.000046	-16.980182	-86.771012	15.698983
59851	9.907212	-0.179679	0.557620	-0.023235	-0.015592	0.111792	1.000000	0.000048	0.000010	0.000035	-16.980004	-86.772681	15.692748
59852	9.904337	-0.168315	0.525832	0.008513	-0.005047	0.107021	1.000000	0.000025	0.000033	0.000038	-16.975893	-86.771850	15.688040
59853	9.926871	-0.135039	0.537150	-0.000778	0.028911	0.129581	1.000000	0.000032	0.000022	0.000048	-16.995518	-86.771871	15.705534
59854	9.912339	-0.148422	0.552647	-0.017403	0.015693	0.116127	1.000000	0.000025	0.000022	0.000032	-16.984858	-86.772511	15.694308
59855	9.904219	-0.170460	0.527362	0.006905	-0.007200	0.107021	1.000000	0.000028	0.000029	0.000029	-16.964107	-86.772456	15.674435
59856	9.880437	-0.162871	0.551471	-0.018361	0.000523	0.084451	1.000000	0.000026	0.000015	0.000043	-16.978920	-86.773504	15.688785
59857	9.912226	-0.150517	0.554101	-0.019022	0.013541	0.116128	1.000000	0.000028	0.000034	0.000046	-16.990210	-86.772404	15.702916
59858	9.921423	-0.172251	0.546090	-0.010922	-0.008117	0.125236	1.000000	0.000022	0.000026	0.000041	-16.996371	-86.772263	15.708174
59859	9.918558	-0.160909	0.514447	0.020839	0.002418	0.120484	1.000000	0.000041	0.000033	0.000032	-16.978856	-86.771696	15.691367
59860	9.904009	-0.174278	0.530050	0.004214	-0.010791	0.107019	1.000000	0.000032	0.000022	0.000048	-16.998655	-86.771772	15.711419
59861	9.926559	-0.141012	0.541362	-0.005075	0.023156	0.129595	1.000000	0.000025	0.000033	0.000038	-16.994189	-86.770911	15.705600
59862	9.918433	-0.163106	0.516156	0.019227	0.000254	0.120488	1.000000	0.000035	0.000025	0.000027	-16.971732	-86.771362	15.683630
59863	9.877321	-0.155995	0.523163	0.010210	0.006752	0.079701	1.000000	0.000031	0.000029	0.000037	-16.964712	-86.770904	15.672799
59864	9.894603	-0.156080	0.540914	-0.006540	0.007274	0.097914	1.000000	0.000019	0.000026	0.000033	-16.955671	-86.771045	15.662447
59865	9.894560	-0.156823	0.541473	-0.007071	0.006554	0.097914	1.000000	0.000035	0.000029	0.000045	-16.964816	-86.770400	15.675560
59866	9.911839	-0.157045	0.559191	-0.023824	0.007073	0.116124	1.000000	0.000029	0.000022	0.000040	-16.969417	-86.770759	15.680005
59867	9.915439	-0.154766	0.486486	0.048895	0.007866	0.115761	1.000000	0.000029	0.000015	0.000051	-16.997615	-86.771364	15.704353
59868	9.908971	-0.146699	0.527736	0.007434	0.016863	0.111394	1.000000	0.000038	0.000025	0.000035	-16.990398	-86.771534	15.698034
59869	9.900842	-0.168750	0.502568	0.031757	-0.006050	0.102285	1.000000	0.000031	0.000036	0.000026	-16.958473	-86.770637	15.661040
59870	9.891571	-0.148539	0.511750	0.022606	0.014186	0.093190	1.000000	0.000032	0.000022	0.000048	-16.978307	-86.770714	15.681128
59871	9.894331	-0.161319	0.544335	-0.010254	0.002244	0.097913	1.000000	0.000029	0.000011	0.000033	-16.977051	-86.772622	15.684470
59872	9.920835	-0.182354	0.553431	-0.018402	-0.018194	0.125212	1.000000	0.000038	0.000037	0.000042	-16.976407	-86.771321	15.684695
59873	9.923307	-0.137636	0.515352	0.020837	0.025730	0.124891	1.000000	0.000022	0.000026	0.000041	-16.982694	-86.771223	15.692313
59874	9.894208	-0.163559	0.545901	-0.011876	0.000091	0.097911	1.000000	0.000016	0.000019	0.000036	-16.983926	-86.772053	15.691928
59875	9.911493	-0.163777	0.563372	-0.028646	0.000606	0.116114	1.000000	0.000042	0.000007	0.000047	-17.010974	-86.773866	15.722829
59876	9.925995	-0.151722	0.548763	-0.013098	0.012345	0.129607	1.000000	0.000024	0.000036	0.000010	-16.949396	-86.773696	15.660482
59877	9.894101	-0.165457	0.547273	-0.013507	-0.002065	0.097909	1.000000	0.000019	0.000030	0.000051	-16.972366	-86.772816	15.686329
59878	9.911366	-0.165703	0.565040	-0.030271	-0.001550	0.116109	1.000000	0.000038	0.000025	0.000035	-16.965195	-86.772988	15.680057
59879	9.902106	-0.145516	0.574130	-0.039407	0.018702	0.107020	1.000000	0.000041	0.000025	0.000043	-16.973565	-86.772851	15.689430
59880	9.908517	-0.155216	0.533783	0.000968	0.008237	0.111408	1.000000	0.000029	0.000022	0.000040	-16.978227	-86.773211	15.693937
59881	9.908483	-0.156080	0.534162	0.000448	0.007524	0.111408	1.000000	0.000029	0.000015	0.000051	-17.008460	-86.773870	15.717359
59882	9.934971	-0.177241	0.543213	-0.007728	-0.012931	0.138690	1.000000	0.000038	0.000025	0.000035	-17.001309	-86.774041	15.711106
59883	9.893874	-0.170080	0.549951	-0.016696	-0.006360	0.097902	1.000000	0.000035	0.000007	0.000031	-16.996603	-86.776257	15.704912
59884	9.893840	-0.170735	0.550359	-0.017235	-0.007076	0.097901	1.000000	0.000025	0.000033	0.000038	-16.992586	-86.775428	15.700301
59885	9.903009	-0.192570	0.542247	-0.009171	-0.028773	0.106980	1.000000	0.000039	0.000011	0.000057	-17.035363	-86.776332	15.743702
59886	9.884550	-0.151685	0.559788	-0.026881	0.012458	0.088819	1.000000	0.000035	0.000029	0.000045	-17.045032	-86.775721	15.753934
59887	9.868316	-0.195410	0.508760	0.022228	-0.032676	0.070588	1.000000	0.000025	0.000022	0.000032	-17.033746	-86.776292	15.741421
59888	9.922789	-0.148866	0.522165	0.012818	0.014907	0.124926	1.000000	0.000031	0.000029	0.000037	-17.028173	-86.775964	15.736002
59889	9.902841	-0.195634	0.544228	-0.011299	-0.031650	0.106969	1.000000	0.000029	0.000022	0.000040	-17.031734	-86.776188	15.733662
59890	9.925463	-0.162156	0.555356	-0.020560	0.002270	0.129601	1.000000	0.000028	0.000018	0.000022	-17.004363	-86.777614	15.706065
59891	9.890831	-0.163860	0.521293	0.011389	-0.000915	0.093220	1.000000	0.000035	0.000018	0.000038	-17.007018	-86.778394	15.708983
59892	9.908103	-0.164162	0.538777	-0.005387	-0.000401	0.111410	1.000000	0.000026	0.000008	0.000054	-17.047567	-86.779846	15.749173
59893	9.890760	-0.165657	0.522056	0.013296	-0.003697	0.093217	1.000000	0.000012	0.000042	0.000042	-16.828257	-86.763530	15.628551
59894	9.908016	-0.165723	0.539902	-0.003469	-0.003219	0.111410	1.000000	0.000041	0.000021	0.000025	-16.803776	-86.764442	15.605296
59895	9.922542	-0.153854	0.525405	0.012082	0.008505	0.124935	1.000000	0.000028	0.000034	0.000047	-16.814959	-86.763241	15.613186
59896	9.914403	-0.176090	0.500160	0.036392	-0.014395	0.115808	1.000000	0.000032	0.000018	0.000030	-16.802257	-86.764342	15.600657
59897	9.907900	-0.167780	0.541383	-0.005045	-0.005379	0.111409	1.000000	0.000029	0.000022	0.000040	-16.806268	-86.764625	15.603235
59898	9.925163	-0.167997	0.558982	-0.021815	-0.004901	0.129598	1.000000	0.000026	0.000015	0.000043	-16.820568	-86.765635	15.617064
59899	9.890539	-0.169902	0.524877	0.010140	-0.008021	0.093218	1.000000	0.000035	0.000018	0.000038	-16.823417	-86.766421	15.618735
59900	9.895889	-0.137082	0.518773	0.017092	0.024665	0.097693	1.000000	0.000025	0.000022	0.000032	-16.812300	-86.767021	15.607045
59901	9.905045	-0.158911	0.510652	0.025184	0.002957	0.106753	1.000000	0.000026	0.000019	0.000060	-16.857612	-86.766824	15.647562
59902	9.919585	-0.147109	0.496120	0.040731	0.014656	0.120292	1.000000	0.000034	0.000032	0.000016	-16.809288	-86.766827	15.599618
59903	9.913074	-0.138643	0.537478	-0.000701	0.023699	0.115887	1.000000	0.000029	0.000022	0.000040	-16.813932	-86.767123	15.601718
59904	9.922222	-0.160396	0.529466	0.007355	0.001991	0.124943	1.000000	0.000035	0.000029	0.000045	-16.823099	-86.766474	15.611440
59905	9.912994	-0.140330	0.538521	-0.001761	0.022259	0.115890	1.000000	0.000032	0.000022	0.000048	-16.843162	-86.766522	15.630998
59906	9.895664	-0.141701	0.521814	0.013958	0.020335	0.097707	1.000000	0.000031	0.000029	0.000037	-16.837100	-86.766154	15.625082
59907	9.904800	-0.163467	0.513956	0.022017	-0.001379	0.106761	1.000000	0.000022	0.000038	0.000048	-16.848986	-86.764456	15.634576
59908	9.927450	-0.130225	0.525292	0.012741	0.032498	0.129442	1.000000	0.000038	0.000025	0.000035	-16.841369	-86.764589	15.627850
59909	9.939291	-0.163786	0.549561	-0.011553	-0.000433	0.143126	1.000000	0.000038	0.000025	0.000035	-16.833463	-86.764801	15.626189
59910	9.880904	-0.157330	0.539162	-0.004234	0.005029	0.084164	1.000000	0.000016	0.000023	0.000054	-16.866179	-86.764529	15.657352
59911	9.930031	-0.144592	0.559031	-0.021185	0.019114	0.134077	1.000000	0.000029	0.000022	0.000040	-16.870525	-86.764830	15.660315
59912	9.899183	-0.200775	0.523058	0.011853	-0.038399	0.102257	1.000000	0.000035	0.000025	0.000027	-16.847697	-86.765244	15.637969
59913	9.904562	-0.167985	0.517078	0.018843	-0.005728	0.106766	1.000000	0.000035	0.000029	0.000045	-16.856217	-86.764527	15.644978
59914	9.904515	-0.168866	0.517706	0.018314	-0.006452	0.106767	1.000000	0.000048	0.000033	0.000048	-16.868881	-86.763411	15.659662
59915	9.892553	-0.194219	0.565495	-0.030624	-0.030774	0.097823	1.000000	0.000016	0.000012	0.000047	-16.894662	-86.764600	15.684571
59916	9.921719	-0.169915	0.535880	0.001001	-0.006705	0.124943	1.000000	0.000031	0.000036	0.000026	-16.863209	-86.763826	15.653165
59917	9.915186	-0.161643	0.577126	-0.040431	0.002378	0.120514	1.000000	0.000026	0.000008	0.000054	-16.903399	-86.765274	15.693949
59918	9.895196	-0.151085	0.528011	0.007631	0.011654	0.097728	1.000000	0.000041	0.000032	0.000032	-16.885619	-86.764720	15.677372
59919	9.904321	-0.172827	0.520096	0.015644	-0.010072	0.106768	1.000000	0.000025	0.000026	0.000049	-16.906813	-86.764358	15.703424
59920	9.897781	-0.164642	0.561380	-0.025779	-0.000986	0.102335	1.000000	0.000029	0.000022	0.000040	-16.911017	-86.764680	15.707467
59921	9.921518	-0.173848	0.538346	-0.001671	-0.010319	0.124940	1.000000	0.000031	0.000029	0.000037	-16.905437	-86.764272	15.699647
59922	9.912310	-0.153631	0.547401	-0.010755	0.009963	0.115904	1.000000	0.000041	0.000025	0.000043	-16.913119	-86.764125	15.708632
59923	9.918773	-0.163356	0.507160	0.029619	-0.000585	0.120342	1.000000	0.000028	0.000029	0.000029	-16.891058	-86.763979	15.685353
59924	9.897608	-0.167672	0.563525	-0.027878	-0.003866	0.102328	1.000000	0.000039	0.000022	0.000064	-16.940957	-86.763456	15.736319
59925	9.921352	-0.177038	0.540352	-0.003782	-0.013218	0.124936	1.000000	0.000038	0.000014	0.000028	-16.926969	-86.765059	15.723247
59926	9.904043	-0.178149	0.523586	0.011951	-0.015136	0.106767	1.000000	0.000022	0.000033	0.000030	-16.907291	-86.764474	15.702562
59927	9.894838	-0.157888	0.532708	0.002905	0.005153	0.097736	1.000000	0.000035	0.000029	0.000045	-16.915814	-86.763675	15.705524
59928	9.909424	-0.146139	0.518174	0.018455	0.016801	0.111320	1.000000	0.000025	0.000022	0.000032	-16.904816	-86.764278	15.693956
59929	9.912035	-0.158731	0.550918	-0.014425	0.004910	0.115903	1.000000	0.000029	0.000022	0.000040	-16.909792	-86.764623	15.699040
59930	9.885572	-0.139015	0.542636	-0.007223	0.024010	0.088711	1.000000	0.000038	0.000025	0.000035	-16.902281	-86.764759	15.692423
59931	9.935740	-0.168678	0.528381	0.009145	-0.005192	0.138516	1.000000	0.000022	0.000026	0.000041	-16.907362	-86.764493	15.693877
59932	9.894654	-0.161509	0.535045	0.000272	0.001546	0.097738	1.000000	0.000032	0.000011	0.000041	-16.920289	-86.766004	15.707079
59933	9.894618	-0.162137	0.535522	-0.000258	0.000825	0.097738	1.000000	0.000031	0.000036	0.000026	-16.888960	-86.765238	15.676304
59934	9.911840	-0.162215	0.553400	-0.017059	0.001297	0.115900	1.000000	0.000022	0.000026	0.000041	-16.894755	-86.765059	15.681193
59935	9.900020	-0.129993	0.530132	0.006226	0.032763	0.102312	1.000000	0.000028	0.000029	0.000029	-16.874126	-86.765028	15.662633
59936	9.894492	-0.164167	0.537224	-0.001855	-0.001338	0.097738	1.000000	0.000032	0.000022	0.000048	-16.893632	-86.765070	15.682388
59937	9.909088	-0.152534	0.522732	0.013695	0.010291	0.111336	1.000000	0.000025	0.000033	0.000038	-16.889079	-86.764206	15.677778
59938	9.911664	-0.165098	0.555699	-0.019189	-0.001591	0.115896	1.000000	0.000041	0.000032	0.000032	-16.871403	-86.763655	15.661307
59939	9.926256	-0.153280	0.541381	-0.003640	0.010039	0.129497	1.000000	0.000028	0.000041	0.000036	-16.857233	-86.762102	15.646686
59940	9.891697	-0.155094	0.507354	0.028383	0.006932	0.093183	1.000000	0.000020	0.000008	0.000038	-16.866665	-86.764080	15.654929
59941	9.917040	-0.133873	0.550752	-0.013205	0.029615	0.120483	1.000000	0.000032	0.000034	0.000055	-16.891849	-86.762598	15.679410
59942	9.908873	-0.156188	0.525730	0.011060	0.006670	0.111343	1.000000	0.000031	0.000036	0.000026	-16.860503	-86.761827	15.648115
59943	9.891571	-0.157391	0.509092	0.026822	0.004749	0.093189	1.000000	0.000041	0.000025	0.000043	-16.867346	-86.761629	15.655295
59944	9.916907	-0.136088	0.552594	-0.014778	0.027441	0.120487	1.000000	0.000022	0.000026	0.000041	-16.873171	-86.761450	15.660215
59945	9.894092	-0.170829	0.542481	-0.006587	-0.007841	0.097733	1.000000	0.000031	0.000029	0.000037	-16.867107	-86.761028	15.651695
59946	9.923367	-0.146788	0.512828	0.025045	0.016103	0.124961	1.000000	0.000029	0.000015	0.000051	-16.896836	-86.761757	15.681363
59947	9.908671	-0.160140	0.528329	0.008444	0.003046	0.111347	1.000000	0.000035	0.000029	0.000045	-16.905814	-86.761066	15.689259
59948	9.893964	-0.173369	0.544011	-0.008167	-0.010006	0.097730	1.000000	0.000025	0.000033	0.000039	-16.901450	-86.760200	15.684301
59949	9.911168	-0.173422	0.561975	-0.024981	-0.009532	0.115879	1.000000	0.000031	0.000036	0.000026	-16.870474	-86.759420	15.652234
59950	9.893874	-0.174701	0.545228	-0.009226	-0.011445	0.097727	1.000000	0.000029	0.000015	0.000051	-16.900209	-86.760149	15.681907
59951	9.899371	-0.142023	0.539075	-0.002158	0.021192	0.102345	1.000000	0.000028	0.000029	0.000029	-16.878149	-86.760016	15.658694
59952	9.919164	-0.153960	0.589247	-0.051343	0.010532	0.125017	1.000000	0.000031	0.000029	0.000037	-16.872279	-86.759652	15.652976
59953	9.902885	-0.197820	0.538227	-0.002303	-0.034665	0.106725	1.000000	0.000032	0.000011	0.000041	-16.884480	-86.761112	15.664207
59954	9.908395	-0.165156	0.531959	0.004759	-0.002025	0.111350	1.000000	0.000029	0.000022	0.000040	-16.888810	-86.761435	15.668378
59955	9.901811	-0.156879	0.573100	-0.036636	0.007179	0.106866	1.000000	0.000029	0.000015	0.000051	-16.919019	-86.762184	15.699037
59956	9.867279	-0.158795	0.538968	-0.004583	0.004080	0.070574	1.000000	0.000038	0.000025	0.000035	-16.911636	-86.762322	15.692552
59957	9.925528	-0.166857	0.550638	-0.013134	-0.003010	0.129494	1.000000	0.000031	0.000036	0.000026	-16.879795	-86.761603	15.664383
59958	9.905666	-0.156213	0.501705	0.035002	0.006199	0.106842	1.000000	0.000035	0.000029	0.000045	-16.889184	-86.760959	15.674333
59959	9.908197	-0.168833	0.534476	0.002090	-0.005644	0.111349	1.000000	0.000022	0.000015	0.000035	-16.888785	-86.762293	15.674954
59960	9.905599	-0.157704	0.502565	0.033936	0.004751	0.106847	1.000000	0.000022	0.000026	0.000041	-16.894660	-86.762115	15.679925
59961	9.899004	-0.149272	0.543841	-0.007440	0.013966	0.102355	1.000000	0.000038	0.000025	0.000035	-16.887171	-86.762207	15.671388
59962	9.908088	-0.170892	0.535853	0.000508	-0.007812	0.111348	1.000000	0.000013	0.000019	0.000028	-16.872753	-86.763278	15.654939
59963	9.884245	-0.163130	0.559822	-0.024578	0.000224	0.088712	1.000000	0.000042	0.000030	0.000061	-16.912632	-86.762067	15.696212
59964	9.905452	-0.160770	0.504490	0.031829	0.001853	0.106855	1.000000	0.000051	0.000017	0.000032	-16.902260	-86.763211	15.688229
59965	9.922656	-0.160752	0.522309	0.015004	0.002320	0.124994	1.000000	0.000031	0.000036	0.000026	-16.871490	-86.762415	15.655582
59966	9.898808	-0.152842	0.546413	-0.010077	0.010364	0.102358	1.000000	0.000025	0.000026	0.000050	-16.892633	-86.761955	15.676231
59967	9.948920	-0.182808	0.532285	0.006109	-0.019006	0.152119	1.000000	0.000029	0.000022	0.000040	-16.896957	-86.762275	15.680382
59968	9.907840	-0.175424	0.538964	-0.002669	-0.012142	0.111343	1.000000	0.000019	0.000026	0.000033	-16.887606	-86.762378	15.669720
59969	9.898695	-0.155074	0.547829	-0.011649	0.008193	0.102358	1.000000	0.000035	0.000018	0.000038	-16.889492	-86.763143	15.670743
59970	9.930592	-0.142903	0.550499	-0.012398	0.020940	0.134148	1.000000	0.000041	0.000025	0.000043	-16.897429	-86.763002	15.679986
59971	9.922422	-0.165290	0.525321	0.011840	-0.002037	0.124998	1.000000	0.000022	0.000026	0.000041	-16.903031	-86.762802	15.684198
59972	9.905144	-0.166477	0.508666	0.027614	-0.003947	0.106867	1.000000	0.000031	0.000036	0.000026	-16.871777	-86.762034	15.653000
59973	9.915762	-0.157431	0.567287	-0.030067	0.006490	0.120489	1.000000	0.000032	0.000022	0.000048	-16.891432	-86.762087	15.673392
59974	9.915723	-0.158137	0.567766	-0.030597	0.005768	0.120488	1.000000	0.000035	0.000025	0.000027	-16.868878	-86.762508	15.651328
59975	9.936969	-0.155514	0.512445	0.025796	0.007339	0.138665	1.000000	0.000025	0.000022	0.000032	-16.858228	-86.763125	15.640556
59976	9.890291	-0.181606	0.525638	0.009408	-0.019113	0.093203	1.000000	0.000029	0.000015	0.000051	-16.888110	-86.763855	15.670377
59977	9.913091	-0.148562	0.536728	0.000211	0.014686	0.116024	1.000000	0.000035	0.000029	0.000045	-16.896870	-86.763179	15.679183
59978	9.898336	-0.161710	0.552370	-0.016401	0.001696	0.102354	1.000000	0.000032	0.000029	0.000037	-16.891093	-86.762818	15.673560
59979	9.922100	-0.171156	0.529508	0.007579	-0.007841	0.125000	1.000000	0.000035	0.000029	0.000045	-16.900659	-86.762290	15.689047
59980	9.912953	-0.150950	0.538618	-0.001396	0.012512	0.116027	1.000000	0.000012	0.000041	0.000042	-16.899398	-86.760421	15.685706
59981	9.922002	-0.172574	0.530885	0.006520	-0.009284	0.124999	1.000000	0.000031	0.000025	0.000019	-16.862142	-86.761099	15.647061
59982	9.898153	-0.164525	0.554810	-0.018534	-0.001188	0.102351	1.000000	0.000032	0.000022	0.000048	-16.881839	-86.761144	15.667009
59983	9.889977	-0.186998	0.529644	0.005698	-0.024174	0.093195	1.000000	0.000035	0.000029	0.000045	-16.890796	-86.760459	15.675349
59984	9.903699	-0.132806	0.549191	-0.011937	0.030705	0.107061	1.000000	0.000029	0.000022	0.000040	-16.895247	-86.760784	15.679642
59985	9.904613	-0.176193	0.515671	0.020721	-0.013360	0.106875	1.000000	0.000025	0.000033	0.000039	-16.891356	-86.759910	15.674457
59986	9.912705	-0.155350	0.541913	-0.004559	0.008181	0.116030	1.000000	0.000029	0.000022	0.000040	-16.895815	-86.760235	15.678759
59987	9.921751	-0.177207	0.534046	0.003347	-0.013624	0.124996	1.000000	0.000035	0.000029	0.000045	-16.905614	-86.759556	15.687314
59988	9.904493	-0.178569	0.517158	0.019135	-0.015528	0.106875	1.000000	0.000032	0.000011	0.000041	-16.918790	-86.761070	15.700767
59989	9.921682	-0.178619	0.534855	0.002291	-0.015081	0.124994	1.000000	0.000044	0.000028	0.000023	-16.883510	-86.761290	15.667423
59990	9.895342	-0.158738	0.526416	0.009657	0.004105	0.097913	1.000000	0.000019	0.000019	0.000044	-16.899678	-86.761798	15.682378
59991	9.889650	-0.192996	0.533575	0.001472	-0.029954	0.093181	1.000000	0.000035	0.000029	0.000045	-16.908542	-86.761130	15.691466
59992	9.895263	-0.160323	0.527420	0.008605	0.002655	0.097914	1.000000	0.000025	0.000022	0.000032	-16.897764	-86.761737	15.680123
59993	9.903360	-0.139393	0.553652	-0.016670	0.024205	0.107073	1.000000	0.000025	0.000033	0.000039	-16.893645	-86.760892	15.676220
59994	9.933733	-0.158109	0.490165	0.048130	0.004587	0.134270	1.000000	0.000025	0.000033	0.000039	-16.889431	-86.760029	15.671417
59995	9.901744	-0.171682	0.488352	0.047839	-0.009558	0.102458	1.000000	0.000048	0.000010	0.000035	-16.888725	-86.761889	15.674651
59996	9.912327	-0.162499	0.546709	-0.009842	0.000936	0.116030	1.000000	0.000025	0.000022	0.000032	-16.877952	-86.762497	15.663314
59997	9.921367	-0.184292	0.538753	-0.001970	-0.020891	0.124984	1.000000	0.000019	0.000019	0.000044	-16.893807	-86.763082	15.681553
59998	9.912246	-0.163947	0.547751	-0.010914	-0.000517	0.116029	1.000000	0.000037	0.000043	0.000031	-16.867715	-86.761352	15.656243
59999	9.877773	-0.165585	0.513868	0.021231	-0.003593	0.079806	1.000000	0.000028	0.000029	0.000029	-16.846147	-86.761183	15.631281
60000	9.912151	-0.165144	0.549108	-0.011957	-0.001963	0.116028	1.000000	0.000025	0.000033	0.000039	-16.841962	-86.760320	15.626508
60001	9.926857	-0.153646	0.534616	0.003593	0.009535	0.129738	1.000000	0.000032	0.000022	0.000048	-16.861688	-86.760387	15.647482
60002	9.894857	-0.167289	0.532844	0.003311	-0.004584	0.097917	1.000000	0.000019	0.000026	0.000033	-16.852428	-86.760492	15.636913
60003	9.888207	-0.158682	0.574008	-0.038035	0.004754	0.093363	1.000000	0.000035	0.000018	0.000038	-16.855309	-86.761313	15.640161
60004	9.885714	-0.147626	0.542163	-0.006146	0.015076	0.088970	1.000000	0.000025	0.000033	0.000039	-16.851134	-86.760450	15.635399
60005	9.894737	-0.169523	0.534363	0.001710	-0.006750	0.097916	1.000000	0.000032	0.000022	0.000048	-16.871472	-86.760583	15.659080
60006	9.911903	-0.169773	0.552155	-0.015155	-0.006299	0.116021	1.000000	0.000038	0.000025	0.000035	-16.864330	-86.760727	15.652840
60007	9.892216	-0.159322	0.502957	0.033093	0.002836	0.093532	1.000000	0.000032	0.000022	0.000048	-16.882990	-86.760656	15.668206
60008	9.950412	-0.167852	0.514632	0.024367	-0.004443	0.152407	1.000000	0.000029	0.000022	0.000040	-16.887534	-86.760983	15.672594
60009	9.910862	-0.129455	0.587654	-0.049834	0.034932	0.116239	1.000000	0.000025	0.000033	0.000039	-16.883497	-86.760063	15.665498
60010	9.909306	-0.160996	0.521758	0.015178	0.001842	0.111640	1.000000	0.000019	0.000015	0.000027	-16.867695	-86.761638	15.648411
60011	9.896937	-0.185625	0.569650	-0.033863	-0.022110	0.102286	1.000000	0.000041	0.000032	0.000032	-16.850441	-86.761105	15.632649
60012	9.926427	-0.161683	0.540210	-0.002224	0.001567	0.129743	1.000000	0.000025	0.000033	0.000039	-16.846294	-86.760244	15.627915
60013	9.909177	-0.163115	0.523563	0.013574	-0.000331	0.111642	1.000000	0.000032	0.000033	0.000055	-16.872800	-86.758899	15.657870
60014	9.911546	-0.175745	0.556675	-0.019383	-0.012079	0.116009	1.000000	0.000028	0.000040	0.000036	-16.858479	-86.757352	15.643276
60015	9.909078	-0.164700	0.524933	0.012525	-0.001781	0.111644	1.000000	0.000029	0.000022	0.000040	-16.862504	-86.757624	15.645670
60016	9.926238	-0.164926	0.542701	-0.004349	-0.001334	0.129742	1.000000	0.000029	0.000022	0.000040	-16.867076	-86.757952	15.650088
60017	9.885172	-0.157318	0.549279	-0.012986	0.005710	0.088973	1.000000	0.000028	0.000029	0.000029	-16.846520	-86.757814	15.626653
60018	9.885131	-0.157858	0.549863	-0.013514	0.004990	0.088973	1.000000	0.000028	0.000029	0.000029	-16.825655	-86.757737	15.605539
60019	9.891727	-0.167888	0.509744	0.026759	-0.005837	0.093550	1.000000	0.000035	0.000029	0.000045	-16.835852	-86.757109	15.616512
60020	9.917929	-0.189174	0.519256	0.018251	-0.026514	0.120574	1.000000	0.000025	0.000022	0.000032	-16.825169	-86.757717	15.605267
60021	9.926035	-0.168312	0.545358	-0.007006	-0.004944	0.129739	1.000000	0.000032	0.000022	0.000048	-16.845084	-86.757814	15.627442
60022	9.899753	-0.148402	0.536978	0.000446	0.014290	0.102718	1.000000	0.000040	0.000039	0.000021	-16.802416	-86.756869	15.585896
60023	9.876778	-0.182930	0.526960	0.008555	-0.020908	0.079804	1.000000	0.000019	0.000019	0.000044	-16.818413	-86.757343	15.599650
60024	9.914474	-0.137426	0.522853	0.015482	0.025020	0.116472	1.000000	0.000019	0.000015	0.000027	-16.802633	-86.758918	15.582585
60025	9.899651	-0.150229	0.538343	-0.001113	0.012123	0.102721	1.000000	0.000028	0.000029	0.000029	-16.781298	-86.758738	15.557453
60026	9.902007	-0.162615	0.571243	-0.034081	0.000402	0.107058	1.000000	0.000009	0.000023	0.000038	-16.783752	-86.759024	15.557543
60027	9.893817	-0.184812	0.546211	-0.009896	-0.022618	0.097888	1.000000	0.000060	0.000038	0.000023	-16.743464	-86.758090	15.519452
60028	9.899525	-0.152108	0.540138	-0.002694	0.009961	0.102723	1.000000	0.000006	0.000027	0.000048	-16.762685	-86.757594	15.535973
60029	9.925712	-0.173565	0.549571	-0.011243	-0.010729	0.129731	1.000000	0.000045	0.000014	0.000045	-16.780036	-86.758749	15.558808
60030	9.916642	-0.153186	0.558252	-0.020126	0.009684	0.120811	1.000000	0.000025	0.000022	0.000032	-16.769369	-86.759357	15.547579
60031	9.908457	-0.175391	0.533120	0.004067	-0.013348	0.111642	1.000000	0.000028	0.000029	0.000029	-16.747679	-86.759196	15.523218
60032	9.923222	-0.163778	0.518587	0.019623	-0.001914	0.125406	1.000000	0.000029	0.000022	0.000040	-16.752302	-86.759524	15.527688
60033	9.891196	-0.177353	0.516785	0.019372	-0.015957	0.093556	1.000000	0.000022	0.000026	0.000042	-16.758825	-86.759305	15.531555
60034	9.890273	-0.135322	0.551213	-0.014205	0.026773	0.093812	1.000000	0.000045	0.000021	0.000034	-16.750332	-86.759955	15.524710
60035	9.923110	-0.165857	0.520059	0.018037	-0.004084	0.125408	1.000000	0.000028	0.000029	0.000029	-16.729378	-86.759881	15.503921
60036	9.899232	-0.157580	0.543925	-0.006920	0.004186	0.102725	1.000000	0.000025	0.000022	0.000032	-16.718715	-86.760489	15.492697
60037	9.905861	-0.167695	0.503647	0.033357	-0.006703	0.107328	1.000000	0.000019	0.000019	0.000044	-16.734513	-86.760893	15.503807
60038	9.899160	-0.159012	0.544820	-0.007958	0.002744	0.102725	1.000000	0.000028	0.000029	0.000029	-16.713694	-86.760815	15.482741
60039	9.922967	-0.168503	0.521947	0.015948	-0.006985	0.125410	1.000000	0.000035	0.000018	0.000038	-16.716428	-86.761561	15.483132
60040	9.872880	-0.139789	0.536766	-0.000965	0.021283	0.075738	1.000000	0.000025	0.000033	0.000039	-16.712403	-86.760700	15.478524
60041	9.901400	-0.172819	0.578718	-0.041989	-0.010387	0.107022	1.000000	0.000035	0.000018	0.000038	-16.715975	-86.761552	15.483322
60042	9.928643	-0.137340	0.516745	0.022113	0.024132	0.130288	1.000000	0.000025	0.000033	0.000039	-16.711957	-86.760691	15.478721
60043	9.907979	-0.183614	0.539210	-0.002259	-0.022020	0.111627	1.000000	0.000041	0.000032	0.000032	-16.693855	-86.760110	15.461091
60044	9.896566	-0.151514	0.515623	0.021345	0.009376	0.098432	1.000000	0.000019	0.000019	0.000044	-16.710156	-86.760622	15.476180
60045	9.907898	-0.185233	0.540144	-0.003326	-0.023469	0.111623	1.000000	0.000032	0.000022	0.000048	-16.729880	-86.760705	15.497895
60046	9.913660	-0.152577	0.533971	0.003912	0.009092	0.116510	1.000000	0.000031	0.000036	0.000026	-16.698934	-86.759942	15.467017
60047	9.922641	-0.174349	0.526201	0.011710	-0.012794	0.125410	1.000000	0.000026	0.000015	0.000043	-16.713012	-86.760907	15.479310
60048	9.913587	-0.153990	0.534930	0.002863	0.007641	0.116512	1.000000	0.000032	0.000029	0.000037	-16.707536	-86.760550	15.473996
60049	9.896373	-0.155237	0.518207	0.018716	0.005745	0.098440	1.000000	0.000025	0.000033	0.000039	-16.702606	-86.759651	15.467767
60050	9.920177	-0.164930	0.495507	0.042588	-0.004021	0.121134	1.000000	0.000035	0.000029	0.000045	-16.712447	-86.759016	15.478178
60051	9.906776	-0.146975	0.577279	-0.039489	0.015685	0.111891	1.000000	0.000016	0.000012	0.000047	-16.739704	-86.760199	15.502768
60052	9.913426	-0.157192	0.536975	0.000754	0.004750	0.116514	1.000000	0.000038	0.000025	0.000035	-16.732772	-86.760347	15.496743
60053	9.881379	-0.170511	0.535287	0.000518	-0.009245	0.084644	1.000000	0.000031	0.000036	0.000026	-16.702253	-86.759546	15.464621
60054	9.907511	-0.191784	0.544922	-0.008086	-0.029968	0.111603	1.000000	0.000019	0.000019	0.000045	-16.718584	-86.760057	15.479741
60055	9.896137	-0.159838	0.521318	0.015573	0.001416	0.098448	1.000000	0.000028	0.000033	0.000047	-16.728882	-86.758793	15.485973
60056	9.896091	-0.160636	0.521945	0.015044	0.000694	0.098448	1.000000	0.000032	0.000029	0.000037	-16.723441	-86.758438	15.480696
60057	9.913206	-0.160912	0.539930	-0.001882	0.001143	0.116515	1.000000	0.000028	0.000033	0.000047	-16.735855	-86.757377	15.495513
60058	9.895999	-0.162292	0.523163	0.013970	-0.000744	0.098450	1.000000	0.000041	0.000025	0.000044	-16.744260	-86.757246	15.505233
60059	9.913118	-0.162579	0.541038	-0.002944	-0.000303	0.116515	1.000000	0.000022	0.000026	0.000042	-16.750399	-86.757085	15.511127
60060	9.895915	-0.163742	0.524304	0.012909	-0.002190	0.098451	1.000000	0.000031	0.000036	0.000026	-16.719533	-86.756324	15.480332
60061	9.904035	-0.142845	0.550370	-0.012285	0.019426	0.107630	1.000000	0.000026	0.000008	0.000054	-16.759578	-86.757696	15.518609
60062	9.895847	-0.165355	0.525084	0.011860	-0.003635	0.098452	1.000000	0.000038	0.000025	0.000035	-16.752703	-86.757846	15.512641
60063	9.912963	-0.165515	0.542993	-0.005065	-0.003189	0.116513	1.000000	0.000032	0.000029	0.000037	-16.748066	-86.757536	15.509345
60064	9.898057	-0.178434	0.558668	-0.021685	-0.016001	0.102692	1.000000	0.000025	0.000033	0.000039	-16.744120	-86.756677	15.504819
60065	9.912874	-0.166906	0.544175	-0.006140	-0.004634	0.116512	1.000000	0.000025	0.000022	0.000032	-16.734015	-86.757367	15.497129
60066	9.912836	-0.167618	0.544652	-0.006670	-0.005357	0.116511	1.000000	0.000041	0.000025	0.000044	-16.742465	-86.757238	15.506895
60067	9.912794	-0.168427	0.545170	-0.007198	-0.006078	0.116511	1.000000	0.000022	0.000026	0.000042	-16.748753	-86.757045	15.511790
60068	9.910467	-0.157487	0.513272	0.024752	0.004121	0.112280	1.000000	0.000038	0.000025	0.000035	-16.741909	-86.757195	15.505855
60069	9.918586	-0.136394	0.539503	-0.000423	0.025742	0.121463	1.000000	0.000031	0.000036	0.000026	-16.710535	-86.756319	15.470636
60070	9.886532	-0.149735	0.537655	-0.000650	0.011780	0.089578	1.000000	0.000032	0.000011	0.000041	-16.723992	-86.757839	15.484369
60071	9.929779	-0.170653	0.564666	-0.025680	-0.007805	0.134561	1.000000	0.000031	0.000040	0.000044	-16.724844	-86.755946	15.483265
60072	9.895431	-0.172381	0.530625	0.006576	-0.010850	0.098452	1.000000	0.000028	0.000029	0.000029	-16.704173	-86.755871	15.462350
60073	9.910266	-0.160792	0.516131	0.022147	0.000490	0.112287	1.000000	0.000019	0.000026	0.000033	-16.694100	-86.755929	15.449949
60074	9.903512	-0.151954	0.557301	-0.019134	0.010051	0.107633	1.000000	0.000038	0.000025	0.000035	-16.687283	-86.756079	15.444040
60075	9.903479	-0.152745	0.557674	-0.019672	0.009333	0.107633	1.000000	0.000016	0.000012	0.000047	-16.714340	-86.757317	15.471119
60076	9.903451	-0.153498	0.557968	-0.020201	0.008612	0.107633	1.000000	0.000051	0.000017	0.000032	-16.704618	-86.758477	15.463793
60077	9.886260	-0.154872	0.541182	-0.004317	0.006728	0.089582	1.000000	0.000019	0.000042	0.000058	-16.733587	-86.755975	15.489435
60078	9.924958	-0.152504	0.503524	0.035595	0.008930	0.126137	1.000000	0.000035	0.000025	0.000027	-16.711481	-86.756405	15.467831
60079	9.886173	-0.156339	0.542361	-0.005370	0.005286	0.089582	1.000000	0.000022	0.000026	0.000042	-16.717522	-86.756212	15.472678
60080	9.942023	-0.153397	0.521971	0.018138	0.008638	0.144190	1.000000	0.000032	0.000029	0.000037	-16.712185	-86.755858	15.467506
60081	9.904043	-0.200031	0.527047	0.010088	-0.038553	0.107306	1.000000	0.000028	0.000029	0.000029	-16.691375	-86.755717	15.444426
60082	9.900943	-0.146217	0.528901	0.009149	0.015177	0.103434	1.000000	0.000007	0.000016	0.000041	-16.704057	-86.756688	15.454431
60083	9.909882	-0.168083	0.521159	0.016868	-0.006753	0.112296	1.000000	0.000041	0.000032	0.000033	-16.686555	-86.756161	15.438850
60084	9.924729	-0.156595	0.506771	0.032430	0.004570	0.126151	1.000000	0.000025	0.000033	0.000039	-16.682690	-86.755303	15.434408
60085	9.868788	-0.160964	0.528288	0.007872	-0.000204	0.071538	1.000000	0.000038	0.000025	0.000035	-16.675685	-86.755486	15.429820
60086	9.917913	-0.148606	0.548561	-0.009376	0.013436	0.121483	1.000000	0.000019	0.000030	0.000051	-16.698722	-86.754530	15.451627
60087	9.924602	-0.158984	0.508513	0.030834	0.002382	0.126157	1.000000	0.000032	0.000029	0.000037	-16.692625	-86.754190	15.445706
60088	9.883558	-0.151235	0.514944	0.022380	0.009668	0.085401	1.000000	0.000022	0.000026	0.000042	-16.698905	-86.754016	15.451093
60089	9.885748	-0.163621	0.547928	-0.010649	-0.001940	0.089579	1.000000	0.000032	0.000029	0.000037	-16.693050	-86.753680	15.446208
60090	9.924479	-0.161186	0.510219	0.029241	0.000200	0.126162	1.000000	0.000012	0.000030	0.000035	-16.685478	-86.753281	15.436592
60091	9.885662	-0.165297	0.548975	-0.011722	-0.003379	0.089578	1.000000	0.000036	0.000015	0.000067	-16.747041	-86.753542	15.501045
60092	9.941537	-0.162612	0.528393	0.011753	-0.000091	0.144203	1.000000	0.000051	0.000017	0.000032	-16.737443	-86.754705	15.493845
60093	9.926588	-0.175299	0.544023	-0.006863	-0.012608	0.130332	1.000000	0.000005	0.000041	0.000026	-16.782512	-86.764050	15.471300
60094	9.907195	-0.164766	0.494864	0.041534	-0.003669	0.108140	1.000000	0.000038	0.000025	0.000036	-16.775937	-86.764225	15.465645
60095	9.892244	-0.177638	0.510424	0.024905	-0.016406	0.094264	1.000000	0.000022	0.000026	0.000042	-16.781876	-86.764031	15.467337
60096	9.917499	-0.156170	0.553923	-0.016664	0.006448	0.121480	1.000000	0.000038	0.000025	0.000036	-16.775311	-86.764207	15.461691
60097	9.902542	-0.169035	0.569483	-0.033296	-0.006280	0.107599	1.000000	0.000022	0.000026	0.000042	-16.781159	-86.764033	15.464326
60098	9.924173	-0.167195	0.514215	0.022988	-0.005402	0.126177	1.000000	0.000022	0.000015	0.000035	-16.781038	-86.765352	15.463339
60099	9.900258	-0.158818	0.538010	-0.001845	0.003109	0.103449	1.000000	0.000028	0.000040	0.000036	-16.767515	-86.763841	15.449047
60100	9.915137	-0.147451	0.523513	0.013724	0.014384	0.117336	1.000000	0.000045	0.000014	0.000045	-16.785080	-86.764926	15.468364
60101	9.900184	-0.160302	0.538921	-0.002910	0.001666	0.103450	1.000000	0.000025	0.000022	0.000032	-16.774489	-86.765540	15.457887
60102	9.894178	-0.194344	0.546185	-0.011360	-0.032281	0.098401	1.000000	0.000019	0.000019	0.000045	-16.791172	-86.766073	15.473369
60103	9.900109	-0.161708	0.539885	-0.003971	0.000225	0.103449	1.000000	0.000031	0.000036	0.000026	-16.760350	-86.765300	15.442270
60104	9.906823	-0.171985	0.499840	0.036205	-0.010917	0.108156	1.000000	0.000032	0.000022	0.000048	-16.780793	-86.765374	15.462979
60105	9.900024	-0.163219	0.540986	-0.005067	-0.001214	0.103449	1.000000	0.000032	0.000029	0.000037	-16.776769	-86.765190	15.465664
60106	9.914913	-0.151865	0.526489	0.010501	0.010051	0.117345	1.000000	0.000041	0.000025	0.000044	-16.785616	-86.765086	15.475839
60107	9.914873	-0.152677	0.527005	0.009969	0.009325	0.117346	1.000000	0.000022	0.000026	0.000042	-16.791641	-86.764925	15.483245
60108	9.908855	-0.186737	0.534162	0.001512	-0.024619	0.112282	1.000000	0.000045	0.000002	0.000038	-16.802674	-86.767480	15.496050
60109	9.906641	-0.175861	0.502082	0.033513	-0.014536	0.108160	1.000000	0.000025	0.000033	0.000039	-16.798301	-86.766613	15.489378
60110	9.914778	-0.154814	0.528175	0.008373	0.007152	0.117349	1.000000	0.000032	0.000018	0.000030	-16.786611	-86.767755	15.477885
60111	9.890863	-0.146358	0.551869	-0.016441	0.015692	0.094614	1.000000	0.000032	0.000029	0.000037	-16.781298	-86.767450	15.475218
60112	9.897588	-0.156769	0.511761	0.023732	0.004536	0.099332	1.000000	0.000032	0.000022	0.000048	-16.801791	-86.767525	15.495979
60113	9.914665	-0.157106	0.529610	0.006740	0.004987	0.117352	1.000000	0.000029	0.000022	0.000040	-16.808055	-86.768007	15.509257
60114	9.929575	-0.145703	0.515000	0.022305	0.016237	0.131263	1.000000	0.000045	0.000021	0.000034	-16.800155	-86.768691	15.503021
60115	9.955588	-0.166985	0.524742	0.013512	-0.004578	0.158108	1.000000	0.000028	0.000029	0.000029	-16.778602	-86.768621	15.479324
60116	9.882503	-0.171781	0.528561	0.005478	-0.010323	0.085424	1.000000	0.000026	0.000008	0.000054	-16.819527	-86.770062	15.519880
60117	9.905593	-0.138871	0.539502	-0.003551	0.023333	0.108530	1.000000	0.000025	0.000033	0.000039	-16.815411	-86.769205	15.513758
60118	9.899536	-0.172819	0.546896	-0.012022	-0.010601	0.103437	1.000000	0.000032	0.000018	0.000030	-16.803750	-86.770347	15.502293
60119	9.914451	-0.161365	0.532324	0.003555	0.000636	0.117355	1.000000	0.000032	0.000029	0.000037	-16.798027	-86.769959	15.494631
60120	9.914412	-0.162098	0.532838	0.003020	-0.000086	0.117355	1.000000	0.000029	0.000022	0.000040	-16.803175	-86.770315	15.499640
60121	9.931483	-0.162229	0.550722	-0.013962	0.000354	0.135367	1.000000	0.000035	0.000025	0.000027	-16.781357	-86.770815	15.482106
60122	9.914335	-0.163417	0.533858	0.001943	-0.001532	0.117355	1.000000	0.000035	0.000029	0.000045	-16.791712	-86.770207	15.493046
60123	9.888258	-0.143572	0.525189	0.009711	0.017841	0.090528	1.000000	0.000035	0.000029	0.000045	-16.802104	-86.769521	15.497223
60124	9.914246	-0.165170	0.534965	0.000886	-0.002973	0.117355	1.000000	0.000032	0.000022	0.000048	-16.822665	-86.769596	15.518053
60125	9.931308	-0.165240	0.552994	-0.016088	-0.002535	0.135363	1.000000	0.000037	0.000039	0.000013	-16.764504	-86.768952	15.463087
60126	9.912024	-0.154860	0.503666	0.032366	0.006361	0.113278	1.000000	0.000032	0.000015	0.000059	-16.810667	-86.769430	15.509607
60127	9.914131	-0.167333	0.536430	-0.000714	-0.005142	0.117354	1.000000	0.000022	0.000015	0.000035	-16.810772	-86.770741	15.506704
60128	9.905174	-0.146821	0.545058	-0.009392	0.015399	0.108542	1.000000	0.000025	0.000033	0.000039	-16.807149	-86.769909	15.502518
60129	9.914050	-0.168790	0.537467	-0.001782	-0.006588	0.117353	1.000000	0.000029	0.000022	0.000040	-16.811968	-86.770253	15.505068
60130	9.914006	-0.169483	0.538061	-0.002318	-0.007310	0.117353	1.000000	0.000015	0.000037	0.000032	-16.794354	-86.769195	15.485740
60131	9.905042	-0.148876	0.546897	-0.010980	0.013222	0.108543	1.000000	0.000041	0.000032	0.000033	-16.776307	-86.768656	15.467290
60132	9.896814	-0.171519	0.521887	0.013070	-0.009930	0.099348	1.000000	0.000039	0.000022	0.000065	-16.827692	-86.768170	15.519757
60133	9.889975	-0.162713	0.563077	-0.028149	-0.000154	0.094600	1.000000	0.000031	0.000036	0.000026	-16.796733	-86.767444	15.490243
60134	9.913824	-0.172611	0.540411	-0.004450	-0.010213	0.117349	1.000000	0.000029	0.000015	0.000051	-16.827529	-86.768202	15.520989
60135	9.928766	-0.161401	0.525812	0.011133	0.000996	0.131295	1.000000	0.000032	0.000029	0.000037	-16.822579	-86.767778	15.512276
60136	9.928723	-0.162106	0.526398	0.010597	0.000272	0.131296	1.000000	0.000032	0.000029	0.000037	-16.817591	-86.767452	15.507469
60137	9.889810	-0.165634	0.565131	-0.030291	-0.003019	0.094594	1.000000	0.000025	0.000022	0.000032	-16.808554	-86.768209	15.503565
60138	9.928642	-0.163468	0.527498	0.009503	-0.001169	0.131297	1.000000	0.000038	0.000036	0.000042	-16.808776	-86.766920	15.504692
60139	9.872631	-0.167693	0.548773	-0.014905	-0.005622	0.076592	1.000000	0.000016	0.000012	0.000048	-16.835468	-86.768153	15.532942
60140	9.919656	-0.143589	0.536730	0.000307	0.018656	0.122499	1.000000	0.000030	0.000050	0.000004	-16.753727	-86.766623	15.451118
60141	9.896435	-0.177847	0.526947	0.008246	-0.016418	0.099345	1.000000	0.000032	0.000022	0.000048	-16.774576	-86.766721	15.473190
60142	9.896393	-0.178719	0.527424	0.007711	-0.017139	0.099344	1.000000	0.000041	0.000025	0.000044	-16.783622	-86.766621	15.483568
60143	9.904538	-0.157669	0.553518	-0.017401	0.004577	0.108542	1.000000	0.000028	0.000029	0.000029	-16.763233	-86.766582	15.462488
60144	9.945482	-0.167023	0.548301	-0.010180	-0.004354	0.149291	1.000000	0.000029	0.000022	0.000040	-16.768471	-86.766939	15.467588
60145	9.881275	-0.192824	0.544041	-0.009999	-0.031215	0.085377	1.000000	0.000032	0.000029	0.000037	-16.763319	-86.766641	15.464891
60146	9.910522	-0.126420	0.548085	-0.011020	0.035601	0.113713	1.000000	0.000032	0.000018	0.000030	-16.751766	-86.767785	15.453536
60147	9.898276	-0.193580	0.562532	-0.027518	-0.031494	0.103362	1.000000	0.000028	0.000040	0.000036	-16.737681	-86.766175	15.436647
60148	9.919345	-0.149107	0.540959	-0.003959	0.012876	0.122507	1.000000	0.000039	-0.000000	0.000051	-16.775925	-86.768630	15.476008
60149	9.896122	-0.183599	0.530824	0.003969	-0.022191	0.099336	1.000000	0.000031	0.000036	0.000026	-16.745544	-86.767947	15.447668
60150	9.902187	-0.151055	0.524511	0.011430	0.010273	0.104520	1.000000	0.000026	0.000026	0.000050	-16.767606	-86.767518	15.469257
60151	9.928117	-0.172713	0.534399	0.002533	-0.010579	0.131296	1.000000	0.000035	0.000029	0.000045	-16.778197	-86.766905	15.480372
60152	9.887097	-0.164779	0.540586	-0.005737	-0.003063	0.090546	1.000000	0.000035	0.000018	0.000039	-16.782084	-86.767769	15.484864
60153	9.910259	-0.131812	0.551554	-0.014722	0.030567	0.113725	1.000000	0.000035	0.000029	0.000045	-16.793213	-86.767074	15.492288
60154	9.878830	-0.188029	0.515996	0.017774	-0.026941	0.081343	1.000000	0.000032	0.000018	0.000030	-16.781703	-86.768219	15.480977
60155	9.919074	-0.154489	0.544401	-0.007712	0.007833	0.122510	1.000000	0.000035	0.000029	0.000045	-16.792846	-86.767712	15.498408
60156	9.901948	-0.155817	0.527619	0.008224	0.005956	0.104527	1.000000	0.000038	0.000036	0.000042	-16.793159	-86.766425	15.499631
60157	9.918977	-0.155933	0.545754	-0.008782	0.006380	0.122510	1.000000	0.000019	0.000033	0.000022	-16.758059	-86.766166	15.465825
60158	9.910052	-0.135306	0.554429	-0.017408	0.026954	0.113732	1.000000	0.000041	0.000025	0.000044	-16.767193	-86.766069	15.476292
60159	9.903877	-0.169277	0.561855	-0.025942	-0.006943	0.108522	1.000000	0.000025	0.000022	0.000032	-16.756617	-86.766651	15.457754
60160	9.910671	-0.179710	0.521721	0.014185	-0.018240	0.113306	1.000000	0.000029	0.000022	0.000040	-16.761919	-86.767009	15.462919
60161	9.892866	-0.137982	0.538480	-0.002499	0.023644	0.095755	1.000000	0.000038	0.000036	0.000042	-16.762465	-86.765627	15.458260
60162	9.918763	-0.159483	0.548607	-0.011429	0.002778	0.122509	1.000000	0.000028	0.000040	0.000036	-16.748799	-86.764114	15.444354
60163	9.899603	-0.149349	0.499304	0.037091	0.011611	0.100548	1.000000	0.000016	0.000023	0.000054	-16.782209	-86.763876	15.477245
60164	9.910483	-0.182942	0.524166	0.012052	-0.021129	0.113303	1.000000	0.000025	0.000022	0.000032	-16.772128	-86.764515	15.466621
60165	9.901566	-0.162229	0.532828	0.003446	-0.000550	0.104531	1.000000	0.000031	0.000036	0.000026	-16.741095	-86.763775	15.433623
60166	9.911740	-0.152630	0.591614	-0.054222	0.010484	0.117712	1.000000	0.000031	0.000040	0.000044	-16.742858	-86.761983	15.435553
60167	9.901467	-0.163692	0.534219	0.002359	-0.001987	0.104532	1.000000	0.000029	0.000022	0.000040	-16.749217	-86.762439	15.448468
60168	9.903455	-0.175918	0.567227	-0.030759	-0.013416	0.108501	1.000000	0.000032	0.000029	0.000037	-16.744380	-86.762116	15.443816
60169	9.901388	-0.165160	0.535245	0.001273	-0.003427	0.104531	1.000000	0.000029	0.000022	0.000040	-16.750505	-86.762566	15.456042
60170	9.942322	-0.174607	0.530099	0.008424	-0.012449	0.145276	1.000000	0.000028	0.000029	0.000029	-16.730278	-86.762523	15.435593
60171	9.884250	-0.166945	0.518774	0.016696	-0.006021	0.086559	1.000000	0.000035	0.000018	0.000039	-16.733988	-86.763353	15.439004
60172	9.901274	-0.167435	0.536636	-0.000324	-0.005591	0.104530	1.000000	0.000039	0.000022	0.000065	-16.785543	-86.762871	15.491642
60173	9.903242	-0.179779	0.569722	-0.033452	-0.017018	0.108487	1.000000	0.000031	0.000036	0.000026	-16.755035	-86.762190	15.463207
60174	9.894324	-0.159138	0.578519	-0.042049	0.003577	0.099723	1.000000	0.000019	0.000037	0.000040	-16.752966	-86.760853	15.459838
60175	9.907980	-0.179433	0.498129	0.038711	-0.018371	0.109337	1.000000	0.000035	0.000036	0.000034	-16.738291	-86.759868	15.446685
60176	9.918136	-0.169871	0.556775	-0.018962	-0.007328	0.122496	1.000000	0.000022	0.000026	0.000042	-16.745023	-86.759720	15.452539
60177	9.918095	-0.170656	0.557259	-0.019479	-0.008050	0.122494	1.000000	0.000029	0.000022	0.000040	-16.749614	-86.759973	15.451397
60178	9.916058	-0.160007	0.525160	0.012578	0.001920	0.118548	1.000000	0.000039	0.000018	0.000047	-16.769011	-86.760559	15.471807
60179	9.900967	-0.172528	0.540672	-0.004060	-0.010639	0.104525	1.000000	0.000022	0.000029	0.000013	-16.718292	-86.761083	15.419771
60180	9.915983	-0.161053	0.526251	0.011506	0.000477	0.118549	1.000000	0.000025	0.000033	0.000039	-16.714884	-86.760254	15.415806
60181	9.900884	-0.173937	0.541738	-0.005133	-0.012076	0.104523	1.000000	0.000039	0.000011	0.000058	-16.760414	-86.761249	15.460416
60182	9.909704	-0.196152	0.534023	0.002377	-0.034121	0.113274	1.000000	0.000029	0.000022	0.000040	-16.765804	-86.761609	15.465670
60183	9.930931	-0.151796	0.512545	0.026005	0.010136	0.132581	1.000000	0.000029	0.000033	0.000047	-16.776945	-86.760483	15.476784
60184	9.898774	-0.164944	0.510704	0.025864	-0.003566	0.100590	1.000000	0.000035	0.000025	0.000028	-16.755418	-86.760950	15.455779
60185	9.898738	-0.165661	0.511177	0.025340	-0.004292	0.100591	1.000000	0.000032	0.000022	0.000048	-16.775708	-86.760977	15.474144
60186	9.891831	-0.156621	0.552211	-0.015831	0.005641	0.095769	1.000000	0.000019	0.000026	0.000034	-16.767072	-86.761110	15.464225
60187	9.915718	-0.166737	0.529459	0.007776	-0.004597	0.118552	1.000000	0.000042	0.000007	0.000048	-16.794320	-86.762879	15.492327
60188	9.913711	-0.156071	0.497272	0.039842	0.005350	0.114633	1.000000	0.000038	0.000025	0.000036	-16.788204	-86.763066	15.487140
60189	9.923847	-0.146327	0.555903	-0.017844	0.016438	0.127765	1.000000	0.000031	0.000036	0.000026	-16.758325	-86.762435	15.459899
60190	9.915602	-0.168809	0.530981	0.006153	-0.006765	0.118552	1.000000	0.000032	0.000022	0.000048	-16.779157	-86.762515	15.481002
60191	9.921797	-0.136427	0.524417	0.013697	0.025663	0.123853	1.000000	0.000029	0.000022	0.000040	-16.784650	-86.762840	15.485510
60192	9.908653	-0.160499	0.572413	-0.035544	0.002464	0.113719	1.000000	0.000025	0.000022	0.000032	-16.774669	-86.763481	15.474988
60193	9.932536	-0.170544	0.549782	-0.011949	-0.007788	0.136505	1.000000	0.000029	0.000022	0.000040	-16.779560	-86.763832	15.478130
60194	9.891533	-0.162453	0.555862	-0.020105	-0.000126	0.095763	1.000000	0.000022	0.000026	0.000042	-16.786352	-86.763684	15.484046
60195	9.900332	-0.184642	0.548247	-0.012629	-0.022186	0.104499	1.000000	0.000029	0.000015	0.000051	-16.817718	-86.764516	15.519904
60196	9.897708	-0.130946	0.549660	-0.013105	0.031578	0.101077	1.000000	0.000038	0.000025	0.000036	-16.811639	-86.764704	15.514755
60197	9.889452	-0.153628	0.524825	0.010889	0.008380	0.091863	1.000000	0.000019	0.000042	0.000058	-16.842568	-86.762285	15.546784
60198	9.930363	-0.163373	0.519935	0.017965	-0.000738	0.132604	1.000000	0.000048	0.000028	0.000031	-16.824983	-86.762300	15.531192
60199	9.908356	-0.165998	0.575978	-0.039279	-0.002581	0.113705	1.000000	0.000032	0.000018	0.000030	-16.812206	-86.763364	15.515578
60200	9.913255	-0.165148	0.503392	0.033422	-0.003342	0.114657	1.000000	0.000035	0.000029	0.000045	-16.822907	-86.762763	15.526873
60201	9.863426	-0.135758	0.517500	0.017296	0.025679	0.065189	1.000000	0.000029	0.000022	0.000040	-16.827191	-86.763036	15.526088
60202	9.915118	-0.178133	0.536942	-0.000245	-0.015445	0.118544	1.000000	0.000032	0.000029	0.000037	-16.822483	-86.762717	15.521568
60203	9.915074	-0.178889	0.537496	-0.000774	-0.016158	0.118543	1.000000	0.000022	0.000026	0.000042	-16.830005	-86.762511	15.524722
60204	9.908137	-0.169912	0.578595	-0.041929	-0.006169	0.113693	1.000000	0.000019	0.000030	0.000052	-16.853571	-86.761575	15.547076
60205	9.906157	-0.159447	0.546597	-0.009846	0.003753	0.109814	1.000000	0.000032	0.000022	0.000048	-16.874699	-86.761644	15.566615
60206	9.889091	-0.160547	0.529543	0.006135	0.001886	0.091870	1.000000	0.000038	0.000020	0.000018	-16.836522	-86.762905	15.529300
60207	9.930017	-0.170012	0.524409	0.013190	-0.007258	0.132609	1.000000	0.000029	0.000022	0.000040	-16.842511	-86.763219	15.532998
60208	9.914870	-0.182730	0.539966	-0.003450	-0.019758	0.118536	1.000000	0.000035	0.000029	0.000045	-16.853244	-86.762618	15.544327
60209	9.906014	-0.162245	0.548373	-0.011976	0.000877	0.109812	1.000000	0.000032	0.000011	0.000042	-16.867593	-86.764156	15.556992
60210	9.929900	-0.172269	0.525873	0.011582	-0.009430	0.132609	1.000000	0.000034	0.000043	0.000023	-16.827111	-86.762760	15.516937
60211	9.921648	-0.194614	0.500968	0.035569	-0.032661	0.123389	1.000000	0.000023	0.000015	0.000035	-16.826879	-86.763990	15.513320
60212	9.905894	-0.164103	0.549975	-0.013563	-0.001284	0.109810	1.000000	0.000025	0.000033	0.000039	-16.823541	-86.763163	15.509430
60213	9.888820	-0.165446	0.533071	0.002418	-0.003150	0.091872	1.000000	0.000045	0.000025	0.000052	-16.848618	-86.762821	15.534445
60214	9.905810	-0.165871	0.550965	-0.014639	-0.002724	0.109808	1.000000	0.000026	0.000015	0.000043	-16.864342	-86.763862	15.549714
60215	9.897559	-0.188357	0.525923	0.009322	-0.025960	0.100586	1.000000	0.000028	0.000029	0.000029	-16.843978	-86.763868	15.530904
