// Start Time: Unknown
// Update Rate: 100.0Hz
// Filter Profile: human (46.1)
// Firmware Version: 4.4.0
PacketCounter	Acc_X	Acc_Y	Acc_Z	FreeAcc_X	FreeAcc_Y	FreeAcc_Z	OriInc_q0	OriInc_q1	OriInc_q2	OriInc_q3	Roll	Pitch	Yaw
58153	9.564065	-0.190661	2.437324	-0.000000	-0.000000	0.058900	1.000000	0.000027	0.000017	0.000014	-4.471710	-75.662087	-2.881106
58154	9.563977	-0.190794	2.437656	-0.015476	-0.004395	0.058887	1.000000	0.000035	0.000017	0.000016	-4.356847	-75.746559	-2.680294
58155	9.534607	-0.173069	2.433975	-0.016756	0.013163	0.029185	1.000000	0.000021	0.000009	0.000009	-4.358290	-75.745492	-2.676316
58156	9.563843	-0.191005	2.438166	-0.015556	-0.004427	0.058886	1.000000	0.000035	0.000017	0.000016	-4.360104	-75.743871	-2.669847
58157	9.544151	-0.193263	2.424047	-0.006770	-0.007917	0.036377	1.000000	0.000016	0.000011	0.000025	-4.369241	-75.742350	-2.658567
58158	9.573338	-0.211410	2.428413	-0.005484	-0.025472	0.066078	1.000000	0.000031	0.000032	0.000020	-4.373435	-75.738471	-2.650555
58159	9.553840	-0.171944	2.449807	-0.025615	0.016624	0.051695	1.000000	0.000027	0.000017	0.000014	-4.375846	-75.736457	-2.644879
58160	9.543822	-0.193807	2.425298	-0.006745	-0.007908	0.036377	1.000000	0.000029	0.000019	0.000006	-4.374948	-75.734120	-2.642408
58161	9.585011	-0.163669	2.406699	0.025337	0.019318	0.071158	1.000000	0.000025	0.000024	0.000015	-4.378095	-75.731222	-2.636170
58162	9.563216	-0.191971	2.440548	-0.015523	-0.004419	0.058886	1.000000	0.000029	0.000019	0.000006	-4.377021	-75.728949	-2.633869
58163	9.543534	-0.193988	2.426418	-0.006737	-0.007908	0.036377	1.000000	0.000021	0.000009	0.000009	-4.378458	-75.727882	-2.629897
58164	9.573001	-0.170301	2.465941	-0.034350	0.020128	0.074204	1.000000	0.000050	0.000018	0.000021	-4.381793	-75.725549	-2.620596
58165	9.543323	-0.194382	2.427217	-0.006713	-0.007900	0.036377	1.000000	0.000020	0.000037	0.000026	-4.389878	-75.721094	-2.609876
58166	9.551967	-0.206736	2.458781	-0.035873	-0.016280	0.052751	1.000000	0.000021	0.000009	0.000009	-4.391317	-75.719676	-2.605902
58167	9.543135	-0.194647	2.427934	-0.006653	-0.007902	0.036377	1.000000	0.000029	0.000019	0.000006	-4.390246	-75.717447	-2.603599
58168	9.523438	-0.196769	2.413859	0.002235	-0.011369	0.013867	1.000000	0.000033	0.000015	0.000023	-4.396989	-75.714998	-2.592818
58169	9.553797	-0.180902	2.411931	0.013883	0.003988	0.042512	1.000000	0.000025	0.000024	0.000015	-4.400121	-75.712098	-2.586595
58170	9.582054	-0.191099	2.457886	-0.024040	-0.000870	0.081397	1.000000	0.000029	0.000019	0.000006	-4.399846	-75.709408	-2.583520
58171	9.562334	-0.193171	2.443906	-0.015255	-0.004360	0.058887	1.000000	0.000033	0.000025	0.000018	-4.403207	-75.706447	-2.576165
58172	9.563145	-0.201141	2.402796	0.024158	-0.016993	0.049704	1.000000	0.000023	0.000022	0.000022	-4.410786	-75.703024	-2.565638
58173	9.532836	-0.175702	2.440714	-0.016407	0.013235	0.029186	1.000000	0.000030	0.000011	0.000005	-4.408976	-75.701679	-2.563900
58174	9.562942	-0.201208	2.403600	0.024267	-0.016953	0.049703	1.000000	0.000035	0.000037	0.000005	-4.407179	-75.696786	-2.561691
58175	9.561853	-0.193531	2.445760	-0.015018	-0.004283	0.058887	1.000000	0.000025	0.000024	0.000015	-4.410301	-75.693887	-2.555479
58176	9.542146	-0.195748	2.431729	-0.006147	-0.007707	0.036377	1.000000	0.000033	0.000015	0.000023	-4.418032	-75.691545	-2.543713
58177	9.552902	-0.181891	2.415400	0.014286	0.004161	0.042512	1.000000	0.000040	0.000025	0.000020	-4.421609	-75.688525	-2.535239
58178	9.561541	-0.194139	2.446933	-0.014840	-0.004144	0.058888	1.000000	0.000012	0.000016	0.000009	-4.425339	-75.686112	-2.530138
58179	9.552708	-0.182096	2.416150	0.014379	0.004234	0.042512	1.000000	0.000044	0.000020	0.000011	-4.424718	-75.683760	-2.525580
58180	9.562530	-0.160568	2.441352	-0.004415	0.028846	0.057830	1.000000	0.000020	0.000017	0.000037	-4.440023	-75.681196	-2.507644
58181	9.552470	-0.182679	2.417046	0.014435	0.004308	0.042512	1.000000	0.000050	0.000038	0.000010	-4.437625	-75.676801	-2.504200
58182	9.551158	-0.216715	2.423850	0.004120	-0.028593	0.043569	1.000000	0.000018	0.000014	0.000018	-4.443654	-75.674749	-2.496003
58183	9.561014	-0.195052	2.448916	-0.014730	-0.004054	0.058888	1.000000	0.000029	0.000009	0.000012	-4.445311	-75.673622	-2.490914
58184	9.552215	-0.183063	2.418027	0.014559	0.004391	0.042511	1.000000	0.000019	0.000016	0.000011	-4.449127	-75.671273	-2.484862
58185	9.551157	-0.175378	2.460004	-0.024726	0.017062	0.051696	1.000000	0.000027	0.000027	0.000008	-4.448778	-75.668161	-2.482019
58186	9.570367	-0.215122	2.439772	-0.004499	-0.025011	0.066080	1.000000	0.000041	0.000035	0.000015	-4.450221	-75.663487	-2.475766
58187	9.571443	-0.181278	2.433894	0.005870	0.007906	0.065021	1.000000	0.000021	0.000009	0.000009	-4.451648	-75.662419	-2.471812
58188	9.531208	-0.177710	2.446917	-0.015794	0.013654	0.029186	1.000000	0.000039	0.000022	0.000027	-4.460125	-75.659317	-2.458719
58189	9.560337	-0.195694	2.451509	-0.014512	-0.003902	0.058888	1.000000	0.000035	0.000037	0.000005	-4.457270	-75.655046	-2.457546
58190	9.571101	-0.181694	2.435209	0.006139	0.007991	0.065021	1.000000	0.000019	0.000006	0.000016	-4.462947	-75.652921	-2.449464
58191	9.571043	-0.181944	2.435417	0.006141	0.007992	0.065021	1.000000	0.000033	0.000015	0.000023	-4.469018	-75.651043	-2.439347
58192	9.551321	-0.184121	2.421475	0.015031	0.004504	0.042511	1.000000	0.000033	0.000035	0.000012	-4.469762	-75.646357	-2.434708
58193	9.541515	-0.164445	2.432356	0.004968	0.025552	0.035319	1.000000	0.000025	0.000014	0.000021	-4.475601	-75.644536	-2.425726
58194	9.540212	-0.198520	2.439081	-0.005406	-0.007405	0.036378	1.000000	0.000035	0.000027	0.000011	-4.474491	-75.641387	-2.422783
58195	9.550961	-0.184558	2.422860	0.015030	0.004464	0.042511	1.000000	0.000033	0.000025	0.000018	-4.477824	-75.638413	-2.415472
58196	9.569286	-0.216598	2.443878	-0.004097	-0.024997	0.066080	1.000000	0.000038	0.000002	0.000012	-4.478153	-75.637957	-2.410666
58197	9.541135	-0.165092	2.433803	0.004990	0.025477	0.035319	1.000000	0.000012	0.000027	0.000029	-4.488663	-75.634647	-2.398378
58198	9.579962	-0.203207	2.427905	0.016427	-0.013146	0.072212	1.000000	0.000023	0.000022	0.000022	-4.494871	-75.631434	-2.389506
58199	9.561474	-0.171506	2.407523	0.035582	0.016281	0.048643	1.000000	0.000027	0.000017	0.000014	-4.497261	-75.629397	-2.383875
58200	9.550483	-0.185723	2.424654	0.015192	0.004376	0.042510	1.000000	0.000033	0.000025	0.000018	-4.499751	-75.626143	-2.377468
58201	9.550359	-0.185897	2.425131	0.015198	0.004378	0.042510	1.000000	0.000025	0.000024	0.000015	-4.502862	-75.623204	-2.371291
58202	9.569875	-0.184166	2.439837	0.006297	0.007864	0.065021	1.000000	0.000017	0.000004	0.000023	-4.510959	-75.623248	-2.361564
58203	9.579483	-0.204054	2.429721	0.016368	-0.013182	0.072212	1.000000	0.000033	0.000024	-0.000008	-4.503012	-75.620561	-2.365957
58204	9.539181	-0.200440	2.442953	-0.005451	-0.007548	0.036378	1.000000	0.000016	0.000032	0.000040	-4.516449	-75.617093	-2.349773
58205	9.559636	-0.206558	2.416263	0.025055	-0.016727	0.049702	1.000000	0.000030	0.000011	0.000005	-4.514677	-75.615713	-2.348030
58206	9.569456	-0.184753	2.441434	0.005930	0.007748	0.065021	1.000000	0.000025	0.000024	0.000015	-4.515943	-75.614417	-2.342426
58207	9.549721	-0.186869	2.427568	0.014716	0.004258	0.042511	1.000000	0.000025	0.000034	0.000010	-4.516285	-75.610398	-2.339066
58208	9.549593	-0.186966	2.428064	0.014537	0.004280	0.042511	1.000000	0.000027	0.000017	0.000014	-4.518983	-75.609428	-2.333750
58209	9.569079	-0.185193	2.442881	0.005756	0.007772	0.065022	1.000000	0.000031	0.000022	0.000025	-4.525749	-75.606661	-2.323121
58210	9.558085	-0.199536	2.459964	-0.014957	-0.004086	0.058887	1.000000	0.000018	0.000014	0.000018	-4.531304	-75.606543	-2.316004
58211	9.529688	-0.189647	2.414827	0.023046	0.000803	0.020002	1.000000	0.000025	0.000034	0.000010	-4.531677	-75.602542	-2.312638
58212	9.540459	-0.175702	2.398597	0.043462	0.012674	0.026136	1.000000	0.000035	0.000017	0.000016	-4.534322	-75.600555	-2.306434
58213	9.558951	-0.166109	2.454960	-0.004603	0.028839	0.057830	1.000000	0.000023	0.000022	0.000022	-4.540890	-75.597843	-2.296929
58214	9.558597	-0.208014	2.420245	0.024070	-0.016780	0.049704	1.000000	0.000027	0.000027	0.000008	-4.539554	-75.596119	-2.295857
58215	9.548796	-0.188314	2.431091	0.014008	0.004272	0.042512	1.000000	0.000023	0.000022	0.000022	-4.546139	-75.593413	-2.286348
58216	9.548696	-0.188534	2.431467	0.013651	0.004167	0.042513	1.000000	0.000027	0.000017	0.000014	-4.545633	-75.593456	-2.282378
58217	9.548611	-0.188656	2.431789	0.013650	0.004169	0.042513	1.000000	0.000019	0.000016	0.000011	-4.547796	-75.591502	-2.277891
58218	9.568065	-0.186753	2.446728	0.004541	0.007729	0.065022	1.000000	0.000033	0.000035	0.000012	-4.549702	-75.589339	-2.274596
58219	9.558006	-0.208987	2.422494	0.023389	-0.016806	0.049706	1.000000	0.000018	0.000025	0.000038	-4.563915	-75.586196	-2.257873
58220	9.568819	-0.195242	2.406116	0.043600	-0.004928	0.055843	1.000000	0.000030	0.000011	0.000005	-4.562173	-75.586146	-2.257206
58221	9.567753	-0.187578	2.447885	0.004314	0.007752	0.065022	1.000000	0.000016	0.000011	0.000025	-4.571312	-75.584623	-2.246018
58222	9.527484	-0.183962	2.460916	-0.017641	0.013494	0.029183	1.000000	0.000042	0.000027	0.000013	-4.572349	-75.582809	-2.241980
58223	9.588111	-0.193832	2.421660	0.034564	-0.001373	0.078353	1.000000	0.000031	0.000022	0.000025	-4.579245	-75.580060	-2.231322
58224	9.558751	-0.176109	2.417978	0.032935	0.016191	0.048652	1.000000	0.000029	0.000019	0.000006	-4.577985	-75.579905	-2.230363
58225	9.547708	-0.190243	2.435212	0.012497	0.004335	0.042514	1.000000	0.000031	0.000032	0.000020	-4.582170	-75.576068	-2.222497
58226	9.527980	-0.192372	2.421341	0.020979	0.000688	0.020007	1.000000	0.000035	0.000027	0.000011	-4.578011	-75.574631	-2.220636
58227	9.576703	-0.208404	2.440290	0.013460	-0.013371	0.072216	1.000000	0.000025	0.000014	0.000021	-4.583943	-75.572837	-2.211658
58228	9.577867	-0.174689	2.434209	0.023579	0.019557	0.071162	1.000000	0.000019	0.000016	0.000011	-4.586172	-75.572350	-2.208487
58229	9.558183	-0.176762	2.420177	0.032367	0.016074	0.048654	1.000000	0.000027	0.000027	0.000008	-4.585955	-75.569243	-2.205629
58230	9.548153	-0.198750	2.395876	0.051188	-0.008631	0.033340	1.000000	0.000033	0.000025	0.000018	-4.585267	-75.566369	-2.200597
58231	9.566600	-0.189045	2.452275	0.003118	0.007541	0.065023	1.000000	0.000034	0.000017	0.000016	-4.587967	-75.564262	-2.193832
58232	9.546920	-0.191195	2.438222	0.011582	0.004006	0.042515	1.000000	0.000018	0.000024	0.000013	-4.589449	-75.563294	-2.190695
58233	9.556715	-0.169454	2.463421	-0.007264	0.028553	0.057829	1.000000	0.000034	0.000017	0.000016	-4.592157	-75.561185	-2.183928
58234	9.557660	-0.177516	2.422185	0.031747	0.015802	0.048657	1.000000	0.000010	0.000014	0.000016	-4.595458	-75.561064	-2.179653
58235	9.577150	-0.175630	2.436957	0.022962	0.019300	0.071164	1.000000	0.000029	0.000019	0.000006	-4.594507	-75.558799	-2.177341
58236	9.556232	-0.211599	2.429254	0.020887	-0.017180	0.049711	1.000000	0.000034	0.000017	0.000016	-4.594891	-75.559570	-2.173493
58237	9.576944	-0.176005	2.437740	0.022473	0.019234	0.071165	1.000000	0.000012	0.000027	0.000029	-4.605464	-75.556241	-2.161247
58238	9.546310	-0.192358	2.440519	0.010349	0.003690	0.042517	1.000000	0.000033	0.000025	0.000018	-4.603837	-75.556037	-2.156802
58239	9.555855	-0.212428	2.430665	0.020410	-0.017353	0.049711	1.000000	0.000033	0.000025	0.000018	-4.607223	-75.553062	-2.149517
58240	9.536405	-0.172797	2.451741	0.000229	0.024593	0.035323	1.000000	0.000027	0.000017	0.000014	-4.605896	-75.551325	-2.146200
58241	9.566599	-0.198775	2.414642	0.040790	-0.005635	0.055855	1.000000	0.000033	0.000015	0.000023	-4.611985	-75.549411	-2.136131
58242	9.556855	-0.179226	2.425233	0.030158	0.015381	0.048662	1.000000	0.000016	0.000011	0.000025	-4.619710	-75.551207	-2.127376
58243	9.545840	-0.193429	2.442272	0.009728	0.003522	0.042518	1.000000	0.000029	0.000019	0.000006	-4.618718	-75.548961	-2.125086
58244	9.566355	-0.199376	2.415558	0.039679	-0.005700	0.055859	1.000000	0.000034	0.000017	0.000016	-4.619952	-75.550028	-2.120880
58245	9.555338	-0.213666	2.432590	0.019245	-0.017557	0.049713	1.000000	0.000031	0.000012	0.000030	-4.629518	-75.548370	-2.107473
58246	9.566164	-0.200052	2.416258	0.039049	-0.005880	0.055862	1.000000	0.000022	0.000029	0.000024	-4.631689	-75.548424	-2.099506
58247	9.556356	-0.180423	2.427111	0.028984	0.015175	0.048666	1.000000	0.000033	0.000025	0.000018	-4.635024	-75.545489	-2.092250
58248	9.565919	-0.200476	2.417192	0.038428	-0.005943	0.055864	1.000000	0.000027	0.000017	0.000013	-4.635219	-75.547047	-2.088679
58249	9.575731	-0.178700	2.442306	0.019560	0.018601	0.071173	1.000000	0.000027	0.000017	0.000013	-4.637623	-75.545086	-2.083082
58250	9.554990	-0.172894	2.469866	-0.011149	0.027637	0.057828	1.000000	0.000025	0.000034	0.000010	-4.634242	-75.542294	-2.081743
58251	9.575488	-0.179110	2.443230	0.019333	0.018457	0.071173	1.000000	0.000021	0.000009	0.000035	-4.646926	-75.540947	-2.066177
58252	9.544903	-0.195460	2.445769	0.007707	0.002930	0.042520	1.000000	0.000034	0.000017	0.000016	-4.645404	-75.538757	-2.061904
58253	9.555777	-0.181503	2.429309	0.028136	0.014799	0.048669	1.000000	0.000030	0.000011	0.000005	-4.643610	-75.537426	-2.060185
58254	9.544720	-0.195573	2.446476	0.007247	0.003017	0.042520	1.000000	0.000024	0.000032	0.000017	-4.648968	-75.536321	-2.056249
58255	9.565193	-0.201674	2.419964	0.037731	-0.006163	0.055867	1.000000	0.000025	0.000024	0.000015	-4.652082	-75.533437	-2.050124
58256	9.544456	-0.196002	2.447471	0.007029	0.002861	0.042520	1.000000	0.000023	0.000022	0.000022	-4.654553	-75.531930	-2.043019
58257	9.554025	-0.216205	2.437519	0.017084	-0.018185	0.049716	1.000000	0.000033	0.000015	0.000023	-4.660593	-75.530067	-2.032985
58258	9.566162	-0.168545	2.414721	0.047406	0.026639	0.054824	1.000000	0.000025	0.000024	0.000015	-4.664282	-75.529991	-2.028982
58259	9.535564	-0.184660	2.417318	0.035771	0.011292	0.026169	1.000000	0.000021	0.000009	0.000009	-4.665783	-75.528946	-2.025035
58260	9.574618	-0.180756	2.446515	0.017572	0.018260	0.071177	1.000000	0.000034	0.000017	0.000016	-4.667644	-75.530332	-2.020723
58261	9.556039	-0.190975	2.390811	0.065656	0.002102	0.039522	1.000000	0.000031	0.000012	0.000030	-4.677185	-75.528710	-2.007343
58262	9.574450	-0.181481	2.447117	0.016852	0.018109	0.071179	1.000000	0.000021	0.000019	0.000029	-4.682750	-75.530330	-1.997047
58263	9.565768	-0.169703	2.416202	0.046074	0.026491	0.054831	1.000000	0.000030	0.000011	0.000005	-4.681033	-75.529060	-1.995305
58264	9.535169	-0.185889	2.418781	0.032714	0.011266	0.026180	1.000000	0.000021	0.000019	0.000029	-4.692595	-75.536805	-1.985671
58265	9.565574	-0.170218	2.416932	0.044304	0.026628	0.054839	1.000000	0.000025	0.000024	0.000015	-4.695778	-75.534085	-1.979534
58266	9.544622	-0.206410	2.409261	0.042579	-0.009712	0.033380	1.000000	0.000023	0.000012	0.000028	-4.706443	-75.533365	-1.970619
58267	9.543457	-0.198764	2.451140	0.003260	0.002982	0.042522	1.000000	0.000033	0.000025	0.000018	-4.709913	-75.530560	-1.963335
58268	9.563978	-0.204852	2.424497	0.032955	-0.006265	0.055884	1.000000	0.000019	0.000016	0.000011	-4.710064	-75.533187	-1.961711
58269	9.554190	-0.185114	2.435274	0.022870	0.014800	0.048683	1.000000	0.000046	0.000033	0.000025	-4.714685	-75.529403	-1.951654
58270	9.565026	-0.171249	2.419030	0.043354	0.026671	0.054843	1.000000	0.000021	0.000019	0.000004	-4.713693	-75.526900	-1.953476
58271	9.583191	-0.203258	2.440290	0.024132	-0.002735	0.078383	1.000000	0.000025	0.000014	0.000021	-4.719732	-75.525251	-1.944497
58272	9.562445	-0.197621	2.467757	-0.007539	0.006339	0.065021	1.000000	0.000022	0.000029	0.000024	-4.723115	-75.528604	-1.937126
58273	9.574348	-0.191798	2.410036	0.052143	0.005529	0.062051	1.000000	0.000027	0.000027	0.000008	-4.722961	-75.525719	-1.934285
58274	9.562191	-0.197873	2.468718	-0.009334	0.006555	0.065020	1.000000	0.000012	0.000016	0.000009	-4.728157	-75.534144	-1.933961
58275	9.554830	-0.152074	2.431373	0.030242	0.047850	0.047651	1.000000	0.000044	0.000020	0.000011	-4.727837	-75.532130	-1.929363
58276	9.543520	-0.208054	2.413483	0.037431	-0.009581	0.033401	1.000000	0.000023	0.000022	0.000022	-4.733910	-75.536968	-1.923202
58277	9.553300	-0.186204	2.438676	0.018499	0.014986	0.048692	1.000000	0.000038	0.000022	0.000002	-4.729963	-75.534880	-1.923047
58278	9.572760	-0.184256	2.453515	0.009179	0.018428	0.071188	1.000000	0.000025	0.000014	0.000021	-4.734131	-75.535963	-1.917159
58279	9.554231	-0.194414	2.397750	0.057219	0.002264	0.039574	1.000000	0.000029	0.000009	0.000012	-4.736158	-75.535250	-1.911990
58280	9.544508	-0.174672	2.408264	0.046236	0.023345	0.032372	1.000000	0.000033	0.000015	0.000023	-4.742078	-75.538903	-1.905271
58281	9.563960	-0.172885	2.423125	0.037334	0.026861	0.054867	1.000000	0.000018	0.000024	0.000013	-4.745303	-75.536518	-1.900179
58282	9.542978	-0.209083	2.415535	0.035642	-0.009414	0.033408	1.000000	0.000014	0.000019	0.000027	-4.757991	-75.534788	-1.892516
58283	9.552754	-0.187459	2.440721	0.016708	0.015164	0.048695	1.000000	0.000033	0.000025	0.000018	-4.761741	-75.532255	-1.885146
58284	9.584271	-0.179626	2.397343	0.067034	0.017772	0.068252	1.000000	0.000019	0.000016	0.000011	-4.762510	-75.533633	-1.883697
58285	9.551251	-0.221531	2.447888	0.005658	-0.017754	0.049730	1.000000	0.000046	0.000012	0.000010	-4.761684	-75.532621	-1.879555
58286	9.572025	-0.185629	2.456276	0.006959	0.019074	0.071189	1.000000	0.000027	0.000027	0.000008	-4.771061	-75.531179	-1.880813
58287	9.573011	-0.193694	2.415190	0.046170	0.006398	0.062080	1.000000	0.000027	0.000017	0.000013	-4.774077	-75.529605	-1.875020
58288	9.572931	-0.193889	2.415491	0.045242	0.006610	0.062084	1.000000	0.000017	0.000014	0.000018	-4.784028	-75.533313	-1.870486
58289	9.563173	-0.174176	2.426133	0.035133	0.027709	0.054873	1.000000	0.000033	0.000025	0.000018	-4.788045	-75.530828	-1.863022
58290	9.553197	-0.196260	2.401718	0.053730	0.003445	0.039593	1.000000	0.000036	0.000009	0.000014	-4.796919	-75.531153	-1.860999
58291	9.562984	-0.174540	2.426852	0.034801	0.028053	0.054873	1.000000	0.000022	0.000029	0.000024	-4.804958	-75.528039	-1.850778
58292	9.573868	-0.160754	2.410504	0.055385	0.040039	0.061048	1.000000	0.000046	0.000012	0.000010	-4.807315	-75.525745	-1.851188
58293	9.532254	-0.190792	2.429863	0.023255	0.012907	0.026204	1.000000	0.000023	0.000022	0.000022	-4.814744	-75.523479	-1.841454
58294	9.571222	-0.187012	2.459298	0.005083	0.020342	0.071187	1.000000	0.000025	0.000024	0.000015	-4.827334	-75.523697	-1.840265
58295	9.551573	-0.189169	2.445206	0.013833	0.016888	0.048696	1.000000	0.000027	0.000017	0.000013	-4.830789	-75.522119	-1.834316
58296	9.562481	-0.175355	2.428775	0.033043	0.028513	0.054878	1.000000	0.000027	0.000017	0.000013	-4.827272	-75.527253	-1.831760
58297	9.580597	-0.207358	2.450109	0.013699	-0.000825	0.078404	1.000000	0.000034	0.000017	0.000016	-4.830909	-75.525667	-1.824702
58298	9.533085	-0.157642	2.425295	0.031322	0.046014	0.025174	1.000000	0.000035	0.000027	0.000011	-4.827777	-75.525103	-1.824969
58299	9.531638	-0.191676	2.432209	0.020806	0.013168	0.026210	1.000000	0.000025	0.000014	0.000021	-4.834625	-75.523788	-1.815714
58300	9.560754	-0.209803	2.436758	0.021794	-0.004625	0.055915	1.000000	0.000019	0.000016	0.000011	-4.831020	-75.522886	-1.815040
58301	9.570568	-0.187873	2.461776	0.002868	0.019998	0.071189	1.000000	0.000030	0.000011	0.000005	-4.830277	-75.522035	-1.812959
58302	9.571571	-0.195985	2.420707	0.042544	0.006820	0.062096	1.000000	0.000039	0.000033	0.000022	-4.824335	-75.515687	-1.809238
58303	9.560438	-0.210024	2.437976	0.022029	-0.004966	0.055915	1.000000	0.000029	0.000019	0.000006	-4.824192	-75.513894	-1.806679
58304	9.521465	-0.172308	2.444432	0.010874	0.033881	0.018995	1.000000	0.000022	0.000029	0.000024	-4.836592	-75.510103	-1.800665
58305	9.590734	-0.194497	2.436645	0.033606	0.010643	0.084586	1.000000	0.000034	0.000017	0.000016	-4.840197	-75.508425	-1.793627
58306	9.561436	-0.176714	2.432789	0.032562	0.028122	0.054880	1.000000	0.000025	0.000024	0.000015	-4.841420	-75.504679	-1.791501
58307	9.571006	-0.196787	2.422876	0.042506	0.007106	0.062096	1.000000	0.000021	0.000009	0.000009	-4.843909	-75.503983	-1.787217
58308	9.561282	-0.176953	2.433376	0.030914	0.028397	0.054885	1.000000	0.000050	0.000018	0.000021	-4.851045	-75.511092	-1.782275
58309	9.551322	-0.199192	2.408922	0.049674	0.003872	0.039615	1.000000	0.000000	0.000011	0.000020	-4.860711	-75.510120	-1.773060
58310	9.561093	-0.177527	2.434075	0.029648	0.028747	0.054888	1.000000	0.000031	0.000032	0.000020	-4.870768	-75.513281	-1.767846
58311	9.540075	-0.213591	2.426582	0.027952	-0.007599	0.033434	1.000000	0.000027	0.000017	0.000013	-4.874329	-75.511761	-1.761872
58312	9.570535	-0.197784	2.424651	0.039425	0.007640	0.062108	1.000000	0.000027	0.000017	0.000013	-4.874296	-75.510490	-1.760735
58313	9.541248	-0.180063	2.420752	0.038179	0.025257	0.032402	1.000000	0.000023	0.000022	0.000022	-4.881972	-75.508270	-1.750934
58314	9.570361	-0.198355	2.425294	0.038799	0.007770	0.062111	1.000000	0.000032	0.000005	0.000028	-4.892037	-75.510649	-1.742300
58315	9.549583	-0.192394	2.452714	0.008272	0.017083	0.048702	1.000000	0.000029	0.000039	-0.000004	-4.886691	-75.506733	-1.745276
58316	9.559095	-0.212309	2.443038	0.016979	-0.003894	0.055925	1.000000	0.000034	0.000017	0.000016	-4.890508	-75.512183	-1.742445
58317	9.540823	-0.180687	2.422379	0.036178	0.025543	0.032409	1.000000	0.000038	0.000023	0.000027	-4.898705	-75.509897	-1.730371
58318	9.569891	-0.198952	2.427099	0.036597	0.008099	0.062119	1.000000	0.000016	0.000022	0.000020	-4.907074	-75.511548	-1.725003
58319	9.560141	-0.179205	2.437691	0.026510	0.029236	0.054895	1.000000	0.000027	0.000017	0.000013	-4.910758	-75.510096	-1.718991
58320	9.558680	-0.213132	2.444592	0.014602	-0.003518	0.055929	1.000000	0.000029	0.000019	0.000006	-4.911752	-75.516361	-1.719739
58321	9.540412	-0.181345	2.423951	0.033798	0.025919	0.032416	1.000000	0.000018	0.000024	0.000013	-4.915933	-75.514149	-1.714335
58322	9.559830	-0.179631	2.438879	0.023576	0.029116	0.054903	1.000000	0.000014	0.000019	0.000027	-4.916989	-75.519680	-1.705411
58323	9.569381	-0.199811	2.429038	0.033444	0.008106	0.062130	1.000000	0.000029	0.000019	0.000006	-4.917212	-75.518146	-1.702738
58324	9.549723	-0.201929	2.415028	0.040857	0.004730	0.039655	1.000000	0.000031	0.000032	0.000019	-4.923422	-75.522702	-1.697688
58325	9.541083	-0.190310	2.384275	0.070025	0.013091	0.023377	1.000000	0.000023	0.000022	0.000022	-4.931241	-75.520749	-1.687846
58326	9.559343	-0.180449	2.440725	0.021796	0.029321	0.054907	1.000000	0.000018	0.000024	0.000013	-4.932345	-75.518439	-1.687193
58327	9.549365	-0.202654	2.416380	0.040502	0.004794	0.039656	1.000000	0.000033	0.000015	0.000023	-4.939717	-75.517292	-1.676729
58328	9.539615	-0.182910	2.426969	0.030603	0.025853	0.032427	1.000000	0.000025	0.000024	0.000015	-4.942378	-75.513868	-1.673695
58329	9.549140	-0.203049	2.417237	0.040462	0.004844	0.039656	1.000000	0.000025	0.000024	0.000015	-4.946780	-75.511668	-1.667178
58330	9.569950	-0.167379	2.425562	0.040171	0.041110	0.061117	1.000000	0.000017	0.000014	0.000018	-4.947656	-75.521011	-1.661353
58331	9.578303	-0.179522	2.457372	0.010733	0.032884	0.077389	1.000000	0.000029	0.000040	0.000021	-4.953601	-75.517055	-1.652725
58332	9.559796	-0.189821	2.401911	0.058912	0.016572	0.045871	1.000000	0.000019	0.000016	0.000011	-4.955486	-75.514824	-1.651507
58333	9.558550	-0.181853	2.443727	0.019499	0.029424	0.054911	1.000000	0.000034	0.000017	0.000016	-4.959432	-75.513510	-1.644371
58334	9.538941	-0.183996	2.429535	0.028471	0.025880	0.032433	1.000000	0.000019	0.000016	0.000011	-4.961022	-75.510837	-1.643580
58335	9.556987	-0.215967	2.450952	0.009017	-0.003416	0.055936	1.000000	0.000027	0.000017	0.000013	-4.964762	-75.509561	-1.637565
58336	9.548402	-0.204319	2.420045	0.037120	0.005376	0.039669	1.000000	0.000031	0.000022	0.000025	-4.982590	-75.513888	-1.630174
58337	9.569221	-0.168729	2.428345	0.038606	0.041855	0.061120	1.000000	0.000017	0.000014	0.000018	-4.989670	-75.512923	-1.621915
58338	9.558075	-0.182765	2.445516	0.017493	0.030326	0.054912	1.000000	0.000035	0.000027	0.000011	-4.995448	-75.513676	-1.622112
58339	9.569027	-0.168932	2.429096	0.037806	0.042203	0.061122	1.000000	0.000021	0.000009	0.000009	-4.998497	-75.513413	-1.617647
58340	9.578602	-0.189251	2.419160	0.045343	0.021323	0.068368	1.000000	0.000020	0.000017	0.000036	-5.014908	-75.525325	-1.603626
58341	9.558966	-0.191594	2.405073	0.054049	0.017874	0.045896	1.000000	0.000042	0.000027	0.000013	-5.016576	-75.522998	-1.598107
58342	9.567329	-0.203541	2.436800	0.024709	0.009819	0.062154	1.000000	0.000019	0.000016	0.000011	-5.023724	-75.521196	-1.599705
58343	9.547733	-0.205825	2.422553	0.033420	0.006371	0.039682	1.000000	0.000023	0.000012	0.000028	-5.034661	-75.520470	-1.586926
58344	9.557505	-0.184050	2.447646	0.015526	0.031075	0.054913	1.000000	0.000035	0.000027	0.000011	-5.037131	-75.511864	-1.587730
58345	9.546323	-0.198035	2.464925	-0.005071	0.019368	0.048700	1.000000	0.000033	0.000025	0.000018	-5.042123	-75.509714	-1.579978
58346	9.597455	-0.188347	2.436228	0.038251	0.025322	0.090833	1.000000	0.000027	0.000027	0.000008	-5.040738	-75.498876	-1.581720
58347	9.538810	-0.194695	2.392998	0.064700	0.014808	0.023411	1.000000	0.000021	0.000009	0.000035	-5.055158	-75.498196	-1.565615
58348	9.548612	-0.173029	2.417959	0.045055	0.039573	0.038651	1.000000	0.000019	0.000016	0.000011	-5.060204	-75.501137	-1.564487
58349	9.566629	-0.205011	2.439423	0.025556	0.010321	0.062151	1.000000	0.000050	0.000018	0.000021	-5.065032	-75.499683	-1.554965
58350	9.556912	-0.185062	2.449883	0.014121	0.031305	0.054914	1.000000	0.000015	0.000011	-0.000000	-5.059367	-75.507114	-1.555855
58351	9.548369	-0.173325	2.418896	0.043301	0.039644	0.038658	1.000000	0.000023	0.000022	0.000022	-5.067615	-75.505224	-1.545897
58352	9.577402	-0.191470	2.423733	0.011178	-0.003073	0.068489	1.000000	0.000035	0.000027	0.000011	-4.452803	-75.691292	-2.557417
58353	9.548124	-0.173751	2.419832	0.009899	0.014435	0.038818	1.000000	0.000029	0.000020	0.000032	-4.459686	-75.691163	-2.550133
58354	9.556506	-0.185943	2.451399	-0.019954	0.006213	0.054952	1.000000	0.000019	0.000006	0.000016	-4.460795	-75.692675	-2.542658
58355	9.556422	-0.186152	2.451713	-0.020377	0.006088	0.054951	1.000000	0.000048	0.000025	0.000023	-4.461217	-75.692004	-2.539807
58356	9.547608	-0.216427	2.386048	0.037087	-0.031851	0.030813	1.000000	0.000027	0.000027	0.000008	-4.457649	-75.691318	-2.548144
58357	9.565820	-0.206327	2.442480	-0.011460	-0.015329	0.062171	1.000000	0.000019	0.000016	0.000011	-4.456398	-75.691782	-2.550395
58358	9.546437	-0.166556	2.463184	-0.031403	0.026906	0.047727	1.000000	0.000031	0.000022	0.000025	-4.459829	-75.691400	-2.545603
58359	9.546083	-0.208735	2.428798	-0.003383	-0.019122	0.039721	1.000000	0.000020	0.000026	0.000006	-4.455811	-75.690767	-2.550680
58360	9.555821	-0.186736	2.454010	-0.022416	0.005469	0.054947	1.000000	0.000027	0.000027	0.000008	-4.451902	-75.689658	-2.554345
58361	9.565360	-0.206953	2.444230	-0.013081	-0.015837	0.062168	1.000000	0.000023	0.000012	0.000028	-4.457838	-75.690478	-2.548736
58362	9.556836	-0.195321	2.413224	0.015925	-0.007890	0.046045	1.000000	0.000036	0.000019	0.000009	-4.453699	-75.690702	-2.550329
58363	9.544448	-0.201331	2.471909	-0.044226	-0.006508	0.048619	1.000000	0.000018	0.000025	0.000038	-4.464517	-75.689955	-2.540299
58364	9.565052	-0.207623	2.445378	-0.014370	-0.016204	0.062166	1.000000	0.000034	0.000016	-0.000009	-4.452447	-75.690620	-2.549318
58365	9.555278	-0.187645	2.456051	-0.024549	0.004854	0.054942	1.000000	0.000020	0.000037	0.000026	-4.457025	-75.688567	-2.545473
58366	9.556382	-0.196041	2.414962	0.014263	-0.008381	0.046047	1.000000	0.000038	0.000002	0.000012	-4.455164	-75.690493	-2.549886
58367	9.536809	-0.198170	2.400677	0.022765	-0.012053	0.023601	1.000000	0.000018	0.000024	0.000013	-4.454617	-75.690068	-2.551606
58368	9.586779	-0.180513	2.413427	0.024973	0.006540	0.074824	1.000000	0.000023	0.000022	0.000022	-4.458382	-75.690053	-2.551993
58369	9.535367	-0.190541	2.443020	-0.017325	0.000855	0.032493	1.000000	0.000023	0.000022	0.000022	-4.461550	-75.689775	-2.549212
58370	9.585364	-0.173010	2.455654	-0.015078	0.019434	0.083714	1.000000	0.000016	0.000012	0.000025	-4.467512	-75.690680	-2.544703
58371	9.546250	-0.177199	2.426966	0.002355	0.012215	0.038825	1.000000	0.000037	0.000029	0.000004	-4.460504	-75.689714	-2.550855
58372	9.575287	-0.195333	2.431769	0.002756	-0.005547	0.068493	1.000000	0.000016	0.000012	0.000025	-4.466348	-75.690522	-2.547259
58373	9.555668	-0.197668	2.417652	0.011261	-0.009220	0.046050	1.000000	0.000031	0.000032	0.000019	-4.466988	-75.689086	-2.546164
58374	9.564222	-0.167743	2.484162	-0.047008	0.028532	0.070152	1.000000	0.000017	0.000004	0.000023	-4.471906	-75.690733	-2.537855
58375	9.544634	-0.169971	2.469928	-0.038499	0.024862	0.047707	1.000000	0.000050	0.000028	0.000016	-4.468856	-75.689852	-2.538364
58376	9.566439	-0.184459	2.402061	0.030563	0.001985	0.052389	1.000000	0.000040	0.000025	0.000020	-4.468898	-75.689114	-2.533419
58377	9.556689	-0.164767	2.412628	0.020406	0.023050	0.045166	1.000000	0.000014	0.000019	0.000027	-4.475294	-75.689106	-2.528425
58378	9.545534	-0.178931	2.429656	-0.000545	0.011334	0.038827	1.000000	0.000012	0.000006	0.000014	-4.476588	-75.690719	-2.530435
58379	9.555318	-0.156878	2.454657	-0.019632	0.035950	0.054043	1.000000	0.000078	0.000026	0.000007	-4.466618	-75.690123	-2.534761
58380	9.575735	-0.205045	2.393236	0.038583	-0.019720	0.059620	1.000000	0.000068	0.000003	0.000023	-4.465371	-75.692084	-2.532407
58381	9.564600	-0.219131	2.410181	0.017626	-0.031433	0.053277	1.000000	0.000016	0.000012	0.000025	-4.471064	-75.692964	-2.527942
58382	9.536858	-0.167702	2.399327	0.027207	0.018869	0.022731	1.000000	0.000023	0.000012	0.000028	-4.477061	-75.693856	-2.523692
58383	9.555054	-0.157746	2.455631	-0.021346	0.035456	0.054042	1.000000	0.000042	0.000017	0.000018	-4.476537	-75.694133	-2.522516
58384	9.556194	-0.166185	2.414491	0.017421	0.022163	0.045174	1.000000	0.000040	0.000015	0.000026	-4.479461	-75.694661	-2.521642
58385	9.574160	-0.198429	2.435951	-0.002757	-0.007189	0.068492	1.000000	0.000014	0.000009	0.000032	-4.488631	-75.695748	-2.513816
58386	9.585175	-0.185321	2.419424	0.017391	0.004237	0.074841	1.000000	-0.000024	0.000018	0.000040	-4.504576	-75.695502	-2.495954
58387	9.542081	-0.207656	2.480510	-0.054355	-0.009426	0.048566	1.000000	0.000003	0.000045	0.000048	-4.520715	-75.692355	-2.482138
58388	9.544635	-0.182661	2.432906	-0.004733	0.010035	0.038827	1.000000	-0.000015	0.000010	0.000015	-4.524997	-75.693269	-2.478487
58389	9.531736	-0.272718	2.421862	-0.008133	-0.080393	0.025363	1.000000	0.000008	0.000021	0.000017	-4.527674	-75.693114	-2.477997
58390	9.553790	-0.245324	2.388857	0.032498	-0.057366	0.038068	1.000000	-0.000008	0.000038	0.000009	-4.527740	-75.691186	-2.479372
58391	9.563511	-0.223526	2.414096	0.013413	-0.032742	0.053280	1.000000	0.000001	0.000021	0.000015	-4.530174	-75.691094	-2.480026
58392	9.552296	-0.237333	2.431315	-0.007549	-0.044439	0.046925	1.000000	0.000033	0.000024	-0.000008	-4.518847	-75.690893	-2.487768
58393	9.531230	-0.272880	2.423833	-0.009852	-0.080889	0.025358	1.000000	0.000049	0.000017	-0.000004	-4.507207	-75.691436	-2.497191
58394	9.574302	-0.208944	2.398624	0.032689	-0.021533	0.059637	1.000000	0.000067	0.000030	-0.000012	-4.489966	-75.690459	-2.502523
58395	9.563347	-0.180371	2.450546	-0.016642	0.012717	0.061262	1.000000	0.000047	0.000004	0.000008	-4.484573	-75.692304	-2.505756
58396	9.534160	-0.162029	2.446370	-0.017820	0.030256	0.031598	1.000000	0.000068	0.000022	-0.000014	-4.466779	-75.692250	-2.514855
58397	9.584190	-0.143907	2.458956	-0.015605	0.048803	0.082829	1.000000	0.000053	0.000002	0.000018	-4.465100	-75.694240	-2.513587
58398	9.543905	-0.139829	2.471498	-0.037334	0.054782	0.046805	1.000000	0.000050	0.000018	0.000021	-4.465302	-75.694548	-2.513300
58399	9.543610	-0.182190	2.436959	-0.009390	0.008701	0.038825	1.000000	0.000032	0.000005	0.000028	-4.470785	-75.696190	-2.507074
58400	9.565791	-0.155117	2.403491	0.031269	0.031724	0.051551	1.000000	0.000012	0.000007	0.000039	-4.483730	-75.697447	-2.498850
58401	9.554358	-0.211752	2.385803	0.038666	-0.025932	0.037210	1.000000	0.000008	0.000022	0.000043	-4.497773	-75.696963	-2.486613
58402	9.573741	-0.210408	2.400737	0.029269	-0.022494	0.059646	1.000000	0.000004	0.000016	0.000031	-4.507759	-75.697335	-2.483884
58403	9.562460	-0.224564	2.418157	0.008304	-0.034183	0.053280	1.000000	0.000007	0.000049	0.000008	-4.505574	-75.694100	-2.488548
58404	9.569134	-0.270577	2.456982	-0.032457	-0.075071	0.070208	1.000000	0.000001	0.000032	0.000035	-4.516890	-75.692561	-2.482026
58405	9.573186	-0.211541	2.402851	0.027996	-0.022865	0.059649	1.000000	0.000024	0.000042	0.000012	-4.514496	-75.690090	-2.484925
58406	9.541129	-0.219197	2.447271	-0.023201	-0.024875	0.039682	1.000000	0.000033	0.000035	0.000012	-4.512144	-75.688441	-2.487680
58407	9.550845	-0.197019	2.472505	-0.042272	-0.000234	0.054884	1.000000	0.000033	0.000024	-0.000008	-4.500716	-75.688220	-2.498866
58408	9.531246	-0.198822	2.458393	-0.033770	-0.003871	0.032450	1.000000	0.000053	0.000022	0.000007	-4.494302	-75.688211	-2.509191
58409	9.552132	-0.162725	2.466649	-0.032291	0.032325	0.054023	1.000000	0.000042	0.000016	-0.000007	-4.482421	-75.688815	-2.519756
58410	9.553567	-0.128534	2.460202	-0.021833	0.064983	0.053165	1.000000	0.000051	0.000009	-0.000006	-4.470530	-75.690155	-2.531125
58411	9.534059	-0.130482	2.445728	-0.013294	0.061302	0.030734	1.000000	0.000043	-0.000000	0.000022	-4.472088	-75.692414	-2.527638
58412	9.546407	-0.125132	2.387645	0.046017	0.059504	0.028285	1.000000	0.000019	0.000016	0.000011	-4.471034	-75.692873	-2.530200
58413	9.564323	-0.156968	2.409203	0.025769	0.030173	0.051572	1.000000	0.000030	0.000011	0.000005	-4.465851	-75.693953	-2.535197
58414	9.533631	-0.172909	2.411750	0.013727	0.014957	0.022766	1.000000	0.000016	0.000022	0.000020	-4.469024	-75.693950	-2.538589
58415	9.562836	-0.149051	2.451482	-0.014289	0.043167	0.060395	1.000000	0.000008	0.000031	0.000012	-4.468919	-75.692697	-2.540941
58416	9.552856	-0.171514	2.427294	0.003913	0.018265	0.045196	1.000000	0.000012	0.000017	0.000034	-4.478802	-75.692957	-2.536628
58417	9.562592	-0.149990	2.452376	-0.015139	0.042920	0.060395	1.000000	0.000027	0.000028	0.000034	-4.486381	-75.691933	-2.528828
58418	9.572054	-0.170562	2.442905	-0.005900	0.021567	0.067626	1.000000	0.000018	0.000035	0.000033	-4.494242	-75.690114	-2.523800
58419	9.591438	-0.169133	2.457812	-0.015287	0.025003	0.090054	1.000000	0.000013	-0.000001	0.000038	-4.506191	-75.692292	-2.513140
58420	9.549641	-0.199507	2.476954	-0.047843	-0.001753	0.054858	1.000000	0.000031	0.000013	0.000056	-4.523480	-75.692682	-2.497600
58421	9.562013	-0.194649	2.418823	0.011461	-0.003605	0.052430	1.000000	0.000034	-0.000003	0.000027	-4.528280	-75.695209	-2.491885
58422	9.539722	-0.222572	2.452447	-0.030057	-0.026804	0.039658	1.000000	0.000032	0.000005	0.000028	-4.533378	-75.696792	-2.482682
58423	9.552112	-0.217317	2.394281	0.029246	-0.028660	0.037235	1.000000	0.000038	0.000002	0.000013	-4.531228	-75.698907	-2.483687
58424	9.522719	-0.241520	2.355255	0.056405	-0.057142	-0.000385	1.000000	0.000034	0.000017	0.000016	-4.530414	-75.699256	-2.488581
58425	9.551955	-0.217571	2.394883	0.028392	-0.028918	0.037237	1.000000	0.000025	0.000024	0.000015	-4.530098	-75.698767	-2.489173
58426	9.569754	-0.249354	2.416820	0.008101	-0.058236	0.060506	1.000000	0.000037	0.000039	-0.000002	-4.520176	-75.696685	-2.495597
58427	9.559964	-0.229368	2.427557	-0.001976	-0.037134	0.053273	1.000000	0.000022	0.000030	0.000024	-4.524030	-75.695514	-2.492308
58428	9.559815	-0.229401	2.428142	-0.002391	-0.037258	0.053272	1.000000	0.000016	0.000031	-0.000011	-4.512823	-75.694476	-2.502810
58429	9.582207	-0.159574	2.429792	0.010026	0.031675	0.074018	1.000000	0.000012	0.000026	0.000003	-4.508540	-75.693905	-2.509053
58430	9.558477	-0.178824	2.505411	-0.070677	0.021801	0.070028	1.000000	0.000018	0.000034	0.000007	-4.505406	-75.692380	-2.517162
58431	9.611029	-0.177713	2.435382	0.009854	0.013764	0.103676	1.000000	0.000012	0.000016	0.000008	-4.503905	-75.692904	-2.520564
58432	9.559562	-0.187400	2.464745	-0.032364	0.008288	0.061228	1.000000	0.000017	0.000014	0.000018	-4.506324	-75.693644	-2.522343
58433	9.531692	-0.178024	2.419031	0.005718	0.012546	0.022777	1.000000	0.000023	0.000012	0.000028	-4.512267	-75.694456	-2.516733
58434	9.550914	-0.218507	2.398946	0.024567	-0.030043	0.037244	1.000000	0.000036	-0.000011	0.000025	-4.516461	-75.697894	-2.511966
58435	9.563313	-0.213326	2.340865	0.083870	-0.031952	0.034854	1.000000	0.000048	0.000025	0.000023	-4.516884	-75.697218	-2.509119
58436	9.561910	-0.205173	2.382726	0.044278	-0.018784	0.043645	1.000000	0.000034	0.000017	0.000016	-4.516325	-75.697536	-2.514174
58437	9.560251	-0.238961	2.389977	0.032923	-0.051653	0.044480	1.000000	0.000061	0.000033	0.000004	-4.506565	-75.696178	-2.520265
58438	9.550455	-0.218705	2.400756	0.022850	-0.030530	0.037247	1.000000	0.000067	0.000041	0.000008	-4.498012	-75.693981	-2.523179
58439	9.580870	-0.202835	2.399389	0.034008	-0.015588	0.066072	1.000000	0.000048	0.000045	0.000012	-4.492870	-75.691114	-2.526013
58440	9.547407	-0.201917	2.485354	-0.056345	-0.004151	0.054812	1.000000	0.000041	0.000045	0.000010	-4.487882	-75.688389	-2.533729
58441	9.558341	-0.188139	2.469422	-0.036206	0.007225	0.061215	1.000000	0.000033	0.000045	0.000007	-4.482250	-75.685646	-2.538853
58442	9.567980	-0.165906	2.494862	-0.055225	0.031918	0.076400	1.000000	0.000029	0.000039	-0.000004	-4.472421	-75.683614	-2.547646
58443	9.528932	-0.169885	2.466129	-0.037686	0.024658	0.031558	1.000000	0.000006	0.000008	0.000004	-4.469979	-75.685088	-2.552716
58444	9.577458	-0.185929	2.485376	-0.046448	0.010445	0.083630	1.000000	0.000023	0.000001	0.000008	-4.467572	-75.687305	-2.559449
58445	9.559515	-0.154263	2.464082	-0.026940	0.039486	0.060384	1.000000	0.000012	0.000006	0.000014	-4.468849	-75.688923	-2.560016
58446	9.549658	-0.176629	2.439479	-0.008761	0.014552	0.045199	1.000000	0.000011	-0.000004	0.000019	-4.472994	-75.691613	-2.555154
58447	9.542652	-0.173396	2.366721	0.059528	0.009024	0.020420	1.000000	0.000023	0.000011	0.000002	-4.467568	-75.692755	-2.561294
58448	9.550883	-0.185145	2.398400	0.029571	0.000976	0.036429	1.000000	0.000034	0.000017	0.000016	-4.466771	-75.693001	-2.558526
58449	9.541173	-0.165139	2.408788	0.019538	0.022094	0.029194	1.000000	0.000036	0.000019	0.000009	-4.462533	-75.693130	-2.561853
58450	9.541058	-0.165154	2.409243	0.019121	0.021968	0.029196	1.000000	0.000035	0.000027	0.000011	-4.458983	-75.692342	-2.563692
58451	9.540882	-0.165159	2.409939	0.018700	0.021841	0.029197	1.000000	0.000033	0.000045	0.000007	-4.453353	-75.689598	-2.568815
58452	9.568433	-0.175009	2.456735	-0.020243	0.017361	0.067615	1.000000	0.000020	0.000037	0.000026	-4.457690	-75.687408	-2.561519
58453	9.568242	-0.175182	2.457465	-0.020666	0.017237	0.067614	1.000000	0.000050	0.000038	0.000010	-4.451861	-75.685429	-2.564867
58454	9.577702	-0.195237	2.448068	-0.011490	-0.004137	0.074850	1.000000	0.000012	0.000026	0.000003	-4.447519	-75.684886	-2.570493
58455	9.566431	-0.209177	2.465241	-0.032481	-0.015744	0.068429	1.000000	0.000015	0.000012	0.000025	-4.453208	-75.685760	-2.566038
58456	9.577516	-0.195788	2.448753	-0.012332	-0.004387	0.074849	1.000000	0.000008	0.000021	0.000017	-4.455849	-75.685558	-2.567773
58457	9.557963	-0.198106	2.434497	-0.003765	-0.008084	0.052433	1.000000	0.000025	0.000014	0.000021	-4.458313	-75.686163	-2.565528
58458	9.528607	-0.222501	2.395477	0.023404	-0.036606	0.014840	1.000000	0.000012	0.000006	0.000014	-4.459437	-75.687745	-2.558960
58459	9.578586	-0.204918	2.408316	0.025560	-0.018112	0.066093	1.000000	0.000014	0.000039	0.000016	-4.460258	-75.685539	-2.559662
58460	9.538208	-0.200684	2.421015	0.003966	-0.012035	0.030018	1.000000	0.000015	0.000011	-0.000000	-4.454646	-75.686729	-2.567804
58461	9.528532	-0.180763	2.431245	-0.006052	0.009090	0.022781	1.000000	0.000015	0.000012	0.000025	-4.460336	-75.687602	-2.563348
58462	9.539618	-0.167318	2.414787	0.014098	0.020440	0.029207	1.000000	0.000025	0.000024	0.000015	-4.459995	-75.687089	-2.560199
58463	9.549111	-0.187576	2.405256	0.023270	-0.000938	0.036446	1.000000	0.000033	0.000025	0.000018	-4.459926	-75.686535	-2.559646
58464	9.568445	-0.185793	2.420325	0.013830	0.002514	0.058859	1.000000	0.000031	0.000022	0.000025	-4.463464	-75.686301	-2.557442
58465	9.557380	-0.157541	2.472141	-0.035341	0.036996	0.060367	1.000000	0.000034	0.000017	0.000016	-4.462702	-75.686637	-2.557408
58466	9.568254	-0.186254	2.421044	0.012986	0.002260	0.058861	1.000000	0.000055	0.000016	0.000031	-4.466139	-75.686975	-2.551879
58467	9.586037	-0.218423	2.442821	-0.007422	-0.027015	0.082079	1.000000	0.000029	0.000020	0.000032	-4.473017	-75.686833	-2.544611
58468	9.558248	-0.209284	2.397022	0.030729	-0.022822	0.043689	1.000000	0.000038	0.000003	0.000038	-4.482277	-75.688571	-2.538085
58469	9.566466	-0.221222	2.428602	0.000731	-0.030838	0.059667	1.000000	0.000045	0.000012	0.000010	-4.477598	-75.689527	-2.540780
58470	9.577554	-0.207516	2.412192	0.020878	-0.019499	0.066101	1.000000	0.000050	0.000028	0.000016	-4.474571	-75.688648	-2.538516
58471	9.566228	-0.221357	2.429530	-0.000120	-0.031088	0.059666	1.000000	0.000040	0.000025	0.000020	-4.474747	-75.688032	-2.536819
58472	9.586873	-0.227728	2.403359	0.029600	-0.041005	0.073341	1.000000	0.000037	0.000039	-0.000002	-4.465111	-75.685991	-2.548016
58473	9.526991	-0.225417	2.401627	0.017032	-0.038482	0.014846	1.000000	0.000016	0.000032	0.000014	-4.465233	-75.684673	-2.549244
58474	9.548062	-0.147403	2.444730	-0.009555	0.043792	0.044387	1.000000	0.000011	0.000044	-0.000001	-4.459095	-75.682165	-2.558295
58475	9.546297	-0.181345	2.452252	-0.020979	0.010950	0.045186	1.000000	0.000007	0.000029	0.000019	-4.462443	-75.681115	-2.557313
58476	9.555982	-0.159449	2.477419	-0.039971	0.035672	0.060354	1.000000	-0.000014	0.000030	0.000004	-4.461722	-75.680019	-2.565655
58477	9.546011	-0.181651	2.453342	-0.021818	0.010710	0.045184	1.000000	-0.000003	0.000025	-0.000002	-4.456938	-75.679570	-2.574197
58478	9.557095	-0.168074	2.436977	-0.001657	0.022039	0.051627	1.000000	0.000008	0.000021	0.000017	-4.459647	-75.679369	-2.573258
58479	9.536189	-0.161956	2.464109	-0.032221	0.031728	0.037943	1.000000	0.000010	0.000014	0.000016	-4.461614	-75.680097	-2.573310
58480	9.576390	-0.166472	2.452158	-0.011502	0.025367	0.074034	1.000000	0.000028	0.000009	0.000012	-4.459939	-75.681341	-2.576635
58481	9.516648	-0.164158	2.449847	-0.024045	0.027905	0.015534	1.000000	0.000040	0.000004	0.000005	-4.454325	-75.683248	-2.580991
58482	9.568106	-0.154712	2.420895	0.017252	0.032979	0.058075	1.000000	0.000064	-0.000002	0.000011	-4.448631	-75.685779	-2.578680
58483	9.577696	-0.174828	2.411008	0.026389	0.011587	0.065316	1.000000	0.000051	0.000010	0.000019	-4.447678	-75.686878	-2.576868
58484	9.547215	-0.148524	2.447967	-0.013707	0.042543	0.044387	1.000000	0.000057	0.000008	0.000029	-4.450302	-75.688005	-2.572653
58485	9.576216	-0.166705	2.452823	-0.013585	0.024730	0.074033	1.000000	0.000045	0.000012	0.000010	-4.445624	-75.688960	-2.575347
58486	9.559666	-0.143537	2.390228	0.045183	0.040320	0.042125	1.000000	0.000055	0.000016	0.000031	-4.448910	-75.689285	-2.568074
58487	9.557987	-0.177643	2.397382	0.033734	0.007484	0.042916	1.000000	0.000032	0.000015	0.000023	-4.451623	-75.689824	-2.564683
58488	9.535458	-0.205423	2.431431	-0.007860	-0.015528	0.030011	1.000000	0.000020	0.000027	0.000031	-4.458730	-75.688912	-2.554470
58489	9.565987	-0.190158	2.429686	0.003281	-0.000636	0.058869	1.000000	0.000014	0.000019	0.000027	-4.465108	-75.688893	-2.549502
58490	9.544844	-0.226504	2.422252	0.000850	-0.037060	0.037251	1.000000	-0.000011	0.000016	0.000026	-4.473945	-75.689220	-2.542954
58491	9.575372	-0.211070	2.420532	0.011989	-0.022169	0.066110	1.000000	0.000010	0.000034	0.000005	-4.470336	-75.687758	-2.548696
58492	9.544562	-0.227066	2.423308	0.000005	-0.037318	0.037250	1.000000	0.000012	0.000027	0.000029	-4.477211	-75.686838	-2.539176
58493	9.534847	-0.207233	2.433672	-0.009967	-0.016172	0.030008	1.000000	-0.000011	0.000015	0.000001	-4.474953	-75.687547	-2.546033
58494	9.545962	-0.193583	2.417251	0.010185	-0.004863	0.036467	1.000000	0.000020	0.000026	0.000006	-4.470898	-75.686949	-2.552237
58495	9.544464	-0.185112	2.459097	-0.029383	0.008432	0.045167	1.000000	0.000021	0.000019	0.000004	-4.466163	-75.687202	-2.557859
58496	9.555585	-0.171320	2.442667	-0.009220	0.019735	0.051627	1.000000	0.000023	0.000021	-0.000003	-4.457853	-75.687229	-2.565949
58497	9.547308	-0.159616	2.411448	0.019962	0.027459	0.035688	1.000000	0.000038	0.000002	0.000013	-4.455716	-75.689341	-2.566946
58498	9.547256	-0.159727	2.411648	0.019546	0.027328	0.035690	1.000000	0.000049	0.000018	0.000021	-4.455346	-75.689524	-2.565456
58499	9.566619	-0.158046	2.426551	0.010101	0.030783	0.058092	1.000000	0.000021	0.000010	0.000035	-4.464762	-75.690537	-2.556495
58500	9.564906	-0.192149	2.433782	-0.001375	-0.002051	0.058869	1.000000	0.000042	0.000027	0.000013	-4.461327	-75.689737	-2.559147
58501	9.564787	-0.192473	2.434221	-0.001799	-0.002176	0.058869	1.000000	0.000019	0.000017	0.000036	-4.471430	-75.689860	-2.549672
58502	9.556455	-0.181387	2.403203	0.027395	0.005531	0.042937	1.000000	0.000020	0.000027	0.000031	-4.478617	-75.688850	-2.548841
58503	9.574101	-0.213595	2.425336	0.006887	-0.023711	0.066112	1.000000	0.000027	0.000038	0.000028	-4.483391	-75.686721	-2.543910
58504	9.564094	-0.236144	2.401413	0.025010	-0.048706	0.050956	1.000000	0.000029	0.000030	0.000026	-4.487346	-75.685503	-2.539691
58505	9.564179	-0.194133	2.436479	-0.003493	-0.002688	0.058868	1.000000	0.000033	0.000025	0.000018	-4.487272	-75.684948	-2.539145
58506	9.562424	-0.228102	2.443836	-0.014994	-0.035509	0.059639	1.000000	0.000025	0.000024	0.000015	-4.486928	-75.684521	-2.540910
58507	9.542861	-0.230328	2.429691	-0.006391	-0.039218	0.037240	1.000000	0.000048	0.000025	0.000023	-4.487354	-75.683840	-2.538066
58508	9.563782	-0.194458	2.438008	-0.004780	-0.003063	0.058868	1.000000	0.000031	0.000031	-0.000006	-4.476600	-75.682755	-2.548045
58509	9.532998	-0.210095	2.440657	-0.016763	-0.018184	0.029995	1.000000	0.000019	0.000016	0.000011	-4.475340	-75.683213	-2.550310
58510	9.553974	-0.174294	2.448751	-0.015136	0.017969	0.051623	1.000000	0.000014	0.000018	0.000001	-4.470323	-75.683483	-2.558082
58511	9.532819	-0.210096	2.441356	-0.017602	-0.018433	0.029993	1.000000	0.000021	0.000019	0.000004	-4.465588	-75.683736	-2.563704
58512	9.545617	-0.162580	2.417936	0.013648	0.025540	0.035704	1.000000	0.000015	0.000011	-0.000000	-4.459881	-75.684906	-2.569497
58513	9.563342	-0.194274	2.439751	-0.006886	-0.003692	0.058866	1.000000	0.000021	0.000019	0.000004	-4.455146	-75.685159	-2.575120
58514	9.545483	-0.162615	2.418464	0.012806	0.025289	0.035706	1.000000	0.000011	0.000006	0.000014	-4.456447	-75.686775	-2.577611
58515	9.553602	-0.174174	2.450210	-0.017242	0.017348	0.051621	1.000000	0.000018	0.000023	-0.000013	-4.444510	-75.686680	-2.591101
58516	9.555134	-0.140517	2.443712	-0.006577	0.049909	0.050858	1.000000	0.000019	0.000017	0.000036	-4.454531	-75.686791	-2.580925
58517	9.555021	-0.140829	2.444139	-0.006997	0.049785	0.050859	1.000000	0.000027	0.000027	0.000008	-4.450732	-75.686092	-2.584886
58518	9.595188	-0.145410	2.432440	0.013651	0.043349	0.086983	1.000000	0.000040	0.000015	0.000026	-4.453559	-75.686524	-2.583540
58519	9.564442	-0.161478	2.434893	0.001672	0.028238	0.058104	1.000000	0.000030	0.000012	0.000030	-4.459750	-75.687267	-2.576791
58520	9.553146	-0.175544	2.451890	-0.019341	0.016708	0.051618	1.000000	0.000032	0.000005	0.000028	-4.465032	-75.688878	-2.569591
58521	9.564346	-0.162361	2.435212	0.000831	0.027978	0.058105	1.000000	0.000021	0.000010	0.000035	-4.474450	-75.689887	-2.560631
58522	9.562625	-0.196501	2.442379	-0.010689	-0.004843	0.058862	1.000000	0.000034	0.000017	0.000016	-4.473446	-75.690209	-2.560215
58523	9.554370	-0.185254	2.411184	0.018523	0.002835	0.042959	1.000000	0.000036	0.000010	0.000040	-4.483368	-75.691093	-2.548954
58524	9.523621	-0.201301	2.413630	0.006549	-0.012280	0.014077	1.000000	0.000019	0.000016	0.000011	-4.481893	-75.691530	-2.553412
58525	9.563822	-0.205784	2.401815	0.027171	-0.018722	0.050206	1.000000	0.000045	0.000012	0.000010	-4.477225	-75.692486	-2.556099
58526	9.531627	-0.213016	2.445755	-0.023927	-0.020340	0.029976	1.000000	0.000033	0.000025	0.000018	-4.476871	-75.691873	-2.554812
58527	9.544180	-0.208079	2.388016	0.035375	-0.022577	0.027817	1.000000	0.000025	0.000024	0.000015	-4.476544	-75.691379	-2.555419
58528	9.562053	-0.197656	2.444526	-0.013221	-0.005618	0.058859	1.000000	0.000018	0.000024	0.000013	-4.475825	-75.690939	-2.559347
58529	9.542522	-0.199766	2.430293	-0.004600	-0.009333	0.036468	1.000000	0.000021	0.000019	0.000004	-4.471085	-75.691193	-2.564974
58530	9.563511	-0.163898	2.438387	-0.002952	0.026808	0.058108	1.000000	0.000014	0.000018	0.000001	-4.465981	-75.691511	-2.574916
58531	9.563405	-0.163955	2.438797	-0.003374	0.026683	0.058108	1.000000	0.000018	0.000024	0.000013	-4.465401	-75.691079	-2.576673
58532	9.572935	-0.184425	2.429134	0.005677	0.005253	0.065355	1.000000	0.000008	0.000001	0.000028	-4.473518	-75.693129	-2.574223
58533	9.552026	-0.178243	2.456055	-0.024823	0.015054	0.051609	1.000000	0.000034	0.000017	0.000016	-4.472760	-75.693462	-2.574190
58534	9.553342	-0.187031	2.415119	0.013884	0.001398	0.042967	1.000000	0.000014	0.000029	0.000021	-4.476118	-75.692307	-2.573354
58535	9.554892	-0.153553	2.408621	0.024592	0.033947	0.042222	1.000000	0.000025	0.000014	0.000021	-4.478584	-75.692907	-2.571112
58536	9.551469	-0.221493	2.422806	0.001906	-0.031538	0.043712	1.000000	0.000029	0.000020	0.000032	-4.485200	-75.692764	-2.558902
58537	9.572417	-0.186014	2.431054	0.003562	0.004604	0.065356	1.000000	0.000039	0.000033	0.000022	-4.486058	-75.691255	-2.556700
58538	9.562474	-0.208539	2.406942	0.021669	-0.020431	0.050217	1.000000	0.000030	0.000012	0.000030	-4.492003	-75.691932	-2.551193
58539	9.552747	-0.188504	2.417355	0.011777	0.000748	0.042970	1.000000	0.000044	0.000040	0.000001	-4.482429	-75.689810	-2.559071
58540	9.560715	-0.200109	2.449556	-0.018309	-0.007157	0.058850	1.000000	0.000046	0.000033	0.000024	-4.483395	-75.688273	-2.555374
58541	9.552437	-0.188716	2.418562	0.010925	0.000491	0.042971	1.000000	0.000034	0.000017	0.000016	-4.482637	-75.688605	-2.555341
58542	9.579870	-0.198434	2.465201	-0.028209	-0.003818	0.081234	1.000000	0.000039	0.000033	0.000022	-4.483303	-75.687075	-2.554329
58543	9.540910	-0.202713	2.436373	-0.010523	-0.011132	0.036461	1.000000	0.000034	0.000017	0.000016	-4.482545	-75.687406	-2.554296
58544	9.548978	-0.214329	2.468150	-0.040610	-0.019030	0.052335	1.000000	0.000030	0.000011	0.000005	-4.477224	-75.688498	-2.558119
58545	9.550603	-0.180561	2.461413	-0.029886	0.013517	0.051597	1.000000	0.000028	0.000009	0.000012	-4.475532	-75.689783	-2.559745
58546	9.540695	-0.202809	2.437207	-0.011789	-0.011517	0.036459	1.000000	0.000012	0.000026	0.000003	-4.471076	-75.689163	-2.568491
58547	9.531052	-0.182649	2.447285	-0.021665	0.009669	0.029210	1.000000	0.000024	-0.000007	0.000006	-4.467768	-75.692289	-2.572286
58548	9.563169	-0.175617	2.403834	0.028573	0.010942	0.049489	1.000000	0.000019	0.000016	0.000011	-4.466415	-75.692773	-2.574163
58549	9.551759	-0.189481	2.421179	0.007543	-0.000539	0.042974	1.000000	0.000005	0.000037	0.000021	-4.470418	-75.690828	-2.572701
58550	9.561458	-0.167424	2.446186	-0.011379	0.024235	0.058109	1.000000	0.000023	0.000011	0.000002	-4.464809	-75.691909	-2.577142
58551	9.561387	-0.167452	2.446460	-0.011802	0.024111	0.058108	1.000000	0.000027	0.000017	0.000013	-4.463797	-75.692303	-2.578261
58552	9.551681	-0.147377	2.456772	-0.021667	0.045289	0.050859	1.000000	0.000042	0.000027	0.000013	-4.460278	-75.691440	-2.576404
58553	9.551574	-0.147534	2.457181	-0.022088	0.045165	0.050859	1.000000	0.000025	0.000014	0.000021	-4.462744	-75.692038	-2.574164
58554	9.561070	-0.167987	2.447660	-0.013058	0.023716	0.058108	1.000000	0.000023	0.000022	0.000022	-4.465646	-75.691709	-2.573205
58555	9.559272	-0.201920	2.455032	-0.024647	-0.009071	0.058835	1.000000	0.000044	0.000020	0.000011	-4.461664	-75.691774	-2.575381
58556	9.541452	-0.170510	2.433779	-0.004841	0.019867	0.035726	1.000000	0.000034	0.000018	0.000041	-4.472183	-75.691793	-2.568534
58557	9.570372	-0.188906	2.438868	-0.004891	0.002023	0.065357	1.000000	0.000030	0.000011	0.000005	-4.467014	-75.692873	-2.573520
58558	9.531486	-0.193122	2.409794	0.012820	-0.005309	0.020595	1.000000	0.000032	0.000015	0.000023	-4.469510	-75.693393	-2.571624
58559	9.558935	-0.202908	2.456262	-0.026348	-0.009577	0.058830	1.000000	0.000032	0.000015	0.000023	-4.472229	-75.693928	-2.568232
58560	9.550717	-0.191652	2.425118	0.002914	-0.001972	0.042976	1.000000	0.000023	0.000022	0.000022	-4.475122	-75.693592	-2.565028
58561	9.571509	-0.198344	2.398744	0.032534	-0.012079	0.056755	1.000000	0.000030	0.000011	0.000005	-4.469952	-75.694672	-2.570015
58562	9.558619	-0.203419	2.457450	-0.027610	-0.009969	0.058826	1.000000	0.000014	0.000039	0.000016	-4.470502	-75.692433	-2.570265
58563	9.560182	-0.169900	2.450995	-0.016849	0.022564	0.058105	1.000000	0.000025	0.000014	0.000021	-4.472968	-75.693030	-2.568025
58564	9.550298	-0.192229	2.426718	0.001224	-0.002489	0.042976	1.000000	0.000030	0.000011	0.000005	-4.467639	-75.694115	-2.574696
58565	9.559804	-0.212516	2.417179	0.010225	-0.023937	0.050227	1.000000	0.000008	0.000021	0.000017	-4.470276	-75.693948	-2.574255
58566	9.571211	-0.156738	2.435166	0.002506	0.033505	0.064637	1.000000	0.000010	0.000024	0.000010	-4.469200	-75.693523	-2.575998
58567	9.549979	-0.192717	2.427938	-0.000036	-0.002875	0.042976	1.000000	0.000025	0.000024	0.000015	-4.468867	-75.693026	-2.576612
58568	9.561152	-0.179288	2.411574	0.020149	0.008323	0.049512	1.000000	0.000025	0.000024	0.000015	-4.468395	-75.692565	-2.577731
58569	9.590018	-0.197584	2.416876	0.020070	-0.009527	0.079142	1.000000	0.000033	0.000025	0.000018	-4.468316	-75.692006	-2.577193
58570	9.549578	-0.193184	2.429474	-0.001307	-0.003266	0.042976	1.000000	0.000033	0.000035	0.000012	-4.465198	-75.690321	-2.576852
58571	9.560770	-0.179666	2.413060	0.018885	0.007934	0.049515	1.000000	0.000021	0.000009	0.000009	-4.463253	-75.691667	-2.579630
58572	9.559173	-0.171187	2.454839	-0.020643	0.021404	0.058100	1.000000	0.000046	0.000033	0.000024	-4.464152	-75.690078	-2.577463
58573	9.558802	-0.213885	2.421014	0.006837	-0.024978	0.050228	1.000000	0.000038	0.000023	0.000027	-4.467805	-75.689659	-2.572414
58574	9.528195	-0.187294	2.458033	-0.033027	0.006223	0.029181	1.000000	0.000027	0.000027	0.000008	-4.463797	-75.688958	-2.576002
58575	9.568341	-0.192024	2.446581	-0.012501	-0.000306	0.065350	1.000000	0.000029	0.000030	0.000026	-4.467873	-75.687712	-2.571602
58576	9.566460	-0.226075	2.454184	-0.024128	-0.033086	0.066058	1.000000	0.000024	0.000032	0.000017	-4.468025	-75.686271	-2.574151
58577	9.548640	-0.194551	2.433051	-0.004260	-0.004166	0.042975	1.000000	0.000025	0.000024	0.000015	-4.467692	-75.685774	-2.574766
58578	9.556614	-0.206159	2.465007	-0.034381	-0.012012	0.058802	1.000000	0.000036	0.000019	0.000009	-4.463288	-75.685883	-2.576042
58579	9.567848	-0.192842	2.448446	-0.014186	-0.000820	0.065348	1.000000	0.000006	0.000009	0.000030	-4.472198	-75.687012	-2.569392
58580	9.569281	-0.201827	2.407330	0.024502	-0.014575	0.056775	1.000000	0.000019	0.000016	0.000011	-4.470739	-75.687416	-2.569980
58581	9.548309	-0.195263	2.434293	-0.005942	-0.004682	0.042974	1.000000	0.000045	0.000012	0.000010	-4.466083	-75.688370	-2.572657
58582	9.559548	-0.181731	2.417740	0.014263	0.006498	0.049524	1.000000	0.000027	0.000017	0.000013	-4.464938	-75.688717	-2.577123
58583	9.540064	-0.183843	2.403406	0.022924	0.002767	0.027152	1.000000	0.000029	0.000019	0.000006	-4.460449	-75.688907	-2.581602
58584	9.569172	-0.159526	2.442985	-0.005062	0.031179	0.064644	1.000000	0.000029	0.000019	0.000006	-4.455782	-75.689088	-2.586535
58585	9.559272	-0.181831	2.418824	0.012995	0.006113	0.049526	1.000000	0.000034	0.000017	0.000016	-4.455025	-75.689418	-2.586503
58586	9.568998	-0.159785	2.443647	-0.005910	0.030922	0.064644	1.000000	0.000017	0.000014	0.000018	-4.457080	-75.690088	-2.583313
58587	9.560831	-0.148647	2.412457	0.023378	0.038496	0.048829	1.000000	0.000044	0.000021	0.000037	-4.464465	-75.689808	-2.573753
58588	9.597782	-0.178598	2.449220	-0.006447	0.012929	0.094269	1.000000	0.000019	0.000016	0.000011	-4.462929	-75.690221	-2.574884
58589	9.537985	-0.176159	2.446931	-0.018704	0.015627	0.035717	1.000000	0.000027	0.000027	0.000008	-4.459116	-75.689521	-2.578861
58590	9.558767	-0.182944	2.420734	0.010892	0.005453	0.049529	1.000000	0.000016	0.000022	0.000020	-4.461703	-75.689236	-2.576093
58591	9.537759	-0.176543	2.447784	-0.019539	0.015366	0.035716	1.000000	0.000042	0.000017	0.000019	-4.461201	-75.689503	-2.574908
58592	9.558561	-0.183408	2.421513	0.010056	0.005190	0.049530	1.000000	0.000031	0.000022	0.000025	-4.464361	-75.689087	-2.574837
58593	9.558481	-0.183692	2.421807	0.009633	0.005064	0.049530	1.000000	0.000034	0.000007	0.000021	-4.466406	-75.690510	-2.571949
58594	9.538995	-0.186048	2.407476	0.018306	0.001321	0.027162	1.000000	0.000022	0.000030	0.000024	-4.469980	-75.689307	-2.566679
58595	9.575926	-0.215905	2.444271	-0.011552	-0.024226	0.072590	1.000000	0.000021	0.000009	0.000009	-4.468037	-75.690652	-2.569457
58596	9.538827	-0.186382	2.408117	0.017468	0.001059	0.027164	1.000000	0.000049	0.000018	0.000021	-4.467551	-75.690811	-2.566194
58597	9.566170	-0.196049	2.454738	-0.021771	-0.003144	0.065334	1.000000	0.000008	0.000021	0.000017	-4.470179	-75.690642	-2.565762
58598	9.557992	-0.184706	2.423662	0.007532	0.004407	0.049532	1.000000	0.000027	0.000027	0.000008	-4.466167	-75.689913	-2.568926
58599	9.565917	-0.196298	2.455705	-0.022615	-0.003401	0.065332	1.000000	0.000025	0.000024	0.000015	-4.465829	-75.689415	-2.569546
58600	9.536844	-0.178302	2.451218	-0.023307	0.014202	0.035709	1.000000	0.000027	0.000017	0.000013	-4.464595	-75.689774	-2.570367
58601	9.578570	-0.191739	2.398307	0.036264	-0.006038	0.063359	1.000000	0.000018	0.000024	0.000013	-4.464001	-75.689339	-2.572141
58602	9.538149	-0.187305	2.410729	0.014949	0.000277	0.027168	1.000000	0.000018	0.000024	0.000013	-4.463219	-75.688872	-2.578252
58603	9.566992	-0.205605	2.416090	0.014791	-0.017587	0.056790	1.000000	0.000018	0.000024	0.000013	-4.462625	-75.688437	-2.580027
58604	9.526580	-0.201390	2.428445	-0.006523	-0.011265	0.020596	1.000000	0.000019	0.000017	0.000036	-4.472537	-75.688531	-2.571283
58605	9.576545	-0.183988	2.441528	-0.004519	0.007112	0.071899	1.000000	0.000035	0.000037	0.000005	-4.466174	-75.686674	-2.576966
58606	9.557030	-0.186069	2.427348	0.004155	0.003370	0.049535	1.000000	0.000019	0.000016	0.000011	-4.464744	-75.687151	-2.578326
58607	9.566505	-0.206417	2.417949	0.013091	-0.018106	0.056791	1.000000	0.000025	0.000024	0.000015	-4.464406	-75.686653	-2.578947
58608	9.526101	-0.202035	2.430272	-0.008216	-0.011773	0.020594	1.000000	0.000025	0.000014	0.000021	-4.466754	-75.687230	-2.579681
58609	9.568090	-0.173164	2.411566	0.023520	0.014263	0.056114	1.000000	0.000032	0.000015	0.000023	-4.469476	-75.687761	-2.576290
58610	9.566217	-0.207070	2.419031	0.011820	-0.018495	0.056792	1.000000	0.000027	0.000027	0.000008	-4.465534	-75.687042	-2.582216
58611	9.545185	-0.200562	2.446087	-0.018588	-0.008539	0.042955	1.000000	0.000040	0.000015	0.000026	-4.468513	-75.687510	-2.577671
58612	9.564441	-0.198746	2.461251	-0.028111	-0.005058	0.065317	1.000000	0.000016	0.000032	0.000014	-4.468402	-75.686145	-2.579954
58613	9.544953	-0.200874	2.446966	-0.019428	-0.008795	0.042954	1.000000	0.000030	0.000011	0.000005	-4.463239	-75.687225	-2.584934
58614	9.565783	-0.207535	2.420708	0.010126	-0.019012	0.056793	1.000000	0.000035	0.000027	0.000011	-4.459573	-75.686465	-2.587036
58615	9.564106	-0.198971	2.462535	-0.029385	-0.005434	0.065313	1.000000	0.000023	0.000022	0.000022	-4.462711	-75.686169	-2.584300
58616	9.555979	-0.187716	2.431356	-0.000060	0.002087	0.049536	1.000000	0.000027	0.000017	0.000013	-4.461546	-75.686526	-2.586887
58617	9.563915	-0.199315	2.463247	-0.030228	-0.005687	0.065310	1.000000	0.000027	0.000017	0.000013	-4.460533	-75.686918	-2.588009
58618	9.565583	-0.165724	2.456589	-0.019355	0.026807	0.064639	1.000000	0.000040	0.000025	0.000020	-4.460648	-75.686298	-2.588769
58619	9.586391	-0.172570	2.430428	0.010195	0.016583	0.078485	1.000000	0.000003	0.000023	0.000008	-4.459538	-75.685988	-2.592856
58620	9.546006	-0.168128	2.442641	-0.011081	0.022938	0.042278	1.000000	0.000026	0.000007	0.000019	-4.461204	-75.687430	-2.591745
58621	9.555480	-0.188570	2.433248	-0.002170	0.001454	0.049536	1.000000	0.000031	0.000032	0.000019	-4.461794	-75.685977	-2.590714
58622	9.515065	-0.184094	2.445572	-0.023436	0.007811	0.013328	1.000000	0.000028	0.000009	0.000012	-4.459932	-75.687180	-2.593927
58623	9.574676	-0.186779	2.448636	-0.012117	0.004812	0.071894	1.000000	0.000042	0.000017	0.000019	-4.459434	-75.687445	-2.592741
58624	9.566540	-0.175574	2.417536	0.017227	0.012312	0.056129	1.000000	0.000029	0.000030	0.000026	-4.463295	-75.686111	-2.591450
58625	9.535703	-0.191392	2.420066	0.005279	-0.002681	0.027178	1.000000	0.000036	0.000009	0.000014	-4.461868	-75.687329	-2.591917
58626	9.554965	-0.189493	2.435198	-0.004260	0.000807	0.049535	1.000000	0.000039	0.000033	0.000022	-4.462593	-75.685813	-2.593695
58627	9.576013	-0.154083	2.443243	-0.002478	0.036912	0.071231	1.000000	0.000021	0.000010	0.000035	-4.472014	-75.686810	-2.584743
58628	9.552990	-0.223739	2.442964	-0.016425	-0.032061	0.050196	1.000000	0.000034	0.000016	-0.000009	-4.459715	-75.687466	-2.594318
58629	9.577445	-0.162990	2.402436	0.035757	0.022912	0.062732	1.000000	0.000015	0.000012	0.000025	-4.465401	-75.688324	-2.589879
58630	9.554617	-0.190310	2.436502	-0.005951	0.000294	0.049534	1.000000	0.000025	0.000024	0.000015	-4.464925	-75.687832	-2.587974
58631	9.556085	-0.199311	2.395551	0.032703	-0.013575	0.041038	1.000000	0.000032	0.000015	0.000023	-4.467649	-75.688362	-2.584584
58632	9.554426	-0.190668	2.437222	-0.006790	0.000038	0.049534	1.000000	0.000029	0.000019	0.000006	-4.463009	-75.688501	-2.589223
58633	9.546341	-0.179347	2.405976	0.022551	0.007533	0.033781	1.000000	0.000025	0.000014	0.000021	-4.465475	-75.689094	-2.586988
58634	9.554211	-0.190973	2.438038	-0.007634	-0.000220	0.049533	1.000000	0.000040	0.000035	0.000015	-4.462644	-75.687356	-2.584899
58635	9.565468	-0.177775	2.421611	0.012586	0.010893	0.056138	1.000000	0.000006	0.000009	0.000030	-4.471550	-75.688478	-2.578257
58636	9.534656	-0.193687	2.424006	0.000648	-0.004097	0.027178	1.000000	0.000034	0.000017	0.000016	-4.470598	-75.688776	-2.575623
58637	9.574881	-0.198474	2.412446	0.021053	-0.010738	0.063399	1.000000	0.000019	0.000016	0.000011	-4.469327	-75.689230	-2.577903
58638	9.563438	-0.212089	2.429564	-0.000014	-0.022103	0.056792	1.000000	0.000036	0.000009	0.000014	-4.467817	-75.690430	-2.580208
58639	9.563574	-0.169694	2.464127	-0.028173	0.024137	0.064625	1.000000	0.000033	0.000025	0.000018	-4.467732	-75.689867	-2.579680
58640	9.565030	-0.178663	2.423276	0.010484	0.010245	0.056141	1.000000	0.000025	0.000024	0.000015	-4.467272	-75.689333	-2.583094
58641	9.563119	-0.212621	2.430770	-0.001284	-0.022483	0.056791	1.000000	0.000025	0.000014	0.000021	-4.469738	-75.689925	-2.580859
58642	9.553471	-0.192662	2.440807	-0.010999	-0.001239	0.049530	1.000000	0.000032	0.000015	0.000023	-4.472344	-75.690399	-2.580128
58643	9.572692	-0.190867	2.456068	-0.020550	0.002259	0.071881	1.000000	0.000029	0.000040	0.000021	-4.473596	-75.688054	-2.578609
58644	9.551379	-0.226780	2.448976	-0.023202	-0.034088	0.050175	1.000000	0.000045	0.000012	0.000010	-4.468930	-75.689020	-2.583371
58645	9.575873	-0.166191	2.408473	0.029025	0.020832	0.062759	1.000000	0.000023	0.000022	0.000022	-4.472064	-75.688721	-2.580641
58646	9.552990	-0.193487	2.442623	-0.012691	-0.001743	0.049528	1.000000	0.000016	0.000022	0.000020	-4.474798	-75.688460	-2.580590
58647	9.573821	-0.200389	2.416491	0.016824	-0.012027	0.063405	1.000000	0.000020	0.000026	0.000006	-4.470717	-75.687821	-2.585734
58648	9.533379	-0.195796	2.428854	-0.004402	-0.005621	0.027177	1.000000	0.000025	0.000024	0.000015	-4.470235	-75.687298	-2.583671
58649	9.562181	-0.214139	2.434326	-0.004671	-0.023502	0.056787	1.000000	0.000025	0.000024	0.000015	-4.469890	-75.686797	-2.584300
58650	9.563918	-0.180526	2.427523	0.006271	0.008966	0.056146	1.000000	0.000021	0.000009	0.000009	-4.467851	-75.688126	-2.584468
58651	9.552403	-0.194183	2.444862	-0.014802	-0.002375	0.049525	1.000000	0.000029	0.000040	0.000021	-4.469102	-75.685780	-2.582951
58652	9.573218	-0.201126	2.418819	0.014711	-0.012672	0.063408	1.000000	0.000019	0.000016	0.000011	-4.467710	-75.686208	-2.586677
58653	9.544223	-0.182977	2.414091	0.014142	0.004959	0.033799	1.000000	0.000030	0.000011	0.000005	-4.462552	-75.687287	-2.591655
58654	9.552092	-0.194378	2.446062	-0.016071	-0.002755	0.049523	1.000000	0.000027	0.000027	0.000008	-4.458690	-75.686601	-2.591922
58655	9.574770	-0.167488	2.412766	0.024807	0.019543	0.062773	1.000000	0.000034	0.000017	0.000016	-4.457936	-75.686928	-2.591890
58656	9.553744	-0.160911	2.439593	-0.005547	0.029584	0.048886	1.000000	0.000026	0.000007	0.000019	-4.459611	-75.688416	-2.586720
58657	9.542285	-0.174572	2.456690	-0.026619	0.018250	0.042259	1.000000	0.000027	0.000017	0.000013	-4.458598	-75.688806	-2.587846
58658	9.563142	-0.181486	2.430507	0.002885	0.007944	0.056148	1.000000	0.000025	0.000024	0.000015	-4.458097	-75.688302	-2.586142
58659	9.563057	-0.181607	2.430832	0.002462	0.007819	0.056149	1.000000	0.000021	0.000009	0.000009	-4.456157	-75.689646	-2.588919
58660	9.561155	-0.215443	2.438236	-0.009333	-0.024903	0.056780	1.000000	0.000034	0.000017	0.000016	-4.455282	-75.689919	-2.591887
58661	9.562872	-0.182038	2.431530	0.001625	0.007562	0.056149	1.000000	0.000027	0.000028	0.000033	-4.462822	-75.688866	-2.584149
58662	9.564366	-0.191210	2.390652	0.040272	-0.006380	0.047699	1.000000	0.000034	0.000017	0.000016	-4.461933	-75.689156	-2.586025
58663	9.562651	-0.182588	2.432357	0.000785	0.007306	0.056149	1.000000	0.000023	0.000022	0.000022	-4.465066	-75.688856	-2.583298
58664	9.562534	-0.182906	2.432793	0.000364	0.007178	0.056149	1.000000	0.000031	0.000022	0.000025	-4.468401	-75.688480	-2.583599
58665	9.552625	-0.205471	2.408796	0.018347	-0.017964	0.041068	1.000000	0.000018	0.000024	0.000013	-4.467794	-75.688041	-2.585388
58666	9.571859	-0.203629	2.423982	0.008775	-0.014465	0.063413	1.000000	0.000016	0.000022	0.000020	-4.470603	-75.687816	-2.585101
58667	9.552614	-0.163355	2.443854	-0.010165	0.028191	0.048886	1.000000	0.000033	0.000025	0.000018	-4.470517	-75.687251	-2.584576
58668	9.563698	-0.192388	2.393232	0.037726	-0.007157	0.047709	1.000000	0.000034	0.000016	-0.000009	-4.458247	-75.687945	-2.592300
58669	9.581313	-0.181537	2.449722	-0.010905	0.010172	0.078492	1.000000	0.000027	0.000028	0.000033	-4.465785	-75.686891	-2.584565
58670	9.571390	-0.204205	2.425784	0.007080	-0.014980	0.063413	1.000000	0.000025	0.000024	0.000015	-4.465307	-75.686354	-2.583782
58671	9.542374	-0.186163	2.421147	0.006551	0.002659	0.033808	1.000000	0.000027	0.000017	0.000013	-4.464295	-75.686743	-2.584908
58672	9.573031	-0.170777	2.419427	0.017636	0.017346	0.062793	1.000000	0.000025	0.000024	0.000015	-4.463821	-75.686241	-2.586515
58673	9.569423	-0.195796	2.468385	-0.033254	-0.001526	0.071847	1.000000	0.000025	0.000024	0.000015	-4.463474	-75.685739	-2.587148
58674	9.542063	-0.186677	2.422332	0.005282	0.002276	0.033808	1.000000	0.000026	0.000007	0.000019	-4.465204	-75.687226	-2.581396
58675	9.572722	-0.171293	2.420614	0.016365	0.016965	0.062795	1.000000	0.000025	0.000034	0.000010	-4.462044	-75.685632	-2.584895
58676	9.549755	-0.198310	2.454855	-0.025370	-0.005538	0.049502	1.000000	0.000034	0.000017	0.000016	-4.461141	-75.685931	-2.583982
58677	9.580441	-0.183052	2.453021	-0.014290	0.009152	0.078489	1.000000	0.000015	0.000012	0.000025	-4.466826	-75.686785	-2.579548
58678	9.560984	-0.185508	2.438681	-0.005553	0.005391	0.056149	1.000000	0.000029	0.000030	0.000026	-4.470715	-75.685495	-2.575235
58679	9.549419	-0.199233	2.456087	-0.026636	-0.005915	0.049499	1.000000	0.000033	0.000025	0.000018	-4.470627	-75.684929	-2.574712
58680	9.560714	-0.185957	2.439704	-0.006398	0.005136	0.056149	1.000000	0.000033	0.000025	0.000018	-4.470424	-75.684351	-2.574626
58681	9.572032	-0.172659	2.423242	0.013839	0.016190	0.062801	1.000000	0.000027	0.000017	0.000013	-4.469411	-75.684740	-2.575752
58682	9.550722	-0.208671	2.416056	0.011151	-0.020152	0.041075	1.000000	0.000023	0.000022	0.000022	-4.472349	-75.684437	-2.572387
58683	9.548994	-0.199982	2.457677	-0.028329	-0.006423	0.049494	1.000000	0.000036	0.000009	0.000014	-4.470934	-75.685653	-2.572847
58684	9.560354	-0.186641	2.441064	-0.008093	0.004626	0.056148	1.000000	0.000019	0.000016	0.000011	-4.469590	-75.686115	-2.574380
58685	9.540910	-0.188938	2.426696	0.000643	0.000870	0.033810	1.000000	0.000038	0.000023	0.000027	-4.473242	-75.685687	-2.569342
58686	9.552211	-0.175595	2.410327	0.020884	0.011913	0.040467	1.000000	0.000022	0.000029	-0.000002	-4.465589	-75.684836	-2.579345
58687	9.560007	-0.186961	2.442397	-0.009362	0.004248	0.056147	1.000000	0.000027	0.000017	0.000013	-4.464576	-75.685225	-2.580472
58688	9.519591	-0.182328	2.454520	-0.030512	0.010719	0.019885	1.000000	0.000027	0.000017	0.000013	-4.463402	-75.685601	-2.581543
58689	9.569371	-0.207509	2.433457	-0.000980	-0.017412	0.063412	1.000000	0.000025	0.000024	0.000015	-4.463053	-75.685099	-2.582179
58690	9.559702	-0.187314	2.443563	-0.010626	0.003864	0.056145	1.000000	0.000036	0.000019	0.000009	-4.458740	-75.685200	-2.587415
58691	9.559589	-0.187399	2.443998	-0.011049	0.003740	0.056145	1.000000	0.000033	0.000025	0.000018	-4.458652	-75.684634	-2.586893
58692	9.561146	-0.196619	2.403064	0.027574	-0.010262	0.047740	1.000000	0.000030	0.000013	0.000030	-4.464806	-75.685381	-2.578252
58693	9.570833	-0.174637	2.427834	0.008764	0.014651	0.062809	1.000000	0.000023	0.000022	0.000022	-4.467935	-75.685079	-2.575531
58694	9.560947	-0.197140	2.403811	0.026725	-0.010521	0.047742	1.000000	0.000029	0.000019	0.000006	-4.463310	-75.685272	-2.580419
58695	9.551305	-0.176994	2.413812	0.017085	0.010760	0.040476	1.000000	0.000032	0.000015	0.000023	-4.466038	-75.685798	-2.577029
58696	9.557229	-0.222268	2.452971	-0.024621	-0.029464	0.056742	1.000000	0.000027	0.000017	0.000013	-4.464849	-75.686173	-2.579751
58697	9.580014	-0.195706	2.419587	0.016286	-0.007275	0.070078	1.000000	0.000029	0.000020	0.000032	-4.471718	-75.686007	-2.572514
58698	9.570360	-0.175728	2.429617	0.006663	0.014005	0.062811	1.000000	0.000034	0.000017	0.000016	-4.470899	-75.686261	-2.575291
58699	9.558807	-0.189313	2.446906	-0.014428	0.002727	0.056141	1.000000	0.000033	0.000025	0.000018	-4.470809	-75.685695	-2.574772
58700	9.570109	-0.176074	2.430580	0.005815	0.013754	0.062812	1.000000	0.000016	0.000032	0.000014	-4.470848	-75.684371	-2.575993
58701	9.550662	-0.178462	2.416247	0.014564	0.009992	0.040481	1.000000	0.000030	0.000013	0.000030	-4.477056	-75.685096	-2.569246
58702	9.558437	-0.189968	2.448302	-0.015706	0.002351	0.056139	1.000000	0.000037	0.000029	0.000003	-4.469949	-75.684168	-2.575706
58703	9.558321	-0.189974	2.448755	-0.016130	0.002227	0.056139	1.000000	0.000027	0.000017	0.000013	-4.468936	-75.684556	-2.576834
58704	9.561790	-0.165430	2.400615	0.033965	0.020749	0.047159	1.000000	0.000023	0.000022	0.000022	-4.471833	-75.684216	-2.573433
58705	9.581025	-0.163647	2.415741	0.024369	0.024259	0.069491	1.000000	0.000025	0.000014	0.000021	-4.474299	-75.684804	-2.571202
58706	9.548279	-0.213030	2.425314	0.000978	-0.023212	0.041074	1.000000	0.000028	0.000009	0.000012	-4.472532	-75.686081	-2.574256
58707	9.550071	-0.179397	2.418511	0.012029	0.009221	0.040485	1.000000	0.000025	0.000034	0.000010	-4.469361	-75.684487	-2.577766
58708	9.549942	-0.179498	2.419014	0.011602	0.009092	0.040486	1.000000	0.000034	0.000017	0.000016	-4.468520	-75.684835	-2.578308
58709	9.557687	-0.191012	2.451148	-0.018669	0.001465	0.056134	1.000000	0.000031	0.000032	0.000019	-4.469090	-75.683377	-2.577302
58710	9.528667	-0.173060	2.446551	-0.019102	0.019115	0.026536	1.000000	0.000023	0.000022	0.000022	-4.472075	-75.683049	-2.575385
58711	9.578432	-0.198405	2.425621	0.010349	-0.009071	0.070084	1.000000	0.000033	0.000025	0.000018	-4.471984	-75.682482	-2.574867
58712	9.557298	-0.191770	2.452604	-0.019938	0.001082	0.056132	1.000000	0.000031	0.000023	0.000025	-4.475255	-75.682122	-2.571031
58713	9.557174	-0.192020	2.453069	-0.020361	0.000959	0.056131	1.000000	0.000033	0.000025	0.000018	-4.475163	-75.681554	-2.570514
58714	9.549210	-0.180910	2.421796	0.009075	0.008323	0.040489	1.000000	0.000017	0.000014	0.000018	-4.477265	-75.682173	-2.567420
58715	9.556966	-0.192468	2.453842	-0.021203	0.000705	0.056129	1.000000	0.000048	0.000026	0.000023	-4.477698	-75.681478	-2.564586
58716	9.566367	-0.212965	2.444769	-0.012442	-0.020845	0.063397	1.000000	0.000016	0.000032	0.000014	-4.477646	-75.680126	-2.566046
58717	9.548853	-0.181409	2.423166	0.007811	0.007942	0.040490	1.000000	0.000030	0.000011	0.000005	-4.472496	-75.681206	-2.571017
58718	9.558314	-0.201844	2.413872	0.016571	-0.013612	0.047760	1.000000	0.000031	0.000023	0.000025	-4.475773	-75.680811	-2.568019
58719	9.537194	-0.195167	2.440768	-0.013705	-0.003440	0.033800	1.000000	0.000027	0.000017	0.000013	-4.474760	-75.681199	-2.569147
58720	9.556429	-0.193213	2.455876	-0.023315	0.000073	0.056124	1.000000	0.000027	0.000017	0.000013	-4.473643	-75.681589	-2.570346
58721	9.571433	-0.155229	2.390783	0.047477	0.029679	0.053879	1.000000	0.000027	0.000017	0.000013	-4.472630	-75.681976	-2.571474
58722	9.558173	-0.159692	2.449302	-0.012657	0.032368	0.055547	1.000000	0.000029	0.000019	0.000006	-4.468001	-75.682165	-2.575984
58723	9.536866	-0.195645	2.442012	-0.015398	-0.003946	0.033797	1.000000	0.000017	0.000004	0.000023	-4.473024	-75.683906	-2.572041
58724	9.548239	-0.182554	2.425498	0.004867	0.007046	0.040493	1.000000	0.000046	0.000033	0.000024	-4.474051	-75.682261	-2.571891
58725	9.576978	-0.200960	2.431146	0.004421	-0.010864	0.070087	1.000000	0.000019	0.000016	0.000011	-4.472775	-75.682711	-2.574179
58726	9.548017	-0.183019	2.426337	0.004022	0.006789	0.040494	1.000000	0.000021	0.000020	0.000029	-4.479210	-75.682601	-2.567972
58727	9.538359	-0.163099	2.436367	-0.005563	0.028094	0.033224	1.000000	0.000031	0.000023	0.000025	-4.482597	-75.682232	-2.564099
58728	9.568826	-0.190557	2.400639	0.033014	-0.003785	0.054465	1.000000	0.000027	0.000017	0.000013	-4.481465	-75.682635	-2.567451
58729	9.555538	-0.195159	2.459186	-0.027121	-0.001058	0.056115	1.000000	0.000023	0.000022	0.000022	-4.484588	-75.682330	-2.564738
58730	9.559103	-0.170746	2.410924	0.023009	0.017387	0.047197	1.000000	0.000034	0.000007	0.000021	-4.486510	-75.683745	-2.560889
58731	9.557051	-0.204840	2.418617	0.011062	-0.015280	0.047765	1.000000	0.000025	0.000036	0.000035	-4.494688	-75.681790	-2.552691
58732	9.566688	-0.182778	2.443518	-0.007709	0.009665	0.062816	1.000000	0.000019	0.000016	0.000011	-4.493238	-75.682226	-2.555295
58733	9.564659	-0.216600	2.451127	-0.019661	-0.023000	0.063381	1.000000	0.000034	0.000017	0.000016	-4.492488	-75.682549	-2.555264
58734	9.558660	-0.171692	2.412612	0.021321	0.016868	0.047202	1.000000	0.000035	0.000027	0.000011	-4.488773	-75.681783	-2.558033
58735	9.547044	-0.185171	2.430001	0.000217	0.005639	0.040495	1.000000	0.000025	0.000024	0.000015	-4.488416	-75.681278	-2.558679
58736	9.575798	-0.203626	2.435569	-0.000255	-0.012280	0.070086	1.000000	0.000025	0.000014	0.000021	-4.490778	-75.681863	-2.554422
58737	9.527547	-0.187670	2.415901	0.008569	0.001738	0.018176	1.000000	0.000027	0.000017	0.000013	-4.489765	-75.682250	-2.555551
58738	9.566089	-0.183713	2.445793	-0.010250	0.008902	0.062814	1.000000	0.000032	0.000015	0.000023	-4.492407	-75.682769	-2.553524
58739	9.567976	-0.150200	2.438740	0.000867	0.041314	0.062254	1.000000	0.000021	0.000009	0.000009	-4.490474	-75.684111	-2.556295
58740	9.546591	-0.186218	2.431697	-0.001899	0.005002	0.040495	1.000000	0.000035	0.000038	0.000031	-4.495328	-75.681904	-2.549625
58741	9.577262	-0.171189	2.430099	0.009162	0.019620	0.069527	1.000000	0.000030	0.000013	0.000030	-4.501538	-75.682624	-2.542878
58742	9.565704	-0.184737	2.447222	-0.011942	0.008395	0.062813	1.000000	0.000023	0.000011	0.000002	-4.496021	-75.683749	-2.551643
58743	9.546306	-0.186945	2.432760	-0.003163	0.004623	0.040495	1.000000	0.000031	0.000023	0.000025	-4.499406	-75.683379	-2.547772
58744	9.536665	-0.166846	2.442737	-0.012718	0.025934	0.033223	1.000000	0.000027	0.000017	0.000013	-4.498279	-75.683747	-2.549047
58745	9.586440	-0.192123	2.421888	0.016610	-0.002335	0.076802	1.000000	0.000027	0.000027	0.000008	-4.494440	-75.683043	-2.553053
58746	9.567027	-0.194347	2.407494	0.025387	-0.006114	0.054487	1.000000	0.000017	0.000014	0.000018	-4.496552	-75.683704	-2.553054
58747	9.545885	-0.187615	2.434362	-0.004854	0.004115	0.040495	1.000000	0.000048	0.000026	0.000023	-4.496985	-75.683008	-2.550222
58748	9.597588	-0.179337	2.406353	0.036026	0.008361	0.083525	1.000000	0.000016	0.000032	0.000014	-4.496867	-75.681639	-2.551210
58749	9.534127	-0.201239	2.452232	-0.026382	-0.007225	0.033772	1.000000	0.000030	0.000011	0.000005	-4.491720	-75.682719	-2.556178
58750	9.557014	-0.174761	2.418906	0.014567	0.014813	0.047218	1.000000	0.000018	0.000035	0.000033	-4.499485	-75.680852	-2.547138
58751	9.545372	-0.188455	2.436306	-0.006544	0.003604	0.040494	1.000000	0.000034	0.000017	0.000016	-4.498736	-75.681175	-2.547107
58752	9.554817	-0.208846	2.427085	0.000653	-0.019805	0.047764	1.000000	0.000029	0.000019	0.000006	-4.449369	-75.689595	-2.610304
58753	9.564492	-0.186491	2.451821	-0.018102	0.005164	0.062806	1.000000	0.000034	0.000017	0.000016	-4.448496	-75.689941	-2.610410
58754	9.566125	-0.195707	2.410963	0.020490	-0.008996	0.054496	1.000000	0.000025	0.000024	0.000015	-4.447935	-75.689443	-2.609356
58755	9.564260	-0.186802	2.452703	-0.018955	0.004902	0.062804	1.000000	0.000018	0.000024	0.000013	-4.447188	-75.689023	-2.611301
58756	9.573714	-0.207329	2.443434	-0.010270	-0.016681	0.070074	1.000000	0.000026	0.000007	0.000019	-4.448823	-75.690503	-2.611046
58757	9.544797	-0.189351	2.438491	-0.010592	0.000992	0.040491	1.000000	0.000023	0.000022	0.000022	-4.451821	-75.690218	-2.608472
58758	9.567485	-0.205557	2.371168	0.057802	-0.023562	0.046195	1.000000	0.000029	0.000019	0.000006	-4.447161	-75.690391	-2.611779
58759	9.575415	-0.174119	2.437159	0.000037	0.015447	0.069539	1.000000	0.000027	0.000017	0.000013	-4.446023	-75.690800	-2.613047
58760	9.556027	-0.176331	2.422686	0.008826	0.011665	0.047229	1.000000	0.000027	0.000017	0.000013	-4.444859	-75.691215	-2.615661
58761	9.584756	-0.194737	2.428333	0.008282	-0.006270	0.076811	1.000000	0.000033	0.000025	0.000018	-4.444642	-75.690668	-2.615285
58762	9.573112	-0.208259	2.445715	-0.012838	-0.017465	0.070070	1.000000	0.000033	0.000025	0.000018	-4.444371	-75.690106	-2.613603
58763	9.555708	-0.176791	2.423911	0.007548	0.011271	0.047230	1.000000	0.000021	0.000009	0.000009	-4.442311	-75.691470	-2.616516
58764	9.544084	-0.190278	2.441208	-0.013574	0.000081	0.040487	1.000000	0.000031	0.000033	0.000019	-4.442726	-75.690029	-2.617431
58765	9.553476	-0.210883	2.432181	-0.004906	-0.021506	0.047759	1.000000	0.000023	0.000022	0.000022	-4.445724	-75.689744	-2.614858
58766	9.564890	-0.197698	2.415697	0.015365	-0.010583	0.054503	1.000000	0.000036	0.000019	0.000009	-4.441310	-75.689869	-2.617887
58767	9.563044	-0.188738	2.457293	-0.024074	0.003343	0.062794	1.000000	0.000025	0.000015	0.000021	-4.443653	-75.690476	-2.615797
58768	9.555183	-0.177616	2.425920	0.005414	0.010614	0.047232	1.000000	0.000029	0.000019	0.000006	-4.439009	-75.690706	-2.616839
58769	9.533804	-0.213437	2.418805	0.002605	-0.025682	0.025449	1.000000	0.000027	0.000017	0.000013	-4.437870	-75.691114	-2.618108
58770	9.574263	-0.175756	2.441565	-0.004661	0.014005	0.069540	1.000000	0.000031	0.000033	0.000019	-4.438276	-75.689658	-2.618536
58771	9.554862	-0.177990	2.427158	0.004137	0.010222	0.047233	1.000000	0.000021	0.000009	0.000009	-4.436217	-75.691022	-2.621449
58772	9.554759	-0.178125	2.427552	0.003712	0.010090	0.047234	1.000000	0.000016	0.000032	0.000014	-4.436076	-75.689694	-2.620719
58773	9.554588	-0.178186	2.428219	0.003285	0.009959	0.047234	1.000000	0.000035	0.000037	0.000005	-4.429551	-75.687857	-2.626579
58774	9.546677	-0.167066	2.397086	0.032788	0.017220	0.031682	1.000000	0.000023	0.000022	0.000022	-4.432504	-75.687554	-2.624499
58775	9.563871	-0.198873	2.419634	0.011515	-0.011767	0.054507	1.000000	0.000027	0.000017	0.000013	-4.431366	-75.687962	-2.625768
58776	9.563787	-0.199080	2.419948	0.011090	-0.011899	0.054508	1.000000	0.000032	0.000015	0.000023	-4.433945	-75.688485	-2.622636
58777	9.508193	-0.189240	2.531571	-0.108596	0.011850	0.027966	1.000000	0.000106	0.000045	0.000014	-4.422858	-75.685679	-2.624753
58778	9.589779	-0.336981	2.366241	0.053222	-0.155651	0.069087	1.000000	-0.000044	0.000041	0.000039	-4.440494	-75.683059	-2.613317
58779	9.573874	-0.006419	2.582074	-0.118023	0.199177	0.100567	1.000000	-0.000001	0.000039	0.000011	-4.440517	-75.680981	-2.616629
58780	9.499262	-0.203828	2.305217	0.106013	-0.030089	-0.036216	1.000000	0.000177	0.000010	-0.000007	-4.413446	-75.682286	-2.627778
58781	9.694518	-0.191491	1.847425	0.594372	-0.075542	0.039944	1.000000	-0.000203	-0.000124	0.000008	-4.441054	-75.698777	-2.626519
58782	9.706271	-0.266026	3.212958	-0.720373	0.015045	0.389586	1.000000	0.000577	0.000589	0.000078	-4.385774	-75.633277	-2.619016
58783	9.650430	-0.117985	2.340964	0.123062	0.057047	0.117390	1.000000	-0.000397	-0.000442	-0.000002	-4.441886	-75.686215	-2.611267
58784	9.471923	-0.274542	2.553442	-0.146316	-0.068711	-0.000112	1.000000	0.000017	0.000253	0.000094	-4.469443	-75.658960	-2.584348
58785	9.204258	-0.002974	2.018582	0.333130	0.138241	-0.396587	1.000000	0.000196	-0.000341	-0.000116	-4.403308	-75.701430	-2.632704
58786	9.524374	-0.265635	2.522963	-0.105947	-0.064703	0.042981	1.000000	-0.000395	0.000221	0.000085	-4.475277	-75.677871	-2.609041
58787	9.564770	-0.124934	2.451242	-0.009341	0.065762	0.061755	1.000000	0.000434	-0.000108	-0.000049	-4.404107	-75.693134	-2.634470
58788	9.667870	-0.357293	2.551594	-0.107709	-0.154025	0.190846	1.000000	-0.000249	0.000211	0.000104	-4.468392	-75.670504	-2.601627
58789	9.562684	-0.073878	2.528325	-0.076542	0.126210	0.077764	1.000000	0.000233	-0.000111	-0.000023	-4.432007	-75.685841	-2.614907
58790	9.507435	-0.312235	2.231446	0.165506	-0.146138	-0.044401	1.000000	-0.000068	0.000048	0.000033	-4.449421	-75.682534	-2.608231
58791	9.612375	-0.142650	2.473199	-0.020467	0.051080	0.113631	1.000000	-0.000053	-0.000000	0.000033	-4.466763	-75.684701	-2.599816
58792	9.600322	-0.181690	2.293157	0.144347	-0.009157	0.058323	1.000000	0.000091	-0.000025	0.000014	-4.460042	-75.689788	-2.598240
58793	9.441160	-0.205531	2.624549	-0.216333	0.008740	-0.013753	1.000000	0.000126	0.000081	0.000014	-4.445396	-75.682828	-2.601674
58794	9.586089	-0.271408	2.285340	0.138478	-0.099566	0.044313	1.000000	-0.000038	0.000038	0.000023	-4.455341	-75.680653	-2.599409
58795	9.577455	-0.140292	2.559581	-0.111620	0.064113	0.101052	1.000000	0.000054	-0.000005	0.000016	-4.453056	-75.683547	-2.598623
58796	9.597479	-0.258670	2.269079	0.158316	-0.088820	0.051099	1.000000	0.000005	0.000037	0.000020	-4.456756	-75.681637	-2.594634
58797	9.577018	-0.183838	2.526459	-0.085145	0.017243	0.093297	1.000000	-0.000004	0.000007	0.000034	-4.468739	-75.683025	-2.585961
58798	9.551955	-0.141145	2.472881	-0.034717	0.053307	0.054981	1.000000	0.000104	0.000031	0.000001	-4.452590	-75.681913	-2.594838
58799	9.566529	-0.291844	2.435488	-0.013060	-0.101383	0.062777	1.000000	0.000040	0.000035	0.000015	-4.449806	-75.680210	-2.596186
58800	9.564590	-0.223071	2.348098	0.078792	-0.043307	0.038030	1.000000	-0.000056	0.000005	0.000042	-4.471283	-75.681677	-2.584659
58801	9.559320	-0.153177	2.505914	-0.065946	0.045574	0.070492	1.000000	0.000038	0.000022	0.000002	-4.463453	-75.681626	-2.591480
58802	9.524245	-0.175468	2.394339	0.030110	0.009860	0.009425	1.000000	0.000086	0.000036	0.000005	-4.450904	-75.679927	-2.594098
58803	9.569947	-0.268169	2.388476	0.035872	-0.083545	0.054042	1.000000	0.000002	0.000003	0.000018	-4.455275	-75.681812	-2.592619
58804	9.555108	-0.117462	2.426927	0.013387	0.070892	0.046250	1.000000	0.000009	0.000041	0.000006	-4.452054	-75.679515	-2.595431
58805	9.589370	-0.180610	2.472180	-0.028888	0.013104	0.091822	1.000000	0.000050	0.000038	0.000010	-4.446059	-75.677551	-2.598971
58806	9.542713	-0.216454	2.377635	0.046464	-0.033627	0.023983	1.000000	0.000018	0.000034	0.000007	-4.442453	-75.676064	-2.600638
58807	9.570009	-0.140070	2.492366	-0.047814	0.055810	0.077266	1.000000	-0.000024	0.000018	0.000014	-4.447316	-75.676355	-2.601698
58808	9.571922	-0.106434	2.485480	-0.036561	0.088173	0.076777	1.000000	0.000086	0.000036	0.000005	-4.434829	-75.674642	-2.608518
58809	9.569262	-0.225664	2.425889	0.005958	-0.037703	0.061784	1.000000	0.000057	0.000028	0.000018	-4.431934	-75.673704	-2.608014
58810	9.575068	-0.167930	2.370295	0.067885	0.012988	0.052587	1.000000	-0.000037	0.000021	0.000027	-4.444127	-75.673569	-2.606880
58811	9.546752	-0.081637	2.595879	-0.145543	0.126580	0.079154	1.000000	0.000048	0.000026	0.000023	-4.444443	-75.672892	-2.604184
58812	9.544039	-0.183832	2.373047	0.055579	-0.001943	0.023508	1.000000	0.000079	-0.000002	0.000017	-4.439450	-75.675380	-2.604291
58813	9.528507	-0.221747	2.438847	-0.016240	-0.031399	0.025420	1.000000	-0.000018	0.000026	0.000018	-4.445226	-75.674715	-2.603715
58814	9.548112	-0.134440	2.521721	-0.080516	0.065420	0.063184	1.000000	0.000012	0.000017	0.000034	-4.454875	-75.674891	-2.598096
58815	9.520814	-0.168617	2.441739	-0.014418	0.022314	0.017659	1.000000	0.000055	0.000026	0.000025	-4.455459	-75.674150	-2.594237
58816	9.539506	-0.252575	2.389418	0.030474	-0.067442	0.024478	1.000000	0.000006	0.000019	0.000024	-4.461359	-75.674168	-2.592560
58817	9.547589	-0.178562	2.488962	-0.054499	0.018398	0.055441	1.000000	0.000013	-0.000000	0.000038	-4.473226	-75.676319	-2.582042
58818	9.549617	-0.145221	2.481660	-0.043215	0.050748	0.054960	1.000000	0.000053	0.000012	0.000012	-4.468707	-75.677195	-2.584339
58819	9.570185	-0.238208	2.387954	0.040642	-0.053188	0.053569	1.000000	0.000025	0.000015	0.000021	-4.471050	-75.677798	-2.582252
58820	9.558759	-0.208929	2.438908	-0.007787	-0.017652	0.054502	1.000000	0.000000	0.000011	0.000020	-4.476084	-75.678828	-2.578350
58821	9.558691	-0.209334	2.439142	-0.008216	-0.017781	0.054502	1.000000	0.000030	0.000013	0.000030	-4.482177	-75.679564	-2.571741
58822	9.570229	-0.196165	2.422426	0.012073	-0.006931	0.061305	1.000000	0.000034	0.000006	-0.000004	-4.472737	-75.681350	-2.581348
58823	9.560678	-0.175777	2.432036	0.002642	0.014433	0.054027	1.000000	0.000034	0.000007	0.000021	-4.474704	-75.682782	-2.578570
58824	9.570127	-0.196362	2.422813	0.011216	-0.007195	0.061306	1.000000	0.000034	0.000017	0.000016	-4.473804	-75.683127	-2.579746
58825	9.560296	-0.219129	2.398789	0.029052	-0.032489	0.046297	1.000000	0.000023	0.000012	0.000028	-4.479629	-75.683927	-2.574301
58826	9.541171	-0.178634	2.418083	0.010623	0.010369	0.031740	1.000000	0.000025	0.000025	0.000015	-4.479029	-75.683462	-2.571273
58827	9.541068	-0.178865	2.418474	0.010197	0.010239	0.031741	1.000000	0.000040	0.000015	0.000026	-4.481911	-75.683937	-2.566857
58828	9.557887	-0.253565	2.407466	0.016044	-0.065361	0.046768	1.000000	0.000031	0.000033	0.000019	-4.482281	-75.682474	-2.565574
58829	9.540587	-0.222335	2.385611	0.036605	-0.036688	0.024014	1.000000	0.000030	0.000013	0.000030	-4.488376	-75.683210	-2.558965
58830	9.569517	-0.197955	2.425091	0.008643	-0.007988	0.061308	1.000000	0.000029	0.000019	0.000006	-4.483686	-75.683426	-2.560765
58831	9.550145	-0.200125	2.410666	0.017486	-0.011786	0.039022	1.000000	0.000025	0.000025	0.000015	-4.483192	-75.682939	-2.561565
58832	9.588536	-0.195955	2.440896	-0.001487	-0.004583	0.083593	1.000000	0.000029	0.000029	0.000001	-4.475690	-75.682067	-2.568559
58833	9.548046	-0.190904	2.452863	-0.022352	0.002149	0.047214	1.000000	0.000034	0.000017	0.000016	-4.474822	-75.682410	-2.568666
58834	9.578597	-0.218502	2.417331	0.015914	-0.030013	0.068588	1.000000	0.000030	0.000011	0.000005	-4.469578	-75.683512	-2.575222
58835	9.557355	-0.211432	2.444191	-0.014221	-0.019609	0.054491	1.000000	0.000014	0.000040	0.000016	-4.470102	-75.681304	-2.576244
58836	9.538177	-0.170666	2.463687	-0.032630	0.023268	0.039931	1.000000	0.000038	0.000022	0.000002	-4.462335	-75.681325	-2.580424
58837	9.539934	-0.179930	2.422862	0.005922	0.008933	0.031746	1.000000	0.000049	0.000018	0.000021	-4.462006	-75.681540	-2.578202
58838	9.558865	-0.220806	2.404333	0.023464	-0.034206	0.046306	1.000000	0.000021	0.000019	0.000004	-4.457079	-75.681779	-2.585277
58839	9.638916	-0.291132	2.512143	-0.067555	-0.091881	0.151815	1.000000	-0.000046	0.000155	0.000020	-4.462431	-75.666299	-2.588406
58840	9.011247	-0.044215	2.166728	0.137239	0.117669	-0.546267	1.000000	0.000127	-0.000304	-0.000077	-4.420402	-75.704110	-2.619692
58841	10.097724	-0.196095	2.264097	0.292866	-0.033886	0.533409	1.000000	0.000004	0.000264	0.000075	-4.441006	-75.675688	-2.601157
58842	9.415738	-0.249070	2.956485	-0.545235	0.005168	0.044374	1.000000	0.000109	0.000020	0.000016	-4.431510	-75.675804	-2.601179
58843	9.688355	0.035585	1.921563	0.551136	0.158973	0.047783	1.000000	0.000028	-0.000002	-0.000008	-4.421205	-75.678559	-2.611747
58844	9.410708	-0.402226	2.905186	-0.515151	-0.153322	0.029794	1.000000	-0.000030	0.000109	0.000046	-4.437759	-75.668228	-2.601601
58845	9.658778	0.002106	2.407234	0.074566	0.185280	0.139542	1.000000	0.000061	0.000034	0.000029	-4.439257	-75.666529	-2.596108
58846	9.608765	-0.358951	2.442814	-0.015876	-0.168315	0.106787	1.000000	0.000032	-0.000045	-0.000002	-4.432673	-75.674125	-2.602634
58847	9.627620	-0.073606	2.538252	-0.069180	0.126647	0.143134	1.000000	-0.000078	0.000035	0.000043	-4.456137	-75.672143	-2.590876
58848	9.513429	-0.181349	2.340834	0.079501	-0.003132	-0.014147	1.000000	0.000227	0.000009	-0.000007	-4.423226	-75.673552	-2.602701
58849	9.510845	-0.275258	2.477951	-0.064164	-0.079443	0.018983	1.000000	-0.000209	0.000037	0.000059	-4.468918	-75.671221	-2.583522
58850	9.550289	-0.083067	2.480013	-0.033299	0.111577	0.054015	1.000000	0.000154	-0.000001	-0.000009	-4.443995	-75.673827	-2.596652
58851	9.530278	-0.213700	2.364300	0.057172	-0.032319	0.008589	1.000000	0.000036	0.000031	0.000029	-4.448163	-75.672514	-2.591299
58852	9.593592	-0.235916	2.285574	0.145792	-0.064167	0.050939	1.000000	-0.000053	-0.000000	0.000033	-4.465433	-75.674674	-2.583737
58853	9.471060	-0.099460	2.625408	-0.195075	0.113762	0.013433	1.000000	0.000094	0.000018	-0.000014	-4.444024	-75.675243	-2.597927
58854	9.526013	-0.238149	2.414049	0.005144	-0.050926	0.017198	1.000000	0.000095	0.000039	0.000000	-4.428289	-75.673252	-2.609074
58855	9.556801	-0.223034	2.412319	0.016155	-0.036443	0.046312	1.000000	-0.000036	-0.000007	0.000037	-4.445492	-75.676174	-2.598841
58856	9.613131	-0.122119	2.565439	-0.105480	0.082123	0.136725	1.000000	0.000011	-0.000004	0.000019	-4.449459	-75.678876	-2.596551
58857	9.554897	-0.214264	2.453536	-0.023669	-0.022448	0.054467	1.000000	0.000105	0.000014	0.000005	-4.435549	-75.679709	-2.601703
58858	9.567880	-0.296460	2.328267	0.089959	-0.119330	0.037730	1.000000	-0.000037	0.000011	0.000033	-4.450542	-75.680631	-2.596007
58859	9.566910	-0.115956	2.504280	-0.058150	0.081652	0.076730	1.000000	-0.000021	-0.000008	0.000016	-4.456938	-75.683794	-2.595141
58860	9.556915	-0.181424	2.446370	-0.013161	0.009611	0.054024	1.000000	0.000105	0.000014	0.000005	-4.442971	-75.684601	-2.597534
58861	9.531420	-0.267539	2.291322	0.119042	-0.094639	-0.007251	1.000000	-0.000004	0.000005	0.000009	-4.443585	-75.686351	-2.600585
58862	9.560826	-0.157434	2.398041	0.036736	0.027533	0.045440	1.000000	-0.000013	0.000014	0.000033	-4.455933	-75.686921	-2.591778
58863	9.537690	-0.141271	2.465979	-0.032323	0.052264	0.039458	1.000000	0.000050	0.000028	0.000016	-4.452766	-75.686046	-2.592444
58864	9.567939	-0.212024	2.397157	0.033025	-0.026702	0.053161	1.000000	0.000046	0.000033	0.000024	-4.453689	-75.684473	-2.590942
58865	9.598460	-0.239922	2.361889	0.071196	-0.058954	0.074576	1.000000	0.000010	0.000014	0.000015	-4.455488	-75.685202	-2.591191
58866	9.575538	-0.180573	2.463578	-0.025028	0.012510	0.076294	1.000000	0.000040	0.000035	0.000015	-4.452629	-75.683514	-2.591635
58867	9.548522	-0.171593	2.417554	0.013871	0.015946	0.038599	1.000000	0.000067	0.000031	0.000014	-4.446523	-75.682315	-2.593327
58868	9.576914	-0.232912	2.389827	0.040233	-0.048757	0.060448	1.000000	0.000019	0.000016	0.000011	-4.445089	-75.682792	-2.595914
58869	9.577268	-0.147286	2.457607	-0.014508	0.044565	0.075861	1.000000	0.000027	0.000028	0.000033	-4.452465	-75.681738	-2.588372
58870	9.557678	-0.192457	2.409499	0.021525	-0.005975	0.045884	1.000000	0.000049	0.000017	-0.000004	-4.440738	-75.682275	-2.598831
58871	9.547855	-0.214915	2.385572	0.039322	-0.031312	0.030897	1.000000	0.000042	0.000018	0.000019	-4.440141	-75.682552	-2.597775
58872	9.569154	-0.179382	2.393229	0.041398	0.004675	0.052742	1.000000	0.000010	0.000014	0.000015	-4.441880	-75.683315	-2.597336
58873	9.547929	-0.172327	2.419844	0.011315	0.015156	0.038603	1.000000	0.000027	0.000017	0.000013	-4.440739	-75.683720	-2.598613
58874	9.568953	-0.179732	2.394003	0.040542	0.004405	0.052745	1.000000	0.000016	0.000032	0.000014	-4.440522	-75.682408	-2.600890
58875	9.578510	-0.157413	2.418971	0.021894	0.029482	0.067733	1.000000	0.000029	0.000040	0.000021	-4.441573	-75.680068	-2.599596
58876	9.547469	-0.172981	2.421610	0.010034	0.014757	0.038605	1.000000	0.000008	0.000022	0.000017	-4.443941	-75.679906	-2.598426
58877	9.547318	-0.173319	2.422180	0.009608	0.014627	0.038606	1.000000	0.000020	0.000038	0.000025	-4.448200	-75.677826	-2.594943
58878	9.545181	-0.164220	2.464215	-0.029783	0.028799	0.046729	1.000000	0.000022	0.000050	0.000013	-4.446106	-75.674511	-2.596447
58879	9.552533	-0.175491	2.496896	-0.060252	0.021447	0.062134	1.000000	0.000029	0.000040	0.000021	-4.447156	-75.672171	-2.595155
58880	9.546706	-0.173921	2.424547	0.008318	0.014234	0.038608	1.000000	0.000035	0.000027	0.000011	-4.443430	-75.671439	-2.599743
58881	9.563887	-0.162616	2.481110	-0.040370	0.032097	0.068994	1.000000	0.000023	0.000022	0.000022	-4.446410	-75.671145	-2.597195
58882	9.554035	-0.185403	2.457299	-0.022592	0.006752	0.054010	1.000000	0.000025	0.000025	0.000015	-4.445862	-75.670716	-2.595579
58883	9.549802	-0.209921	2.506577	-0.073804	-0.011496	0.062541	1.000000	0.000036	0.000031	0.000029	-4.450023	-75.669401	-2.590234
58884	9.534559	-0.188083	2.443316	-0.014147	0.002813	0.031741	1.000000	0.000026	0.000007	0.000019	-4.451742	-75.670955	-2.587125
58885	9.532331	-0.221889	2.451110	-0.026409	-0.029749	0.032156	1.000000	0.000034	0.000017	0.000016	-4.450876	-75.671296	-2.587233
58886	9.534431	-0.188531	2.443781	-0.015004	0.002554	0.031740	1.000000	0.000032	0.000005	0.000029	-4.456312	-75.672942	-2.582312
58887	9.534371	-0.188783	2.443995	-0.015431	0.002425	0.031739	1.000000	0.000019	0.000016	0.000011	-4.454901	-75.673411	-2.584753
58888	9.572515	-0.227760	2.440459	-0.007374	-0.037092	0.068574	1.000000	0.000025	0.000015	0.000021	-4.457244	-75.674010	-2.582600
58889	9.562972	-0.207467	2.449986	-0.016702	-0.015685	0.061288	1.000000	0.000022	0.000001	0.000008	-4.454557	-75.676266	-2.585972
58890	9.534218	-0.189184	2.444560	-0.016708	0.002037	0.031737	1.000000	0.000021	0.000009	0.000009	-4.452477	-75.677608	-2.588423
58891	9.562857	-0.207649	2.450422	-0.017556	-0.015945	0.061286	1.000000	0.000033	0.000025	0.000018	-4.452247	-75.677055	-2.588067
58892	9.555235	-0.196844	2.418816	0.012072	-0.008870	0.045898	1.000000	0.000018	-0.000003	0.000022	-4.456517	-75.679695	-2.585283
58893	9.574439	-0.194870	2.433797	0.002328	-0.005316	0.068162	1.000000	0.000030	0.000011	0.000005	-4.451257	-75.680798	-2.590382
58894	9.555141	-0.197095	2.419166	0.011212	-0.009131	0.045899	1.000000	0.000032	0.000015	0.000023	-4.453890	-75.681356	-2.587107
58895	9.584055	-0.172588	2.458484	-0.016739	0.019650	0.083139	1.000000	0.000030	0.000001	0.000010	-4.451475	-75.683548	-2.589313
58896	9.576215	-0.204715	2.393212	0.039987	-0.020049	0.060066	1.000000	0.000025	0.000015	0.000021	-4.453855	-75.684130	-2.588320
58897	9.557163	-0.163990	2.412161	0.021791	0.022902	0.045496	1.000000	0.000028	0.000009	0.000012	-4.452076	-75.685428	-2.590062
58898	9.547379	-0.186567	2.388112	0.039564	-0.002456	0.030521	1.000000	0.000023	0.000011	0.000002	-4.446623	-75.686613	-2.597382
58899	9.597412	-0.169253	2.401338	0.041239	0.015664	0.081930	1.000000	0.000048	0.000026	0.000023	-4.446939	-75.685931	-2.594692
58900	9.547188	-0.186943	2.388846	0.038713	-0.002722	0.030525	1.000000	0.000015	0.000012	0.000025	-4.452481	-75.686771	-2.592112
58901	9.577974	-0.171987	2.387247	0.049708	0.011708	0.059673	1.000000	0.000031	0.000033	0.000019	-4.452885	-75.685324	-2.591294
58902	9.556682	-0.164851	2.414005	0.019659	0.022247	0.045502	1.000000	0.000019	0.000016	0.000011	-4.451480	-75.685809	-2.595378
58903	9.566076	-0.185524	2.405036	0.028105	0.000569	0.052790	1.000000	0.000023	0.000022	0.000022	-4.454458	-75.685514	-2.592834
58904	9.565956	-0.185764	2.405493	0.027676	0.000435	0.052791	1.000000	0.000025	0.000025	0.000015	-4.453891	-75.685028	-2.592781
58905	9.563862	-0.176448	2.447239	-0.011692	0.014670	0.060874	1.000000	0.000018	0.000034	0.000007	-4.450264	-75.683514	-2.597657
58906	9.584925	-0.183833	2.421392	0.017493	0.003863	0.075052	1.000000	0.000036	0.000010	0.000014	-4.448811	-75.684759	-2.599675
58907	9.663700	-0.184994	2.440069	0.018697	0.004118	0.156008	1.000000	0.000025	0.000015	0.000021	-4.451153	-75.685358	-2.597595
58908	9.621779	-0.154203	2.329967	0.117811	0.021816	0.087656	1.000000	0.000019	0.000016	0.000011	-4.449693	-75.685871	-2.600926
58909	9.465681	-0.134823	2.448858	-0.032759	0.056870	-0.034657	1.000000	0.000027	0.000026	-0.000017	-4.434342	-75.685561	-2.616806
58910	9.331456	-0.063495	2.412281	-0.021977	0.124491	-0.175093	1.000000	0.000012	0.000037	0.000023	-4.438261	-75.683563	-2.614741
58911	9.446795	-0.292484	2.456416	-0.062980	-0.098277	-0.048065	1.000000	-0.000031	0.000050	0.000046	-4.456975	-75.679898	-2.602293
58912	9.673242	-0.147644	2.304165	0.157120	0.025117	0.131017	1.000000	0.000017	0.000016	0.000043	-4.470338	-75.680191	-2.589621
58913	9.665026	-0.153266	2.435789	0.027986	0.035727	0.155624	1.000000	0.000106	0.000035	0.000019	-4.462127	-75.678477	-2.588826
58914	9.557947	-0.288848	2.433686	-0.012316	-0.098117	0.053965	1.000000	0.000060	0.000052	0.000026	-4.461384	-75.674819	-2.587531
58915	9.575673	-0.148498	2.591322	-0.142121	0.060242	0.107327	1.000000	0.000025	0.000036	0.000035	-4.469380	-75.672865	-2.579545
58916	9.586691	-0.221957	2.507996	-0.067729	-0.022631	0.098864	1.000000	0.000050	0.000039	0.000036	-4.474698	-75.670504	-2.573522
58917	9.539953	-0.231662	2.609945	-0.178198	-0.019356	0.078928	1.000000	0.000042	0.000028	0.000013	-4.471258	-75.669692	-2.575357
58918	9.464691	-0.293049	2.476071	-0.075326	-0.095464	-0.025839	1.000000	0.000030	0.000024	0.000050	-4.485727	-75.668932	-2.559333
58919	9.502560	-0.375637	2.438997	-0.040380	-0.181817	0.003308	1.000000	-0.000032	-0.000002	0.000022	-4.495964	-75.671455	-2.555820
58920	9.590832	-0.156395	2.493741	-0.045632	0.041668	0.098087	1.000000	0.000029	-0.000040	0.000007	-4.493655	-75.678390	-2.557602
58921	9.578751	-0.255155	2.443197	-0.012775	-0.062927	0.075824	1.000000	0.000116	-0.000003	-0.000021	-4.467446	-75.681328	-2.574163
58922	9.548200	-0.296925	2.248792	0.161195	-0.128085	-0.000910	1.000000	-0.000037	0.000009	0.000007	-4.471092	-75.682597	-2.579323
58923	9.576103	-0.090637	2.463428	-0.013735	0.102397	0.075071	1.000000	-0.000024	0.000007	-0.000006	-4.467394	-75.684344	-2.589242
58924	9.552338	-0.159579	2.464240	-0.028658	0.033768	0.053576	1.000000	0.000099	0.000043	-0.000014	-4.444697	-75.681993	-2.603712
58925	9.505802	-0.238521	2.336001	0.073707	-0.060242	-0.021620	1.000000	0.000000	0.000010	-0.000005	-4.438337	-75.683353	-2.613486
58926	9.513718	-0.163519	2.435194	-0.010831	0.026119	0.009071	1.000000	-0.000024	0.000018	0.000014	-4.443150	-75.683640	-2.612272
58927	9.550288	-0.106799	2.540146	-0.095872	0.094620	0.069296	1.000000	0.000063	0.000025	0.000002	-4.432659	-75.683204	-2.618948
58928	9.592359	-0.164419	2.454417	-0.010126	0.026224	0.090027	1.000000	0.000054	0.000005	0.000011	-4.427599	-75.685036	-2.619520
58929	9.585057	-0.110427	2.456218	-0.007456	0.080056	0.082364	1.000000	0.000026	0.000007	0.000019	-4.429306	-75.686527	-2.617904
58930	9.588991	-0.129771	2.373989	0.069974	0.051076	0.066276	1.000000	0.000022	0.000002	0.000033	-4.437994	-75.688415	-2.610556
58931	9.613761	-0.129637	2.461754	-0.008824	0.061929	0.111905	1.000000	0.000027	-0.000021	0.000028	-4.444772	-75.692976	-2.603604
58932	9.584638	-0.197753	2.388841	0.045257	-0.013988	0.067025	1.000000	0.000059	-0.000007	0.000026	-4.446340	-75.695996	-2.599704
58933	9.555915	-0.179554	2.383333	0.045352	0.003748	0.037488	1.000000	0.000019	0.000016	0.000011	-4.444919	-75.696464	-2.602156
58934	9.546089	-0.202459	2.359482	0.063096	-0.021650	0.022530	1.000000	0.000036	0.000021	0.000034	-4.451908	-75.696206	-2.593184
58935	9.546219	-0.159694	2.393442	0.035684	0.025049	0.030202	1.000000	0.000025	0.000025	0.000015	-4.451396	-75.695715	-2.594005
58936	9.536595	-0.139405	2.403298	0.026441	0.046483	0.022914	1.000000	0.000038	0.000033	0.000022	-4.452041	-75.694204	-2.592696
58937	9.536182	-0.182646	2.370441	0.052997	-0.000484	0.015248	1.000000	0.000025	0.000035	0.000010	-4.448674	-75.692626	-2.596419
58938	9.552998	-0.214228	2.393637	0.031270	-0.029307	0.037863	1.000000	-0.000007	0.000031	0.000006	-4.447753	-75.691530	-2.600615
58939	9.572300	-0.169249	2.442641	-0.005485	0.021098	0.067778	1.000000	0.000006	0.000029	0.000019	-4.450806	-75.690467	-2.599957
58940	9.583875	-0.156316	2.426242	0.014841	0.031788	0.074705	1.000000	0.000027	0.000027	0.000008	-4.446800	-75.689822	-2.604140
58941	9.588974	-0.201025	2.466347	-0.027649	-0.007853	0.090386	1.000000	0.000046	0.000033	0.000024	-4.447749	-75.688244	-2.600992
58942	9.591074	-0.167462	2.459228	-0.016121	0.024402	0.090024	1.000000	0.000023	0.000021	-0.000003	-4.439248	-75.688294	-2.610709
58943	9.512191	-0.166458	2.440953	-0.018055	0.023928	0.009066	1.000000	0.000019	0.000007	0.000016	-4.440681	-75.689849	-2.610262
58944	9.552541	-0.172052	2.429842	0.001731	0.016744	0.045532	1.000000	0.000030	0.000013	0.000030	-4.446816	-75.690577	-2.602783
58945	9.559947	-0.183381	2.461981	-0.028812	0.009500	0.060845	1.000000	0.000025	0.000015	0.000021	-4.449158	-75.691174	-2.600705
58946	9.573570	-0.180098	2.404252	0.030434	0.005726	0.059757	1.000000	0.000031	0.000023	0.000025	-4.452437	-75.690848	-2.594034
58947	9.582914	-0.200932	2.395484	0.038807	-0.015981	0.067049	1.000000	0.000021	0.000030	0.000024	-4.456041	-75.689656	-2.591039
58948	9.549837	-0.207030	2.439198	-0.011950	-0.016164	0.045889	1.000000	-0.000003	0.000027	0.000023	-4.462229	-75.688874	-2.587135
58949	9.540173	-0.187065	2.449162	-0.021176	0.005282	0.038597	1.000000	0.000039	0.000044	0.000042	-4.471405	-75.685894	-2.576357
58950	9.559174	-0.185349	2.464834	-0.030959	0.008854	0.060839	1.000000	0.000023	0.000032	0.000017	-4.471529	-75.684490	-2.576837
58951	9.554481	-0.252827	2.480850	-0.055323	-0.056042	0.061544	1.000000	0.000027	0.000038	0.000028	-4.476034	-75.682338	-2.572218
58952	9.535079	-0.255349	2.466664	-0.046392	-0.059874	0.039298	1.000000	0.000035	0.000038	0.000030	-4.480755	-75.680113	-2.565420
58953	9.523399	-0.225625	2.517778	-0.094531	-0.023950	0.040014	1.000000	0.000031	0.000033	0.000019	-4.481146	-75.678663	-2.564618
58954	9.556172	-0.220100	2.475286	-0.044639	-0.024049	0.061184	1.000000	0.000040	0.000035	0.000015	-4.478260	-75.676942	-2.564337
58955	9.548613	-0.209140	2.443805	-0.014942	-0.017075	0.045883	1.000000	0.000047	0.000004	0.000008	-4.472934	-75.678811	-2.567544
58956	9.556049	-0.220096	2.475763	-0.045496	-0.024306	0.061180	1.000000	0.000037	0.000002	0.000013	-4.470776	-75.680922	-2.567635
58957	9.560335	-0.196019	2.426931	0.004968	-0.006534	0.052826	1.000000	0.000034	-0.000004	0.000002	-4.464266	-75.683814	-2.573641
58958	9.519909	-0.190699	2.438270	-0.015642	0.000416	0.016348	1.000000	0.000036	0.000010	0.000014	-4.462837	-75.685032	-2.575116
58959	9.572010	-0.183014	2.410237	0.024879	0.004005	0.059773	1.000000	0.000021	0.000009	0.000009	-4.460788	-75.686393	-2.578024
58960	9.548496	-0.209159	2.444261	-0.017083	-0.017721	0.045879	1.000000	0.000032	0.000004	0.000003	-4.454896	-75.688410	-2.581376
58961	9.562471	-0.162490	2.419754	0.015239	0.025324	0.052483	1.000000	0.000021	0.000009	0.000009	-4.452847	-75.689771	-2.584286
58962	9.550684	-0.175642	2.436877	-0.005958	0.014398	0.045534	1.000000	0.000021	0.000009	0.000009	-4.450786	-75.691162	-2.585967
58963	9.550624	-0.175803	2.437099	-0.006385	0.014268	0.045534	1.000000	0.000010	0.000014	0.000015	-4.452572	-75.691886	-2.586232
58964	9.569739	-0.173859	2.452333	-0.016181	0.017839	0.067772	1.000000	0.000019	0.000017	0.000011	-4.451053	-75.692352	-2.590024
58965	9.600326	-0.202032	2.417264	0.021706	-0.014669	0.089310	1.000000	0.000038	0.000023	0.000027	-4.454579	-75.691924	-2.585148
58966	9.571554	-0.183794	2.411986	0.021881	0.003077	0.059781	1.000000	0.000014	0.000018	0.000001	-4.449377	-75.692221	-2.593380
58967	9.531050	-0.178453	2.423618	0.001287	0.010039	0.023297	1.000000	0.000036	0.000019	0.000009	-4.445024	-75.692366	-2.596852
58968	9.552436	-0.142728	2.431174	0.003489	0.045985	0.045197	1.000000	0.000045	0.000012	0.000010	-4.440278	-75.693337	-2.599020
58969	9.585327	-0.137176	2.388327	0.053368	0.045838	0.066405	1.000000	0.000049	0.000018	0.000021	-4.439968	-75.693545	-2.596790
58970	9.554278	-0.152550	2.390764	0.041553	0.031213	0.037214	1.000000	0.000040	0.000025	0.000020	-4.439980	-75.692891	-2.595328
58971	9.551911	-0.186277	2.398816	0.029122	-0.001290	0.037550	1.000000	0.000036	0.000010	0.000014	-4.438485	-75.694122	-2.595898
58972	9.573295	-0.150792	2.406373	0.031324	0.034654	0.059453	1.000000	0.000038	0.000023	0.000027	-4.442002	-75.693710	-2.591340
58973	9.542258	-0.166364	2.408736	0.019504	0.020035	0.030259	1.000000	0.000030	0.000013	0.000030	-4.448109	-75.694433	-2.584732
58974	9.580282	-0.205420	2.405607	0.027228	-0.019576	0.067081	1.000000	0.000022	0.000029	-0.000002	-4.440218	-75.693561	-2.595514
58975	9.572984	-0.151321	2.407574	0.030057	0.034250	0.059459	1.000000	0.000027	0.000017	0.000013	-4.439072	-75.693962	-2.596799
58976	9.558825	-0.198185	2.432696	-0.003157	-0.009024	0.052825	1.000000	0.000014	0.000030	0.000021	-4.442367	-75.692828	-2.597999
58977	9.580166	-0.162798	2.440423	-0.000944	0.026920	0.074730	1.000000	0.000016	0.000022	0.000020	-4.445057	-75.692592	-2.596640
58978	9.558582	-0.198866	2.433595	-0.004016	-0.009283	0.052824	1.000000	0.000006	0.000019	0.000024	-4.450962	-75.692624	-2.592546
58979	9.560744	-0.165681	2.426353	0.007580	0.022950	0.052498	1.000000	0.000021	0.000030	0.000024	-4.454557	-75.691430	-2.589561
58980	9.550857	-0.188686	2.402819	0.025290	-0.002489	0.037560	1.000000	0.000005	0.000037	0.000020	-4.458146	-75.689420	-2.590009
58981	9.558119	-0.199801	2.435336	-0.005293	-0.009677	0.052823	1.000000	0.000027	0.000027	0.000008	-4.454142	-75.688734	-2.594198
58982	9.569738	-0.186942	2.418943	0.015053	0.000953	0.059794	1.000000	0.000029	0.000030	0.000026	-4.457885	-75.687470	-2.591173
58983	9.548364	-0.179814	2.445645	-0.014891	0.011655	0.045528	1.000000	0.000038	0.000023	0.000027	-4.461410	-75.687040	-2.586300
58984	9.545915	-0.213588	2.453939	-0.027357	-0.020838	0.045849	1.000000	0.000033	0.000035	0.000012	-4.458211	-75.685418	-2.587792
58985	9.536297	-0.193261	2.463730	-0.036524	0.000632	0.038554	1.000000	0.000038	0.000023	0.000027	-4.461735	-75.684988	-2.582920
58986	9.536195	-0.193562	2.464101	-0.036950	0.000501	0.038552	1.000000	0.000025	0.000015	0.000021	-4.464037	-75.685573	-2.579966
58987	9.545578	-0.214374	2.455181	-0.028642	-0.021226	0.045845	1.000000	0.000040	0.000015	0.000026	-4.466937	-75.686038	-2.575547
58988	9.564669	-0.212462	2.470463	-0.038461	-0.017646	0.068073	1.000000	0.000034	0.000017	0.000016	-4.466009	-75.686397	-2.574041
58989	9.564580	-0.212587	2.470797	-0.038891	-0.017774	0.068071	1.000000	0.000019	0.000017	0.000011	-4.464586	-75.686863	-2.576497
58990	9.554995	-0.192364	2.480449	-0.048047	0.003698	0.060774	1.000000	0.000027	0.000028	0.000033	-4.471875	-75.685767	-2.571631
58991	9.545164	-0.215411	2.456698	-0.030357	-0.021744	0.045839	1.000000	0.000025	0.000015	0.000021	-4.474217	-75.686360	-2.569556
58992	9.566324	-0.223182	2.430821	-0.001281	-0.032727	0.060113	1.000000	0.000025	0.000015	0.000021	-4.476478	-75.686952	-2.566143
58993	9.556783	-0.202914	2.440318	-0.010437	-0.011254	0.052818	1.000000	0.000017	0.000014	0.000018	-4.478542	-75.687610	-2.565239
58994	9.575916	-0.200941	2.455436	-0.020257	-0.007674	0.075045	1.000000	0.000030	0.000001	0.000010	-4.476040	-75.689800	-2.569349
58995	9.537492	-0.205310	2.425784	-0.001903	-0.015231	0.030589	1.000000	0.000033	0.000025	0.000018	-4.475798	-75.689242	-2.569010
58996	9.547114	-0.182705	2.450310	-0.020444	0.009958	0.045520	1.000000	0.000030	0.000011	0.000005	-4.470548	-75.690345	-2.574099
58997	9.549131	-0.192432	2.409374	0.018021	-0.004746	0.037575	1.000000	0.000026	0.000007	0.000019	-4.472267	-75.691833	-2.572475
58998	9.558799	-0.169847	2.433719	-0.000524	0.020440	0.052506	1.000000	0.000023	0.000011	0.000002	-4.466632	-75.693032	-2.576737
58999	9.577904	-0.167746	2.448954	-0.010346	0.024024	0.074732	1.000000	0.000027	0.000017	0.000013	-4.465486	-75.693433	-2.578022
59000	9.579884	-0.177525	2.408172	0.028111	0.009314	0.066792	1.000000	0.000034	0.000017	0.000016	-4.464620	-75.693805	-2.576927
59001	9.546762	-0.183098	2.451651	-0.022591	0.009309	0.045516	1.000000	0.000036	0.000019	0.000009	-4.460267	-75.693950	-2.580400
59002	9.560779	-0.136573	2.427291	0.009825	0.052262	0.052203	1.000000	0.000027	0.000017	0.000013	-4.459010	-75.694377	-2.580403
59003	9.560417	-0.179955	2.394354	0.036220	0.005198	0.044572	1.000000	0.000047	0.000026	0.000023	-4.459328	-75.693689	-2.577718
59004	9.579505	-0.178045	2.409642	0.026404	0.008780	0.066797	1.000000	0.000026	0.000007	0.000019	-4.461040	-75.695121	-2.577627
59005	9.579427	-0.178319	2.409931	0.025976	0.008648	0.066798	1.000000	0.000023	0.000022	0.000022	-4.464004	-75.694819	-2.575102
59006	9.548365	-0.193680	2.412307	0.014170	-0.005939	0.037581	1.000000	0.000019	0.000017	0.000011	-4.462456	-75.695258	-2.578346
59007	9.550632	-0.160216	2.404787	0.025822	0.026273	0.037282	1.000000	0.000021	0.000009	0.000009	-4.460407	-75.696618	-2.581256
59008	9.557930	-0.171212	2.437034	-0.004798	0.019130	0.052508	1.000000	0.000018	0.000024	0.000012	-4.459640	-75.696243	-2.583627
59009	9.567263	-0.191923	2.428325	0.003476	-0.002613	0.059804	1.000000	0.000033	0.000025	0.000018	-4.459396	-75.695684	-2.583290
59010	9.578934	-0.179157	2.411827	0.023831	0.007981	0.066804	1.000000	0.000023	0.000022	0.000022	-4.462292	-75.695381	-2.580150
59011	9.569334	-0.158794	2.421566	0.014705	0.029464	0.059509	1.000000	0.000025	0.000035	0.000009	-4.458902	-75.693801	-2.583897
59012	9.566882	-0.192353	2.429792	0.002184	-0.003013	0.059805	1.000000	0.000030	0.000011	0.000005	-4.453516	-75.694938	-2.587743
59013	9.536051	-0.164183	2.465583	-0.036417	0.029362	0.038208	1.000000	0.000020	0.000036	-0.000000	-4.446357	-75.693230	-2.596023
59014	9.578413	-0.179385	2.413878	0.022098	0.007443	0.066809	1.000000	0.000038	0.000023	0.000027	-4.449717	-75.692876	-2.590122
59015	9.545210	-0.185042	2.457541	-0.028591	0.007483	0.045502	1.000000	0.000025	0.000035	0.000009	-4.446327	-75.691295	-2.593868
59016	9.547422	-0.151577	2.450257	-0.016925	0.039692	0.045210	1.000000	0.000027	0.000017	0.000013	-4.445156	-75.691711	-2.596042
59017	9.558874	-0.182026	2.400351	0.030220	0.003327	0.044593	1.000000	0.000016	0.000022	0.000020	-4.447839	-75.691473	-2.594692
59018	9.554342	-0.206247	2.449577	-0.021179	-0.014525	0.052796	1.000000	0.000015	0.000012	0.000025	-4.453272	-75.692258	-2.592943
59019	9.575742	-0.170934	2.457173	-0.018915	0.021401	0.074726	1.000000	0.000021	0.000030	0.000024	-4.456856	-75.691060	-2.589970
59020	9.525482	-0.188457	2.444657	-0.021301	0.003116	0.023278	1.000000	0.000049	0.000018	0.000021	-4.456561	-75.691221	-2.587504
59021	9.565804	-0.194104	2.433890	-0.001670	-0.004199	0.059804	1.000000	0.000008	0.000022	0.000017	-4.458961	-75.691047	-2.587330
59022	9.563332	-0.227882	2.442132	-0.014216	-0.036665	0.060089	1.000000	0.000025	0.000025	0.000015	-4.458354	-75.690607	-2.586634
59023	9.561124	-0.218410	2.483629	-0.053525	-0.022164	0.067994	1.000000	0.000032	0.000015	0.000023	-4.460977	-75.691134	-2.583387
59024	9.565475	-0.194792	2.435129	-0.002960	-0.004594	0.059804	1.000000	0.000040	0.000025	0.000020	-4.460987	-75.690475	-2.585545
59025	9.572719	-0.205880	2.467465	-0.033592	-0.011709	0.075004	1.000000	0.000025	0.000015	0.000021	-4.463329	-75.691066	-2.583472
59026	9.565281	-0.195157	2.435862	-0.003818	-0.004854	0.059803	1.000000	0.000036	0.000019	0.000009	-4.458986	-75.691219	-2.588517
59027	9.543688	-0.230878	2.428968	-0.006952	-0.041035	0.037868	1.000000	0.000021	0.000009	0.000009	-4.456938	-75.692579	-2.591426
59028	9.555433	-0.217998	2.412265	0.013404	-0.030466	0.044886	1.000000	0.000034	0.000017	0.000016	-4.455978	-75.692947	-2.589735
59029	9.536421	-0.177110	2.430981	-0.004360	0.012654	0.030289	1.000000	0.000038	0.000023	0.000027	-4.459502	-75.692513	-2.584866
59030	9.574353	-0.216206	2.428161	0.003128	-0.027004	0.067101	1.000000	0.000029	0.000029	0.000001	-4.452017	-75.691623	-2.594860
59031	9.576622	-0.182646	2.420733	0.014827	0.005191	0.066824	1.000000	0.000036	0.000010	0.000014	-4.450532	-75.692854	-2.595422
59032	9.557396	-0.184893	2.406011	0.023822	0.001330	0.044611	1.000000	0.000019	0.000017	0.000011	-4.448985	-75.693292	-2.598068
59033	9.543397	-0.188253	2.464330	-0.036270	0.005161	0.045479	1.000000	0.000028	0.000009	0.000012	-4.447218	-75.694587	-2.599804
59034	9.576421	-0.182960	2.421502	0.013554	0.004787	0.066826	1.000000	0.000019	0.000017	0.000011	-4.445697	-75.695005	-2.603388
59035	9.574238	-0.173341	2.462860	-0.025745	0.019319	0.074714	1.000000	0.000036	0.000010	0.000014	-4.444212	-75.696235	-2.603950
59036	9.557151	-0.185377	2.406948	0.022118	0.000800	0.044615	1.000000	0.000026	0.000007	0.000019	-4.445978	-75.697729	-2.604546
59037	9.583562	-0.194348	2.454172	-0.017949	-0.002568	0.082012	1.000000	0.000023	0.000022	0.000022	-4.448938	-75.697425	-2.602026
59038	9.559385	-0.152274	2.399642	0.033404	0.032855	0.044347	1.000000	0.000015	0.000001	0.000005	-4.445974	-75.699770	-2.607828
59039	9.566647	-0.163139	2.431869	0.002759	0.025764	0.059530	1.000000	0.000035	0.000027	0.000010	-4.442238	-75.699019	-2.610857
59040	9.564155	-0.196696	2.440154	-0.009826	-0.006685	0.059798	1.000000	0.000036	0.000019	0.000009	-4.437839	-75.699214	-2.613420
59041	9.556731	-0.185939	2.408570	0.019967	0.000141	0.044619	1.000000	0.000042	0.000018	0.000019	-4.437256	-75.699484	-2.612360
59042	9.537466	-0.188167	2.394021	0.028962	-0.003718	0.022410	1.000000	0.000027	0.000027	0.000008	-4.433232	-75.698820	-2.615067
59043	9.547040	-0.165552	2.418650	0.010465	0.021513	0.037322	1.000000	0.000032	0.000025	0.000018	-4.432986	-75.698260	-2.614734
59044	9.566060	-0.163521	2.434152	0.000604	0.025110	0.059532	1.000000	0.000042	0.000028	0.000013	-4.429521	-75.697484	-2.615406
59045	9.546776	-0.165683	2.419685	0.009606	0.021252	0.037323	1.000000	0.000012	0.000026	0.000003	-4.424937	-75.696926	-2.621960
59046	9.546633	-0.165867	2.420236	0.009192	0.021114	0.037324	1.000000	0.000036	0.000031	0.000029	-4.428943	-75.695526	-2.619232
59047	9.546488	-0.166057	2.420793	0.008766	0.020984	0.037324	1.000000	0.000020	0.000026	0.000005	-4.424642	-75.694904	-2.624611
59048	9.565516	-0.164066	2.436253	-0.001096	0.024579	0.059533	1.000000	0.000016	0.000022	0.000020	-4.427237	-75.694696	-2.623263
59049	9.563011	-0.197830	2.444544	-0.013689	-0.007862	0.059793	1.000000	0.000018	0.000024	0.000012	-4.426425	-75.694265	-2.625281
59050	9.534291	-0.179546	2.439147	-0.013316	0.009915	0.030284	1.000000	0.000018	0.000024	0.000012	-4.425532	-75.693830	-2.627315
59051	9.565151	-0.164607	2.437650	-0.002376	0.024185	0.059534	1.000000	0.000032	0.000025	0.000018	-4.425286	-75.693269	-2.626982
59052	9.514896	-0.182095	2.425091	-0.004728	0.005922	0.008077	1.000000	0.000023	0.000022	0.000022	-4.428161	-75.692923	-2.625036
59053	9.574368	-0.185888	2.429384	0.005403	0.002279	0.066835	1.000000	0.000019	0.000018	0.000036	-4.438096	-75.692999	-2.615800
59054	9.562407	-0.199160	2.446796	-0.015832	-0.008517	0.059789	1.000000	0.000035	0.000027	0.000010	-4.434334	-75.692282	-2.618947
59055	9.562297	-0.199317	2.447213	-0.016261	-0.008647	0.059788	1.000000	0.000032	0.000015	0.000023	-4.436958	-75.692807	-2.615701
59056	9.533605	-0.181180	2.441705	-0.015868	0.009134	0.030281	1.000000	0.000030	0.000023	0.000025	-4.440179	-75.692403	-2.611455
59057	9.562080	-0.200009	2.448008	-0.017112	-0.008907	0.059786	1.000000	0.000021	0.000020	0.000029	-4.446625	-75.692288	-2.605580
59058	9.571429	-0.220959	2.439237	-0.008929	-0.030683	0.067086	1.000000	0.000025	0.000015	0.000021	-4.448906	-75.692908	-2.604119
59059	9.544886	-0.212522	2.392658	0.030320	-0.027619	0.029729	1.000000	0.000032	0.000025	0.000018	-4.448659	-75.692347	-2.603788
59060	9.561780	-0.200887	2.449105	-0.018408	-0.009299	0.059784	1.000000	0.000015	0.000012	0.000025	-4.454162	-75.693211	-2.598657
59061	9.542517	-0.203352	2.434551	-0.009396	-0.013161	0.037579	1.000000	0.000046	0.000033	0.000024	-4.455097	-75.691624	-2.595532
59062	9.570950	-0.222007	2.441020	-0.010660	-0.031207	0.067083	1.000000	0.000032	0.000025	0.000018	-4.454770	-75.691095	-2.595178
59063	9.570860	-0.222140	2.441360	-0.011090	-0.031337	0.067082	1.000000	0.000028	0.000009	0.000012	-4.453007	-75.692389	-2.596912
59064	9.563509	-0.211525	2.409625	0.018725	-0.024547	0.051935	1.000000	0.000025	0.000015	0.000021	-4.455351	-75.692984	-2.593062
59065	9.532430	-0.226808	2.411907	0.006936	-0.039063	0.022676	1.000000	0.000027	0.000017	0.000013	-4.454204	-75.693382	-2.594352
59066	9.553858	-0.191305	2.419525	0.009262	-0.003159	0.044635	1.000000	0.000031	0.000033	0.000019	-4.454626	-75.691919	-2.595415
59067	9.541877	-0.204485	2.436962	-0.011971	-0.013937	0.037576	1.000000	0.000025	0.000015	0.000021	-4.456968	-75.692508	-2.593345
59068	9.551274	-0.225234	2.428024	-0.003794	-0.035717	0.044877	1.000000	0.000022	0.000001	0.000008	-4.454310	-75.694740	-2.597589
59069	9.563357	-0.168957	2.444381	-0.010064	0.021836	0.059535	1.000000	0.000030	0.000011	0.000005	-4.449058	-75.695844	-2.602684
59070	9.594028	-0.197330	2.409478	0.027512	-0.010958	0.081201	1.000000	0.000032	0.000015	0.000023	-4.451624	-75.696357	-2.600610
59071	9.565384	-0.179075	2.403816	0.027934	0.006827	0.051700	1.000000	0.000036	0.000010	0.000014	-4.450145	-75.697586	-2.601168
59072	9.553455	-0.192114	2.421051	0.006700	-0.003944	0.044637	1.000000	0.000019	0.000017	0.000011	-4.448746	-75.698048	-2.604340
59073	9.553387	-0.192223	2.421311	0.006272	-0.004075	0.044637	1.000000	0.000036	0.000010	0.000014	-4.447267	-75.699277	-2.604898
59074	9.574879	-0.156665	2.428696	0.008608	0.031819	0.066600	1.000000	0.000027	0.000017	0.000013	-4.446003	-75.699693	-2.605156
59075	9.584211	-0.177418	2.420018	0.016770	0.010033	0.073904	1.000000	0.000032	0.000025	0.000018	-4.445754	-75.699131	-2.604828
59076	9.562815	-0.169803	2.446442	-0.013042	0.020921	0.059533	1.000000	0.000030	0.000011	0.000005	-4.440472	-75.700169	-2.611394
59077	9.574572	-0.156945	2.429887	0.007339	0.031425	0.066603	1.000000	0.000016	0.000032	0.000014	-4.440267	-75.698841	-2.612976
59078	9.543431	-0.172271	2.432386	-0.004442	0.016921	0.037335	1.000000	0.000030	0.000023	0.000025	-4.443440	-75.698461	-2.610500
59079	9.571876	-0.190897	2.438798	-0.005740	-0.001128	0.066835	1.000000	0.000027	0.000027	0.000008	-4.439415	-75.697773	-2.614711
59080	9.552874	-0.149860	2.457445	-0.023328	0.042055	0.052229	1.000000	0.000030	0.000023	0.000025	-4.442560	-75.697397	-2.610929
