// Start Time: Unknown
// Update Rate: 100.0Hz
// Filter Profile: human (46.1)
// Firmware Version: 4.4.0
PacketCounter	Acc_X	Acc_Y	Acc_Z	FreeAcc_X	FreeAcc_Y	FreeAcc_Z	OriInc_q0	OriInc_q1	OriInc_q2	OriInc_q3	Roll	Pitch	Yaw
61523	1.485874	-0.373334	9.685279	-0.008683	0.033048	-0.007043	1.000000	-0.000046	0.000026	0.000014	-2.372450	-8.595297	51.279997
61524	1.471458	-0.354515	9.685510	-0.032898	0.034593	-0.009744	1.000000	-0.000056	-0.000004	0.000024	-2.379337	-8.595608	51.282850
61525	1.457832	-0.395181	9.692056	-0.011122	-0.001246	-0.003647	1.000000	-0.000048	0.000033	0.000014	-2.384396	-8.591402	51.284231
61526	1.479222	-0.380085	9.651451	-0.004982	0.029366	-0.041189	1.000000	-0.000045	0.000008	0.000029	-2.390023	-8.590363	51.287570
61527	1.473736	-0.385303	9.705629	-0.011623	0.017703	0.011728	1.000000	-0.000036	0.000020	0.000016	-2.394408	-8.587992	51.289339
61528	1.484257	-0.378089	9.685343	-0.008553	0.033009	-0.007043	1.000000	-0.000043	0.000018	0.000014	-2.399613	-8.585841	51.290858
61529	1.469729	-0.359168	9.685601	-0.032754	0.034524	-0.009744	1.000000	-0.000050	0.000016	0.000012	-2.405417	-8.584015	51.292091
61530	1.458396	-0.368139	9.705941	-0.035825	0.019218	0.009027	1.000000	-0.000041	0.000026	0.000024	-2.410477	-8.580875	51.294730
61531	1.472183	-0.389046	9.705715	-0.011557	0.017614	0.011728	1.000000	-0.000063	0.000014	-0.000001	-2.417169	-8.579404	51.294507
61532	1.477121	-0.385585	9.651554	-0.004911	0.029268	-0.041189	1.000000	-0.000032	0.000014	0.000008	-2.420986	-8.577760	51.295421
61533	1.471820	-0.390944	9.705694	-0.011492	0.017520	0.011729	1.000000	-0.000060	-0.000006	0.000040	-2.427927	-8.578502	51.299965
61534	1.476822	-0.387649	9.651517	-0.004847	0.029175	-0.041189	1.000000	-0.000046	0.000026	0.000014	-2.433405	-8.575480	51.301449
61535	1.482105	-0.384980	9.685401	-0.008345	0.032693	-0.007042	1.000000	-0.000050	0.000016	0.000012	-2.438530	-8.573893	51.302580
61536	1.481793	-0.386021	9.685407	-0.008345	0.032693	-0.007042	1.000000	-0.000052	0.000015	0.000019	-2.444849	-8.572101	51.304731
61537	1.464850	-0.398670	9.671862	-0.007748	0.013540	-0.022417	1.000000	-0.000040	0.000017	0.000032	-2.448831	-8.570507	51.308122
61538	1.492043	-0.379915	9.665130	-0.005184	0.047804	-0.025811	1.000000	-0.000052	0.000015	0.000019	-2.455150	-8.568714	51.310272
61539	1.466859	-0.369054	9.685664	-0.032364	0.033780	-0.009740	1.000000	-0.000040	-0.000007	0.000029	-2.458779	-8.570221	51.313457
61540	1.480912	-0.390046	9.685380	-0.008149	0.032235	-0.007040	1.000000	-0.000069	0.000018	0.000015	-2.466905	-8.568040	51.315056
61541	1.455327	-0.379460	9.705966	-0.035283	0.018140	0.009031	1.000000	-0.000052	0.000031	0.000029	-2.471434	-8.565352	51.318003
61542	1.490952	-0.384286	9.665125	-0.004929	0.047211	-0.025808	1.000000	-0.000050	0.000007	0.000019	-2.477479	-8.564427	51.320185
61543	1.496426	-0.381754	9.698979	-0.008310	0.050447	0.008341	1.000000	-0.000054	0.000013	0.000027	-2.481741	-8.563925	51.322852
61544	1.479502	-0.394454	9.685417	-0.007806	0.031492	-0.007037	1.000000	-0.000045	0.000017	0.000022	-2.487295	-8.561891	51.325260
61545	1.464977	-0.375488	9.685702	-0.031794	0.032528	-0.009734	1.000000	-0.000043	0.000018	0.000014	-2.489564	-8.561226	51.326370
61546	1.475452	-0.368297	9.665444	-0.028725	0.047838	-0.028502	1.000000	-0.000041	0.000026	0.000024	-2.494622	-8.558080	51.329003
61547	1.509129	-0.405366	9.698787	0.016437	0.047769	0.011045	1.000000	-0.000045	0.000008	0.000029	-2.496545	-8.558767	51.331799
61548	1.489147	-0.390197	9.665167	-0.004207	0.045671	-0.025800	1.000000	-0.000064	0.000003	0.000014	-2.504119	-8.558323	51.333461
61549	1.492172	-0.419223	9.685172	0.017184	0.028114	-0.004334	1.000000	-0.000043	0.000018	0.000014	-2.505625	-8.558470	51.334380
61550	1.505333	-0.380491	9.678732	-0.004467	0.063925	-0.010415	1.000000	-0.000040	0.000002	0.000021	-2.510631	-8.558172	51.336853
61551	1.477526	-0.401126	9.685445	-0.006751	0.028834	-0.007028	1.000000	-0.000048	0.000024	0.000022	-2.512099	-8.558004	51.338738
61552	1.488067	-0.394115	9.665174	-0.003682	0.044148	-0.025793	1.000000	-0.000054	0.000013	0.000027	-2.518753	-8.556323	51.341777
61553	1.493365	-0.391600	9.699058	-0.006958	0.046919	0.008360	1.000000	-0.000048	0.000024	0.000022	-2.520024	-8.556281	51.343673
61554	1.473194	-0.376295	9.665480	-0.027601	0.044830	-0.028484	1.000000	-0.000050	0.000007	0.000019	-2.526043	-8.555340	51.345849
61555	1.503638	-0.385512	9.678796	-0.003508	0.061209	-0.010397	1.000000	-0.000046	0.000026	0.000014	-2.525970	-8.555594	51.346872
61556	1.486693	-0.398128	9.665221	-0.002999	0.042260	-0.025785	1.000000	-0.000050	0.000007	0.000019	-2.531977	-8.554641	51.349046
61557	1.502982	-0.387501	9.678819	-0.003182	0.060036	-0.010390	1.000000	-0.000051	0.000025	0.000004	-2.532056	-8.555932	51.348638
61558	1.483221	-0.373088	9.733271	-0.034019	0.049885	0.039828	1.000000	-0.000043	0.000009	0.000021	-2.537278	-8.554747	51.351071
61559	1.496701	-0.392954	9.644965	0.000664	0.055246	-0.044533	1.000000	-0.000050	0.000016	0.000012	-2.537706	-8.557145	51.351372
61560	1.487831	-0.370582	9.679144	-0.027108	0.060413	-0.013075	1.000000	-0.000055	0.000022	0.000019	-2.544251	-8.554459	51.353478
61561	1.490649	-0.399552	9.699151	-0.005537	0.042338	0.008381	1.000000	-0.000043	0.000018	0.000014	-2.543073	-8.556244	51.354417
61562	1.501084	-0.392432	9.678915	-0.002463	0.057662	-0.010376	1.000000	-0.000053	0.000033	0.000004	-2.549192	-8.552428	51.354699
61563	1.469803	-0.385102	9.665649	-0.025991	0.038880	-0.028454	1.000000	-0.000038	0.000019	0.000024	-2.548000	-8.555822	51.355941
61564	1.489364	-0.402370	9.699232	-0.005331	0.040946	0.008388	1.000000	-0.000050	0.000007	0.000019	-2.554012	-8.554868	51.358113
61565	1.464026	-0.391587	9.719795	-0.032115	0.025797	0.024458	1.000000	-0.000047	0.000015	0.000029	-2.552572	-8.557368	51.360884
61566	1.454816	-0.368143	9.665957	-0.049697	0.039064	-0.031136	1.000000	-0.000050	0.000016	0.000012	-2.558485	-8.555415	51.362126
61567	1.485314	-0.377335	9.679269	-0.025406	0.054873	-0.013038	1.000000	-0.000041	0.000011	0.000014	-2.554912	-8.559245	51.363000
61568	1.463075	-0.394437	9.719823	-0.031514	0.024205	0.024464	1.000000	-0.000048	0.000024	0.000022	-2.560665	-8.556301	51.365361
61569	1.478868	-0.382700	9.645440	-0.021450	0.049984	-0.047183	1.000000	-0.000043	0.000018	0.000014	-2.559358	-8.558623	51.365442
61570	1.470163	-0.360127	9.679621	-0.049214	0.055130	-0.015715	1.000000	-0.000039	0.000003	0.000014	-2.563964	-8.558168	51.367010
61571	1.483902	-0.380982	9.679343	-0.024109	0.052070	-0.013019	1.000000	-0.000054	0.000038	0.000029	-2.560968	-8.557261	51.370268
61572	1.514206	-0.390346	9.692680	-0.000372	0.069453	0.005072	1.000000	-0.000050	0.000007	0.000019	-2.566932	-8.556266	51.372430
61573	1.463726	-0.367653	9.733826	-0.054264	0.040312	0.037209	1.000000	-0.000033	0.000019	0.000034	-2.562528	-8.558579	51.375316
61574	1.482841	-0.383953	9.679388	-0.023419	0.050514	-0.013009	1.000000	-0.000065	0.000012	0.000007	-2.569929	-8.557078	51.376032
61575	1.454987	-0.404767	9.686029	-0.025281	0.014296	-0.009671	1.000000	-0.000045	0.000017	0.000022	-2.565036	-8.561426	51.377096
61576	1.482142	-0.386053	9.679412	-0.022701	0.048555	-0.012998	1.000000	-0.000050	0.000023	0.000029	-2.571074	-8.558612	51.380349
61577	1.478539	-0.359045	9.659491	-0.042990	0.064266	-0.034407	1.000000	-0.000045	0.000017	0.000021	-2.568180	-8.558753	51.382645
61578	1.483865	-0.356532	9.693386	-0.046510	0.067833	-0.000249	1.000000	-0.000050	0.000016	0.000012	-2.573988	-8.556776	51.383878
61579	1.497846	-0.377422	9.693058	-0.021677	0.064642	0.002440	1.000000	-0.000048	-0.000000	0.000019	-2.570862	-8.561998	51.384189
61580	1.467007	-0.370122	9.679723	-0.045376	0.047254	-0.015655	1.000000	-0.000050	0.000007	0.000019	-2.576731	-8.561042	51.386353
61581	1.497461	-0.379496	9.693037	-0.020606	0.062775	0.002454	1.000000	-0.000055	0.000022	0.000019	-2.571658	-8.562983	51.388387
61582	1.466298	-0.372191	9.679751	-0.044303	0.045390	-0.015642	1.000000	-0.000043	0.000018	0.000014	-2.576662	-8.560786	51.389882
61583	1.491067	-0.384945	9.659190	-0.016562	0.057758	-0.031695	1.000000	-0.000052	0.000015	0.000019	-2.575507	-8.563857	51.389718
61584	1.465569	-0.374196	9.679784	-0.043804	0.043935	-0.015633	1.000000	-0.000048	0.000024	0.000022	-2.581157	-8.560929	51.392076
61585	1.495916	-0.383509	9.693118	-0.019249	0.059756	0.002476	1.000000	-0.000050	0.000016	0.000012	-2.577598	-8.563044	51.392171
61586	1.479169	-0.396181	9.679457	-0.018733	0.040823	-0.012954	1.000000	-0.000056	-0.000004	0.000024	-2.584291	-8.563329	51.395001
61587	1.478816	-0.397087	9.679474	-0.018009	0.039664	-0.012948	1.000000	-0.000029	0.000038	0.000029	-2.580457	-8.561481	51.396765
61588	1.475076	-0.369827	9.659613	-0.039153	0.056557	-0.034343	1.000000	-0.000043	0.000018	0.000014	-2.585452	-8.559300	51.398260
61589	1.497180	-0.355824	9.707127	-0.042515	0.077850	0.015263	1.000000	-0.000056	-0.000004	0.000024	-2.585011	-8.562522	51.399593
61590	1.488842	-0.391823	9.659257	-0.014249	0.053825	-0.031669	1.000000	-0.000048	0.000024	0.000022	-2.590630	-8.559583	51.401948
61591	1.488342	-0.392780	9.659295	-0.014045	0.051972	-0.031659	1.000000	-0.000046	0.000026	0.000014	-2.588346	-8.564371	51.399929
61592	1.462832	-0.382008	9.679893	-0.041289	0.038131	-0.015598	1.000000	-0.000052	0.000015	0.000019	-2.594482	-8.562615	51.402067
61593	1.507339	-0.411338	9.692882	0.007932	0.051531	0.005179	1.000000	-0.000055	0.000022	0.000019	-2.586250	-8.566322	51.403726
61594	1.492888	-0.392479	9.693225	-0.016258	0.053039	0.002520	1.000000	-0.000048	0.000009	0.000011	-2.591647	-8.565370	51.405009
61595	1.489441	-0.365329	9.673336	-0.036311	0.068245	-0.018845	1.000000	-0.000038	0.000019	0.000024	-2.584839	-8.566814	51.408208
61596	1.492233	-0.394217	9.693256	-0.015094	0.051268	0.002531	1.000000	-0.000043	0.000018	0.000014	-2.589699	-8.564739	51.409715
61597	1.502900	-0.387150	9.673024	-0.011007	0.064634	-0.016173	1.000000	-0.000061	0.000012	0.000024	-2.584799	-8.568672	51.412300
61598	1.477427	-0.376516	9.693614	-0.038221	0.050748	-0.000110	1.000000	-0.000051	0.000025	0.000004	-2.590286	-8.565868	51.412621
61599	1.457197	-0.361114	9.660096	-0.057872	0.047285	-0.036917	1.000000	-0.000057	0.000021	0.000027	-2.586769	-8.566313	51.415775
61600	1.529271	-0.370728	9.666513	-0.007310	0.097292	-0.019421	1.000000	-0.000045	0.000017	0.000021	-2.591862	-8.564367	51.418172
61601	1.470602	-0.383014	9.659782	-0.032839	0.044272	-0.034256	1.000000	-0.000045	0.000017	0.000021	-2.588667	-8.565958	51.419195
61602	1.490053	-0.400551	9.693331	-0.012076	0.046159	0.002561	1.000000	-0.000054	0.000014	0.000027	-2.594833	-8.564381	51.422224
61603	1.500612	-0.393374	9.673129	-0.008715	0.059886	-0.016140	1.000000	-0.000042	0.000029	-0.000001	-2.591984	-8.567549	51.419296
61604	1.505805	-0.390884	9.707054	-0.012176	0.063313	0.018029	1.000000	-0.000047	0.000015	0.000029	-2.597389	-8.565779	51.422593
61605	1.458113	-0.395010	9.680083	-0.034970	0.025458	-0.015532	1.000000	-0.000043	0.000018	0.000014	-2.594418	-8.569377	51.422594
61606	1.491007	-0.372936	9.707435	-0.035879	0.063155	0.015395	1.000000	-0.000058	0.000014	0.000009	-2.600664	-8.567870	51.423586
61607	1.457400	-0.397085	9.680105	-0.034269	0.023437	-0.015524	1.000000	-0.000048	0.000024	0.000022	-2.596247	-8.571503	51.424553
61608	1.484638	-0.378300	9.673576	-0.031670	0.057631	-0.018760	1.000000	-0.000041	0.000011	0.000014	-2.600649	-8.570435	51.426106
61609	1.476590	-0.415391	9.713654	-0.012804	0.023979	0.021295	1.000000	-0.000043	0.000009	0.000021	-2.597867	-8.572656	51.427262
61610	1.498276	-0.399962	9.673220	-0.006700	0.054687	-0.016108	1.000000	-0.000043	0.000018	0.000014	-2.602512	-8.570727	51.428782
61611	1.447683	-0.377311	9.714405	-0.060564	0.025125	0.016021	1.000000	-0.000038	0.000019	0.000024	-2.597453	-8.574726	51.429996
61612	1.483361	-0.381864	9.673632	-0.030240	0.054273	-0.018737	1.000000	-0.000055	0.000023	0.000019	-2.603440	-8.572334	51.432121
61613	1.486129	-0.411068	9.693493	-0.008151	0.035923	0.002608	1.000000	-0.000058	0.000014	0.000009	-2.600870	-8.573750	51.432431
61614	1.482816	-0.383956	9.673632	-0.029292	0.052775	-0.018726	1.000000	-0.000039	0.000003	0.000014	-2.604872	-8.573617	51.434021
61615	1.482610	-0.384820	9.673630	-0.028706	0.051461	-0.018717	1.000000	-0.000045	0.000017	0.000021	-2.602867	-8.575449	51.435808
61616	1.482266	-0.385761	9.673645	-0.028651	0.051352	-0.018716	1.000000	-0.000045	0.000017	0.000021	-2.607765	-8.573702	51.438226
61617	1.456801	-0.374930	9.694245	-0.054914	0.035689	-0.002644	1.000000	-0.000043	0.000018	0.000014	-2.601690	-8.576251	51.439318
61618	1.481642	-0.387590	9.673667	-0.027609	0.049424	-0.018703	1.000000	-0.000045	0.000008	0.000029	-2.606586	-8.575526	51.442664
61619	1.475902	-0.393299	9.727799	-0.033892	0.036228	0.034169	1.000000	-0.000042	0.000029	-0.000001	-2.605761	-8.577110	51.439832
61620	1.483964	-0.417466	9.693552	-0.006122	0.031093	0.002626	1.000000	-0.000047	0.000015	0.000029	-2.610941	-8.575549	51.443150
61621	1.480707	-0.390212	9.673705	-0.025327	0.047406	-0.018687	1.000000	-0.000031	-0.000004	0.000024	-2.603152	-8.571461	51.450078
61622	1.497120	-0.379593	9.687396	-0.025716	0.066154	-0.003199	1.000000	-0.000055	0.000023	0.000019	-2.608940	-8.569037	51.452191
61623	1.469107	-0.400284	9.693926	-0.026308	0.030294	0.000013	1.000000	-0.000043	0.000018	0.000014	-2.599179	-8.566900	51.456692
61624	1.490715	-0.384743	9.653543	-0.020187	0.061006	-0.037360	1.000000	-0.000036	0.000020	0.000016	-2.602679	-8.564709	51.458457
61625	1.490352	-0.385618	9.653564	-0.019894	0.059911	-0.037353	1.000000	-0.000047	0.000015	0.000029	-2.603196	-8.566753	51.460243
61626	1.464991	-0.374863	9.674148	-0.047030	0.045914	-0.021286	1.000000	-0.000048	0.000009	0.000011	-2.607976	-8.565924	51.461519
61627	1.467759	-0.403911	9.693980	-0.026194	0.026987	0.000023	1.000000	-0.000046	0.000026	0.000014	-2.608040	-8.573306	51.458471
61628	1.481047	-0.365176	9.687867	-0.047790	0.062686	-0.005781	1.000000	-0.000041	-0.000005	0.000004	-2.611942	-8.574211	51.458937
61629	1.478373	-0.397561	9.673763	-0.022179	0.040444	-0.018648	1.000000	-0.000055	0.000023	0.000019	-2.607469	-8.576559	51.461261
61630	1.480473	-0.367172	9.687880	-0.046780	0.060703	-0.005763	1.000000	-0.000045	0.000017	0.000021	-2.612059	-8.574888	51.463680
61631	1.466554	-0.407744	9.694002	-0.024607	0.022747	0.000038	1.000000	-0.000048	0.000024	0.000022	-2.607753	-8.579930	51.463291
61632	1.477160	-0.400583	9.673824	-0.021512	0.038010	-0.018637	1.000000	-0.000052	0.000015	0.000019	-2.613040	-8.578583	51.465458
61633	1.487841	-0.393395	9.653637	-0.016996	0.051967	-0.037302	1.000000	-0.000045	0.000017	0.000021	-2.606041	-8.577764	51.470004
61634	1.509636	-0.379570	9.701288	-0.020823	0.074052	0.012390	1.000000	-0.000048	0.000025	0.000022	-2.610744	-8.575291	51.472395
61635	1.487153	-0.395279	9.653666	-0.015777	0.049883	-0.037289	1.000000	-0.000044	0.000003	0.000004	-2.603494	-8.579670	51.472841
61636	1.453345	-0.361270	9.708553	-0.070578	0.040761	0.010351	1.000000	-0.000047	0.000015	0.000029	-2.608180	-8.578222	51.476160
61637	1.489784	-0.425209	9.673455	0.006099	0.031940	-0.016007	1.000000	-0.000036	0.000011	0.000024	-2.607419	-8.578281	51.478525
61638	1.477985	-0.374773	9.687969	-0.042702	0.053703	-0.005704	1.000000	-0.000050	0.000007	0.000019	-2.612263	-8.577806	51.480719
61639	1.477671	-0.375815	9.687976	-0.042081	0.052512	-0.005695	1.000000	-0.000053	0.000024	0.000012	-2.611240	-8.578195	51.481587
61640	1.477345	-0.376827	9.687987	-0.041970	0.052320	-0.005693	1.000000	-0.000048	0.000009	0.000011	-2.615720	-8.577607	51.482889
61641	1.499684	-0.420873	9.653270	0.010547	0.042955	-0.034658	1.000000	-0.000043	0.000018	0.000014	-2.607442	-8.586434	51.483811
61642	1.493305	-0.367370	9.701736	-0.041706	0.068072	0.009849	1.000000	-0.000064	0.000019	0.000024	-2.613849	-8.584695	51.486585
61643	1.490347	-0.399890	9.687624	-0.016362	0.046141	-0.003064	1.000000	-0.000046	0.000026	0.000014	-2.610566	-8.586324	51.486622
61644	1.489950	-0.400679	9.687652	-0.016249	0.045916	-0.003063	1.000000	-0.000032	0.000014	0.000008	-2.613030	-8.585285	51.487572
61645	1.461487	-0.361781	9.688474	-0.065154	0.048714	-0.008263	1.000000	-0.000061	0.000012	0.000024	-2.621498	-8.586958	51.485923
61646	1.489447	-0.402651	9.687648	-0.016602	0.045382	-0.003061	1.000000	-0.000039	0.000012	0.000006	-2.624802	-8.586173	51.486615
61647	1.491590	-0.372141	9.701818	-0.039265	0.064047	0.009886	1.000000	-0.000048	0.000025	0.000022	-2.614826	-8.583734	51.492286
61648	1.471399	-0.356424	9.668356	-0.059925	0.061999	-0.026895	1.000000	-0.000046	0.000026	0.000014	-2.618892	-8.581306	51.493799
61649	1.499169	-0.397213	9.667556	-0.011444	0.056896	-0.021694	1.000000	-0.000045	0.000017	0.000021	-2.616945	-8.588392	51.492666
61650	1.468120	-0.389688	9.654245	-0.035101	0.039378	-0.039822	1.000000	-0.000045	0.000017	0.000021	-2.621060	-8.587047	51.495116
61651	1.487497	-0.407451	9.687747	-0.012474	0.039181	-0.003028	1.000000	-0.000063	0.000014	-0.000001	-2.612168	-8.587906	51.497304
61652	1.473105	-0.388629	9.688166	-0.036568	0.040475	-0.005616	1.000000	-0.000047	0.000016	0.000029	-2.616499	-8.586687	51.500643
61653	1.475338	-0.358127	9.702342	-0.060064	0.059764	0.007350	1.000000	-0.000036	0.000011	0.000024	-2.611497	-8.585905	51.504583
61654	1.466941	-0.393565	9.654267	-0.031810	0.035775	-0.039797	1.000000	-0.000043	0.000018	0.000014	-2.615079	-8.584423	51.506132
61655	1.499833	-0.371664	9.681775	-0.032238	0.071948	-0.008699	1.000000	-0.000054	0.000014	0.000027	-2.614116	-8.587765	51.507994
61656	1.455351	-0.403805	9.674438	-0.034176	0.018564	-0.021143	1.000000	-0.000043	0.000009	0.000021	-2.617751	-8.587310	51.510472
61657	1.474193	-0.361865	9.702377	-0.058403	0.055054	0.007388	1.000000	-0.000043	0.000018	0.000014	-2.608762	-8.594275	51.511483
61658	1.482475	-0.386061	9.668023	-0.030601	0.049874	-0.024224	1.000000	-0.000059	0.000004	0.000024	-2.614178	-8.594500	51.514337
61659	1.482171	-0.387131	9.668027	-0.027683	0.048484	-0.024208	1.000000	-0.000046	0.000026	0.000014	-2.600838	-8.587065	51.523105
61660	1.481797	-0.387977	9.668050	-0.027509	0.048186	-0.024206	1.000000	-0.000036	0.000011	0.000024	-2.603451	-8.586378	51.525838
61661	1.484119	-0.357497	9.682237	-0.051398	0.066362	-0.011204	1.000000	-0.000050	0.000007	0.000019	-2.597748	-8.592607	51.528350
61662	1.486946	-0.386715	9.701960	-0.029959	0.049012	0.010006	1.000000	-0.000052	0.000015	0.000019	-2.602104	-8.591579	51.530533
61663	1.481035	-0.390892	9.668050	-0.025573	0.044364	-0.024183	1.000000	-0.000043	0.000018	0.000014	-2.597856	-8.591963	51.532047
61664	1.486181	-0.388632	9.702001	-0.028801	0.047359	0.010017	1.000000	-0.000048	0.000025	0.000022	-2.601669	-8.589834	51.534460
61665	1.480200	-0.392820	9.668100	-0.024086	0.042495	-0.024171	1.000000	-0.000047	0.000016	0.000029	-2.595734	-8.590260	51.538669
61666	1.479793	-0.393814	9.668121	-0.023894	0.042169	-0.024169	1.000000	-0.000048	0.000025	0.000022	-2.599471	-8.588135	51.541081
61667	1.479413	-0.394912	9.668135	-0.023289	0.041548	-0.024165	1.000000	-0.000063	0.000014	-0.000001	-2.601536	-8.587175	51.540723
61668	1.479097	-0.395957	9.668140	-0.023096	0.041225	-0.024163	1.000000	-0.000043	0.000018	0.000014	-2.604655	-8.585783	51.542271
61669	1.489835	-0.388532	9.647999	-0.019062	0.054760	-0.042780	1.000000	-0.000036	0.000011	0.000024	-2.596850	-8.589487	51.544831
61670	1.478451	-0.397721	9.668167	-0.021818	0.038921	-0.024150	1.000000	-0.000055	0.000023	0.000019	-2.601279	-8.587618	51.546979
61671	1.480610	-0.367484	9.682401	-0.044792	0.058783	-0.011123	1.000000	-0.000054	0.000014	0.000027	-2.598254	-8.581857	51.553437
61672	1.483399	-0.396658	9.702102	-0.023298	0.041400	0.010059	1.000000	-0.000041	0.000011	0.000014	-2.600973	-8.581303	51.555006
61673	1.494190	-0.389389	9.681951	-0.019735	0.056242	-0.008563	1.000000	-0.000054	0.000014	0.000027	-2.602370	-8.580412	51.556591
61674	1.504931	-0.382201	9.661807	-0.016571	0.071416	-0.027186	1.000000	-0.000047	0.000016	0.000029	-2.606055	-8.579221	51.559911
61675	1.493469	-0.391422	9.681981	-0.017875	0.053978	-0.008547	1.000000	-0.000046	0.000026	0.000014	-2.596705	-8.579038	51.562920
61676	1.493133	-0.392399	9.681993	-0.017647	0.053633	-0.008544	1.000000	-0.000050	0.000007	0.000019	-2.600430	-8.578842	51.565113
61677	1.473315	-0.376572	9.648508	-0.038638	0.050295	-0.045285	1.000000	-0.000046	0.000010	0.000004	-2.600528	-8.585632	51.561046
61678	1.481656	-0.402609	9.702123	-0.020513	0.036153	0.010086	1.000000	-0.000049	0.000014	0.000037	-2.604454	-8.584638	51.565265
61679	1.492400	-0.395414	9.681983	-0.017456	0.050349	-0.008526	1.000000	-0.000052	0.000015	0.000019	-2.605418	-8.588500	51.565321
61680	1.478000	-0.376478	9.682454	-0.041470	0.051538	-0.011067	1.000000	-0.000045	0.000017	0.000021	-2.608644	-8.587298	51.567761
61681	1.502780	-0.389097	9.661867	-0.012265	0.063320	-0.027124	1.000000	-0.000045	0.000017	0.000021	-2.596584	-8.587880	51.573295
61682	1.477394	-0.378373	9.682472	-0.039203	0.048970	-0.011045	1.000000	-0.000048	0.000009	0.000011	-2.599829	-8.587668	51.574607
61683	1.479943	-0.407639	9.702175	-0.016367	0.031103	0.010111	1.000000	-0.000054	0.000038	0.000029	-2.596441	-8.581137	51.580053
61684	1.473362	-0.352282	9.662875	-0.058719	0.064869	-0.032176	1.000000	-0.000047	0.000016	0.000029	-2.599841	-8.580022	51.583374
61685	1.464998	-0.389781	9.702689	-0.040123	0.029804	0.007588	1.000000	-0.000054	0.000017	-0.000006	-2.595704	-8.588615	51.580345
61686	1.503444	-0.362768	9.676226	-0.034445	0.079250	-0.014023	1.000000	-0.000038	0.000010	0.000031	-2.598020	-8.588220	51.583971
61687	1.492098	-0.371897	9.696372	-0.036252	0.061718	0.004602	1.000000	-0.000043	0.000018	0.000014	-2.590599	-8.591128	51.585535
61688	1.475134	-0.384198	9.682588	-0.035572	0.042547	-0.011001	1.000000	-0.000045	0.000017	0.000021	-2.593529	-8.590006	51.587977
61689	1.474864	-0.385117	9.682592	-0.033867	0.040580	-0.010987	1.000000	-0.000043	0.000009	0.000021	-2.583585	-8.591639	51.591444
61690	1.469061	-0.391149	9.736668	-0.039886	0.027853	0.041828	1.000000	-0.000042	0.000020	0.000006	-2.585712	-8.590281	51.592101
61691	1.488378	-0.406872	9.682128	-0.007887	0.035821	-0.008450	1.000000	-0.000049	0.000005	0.000044	-2.574758	-8.596959	51.598171
61692	1.471014	-0.359788	9.662956	-0.053164	0.054021	-0.032079	1.000000	-0.000055	0.000023	0.000019	-2.578510	-8.595264	51.600321
61693	1.487861	-0.409051	9.682115	-0.007578	0.032159	-0.008437	1.000000	-0.000053	-0.000001	0.000009	-2.572609	-8.610096	51.596255
61694	1.490226	-0.378690	9.696397	-0.031972	0.052003	0.004673	1.000000	-0.000043	0.000018	0.000014	-2.574905	-8.609038	51.597824
61695	1.484325	-0.382691	9.662477	-0.029054	0.047065	-0.029535	1.000000	-0.000045	0.000017	0.000021	-2.576088	-8.616604	51.597671
61696	1.472833	-0.391908	9.682629	-0.031720	0.031045	-0.010945	1.000000	-0.000043	0.000025	0.000031	-2.578610	-8.614755	51.601267
61697	1.474942	-0.361487	9.696962	-0.055145	0.050960	0.002177	1.000000	-0.000043	0.000018	0.000014	-2.576675	-8.609773	51.605681
61698	1.472206	-0.393738	9.682650	-0.030220	0.030207	-0.010937	1.000000	-0.000048	-0.000000	0.000019	-2.579548	-8.610839	51.607940
61699	1.466467	-0.397707	9.648703	-0.027169	0.024713	-0.045148	1.000000	-0.000038	0.000019	0.000024	-2.577204	-8.620298	51.607629
61700	1.471673	-0.395609	9.682655	-0.030257	0.027425	-0.010929	1.000000	-0.000058	0.000014	0.000009	-2.581025	-8.619822	51.608685
61701	1.457243	-0.376785	9.683156	-0.052642	0.026646	-0.013424	1.000000	-0.000055	0.000023	0.000019	-2.570409	-8.621056	51.614355
61702	1.482067	-0.389513	9.662551	-0.025225	0.040187	-0.029493	1.000000	-0.000050	0.000007	0.000019	-2.573435	-8.621357	51.616596
61703	1.470661	-0.398786	9.682678	-0.026636	0.022587	-0.010906	1.000000	-0.000046	0.000026	0.000014	-2.564416	-8.622167	51.620625
61704	1.472772	-0.368381	9.697032	-0.051018	0.042370	0.002240	1.000000	-0.000043	0.000018	0.000014	-2.566514	-8.621255	51.622209
61705	1.469864	-0.400604	9.682724	-0.024800	0.019485	-0.010895	1.000000	-0.000045	0.000017	0.000021	-2.555180	-8.625518	51.626345
61706	1.489232	-0.418592	9.716158	-0.003599	0.020582	0.025824	1.000000	-0.000062	0.000005	0.000007	-2.559200	-8.626223	51.627167
61707	1.486007	-0.391353	9.696541	-0.023843	0.036523	0.004766	1.000000	-0.000038	0.000019	0.000024	-2.554574	-8.625378	51.631236
61708	1.474551	-0.400756	9.716664	-0.026449	0.020422	0.023336	1.000000	-0.000069	0.000019	0.000014	-2.559452	-8.624459	51.632889
61709	1.479768	-0.396501	9.662619	-0.018749	0.030885	-0.029445	1.000000	-0.000032	0.000014	0.000008	-2.549034	-8.626492	51.635398
61710	1.487552	-0.362986	9.710921	-0.046418	0.053759	0.017954	1.000000	-0.000047	0.000016	0.000029	-2.551611	-8.625881	51.638766
61711	1.484671	-0.395296	9.696586	-0.020876	0.031464	0.004790	1.000000	-0.000051	0.000016	0.000011	-2.545992	-8.630060	51.640236
61712	1.478723	-0.399292	9.662664	-0.017261	0.027800	-0.029433	1.000000	-0.000043	0.000025	0.000031	-2.548021	-8.628380	51.643843
61713	1.483843	-0.397260	9.696633	-0.018331	0.029937	0.004800	1.000000	-0.000052	0.000015	0.000019	-2.540268	-8.622911	51.651549
61714	1.494579	-0.389889	9.676545	-0.015125	0.044995	-0.013757	1.000000	-0.000038	0.000019	0.000024	-2.541595	-8.621931	51.654284
61715	1.510860	-0.379565	9.690401	-0.013951	0.062650	0.001920	1.000000	-0.000063	0.000014	-0.000001	-2.537410	-8.619398	51.657130
61716	1.452218	-0.391451	9.683330	-0.039910	0.010608	-0.013333	1.000000	-0.000022	0.000015	0.000028	-2.536879	-8.618797	51.660419
61717	1.479527	-0.372611	9.677105	-0.037774	0.042200	-0.016208	1.000000	-0.000055	0.000023	0.000019	-2.534978	-8.629933	51.656089
61718	1.479148	-0.373705	9.677121	-0.037451	0.041643	-0.016205	1.000000	-0.000052	0.000015	0.000019	-2.537757	-8.629500	51.658302
61719	1.492859	-0.394643	9.676617	-0.013464	0.039973	-0.013733	1.000000	-0.000043	0.000018	0.000014	-2.543701	-8.628867	51.656736
61720	1.492430	-0.395579	9.676645	-0.013147	0.039420	-0.013730	1.000000	-0.000048	0.000025	0.000021	-2.546035	-8.627326	51.659186
61721	1.466885	-0.384942	9.697281	-0.011564	-0.012162	0.002450	1.000000	-0.000051	0.000016	0.000011	-2.278836	-8.693704	51.300139
61722	1.477545	-0.377552	9.677217	-0.008098	0.002635	-0.016048	1.000000	-0.000041	0.000027	0.000024	-2.278147	-8.692496	51.300710
61723	1.521714	-0.407300	9.690068	0.040677	0.016958	0.004490	1.000000	-0.000071	0.000026	0.000014	-2.280408	-8.691757	51.302067
61724	1.471083	-0.382891	9.643317	-0.003815	-0.002173	-0.050299	1.000000	-0.000047	0.000016	0.000029	-2.280566	-8.691783	51.303287
61725	1.490295	-0.400811	9.676759	0.017863	-0.001788	-0.013658	1.000000	-0.000043	0.000018	0.000014	-2.279589	-8.691543	51.304127
61726	1.506589	-0.390291	9.690640	0.018158	0.015989	0.002100	1.000000	-0.000034	0.000013	0.000016	-2.278003	-8.691950	51.303857
61727	1.475658	-0.382528	9.677309	-0.005236	-0.001870	-0.016046	1.000000	-0.000052	0.000015	0.000019	-2.278298	-8.692095	51.304832
61728	1.505969	-0.392160	9.690661	0.019300	0.014220	0.002101	1.000000	-0.000043	0.000018	0.000014	-2.277750	-8.691863	51.304271
61729	1.475040	-0.384393	9.677329	-0.004101	-0.003658	-0.016046	1.000000	-0.000043	0.000009	0.000021	-2.276946	-8.692769	51.306185
61730	1.469259	-0.388284	9.643379	-0.000390	-0.007485	-0.050301	1.000000	-0.000049	0.000018	0.000004	-2.276811	-8.692641	51.304467
61731	1.494051	-0.403272	9.710758	0.018078	-0.004147	0.020587	1.000000	-0.000045	0.000008	0.000029	-2.276634	-8.693690	51.306056
61732	1.490758	-0.375873	9.691229	-0.002703	0.012351	-0.000277	1.000000	-0.000041	0.000027	0.000024	-2.275945	-8.692482	51.306627
61733	1.473767	-0.387988	9.677380	-0.001911	-0.007122	-0.016048	1.000000	-0.000036	0.000011	0.000024	-2.274879	-8.692921	51.306577
61734	1.490102	-0.377607	9.691262	-0.001607	0.010645	-0.000275	1.000000	-0.000052	0.000015	0.000019	-2.275449	-8.693050	51.306639
61735	1.478662	-0.386930	9.711354	-0.004000	-0.005932	0.018208	1.000000	-0.000043	0.000018	0.000014	-2.275025	-8.693082	51.306262
61736	1.472792	-0.390764	9.677417	-0.000299	-0.009744	-0.016050	1.000000	-0.000043	0.000018	0.000014	-2.274477	-8.692849	51.305700
61737	1.472529	-0.391717	9.677418	0.000246	-0.010624	-0.016050	1.000000	-0.000050	0.000007	0.000019	-2.274764	-8.693938	51.306026
61738	1.488977	-0.381449	9.691285	0.000555	0.007136	-0.000272	1.000000	-0.000050	0.000007	0.000019	-2.275062	-8.694938	51.306111
61739	1.483245	-0.385436	9.657320	0.004197	0.003369	-0.034529	1.000000	-0.000052	0.000015	0.000019	-2.276007	-8.695102	51.305504
61740	1.488409	-0.383476	9.691292	0.001609	0.005435	-0.000271	1.000000	-0.000043	0.000018	0.000014	-2.275460	-8.694869	51.304941
61741	1.488063	-0.384419	9.691308	0.002081	0.004561	-0.000270	1.000000	-0.000047	0.000016	0.000029	-2.275974	-8.695215	51.305784
61742	1.476637	-0.393818	9.711385	-0.000263	-0.012005	0.018203	1.000000	-0.000056	0.000016	0.000001	-2.276604	-8.695317	51.303798
61743	1.498537	-0.378151	9.671254	0.006060	0.018524	-0.018742	1.000000	-0.000051	0.000016	0.000011	-2.276943	-8.695405	51.302844
61744	1.481614	-0.390472	9.657368	0.006848	-0.000962	-0.034530	1.000000	-0.000052	0.000015	0.000019	-2.277514	-8.695533	51.302904
61745	1.481289	-0.391477	9.657377	0.007392	-0.001840	-0.034531	1.000000	-0.000045	0.000017	0.000021	-2.277306	-8.695511	51.303408
61746	1.503118	-0.378204	9.705240	0.004583	0.018824	0.015523	1.000000	-0.000043	0.000009	0.000021	-2.276839	-8.696278	51.303759
61747	1.483680	-0.421713	9.676887	0.029815	-0.020960	-0.013710	1.000000	-0.000052	0.000015	0.000019	-2.277585	-8.696441	51.303109
61748	1.471896	-0.371468	9.691914	-0.018345	0.000183	-0.002625	1.000000	-0.000043	0.000018	0.000014	-2.277037	-8.696207	51.302546
61749	1.496731	-0.384147	9.671297	0.009259	0.013310	-0.018736	1.000000	-0.000061	0.000012	0.000024	-2.279059	-8.697067	51.303094
61750	1.485290	-0.393523	9.691368	0.006919	-0.003267	-0.000272	1.000000	-0.000036	0.000020	0.000016	-2.277746	-8.696600	51.302799
61751	1.473545	-0.343129	9.706412	-0.041243	0.017865	0.010829	1.000000	-0.000043	0.000009	0.000021	-2.277273	-8.697443	51.303301
61752	1.484704	-0.395238	9.691388	0.008018	-0.005014	-0.000274	1.000000	-0.000043	0.000018	0.000014	-2.276725	-8.697208	51.302738
61753	1.478922	-0.398988	9.657433	0.011709	-0.008813	-0.034539	1.000000	-0.000041	0.000011	0.000014	-2.275655	-8.697938	51.303581
61754	1.470198	-0.377052	9.691956	-0.015093	-0.005088	-0.002621	1.000000	-0.000050	0.000007	0.000019	-2.275954	-8.698937	51.303664
61755	1.495151	-0.389584	9.671324	0.012604	0.008072	-0.018734	1.000000	-0.000041	0.000011	0.000014	-2.275116	-8.699468	51.302847
61756	1.467151	-0.410138	9.677472	0.010489	-0.027117	-0.016088	1.000000	-0.000047	0.000016	0.000029	-2.275275	-8.699493	51.304064
61757	1.483429	-0.399893	9.691392	0.010799	-0.009360	-0.000279	1.000000	-0.000054	0.000017	-0.000006	-2.275746	-8.699438	51.300012
61758	1.463701	-0.383871	9.657988	-0.009786	-0.011400	-0.036886	1.000000	-0.000054	0.000005	0.000034	-2.276752	-8.700696	51.301875
61759	1.494160	-0.393585	9.671315	0.014809	0.004611	-0.018734	1.000000	-0.000041	0.000011	0.000014	-2.275789	-8.701341	51.302121
61760	1.479848	-0.374464	9.671902	-0.008880	0.005451	-0.021071	1.000000	-0.000043	0.000018	0.000014	-2.275241	-8.701105	51.301558
61761	1.482385	-0.403741	9.691392	0.013020	-0.012871	-0.000286	1.000000	-0.000045	0.000017	0.000021	-2.275014	-8.701130	51.302597
61762	1.468022	-0.384703	9.691985	-0.010669	-0.012031	-0.002621	1.000000	-0.000045	0.000017	0.000021	-2.274820	-8.701024	51.302923
61763	1.462259	-0.388449	9.658023	-0.006998	-0.015825	-0.036890	1.000000	-0.000041	0.000011	0.000014	-2.273662	-8.701866	51.304797
61764	1.478529	-0.378180	9.671959	-0.006658	0.001901	-0.021068	1.000000	-0.000055	0.000023	0.000019	-2.274506	-8.701119	51.304831
61765	1.466968	-0.387511	9.692033	-0.008980	-0.014642	-0.002623	1.000000	-0.000040	0.000021	-0.000002	-2.273428	-8.700342	51.301304
61766	1.472412	-0.382832	9.638016	-0.002459	-0.002628	-0.055337	1.000000	-0.000044	-0.000001	0.000036	-2.273397	-8.702241	51.303456
61767	1.477752	-0.381068	9.671964	-0.005008	-0.000641	-0.021067	1.000000	-0.000059	0.000013	0.000017	-2.274793	-8.702645	51.303134
61768	1.491449	-0.402092	9.671383	0.019788	-0.003219	-0.018743	1.000000	-0.000043	0.000018	0.000014	-2.274246	-8.702409	51.302570
61769	1.474423	-0.414290	9.657476	0.020552	-0.022678	-0.034576	1.000000	-0.000050	0.000023	0.000029	-2.274613	-8.701569	51.304198
61770	1.493100	-0.372735	9.685975	-0.003546	0.015335	-0.005233	1.000000	-0.000037	0.000029	0.000009	-2.273218	-8.700098	51.302988
61771	1.490129	-0.404798	9.671474	0.021441	-0.005807	-0.018747	1.000000	-0.000045	0.000008	0.000029	-2.273233	-8.700939	51.304106
61772	1.486960	-0.377271	9.652040	0.000626	0.010785	-0.039503	1.000000	-0.000040	0.000021	-0.000002	-2.271978	-8.700441	51.301762
61773	1.469829	-0.392262	9.726095	-0.007653	-0.018774	0.031640	1.000000	-0.000061	0.000012	0.000024	-2.273575	-8.701102	51.304058
61774	1.477925	-0.416220	9.691545	0.020218	-0.024189	-0.000320	1.000000	-0.000050	0.000032	0.000022	-2.273925	-8.699250	51.304337
61775	1.474383	-0.388770	9.672172	-0.000611	-0.007593	-0.021068	1.000000	-0.000041	0.000036	0.000016	-2.273208	-8.697086	51.304579
61776	1.496003	-0.375607	9.720125	-0.003324	0.012938	0.029048	1.000000	-0.000043	0.000009	0.000021	-2.272742	-8.697852	51.304927
61777	1.493141	-0.407770	9.705583	0.021661	-0.008207	0.015515	1.000000	-0.000051	0.000017	0.000011	-2.273060	-8.697809	51.303766
61778	1.473279	-0.391656	9.672224	0.001036	-0.010177	-0.021071	1.000000	-0.000055	0.000023	0.000019	-2.273904	-8.697061	51.303799
61779	1.478234	-0.389817	9.706239	-0.001460	-0.008239	0.013203	1.000000	-0.000042	0.000029	-0.000001	-2.272818	-8.695681	51.302170
61780	1.483481	-0.384865	9.652275	0.005024	0.003838	-0.039499	1.000000	-0.000022	0.000015	0.000028	-2.270055	-8.695753	51.303323
61781	1.460805	-0.402504	9.692353	-0.000162	-0.028564	-0.002649	1.000000	-0.000055	0.000023	0.000019	-2.270828	-8.695091	51.304427
61782	1.460498	-0.403576	9.692354	0.000391	-0.029432	-0.002652	1.000000	-0.000050	0.000007	0.000019	-2.271128	-8.696088	51.304505
61783	1.487985	-0.384905	9.686287	0.003610	0.004043	-0.005222	1.000000	-0.000043	0.000018	0.000014	-2.270706	-8.695824	51.303997
61784	1.501631	-0.405808	9.685697	0.028407	0.001454	-0.002923	1.000000	-0.000045	0.000017	0.000021	-2.270512	-8.695716	51.304321
61785	1.501042	-0.347181	9.680866	-0.016870	0.038367	-0.010082	1.000000	-0.000051	0.000017	0.000011	-2.270872	-8.695741	51.303723
61786	1.475687	-0.396094	9.706372	0.002382	-0.014317	0.013196	1.000000	-0.000037	0.000029	0.000009	-2.269477	-8.694269	51.302513
61787	1.461348	-0.377082	9.706996	-0.021324	-0.013476	0.010900	1.000000	-0.000059	0.000004	0.000024	-2.270922	-8.695740	51.304306
61788	1.472224	-0.369825	9.686975	-0.017907	0.001426	-0.007517	1.000000	-0.000055	0.000023	0.000019	-2.271766	-8.694990	51.304338
61789	1.497032	-0.382333	9.666360	0.009762	0.014617	-0.023638	1.000000	-0.000036	0.000011	0.000024	-2.270540	-8.695443	51.305158
61790	1.476990	-0.368979	9.720987	-0.019833	0.002484	0.026765	1.000000	-0.000060	0.000022	0.000009	-2.271796	-8.694793	51.304031
61791	1.499146	-0.412796	9.685786	0.032214	-0.004585	-0.002935	1.000000	-0.000045	0.000017	0.000021	-2.271889	-8.694677	51.303533
61792	1.470794	-0.373723	9.687043	-0.015723	-0.002000	-0.007513	1.000000	-0.000043	0.000018	0.000014	-2.271341	-8.694438	51.302967
61793	1.495622	-0.386291	9.666421	0.011913	0.011176	-0.023636	1.000000	-0.000054	0.000014	0.000027	-2.272344	-8.694804	51.304767
61794	1.470216	-0.375713	9.687053	-0.014640	-0.003742	-0.007512	1.000000	-0.000041	0.000011	0.000014	-2.271526	-8.695438	51.304223
61795	1.500468	-0.385466	9.700420	0.009967	0.012233	0.010646	1.000000	-0.000050	0.000023	0.000029	-2.272130	-8.694551	51.304783
61796	1.469533	-0.377633	9.687082	-0.013553	-0.005453	-0.007511	1.000000	-0.000046	0.000010	0.000004	-2.271723	-8.695284	51.303080
61797	1.508353	-0.410198	9.665831	0.038325	0.006012	-0.021355	1.000000	-0.000055	0.000023	0.000019	-2.272710	-8.694583	51.303105
61798	1.494106	-0.391185	9.666458	0.014631	0.006875	-0.023636	1.000000	-0.000041	0.000002	0.000021	-2.271973	-8.696220	51.303472
61799	1.482765	-0.400585	9.686451	0.012313	-0.009773	-0.005233	1.000000	-0.000052	0.000015	0.000019	-2.272634	-8.696371	51.303432
61800	1.468466	-0.381660	9.687086	-0.011380	-0.008909	-0.007511	1.000000	-0.000052	0.000015	0.000019	-2.273206	-8.696493	51.303486
61801	1.487568	-0.399937	9.720449	0.010359	-0.008727	0.029048	1.000000	-0.000045	0.000017	0.000021	-2.273320	-8.696381	51.302690
61802	1.484416	-0.372504	9.701092	-0.010478	0.007928	0.008374	1.000000	-0.000052	0.000015	0.000019	-2.273893	-8.696502	51.302743
61803	1.509265	-0.385128	9.680461	0.017174	0.021113	-0.007751	1.000000	-0.000052	0.000015	0.000019	-2.274454	-8.696652	51.303582
61804	1.492428	-0.397343	9.666466	0.017888	0.001710	-0.023639	1.000000	-0.000050	0.000007	0.000019	-2.274754	-8.697647	51.303657
61805	1.467009	-0.386748	9.687105	-0.008665	-0.013223	-0.007513	1.000000	-0.000043	0.000018	0.000014	-2.274224	-8.697457	51.303605
61806	1.480562	-0.407689	9.686492	0.016134	-0.015826	-0.005247	1.000000	-0.000051	0.000026	0.000004	-2.274360	-8.696443	51.301857
61807	1.493881	-0.369162	9.681160	-0.004880	0.019372	-0.010013	1.000000	-0.000057	0.000021	0.000027	-2.275614	-8.695879	51.303325
61808	1.482310	-0.378649	9.701176	-0.007177	0.002703	0.008380	1.000000	-0.000043	0.000018	0.000014	-2.275067	-8.695639	51.302757
61809	1.490537	-0.402363	9.666550	0.020634	-0.002656	-0.023645	1.000000	-0.000058	0.000015	0.000009	-2.275923	-8.695959	51.303268
61810	1.506872	-0.392165	9.680551	0.021032	0.015004	-0.007747	1.000000	-0.000039	0.000012	0.000006	-2.274750	-8.696460	51.301833
61811	1.476010	-0.384242	9.667204	-0.002531	-0.002628	-0.025907	1.000000	-0.000052	0.000015	0.000019	-2.275504	-8.696561	51.301226
61812	1.506281	-0.394127	9.680563	0.022117	0.013290	-0.007747	1.000000	-0.000047	0.000016	0.000029	-2.275665	-8.696584	51.302436
61813	1.475376	-0.386031	9.667230	-0.001418	-0.004409	-0.025907	1.000000	-0.000022	0.000015	0.000028	-2.272687	-8.696848	51.306316
61814	1.491591	-0.375699	9.681262	-0.001016	0.013246	-0.010002	1.000000	-0.000058	0.000024	0.000001	-2.273588	-8.696062	51.304298
61815	1.499746	-0.399418	9.646637	0.026774	0.007909	-0.042038	1.000000	-0.000045	0.000017	0.000021	-2.273319	-8.696064	51.306355
61816	1.463093	-0.397384	9.687267	-0.002607	-0.022844	-0.007527	1.000000	-0.000054	0.000014	0.000027	-2.274246	-8.696316	51.307295
61817	1.504464	-0.398837	9.680653	0.024885	0.008875	-0.007749	1.000000	-0.000048	0.000025	0.000021	-2.274322	-8.695370	51.308266
61818	1.462166	-0.399309	9.687328	-0.001505	-0.024584	-0.007531	1.000000	-0.000037	0.000029	0.000009	-2.272927	-8.693894	51.307057
61819	1.461789	-0.400157	9.687350	-0.000987	-0.025435	-0.007533	1.000000	-0.000045	0.000008	0.000029	-2.273037	-8.694841	51.307850
61820	1.461664	-0.401029	9.687333	-0.000435	-0.026303	-0.007535	1.000000	-0.000039	0.000003	0.000013	-2.271948	-8.696346	51.307325
61821	1.494602	-0.379713	9.715366	-0.000180	0.009857	0.024297	1.000000	-0.000055	0.000023	0.000019	-2.272881	-8.695625	51.307557
61822	1.488795	-0.383434	9.681389	0.003353	0.006301	-0.009995	1.000000	-0.000047	0.000016	0.000029	-2.273042	-8.695648	51.308766
61823	1.491258	-0.412926	9.700710	0.025300	-0.012134	0.010619	1.000000	-0.000051	0.000017	0.000011	-2.273356	-8.695683	51.308357
61824	1.471444	-0.396540	9.667404	0.004579	-0.013938	-0.025917	1.000000	-0.000046	0.000026	0.000014	-2.273081	-8.694568	51.307767
61825	1.473702	-0.366287	9.682115	-0.019271	0.005439	-0.012233	1.000000	-0.000041	0.000011	0.000014	-2.272304	-8.695304	51.308424
61826	1.476309	-0.395738	9.701409	0.002696	-0.013005	0.008374	1.000000	-0.000052	0.000006	0.000026	-2.272960	-8.696428	51.309384
61827	1.512312	-0.399727	9.660809	0.033178	0.016025	-0.026128	1.000000	-0.000042	0.000029	-0.000001	-2.271857	-8.695086	51.308788
61828	1.472777	-0.368982	9.682153	-0.017600	0.002820	-0.012229	1.000000	-0.000036	0.000011	0.000024	-2.270627	-8.695620	51.309399
61829	1.472497	-0.369866	9.682162	-0.017073	0.001970	-0.012228	1.000000	-0.000047	0.000016	0.000029	-2.270968	-8.695661	51.310351
61830	1.486227	-0.390890	9.681485	0.007729	-0.000646	-0.009996	1.000000	-0.000050	0.000008	0.000019	-2.271270	-8.696653	51.310422
61831	1.480492	-0.394523	9.647495	0.011228	-0.004171	-0.044293	1.000000	-0.000048	0.000025	0.000021	-2.271425	-8.695714	51.311498
61832	1.482778	-0.364338	9.662221	-0.012599	0.015211	-0.030586	1.000000	-0.000043	0.000009	0.000021	-2.270961	-8.696477	51.311839
61833	1.474085	-0.402251	9.701479	0.006517	-0.019070	0.008363	1.000000	-0.000045	0.000017	0.000021	-2.270955	-8.696384	51.311514
61834	1.501647	-0.383698	9.695544	0.009773	0.014396	0.005940	1.000000	-0.000057	0.000006	0.000016	-2.272022	-8.697605	51.311314
61835	1.482170	-0.367237	9.662205	-0.010971	0.012656	-0.030581	1.000000	-0.000034	0.000004	0.000023	-2.270618	-8.698914	51.311257
61836	1.512362	-0.376991	9.675586	0.013707	0.028527	-0.012416	1.000000	-0.000048	0.000034	0.000014	-2.270614	-8.696924	51.310645
61837	1.470312	-0.377710	9.682191	-0.012717	-0.004934	-0.012222	1.000000	-0.000060	-0.000006	0.000039	-2.272539	-8.699554	51.313970
61838	1.484046	-0.398768	9.681498	0.012085	-0.007555	-0.010003	1.000000	-0.000039	0.000028	0.000016	-2.271498	-8.698208	51.313650
61839	1.486222	-0.368495	9.696267	-0.011755	0.011834	0.003725	1.000000	-0.000043	0.000018	0.000014	-2.271118	-8.697983	51.312744
61840	1.458080	-0.389073	9.702193	-0.013908	-0.023371	0.006130	1.000000	-0.000052	0.000015	0.000019	-2.271691	-8.698100	51.312792
61841	1.482863	-0.401682	9.681559	0.013715	-0.010163	-0.010008	1.000000	-0.000055	0.000023	0.000019	-2.272485	-8.697454	51.314345
61842	1.482609	-0.402666	9.681557	0.014268	-0.011030	-0.010009	1.000000	-0.000041	0.000002	0.000021	-2.271750	-8.699089	51.314706
61843	1.493595	-0.394991	9.661602	0.017628	0.003975	-0.028359	1.000000	-0.000038	0.000019	0.000024	-2.270921	-8.698725	51.314743
61844	1.468048	-0.384575	9.682265	-0.008891	-0.010990	-0.012223	1.000000	-0.000069	0.000019	0.000014	-2.273296	-8.698427	51.314228
61845	1.478947	-0.377136	9.662317	-0.005538	0.004022	-0.030569	1.000000	-0.000036	0.000011	0.000024	-2.272233	-8.698944	51.314222
61846	1.489871	-0.369513	9.642376	-0.002165	0.019018	-0.048912	1.000000	-0.000051	0.000017	0.000011	-2.272452	-8.698928	51.313381
61847	1.486469	-0.404959	9.715594	0.014067	-0.012711	0.024283	1.000000	-0.000045	0.000017	0.000021	-2.272296	-8.698775	51.313706
61848	1.497338	-0.397426	9.695658	0.017441	0.002283	0.005940	1.000000	-0.000051	0.000017	0.000011	-2.272515	-8.698759	51.312865
61849	1.477648	-0.380955	9.662366	-0.003348	0.000572	-0.030567	1.000000	-0.000049	0.000018	0.000004	-2.272467	-8.698662	51.311363
61850	1.499438	-0.368214	9.710430	-0.005825	0.020781	0.019702	1.000000	-0.000041	0.000002	0.000021	-2.271732	-8.700298	51.311722
61851	1.496509	-0.400203	9.695671	0.019065	-0.000323	0.005937	1.000000	-0.000046	0.000026	0.000014	-2.271547	-8.699257	51.311474
61852	1.476744	-0.383705	9.662396	-0.001712	-0.002025	-0.030567	1.000000	-0.000047	0.000016	0.000029	-2.271710	-8.699278	51.312679
61853	1.518357	-0.384908	9.655804	0.025772	0.029698	-0.030737	1.000000	-0.000027	-0.000001	0.000008	-2.269436	-8.701341	51.310944
61854	1.465162	-0.393873	9.682328	-0.003456	-0.019614	-0.012233	1.000000	-0.000060	0.000022	0.000009	-2.270692	-8.700679	51.309810
61855	1.506631	-0.395406	9.675745	0.024036	0.012119	-0.012401	1.000000	-0.000050	0.000008	0.000019	-2.271222	-8.701635	51.308404
61856	1.489776	-0.407458	9.661674	0.024687	-0.007211	-0.028376	1.000000	-0.000045	0.000017	0.000021	-2.271031	-8.701522	51.308721
61857	1.497471	-0.374808	9.710481	-0.002035	0.014749	0.019715	1.000000	-0.000051	0.000017	0.000011	-2.271380	-8.701502	51.307425
61858	1.472477	-0.360782	9.643184	-0.019916	0.010490	-0.051087	1.000000	-0.000041	0.000011	0.000014	-2.270562	-8.702130	51.306875
61859	1.480395	-0.387696	9.696409	-0.000867	-0.005448	0.003738	1.000000	-0.000045	0.000008	0.000029	-2.270617	-8.703151	51.308279
61860	1.477391	-0.360062	9.677198	-0.021753	0.011337	-0.016775	1.000000	-0.000044	0.000019	0.000014	-2.270071	-8.702905	51.307708
61861	1.468532	-0.398034	9.716369	-0.002570	-0.023088	0.022062	1.000000	-0.000044	0.000019	0.000014	-2.269455	-8.702737	51.308422
61862	1.471336	-0.364536	9.643217	-0.017747	0.007019	-0.051080	1.000000	-0.000061	0.000012	0.000024	-2.271150	-8.703213	51.309084
61863	1.506957	-0.372057	9.690593	0.004045	0.025410	0.001398	1.000000	-0.000044	0.000019	0.000014	-2.270752	-8.703006	51.308105
61864	1.445575	-0.414665	9.668296	0.002053	-0.046700	-0.028241	1.000000	-0.000045	0.000017	0.000021	-2.270560	-8.702893	51.308421
61865	1.489671	-0.385030	9.676541	0.005238	0.005241	-0.014587	1.000000	-0.000052	0.000015	0.000019	-2.271202	-8.702934	51.307629
61866	1.494868	-0.383483	9.710544	0.002899	0.006929	0.019723	1.000000	-0.000041	0.000002	0.000021	-2.270468	-8.704568	51.307987
61867	1.500537	-0.378409	9.656593	0.009134	0.019404	-0.032905	1.000000	-0.000052	0.000015	0.000019	-2.271132	-8.704727	51.308099
61868	1.472373	-0.398972	9.662444	0.006962	-0.015802	-0.030582	1.000000	-0.000044	0.000019	0.000014	-2.270585	-8.704481	51.307527
61869	1.469244	-0.371398	9.643274	-0.013944	0.001015	-0.051071	1.000000	-0.000055	0.000023	0.000019	-2.271515	-8.703721	51.307224
61870	1.499306	-0.381401	9.656666	0.010779	0.016816	-0.032902	1.000000	-0.000043	0.000025	0.000031	-2.271185	-8.702639	51.308678
61871	1.487657	-0.390913	9.676615	0.008518	0.000046	-0.014588	1.000000	-0.000051	0.000017	0.000011	-2.271428	-8.702676	51.308411
61872	1.489896	-0.360814	9.691472	-0.015259	0.019398	-0.000756	1.000000	-0.000043	0.000025	0.000031	-2.271097	-8.701594	51.309866
61873	1.492195	-0.390392	9.710680	0.006743	0.000843	0.019724	1.000000	-0.000052	0.000015	0.000019	-2.271668	-8.701729	51.310329
61874	1.470034	-0.405079	9.662546	0.010249	-0.020996	-0.030594	1.000000	-0.000061	0.000003	0.000032	-2.273447	-8.703212	51.311897
61875	1.483676	-0.366447	9.657468	-0.010744	0.014281	-0.035062	1.000000	-0.000035	0.000022	0.000008	-2.271942	-8.702585	51.309564
61876	1.472038	-0.376035	9.677407	-0.012993	-0.002491	-0.016753	1.000000	-0.000069	0.000019	0.000014	-2.274318	-8.702280	51.309044
61877	1.485667	-0.397138	9.676667	0.011796	-0.005133	-0.014593	1.000000	-0.000036	0.000011	0.000024	-2.273199	-8.702836	51.309217
61878	1.513126	-0.378403	9.670883	0.015079	0.028342	-0.016888	1.000000	-0.000046	0.000026	0.000014	-2.272923	-8.701714	51.308623
61879	1.482159	-0.370329	9.657553	-0.008576	0.010843	-0.035056	1.000000	-0.000045	0.000017	0.000021	-2.272885	-8.701626	51.308092
61880	1.476018	-0.377384	9.711487	-0.013687	-0.003422	0.017563	1.000000	-0.000048	0.000009	0.000011	-2.272833	-8.702480	51.307268
61881	1.451116	-0.363282	9.644196	-0.031678	-0.007527	-0.053222	1.000000	-0.000052	0.000015	0.000019	-2.273488	-8.702655	51.307345
61882	1.483932	-0.401893	9.676737	0.014518	-0.009456	-0.014600	1.000000	-0.000046	0.000026	0.000014	-2.273213	-8.701532	51.306751
61883	1.469652	-0.382802	9.677504	-0.009202	-0.008537	-0.016752	1.000000	-0.000045	0.000008	0.000029	-2.273190	-8.702502	51.308225
61884	1.488641	-0.401497	9.710772	0.012747	-0.008690	0.019714	1.000000	-0.000065	0.000022	-0.000001	-2.274856	-8.701928	51.305928
61885	1.485597	-0.373848	9.691638	-0.008160	0.008164	-0.000731	1.000000	-0.000032	0.000014	0.000008	-2.272978	-8.702143	51.303970
61886	1.496526	-0.366073	9.671752	-0.004812	0.023219	-0.019025	1.000000	-0.000045	0.000017	0.000021	-2.272787	-8.702028	51.304284
61887	1.473690	-0.384160	9.711575	-0.009851	-0.009489	0.017564	1.000000	-0.000045	0.000017	0.000021	-2.272644	-8.701896	51.304116
61888	1.479317	-0.378975	9.657654	-0.003655	0.003077	-0.035047	1.000000	-0.000048	0.000009	0.000011	-2.272592	-8.702748	51.303290
61889	1.481681	-0.408625	9.676800	0.018347	-0.015503	-0.014614	1.000000	-0.000055	0.000023	0.000019	-2.273510	-8.702001	51.303007
61890	1.472857	-0.387183	9.711581	-0.008199	-0.012092	0.017563	1.000000	-0.000046	0.000001	0.000011	-2.273187	-8.703727	51.302201
61891	1.509027	-0.391049	9.671020	0.022181	0.017095	-0.016876	1.000000	-0.000050	0.000023	0.000029	-2.273626	-8.702958	51.304391
61892	1.483304	-0.380665	9.691724	-0.004310	0.002090	-0.000726	1.000000	-0.000052	0.000031	0.000029	-2.274333	-8.701229	51.305552
61893	1.499369	-0.370531	9.705901	-0.003826	0.019646	0.015309	1.000000	-0.000029	0.000022	0.000018	-2.272402	-8.700535	51.304591
61894	1.482393	-0.382375	9.691796	-0.003224	0.000368	-0.000725	1.000000	-0.000052	0.000015	0.000019	-2.272977	-8.700646	51.304632
61895	1.490644	-0.405830	9.657012	0.024395	-0.004768	-0.032914	1.000000	-0.000045	0.000017	0.000021	-2.272892	-8.700624	51.305153
61896	1.467794	-0.364288	9.692593	-0.026395	0.000428	-0.002856	1.000000	-0.000045	0.000017	0.000021	-2.272702	-8.700508	51.305466
61897	1.481378	-0.385306	9.691835	-0.001599	-0.002230	-0.000725	1.000000	-0.000051	0.000017	0.000011	-2.273004	-8.700489	51.304048
61898	1.469894	-0.394979	9.711716	-0.003832	-0.019040	0.017554	1.000000	-0.000057	0.000006	0.000016	-2.274074	-8.701701	51.303836
61899	1.469573	-0.396023	9.711722	-0.003293	-0.019912	0.017553	1.000000	-0.000046	0.000026	0.000014	-2.273861	-8.700642	51.303565
61900	1.475046	-0.390730	9.657838	0.002871	-0.007291	-0.035049	1.000000	-0.000044	0.000019	0.000014	-2.273315	-8.700392	51.302990
61901	1.480038	-0.389284	9.691881	0.000587	-0.005689	-0.000726	1.000000	-0.000047	0.000016	0.000029	-2.273591	-8.700383	51.303177
61902	1.491036	-0.381640	9.671998	0.003924	0.009391	-0.019001	1.000000	-0.000043	0.000009	0.000021	-2.273130	-8.701141	51.303509
61903	1.479491	-0.391125	9.691891	0.001683	-0.007421	-0.000727	1.000000	-0.000044	0.000019	0.000014	-2.272648	-8.700909	51.302767
61904	1.465232	-0.372060	9.692686	-0.022019	-0.006486	-0.002847	1.000000	-0.000052	0.000015	0.000019	-2.273223	-8.701019	51.302807
61905	1.478842	-0.393176	9.691907	0.002779	-0.009146	-0.000729	1.000000	-0.000052	0.000015	0.000019	-2.273890	-8.701110	51.302072
61906	1.489777	-0.385584	9.672036	0.006114	0.005940	-0.019000	1.000000	-0.000045	0.000017	0.000021	-2.273700	-8.700993	51.302384
61907	1.492107	-0.355519	9.686991	-0.017622	0.025273	-0.005057	1.000000	-0.000049	0.000018	0.000004	-2.273587	-8.700834	51.300599
61908	1.447242	-0.387091	9.678586	-0.019790	-0.028330	-0.018905	1.000000	-0.000055	0.000023	0.000019	-2.274433	-8.700069	51.300619
61909	1.488674	-0.388507	9.672089	0.007768	0.003345	-0.019000	1.000000	-0.000036	0.000011	0.000024	-2.273218	-8.700593	51.301204
61910	1.488327	-0.389450	9.672104	0.008320	0.002478	-0.019000	1.000000	-0.000055	0.000023	0.000019	-2.274063	-8.699828	51.301223
61911	1.462816	-0.379019	9.692781	-0.018156	-0.012565	-0.002845	1.000000	-0.000043	0.000009	0.000021	-2.273496	-8.700669	51.303546
61912	1.504342	-0.380482	9.686273	0.009405	0.019106	-0.002935	1.000000	-0.000052	0.000015	0.000019	-2.274071	-8.700779	51.303585
61913	1.487343	-0.392470	9.672134	0.009970	-0.000150	-0.019001	1.000000	-0.000048	0.000025	0.000021	-2.274187	-8.699862	51.304616
61914	1.489448	-0.362451	9.687143	-0.013756	0.019173	-0.005037	1.000000	-0.000048	0.000034	0.000014	-2.274183	-8.697861	51.304001
61915	1.486237	-0.394346	9.672227	0.011063	-0.001884	-0.019002	1.000000	-0.000038	0.000019	0.000024	-2.273279	-8.697559	51.304751
61916	1.460713	-0.383890	9.692906	-0.015414	-0.016910	-0.002847	1.000000	-0.000058	0.000015	0.000009	-2.274264	-8.697760	51.303629
61917	1.471722	-0.376228	9.673042	-0.012096	-0.001794	-0.021104	1.000000	-0.000036	0.000011	0.000024	-2.273116	-8.698267	51.303442
61918	1.471364	-0.377140	9.673061	-0.011544	-0.002660	-0.021103	1.000000	-0.000053	0.000024	0.000011	-2.273606	-8.697366	51.302573
61919	1.501537	-0.387255	9.686440	0.013237	0.013029	-0.002929	1.000000	-0.000048	0.000009	0.000011	-2.273592	-8.698274	51.302420
61920	1.481972	-0.370506	9.653223	-0.007680	0.011579	-0.039354	1.000000	-0.000048	0.000025	0.000021	-2.273673	-8.697282	51.302712
61921	1.459048	-0.388627	9.692968	-0.013629	-0.020579	-0.002852	1.000000	-0.000036	0.000011	0.000024	-2.279381	-8.698309	51.318791
61922	1.500560	-0.390030	9.686480	0.013926	0.011095	-0.002928	1.000000	-0.000049	0.000014	0.000036	-2.279932	-8.698463	51.320919
61923	1.480930	-0.373288	9.653276	-0.006996	0.009641	-0.039352	1.000000	-0.000046	0.000026	0.000014	-2.279641	-8.697382	51.321255
61924	1.469434	-0.382783	9.673133	-0.009214	-0.007203	-0.021103	1.000000	-0.000041	-0.000005	0.000003	-2.278722	-8.699846	51.319619
61925	1.483155	-0.403799	9.672310	0.015580	-0.009868	-0.019013	1.000000	-0.000055	0.000023	0.000019	-2.279681	-8.699078	51.318882
61926	1.468829	-0.384712	9.673148	-0.008129	-0.008920	-0.021103	1.000000	-0.000038	0.000019	0.000024	-2.278755	-8.698737	51.319510
61927	1.485004	-0.374748	9.687358	-0.007603	0.008587	-0.005015	1.000000	-0.000055	0.000023	0.000019	-2.279704	-8.697977	51.319009
61928	1.479366	-0.378051	9.653330	-0.004279	0.005348	-0.039347	1.000000	-0.000043	0.000009	0.000021	-2.279273	-8.698735	51.319382
61929	1.484391	-0.376646	9.687378	-0.006505	0.006861	-0.005013	1.000000	-0.000044	0.000019	0.000014	-2.278776	-8.698468	51.318456
61930	1.492551	-0.399926	9.652549	0.021072	0.001814	-0.037264	1.000000	-0.000048	0.000025	0.000021	-2.278886	-8.697477	51.318790
61931	1.472162	-0.387180	9.707298	-0.008173	-0.010870	0.013228	1.000000	-0.000046	0.000026	0.000014	-2.278636	-8.696414	51.319028
61932	1.483134	-0.379582	9.687456	-0.004863	0.004258	-0.005010	1.000000	-0.000054	0.000005	0.000034	-2.279682	-8.697668	51.320900
61933	1.494183	-0.371957	9.667606	-0.001555	0.019394	-0.023246	1.000000	-0.000044	0.000019	0.000014	-2.279191	-8.697401	51.319982
61934	1.485082	-0.410295	9.706498	0.017733	-0.015281	0.015302	1.000000	-0.000055	0.000023	0.000019	-2.280067	-8.696636	51.320043
61935	1.482075	-0.382629	9.687498	-0.003215	0.001673	-0.005009	1.000000	-0.000045	0.000017	0.000021	-2.279917	-8.696495	51.319896
61936	1.493022	-0.374929	9.667671	0.000092	0.016808	-0.023241	1.000000	-0.000045	0.000017	0.000021	-2.279757	-8.696378	51.320249
61937	1.464784	-0.395426	9.673330	-0.002114	-0.018411	-0.021113	1.000000	-0.000045	0.000017	0.000021	-2.279557	-8.696275	51.321012
61938	1.497590	-0.374705	9.701747	-0.001561	0.017420	0.011098	1.000000	-0.000062	0.000021	0.000016	-2.281198	-8.695734	51.320798
61939	1.463932	-0.397607	9.673369	-0.001015	-0.020143	-0.021117	1.000000	-0.000046	0.000026	0.000014	-2.280924	-8.694620	51.320584
61940	1.480253	-0.387622	9.687578	-0.000463	-0.002662	-0.005009	1.000000	-0.000043	0.000000	0.000029	-2.280580	-8.696388	51.321860
61941	1.474757	-0.390769	9.653529	0.002836	-0.005863	-0.039347	1.000000	-0.000044	0.000019	0.000014	-2.280049	-8.696138	51.321406
61942	1.507588	-0.369880	9.681963	0.003398	0.029958	-0.007121	1.000000	-0.000045	0.000017	0.000021	-2.279889	-8.696021	51.321758
61943	1.476641	-0.421333	9.672559	0.025439	-0.025428	-0.019062	1.000000	-0.000045	0.000017	0.000021	-2.279695	-8.695926	51.322625
61944	1.495610	-0.380488	9.701827	0.001747	0.012209	0.011106	1.000000	-0.000052	0.000015	0.000019	-2.280300	-8.696034	51.322703
61945	1.478749	-0.392339	9.687618	0.002290	-0.007003	-0.005011	1.000000	-0.000041	0.000011	0.000013	-2.279469	-8.696686	51.322955
61946	1.478401	-0.393282	9.687633	0.002839	-0.007868	-0.005012	1.000000	-0.000050	0.000023	0.000029	-2.279936	-8.695829	51.324176
61947	1.500811	-0.376860	9.647966	0.008892	0.023297	-0.041450	1.000000	-0.000036	-0.000004	0.000013	-2.278565	-8.698203	51.324105
61948	1.447588	-0.386124	9.674230	-0.020331	-0.026110	-0.023191	1.000000	-0.000073	0.000016	0.000029	-2.281684	-8.698157	51.325390
61949	1.494228	-0.385594	9.701839	0.004508	0.007864	0.011110	1.000000	-0.000041	0.000027	0.000024	-2.281025	-8.696934	51.325934
61950	1.482541	-0.395108	9.721690	0.002311	-0.009025	0.029325	1.000000	-0.000041	0.000011	0.000013	-2.280239	-8.697555	51.325417
61951	1.479594	-0.367266	9.702734	-0.018656	0.007961	0.009060	1.000000	-0.000046	0.000026	0.000014	-2.280028	-8.696442	51.324732
61952	1.451232	-0.387690	9.708372	-0.020872	-0.027258	0.011145	1.000000	-0.000042	0.000020	0.000006	-2.279155	-8.696053	51.323311
61953	1.504034	-0.380401	9.682108	0.009446	0.020425	-0.007100	1.000000	-0.000043	0.000009	0.000021	-2.278733	-8.696829	51.323839
61954	1.475947	-0.400909	9.687694	0.007229	-0.014792	-0.005022	1.000000	-0.000050	0.000008	0.000019	-2.279068	-8.697810	51.323934
61955	1.492119	-0.391002	9.701947	0.007804	0.002664	0.011111	1.000000	-0.000043	0.000034	0.000024	-2.278664	-8.695717	51.324716
61956	1.477710	-0.371833	9.702848	-0.015906	0.003628	0.009068	1.000000	-0.000044	0.000019	0.000014	-2.278148	-8.695462	51.324180
61957	1.488544	-0.364220	9.683062	-0.012616	0.018793	-0.009137	1.000000	-0.000062	0.000030	0.000009	-2.279707	-8.693933	51.323406
61958	1.476759	-0.373985	9.702910	-0.014809	0.001894	0.009070	1.000000	-0.000045	0.000017	0.000021	-2.279548	-8.693815	51.323756
61959	1.471135	-0.377119	9.668875	-0.011547	-0.001244	-0.025274	1.000000	-0.000045	0.000017	0.000021	-2.279426	-8.693659	51.323281
61960	1.484685	-0.398192	9.668024	0.013261	-0.003941	-0.023236	1.000000	-0.000053	0.000015	0.000019	-2.280031	-8.693765	51.323357
61961	1.489649	-0.397081	9.702079	0.011101	-0.002541	0.011107	1.000000	-0.000053	0.000015	0.000019	-2.280589	-8.693924	51.324523
61962	1.458845	-0.388888	9.688714	-0.012640	-0.019886	-0.007073	1.000000	-0.000049	0.000018	0.000004	-2.280481	-8.693758	51.322826
61963	1.500302	-0.390426	9.682288	0.014938	0.011776	-0.007093	1.000000	-0.000053	0.000015	0.000019	-2.281124	-8.693836	51.322181
61964	1.491355	-0.369164	9.717222	-0.011476	0.015014	0.025223	1.000000	-0.000044	0.000019	0.000014	-2.280608	-8.693581	51.321645
61965	1.482807	-0.403307	9.668101	0.016006	-0.008268	-0.023243	1.000000	-0.000060	0.000038	0.000019	-2.281986	-8.691066	51.321934
61966	1.485109	-0.373385	9.683240	-0.007669	0.011014	-0.009120	1.000000	-0.000039	0.000003	0.000013	-2.280929	-8.692561	51.321433
61967	1.487551	-0.403082	9.702154	0.014402	-0.007736	0.011100	1.000000	-0.000052	0.000006	0.000026	-2.281640	-8.693682	51.322221
61968	1.473526	-0.384070	9.703007	-0.009309	-0.006764	0.009074	1.000000	-0.000050	0.000008	0.000019	-2.281975	-8.694663	51.322314
61969	1.484586	-0.376333	9.683206	-0.006025	0.008427	-0.009117	1.000000	-0.000044	0.000019	0.000014	-2.281481	-8.694390	51.321174
61970	1.500849	-0.366497	9.697470	-0.005434	0.025864	0.007043	1.000000	-0.000054	0.000014	0.000026	-2.282444	-8.694632	51.322135
61971	1.467514	-0.389240	9.668945	-0.004974	-0.011594	-0.025275	1.000000	-0.000048	-0.000000	0.000018	-2.282553	-8.696460	51.321137
61972	1.506392	-0.421616	9.647375	0.046828	-0.000086	-0.039426	1.000000	-0.000044	0.000019	0.000014	-2.282037	-8.696204	51.320600
61973	1.500202	-0.369315	9.697463	-0.003778	0.023267	0.007050	1.000000	-0.000036	0.000011	0.000023	-2.280781	-8.696743	51.321922
61974	1.483336	-0.381074	9.683212	-0.003275	0.004105	-0.009113	1.000000	-0.000053	0.000015	0.000019	-2.281386	-8.696848	51.321997
61975	1.482933	-0.382106	9.683234	-0.002723	0.003237	-0.009112	1.000000	-0.000048	0.000025	0.000021	-2.281469	-8.695857	51.322573
61976	1.493813	-0.374275	9.663473	0.000556	0.018435	-0.027294	1.000000	-0.000036	0.000020	0.000016	-2.280187	-8.695376	51.322311
61977	1.482113	-0.383856	9.683290	-0.001630	0.001513	-0.009111	1.000000	-0.000047	0.000016	0.000029	-2.280425	-8.695394	51.323068
61978	1.481803	-0.384929	9.683295	-0.001081	0.000648	-0.009111	1.000000	-0.000058	0.000015	0.000009	-2.281440	-8.695585	51.321981
61979	1.464885	-0.396803	9.669036	-0.000584	-0.018505	-0.025284	1.000000	-0.000049	0.000018	0.000004	-2.281324	-8.695410	51.319890
61980	1.475904	-0.389130	9.649251	0.002691	-0.003300	-0.043463	1.000000	-0.000051	0.000013	0.000044	-2.282236	-8.695700	51.322897
61981	1.497344	-0.377183	9.697602	0.000624	0.016348	0.007065	1.000000	-0.000041	0.000027	0.000024	-2.281614	-8.694454	51.322381
61982	1.449809	-0.379774	9.669989	-0.023204	-0.019238	-0.027292	1.000000	-0.000060	0.000023	0.000009	-2.282899	-8.693770	51.321276
61983	1.491208	-0.381383	9.663597	0.004379	0.012404	-0.027285	1.000000	-0.000045	0.000017	0.000021	-2.282781	-8.693698	51.321845
61984	1.468121	-0.399842	9.703189	-0.000522	-0.020609	0.009060	1.000000	-0.000055	0.000023	0.000019	-2.283657	-8.692926	51.321900
61985	1.495639	-0.381314	9.697704	0.002816	0.012876	0.007069	1.000000	-0.000044	0.000019	0.000014	-2.283112	-8.692689	51.321850
61986	1.490180	-0.384277	9.663641	0.006026	0.009809	-0.027283	1.000000	-0.000041	0.000002	0.000021	-2.282413	-8.694319	51.322233
61987	1.495141	-0.383074	9.697711	0.003914	0.011146	0.007071	1.000000	-0.000046	0.000026	0.000014	-2.282184	-8.693184	51.321214
61988	1.508510	-0.404179	9.696843	0.028726	0.008426	0.009066	1.000000	-0.000055	0.000023	0.000019	-2.283060	-8.692411	51.321269
61989	1.452440	-0.384553	9.704171	-0.022040	-0.023094	0.007057	1.000000	-0.000044	0.000019	0.000014	-2.282551	-8.692192	51.321000
61990	1.493882	-0.386052	9.697787	0.005560	0.008543	0.007073	1.000000	-0.000051	0.000017	0.000011	-2.282800	-8.692158	51.320186
61991	1.491032	-0.358227	9.678931	-0.015437	0.025629	-0.013079	1.000000	-0.000045	0.000017	0.000021	-2.282704	-8.692009	51.319504
61992	1.504635	-0.379292	9.678025	0.009374	0.022908	-0.011088	1.000000	-0.000050	0.000008	0.000019	-2.283041	-8.692987	51.319593
61993	1.476416	-0.399744	9.683517	0.007131	-0.012316	-0.009122	1.000000	-0.000042	0.000020	0.000006	-2.282167	-8.692605	51.317797
61994	1.487499	-0.391969	9.663745	0.010397	0.002910	-0.027282	1.000000	-0.000052	0.000006	0.000026	-2.282860	-8.693720	51.318772
61995	1.503908	-0.382133	9.678026	0.011013	0.020315	-0.011084	1.000000	-0.000041	0.000011	0.000013	-2.282120	-8.694355	51.317632
61996	1.486896	-0.393894	9.663760	0.011486	0.001186	-0.027283	1.000000	-0.000052	0.000031	0.000029	-2.282858	-8.692620	51.318830
61997	1.486548	-0.394836	9.663775	0.012032	0.000327	-0.027284	1.000000	-0.000039	0.000003	0.000013	-2.281825	-8.694098	51.317432
61998	1.486410	-0.395678	9.663762	0.012580	-0.000537	-0.027285	1.000000	-0.000043	0.000010	0.000021	-2.281397	-8.694853	51.317796
61999	1.477538	-0.374526	9.698746	-0.013775	0.002627	0.005095	1.000000	-0.000053	0.000015	0.000019	-2.282042	-8.694971	51.317207
62000	1.485813	-0.397637	9.663773	0.013669	-0.002261	-0.027286	1.000000	-0.000044	0.000019	0.000014	-2.281526	-8.694712	51.316668
62001	1.488286	-0.367722	9.678998	-0.009960	0.016992	-0.013053	1.000000	-0.000050	0.000008	0.000019	-2.281833	-8.695704	51.316993
62002	1.490344	-0.397484	9.697870	0.012139	-0.001839	0.007071	1.000000	-0.000041	0.000036	0.000016	-2.281092	-8.693470	51.316696
62003	1.487508	-0.369640	9.679045	-0.008868	0.015272	-0.013049	1.000000	-0.000058	-0.000001	-0.000002	-2.282036	-8.695483	51.313435
62004	1.473504	-0.350615	9.679955	-0.032582	0.016274	-0.015017	1.000000	-0.000047	0.000016	0.000029	-2.282235	-8.695499	51.314667
62005	1.472902	-0.411251	9.683570	0.013690	-0.022684	-0.009147	1.000000	-0.000044	0.000019	0.000014	-2.281722	-8.695258	51.314042
62006	1.470215	-0.383315	9.664733	-0.007314	-0.005573	-0.029261	1.000000	-0.000043	0.000000	0.000028	-2.281381	-8.697025	51.315308
62007	1.486702	-0.373474	9.679021	-0.006672	0.011798	-0.013043	1.000000	-0.000045	0.000008	0.000029	-2.281243	-8.697973	51.317851
62008	1.469924	-0.385172	9.664703	-0.006215	-0.007313	-0.029261	1.000000	-0.000043	0.000010	0.000021	-2.280814	-8.698726	51.318214
62009	1.488720	-0.404160	9.697843	0.015984	-0.007922	0.007062	1.000000	-0.000045	0.000017	0.000021	-2.280609	-8.698637	51.319133
62010	1.485725	-0.376247	9.679064	-0.005022	0.009196	-0.013039	1.000000	-0.000043	0.000034	0.000024	-2.280225	-8.696540	51.319722
62011	1.473906	-0.385872	9.698854	-0.007182	-0.007788	0.005100	1.000000	-0.000041	0.000011	0.000013	-2.279439	-8.697181	51.319249
62012	1.484969	-0.378225	9.679103	-0.003927	0.007465	-0.013037	1.000000	-0.000069	0.000019	0.000014	-2.281846	-8.696851	51.318750
62013	1.473223	-0.388112	9.698868	-0.006085	-0.009521	0.005099	1.000000	-0.000044	0.000019	0.000014	-2.281332	-8.696610	51.317954
62014	1.526203	-0.380855	9.672737	0.024237	0.038222	-0.012986	1.000000	-0.000045	-0.000001	0.000036	-2.281349	-8.698514	51.320104
62015	1.484245	-0.381304	9.679093	-0.002292	0.004868	-0.013035	1.000000	-0.000053	0.000015	0.000019	-2.281991	-8.698656	51.320178
62016	1.483896	-0.382247	9.679109	-0.001743	0.004004	-0.013034	1.000000	-0.000038	0.000019	0.000024	-2.281068	-8.698311	51.320800
62017	1.511399	-0.363570	9.673724	0.001613	0.037491	-0.014930	1.000000	-0.000041	0.000027	0.000024	-2.280380	-8.697127	51.321706
62018	1.482897	-0.383949	9.679195	-0.000644	0.002267	-0.013034	1.000000	-0.000044	0.000028	0.000006	-2.279776	-8.695853	51.320264
62019	1.484947	-0.413846	9.698013	0.021465	-0.016608	0.007041	1.000000	-0.000063	0.000015	-0.000001	-2.281184	-8.696159	51.318298
62020	1.496017	-0.406187	9.678270	0.024715	-0.001344	-0.011088	1.000000	-0.000047	0.000016	0.000029	-2.281383	-8.696174	51.319528
62021	1.493209	-0.378270	9.659493	0.003692	0.015793	-0.031159	1.000000	-0.000044	0.000019	0.000014	-2.280877	-8.695972	51.319636
62022	1.486695	-0.386008	9.713325	-0.001048	0.000890	0.021332	1.000000	-0.000047	0.000016	0.000029	-2.281076	-8.695987	51.320866
62023	1.464553	-0.399700	9.664929	0.001979	-0.020297	-0.029278	1.000000	-0.000049	0.000018	0.000004	-2.280957	-8.695827	51.318917
62024	1.480788	-0.389907	9.679280	0.002638	-0.002935	-0.013034	1.000000	-0.000045	0.000017	0.000021	-2.280799	-8.695703	51.319261
62025	1.491839	-0.382140	9.659553	0.005885	0.012329	-0.031155	1.000000	-0.000053	0.000015	0.000019	-2.281365	-8.695842	51.319888
62026	1.482719	-0.361113	9.694622	-0.020413	0.015427	0.001277	1.000000	-0.000051	0.000035	-0.000004	-2.281438	-8.693776	51.317267
62027	1.498507	-0.411109	9.712474	0.025968	-0.005341	0.023266	1.000000	-0.000053	0.000015	0.000019	-2.282056	-8.693893	51.317326
62028	1.473947	-0.395961	9.645287	0.007408	-0.008480	-0.047405	1.000000	-0.000047	0.000016	0.000029	-2.282257	-8.693908	51.318555
62029	1.490224	-0.386300	9.659636	0.008070	0.008876	-0.031153	1.000000	-0.000058	0.000015	0.000009	-2.283287	-8.694107	51.317153
62030	1.469857	-0.373988	9.714424	-0.020914	-0.004181	0.019400	1.000000	-0.000036	0.000021	0.000016	-2.282006	-8.693623	51.316889
62031	1.503323	-0.408189	9.658712	0.033431	0.005261	-0.029223	1.000000	-0.000045	0.000017	0.000021	-2.281819	-8.693528	51.317732
62032	1.491891	-0.358184	9.675013	-0.014428	0.026376	-0.016821	1.000000	-0.000044	0.000019	0.000014	-2.281304	-8.693266	51.317190
62033	1.493964	-0.387946	9.693795	0.007693	0.007473	0.003217	1.000000	-0.000040	0.000018	0.000031	-2.280730	-8.693088	51.318727
62034	1.488484	-0.390766	9.659725	0.010808	0.004550	-0.031152	1.000000	-0.000043	0.000010	0.000021	-2.280303	-8.693841	51.319087
62035	1.467955	-0.378486	9.714538	-0.018168	-0.008530	0.019402	1.000000	-0.000051	0.000042	0.000014	-2.280610	-8.690984	51.318780
62036	1.506449	-0.410969	9.692913	0.033602	0.002987	0.005139	1.000000	-0.000051	0.000013	0.000044	-2.281527	-8.691275	51.321779
62037	1.492335	-0.392005	9.693883	0.009879	0.003995	0.003217	1.000000	-0.000058	0.000015	0.000009	-2.282529	-8.691539	51.321478
62038	1.472853	-0.374667	9.660815	-0.011279	0.002970	-0.033072	1.000000	-0.000025	0.000032	0.000021	-2.279988	-8.689734	51.321752
62039	1.491458	-0.393604	9.693953	0.010978	0.002261	0.003217	1.000000	-0.000048	0.000009	0.000011	-2.279963	-8.690579	51.320852
62040	1.485970	-0.396378	9.659883	0.014081	-0.000645	-0.031155	1.000000	-0.000036	0.000021	0.000016	-2.278682	-8.690095	51.320587
62041	1.502195	-0.386583	9.674266	0.014765	0.016687	-0.014884	1.000000	-0.000053	0.000015	0.000019	-2.279262	-8.690207	51.320941
62042	1.476571	-0.376312	9.694982	-0.011636	0.001548	0.001303	1.000000	-0.000048	0.000025	0.000021	-2.279374	-8.689206	51.321268
62043	1.470981	-0.379246	9.660922	-0.008544	-0.001349	-0.033069	1.000000	-0.000053	0.000015	0.000019	-2.280006	-8.689323	51.321124
62044	1.489711	-0.398367	9.694027	0.013723	-0.002074	0.003213	1.000000	-0.000036	0.000011	0.000023	-2.278814	-8.689853	51.321760
62045	1.475505	-0.379081	9.695037	-0.009999	-0.001061	0.001305	1.000000	-0.000041	0.000027	0.000024	-2.278142	-8.688710	51.323104
62046	1.516771	-0.380550	9.688762	0.017638	0.030545	0.001399	1.000000	-0.000044	0.000028	0.000006	-2.277538	-8.687431	51.321661
62047	1.488280	-0.401045	9.694137	0.015371	-0.004691	0.003210	1.000000	-0.000055	0.000023	0.000019	-2.278368	-8.686668	51.321863
62048	1.487714	-0.402094	9.694180	0.015920	-0.005557	0.003209	1.000000	-0.000048	0.000034	0.000014	-2.278392	-8.684651	51.321288
62049	1.473313	-0.382975	9.695217	-0.007793	-0.004535	0.001306	1.000000	-0.000048	0.000025	0.000021	-2.278469	-8.683663	51.321569
62050	1.484279	-0.375068	9.675543	-0.004564	0.010777	-0.016782	1.000000	-0.000038	0.000019	0.000024	-2.277547	-8.683316	51.322188
62051	1.477695	-0.382946	9.729349	-0.009227	-0.004258	0.035681	1.000000	-0.000053	0.000015	0.000019	-2.278165	-8.683414	51.322148
62052	1.488785	-0.375177	9.709654	-0.005999	0.011054	0.017596	1.000000	-0.000047	0.000016	0.000029	-2.278366	-8.683427	51.323374
62053	1.485665	-0.406912	9.694293	0.018664	-0.009896	0.003200	1.000000	-0.000044	0.000019	0.000014	-2.277863	-8.683200	51.322704
62054	1.483070	-0.378923	9.675579	-0.002376	0.007319	-0.016778	1.000000	-0.000048	0.000000	0.000018	-2.277932	-8.685049	51.322799
62055	1.476665	-0.386903	9.729349	-0.007026	-0.007737	0.035681	1.000000	-0.000053	0.000015	0.000019	-2.278525	-8.685146	51.322825
62056	1.496321	-0.401121	9.674584	0.022989	0.003691	-0.014886	1.000000	-0.000053	0.000025	0.000011	-2.279044	-8.684226	51.321989
62057	1.440396	-0.381508	9.681891	-0.027827	-0.027744	-0.016884	1.000000	-0.000057	0.000006	0.000016	-2.280151	-8.685452	51.321332
62058	1.506480	-0.339835	9.739457	-0.026658	0.044094	0.048314	1.000000	-0.000044	0.000019	0.000014	-2.279636	-8.685187	51.320788
62059	1.490442	-0.406154	9.640474	0.027141	-0.000896	-0.049267	1.000000	-0.000062	-0.000004	0.000013	-2.281243	-8.687534	51.320881
62060	1.428545	-0.393601	9.701520	-0.028862	-0.046533	0.001188	1.000000	-0.000054	0.000005	0.000034	-2.282299	-8.688783	51.322728
62061	1.495801	-0.346814	9.671218	-0.019989	0.037531	-0.020427	1.000000	-0.000046	0.000011	0.000003	-2.281976	-8.689484	51.320285
62062	1.495387	-0.407475	9.674463	0.026263	-0.001503	-0.014894	1.000000	-0.000047	-0.000009	0.000026	-2.282134	-8.692348	51.321278
62063	1.459167	-0.346452	9.711535	-0.048504	0.005307	0.013844	1.000000	-0.000064	0.000004	0.000014	-2.284002	-8.693810	51.321287
62064	1.467607	-0.369571	9.676419	-0.021180	0.000569	-0.018654	1.000000	-0.000053	0.000015	0.000019	-2.284610	-8.693904	51.321350
62065	1.481082	-0.390689	9.675415	0.003638	-0.002206	-0.016776	1.000000	-0.000046	0.000017	0.000021	-2.284417	-8.693807	51.322357
62066	1.466917	-0.371491	9.676450	-0.020081	-0.001165	-0.018652	1.000000	-0.000044	0.000019	0.000014	-2.283902	-8.693541	51.321813
62067	1.497031	-0.381868	9.689843	0.004901	0.014213	-0.000463	1.000000	-0.000045	0.000008	0.000029	-2.283778	-8.694500	51.324349
62068	1.480046	-0.393548	9.675458	0.005284	-0.004813	-0.016777	1.000000	-0.000052	0.000031	0.000029	-2.284519	-8.692759	51.325544
62069	1.465665	-0.374414	9.676527	-0.018438	-0.003775	-0.018649	1.000000	-0.000041	0.000027	0.000024	-2.283865	-8.691565	51.326460
62070	1.490450	-0.386589	9.655856	0.009042	0.009663	-0.034841	1.000000	-0.000046	0.000017	0.000021	-2.283709	-8.691437	51.326800
62071	1.500343	-0.383945	9.724066	0.004597	0.012692	0.033922	1.000000	-0.000048	0.000025	0.000021	-2.283844	-8.690471	51.326744
62072	1.483326	-0.395525	9.709682	0.004977	-0.006332	0.017601	1.000000	-0.000040	0.000018	0.000031	-2.283282	-8.690263	51.328247
62073	1.469059	-0.376216	9.710746	-0.018744	-0.005290	0.015735	1.000000	-0.000034	0.000029	0.000026	-2.281879	-8.688828	51.328950
62074	1.493836	-0.388358	9.690078	0.008736	0.008148	-0.000458	1.000000	-0.000047	0.000016	0.000029	-2.282082	-8.688840	51.330174
62075	1.504986	-0.380681	9.670399	0.011955	0.023493	-0.018514	1.000000	-0.000067	0.000012	0.000014	-2.284162	-8.689371	51.329904
62076	1.481697	-0.399342	9.709775	0.007183	-0.009805	0.017596	1.000000	-0.000027	0.000030	0.000029	-2.281980	-8.687705	51.331064
62077	1.506641	-0.411499	9.689078	0.034662	0.003622	0.001400	1.000000	-0.000057	-0.000003	0.000023	-2.283123	-8.689971	51.332584
62078	1.476141	-0.403165	9.675659	0.010764	-0.013479	-0.016790	1.000000	-0.000055	0.000014	0.000026	-2.284090	-8.690202	51.333529
62079	1.492561	-0.393563	9.690065	0.011494	0.003796	-0.000459	1.000000	-0.000046	0.000002	0.000011	-2.283775	-8.691937	51.332904
62080	1.473432	-0.376184	9.656996	-0.009749	0.002923	-0.036697	1.000000	-0.000051	0.000017	0.000011	-2.284025	-8.691890	51.332080
62081	1.497258	-0.393750	9.724149	0.010118	0.003976	0.033925	1.000000	-0.000048	0.000009	0.000011	-2.283991	-8.692751	51.331460
62082	1.478119	-0.376337	9.691086	-0.011127	0.003108	-0.002311	1.000000	-0.000046	0.000011	0.000003	-2.283613	-8.693441	51.329767
62083	1.505811	-0.357905	9.685859	-0.007738	0.036606	-0.004016	1.000000	-0.000060	0.000023	0.000009	-2.284894	-8.692763	51.328469
62084	1.491231	-0.398730	9.690058	0.014238	-0.000541	-0.000462	1.000000	-0.000062	0.000012	0.000024	-2.286626	-8.693215	51.329134
62085	1.477172	-0.379566	9.691105	-0.009483	0.000500	-0.002309	1.000000	-0.000032	0.000014	0.000008	-2.284694	-8.693512	51.328799
62086	1.504754	-0.361029	9.685908	-0.006090	0.034003	-0.004005	1.000000	-0.000062	0.000030	0.000009	-2.286247	-8.691931	51.327667
62087	1.471043	-0.383369	9.657078	-0.005923	-0.003136	-0.036694	1.000000	-0.000048	0.000025	0.000021	-2.286341	-8.690961	51.328174
62088	1.500924	-0.393900	9.670501	0.019085	0.012216	-0.018505	1.000000	-0.000053	0.000025	0.000011	-2.286861	-8.690036	51.327335
62089	1.484345	-0.345696	9.652976	-0.026256	0.031422	-0.040223	1.000000	-0.000037	0.000021	0.000016	-2.285578	-8.689584	51.327082
62090	1.505159	-0.393939	9.704667	0.017724	0.012373	0.015882	1.000000	-0.000048	0.000025	0.000021	-2.285692	-8.688578	51.327405
62091	1.485713	-0.376447	9.671665	-0.003539	0.011532	-0.020342	1.000000	-0.000036	0.000027	0.000034	-2.284599	-8.687297	51.329395
62092	1.471112	-0.416954	9.675840	0.018432	-0.025620	-0.016826	1.000000	-0.000050	0.000008	0.000018	-2.284939	-8.688265	51.329468
62093	1.490073	-0.376628	9.705809	-0.004891	0.011689	0.014048	1.000000	-0.000048	0.000034	0.000014	-2.284975	-8.686227	51.328415
62094	1.472900	-0.388179	9.691414	-0.004541	-0.007300	-0.002308	1.000000	-0.000043	0.000025	0.000031	-2.284682	-8.685141	51.329902
62095	1.514192	-0.389722	9.685202	0.023125	0.024280	-0.002149	1.000000	-0.000041	0.000027	0.000024	-2.284036	-8.683924	51.330555
62096	1.471951	-0.390038	9.691483	-0.003444	-0.009031	-0.002309	1.000000	-0.000053	0.000015	0.000019	-2.284646	-8.684014	51.330613
62097	1.471589	-0.390953	9.691502	-0.002890	-0.009897	-0.002310	1.000000	-0.000037	0.000021	0.000016	-2.283341	-8.683511	51.329900
62098	1.471078	-0.391913	9.691540	-0.002341	-0.010762	-0.002310	1.000000	-0.000057	0.000031	0.000019	-2.284488	-8.681847	51.329929
62099	1.470660	-0.392915	9.691563	-0.001794	-0.011636	-0.002311	1.000000	-0.000041	0.000011	0.000013	-2.283681	-8.682507	51.329722
62100	1.472489	-0.422949	9.710176	0.020381	-0.030681	0.017535	1.000000	-0.000060	0.000038	0.000019	-2.285098	-8.679965	51.329737
62101	1.483905	-0.355274	9.687521	-0.022116	0.022929	-0.005789	1.000000	-0.000032	0.000014	0.000008	-2.283209	-8.680226	51.328402
62102	1.485943	-0.385211	9.706105	0.000060	0.003881	0.014055	1.000000	-0.000060	0.000014	0.000016	-2.284583	-8.680535	51.328180
62103	1.485667	-0.386416	9.706099	0.000605	0.003011	0.014056	1.000000	-0.000060	0.000014	0.000016	-2.285976	-8.680879	51.328117
62104	1.466552	-0.369096	9.673055	-0.020686	0.002225	-0.022153	1.000000	-0.000050	0.000008	0.000018	-2.286316	-8.681845	51.328188
62105	1.480060	-0.390177	9.671988	0.004125	-0.000570	-0.020336	1.000000	-0.000044	0.000019	0.000013	-2.285825	-8.681615	51.327997
62106	1.496272	-0.380518	9.686476	0.004888	0.016673	-0.003960	1.000000	-0.000049	0.000018	0.000003	-2.285716	-8.681423	51.326286
62107	1.479357	-0.392105	9.672017	0.005221	-0.002302	-0.020337	1.000000	-0.000053	0.000015	0.000019	-2.286309	-8.681536	51.326422
62108	1.465262	-0.373015	9.673100	-0.018501	-0.001235	-0.022148	1.000000	-0.000047	0.000016	0.000029	-2.286513	-8.681546	51.327642
62109	1.478940	-0.394111	9.672000	0.006312	-0.004036	-0.020338	1.000000	-0.000045	-0.000008	0.000018	-2.286319	-8.684322	51.327924
62110	1.478757	-0.395072	9.671988	0.006860	-0.004900	-0.020339	1.000000	-0.000048	0.000025	0.000021	-2.286433	-8.683314	51.328245
62111	1.481151	-0.365373	9.687567	-0.016640	0.014268	-0.005762	1.000000	-0.000047	0.000016	0.000029	-2.286633	-8.683322	51.329955
62112	1.485917	-0.364651	9.721690	-0.018503	0.015228	0.028634	1.000000	-0.000040	0.000018	0.000031	-2.286073	-8.683112	51.331454
62113	1.482807	-0.396169	9.706144	0.006092	-0.005673	0.014053	1.000000	-0.000036	0.000011	0.000023	-2.284886	-8.683667	51.332207
62114	1.491598	-0.359082	9.667999	-0.012360	0.027947	-0.023762	1.000000	-0.000046	0.000026	0.000014	-2.284641	-8.682518	51.331645
62115	1.463155	-0.379605	9.673163	-0.014674	-0.007291	-0.022145	1.000000	-0.000057	0.000012	0.000034	-2.285963	-8.682921	51.333933
62116	1.479482	-0.370029	9.687646	-0.013898	0.009937	-0.005752	1.000000	-0.000036	0.000011	0.000023	-2.284774	-8.683448	51.334562
62117	1.469927	-0.408860	9.725826	0.005654	-0.025429	0.032050	1.000000	-0.000051	0.000026	0.000004	-2.284938	-8.682413	51.333331
62118	1.509054	-0.381561	9.701086	0.011697	0.024356	0.012442	1.000000	-0.000055	0.000014	0.000026	-2.285907	-8.682642	51.334270
62119	1.492167	-0.393183	9.686603	0.012020	0.005392	-0.003954	1.000000	-0.000047	0.000016	0.000029	-2.286059	-8.682684	51.335393
62120	1.478071	-0.374058	9.687706	-0.011701	0.006465	-0.005747	1.000000	-0.000051	0.000017	0.000011	-2.286310	-8.682631	51.334564
62121	1.502976	-0.386292	9.667006	0.015743	0.019947	-0.021951	1.000000	-0.000051	0.000017	0.000011	-2.286579	-8.682604	51.333664
62122	1.477391	-0.376049	9.687733	-0.010608	0.004734	-0.005744	1.000000	-0.000046	0.000017	0.000021	-2.286424	-8.682473	51.333998
62123	1.477072	-0.377127	9.687740	-0.010051	0.003861	-0.005743	1.000000	-0.000063	0.000015	-0.000002	-2.287783	-8.682729	51.331905
62124	1.507106	-0.387831	9.701140	0.015007	0.019136	0.012449	1.000000	-0.000048	0.000016	0.000029	-2.287988	-8.682738	51.333122
62125	1.476459	-0.379061	9.687758	-0.008955	0.002126	-0.005742	1.000000	-0.000032	0.000014	0.000008	-2.286068	-8.683023	51.332174
62126	1.487630	-0.370970	9.668161	-0.005780	0.017556	-0.023731	1.000000	-0.000051	0.000017	0.000011	-2.286319	-8.682969	51.331344
62127	1.492425	-0.370217	9.702285	-0.007619	0.018463	0.010669	1.000000	-0.000034	0.000013	0.000016	-2.284756	-8.683408	51.331251
62128	1.503646	-0.362004	9.682689	-0.004444	0.033895	-0.007317	1.000000	-0.000034	0.000013	0.000016	-2.283208	-8.683794	51.330996
62129	1.477541	-0.411317	9.706317	0.014881	-0.019587	0.014025	1.000000	-0.000044	0.000019	0.000013	-2.282708	-8.683554	51.330384
62130	1.486427	-0.374372	9.668215	-0.003595	0.014092	-0.023725	1.000000	-0.000060	0.000014	0.000016	-2.284083	-8.683859	51.330157
62131	1.497368	-0.366555	9.648651	-0.000418	0.029526	-0.041707	1.000000	-0.000051	0.000042	0.000014	-2.284330	-8.680954	51.329465
62132	1.476645	-0.354515	9.703535	-0.029137	0.016071	0.008903	1.000000	-0.000022	0.000015	0.000028	-2.281612	-8.681044	51.330653
62133	1.473290	-0.386040	9.687964	-0.004562	-0.004820	-0.005740	1.000000	-0.000060	0.000038	0.000019	-2.282971	-8.678545	51.330929
62134	1.472661	-0.387141	9.688016	-0.004012	-0.005685	-0.005740	1.000000	-0.000048	0.000025	0.000021	-2.283086	-8.677535	51.331249
62135	1.483730	-0.379175	9.668442	-0.000842	0.009750	-0.023719	1.000000	-0.000046	0.000017	0.000021	-2.282889	-8.677438	51.331752
62136	1.483306	-0.380141	9.668469	-0.000294	0.008887	-0.023718	1.000000	-0.000048	0.000025	0.000021	-2.283003	-8.676428	51.332072
62137	1.485073	-0.410241	9.686986	0.021904	-0.010246	-0.003974	1.000000	-0.000053	0.000025	0.000011	-2.283513	-8.675556	51.331543
62138	1.480054	-0.353079	9.650064	-0.020857	0.025413	-0.043456	1.000000	-0.000046	0.000026	0.000014	-2.283268	-8.674404	51.330979
62139	1.479072	-0.413810	9.652927	0.025359	-0.013729	-0.038381	1.000000	-0.000053	0.000015	0.000019	-2.283858	-8.674540	51.330817
62140	1.486625	-0.382566	9.702696	-0.000465	0.007156	0.010687	1.000000	-0.000044	0.000019	0.000013	-2.283344	-8.674265	51.330267
62141	1.469720	-0.393841	9.688193	-0.000174	-0.011768	-0.005745	1.000000	-0.000032	0.000014	0.000008	-2.281423	-8.674522	51.329120
62142	1.499775	-0.404432	9.701598	0.024908	0.003469	0.012447	1.000000	-0.000062	0.000012	0.000024	-2.283159	-8.674967	51.329774
62143	1.474208	-0.394311	9.722315	-0.001431	-0.011777	0.028656	1.000000	-0.000044	0.000019	0.000013	-2.282621	-8.674755	51.329721
62144	1.463764	-0.398286	9.654092	0.003819	-0.016101	-0.040151	1.000000	-0.000041	0.000011	0.000013	-2.281839	-8.675358	51.329184
62145	1.480050	-0.388673	9.668629	0.004635	0.001081	-0.023715	1.000000	-0.000046	0.000017	0.000021	-2.281648	-8.675231	51.329637
62146	1.468300	-0.398637	9.688212	0.002572	-0.016107	-0.005751	1.000000	-0.000052	0.000006	0.000026	-2.282349	-8.676335	51.330584
62147	1.465829	-0.370623	9.669747	-0.018548	0.001297	-0.025467	1.000000	-0.000053	0.000015	0.000019	-2.282948	-8.676501	51.331416
62148	1.484276	-0.390141	9.702754	0.003931	0.000196	0.010688	1.000000	-0.000040	0.000022	-0.000002	-2.281714	-8.675943	51.329099
62149	1.478811	-0.392504	9.668664	0.006823	-0.002382	-0.023716	1.000000	-0.000044	0.000019	0.000013	-2.281198	-8.675648	51.327714
62150	1.495028	-0.382960	9.683217	0.007642	0.014797	-0.007271	1.000000	-0.000051	0.000017	0.000011	-2.281449	-8.675591	51.326882
62151	1.489694	-0.385448	9.649102	0.010532	0.012212	-0.041676	1.000000	-0.000043	0.000010	0.000021	-2.280961	-8.676382	51.327497
62152	1.466388	-0.404252	9.688269	0.005864	-0.021319	-0.005762	1.000000	-0.000044	0.000019	0.000013	-2.280448	-8.676106	51.326945
62153	1.488990	-0.387334	9.649135	0.011619	0.010485	-0.041675	1.000000	-0.000055	0.000023	0.000019	-2.281348	-8.675355	51.326846
62154	1.482047	-0.395795	9.702866	0.007230	-0.005017	0.010685	1.000000	-0.000046	0.000026	0.000014	-2.281104	-8.674202	51.326282
62155	1.479464	-0.367633	9.684447	-0.013889	0.012411	-0.009007	1.000000	-0.000045	0.000008	0.000028	-2.281027	-8.675117	51.327924
62156	1.490702	-0.359590	9.664881	-0.010735	0.027887	-0.026957	1.000000	-0.000044	0.000019	0.000013	-2.280513	-8.674841	51.327373
62157	1.506285	-0.409663	9.682196	0.035761	0.006756	-0.005531	1.000000	-0.000033	0.000019	0.000034	-2.279151	-8.674418	51.329879
62158	1.480603	-0.399450	9.702937	0.009434	-0.008492	0.010681	1.000000	-0.000060	0.000023	0.000009	-2.280436	-8.673699	51.328752
62159	1.486609	-0.393143	9.649268	0.014907	0.005296	-0.041675	1.000000	-0.000055	0.000023	0.000019	-2.281289	-8.672938	51.328622
62160	1.477590	-0.372499	9.684548	-0.011138	0.008078	-0.008999	1.000000	-0.000043	0.000010	0.000021	-2.280867	-8.673682	51.328965
62161	1.493960	-0.362928	9.699098	-0.010298	0.025233	0.007465	1.000000	-0.000043	0.000010	0.000021	-2.280398	-8.674431	51.329433
62162	1.474372	-0.404976	9.668828	0.013954	-0.013645	-0.023733	1.000000	-0.000050	0.000008	0.000018	-2.280740	-8.675392	51.329495
62163	1.460394	-0.385875	9.669973	-0.009779	-0.012551	-0.025462	1.000000	-0.000053	0.000015	0.000019	-2.281356	-8.675536	51.329660
62164	1.490419	-0.396728	9.683374	0.015331	0.002642	-0.007269	1.000000	-0.000062	0.000012	0.000024	-2.283092	-8.675978	51.330310
62165	1.490297	-0.397637	9.683355	0.015878	0.001773	-0.007270	1.000000	-0.000027	-0.000001	0.000008	-2.280644	-8.678001	51.329105
62166	1.501673	-0.389507	9.663781	0.019025	0.017264	-0.025209	1.000000	-0.000058	0.000015	0.000008	-2.281660	-8.678159	51.327990
62167	1.479019	-0.348811	9.700216	-0.031277	0.021988	0.005759	1.000000	-0.000050	0.000008	0.000018	-2.281972	-8.679142	51.328113
62168	1.506230	-0.390101	9.697897	0.017821	0.017187	0.009202	1.000000	-0.000046	0.000017	0.000021	-2.281819	-8.679008	51.328443
62169	1.470459	-0.382877	9.650394	-0.003899	-0.001384	-0.043402	1.000000	-0.000053	0.000025	0.000011	-2.282324	-8.678108	51.327430
62170	1.516831	-0.383116	9.678403	0.021515	0.031810	-0.008730	1.000000	-0.000046	0.000026	0.000014	-2.282079	-8.676953	51.326865
62171	1.472444	-0.354207	9.666182	-0.026775	0.016866	-0.028637	1.000000	-0.000045	0.000008	0.000028	-2.281963	-8.677851	51.328546
62172	1.474373	-0.384266	9.684578	-0.004547	-0.002332	-0.008991	1.000000	-0.000044	0.000019	0.000013	-2.281449	-8.677573	51.327993
62173	1.487790	-0.405492	9.683415	0.020270	-0.005177	-0.007279	1.000000	-0.000062	0.000012	0.000024	-2.283178	-8.678085	51.329245
62174	1.471470	-0.357292	9.666217	-0.025137	0.014269	-0.028629	1.000000	-0.000046	0.000026	0.000014	-2.282934	-8.676929	51.328680
62175	1.503515	-0.397021	9.698038	0.021676	0.011094	0.009203	1.000000	-0.000039	0.000019	0.000024	-2.281974	-8.676573	51.329649
62176	1.461307	-0.397185	9.704204	-0.004942	-0.022175	0.008934	1.000000	-0.000049	0.000019	0.000003	-2.281866	-8.676369	51.327931
62177	1.502689	-0.398815	9.698092	0.022782	0.009356	0.009202	1.000000	-0.000041	0.000027	0.000024	-2.281171	-8.675144	51.328496
62178	1.471830	-0.389899	9.684740	-0.001248	-0.007538	-0.008993	1.000000	-0.000037	0.000030	0.000009	-2.279801	-8.673628	51.327331
62179	1.487868	-0.380360	9.699367	-0.000393	0.009586	0.007499	1.000000	-0.000050	0.000023	0.000029	-2.280244	-8.672815	51.328632
62180	1.475861	-0.390447	9.718940	-0.002431	-0.007658	0.025419	1.000000	-0.000055	0.000023	0.000019	-2.281124	-8.672017	51.328666
62181	1.470479	-0.392824	9.684827	0.000397	-0.010160	-0.008995	1.000000	-0.000036	0.000011	0.000023	-2.279873	-8.672625	51.330302
62182	1.470097	-0.393673	9.684850	0.000946	-0.011025	-0.008996	1.000000	-0.000046	0.000026	0.000014	-2.279628	-8.671468	51.329737
62183	1.464620	-0.396004	9.650753	0.003768	-0.013509	-0.043411	1.000000	-0.000044	0.000019	0.000013	-2.279082	-8.671231	51.329350
62184	1.480876	-0.386406	9.665356	0.004629	0.003621	-0.026913	1.000000	-0.000039	0.000013	0.000006	-2.277939	-8.671688	51.327926
62185	1.485693	-0.385888	9.699482	0.002915	0.004361	0.007502	1.000000	-0.000050	0.000008	0.000018	-2.278236	-8.672628	51.327539
62186	1.468941	-0.397274	9.684879	0.003149	-0.014494	-0.009001	1.000000	-0.000043	0.000010	0.000021	-2.277814	-8.673370	51.327879
62187	1.501576	-0.377464	9.714102	0.004328	0.020614	0.024006	1.000000	-0.000061	0.000041	-0.000006	-2.278929	-8.670633	51.324888
62188	1.467924	-0.399266	9.684951	0.004242	-0.016226	-0.009004	1.000000	-0.000036	0.000011	0.000023	-2.277743	-8.671158	51.325510
62189	1.484243	-0.389867	9.699545	0.005109	0.000897	0.007502	1.000000	-0.000062	0.000012	0.000024	-2.279498	-8.671592	51.325877
62190	1.465206	-0.372248	9.666604	-0.016356	0.000422	-0.028600	1.000000	-0.000051	0.000017	0.000011	-2.279749	-8.671529	51.325040
62191	1.483607	-0.392021	9.699555	0.006200	-0.000842	0.007501	1.000000	-0.000051	0.000017	0.000011	-2.280013	-8.671528	51.324144
62192	1.483250	-0.392971	9.699572	0.006750	-0.001708	0.007501	1.000000	-0.000044	0.000019	0.000013	-2.279500	-8.671249	51.323590
62193	1.475792	-0.366140	9.647110	-0.012142	0.014213	-0.046500	1.000000	-0.000050	0.000008	0.000018	-2.279799	-8.672261	51.323752
62194	1.468982	-0.374691	9.700776	-0.016425	-0.001469	0.005820	1.000000	-0.000039	0.000019	0.000024	-2.278882	-8.671908	51.324362
62195	1.482268	-0.395786	9.699607	0.008390	-0.004328	0.007499	1.000000	-0.000050	0.000023	0.000029	-2.279369	-8.671115	51.325584
62196	1.476977	-0.398088	9.665479	0.011188	-0.006766	-0.026920	1.000000	-0.000039	0.000004	0.000013	-2.278319	-8.672591	51.325052
62197	1.504826	-0.379619	9.660568	0.014638	0.026748	-0.028299	1.000000	-0.000055	0.000023	0.000019	-2.279228	-8.671805	51.324909
62198	1.467564	-0.378443	9.700845	-0.014241	-0.004939	0.005822	1.000000	-0.000037	0.000021	0.000016	-2.277950	-8.671309	51.324637
62199	1.509111	-0.380075	9.694743	0.013492	0.026582	0.006123	1.000000	-0.000050	0.000008	0.000018	-2.278284	-8.672286	51.324293
62200	1.478498	-0.371318	9.681346	-0.010568	0.009735	-0.012071	1.000000	-0.000048	0.000025	0.000021	-2.278401	-8.671271	51.324609
62201	1.475209	-0.402809	9.665553	0.013923	-0.011093	-0.026927	1.000000	-0.000044	0.000019	0.000013	-2.277849	-8.671024	51.323748
62202	1.482574	-0.371920	9.715547	-0.011704	0.009552	0.022351	1.000000	-0.000057	0.000031	0.000019	-2.278998	-8.669346	51.323769
62203	1.477174	-0.374341	9.681431	-0.008919	0.007128	-0.012067	1.000000	-0.000045	0.000008	0.000028	-2.278919	-8.670257	51.325220
62204	1.471998	-0.376686	9.647284	-0.006138	0.004716	-0.046486	1.000000	-0.000050	0.000008	0.000018	-2.279263	-8.671214	51.325275
62205	1.490478	-0.396583	9.680200	0.016460	0.003402	-0.010402	1.000000	-0.000058	0.000015	0.000008	-2.280224	-8.671380	51.323919
62206	1.478669	-0.406635	9.699708	0.014438	-0.013881	0.007483	1.000000	-0.000040	0.000008	0.000038	-2.279760	-8.672192	51.326303
62207	1.492804	-0.367942	9.696045	-0.006373	0.021617	0.004472	1.000000	-0.000044	0.000019	0.000013	-2.279220	-8.671932	51.325664
62208	1.475888	-0.379265	9.681436	-0.006167	0.002795	-0.012063	1.000000	-0.000048	0.000016	0.000029	-2.279428	-8.671937	51.326872
62209	1.456039	-0.421149	9.650986	0.017969	-0.035978	-0.043484	1.000000	-0.000046	0.000027	0.000014	-2.279148	-8.670787	51.326611
62210	1.500391	-0.392336	9.660750	0.021778	0.015491	-0.028288	1.000000	-0.000050	0.000008	0.000018	-2.279493	-8.671743	51.326665
62211	1.500046	-0.393313	9.660764	0.022333	0.014627	-0.028288	1.000000	-0.000046	0.000027	0.000014	-2.279216	-8.670563	51.325517
62212	1.474347	-0.383156	9.681517	-0.003962	-0.000667	-0.012061	1.000000	-0.000048	0.000016	0.000029	-2.279425	-8.670568	51.326724
62213	1.499338	-0.395166	9.660798	0.023426	0.012892	-0.028288	1.000000	-0.000036	0.000011	0.000023	-2.278221	-8.671142	51.327676
62214	1.468873	-0.386294	9.647380	-0.000654	-0.003922	-0.046483	1.000000	-0.000055	0.000008	0.000008	-2.278969	-8.672169	51.326564
62215	1.498907	-0.397180	9.660783	0.024520	0.011160	-0.028288	1.000000	-0.000053	0.000016	0.000018	-2.279576	-8.672280	51.327142
62216	1.489790	-0.376730	9.696171	-0.001417	0.013807	0.004488	1.000000	-0.000048	0.000025	0.000021	-2.279692	-8.671262	51.327457
62217	1.472800	-0.388058	9.681558	-0.001225	-0.005007	-0.012062	1.000000	-0.000046	0.000017	0.000021	-2.279527	-8.671153	51.327863
62218	1.472436	-0.388972	9.681576	-0.000676	-0.005871	-0.012062	1.000000	-0.000044	0.000019	0.000013	-2.279014	-8.670871	51.327307
62219	1.493755	-0.378118	9.730363	-0.001973	0.012708	0.038915	1.000000	-0.000034	0.000004	0.000023	-2.277570	-8.672281	51.327459
62220	1.502213	-0.400575	9.694989	0.025057	0.008339	0.006132	1.000000	-0.000059	0.000020	0.000034	-2.279173	-8.671766	51.329253
62221	1.488013	-0.381396	9.696262	0.001327	0.009465	0.004494	1.000000	-0.000037	0.000030	0.000009	-2.277784	-8.670296	51.328558
62222	1.501248	-0.402445	9.695061	0.026154	0.006598	0.006131	1.000000	-0.000051	0.000017	0.000011	-2.278036	-8.670227	51.327718
62223	1.482146	-0.384565	9.662182	0.004620	0.006238	-0.029930	1.000000	-0.000048	0.000025	0.000021	-2.278148	-8.669236	51.327652
62224	1.472995	-0.364044	9.697593	-0.021302	0.008867	0.002862	1.000000	-0.000044	0.000019	0.000013	-2.277635	-8.668953	51.327095
62225	1.472718	-0.364966	9.697600	-0.020750	0.007998	0.002864	1.000000	-0.000045	0.000008	0.000028	-2.277553	-8.669845	51.328159
62226	1.486161	-0.386123	9.696359	0.004077	0.005129	0.004496	1.000000	-0.000048	0.000016	0.000029	-2.277762	-8.669849	51.329365
62227	1.485710	-0.387031	9.696392	0.004628	0.004252	0.004496	1.000000	-0.000042	0.000030	-0.000001	-2.276751	-8.668443	51.327206
62228	1.496880	-0.379002	9.676929	0.007734	0.019838	-0.013361	1.000000	-0.000062	0.000012	0.000023	-2.278490	-8.668878	51.327844
62229	1.480071	-0.390354	9.662268	0.007905	0.001044	-0.029930	1.000000	-0.000036	0.000011	0.000023	-2.277319	-8.669439	51.328689
62230	1.493444	-0.411323	9.661037	0.032731	-0.001826	-0.028306	1.000000	-0.000042	0.000020	0.000006	-2.276445	-8.669011	51.327250
62231	1.452085	-0.351722	9.664790	-0.039554	0.003336	-0.033176	1.000000	-0.000050	0.000008	0.000018	-2.276801	-8.669959	51.326910
62232	1.490754	-0.384101	9.642813	0.012102	0.014915	-0.047783	1.000000	-0.000057	0.000022	0.000026	-2.278043	-8.669299	51.327820
62233	1.483823	-0.392991	9.696441	0.007919	-0.000960	0.004495	1.000000	-0.000048	0.000009	0.000011	-2.277973	-8.670187	51.326718
62234	1.478549	-0.395103	9.662308	0.010643	-0.003284	-0.029933	1.000000	-0.000037	0.000021	0.000016	-2.276695	-8.669687	51.326444
62235	1.481095	-0.365644	9.678240	-0.012711	0.015773	-0.014971	1.000000	-0.000067	0.000012	0.000013	-2.278830	-8.670239	51.325634
62236	1.506091	-0.377911	9.657507	0.014666	0.029362	-0.031200	1.000000	-0.000048	0.000016	0.000029	-2.279040	-8.670243	51.326839
62237	1.497066	-0.357319	9.692926	-0.011239	0.031953	0.001616	1.000000	-0.000032	0.000015	0.000008	-2.277146	-8.670536	51.326007
62238	1.463629	-0.378786	9.663598	-0.011455	-0.004737	-0.031549	1.000000	-0.000051	0.000017	0.000011	-2.277398	-8.670466	51.325165
62239	1.507249	-0.409897	9.675754	0.038020	0.008279	-0.011742	1.000000	-0.000055	0.000014	0.000026	-2.278398	-8.670763	51.326325
62240	1.467959	-0.379665	9.697757	-0.012534	-0.005029	0.002880	1.000000	-0.000046	0.000017	0.000021	-2.278247	-8.670622	51.326648
62241	1.467595	-0.380580	9.697776	-0.011991	-0.005905	0.002880	1.000000	-0.000044	0.000019	0.000013	-2.277728	-8.670413	51.326646
62242	1.483822	-0.371280	9.712466	-0.011053	0.011136	0.019471	1.000000	-0.000055	0.000014	0.000026	-2.278703	-8.670632	51.327566
62243	1.478636	-0.373617	9.678311	-0.008357	0.008826	-0.014957	1.000000	-0.000055	0.000008	0.000008	-2.279457	-8.671751	51.327062
62244	1.487092	-0.396001	9.642897	0.018624	0.004518	-0.047783	1.000000	-0.000044	0.000019	0.000013	-2.278944	-8.671466	51.326503
62245	1.466395	-0.384581	9.697800	-0.009806	-0.009376	0.002880	1.000000	-0.000044	0.000019	0.000013	-2.278452	-8.671174	51.325548
62246	1.489245	-0.367341	9.658892	-0.004169	0.022716	-0.032787	1.000000	-0.000048	0.000016	0.000029	-2.278662	-8.671178	51.326752
62247	1.491090	-0.397661	9.677074	0.018113	0.003346	-0.013355	1.000000	-0.000052	0.000006	0.000026	-2.279336	-8.672324	51.327846
62248	1.472198	-0.379702	9.644200	-0.003469	0.003083	-0.049383	1.000000	-0.000049	0.000019	0.000003	-2.279227	-8.672107	51.326122
62249	1.465207	-0.388575	9.697820	-0.007611	-0.012848	0.002878	1.000000	-0.000048	0.000016	0.000028	-2.279444	-8.672118	51.326717
62250	1.481464	-0.379387	9.712513	-0.006663	0.004182	0.019480	1.000000	-0.000060	0.000014	0.000016	-2.280823	-8.672405	51.326471
62251	1.506413	-0.391481	9.691788	0.020702	0.017774	0.003246	1.000000	-0.000039	0.000019	0.000023	-2.279907	-8.672100	51.326938
62252	1.506006	-0.392271	9.691819	0.021252	0.016908	0.003246	1.000000	-0.000040	0.000022	-0.000002	-2.278671	-8.671524	51.324617
62253	1.463715	-0.392422	9.697891	-0.005419	-0.016328	0.002874	1.000000	-0.000055	0.000023	0.000019	-2.279513	-8.670770	51.325391
62254	1.469903	-0.385585	9.644317	-0.000196	-0.002100	-0.049382	1.000000	-0.000050	0.000023	0.000029	-2.279992	-8.669894	51.326584
62255	1.502627	-0.366077	9.673733	0.001160	0.032804	-0.016161	1.000000	-0.000053	0.000016	0.000018	-2.280576	-8.670014	51.326638
62256	1.490701	-0.376258	9.693191	-0.000828	0.015446	0.001662	1.000000	-0.000053	0.000016	0.000018	-2.281190	-8.670087	51.326675
62257	1.499100	-0.398657	9.657761	0.026126	0.011155	-0.031186	1.000000	-0.000051	0.000017	0.000011	-2.281407	-8.670085	51.326078
62258	1.448106	-0.377510	9.699259	-0.026955	-0.018653	0.001286	1.000000	-0.000048	0.000025	0.000021	-2.281524	-8.669064	51.326389
62259	1.501282	-0.370119	9.673788	0.003342	0.029324	-0.016150	1.000000	-0.000044	0.000003	0.000003	-2.280890	-8.670699	51.324848
62260	1.501061	-0.370991	9.673789	0.003891	0.028460	-0.016148	1.000000	-0.000044	0.000019	0.000013	-2.280378	-8.670412	51.324288
62261	1.479220	-0.383432	9.624943	0.006149	0.008337	-0.067200	1.000000	-0.000058	0.000015	0.000008	-2.281379	-8.670566	51.323159
62262	1.488846	-0.382106	9.693247	0.002457	0.010225	0.001669	1.000000	-0.000038	0.000010	0.000031	-2.280557	-8.671234	51.324655
62263	1.483609	-0.384115	9.659107	0.005125	0.007990	-0.032765	1.000000	-0.000044	0.000019	0.000013	-2.280044	-8.670941	51.324004
62264	1.471540	-0.394139	9.678579	0.003141	-0.009379	-0.014955	1.000000	-0.000046	0.000027	0.000014	-2.279800	-8.669774	51.323435
62265	1.462388	-0.373810	9.714055	-0.022713	-0.006851	0.017909	1.000000	-0.000053	0.000016	0.000018	-2.280457	-8.669890	51.323676
62266	1.498969	-0.376797	9.673889	0.007177	0.023272	-0.016136	1.000000	-0.000051	0.000017	0.000011	-2.280710	-8.669816	51.322831
62267	1.481900	-0.388018	9.659213	0.007297	0.004536	-0.032764	1.000000	-0.000043	0.000034	0.000024	-2.280359	-8.667742	51.323471
62268	1.511767	-0.398856	9.672646	0.032546	0.019511	-0.014567	1.000000	-0.000043	0.000000	0.000028	-2.280035	-8.669503	51.324691
62269	1.500008	-0.408825	9.692065	0.030560	0.002125	0.003236	1.000000	-0.000036	0.000011	0.000023	-2.278851	-8.670084	51.325311
62270	1.467378	-0.370491	9.660544	-0.015344	0.003972	-0.034327	1.000000	-0.000053	0.000025	0.000011	-2.279372	-8.669130	51.324456
62271	1.505817	-0.402700	9.638538	0.036294	0.015559	-0.049004	1.000000	-0.000044	0.000028	0.000006	-2.278732	-8.667811	51.323230
62272	1.471283	-0.371324	9.694779	-0.016344	0.003589	0.000112	1.000000	-0.000055	0.000023	0.000019	-2.279614	-8.667002	51.323255
62273	1.470949	-0.372334	9.694791	-0.015794	0.002724	0.000113	1.000000	-0.000043	0.000010	0.000021	-2.279193	-8.667737	51.323802
62274	1.470572	-0.373219	9.694815	-0.015244	0.001859	0.000114	1.000000	-0.000044	0.000028	0.000006	-2.278587	-8.666423	51.322352
62275	1.495396	-0.385117	9.674114	0.012106	0.015472	-0.016125	1.000000	-0.000039	0.000019	0.000023	-2.277651	-8.666125	51.323397
62276	1.469745	-0.374973	9.694872	-0.014148	0.000119	0.000116	1.000000	-0.000048	0.000016	0.000028	-2.277863	-8.666127	51.324597
62277	1.480160	-0.426542	9.677523	0.034522	-0.022681	-0.013425	1.000000	-0.000044	0.000019	0.000013	-2.277343	-8.665900	51.324763
62278	1.482652	-0.396896	9.693602	0.011225	-0.003657	0.001668	1.000000	-0.000031	0.000021	0.000026	-2.275664	-8.665330	51.325653
62279	1.468660	-0.377433	9.694941	-0.012523	-0.002497	0.000118	1.000000	-0.000036	0.000011	0.000023	-2.274521	-8.665966	51.327118
62280	1.468376	-0.378322	9.694950	-0.011973	-0.003362	0.000118	1.000000	-0.000048	0.000016	0.000028	-2.274733	-8.665968	51.328318
62281	1.476775	-0.400583	9.659485	0.014941	-0.007582	-0.032774	1.000000	-0.000046	0.000017	0.000021	-2.274569	-8.665816	51.328711
62282	1.462704	-0.381385	9.660829	-0.008791	-0.006406	-0.034320	1.000000	-0.000050	0.000023	0.000029	-2.275049	-8.664938	51.329901
62283	1.467374	-0.381314	9.694984	-0.010335	-0.005960	0.000119	1.000000	-0.000048	0.000000	0.000018	-2.275181	-8.666826	51.329471
62284	1.495556	-0.362958	9.690275	-0.006826	0.027556	-0.001009	1.000000	-0.000053	0.000000	0.000008	-2.275662	-8.668721	51.328356
62285	1.480859	-0.403621	9.693598	0.015044	-0.009737	0.001658	1.000000	-0.000058	0.000015	0.000008	-2.276650	-8.668887	51.327034
62286	1.483431	-0.374248	9.709681	-0.008242	0.009279	0.016777	1.000000	-0.000046	0.000017	0.000021	-2.276500	-8.668743	51.327353
62287	1.466546	-0.385515	9.694943	-0.008145	-0.009437	0.000118	1.000000	-0.000058	0.000015	0.000008	-2.277518	-8.668952	51.325997
62288	1.494432	-0.367252	9.690286	-0.004633	0.024079	-0.000998	1.000000	-0.000053	0.000016	0.000018	-2.278133	-8.669020	51.326030
62289	1.494178	-0.368274	9.690286	-0.004085	0.023213	-0.000996	1.000000	-0.000048	0.000010	0.000011	-2.278120	-8.669835	51.325042
62290	1.480426	-0.349087	9.691600	-0.027815	0.024391	-0.002526	1.000000	-0.000053	0.000000	0.000008	-2.278602	-8.671730	51.323926
62291	1.468585	-0.359178	9.711003	-0.029775	0.006971	0.015252	1.000000	-0.000039	0.000019	0.000023	-2.277638	-8.671398	51.324336
62292	1.488581	-0.372367	9.656117	-0.000370	0.019325	-0.035431	1.000000	-0.000069	0.000020	0.000014	-2.280050	-8.671012	51.323788
62293	1.493105	-0.372447	9.690292	-0.001884	0.019734	-0.000988	1.000000	-0.000044	0.000019	0.000013	-2.279517	-8.670776	51.323377
62294	1.494825	-0.402695	9.708361	0.020434	0.000271	0.018310	1.000000	-0.000040	0.000008	0.000038	-2.279060	-8.671591	51.325751
62295	1.462342	-0.364229	9.676895	-0.025524	0.002209	-0.019182	1.000000	-0.000041	0.000018	0.000031	-2.278472	-8.671451	51.327048
62296	1.510810	-0.394237	9.723136	0.021990	0.016349	0.034983	1.000000	-0.000038	0.000010	0.000031	-2.277653	-8.672119	51.328541
62297	1.472669	-0.416551	9.659436	0.023677	-0.021455	-0.032812	1.000000	-0.000043	0.000000	0.000028	-2.277258	-8.673948	51.329861
62298	1.472445	-0.417626	9.659424	0.024225	-0.022318	-0.032816	1.000000	-0.000059	0.000020	0.000034	-2.278866	-8.673427	51.331645
62299	1.472005	-0.418524	9.659452	0.024774	-0.023202	-0.032819	1.000000	-0.000024	0.000023	0.000029	-2.276334	-8.672734	51.333156
62300	1.474491	-0.389095	9.675593	0.001504	-0.004194	-0.017658	1.000000	-0.000069	0.000020	0.000014	-2.278746	-8.672346	51.332607
62301	1.517866	-0.420426	9.687681	0.051071	0.008658	0.002054	1.000000	-0.000041	0.000027	0.000024	-2.278118	-8.671141	51.333116
62302	1.485112	-0.382090	9.656271	0.005101	0.010640	-0.035419	1.000000	-0.000062	0.000031	0.000009	-2.279670	-8.669514	51.331964
62303	1.503105	-0.402422	9.689116	0.027886	0.008968	0.000538	1.000000	-0.000053	0.000025	0.000011	-2.280176	-8.668609	51.331116
62304	1.500694	-0.374051	9.671109	0.006661	0.026721	-0.018730	1.000000	-0.000049	0.000019	0.000003	-2.280066	-8.668383	51.329387
62305	1.493443	-0.383313	9.724693	0.002666	0.010524	0.033471	1.000000	-0.000062	0.000031	0.000009	-2.281606	-8.666811	51.328108
62306	1.488046	-0.385349	9.690566	0.005251	0.008415	-0.000973	1.000000	-0.000042	0.000021	0.000006	-2.280732	-8.666373	51.326664
62307	1.487549	-0.386412	9.690600	0.005796	0.007539	-0.000972	1.000000	-0.000067	0.000031	-0.000001	-2.282666	-8.664871	51.325044
62308	1.492146	-0.386346	9.724772	0.004316	0.007909	0.033473	1.000000	-0.000028	-0.000001	0.000008	-2.280225	-8.666860	51.323912
62309	1.473387	-0.367978	9.691974	-0.017402	0.007867	-0.002475	1.000000	-0.000055	0.000023	0.000019	-2.281194	-8.666092	51.323792
62310	1.519976	-0.368890	9.720158	0.008379	0.040558	0.032421	1.000000	-0.000048	-0.000009	0.000025	-2.281370	-8.668944	51.324727
62311	1.461711	-0.379191	9.711279	-0.018802	-0.010444	0.015276	1.000000	-0.000046	-0.000007	0.000018	-2.281165	-8.671662	51.324921
62312	1.498746	-0.382009	9.671100	0.011028	0.019791	-0.018718	1.000000	-0.000050	-0.000001	0.000025	-2.281608	-8.673635	51.325847
62313	1.470521	-0.402379	9.675654	0.008605	-0.015456	-0.017673	1.000000	-0.000048	0.000000	0.000018	-2.281659	-8.675445	51.325439
62314	1.512276	-0.404196	9.669664	0.036413	0.016004	-0.017221	1.000000	-0.000045	0.000008	0.000028	-2.281605	-8.676325	51.326644
62315	1.484722	-0.364674	9.672423	-0.011609	0.019238	-0.020209	1.000000	-0.000039	0.000019	0.000023	-2.280657	-8.676088	51.327333
62316	1.495030	-0.416036	9.654912	0.037019	-0.003542	-0.033928	1.000000	-0.000040	0.000022	-0.000002	-2.279420	-8.675501	51.325010
62317	1.483869	-0.366403	9.672488	-0.010515	0.017501	-0.020204	1.000000	-0.000055	0.000023	0.000019	-2.280284	-8.674745	51.325443
62318	1.480369	-0.397747	9.656367	0.013829	-0.003217	-0.035422	1.000000	-0.000038	0.000035	0.000034	-2.279504	-8.672561	51.327197
62319	1.461109	-0.379459	9.623656	-0.007893	-0.003225	-0.071358	1.000000	-0.000053	0.000040	0.000022	-2.280126	-8.669784	51.327648
62320	1.488636	-0.397788	9.724849	0.010915	-0.002548	0.033471	1.000000	-0.000043	0.000034	0.000024	-2.279748	-8.667665	51.328235
62321	1.474321	-0.378527	9.726296	-0.012821	-0.001361	0.031985	1.000000	-0.000048	0.000034	0.000014	-2.279772	-8.665670	51.327789
62322	1.487360	-0.399723	9.724965	0.012012	-0.004293	0.033469	1.000000	-0.000048	0.000025	0.000021	-2.279891	-8.664643	51.328096
62323	1.482121	-0.401587	9.690815	0.014554	-0.006358	-0.000980	1.000000	-0.000041	0.000011	0.000013	-2.279133	-8.665293	51.327642
62324	1.456465	-0.391562	9.711576	-0.011670	-0.021756	0.015269	1.000000	-0.000055	0.000023	0.000019	-2.280016	-8.664477	51.327662
62325	1.484307	-0.373346	9.707034	-0.008147	0.011750	0.014258	1.000000	-0.000058	0.000015	0.000008	-2.281053	-8.664692	51.326694
62326	1.472278	-0.383535	9.726410	-0.010086	-0.005717	0.031987	1.000000	-0.000039	0.000019	0.000023	-2.280140	-8.664333	51.327296
62327	1.483668	-0.375221	9.707059	-0.007050	0.010013	0.014261	1.000000	-0.000048	0.000010	0.000011	-2.280128	-8.665166	51.326376
62328	1.478589	-0.377054	9.672887	-0.004508	0.007971	-0.020187	1.000000	-0.000041	0.000011	0.000013	-2.279350	-8.665752	51.325819
62329	1.466757	-0.387113	9.692234	-0.006437	-0.009502	-0.002463	1.000000	-0.000044	0.000003	0.000003	-2.278638	-8.667261	51.323966
62330	1.494754	-0.368606	9.687694	-0.002899	0.024016	-0.003458	1.000000	-0.000042	0.000021	0.000006	-2.277764	-8.666819	51.322522
62331	1.482939	-0.378735	9.707034	-0.004846	0.006532	0.014265	1.000000	-0.000051	-0.000008	0.000008	-2.277981	-8.669672	51.321458
62332	1.479852	-0.410141	9.690803	0.019483	-0.014177	-0.000997	1.000000	-0.000055	0.000023	0.000019	-2.278865	-8.668855	51.321478
62333	1.487340	-0.343141	9.635548	-0.021079	0.038931	-0.057086	1.000000	-0.000050	0.000008	0.000018	-2.279237	-8.669813	51.321349
62334	1.493819	-0.372736	9.687680	-0.000714	0.020546	-0.003450	1.000000	-0.000058	0.000025	0.000001	-2.280159	-8.668912	51.319322
62335	1.475101	-0.354549	9.654906	-0.022471	0.020580	-0.039361	1.000000	-0.000055	-0.000001	0.000015	-2.280948	-8.671029	51.319730
62336	1.493436	-0.374949	9.687653	0.000384	0.018798	-0.003446	1.000000	-0.000053	0.000016	0.000018	-2.281564	-8.671092	51.319757
62337	1.479571	-0.355790	9.689057	-0.023353	0.019996	-0.004904	1.000000	-0.000050	0.000008	0.000018	-2.281894	-8.672093	51.320058
62338	1.488116	-0.378007	9.653469	0.003450	0.015913	-0.037894	1.000000	-0.000057	0.000012	0.000033	-2.283236	-8.672451	51.321844
62339	1.492430	-0.378225	9.687681	0.002023	0.016185	-0.003442	1.000000	-0.000051	0.000042	0.000014	-2.283522	-8.669576	51.321639
62340	1.486997	-0.380126	9.653558	0.004540	0.014180	-0.037892	1.000000	-0.000048	0.000016	0.000028	-2.283737	-8.669575	51.322832
62341	1.491352	-0.380233	9.687769	0.003116	0.014446	-0.003439	1.000000	-0.000048	0.000034	0.000014	-2.283757	-8.667577	51.322374
62342	1.483118	-0.412307	9.637385	0.029396	-0.007385	-0.053184	1.000000	-0.000033	0.000010	0.000041	-2.282539	-8.668182	51.325029
62343	1.474076	-0.392099	9.672978	0.003699	-0.005044	-0.020185	1.000000	-0.000048	0.000016	0.000028	-2.282736	-8.668192	51.326104
62344	1.492105	-0.412341	9.705765	0.026570	-0.006857	0.015716	1.000000	-0.000036	0.000027	0.000034	-2.281690	-8.666889	51.327865
62345	1.475103	-0.423317	9.690961	0.026600	-0.025475	-0.001037	1.000000	-0.000046	0.000017	0.000021	-2.281559	-8.666730	51.328491
62346	1.472816	-0.394746	9.673062	0.005343	-0.007632	-0.020187	1.000000	-0.000039	0.000019	0.000023	-2.280647	-8.666370	51.329092
62347	1.488897	-0.385766	9.687927	0.006409	0.009256	-0.003435	1.000000	-0.000071	0.000028	0.000014	-2.283349	-8.665105	51.328487
62348	1.485683	-0.417003	9.671670	0.030718	-0.011437	-0.018747	1.000000	-0.000017	-0.000000	0.000028	-2.280106	-8.666965	51.329684
62349	1.488378	-0.387460	9.687940	0.007502	0.007518	-0.003434	1.000000	-0.000055	0.000023	0.000019	-2.280992	-8.666207	51.330072
62350	1.483099	-0.389285	9.653793	0.009999	0.005543	-0.037888	1.000000	-0.000042	0.000021	0.000006	-2.280118	-8.665762	51.328626
62351	1.471097	-0.399420	9.673132	0.008066	-0.011950	-0.020193	1.000000	-0.000048	0.000010	0.000011	-2.280163	-8.666550	51.327759
62352	1.500986	-0.410536	9.686551	0.033426	0.002848	-0.001997	1.000000	-0.000051	0.000017	0.000011	-2.280417	-8.666463	51.326904
62353	1.482273	-0.392148	9.653804	0.011625	0.002953	-0.037888	1.000000	-0.000045	0.000008	0.000028	-2.280367	-8.667428	51.328417
62354	1.533660	-0.392411	9.716228	0.035578	0.036586	0.031529	1.000000	-0.000057	0.000006	0.000016	-2.281481	-8.668580	51.328161
62355	1.451608	-0.384049	9.640381	-0.012098	-0.014433	-0.056087	1.000000	-0.000042	0.000030	-0.000001	-2.280498	-8.667140	51.325636
62356	1.504639	-0.413523	9.720748	0.033676	0.000459	0.032451	1.000000	-0.000036	0.000011	0.000023	-2.279319	-8.667660	51.326244
62357	1.500636	-0.355485	9.684967	-0.009402	0.037052	-0.005782	1.000000	-0.000050	0.000008	0.000018	-2.279675	-8.668616	51.326010
62358	1.490717	-0.395186	9.722153	0.010493	0.000805	0.031019	1.000000	-0.000046	0.000002	0.000010	-2.279394	-8.670290	51.325169
62359	1.491474	-0.336343	9.720572	-0.034526	0.038484	0.027256	1.000000	-0.000046	0.000027	0.000014	-2.279175	-8.669178	51.324935
62360	1.466688	-0.378415	9.655281	-0.008841	-0.001011	-0.039318	1.000000	-0.000042	0.000021	0.000006	-2.278301	-8.668732	51.323489
62361	1.501282	-0.388595	9.702903	0.014609	0.014846	0.013337	1.000000	-0.000044	0.000019	0.000013	-2.277758	-8.668415	51.322770
62362	1.473749	-0.349197	9.705796	-0.033406	0.018154	0.010494	1.000000	-0.000057	0.000012	0.000033	-2.279102	-8.668772	51.324552
62363	1.498645	-0.361162	9.685065	-0.006111	0.031852	-0.005761	1.000000	-0.000042	0.000030	-0.000001	-2.278133	-8.667335	51.322140
62364	1.456328	-0.361178	9.690995	-0.032854	-0.001308	-0.006279	1.000000	-0.000048	0.000016	0.000028	-2.278350	-8.667332	51.323330
62365	1.494898	-0.393304	9.668808	0.018709	0.010298	-0.021119	1.000000	-0.000044	0.000019	0.000013	-2.277875	-8.667152	51.322823
62366	1.478972	-0.344532	9.652422	-0.026846	0.030275	-0.041624	1.000000	-0.000048	0.000025	0.000021	-2.277995	-8.666121	51.323128
62367	1.505762	-0.385974	9.649552	0.022264	0.025228	-0.038793	1.000000	-0.000048	0.000016	0.000028	-2.278212	-8.666159	51.324494
62368	1.480027	-0.376014	9.670335	-0.003934	0.009792	-0.022532	1.000000	-0.000048	0.000025	0.000021	-2.278333	-8.665127	51.324799
62369	1.491252	-0.367770	9.651065	-0.000928	0.025595	-0.040201	1.000000	-0.000053	0.000025	0.000011	-2.278873	-8.664172	51.323779
62370	1.483705	-0.377323	9.704608	-0.004750	0.009115	0.011928	1.000000	-0.000053	0.000040	0.000022	-2.279528	-8.661379	51.324071
62371	1.496813	-0.398572	9.703189	0.020076	0.006146	0.013336	1.000000	-0.000045	0.000008	0.000028	-2.279477	-8.662325	51.325376
62372	1.482952	-0.379581	9.704635	-0.003657	0.007373	0.011930	1.000000	-0.000073	0.000017	0.000028	-2.282618	-8.662219	51.326572
62373	1.465966	-0.390813	9.689776	-0.003675	-0.011227	-0.004863	1.000000	-0.000041	0.000027	0.000024	-2.281952	-8.661122	51.327608
62374	1.490861	-0.402732	9.669044	0.023616	0.002487	-0.021125	1.000000	-0.000053	0.000016	0.000018	-2.282570	-8.661181	51.327629
62375	1.481823	-0.382759	9.704682	-0.002029	0.004745	0.011932	1.000000	-0.000048	0.000010	0.000011	-2.282576	-8.662039	51.327118
62376	1.493204	-0.374461	9.685401	0.000979	0.020555	-0.005729	1.000000	-0.000048	0.000025	0.000021	-2.282697	-8.661007	51.327422
62377	1.476314	-0.385481	9.670530	0.000955	0.001979	-0.022527	1.000000	-0.000048	0.000010	0.000011	-2.282720	-8.661869	51.326883
62378	1.476114	-0.386413	9.670523	0.001503	0.001116	-0.022527	1.000000	-0.000043	0.000010	0.000021	-2.282307	-8.662598	51.327200
62379	1.464295	-0.396697	9.689790	-0.000411	-0.016427	-0.004870	1.000000	-0.000052	-0.000003	0.000033	-2.283156	-8.664734	51.328790
62380	1.475828	-0.388346	9.670490	0.002593	-0.000609	-0.022527	1.000000	-0.000040	0.000022	-0.000002	-2.281918	-8.664136	51.326465
62381	1.491843	-0.379242	9.685424	0.003708	0.016224	-0.005721	1.000000	-0.000052	0.000031	0.000029	-2.282650	-8.662381	51.327781
62382	1.463105	-0.399678	9.689847	0.001237	-0.019025	-0.004875	1.000000	-0.000055	0.000014	0.000026	-2.283633	-8.662587	51.328680
62383	1.499848	-0.402403	9.649802	0.030960	0.011365	-0.038790	1.000000	-0.000051	0.000017	0.000011	-2.283883	-8.662642	51.328493
62384	1.474218	-0.392323	9.670575	0.004772	-0.004086	-0.022529	1.000000	-0.000034	0.000013	0.000016	-2.282342	-8.663013	51.328220
62385	1.478700	-0.392386	9.704774	0.003424	-0.003949	0.011932	1.000000	-0.000044	0.000019	0.000013	-2.281890	-8.662786	51.327921
62386	1.473535	-0.394066	9.670608	0.005852	-0.005816	-0.022530	1.000000	-0.000051	0.000017	0.000011	-2.282145	-8.662694	51.327063
62387	1.494511	-0.384233	9.719711	0.005090	0.012000	0.028746	1.000000	-0.000039	0.000019	0.000023	-2.281236	-8.662400	51.327759
62388	1.459199	-0.375598	9.672130	-0.017343	-0.005450	-0.023913	1.000000	-0.000044	0.000019	0.000013	-2.280726	-8.662099	51.327190
62389	1.507251	-0.406194	9.718291	0.030470	0.008136	0.030127	1.000000	-0.000041	0.000027	0.000024	-2.280023	-8.660998	51.327901
62390	1.474854	-0.367422	9.687097	-0.015677	0.010486	-0.007093	1.000000	-0.000053	0.000016	0.000018	-2.280642	-8.661055	51.327921
62391	1.488164	-0.388610	9.685619	0.009158	0.007498	-0.005714	1.000000	-0.000041	0.000011	0.000013	-2.279785	-8.661719	51.327522
62392	1.471419	-0.399520	9.670706	0.009127	-0.011051	-0.022537	1.000000	-0.000045	0.000008	0.000028	-2.279737	-8.662597	51.328715
62393	1.462368	-0.379567	9.706377	-0.016481	-0.008832	0.010550	1.000000	-0.000051	0.000017	0.000011	-2.280012	-8.662544	51.327734
62394	1.473910	-0.371165	9.687098	-0.013486	0.007005	-0.007086	1.000000	-0.000036	0.000002	0.000030	-2.278932	-8.664094	51.329222
62395	1.499196	-0.382978	9.666307	0.013797	0.020740	-0.023350	1.000000	-0.000048	0.000000	0.000018	-2.278997	-8.665893	51.328957
62396	1.482431	-0.393852	9.651395	0.013760	0.002200	-0.040178	1.000000	-0.000040	0.000022	-0.000002	-2.277759	-8.665292	51.326631
62397	1.486774	-0.394095	9.685611	0.012455	0.002300	-0.005715	1.000000	-0.000055	0.000023	0.000019	-2.278608	-8.664473	51.326696
62398	1.484442	-0.365545	9.667872	-0.008838	0.020254	-0.024713	1.000000	-0.000041	0.000027	0.000024	-2.277965	-8.663230	51.327288
62399	1.472171	-0.375781	9.687184	-0.010730	0.002676	-0.007081	1.000000	-0.000048	0.000025	0.000021	-2.278069	-8.662206	51.327613
62400	1.485303	-0.396920	9.685721	0.014104	-0.000298	-0.005717	1.000000	-0.000039	0.000019	0.000023	-2.277159	-8.661844	51.328210
62401	1.471314	-0.377718	9.687239	-0.009631	0.000944	-0.007079	1.000000	-0.000062	0.000022	0.000016	-2.278792	-8.661237	51.327956
62402	1.487447	-0.368794	9.702182	-0.008489	0.017748	0.009759	1.000000	-0.000044	0.000019	0.000013	-2.278283	-8.660935	51.327386
62403	1.482211	-0.370377	9.668030	-0.006086	0.015931	-0.024703	1.000000	-0.000046	0.000027	0.000014	-2.278002	-8.659733	51.327067
62404	1.486415	-0.370720	9.702267	-0.007381	0.016014	0.009763	1.000000	-0.000052	0.000031	0.000029	-2.278755	-8.657966	51.328242
62405	1.494812	-0.392689	9.666596	0.019293	0.012102	-0.023345	1.000000	-0.000050	0.000008	0.000018	-2.279151	-8.658864	51.328323
62406	1.473982	-0.382064	9.721551	-0.008720	-0.002430	0.027387	1.000000	-0.000044	0.000019	0.000013	-2.278642	-8.658561	51.327752
62407	1.485462	-0.373669	9.702300	-0.005737	0.013421	0.009768	1.000000	-0.000045	0.000008	0.000028	-2.278596	-8.659478	51.328983
62408	1.485138	-0.374712	9.702309	-0.005186	0.012555	0.009770	1.000000	-0.000055	0.000023	0.000019	-2.279482	-8.658651	51.328995
62409	1.484819	-0.375789	9.702316	-0.004652	0.011674	0.009771	1.000000	-0.000050	0.000008	0.000018	-2.279853	-8.659709	51.329190
62410	1.493446	-0.397706	9.666602	0.022015	0.007765	-0.023346	1.000000	-0.000050	0.000008	0.000018	-2.280205	-8.660645	51.329212
62411	1.484369	-0.377744	9.702309	-0.003544	0.009952	0.009773	1.000000	-0.000039	0.000019	0.000023	-2.279298	-8.660213	51.330027
62412	1.482171	-0.349276	9.684590	-0.024846	0.027934	-0.009182	1.000000	-0.000069	0.000020	0.000013	-2.281713	-8.659802	51.329458
62413	1.485389	-0.409547	9.720075	0.019398	-0.010637	0.028729	1.000000	-0.000044	0.000019	0.000013	-2.281224	-8.659566	51.329316
62414	1.461974	-0.391441	9.653223	-0.000688	-0.011220	-0.041547	1.000000	-0.000041	0.000011	0.000013	-2.280448	-8.660143	51.328750
62415	1.508280	-0.392759	9.681601	0.025346	0.021078	-0.006492	1.000000	-0.000057	0.000022	0.000026	-2.281699	-8.659617	51.330261
62416	1.477765	-0.383515	9.668198	0.001000	0.004684	-0.024689	1.000000	-0.000044	0.000019	0.000013	-2.281190	-8.659313	51.329689
62417	1.465628	-0.393764	9.687462	-0.000883	-0.012937	-0.007083	1.000000	-0.000046	0.000017	0.000021	-2.280982	-8.659251	51.330375
62418	1.460625	-0.395433	9.653265	0.001481	-0.014705	-0.041551	1.000000	-0.000054	0.000005	0.000033	-2.282063	-8.660485	51.332153
62419	1.493296	-0.376549	9.683182	0.003247	0.019712	-0.007824	1.000000	-0.000043	0.000035	0.000024	-2.281709	-8.658428	51.332919
62420	1.492737	-0.377384	9.683236	0.003796	0.018847	-0.007823	1.000000	-0.000040	0.000022	-0.000002	-2.280470	-8.657824	51.330592
62421	1.477645	-0.417933	9.686008	0.025589	-0.018533	-0.005758	1.000000	-0.000062	0.000012	0.000023	-2.282176	-8.658272	51.330823
62422	1.466722	-0.368542	9.704026	-0.021815	0.002484	0.008450	1.000000	-0.000042	0.000021	0.000006	-2.281303	-8.657817	51.329373
62423	1.491773	-0.380368	9.683267	0.005451	0.016244	-0.007819	1.000000	-0.000050	0.000008	0.000018	-2.281636	-8.658733	51.329617
62424	1.474994	-0.391366	9.668307	0.005379	-0.002256	-0.024690	1.000000	-0.000053	0.000016	0.000018	-2.282256	-8.658785	51.329633
62425	1.502966	-0.373050	9.664044	0.008964	0.031247	-0.025412	1.000000	-0.000041	0.000018	0.000031	-2.281690	-8.658694	51.330956
62426	1.519205	-0.363966	9.679016	0.010136	0.048016	-0.008535	1.000000	-0.000041	0.000011	0.000013	-2.280914	-8.659270	51.330389
62427	1.462264	-0.403373	9.687575	0.004597	-0.021626	-0.007100	1.000000	-0.000039	0.000019	0.000023	-2.279942	-8.658916	51.330843
62428	1.490186	-0.385182	9.683322	0.008194	0.011894	-0.007815	1.000000	-0.000069	0.000020	0.000013	-2.282356	-8.658502	51.330272
62429	1.473227	-0.396120	9.668382	0.008118	-0.006602	-0.024694	1.000000	-0.000030	0.000023	0.000018	-2.280298	-8.657791	51.329943
62430	1.477668	-0.396366	9.702589	0.006873	-0.006597	0.009774	1.000000	-0.000050	0.000008	0.000018	-2.280651	-8.658724	51.329963
62431	1.501036	-0.378591	9.664128	0.012275	0.026058	-0.025400	1.000000	-0.000041	0.000011	0.000013	-2.279836	-8.659251	51.329613
62432	1.447101	-0.387944	9.689159	-0.016934	-0.023822	-0.008425	1.000000	-0.000053	0.000016	0.000018	-2.280455	-8.659303	51.329628
62433	1.488669	-0.390009	9.683362	0.010942	0.007568	-0.007813	1.000000	-0.000055	0.000014	0.000026	-2.281485	-8.659547	51.330836
62434	1.483702	-0.391688	9.649156	0.013276	0.005847	-0.042283	1.000000	-0.000052	0.000006	0.000025	-2.282203	-8.660630	51.331733
62435	1.474638	-0.371897	9.684898	-0.012253	0.007959	-0.009122	1.000000	-0.000049	0.000019	0.000003	-2.282093	-8.660450	51.330076
62436	1.487772	-0.393180	9.683371	0.012582	0.004965	-0.007813	1.000000	-0.000055	0.000023	0.000018	-2.282980	-8.659620	51.330086
62437	1.513978	-0.345231	9.661477	-0.005685	0.057383	-0.027385	1.000000	-0.000036	0.000011	0.000023	-2.281808	-8.660148	51.330792
62438	1.487050	-0.395041	9.683406	0.013679	0.003234	-0.007814	1.000000	-0.000053	0.000025	0.000011	-2.282330	-8.659167	51.329924
62439	1.475968	-0.345625	9.701532	-0.033696	0.024257	0.006475	1.000000	-0.000046	0.000027	0.000014	-2.282087	-8.657904	51.329321
62440	1.490941	-0.396502	9.717650	0.013012	0.002352	0.026656	1.000000	-0.000052	0.000006	0.000025	-2.282806	-8.658986	51.330216
62441	1.472395	-0.377783	9.685011	-0.008960	0.002768	-0.009116	1.000000	-0.000041	0.000018	0.000031	-2.282241	-8.658870	51.331854
62442	1.510899	-0.409728	9.662709	0.042575	0.014411	-0.024091	1.000000	-0.000037	0.000021	0.000016	-2.280968	-8.658356	51.331572
62443	1.476401	-0.379041	9.719248	-0.009639	0.001873	0.025357	1.000000	-0.000057	0.000013	0.000033	-2.282380	-8.658720	51.333081
62444	1.471410	-0.380560	9.685052	-0.007322	0.000180	-0.009114	1.000000	-0.000036	0.000012	0.000023	-2.281206	-8.659238	51.333680
62445	1.484785	-0.401525	9.683487	0.017508	-0.002838	-0.007820	1.000000	-0.000029	0.000004	0.000033	-2.279322	-8.660678	51.335781
