// Start Time: Unknown
// Update Rate: 100.0Hz
// Filter Profile: human (46.1)
// Firmware Version: 4.4.0
PacketCounter	Acc_X	Acc_Y	Acc_Z	FreeAcc_X	FreeAcc_Y	FreeAcc_Z	OriInc_q0	OriInc_q1	OriInc_q2	OriInc_q3	Roll	Pitch	Yaw
26418	9.553132	-0.187433	2.430918	-0.000000	0.000000	0.046665	1.000000	0.000035	0.000012	0.000026	-4.405332	-75.683540	-2.693904
26419	9.568491	-0.170864	2.440002	0.000000	-0.000000	0.063487	1.000000	0.000022	0.000035	0.000012	-4.004813	-75.662693	-2.888432
26420	9.535353	-0.218899	2.454699	-0.029705	-0.036953	0.035875	1.000000	0.000030	0.000022	0.000023	-4.207186	-75.671324	-2.784432
26421	9.552768	-0.188162	2.432292	0.000224	-0.009095	0.046661	1.000000	0.000013	0.000015	0.000019	-4.213806	-75.669463	-2.776037
26422	9.567004	-0.191605	2.413122	0.022191	-0.014788	0.055784	1.000000	0.000041	0.000020	0.000021	-4.217546	-75.666773	-2.767190
26423	9.564883	-0.206040	2.444833	-0.010194	-0.025125	0.061821	1.000000	0.000025	0.000013	0.000017	-4.221928	-75.665188	-2.759769
26424	9.550462	-0.203092	2.464681	-0.032117	-0.019428	0.052698	1.000000	0.000030	0.000022	0.000023	-4.228260	-75.662512	-2.749722
26425	9.566722	-0.192353	2.414178	0.022189	-0.014777	0.055784	1.000000	0.000022	0.000018	0.000021	-4.234606	-75.660236	-2.740627
26426	9.536767	-0.206268	2.425602	0.002728	-0.026589	0.029838	1.000000	0.000021	0.000037	0.000023	-4.241988	-75.655804	-2.730524
26427	9.564444	-0.207216	2.446449	-0.010194	-0.025089	0.061821	1.000000	0.000044	-0.000003	0.000026	-4.248574	-75.655888	-2.718536
26428	9.539786	-0.172620	2.422993	0.010743	0.007009	0.031501	1.000000	0.000033	0.000035	0.000021	-4.254422	-75.651716	-2.708727
26429	9.550775	-0.210190	2.407312	0.024654	-0.032220	0.038961	1.000000	0.000008	0.000022	0.000004	-4.254614	-75.649153	-2.707572
26430	9.551842	-0.190391	2.435754	0.000257	-0.008941	0.046661	1.000000	0.000058	0.000010	0.000033	-4.264292	-75.647851	-2.690884
26431	9.523988	-0.190018	2.415564	0.013179	-0.010440	0.014679	1.000000	0.000019	0.000022	0.000014	-4.267417	-75.645223	-2.685416
26432	9.565998	-0.194049	2.416912	0.022146	-0.014538	0.055784	1.000000	0.000024	0.000013	0.000017	-4.273803	-75.643845	-2.676056
26433	9.565914	-0.194187	2.417232	0.022146	-0.014538	0.055784	1.000000	0.000030	0.000020	0.000011	-4.274695	-75.641493	-2.671558
26434	9.565791	-0.194299	2.417711	0.022069	-0.014422	0.055785	1.000000	0.000036	0.000029	0.000017	-4.279900	-75.638511	-2.662144
26435	9.551354	-0.191393	2.437586	0.000149	-0.008737	0.046661	1.000000	0.000038	0.000009	0.000034	-4.290395	-75.637209	-2.646827
26436	9.560339	-0.243406	2.453063	-0.018424	-0.058164	0.060160	1.000000	-0.000001	0.000021	0.000014	-4.299144	-75.635332	-2.638068
26437	9.553222	-0.177716	2.406904	0.032435	0.001738	0.040625	1.000000	0.000039	0.000023	0.000013	-4.299759	-75.632565	-2.632874
26438	9.565365	-0.195252	2.419320	0.021854	-0.014077	0.055786	1.000000	0.000036	0.000029	0.000017	-4.307035	-75.629835	-2.621473
26439	9.565243	-0.195479	2.419784	0.021854	-0.014077	0.055786	1.000000	0.000022	0.000018	0.000021	-4.313345	-75.627555	-2.612416
26440	9.563974	-0.215658	2.392138	0.046058	-0.037048	0.048090	1.000000	0.000025	0.000029	0.000008	-4.318328	-75.625229	-2.604693
26441	9.550661	-0.192466	2.440219	-0.000239	-0.008155	0.046662	1.000000	0.000030	0.000020	0.000011	-4.319206	-75.622880	-2.600210
26442	9.550535	-0.192639	2.440698	-0.000463	-0.007866	0.046662	1.000000	0.000046	0.000029	0.000026	-4.331239	-75.620727	-2.582712
26443	9.537006	-0.195462	2.401108	0.034381	-0.015053	0.023806	1.000000	0.000002	0.000015	0.000010	-4.334881	-75.618927	-2.578676
26444	9.562591	-0.210411	2.453412	-0.011187	-0.023574	0.061823	1.000000	0.000039	0.000023	0.000013	-4.342483	-75.617734	-2.566739
26445	9.552269	-0.178951	2.410591	0.031666	0.002781	0.040627	1.000000	0.000016	0.000028	0.000018	-4.347536	-75.614409	-2.559636
26446	9.576680	-0.214142	2.434871	0.010444	-0.028929	0.070951	1.000000	0.000032	0.000018	0.000030	-4.364139	-75.613821	-2.539132
26447	9.549970	-0.193729	2.442820	-0.001008	-0.007225	0.046662	1.000000	0.000030	0.000020	0.000011	-4.365007	-75.611467	-2.534661
26448	9.549853	-0.193727	2.443277	-0.001307	-0.006853	0.046663	1.000000	0.000036	0.000027	0.000005	-4.370794	-75.610181	-2.525046
26449	9.576328	-0.214494	2.436224	0.010145	-0.028555	0.070952	1.000000	0.000038	0.000025	0.000025	-4.376539	-75.607068	-2.514611
26450	9.536239	-0.196821	2.404041	0.033230	-0.013641	0.023812	1.000000	0.000021	0.000002	0.000030	-4.396630	-75.608501	-2.491746
26451	9.563905	-0.197768	2.424881	0.020301	-0.012133	0.055791	1.000000	0.000036	0.000029	0.000017	-4.399160	-75.605048	-2.484927
26452	9.564965	-0.177986	2.453283	-0.004422	0.011496	0.063480	1.000000	0.000010	0.000002	0.000021	-4.416663	-75.606730	-2.466234
26453	9.548233	-0.214995	2.416951	0.022417	-0.029241	0.038976	1.000000	0.000041	0.000036	0.000011	-4.415716	-75.602510	-2.462325
26454	9.575856	-0.215737	2.437968	0.009143	-0.027316	0.070956	1.000000	0.000024	0.000013	0.000017	-4.429374	-75.603019	-2.445788
26455	9.578999	-0.181772	2.434990	0.017150	0.006229	0.072610	1.000000	0.000030	0.000022	0.000023	-4.435361	-75.600320	-2.436078
26456	9.536804	-0.178138	2.434307	0.007780	0.010815	0.031500	1.000000	0.000033	0.000016	0.000019	-4.448719	-75.600636	-2.418720
26457	9.533473	-0.212484	2.437984	-0.000227	-0.022730	0.029848	1.000000	0.000030	0.000020	0.000011	-4.449544	-75.598279	-2.414279
26458	9.575475	-0.216614	2.439386	0.008386	-0.026466	0.070959	1.000000	0.000024	0.000015	0.000029	-4.468754	-75.598607	-2.392749
26459	9.551984	-0.162001	2.444088	0.004947	0.028775	0.048314	1.000000	0.000022	0.000035	0.000012	-4.470285	-75.594517	-2.388600
26460	9.562950	-0.199673	2.428487	0.018470	-0.010082	0.055797	1.000000	0.000030	0.000022	0.000023	-4.484468	-75.594146	-2.370619
26461	9.520769	-0.195871	2.427755	0.009487	-0.005916	0.014687	1.000000	0.000044	0.000012	0.000005	-4.481126	-75.592764	-2.368795
26462	9.550521	-0.182357	2.417253	0.028487	0.006322	0.040635	1.000000	0.000027	0.000025	0.000015	-4.492575	-75.592463	-2.354548
26463	9.548299	-0.196630	2.449114	-0.003904	-0.004012	0.046664	1.000000	0.000030	0.000020	0.000011	-4.493398	-75.590125	-2.350116
26464	9.576919	-0.203338	2.410500	0.039605	-0.015037	0.064935	1.000000	0.000013	0.000015	0.000019	-4.507478	-75.590209	-2.334634
26465	9.551373	-0.162854	2.446419	0.003778	0.029869	0.048312	1.000000	0.000033	0.000016	0.000019	-4.511504	-75.588214	-2.326599
26466	9.532501	-0.214014	2.441649	-0.002207	-0.020949	0.029852	1.000000	0.000022	0.000035	0.000012	-4.518573	-75.586763	-2.316279
26467	9.562222	-0.200762	2.431264	0.017240	-0.009099	0.055801	1.000000	0.000024	0.000015	0.000029	-4.527984	-75.584839	-2.303702
26468	9.564240	-0.186972	2.400202	0.049311	0.001526	0.049776	1.000000	0.000030	0.000022	0.000023	-4.540447	-75.584031	-2.287557
26469	9.549795	-0.183789	2.420010	0.027395	0.007205	0.040638	1.000000	0.000044	0.000012	0.000005	-4.537086	-75.582655	-2.285745
26470	9.563108	-0.181302	2.460269	-0.007985	0.014669	0.063473	1.000000	0.000016	0.000011	0.000027	-4.552504	-75.584233	-2.268313
26471	9.572993	-0.239099	2.416375	0.030304	-0.047768	0.063295	1.000000	0.000030	0.000020	0.000011	-4.553294	-75.581886	-2.263902
26472	9.549545	-0.184378	2.420953	0.026428	0.007768	0.040640	1.000000	0.000030	0.000022	0.000023	-4.565844	-75.581810	-2.248214
26473	9.573911	-0.219508	2.445258	0.005479	-0.024257	0.070967	1.000000	0.000021	0.000018	0.000021	-4.572056	-75.579524	-2.239247
26474	9.561592	-0.202163	2.433622	0.015295	-0.007961	0.055805	1.000000	0.000022	0.000014	-0.000002	-4.574010	-75.581840	-2.234602
26475	9.561530	-0.202320	2.433853	0.015290	-0.007962	0.055805	1.000000	0.000038	0.000009	0.000034	-4.584383	-75.580548	-2.219393
26476	9.545917	-0.219465	2.425682	0.017275	-0.025131	0.038998	1.000000	0.000033	0.000035	0.000021	-4.596944	-75.579285	-2.205438
26477	9.533542	-0.202190	2.414272	0.027745	-0.009118	0.023834	1.000000	0.000008	0.000022	0.000004	-4.597085	-75.576761	-2.204356
26478	9.548954	-0.185536	2.423193	0.024987	0.008741	0.040643	1.000000	0.000047	0.000010	0.000024	-4.609428	-75.577101	-2.187641
26479	9.576587	-0.186358	2.444114	0.012038	0.010268	0.072614	1.000000	0.000027	0.000025	0.000015	-4.612232	-75.574065	-2.181565
26480	9.560976	-0.203377	2.435942	0.013869	-0.007006	0.055808	1.000000	0.000021	0.000018	0.000021	-4.623959	-75.575556	-2.167342
26481	9.545380	-0.220350	2.427716	0.016333	-0.024538	0.039001	1.000000	0.000030	0.000020	0.000011	-4.624827	-75.573237	-2.162913
26482	9.531954	-0.223042	2.387948	0.050759	-0.031508	0.016179	1.000000	0.000017	0.000007	0.000004	-4.629321	-75.574993	-2.155843
26483	9.583929	-0.098297	2.466694	0.002581	0.101074	0.083560	1.000000	0.000055	0.000012	0.000014	-4.628943	-75.573579	-2.149722
26484	9.555150	-0.278122	2.384310	0.053593	-0.086578	0.038851	1.000000	0.000044	0.000016	0.000028	-4.639103	-75.574935	-2.134397
26485	9.545064	-0.221030	2.428895	0.015298	-0.024138	0.039003	1.000000	-0.000046	0.000030	0.000023	-4.653516	-75.571359	-2.124966
26486	9.622391	-0.137432	2.472504	0.002434	0.063783	0.123031	1.000000	0.000063	0.000034	0.000018	-4.658343	-75.570293	-2.112046
26487	9.565673	-0.156371	2.403876	0.052717	0.037517	0.051439	1.000000	0.000027	0.000025	0.000015	-4.661102	-75.567287	-2.105999
26488	9.546818	-0.207403	2.398971	0.046538	-0.013429	0.032995	1.000000	0.000058	0.000006	0.000010	-4.661354	-75.570312	-2.099183
26489	9.585595	-0.245598	2.403594	0.047477	-0.051123	0.072471	1.000000	0.000008	0.000006	0.000013	-4.666230	-75.569595	-2.093240
26490	9.535783	-0.144238	2.502760	-0.048990	0.062158	0.046801	1.000000	0.000013	-0.000002	0.000029	-4.683234	-75.572215	-2.076670
26491	9.547816	-0.188055	2.427478	0.021681	0.010052	0.040649	1.000000	0.000066	0.000030	0.000026	-4.686168	-75.568578	-2.065894
26492	9.542157	-0.262577	2.375221	0.061819	-0.069854	0.023708	1.000000	0.000022	0.000016	0.000009	-4.688309	-75.570287	-2.060413
26493	9.579600	-0.160868	2.386117	0.072875	0.032313	0.060600	1.000000	0.000024	0.000033	0.000031	-4.698138	-75.566233	-2.047492
26494	9.544157	-0.222981	2.432276	0.011933	-0.023250	0.039010	1.000000	0.000002	0.000015	0.000010	-4.704771	-75.570965	-2.041214
26495	9.523010	-0.127982	2.492839	-0.040271	0.078417	0.031629	1.000000	0.000069	0.000024	0.000022	-4.705761	-75.568098	-2.032089
26496	9.556060	-0.266771	2.357563	0.081957	-0.075239	0.032879	1.000000	0.000041	0.000020	0.000021	-4.711763	-75.569382	-2.022835
26497	9.560475	-0.186537	2.470090	-0.015604	0.017633	0.063459	1.000000	0.000002	0.000015	0.000010	-4.715430	-75.567698	-2.018842
26498	9.547051	-0.189468	2.430376	0.018619	0.010641	0.040655	1.000000	0.000021	0.000018	0.000021	-4.726229	-75.569233	-2.008386
26499	9.588997	-0.219673	2.344190	0.108699	-0.029610	0.060491	1.000000	0.000008	0.000003	0.000002	-4.726101	-75.568955	-2.007642
26500	9.699399	-0.333098	3.063124	-0.564737	-0.060736	0.348484	1.000000	0.000331	0.000408	0.000048	-4.694784	-75.526135	-1.998720
26501	9.867950	-0.054690	2.005143	0.525921	0.092698	0.242900	1.000000	-0.000380	-0.000474	0.000023	-4.766194	-75.580156	-1.970069
26502	9.175706	-0.278990	2.233056	0.105153	-0.096961	-0.366127	1.000000	0.000292	0.000165	-0.000000	-4.725923	-75.564252	-1.974908
26503	9.480161	-0.125376	2.494539	-0.051816	0.082958	-0.009508	1.000000	-0.000104	-0.000046	0.000027	-4.751486	-75.569411	-1.960876
26504	9.534165	-0.199530	2.333145	0.108806	-0.009103	0.004225	1.000000	0.000024	0.000101	0.000005	-4.754642	-75.558741	-1.961840
26505	9.499833	-0.188213	2.582879	-0.137763	0.030627	0.032799	1.000000	0.000155	-0.000007	-0.000025	-4.726195	-75.559942	-1.973038
26506	9.654495	-0.285751	2.285527	0.175355	-0.101393	0.110695	1.000000	-0.000191	0.000077	0.000074	-4.780098	-75.556265	-1.941211
26507	9.529258	-0.149057	2.661387	-0.200513	0.078742	0.080014	1.000000	0.000337	0.000046	-0.000042	-4.721334	-75.551622	-1.962205
26508	9.603188	-0.256652	2.182563	0.265316	-0.083649	0.034814	1.000000	-0.000329	-0.000054	0.000077	-4.798356	-75.561536	-1.924268
26509	9.507027	-0.101024	2.605956	-0.147909	0.121261	0.043691	1.000000	0.000305	0.000067	-0.000026	-4.749787	-75.554277	-1.938485
26510	9.545514	-0.269877	2.173144	0.258400	-0.096917	-0.023098	1.000000	-0.000141	-0.000050	0.000047	-4.791217	-75.562102	-1.915110
26511	9.555801	-0.171311	2.654004	-0.190364	0.057394	0.104312	1.000000	0.000044	0.000032	0.000019	-4.793613	-75.558417	-1.907648
26512	9.541089	-0.112256	2.357552	0.097349	0.081815	0.015174	1.000000	0.000098	0.000006	-0.000002	-4.784308	-75.562655	-1.908350
26513	9.504542	-0.354564	2.341702	0.076074	-0.160192	-0.019110	1.000000	-0.000057	0.000016	0.000034	-4.805903	-75.560767	-1.893046
26514	9.557753	0.002597	2.657104	-0.173439	0.230839	0.103334	1.000000	0.000080	0.000003	0.000017	-4.801060	-75.562250	-1.882046
26515	9.616212	-0.389804	2.277663	0.161724	-0.203167	0.073859	1.000000	0.000035	0.000029	0.000017	-4.803675	-75.559000	-1.875298
26516	9.551974	-0.072425	2.605283	-0.133840	0.150955	0.086416	1.000000	-0.000041	0.000023	0.000038	-4.825616	-75.562607	-1.857145
26517	9.575052	-0.206101	2.338975	0.113022	-0.012622	0.045405	1.000000	0.000112	-0.000002	-0.000009	-4.809223	-75.563197	-1.860950
26518	9.538509	-0.261765	2.444414	-0.004210	-0.055330	0.037376	1.000000	-0.000052	0.000023	0.000029	-4.829333	-75.563937	-1.849867
26519	9.583804	-0.071716	2.476290	-0.001561	0.137159	0.085173	1.000000	0.000061	0.000021	0.000020	-4.830767	-75.561663	-1.841397
26520	9.511666	-0.267649	2.365184	0.064247	-0.069666	-0.008171	1.000000	0.000069	0.000022	0.000010	-4.827858	-75.566520	-1.839773
26521	9.573637	-0.174553	2.487371	-0.026943	0.036642	0.080237	1.000000	-0.000057	0.000014	0.000023	-4.844315	-75.565124	-1.829715
26522	9.589003	-0.184276	2.408868	0.050940	0.018223	0.075824	1.000000	0.000086	0.000029	0.000014	-4.843037	-75.566393	-1.826638
26523	9.556786	-0.211771	2.451619	-0.000941	-0.003930	0.055819	1.000000	0.000002	0.000015	0.000010	-4.846961	-75.564988	-1.822572
26524	9.577704	-0.173232	2.338174	0.117342	0.021362	0.047092	1.000000	0.000060	0.000023	0.000032	-4.853493	-75.566904	-1.810404
26525	9.553211	-0.220330	2.543547	-0.091038	-0.001274	0.075372	1.000000	0.000010	0.000039	0.000026	-4.862597	-75.562614	-1.800103
26526	9.589602	-0.191397	2.351302	0.105766	0.005460	0.062256	1.000000	0.000005	0.000011	0.000017	-4.870631	-75.566945	-1.795034
26527	9.544106	-0.195602	2.441434	0.007596	0.012232	0.040668	1.000000	0.000058	0.000027	0.000024	-4.874151	-75.564165	-1.784888
26528	9.544003	-0.195908	2.441809	0.007008	0.012329	0.040668	1.000000	0.000016	0.000011	0.000027	-4.885697	-75.566067	-1.775279
26529	9.558306	-0.199407	2.422734	0.028816	0.006663	0.049855	1.000000	0.000047	0.000025	0.000003	-4.881238	-75.563736	-1.774633
26530	9.539378	-0.250420	2.417924	0.022680	-0.044496	0.031413	1.000000	0.000038	0.000007	0.000022	-4.884232	-75.566244	-1.766343
26531	9.559244	-0.205866	2.363897	0.084917	-0.006312	0.036287	1.000000	-0.000004	0.000027	0.000018	-4.892070	-75.563551	-1.759009
26532	9.559111	-0.179894	2.451906	0.002637	0.029705	0.057466	1.000000	0.000016	0.000028	0.000017	-4.892923	-75.566649	-1.753018
26533	9.571179	-0.223777	2.376853	0.073202	-0.022422	0.051445	1.000000	0.000066	0.000011	0.000024	-4.895799	-75.565680	-1.742522
26534	9.543400	-0.196951	2.444082	0.003259	0.012475	0.040670	1.000000	0.000016	0.000026	0.000006	-4.901170	-75.573194	-1.742416
26535	9.541063	-0.237554	2.388483	0.051910	-0.033966	0.025469	1.000000	0.000013	0.000017	0.000031	-4.913252	-75.571620	-1.728798
26536	9.558688	-0.180784	2.453490	-0.000191	0.030194	0.057465	1.000000	0.000027	0.000025	0.000015	-4.918860	-75.573505	-1.724593
26537	9.559695	-0.187037	2.394457	0.056483	0.017290	0.043918	1.000000	0.000030	0.000020	0.000011	-4.920169	-75.571846	-1.720062
26538	9.544105	-0.203913	2.386176	0.058085	-0.000107	0.027129	1.000000	0.000036	0.000010	0.000015	-4.925174	-75.575776	-1.715661
26539	9.569496	-0.218825	2.438461	0.012524	-0.008829	0.065014	1.000000	0.000007	0.000008	0.000025	-4.935743	-75.575374	-1.704304
26540	9.558347	-0.181603	2.454756	-0.001960	0.030575	0.057463	1.000000	0.000016	0.000028	0.000017	-4.944191	-75.575753	-1.698962
26541	9.542738	-0.198443	2.446547	0.000407	0.013064	0.040670	1.000000	0.000014	0.000011	-0.000004	-4.941087	-75.575334	-1.700975
26542	9.571499	-0.205375	2.407868	0.043494	0.001734	0.059075	1.000000	0.000029	0.000005	0.000032	-4.952799	-75.578393	-1.687796
26543	9.584693	-0.202871	2.448209	0.008451	0.009017	0.081810	1.000000	0.000038	0.000023	0.000013	-4.953964	-75.576388	-1.682536
26544	9.555805	-0.222560	2.399967	0.045284	-0.015843	0.042285	1.000000	0.000033	0.000016	0.000019	-4.955941	-75.577693	-1.676121
26545	9.526897	-0.215962	2.439179	0.001385	-0.004415	0.023876	1.000000	0.000019	0.000022	0.000013	-4.959585	-75.575829	-1.670606
26546	9.543413	-0.205550	2.388801	0.054741	0.000167	0.027148	1.000000	0.000024	0.000031	0.000019	-4.963087	-75.577602	-1.663780
26547	9.572060	-0.186196	2.437952	0.017188	0.024994	0.066669	1.000000	0.000019	0.000022	0.000013	-4.966723	-75.575778	-1.658270
26548	9.526505	-0.216724	2.440642	-0.000741	-0.004084	0.023877	1.000000	0.000051	0.000022	0.000041	-4.985134	-75.579069	-1.642062
26549	9.582870	-0.224434	2.422901	0.029835	-0.013891	0.074230	1.000000	0.000038	0.000023	0.000013	-4.986377	-75.577159	-1.636780
26550	9.545132	-0.166210	2.446673	0.004697	0.046979	0.042319	1.000000	0.000016	0.000028	0.000017	-4.989896	-75.573538	-1.631196
26551	9.540502	-0.220828	2.422779	0.020890	-0.009765	0.033087	1.000000	0.000032	0.000035	0.000021	-4.994940	-75.570195	-1.622691
26552	9.539200	-0.214905	2.482802	-0.036094	0.003336	0.046598	1.000000	0.000030	0.000022	0.000023	-5.004008	-75.568563	-1.616094
26553	9.555764	-0.204488	2.432318	0.018068	0.007961	0.049879	1.000000	0.000030	0.000020	0.000011	-5.005587	-75.567011	-1.611476
26554	9.554575	-0.224814	2.404652	0.041683	-0.015185	0.042302	1.000000	0.000024	0.000013	0.000017	-5.011804	-75.569862	-1.605027
26555	9.568809	-0.201992	2.473160	-0.017753	0.015369	0.072599	1.000000	0.000022	0.000035	0.000012	-5.014017	-75.566605	-1.600785
26556	9.555428	-0.205121	2.433585	0.015500	0.008247	0.049883	1.000000	0.000035	0.000015	0.000038	-5.028492	-75.574344	-1.584761
26557	9.544376	-0.194147	2.362308	0.082687	0.011308	0.021251	1.000000	0.000044	0.000012	0.000005	-5.026034	-75.573894	-1.582672
26558	9.542006	-0.181663	2.481397	-0.032414	0.037175	0.048234	1.000000	0.000008	0.000003	0.000002	-5.023080	-75.582284	-1.581140
26559	9.536376	-0.256234	2.429132	0.008118	-0.042819	0.031443	1.000000	0.000063	0.000015	0.000016	-5.023218	-75.581421	-1.574097
26560	9.541909	-0.208297	2.394568	0.048317	0.001229	0.027182	1.000000	-0.000015	0.000029	0.000020	-5.038130	-75.579549	-1.568134
26561	9.575029	-0.134487	2.468133	-0.005602	0.082879	0.075895	1.000000	0.000061	0.000019	0.000008	-5.035131	-75.578344	-1.564680
26562	9.520515	-0.273306	2.421877	0.010213	-0.060504	0.014653	1.000000	0.000028	0.000023	0.000004	-5.022728	-75.575351	-1.563663
26563	9.546007	-0.154226	2.420517	0.031684	0.057689	0.036405	1.000000	0.000021	0.000039	0.000035	-5.035138	-75.571504	-1.548993
26564	9.595582	-0.230353	2.410009	0.046749	-0.018910	0.083466	1.000000	0.000038	0.000023	0.000013	-5.043600	-75.566009	-1.547730
26565	9.573434	-0.155365	2.442045	0.018954	0.059618	0.068328	1.000000	0.000041	0.000003	0.000030	-5.053026	-75.566272	-1.533850
26566	9.583309	-0.213515	2.398409	0.058182	-0.002681	0.068324	1.000000	0.000021	0.000018	0.000021	-5.064676	-75.557889	-1.528215
26567	9.543324	-0.169336	2.453503	0.000482	0.048034	0.042315	1.000000	0.000008	0.000024	0.000016	-5.070848	-75.555784	-1.521665
26568	9.551966	-0.221139	2.469510	-0.019158	-0.001259	0.055801	1.000000	0.000033	0.000016	0.000019	-5.079314	-75.559783	-1.516578
26569	9.541999	-0.190116	2.426372	0.023682	0.025043	0.034748	1.000000	0.000015	0.000030	0.000029	-5.090357	-75.556938	-1.504119
26570	9.536221	-0.238554	2.461750	-0.017956	-0.018507	0.039011	1.000000	0.000027	0.000007	0.000013	-5.097794	-75.562754	-1.500767
26571	9.539649	-0.231102	2.370995	0.071115	-0.021191	0.019628	1.000000	-0.000006	0.000014	0.000020	-5.107908	-75.561903	-1.491903
26572	9.557273	-0.174237	2.435846	0.019150	0.043295	0.051538	1.000000	0.000030	0.000022	0.000023	-5.122824	-75.563631	-1.485108
26573	9.526113	-0.207863	2.419162	0.023975	0.008253	0.017965	1.000000	0.000047	0.000024	0.000003	-5.119144	-75.561744	-1.484217
26574	9.555949	-0.194642	2.408760	0.041851	0.020191	0.043986	1.000000	0.000032	0.000018	0.000030	-5.129851	-75.568152	-1.472603
26575	9.551258	-0.222686	2.472108	-0.023193	-0.000254	0.055793	1.000000	0.000031	0.000018	-0.000000	-5.126795	-75.567165	-1.473047
26576	9.555790	-0.194804	2.409378	0.041307	0.020069	0.043988	1.000000	0.000016	0.000009	0.000015	-5.126694	-75.568098	-1.467499
26577	9.537789	-0.199070	2.519993	-0.069962	0.028613	0.054111	1.000000	0.000031	0.000018	-0.000000	-5.123598	-75.567112	-1.467959
26578	9.567783	-0.212151	2.422007	0.029077	0.004150	0.059128	1.000000	0.000047	0.000008	0.000012	-5.122475	-75.574765	-1.463614
26579	9.541172	-0.191409	2.429523	0.017604	0.025909	0.034759	1.000000	0.000002	0.000015	0.000010	-5.127281	-75.574027	-1.459264
26580	9.537705	-0.225612	2.433328	0.009657	-0.007674	0.033106	1.000000	0.000044	0.000012	0.000005	-5.122702	-75.571867	-1.459756
26581	9.556589	-0.174765	2.438493	0.015057	0.043467	0.051544	1.000000	0.000010	0.000002	0.000021	-5.132042	-75.572468	-1.449778
26582	9.553175	-0.209126	2.442075	0.006804	0.010021	0.049891	1.000000	0.000030	0.000001	0.000009	-5.134327	-75.573287	-1.448985
26583	9.555443	-0.195297	2.410714	0.039066	0.020334	0.043997	1.000000	0.000024	0.000013	0.000017	-5.139888	-75.572712	-1.441271
26584	9.556484	-0.175285	2.438865	0.012825	0.044044	0.051545	1.000000	0.000038	0.000007	0.000022	-5.154292	-75.582853	-1.433838
26585	9.554231	-0.215915	2.383189	0.061343	-0.002453	0.036463	1.000000	0.000022	0.000016	0.000009	-5.156746	-75.582036	-1.429702
26586	9.570731	-0.179055	2.420167	0.034699	0.038738	0.060785	1.000000	0.000024	0.000031	0.000019	-5.169920	-75.577142	-1.427179
26587	9.567203	-0.213568	2.424171	0.026417	0.005286	0.059135	1.000000	0.000024	0.000015	0.000029	-5.180805	-75.576256	-1.414168
26588	9.583849	-0.203453	2.373640	0.079204	0.009919	0.062501	1.000000	0.000030	0.000022	0.000023	-5.188977	-75.582406	-1.406390
26589	9.568051	-0.193953	2.453036	0.000355	0.028786	0.066674	1.000000	0.000032	0.000035	0.000021	-5.194755	-75.579389	-1.397669
26590	9.566809	-0.214347	2.425656	0.023401	0.005571	0.059142	1.000000	0.000038	0.000023	0.000013	-5.196223	-75.584232	-1.396280
26591	9.570113	-0.180302	2.422519	0.031295	0.039167	0.060795	1.000000	0.000041	0.000020	0.000020	-5.201454	-75.583000	-1.387134
26592	9.536620	-0.228031	2.437350	0.003547	-0.005787	0.033112	1.000000	0.000038	0.000025	0.000024	-5.215957	-75.581571	-1.380946
26593	9.553260	-0.217815	2.386904	0.057644	-0.001229	0.036486	1.000000	0.000041	0.000020	0.000020	-5.221293	-75.580334	-1.371765
26594	9.554267	-0.197763	2.415167	0.033438	0.021999	0.044014	1.000000	0.000024	0.000013	0.000017	-5.223926	-75.577889	-1.367086
26595	9.539711	-0.194454	2.435010	0.011386	0.027821	0.034763	1.000000	0.000022	0.000035	0.000012	-5.226904	-75.574972	-1.362620
26596	9.554003	-0.198128	2.416181	0.033070	0.021669	0.044016	1.000000	0.000030	0.000022	0.000023	-5.222891	-75.573126	-1.355779
26597	9.523955	-0.211752	2.427307	0.013513	0.009928	0.017984	1.000000	0.000027	0.000009	0.000024	-5.231959	-75.573009	-1.344351
26598	9.581437	-0.199272	2.437611	0.019012	0.023158	0.075927	1.000000	0.000022	0.000035	0.000012	-5.228540	-75.573349	-1.341809
26599	9.539210	-0.195379	2.436899	0.010054	0.027380	0.034766	1.000000	0.000016	0.000028	0.000017	-5.234917	-75.571187	-1.334441
26600	9.551182	-0.213036	2.449519	-0.002075	0.011714	0.049892	1.000000	0.000030	0.000022	0.000023	-5.246892	-75.577440	-1.328155
26601	9.538975	-0.195942	2.437775	0.008318	0.027753	0.034766	1.000000	0.000021	0.000018	0.000021	-5.254670	-75.576373	-1.318738
26602	9.568831	-0.182687	2.427400	0.026898	0.039714	0.060806	1.000000	0.000025	0.000027	-0.000004	-5.252013	-75.577897	-1.323867
26603	9.565312	-0.216977	2.431321	0.018567	0.006274	0.059152	1.000000	0.000007	0.000008	0.000025	-5.263661	-75.578014	-1.312147
26604	9.566316	-0.197078	2.459546	-0.006730	0.029610	0.066669	1.000000	0.000030	0.000022	0.000023	-5.269681	-75.580858	-1.302928
26605	9.584119	-0.166609	2.436853	0.023008	0.057463	0.077587	1.000000	0.000049	0.000004	0.000020	-5.274472	-75.581451	-1.293323
26606	9.552982	-0.200146	2.420051	0.027824	0.022359	0.044031	1.000000	0.000025	0.000027	-0.000004	-5.268968	-75.579448	-1.297263
26607	9.552853	-0.200303	2.420548	0.027603	0.022440	0.044031	1.000000	0.000029	0.000024	0.000034	-5.281628	-75.577641	-1.281943
26608	9.552732	-0.200642	2.420997	0.026798	0.022888	0.044032	1.000000	0.000019	0.000022	0.000013	-5.294781	-75.579788	-1.281045
26609	9.553703	-0.180596	2.449353	0.002237	0.046286	0.051543	1.000000	0.000030	0.000022	0.000023	-5.302442	-75.578374	-1.270904
26610	9.566963	-0.204670	2.402433	0.045424	0.017405	0.053314	1.000000	0.000043	0.000016	0.000028	-5.312116	-75.593786	-1.259397
26611	9.552416	-0.201421	2.422177	0.023337	0.023246	0.044040	1.000000	0.000019	0.000022	0.000013	-5.316899	-75.592592	-1.253529
26612	9.552303	-0.201648	2.422605	0.023084	0.023504	0.044040	1.000000	0.000030	0.000022	0.000023	-5.328724	-75.591378	-1.248851
26613	9.552201	-0.201955	2.422981	0.022837	0.023594	0.044041	1.000000	0.000043	0.000016	0.000028	-5.337532	-75.590709	-1.235973
26614	9.553168	-0.181848	2.451346	-0.001575	0.046629	0.051541	1.000000	0.000025	0.000029	0.000008	-5.330110	-75.587715	-1.237617
26615	9.551957	-0.202224	2.423921	0.022514	0.023398	0.044042	1.000000	0.000019	0.000022	0.000013	-5.334915	-75.586498	-1.231748
26616	9.549509	-0.216291	2.455751	-0.009940	0.013161	0.049885	1.000000	0.000016	0.000009	0.000015	-5.338405	-75.585204	-1.227805
26617	9.549424	-0.216540	2.456057	-0.010181	0.013250	0.049885	1.000000	0.000030	0.000022	0.000023	-5.346136	-75.583883	-1.217648
26618	9.567225	-0.186125	2.433460	0.019446	0.040797	0.060819	1.000000	0.000033	0.000016	0.000019	-5.344959	-75.583805	-1.211563
26619	9.523994	-0.202504	2.404508	0.034828	0.021714	0.012151	1.000000	0.000033	0.000016	0.000019	-5.350777	-75.583185	-1.203010
26620	9.567056	-0.186458	2.434099	0.019036	0.040632	0.060820	1.000000	0.000022	0.000016	0.000009	-5.345713	-75.582165	-1.202770
26621	9.566987	-0.186548	2.434363	0.018797	0.040719	0.060820	1.000000	0.000036	0.000010	0.000015	-5.349612	-75.582237	-1.195822
26622	9.551376	-0.203416	2.426110	0.021634	0.023687	0.044043	1.000000	0.000030	0.000020	0.000011	-5.363096	-75.577979	-1.199685
26623	9.551292	-0.203551	2.426430	0.021401	0.023778	0.044044	1.000000	0.000024	0.000013	0.000017	-5.369309	-75.577729	-1.191769
26624	9.539154	-0.186327	2.414489	0.031702	0.039997	0.028925	1.000000	0.000036	0.000010	0.000015	-5.377688	-75.578428	-1.190320
26625	9.554613	-0.169747	2.423323	0.028982	0.057656	0.045698	1.000000	0.000021	0.000018	0.000021	-5.385849	-75.577473	-1.180795
26626	9.579977	-0.211144	2.388551	0.063801	0.012693	0.062609	1.000000	0.000044	0.000014	0.000016	-5.389399	-75.579772	-1.178242
26627	9.552054	-0.183937	2.455527	-0.004413	0.047671	0.051535	1.000000	0.000019	0.000022	0.000013	-5.394367	-75.578503	-1.172333
26628	9.550862	-0.204580	2.428036	0.020439	0.024897	0.044043	1.000000	0.000021	0.000021	0.000032	-5.419232	-75.572777	-1.165954
26629	9.554216	-0.170698	2.424820	0.028381	0.058504	0.045695	1.000000	0.000008	0.000022	0.000004	-5.421413	-75.571553	-1.164289
26630	9.535116	-0.221820	2.420274	0.020489	0.007565	0.027276	1.000000	0.000043	0.000016	0.000028	-5.430352	-75.582352	-1.153484
26631	9.565016	-0.208875	2.409810	0.039589	0.019454	0.053335	1.000000	0.000021	0.000018	0.000021	-5.438706	-75.581454	-1.143898
26632	9.550437	-0.205508	2.429627	0.016469	0.025027	0.044050	1.000000	0.000025	0.000029	0.000008	-5.432444	-75.585586	-1.142527
26633	9.552716	-0.191770	2.398533	0.048700	0.035285	0.038226	1.000000	0.000033	0.000016	0.000019	-5.438584	-75.585018	-1.133877
26634	9.564703	-0.209415	2.411005	0.036826	0.019126	0.053346	1.000000	0.000035	0.000012	0.000026	-5.439860	-75.590379	-1.124089
26635	9.565689	-0.189350	2.439244	0.012257	0.042574	0.060823	1.000000	0.000019	0.000022	0.000013	-5.444926	-75.589234	-1.118156
26636	9.537975	-0.188979	2.418937	0.025598	0.041000	0.028938	1.000000	0.000030	0.000022	0.000023	-5.452145	-75.585379	-1.114364
26637	9.537859	-0.189153	2.419379	0.025346	0.041101	0.028939	1.000000	0.000038	0.000023	0.000013	-5.454742	-75.584080	-1.108692
26638	9.564258	-0.210060	2.412713	0.034761	0.019842	0.053353	1.000000	0.000036	0.000027	0.000005	-5.462081	-75.591258	-1.111534
26639	9.552070	-0.192842	2.401017	0.045166	0.035880	0.038241	1.000000	0.000018	0.000024	0.000025	-5.472372	-75.589772	-1.100353
26640	9.537494	-0.189644	2.420778	0.023081	0.041727	0.028941	1.000000	0.000021	0.000018	0.000021	-5.479753	-75.589024	-1.096869
26641	9.561526	-0.224646	2.445475	0.001477	0.009972	0.059166	1.000000	0.000024	0.000013	0.000017	-5.486320	-75.588939	-1.088846
26642	9.567295	-0.176880	2.410745	0.041054	0.053846	0.055014	1.000000	0.000032	0.000035	0.000021	-5.495569	-75.591245	-1.086457
26643	9.551645	-0.194002	2.402613	0.043270	0.036384	0.038247	1.000000	0.000007	0.000008	0.000025	-5.507916	-75.591644	-1.074520
26644	9.564689	-0.191303	2.443007	0.007253	0.044017	0.060821	1.000000	0.000038	0.000023	0.000013	-5.512387	-75.595008	-1.075894
26645	9.579072	-0.195164	2.423970	0.028794	0.038329	0.070128	1.000000	0.000018	0.000008	0.000034	-5.527704	-75.595345	-1.059652
26646	9.536894	-0.191293	2.423015	0.019557	0.042515	0.028946	1.000000	0.000019	0.000038	0.000004	-5.526182	-75.594379	-1.065228
26647	9.547690	-0.229110	2.408040	0.032891	0.003327	0.036599	1.000000	0.000032	0.000035	0.000021	-5.532756	-75.591794	-1.056334
26648	9.566585	-0.178447	2.413444	0.038015	0.054428	0.055023	1.000000	0.000021	0.000018	0.000021	-5.539371	-75.592996	-1.053182
26649	9.562994	-0.212782	2.417479	0.029531	0.021045	0.053367	1.000000	0.000030	0.000020	0.000011	-5.542532	-75.592243	-1.048097
26650	9.548378	-0.209429	2.437371	0.006539	0.026933	0.044056	1.000000	0.000021	0.000037	0.000023	-5.550216	-75.594697	-1.042616
26651	9.549325	-0.189253	2.465716	-0.018029	0.050429	0.051506	1.000000	0.000025	0.000010	0.000005	-5.551845	-75.595097	-1.039758
26652	9.548171	-0.209608	2.438167	0.004725	0.026792	0.044058	1.000000	0.000038	0.000023	0.000013	-5.545494	-75.601236	-1.037005
26653	9.578083	-0.196695	2.427751	0.023758	0.038673	0.070140	1.000000	0.000035	0.000015	0.000038	-5.560220	-75.600838	-1.019449
26654	9.521451	-0.189220	2.446039	-0.005998	0.048810	0.019633	1.000000	0.000028	0.000023	0.000003	-5.562030	-75.594238	-1.026414
26655	9.547853	-0.210203	2.439360	0.004829	0.027195	0.044057	1.000000	0.000019	0.000022	0.000013	-5.567408	-75.593232	-1.020409
26656	9.547778	-0.210341	2.439645	0.004377	0.027281	0.044057	1.000000	0.000027	0.000007	0.000013	-5.571567	-75.594964	-1.017972
26657	9.563251	-0.193766	2.448438	0.001617	0.044974	0.060820	1.000000	0.000021	0.000018	0.000021	-5.580208	-75.594288	-1.008327
26658	9.551090	-0.176615	2.436681	0.012117	0.061398	0.045711	1.000000	0.000035	0.000029	0.000017	-5.594353	-75.592140	-1.010599
26659	9.549923	-0.197269	2.409182	0.036111	0.038120	0.038270	1.000000	0.000038	0.000009	0.000034	-5.607381	-75.592394	-0.994577
26660	9.550938	-0.177195	2.437236	0.010480	0.061600	0.045711	1.000000	0.000005	0.000009	0.000006	-5.610305	-75.599230	-0.993895
26661	9.561812	-0.214971	2.421960	0.023755	0.022410	0.053380	1.000000	0.000025	0.000029	0.000007	-5.612284	-75.597520	-0.990832
26662	9.562776	-0.194685	2.450219	-0.001783	0.045866	0.060815	1.000000	0.000036	0.000010	0.000015	-5.615048	-75.603582	-0.987284
26663	9.550651	-0.177560	2.438332	0.008639	0.061899	0.045711	1.000000	0.000018	0.000024	0.000025	-5.625700	-75.602268	-0.976025
26664	9.549481	-0.198206	2.410857	0.032702	0.038169	0.038281	1.000000	0.000033	0.000016	0.000019	-5.621763	-75.601384	-0.972423
26665	9.564933	-0.181560	2.419751	0.029934	0.055868	0.055042	1.000000	0.000030	0.000020	0.000011	-5.625091	-75.600732	-0.967313
26666	9.547910	-0.192019	2.470975	-0.025621	0.051831	0.051482	1.000000	0.000024	0.000015	0.000028	-5.639046	-75.606067	-0.958807
26667	9.549200	-0.198767	2.411924	0.030866	0.038627	0.038285	1.000000	0.000028	0.000023	0.000003	-5.639182	-75.605125	-0.957321
26668	9.534604	-0.195295	2.431692	0.008376	0.044323	0.028954	1.000000	0.000030	0.000022	0.000023	-5.641515	-75.606428	-0.951673
26669	9.564545	-0.182184	2.421238	0.027393	0.056196	0.055048	1.000000	0.000044	0.000012	0.000005	-5.640837	-75.606817	-0.949045
26670	9.548930	-0.199116	2.412966	0.029588	0.037987	0.038292	1.000000	0.000024	0.000015	0.000028	-5.635017	-75.606334	-0.938442
26671	9.549908	-0.179063	2.441132	0.005014	0.061508	0.045716	1.000000	0.000033	0.000016	0.000019	-5.641534	-75.606048	-0.929724
26672	9.563223	-0.203197	2.394358	0.050051	0.032459	0.047633	1.000000	0.000027	0.000025	0.000015	-5.648057	-75.609046	-0.930734
26673	9.564165	-0.182989	2.422679	0.025476	0.055987	0.055054	1.000000	0.000019	0.000022	0.000013	-5.653555	-75.608171	-0.924727
26674	9.534058	-0.196491	2.433734	0.004712	0.043947	0.028958	1.000000	0.000029	0.000005	0.000032	-5.656802	-75.615651	-0.913852
26675	9.578471	-0.187193	2.404024	0.045497	0.049987	0.064403	1.000000	0.000022	0.000035	0.000011	-5.660571	-75.613372	-0.909280
26676	9.575876	-0.201060	2.436085	0.012290	0.040109	0.070156	1.000000	0.000022	0.000016	0.000009	-5.666010	-75.615485	-0.911796
26677	9.536210	-0.183174	2.403375	0.035926	0.054460	0.023207	1.000000	0.000022	0.000016	0.000009	-5.669654	-75.615367	-0.907363
26678	9.561205	-0.197777	2.456098	-0.009975	0.046386	0.060808	1.000000	0.000040	0.000022	0.000032	-5.685753	-75.613577	-0.902073
26679	9.562531	-0.204648	2.397000	0.046500	0.033151	0.047648	1.000000	0.000036	0.000010	0.000015	-5.690527	-75.614063	-0.894900
26680	9.545491	-0.215013	2.448170	-0.009433	0.028679	0.044049	1.000000	0.000021	0.000018	0.000021	-5.690078	-75.621175	-0.887318
26681	9.547874	-0.201496	2.416943	0.022773	0.038866	0.038307	1.000000	0.000033	0.000016	0.000019	-5.696689	-75.621002	-0.878588
26682	9.560853	-0.198790	2.457386	-0.012297	0.046363	0.060806	1.000000	0.000032	0.000018	0.000030	-5.705118	-75.618963	-0.873044
26683	9.563194	-0.185297	2.426334	0.019912	0.056546	0.055064	1.000000	0.000022	0.000035	0.000011	-5.708969	-75.616720	-0.868472
26684	9.563049	-0.185384	2.426900	0.018839	0.056583	0.055066	1.000000	0.000038	0.000023	0.000013	-5.709796	-75.620226	-0.868337
26685	9.550939	-0.168326	2.415016	0.029267	0.072605	0.039974	1.000000	0.000034	0.000015	0.000038	-5.724786	-75.620005	-0.850755
26686	9.559308	-0.220128	2.431362	0.008479	0.023639	0.053402	1.000000	0.000008	0.000022	0.000004	-5.733783	-75.627837	-0.852943
26687	9.550725	-0.168718	2.415834	0.027180	0.073141	0.039976	1.000000	0.000027	0.000025	0.000015	-5.739110	-75.626699	-0.846272
26688	9.559065	-0.220446	2.432289	0.006454	0.023447	0.053404	1.000000	0.000030	0.000022	0.000023	-5.736688	-75.633796	-0.841089
26689	9.558933	-0.220780	2.432775	0.006115	0.023572	0.053404	1.000000	0.000027	0.000028	0.000027	-5.747086	-75.632320	-0.829221
26690	9.562343	-0.186908	2.429560	0.014144	0.056663	0.055073	1.000000	0.000027	0.000025	0.000015	-5.740326	-75.630627	-0.831283
26691	9.559742	-0.200944	2.461529	-0.018725	0.046740	0.060794	1.000000	0.000024	0.000015	0.000028	-5.752383	-75.630588	-0.818007
26692	9.547626	-0.183804	2.449689	-0.007627	0.063076	0.045705	1.000000	0.000025	0.000029	0.000007	-5.762019	-75.625361	-0.826202
26693	9.548956	-0.190634	2.390719	0.048827	0.049797	0.032594	1.000000	0.000043	0.000016	0.000028	-5.771659	-75.625171	-0.813177
26694	9.562954	-0.167376	2.459069	-0.009722	0.080887	0.062457	1.000000	0.000016	0.000026	0.000006	-5.773674	-75.618110	-0.821038
26695	9.547295	-0.184264	2.450945	-0.007574	0.063431	0.045702	1.000000	0.000033	0.000016	0.000019	-5.780411	-75.617975	-0.812310
26696	9.546151	-0.204912	2.423451	0.015296	0.039814	0.038317	1.000000	0.000021	0.000018	0.000021	-5.781985	-75.623648	-0.808816
26697	9.576107	-0.191946	2.413052	0.034259	0.051665	0.064440	1.000000	0.000030	0.000020	0.000011	-5.785461	-75.623226	-0.803743
26698	9.549482	-0.171110	2.420574	0.022518	0.074322	0.039979	1.000000	0.000024	0.000031	0.000019	-5.811136	-75.624080	-0.805212
26699	9.545845	-0.205511	2.424608	0.013870	0.040986	0.038315	1.000000	0.000043	-0.000003	0.000026	-5.820799	-75.626047	-0.792273
26700	9.561357	-0.188798	2.433292	0.012554	0.058290	0.055066	1.000000	0.000031	0.000017	-0.000001	-5.809970	-75.617330	-0.803106
26701	9.561214	-0.188936	2.433843	0.012229	0.058423	0.055065	1.000000	0.000010	0.000039	0.000025	-5.821297	-75.614455	-0.792424
26702	9.557513	-0.223340	2.438116	0.003308	0.025365	0.053401	1.000000	0.000044	0.000014	0.000016	-5.832426	-75.616284	-0.794617
26703	9.547962	-0.192342	2.394549	0.046322	0.051368	0.032598	1.000000	0.000022	0.000016	0.000009	-5.836412	-75.616244	-0.790152
26704	9.548913	-0.172108	2.422746	0.021661	0.074966	0.039976	1.000000	0.000030	0.000022	0.000023	-5.844928	-75.616107	-0.784605
26705	9.545253	-0.206553	2.426846	0.013001	0.041639	0.038313	1.000000	0.000035	0.000012	0.000026	-5.855122	-75.616294	-0.772199
26706	9.559668	-0.210443	2.407891	0.035544	0.035968	0.047684	1.000000	0.000019	0.000022	0.000013	-5.863358	-75.609109	-0.774526
26707	9.559557	-0.210606	2.408319	0.035225	0.036107	0.047685	1.000000	0.000019	0.000022	0.000013	-5.869271	-75.608324	-0.768500
26708	9.574999	-0.194058	2.417274	0.032552	0.053903	0.064433	1.000000	0.000029	0.000022	0.000023	-5.879817	-75.606937	-0.768546
26709	9.562901	-0.176874	2.405425	0.043035	0.069910	0.049346	1.000000	0.000038	0.000023	0.000013	-5.883277	-75.606023	-0.762782
26710	9.586763	-0.211722	2.430402	0.020573	0.038275	0.079523	1.000000	0.000032	0.000016	0.000019	-5.889154	-75.608988	-0.758968
26711	9.560174	-0.190892	2.437773	0.009302	0.060182	0.055058	1.000000	0.000019	0.000022	0.000013	-5.895130	-75.608212	-0.752937
26712	9.544513	-0.207894	2.429642	0.010563	0.042827	0.038311	1.000000	0.000021	0.000018	0.000021	-5.906442	-75.612859	-0.749730
26713	9.548000	-0.174008	2.426208	0.018603	0.076429	0.039971	1.000000	0.000032	0.000016	0.000019	-5.913542	-75.612721	-0.740953
26714	9.544359	-0.208295	2.430213	0.009140	0.043329	0.038310	1.000000	0.000027	0.000007	0.000013	-5.923979	-75.618295	-0.743108
26715	9.556242	-0.225784	2.442868	-0.002008	0.027620	0.053395	1.000000	0.000035	0.000029	0.000017	-5.929411	-75.616739	-0.735773
26716	9.574190	-0.195397	2.420367	0.026850	0.054987	0.064445	1.000000	0.000025	0.000029	0.000007	-5.923981	-75.620682	-0.733606
26717	9.546532	-0.195085	2.400023	0.039782	0.053393	0.032616	1.000000	0.000021	0.000021	0.000032	-5.938396	-75.619914	-0.718716
26718	9.573972	-0.196031	2.421178	0.025013	0.055212	0.064448	1.000000	0.000024	0.000013	0.000017	-5.944026	-75.627070	-0.716784
26719	9.528267	-0.226053	2.423703	0.007821	0.026076	0.021567	1.000000	0.000022	0.000016	0.000009	-5.948265	-75.627117	-0.712295
26720	9.547304	-0.175325	2.428848	0.012797	0.077428	0.039973	1.000000	0.000038	0.000025	0.000024	-5.960476	-75.629674	-0.712689
26721	9.559173	-0.192809	2.441545	0.001621	0.061726	0.055053	1.000000	0.000033	0.000014	0.000007	-5.962596	-75.630031	-0.709100
26722	9.558032	-0.213315	2.414127	0.025112	0.038247	0.047708	1.000000	0.000027	0.000025	0.000015	-5.965810	-75.631028	-0.709320
26723	9.558952	-0.193031	2.442394	0.000583	0.061920	0.055052	1.000000	0.000019	0.000022	0.000013	-5.971960	-75.630393	-0.703276
26724	9.555258	-0.227402	2.446563	-0.008383	0.028040	0.053390	1.000000	0.000043	0.000016	0.000028	-5.968421	-75.631520	-0.696179
26725	9.545730	-0.196653	2.403080	0.034686	0.053967	0.032632	1.000000	0.000016	0.000028	0.000017	-5.976367	-75.630183	-0.688610
26726	9.573125	-0.197390	2.424415	0.021051	0.056173	0.064452	1.000000	0.000038	0.000023	0.000013	-5.987391	-75.629580	-0.692789
26727	9.545502	-0.196939	2.403964	0.033989	0.054567	0.032632	1.000000	0.000032	0.000016	0.000019	-5.994652	-75.629560	-0.684011
26728	9.560955	-0.180343	2.412892	0.030443	0.071790	0.049379	1.000000	0.000027	0.000025	0.000015	-5.987709	-75.632849	-0.679784
26729	9.542706	-0.210946	2.436469	-0.000044	0.044420	0.038309	1.000000	0.000027	0.000025	0.000015	-5.993515	-75.631825	-0.673133
26730	9.572633	-0.197935	2.426312	0.018381	0.055646	0.064460	1.000000	0.000041	0.000036	0.000011	-5.981240	-75.632585	-0.675292
26731	9.544998	-0.197594	2.405912	0.031321	0.054040	0.032643	1.000000	0.000037	0.000009	0.000034	-5.994929	-75.633235	-0.659249
26732	9.542349	-0.211626	2.437805	-0.001213	0.044003	0.038311	1.000000	-0.000001	0.000021	0.000014	-5.997376	-75.630409	-0.659797
26733	9.573358	-0.178241	2.455270	-0.006453	0.079353	0.071793	1.000000	0.000038	0.000023	0.000013	-6.000961	-75.629678	-0.654091
26734	9.559195	-0.201962	2.387888	0.051789	0.047322	0.042062	1.000000	0.000024	0.000031	0.000019	-5.985332	-75.631379	-0.647790
26735	9.545574	-0.177967	2.435448	0.005514	0.076911	0.039983	1.000000	0.000030	0.000020	0.000011	-5.989146	-75.631080	-0.642764
26736	9.571948	-0.199122	2.428916	0.015419	0.054757	0.064470	1.000000	0.000019	0.000022	0.000013	-5.982656	-75.634085	-0.641455
26737	9.545339	-0.178234	2.436349	0.004177	0.076673	0.039986	1.000000	0.000035	0.000029	0.000017	-5.987949	-75.632680	-0.634262
26738	9.583684	-0.216827	2.442071	0.004113	0.039170	0.079540	1.000000	0.000030	0.000003	0.000020	-5.996362	-75.632715	-0.636795
26739	9.544137	-0.199097	2.409200	0.027914	0.053408	0.032657	1.000000	0.000035	0.000029	0.000017	-6.001679	-75.631300	-0.629608
26740	9.571518	-0.200008	2.430540	0.014726	0.055155	0.064469	1.000000	0.000021	0.000021	0.000032	-6.012703	-75.627925	-0.625122
26741	9.544941	-0.179139	2.437841	0.003501	0.077077	0.039983	1.000000	0.000031	0.000017	-0.000001	-6.011416	-75.628010	-0.625330
26742	9.558342	-0.203377	2.391178	0.049602	0.047034	0.042074	1.000000	0.000029	0.000022	0.000023	-6.003429	-75.624033	-0.621992
26743	9.559281	-0.183035	2.419313	0.025074	0.070705	0.049402	1.000000	0.000033	0.000014	0.000007	-6.005338	-75.624416	-0.618576
26744	9.571157	-0.200473	2.431921	0.012670	0.054665	0.064475	1.000000	0.000024	0.000013	0.000017	-6.004530	-75.631768	-0.613856
26745	9.529011	-0.196370	2.430733	0.003898	0.058985	0.023245	1.000000	0.000035	0.000029	0.000017	-6.009779	-75.630353	-0.606723
26746	9.543443	-0.200203	2.411857	0.023839	0.052826	0.032671	1.000000	0.000035	0.000010	0.000015	-6.005925	-75.639426	-0.604245
26747	9.558892	-0.183540	2.420812	0.021022	0.070563	0.049413	1.000000	0.000022	0.000035	0.000011	-6.010060	-75.637441	-0.599877
26748	9.552560	-0.231409	2.456704	-0.021205	0.027285	0.053373	1.000000	0.000035	0.000010	0.000015	-6.013615	-75.643306	-0.598007
26749	9.544156	-0.180022	2.440847	-0.002296	0.076716	0.039986	1.000000	0.000038	0.000023	0.000013	-6.017025	-75.642665	-0.592436
26750	9.543038	-0.200754	2.413413	0.021355	0.053175	0.032675	1.000000	0.000015	0.000011	0.000027	-6.026399	-75.644189	-0.590353
26751	9.570442	-0.201621	2.434641	0.007664	0.055073	0.064478	1.000000	0.000027	0.000025	0.000015	-6.031982	-75.643258	-0.583886
26752	9.542821	-0.201207	2.414234	0.020439	0.053552	0.032675	1.000000	0.000019	0.000022	0.000013	-6.040311	-75.643913	-0.590736
26753	9.554635	-0.218711	2.427054	0.009194	0.037855	0.047737	1.000000	0.000027	0.000025	0.000015	-6.045932	-75.642986	-0.584270
26754	9.542602	-0.201545	2.415070	0.020604	0.053395	0.032675	1.000000	0.000024	0.000013	0.000017	-6.043157	-75.638211	-0.584744
26755	9.555484	-0.198598	2.455483	-0.014804	0.061248	0.055045	1.000000	0.000032	0.000016	0.000019	-6.050175	-75.638282	-0.576186
26756	9.556995	-0.205621	2.396364	0.040893	0.047490	0.042112	1.000000	0.000035	0.000010	0.000015	-6.049637	-75.643177	-0.574934
26757	9.569853	-0.202650	2.436867	0.005478	0.055345	0.064477	1.000000	0.000016	0.000028	0.000017	-6.057392	-75.641948	-0.567599
26758	9.572335	-0.189185	2.405745	0.036620	0.065004	0.058859	1.000000	0.000038	0.000023	0.000013	-6.051864	-75.647617	-0.565663
26759	9.527563	-0.198614	2.436219	-0.004728	0.059440	0.023242	1.000000	0.000027	0.000025	0.000015	-6.057437	-75.646711	-0.559246
26760	9.572085	-0.189450	2.406720	0.035576	0.065270	0.058861	1.000000	0.000027	0.000025	0.000015	-6.062826	-75.647630	-0.562324
26761	9.571957	-0.189607	2.407217	0.035204	0.065411	0.058862	1.000000	0.000027	0.000025	0.000015	-6.068423	-75.646732	-0.555912
26762	9.584789	-0.186556	2.447791	-0.000332	0.072954	0.081217	1.000000	0.000030	0.000020	0.000011	-6.064607	-75.647188	-0.561321
26763	9.529703	-0.185531	2.406434	0.025982	0.069554	0.017627	1.000000	0.000019	0.000022	0.000013	-6.070518	-75.646707	-0.555564
26764	9.569020	-0.203558	2.440063	0.000179	0.055459	0.064478	1.000000	0.000022	0.000016	0.000009	-6.070259	-75.653909	-0.560741
26765	9.545077	-0.169168	2.415673	0.021599	0.087262	0.034368	1.000000	0.000021	0.000021	0.000032	-6.084546	-75.653381	-0.546126
26766	9.568836	-0.204165	2.440731	-0.001122	0.055690	0.064477	1.000000	0.000035	0.000010	0.000015	-6.088405	-75.657472	-0.549679
26767	9.556829	-0.186905	2.428686	0.009402	0.071660	0.049423	1.000000	0.000038	0.000023	0.000013	-6.091849	-75.656916	-0.544203
26768	9.553067	-0.221129	2.433000	0.000534	0.037896	0.047741	1.000000	0.000019	0.000022	0.000013	-6.086641	-75.656624	-0.548000
26769	9.586710	-0.174141	2.418852	0.027868	0.083106	0.075614	1.000000	0.000027	0.000025	0.000015	-6.092218	-75.655773	-0.541643
26770	9.538296	-0.217723	2.453082	-0.021241	0.043905	0.038289	1.000000	0.000024	0.000013	0.000017	-6.093972	-75.652351	-0.547430
26771	9.541838	-0.183784	2.449614	-0.013151	0.077476	0.039972	1.000000	0.000035	0.000029	0.000017	-6.099217	-75.651065	-0.540455
26772	9.558911	-0.174043	2.399184	0.040070	0.081265	0.043830	1.000000	0.000022	0.000016	0.000009	-6.097849	-75.655563	-0.547637
26773	9.540595	-0.204572	2.422732	0.009519	0.053953	0.032689	1.000000	0.000016	0.000028	0.000017	-6.105583	-75.654417	-0.540409
26774	9.556032	-0.188016	2.431736	0.006967	0.071222	0.049428	1.000000	0.000049	0.000023	0.000022	-6.100761	-75.652139	-0.540170
26775	9.544004	-0.170850	2.419788	0.017507	0.087183	0.034377	1.000000	0.000019	0.000022	0.000013	-6.106631	-75.651694	-0.534504
26776	9.554789	-0.208938	2.404861	0.028861	0.047493	0.042155	1.000000	0.000029	0.000022	0.000023	-6.105149	-75.659822	-0.531173
26777	9.555704	-0.188592	2.432980	0.004332	0.071214	0.049429	1.000000	0.000022	0.000016	0.000009	-6.109161	-75.660126	-0.527062
26778	9.551978	-0.222844	2.437117	-0.004254	0.037807	0.047740	1.000000	0.000016	0.000009	0.000015	-6.114050	-75.659586	-0.532973
26779	9.567448	-0.206365	2.445984	-0.007082	0.055553	0.064475	1.000000	0.000026	0.000028	0.000026	-6.124682	-75.658361	-0.521497
26780	9.539871	-0.206041	2.425458	0.005346	0.053829	0.032693	1.000000	0.000035	0.000010	0.000015	-6.127979	-75.662574	-0.524160
26781	9.585480	-0.176337	2.423564	0.021769	0.083194	0.075629	1.000000	0.000038	0.000023	0.000013	-6.131362	-75.662054	-0.518799
26782	9.554228	-0.209993	2.406998	0.025858	0.048225	0.042159	1.000000	0.000019	0.000022	0.000013	-6.139901	-75.664129	-0.528117
26783	9.539549	-0.206390	2.426694	0.003781	0.054363	0.032691	1.000000	0.000027	0.000025	0.000015	-6.145480	-75.663324	-0.521859
26784	9.585125	-0.176829	2.424932	0.020009	0.083386	0.075631	1.000000	0.000029	0.000022	0.000023	-6.146353	-75.663979	-0.519783
26785	9.551220	-0.224122	2.439970	-0.008138	0.038496	0.047735	1.000000	0.000030	0.000020	0.000011	-6.150087	-75.663888	-0.515079
26786	9.569326	-0.193886	2.417314	0.021253	0.065687	0.058900	1.000000	0.000035	0.000029	0.000017	-6.146556	-75.665074	-0.517451
26787	9.553654	-0.210965	2.409187	0.023300	0.048217	0.042166	1.000000	0.000037	0.000009	0.000034	-6.160092	-75.665934	-0.501761
26788	9.557228	-0.177101	2.405655	0.031922	0.081524	0.043858	1.000000	0.000025	0.000029	0.000007	-6.156670	-75.661934	-0.510116
26789	9.569014	-0.194598	2.418492	0.020584	0.065855	0.058900	1.000000	0.000013	0.000015	0.000019	-6.166144	-75.662274	-0.501515
26790	9.550670	-0.225160	2.442024	-0.010386	0.038505	0.047733	1.000000	0.000027	0.000025	0.000015	-6.169751	-75.663711	-0.502513
26791	9.571458	-0.181489	2.387710	0.052064	0.075848	0.053337	1.000000	0.000029	0.000022	0.000023	-6.178581	-75.663229	-0.492654
26792	9.538530	-0.208266	2.430538	-0.000330	0.054104	0.032693	1.000000	0.000027	0.000025	0.000015	-6.172633	-75.663085	-0.494448
26793	9.569574	-0.174900	2.447915	-0.005588	0.089464	0.066158	1.000000	0.000024	0.000013	0.000017	-6.179935	-75.663731	-0.486780
26794	9.568516	-0.195725	2.420370	0.017018	0.065636	0.058908	1.000000	0.000018	0.000006	0.000023	-6.182503	-75.671613	-0.484075
26795	9.540949	-0.195390	2.399845	0.030019	0.063968	0.027138	1.000000	0.000021	0.000035	0.000011	-6.186571	-75.669823	-0.480061
26796	9.553729	-0.192166	2.440443	-0.006182	0.071561	0.049426	1.000000	0.000044	0.000011	0.000005	-6.177557	-75.675028	-0.486867
26797	9.568228	-0.196038	2.421484	0.015097	0.065685	0.058911	1.000000	0.000013	0.000015	0.000019	-6.186991	-75.675424	-0.478330
26798	9.540671	-0.195771	2.400923	0.028398	0.063621	0.027145	1.000000	0.000029	0.000022	0.000023	-6.186584	-75.673247	-0.479142
26799	9.553425	-0.192812	2.441584	-0.007076	0.071582	0.049425	1.000000	0.000024	0.000031	0.000019	-6.193891	-75.671781	-0.471498
26800	9.567866	-0.196869	2.422847	0.013535	0.065318	0.058916	1.000000	0.000021	0.000018	0.000021	-6.193834	-75.675634	-0.472546
26801	9.555885	-0.179831	2.410782	0.024107	0.081255	0.043882	1.000000	0.000021	0.000018	0.000021	-6.202902	-75.675622	-0.463417
26802	9.537541	-0.210393	2.434233	-0.006987	0.053742	0.032692	1.000000	0.000024	0.000013	0.000017	-6.203996	-75.679167	-0.464876
26803	9.566562	-0.218134	2.396259	0.035955	0.041833	0.051678	1.000000	0.000021	0.000035	0.000011	-6.208001	-75.677416	-0.460942
26804	9.555556	-0.180572	2.412031	0.023064	0.081305	0.043884	1.000000	0.000034	0.000015	0.000038	-6.221285	-75.673988	-0.459038
26805	9.555456	-0.180879	2.412405	0.022667	0.081441	0.043884	1.000000	0.000038	0.000023	0.000013	-6.224593	-75.673540	-0.453880
26806	9.579126	-0.215741	2.437591	-0.000211	0.049626	0.073949	1.000000	0.000027	0.000009	0.000024	-6.226574	-75.677520	-0.449448
26807	9.539727	-0.198115	2.404477	0.023787	0.063741	0.027156	1.000000	0.000032	0.000016	0.000019	-6.233477	-75.677810	-0.441267
26808	9.552522	-0.195125	2.444929	-0.010719	0.071497	0.049422	1.000000	0.000013	0.000015	0.000019	-6.237621	-75.672583	-0.448885
26809	9.567007	-0.199108	2.426054	0.010551	0.065596	0.058918	1.000000	0.000030	0.000020	0.000011	-6.241243	-75.672537	-0.444399
26810	9.566907	-0.199173	2.426441	0.010451	0.065405	0.058919	1.000000	0.000030	0.000020	0.000011	-6.237258	-75.670786	-0.453117
26811	9.551208	-0.216164	2.418409	0.012479	0.047927	0.042187	1.000000	0.000026	0.000028	0.000026	-6.247795	-75.669622	-0.441924
26812	9.554783	-0.182282	2.414962	0.020771	0.081071	0.043891	1.000000	0.000038	0.000023	0.000013	-6.241820	-75.668444	-0.445107
26813	9.551960	-0.195975	2.447057	-0.012280	0.071459	0.049421	1.000000	0.000029	0.000022	0.000022	-6.250512	-75.667987	-0.435466
26814	9.540000	-0.178890	2.434952	-0.002930	0.086644	0.034397	1.000000	0.000024	0.000013	0.000017	-6.240071	-75.675848	-0.435087
26815	9.566339	-0.200207	2.428596	0.007338	0.064944	0.058925	1.000000	0.000035	0.000029	0.000017	-6.245102	-75.674694	-0.428513
26816	9.539755	-0.179215	2.435887	-0.003734	0.086488	0.034398	1.000000	0.000027	0.000025	0.000015	-6.240549	-75.673998	-0.433857
26817	9.566078	-0.200579	2.429592	0.006530	0.064786	0.058926	1.000000	0.000029	0.000022	0.000022	-6.249168	-75.673569	-0.424265
26818	9.565949	-0.200733	2.430089	-0.000638	-0.002012	0.059141	1.000000	0.000024	0.000029	0.000007	-4.670201	-75.703797	-2.316056
26819	9.554002	-0.183539	2.417956	0.010045	0.013666	0.044232	1.000000	0.000030	0.000003	0.000020	-4.672101	-75.705691	-2.313857
26820	9.551183	-0.197404	2.449974	-0.023101	0.003940	0.049660	1.000000	0.000023	0.000033	0.000030	-4.677804	-75.703985	-2.307365
26821	9.553763	-0.184147	2.418853	0.009199	0.013370	0.044233	1.000000	0.000008	0.000022	0.000004	-4.674038	-75.703878	-2.313562
26822	9.565517	-0.201587	2.431716	-0.002351	-0.002602	0.059141	1.000000	0.000041	0.000020	0.000020	-4.673782	-75.703943	-2.311646
26823	9.535243	-0.214655	2.442847	-0.022062	-0.014005	0.032807	1.000000	0.000038	0.000023	0.000013	-4.670507	-75.703642	-2.313773
26824	9.565283	-0.201817	2.432616	-0.003213	-0.002896	0.059140	1.000000	0.000027	0.000025	0.000015	-4.669191	-75.703077	-2.312054
26825	9.580748	-0.185157	2.441551	-0.005970	0.014475	0.075990	1.000000	0.000030	0.000020	0.000011	-4.666202	-75.703187	-2.314860
26826	9.549488	-0.218937	2.424941	-0.001749	-0.020704	0.042289	1.000000	0.000032	0.000018	0.000030	-4.671347	-75.703317	-2.300160
26827	9.550343	-0.198602	2.453150	-0.026116	0.002920	0.049652	1.000000	0.000021	0.000035	0.000011	-4.668909	-75.701689	-2.303396
26828	9.567582	-0.189075	2.402608	0.027792	0.006080	0.053725	1.000000	0.000033	-0.000003	0.000016	-4.668656	-75.704288	-2.296758
26829	9.551948	-0.206067	2.394313	0.029696	-0.011576	0.036875	1.000000	0.000029	0.000022	0.000022	-4.670820	-75.704033	-2.294312
26830	9.552812	-0.185733	2.422484	0.005295	0.012043	0.044238	1.000000	0.000016	0.000028	0.000017	-4.671743	-75.703344	-2.286765
26831	9.561816	-0.216657	2.467025	-0.038988	-0.013486	0.064548	1.000000	0.000033	0.000014	0.000007	-4.666851	-75.704154	-2.291180
26832	9.579053	-0.207024	2.416533	0.014924	-0.010327	0.068630	1.000000	0.000038	0.000023	0.000013	-4.663349	-75.703838	-2.290218
26833	9.522313	-0.198943	2.434455	-0.015258	0.000351	0.017895	1.000000	0.000016	0.000028	0.000017	-4.664448	-75.702957	-2.290489
26834	9.552380	-0.186305	2.424145	0.003597	0.011457	0.044239	1.000000	0.000035	0.000012	0.000026	-4.667836	-75.703693	-2.293151
26835	9.578682	-0.207559	2.417959	0.013641	-0.010764	0.068631	1.000000	0.000017	0.000042	-0.000004	-4.658890	-75.701392	-2.303680
26836	9.552100	-0.186591	2.425226	0.002743	0.011164	0.044240	1.000000	0.000034	0.000015	0.000038	-4.667347	-75.701799	-2.290804
26837	9.550998	-0.207493	2.397975	0.026249	-0.012752	0.036884	1.000000	0.000024	0.000029	0.000007	-4.663004	-75.700872	-2.295651
26838	9.563703	-0.204191	2.438624	-0.009242	-0.004945	0.059136	1.000000	0.000049	0.000021	0.000010	-4.657375	-75.700832	-2.301019
26839	9.537180	-0.183101	2.445663	-0.020133	0.016997	0.034743	1.000000	0.000024	0.000013	0.000017	-4.657922	-75.701689	-2.300862
26840	9.536087	-0.203895	2.418394	0.003389	-0.006934	0.027388	1.000000	0.000035	0.000029	0.000017	-4.656299	-75.700566	-2.300480
26841	9.551546	-0.187232	2.427357	0.000633	0.010434	0.044241	1.000000	0.000030	0.000020	0.000011	-4.653306	-75.700676	-2.303291
26842	9.551416	-0.187270	2.427866	0.000206	0.010281	0.044241	1.000000	0.000033	0.000032	0.000009	-4.648413	-75.699322	-2.299191
26843	9.563174	-0.204738	2.440654	-0.011362	-0.005678	0.059133	1.000000	0.000043	-0.000003	0.000026	-4.651376	-75.701843	-2.294282
26844	9.551237	-0.187661	2.428538	-0.000655	0.009987	0.044242	1.000000	0.000018	0.000041	0.000015	-4.650621	-75.699548	-2.289097
26845	9.550097	-0.208648	2.401462	0.022847	-0.013933	0.036891	1.000000	0.000021	0.000021	0.000032	-4.658219	-75.699339	-2.282086
26846	9.536387	-0.184402	2.448652	-0.023124	0.015976	0.034738	1.000000	0.000033	0.000014	0.000007	-4.653296	-75.700266	-2.293828
26847	9.578305	-0.188992	2.450824	-0.015433	0.011255	0.075984	1.000000	0.000018	0.000024	0.000025	-4.657641	-75.699720	-2.290462
26848	9.565364	-0.192575	2.411146	0.019238	0.003130	0.053747	1.000000	0.000027	0.000025	0.000015	-4.656384	-75.698972	-2.302390
26849	9.550633	-0.188864	2.430822	-0.002782	0.009269	0.044242	1.000000	0.000027	0.000025	0.000015	-4.655290	-75.698382	-2.303598
26850	9.576943	-0.210090	2.424617	0.007246	-0.012978	0.068635	1.000000	0.000027	0.000023	0.000003	-4.648816	-75.698035	-2.312080
26851	9.550426	-0.189102	2.431615	-0.003616	0.008975	0.044242	1.000000	0.000037	0.000009	0.000034	-4.655580	-75.699154	-2.303961
26852	9.562136	-0.206884	2.444534	-0.015210	-0.006984	0.059127	1.000000	0.000023	0.000034	0.000030	-4.661376	-75.697542	-2.297845
26853	9.564788	-0.193707	2.413339	0.017110	0.002396	0.053751	1.000000	0.000022	0.000016	0.000009	-4.658669	-75.698062	-2.301336
26854	9.564690	-0.193886	2.413712	0.016691	0.002244	0.053752	1.000000	0.000029	0.000022	0.000022	-4.660660	-75.697756	-2.303131
26855	9.561791	-0.207615	2.445823	-0.016489	-0.007414	0.059125	1.000000	0.000029	0.000022	0.000022	-4.662816	-75.697501	-2.300697
26856	9.537071	-0.193805	2.393524	0.029310	0.000252	0.022016	1.000000	0.000022	0.000016	0.000009	-4.659960	-75.698100	-2.301446
26857	9.591771	-0.195127	2.435937	0.001903	0.003511	0.085491	1.000000	0.000026	0.000028	0.000026	-4.664013	-75.697144	-2.297410
26858	9.548680	-0.211703	2.406822	0.017291	-0.015850	0.036899	1.000000	0.000027	0.000009	0.000024	-4.667729	-75.698287	-2.307054
26859	9.533957	-0.208045	2.426422	-0.004720	-0.009691	0.027385	1.000000	0.000021	0.000035	0.000011	-4.665276	-75.696659	-2.310309
26860	9.560240	-0.229442	2.420316	0.005259	-0.031946	0.051780	1.000000	0.000029	0.000022	0.000022	-4.667252	-75.696411	-2.304608
26861	9.579482	-0.178766	2.425212	0.011370	0.018732	0.070612	1.000000	0.000038	0.000023	0.000013	-4.663969	-75.696111	-2.306748
26862	9.560014	-0.229676	2.421185	0.004408	-0.032237	0.051779	1.000000	0.000030	0.000020	0.000011	-4.660866	-75.696132	-2.320464
26863	9.575493	-0.213084	2.430077	0.001664	-0.014871	0.068635	1.000000	0.000029	0.000022	0.000022	-4.663019	-75.695877	-2.318035
26864	9.548969	-0.192059	2.437099	-0.009176	0.007095	0.044240	1.000000	0.000022	0.000016	0.000009	-4.660209	-75.696489	-2.316391
26865	9.548879	-0.192240	2.437437	-0.009603	0.006953	0.044239	1.000000	0.000021	0.000018	0.000021	-4.662649	-75.696645	-2.314638
26866	9.551579	-0.179044	2.406144	0.022725	0.016295	0.038884	1.000000	0.000019	0.000022	0.000013	-4.661716	-75.696502	-2.313695
26867	9.575069	-0.213941	2.431673	-0.000076	-0.015449	0.068634	1.000000	0.000026	0.000028	0.000026	-4.665765	-75.695546	-2.309665
26868	9.574924	-0.214140	2.432226	-0.000505	-0.015594	0.068634	1.000000	0.000024	0.000029	0.000007	-4.661353	-75.694596	-2.323592
26869	9.535594	-0.196433	2.399190	0.023763	-0.001649	0.022031	1.000000	0.000029	0.000022	0.000022	-4.663505	-75.694341	-2.321165
26870	9.578462	-0.180501	2.429109	0.007496	0.017427	0.070618	1.000000	0.000029	0.000022	0.000022	-4.665625	-75.694216	-2.318246
26871	9.548148	-0.193543	2.440197	-0.012193	0.006099	0.044237	1.000000	0.000030	0.000020	0.000011	-4.662628	-75.694327	-2.321064
26872	9.575447	-0.194218	2.461561	-0.026133	0.007664	0.075965	1.000000	0.000032	0.000016	0.000019	-4.662767	-75.694798	-2.319155
26873	9.559765	-0.211228	2.453421	-0.024251	-0.009984	0.059106	1.000000	0.000021	0.000018	0.000021	-4.665205	-75.694953	-2.317405
26874	9.562508	-0.198135	2.422001	0.008097	-0.000662	0.053763	1.000000	0.000027	0.000009	0.000024	-4.668886	-75.696103	-2.317001
26875	9.547774	-0.194452	2.441588	-0.013900	0.005525	0.044235	1.000000	0.000021	0.000035	0.000011	-4.666424	-75.694476	-2.320265
26876	9.550482	-0.181156	2.410336	0.018437	0.014844	0.038895	1.000000	0.000035	0.000010	0.000015	-4.664695	-75.695666	-2.320547
26877	9.563178	-0.178008	2.450772	-0.017071	0.022747	0.061092	1.000000	0.000043	0.000016	0.000028	-4.667916	-75.696038	-2.315403
26878	9.588534	-0.220215	2.416863	0.016725	-0.023366	0.078161	1.000000	0.000021	0.000018	0.000021	-4.670256	-75.696252	-2.313122
26879	9.562034	-0.199356	2.423771	0.005938	-0.001382	0.053764	1.000000	0.000015	0.000011	0.000027	-4.676235	-75.697152	-2.308404
26880	9.561951	-0.199604	2.424077	0.005518	-0.001533	0.053764	1.000000	0.000030	0.000020	0.000011	-4.673014	-75.697211	-2.302712
26881	9.562804	-0.179095	2.452150	-0.018785	0.022166	0.061091	1.000000	0.000038	0.000025	0.000024	-4.674875	-75.696547	-2.299615
26882	9.561712	-0.200060	2.424984	0.004657	-0.001821	0.053765	1.000000	0.000029	0.000022	0.000022	-4.676954	-75.696318	-2.301516
26883	9.549808	-0.182974	2.412867	0.015443	0.013829	0.038902	1.000000	0.000019	0.000022	0.000013	-4.676136	-75.696138	-2.303415
26884	9.561485	-0.200507	2.425842	0.003780	-0.002110	0.053765	1.000000	0.000029	0.000022	0.000022	-4.678151	-75.695998	-2.291131
26885	9.577007	-0.183958	2.434583	0.001041	0.015254	0.070625	1.000000	0.000049	0.000004	0.000020	-4.677584	-75.697775	-2.289187
26886	9.576930	-0.184158	2.434868	0.000596	0.015106	0.070625	1.000000	0.000007	0.000024	0.000015	-4.678799	-75.697385	-2.282863
26887	9.545622	-0.217958	2.418367	0.004793	-0.020048	0.036905	1.000000	0.000029	0.000022	0.000022	-4.680946	-75.697130	-2.280443
26888	9.558266	-0.214865	2.458939	-0.030721	-0.012145	0.059086	1.000000	0.000021	0.000018	0.000021	-4.683228	-75.697255	-2.278064
26889	9.533618	-0.201162	2.406637	0.015159	-0.004546	0.022047	1.000000	0.000027	0.000025	0.000015	-4.682119	-75.696666	-2.279291
26890	9.560896	-0.201949	2.428041	0.001188	-0.002979	0.053765	1.000000	0.000035	0.000012	0.000026	-4.685542	-75.697521	-2.274083
26891	9.548993	-0.184861	2.415947	0.011981	0.012670	0.038908	1.000000	0.000021	0.000035	0.000011	-4.683069	-75.695895	-2.277360
26892	9.575307	-0.206102	2.409746	0.021911	-0.009619	0.063308	1.000000	0.000028	0.000005	0.000001	-4.676378	-75.697685	-2.287272
26893	9.548814	-0.184931	2.416648	0.011151	0.012375	0.038910	1.000000	0.000016	0.000028	0.000017	-4.677449	-75.696803	-2.287578
26894	9.575119	-0.206465	2.410460	0.021059	-0.009914	0.063309	1.000000	0.000035	0.000012	0.000026	-4.680817	-75.697543	-2.286262
26895	9.536824	-0.168153	2.404887	0.021535	0.027872	0.024057	1.000000	0.000035	0.000029	0.000017	-4.679417	-75.696544	-2.286818
26896	9.559277	-0.223620	2.402930	0.022492	-0.027708	0.046449	1.000000	0.000027	0.000025	0.000015	-4.678228	-75.696045	-2.287724
26897	9.557250	-0.216433	2.462748	-0.034584	-0.013426	0.059071	1.000000	0.000027	0.000025	0.000015	-4.677117	-75.695456	-2.288954
26898	9.544369	-0.220030	2.423121	0.000081	-0.021645	0.036903	1.000000	0.000024	0.000031	0.000019	-4.677761	-75.694167	-2.285578
26899	9.548101	-0.186091	2.419377	0.008580	0.011505	0.038913	1.000000	0.000038	0.000004	0.000011	-4.674229	-75.696018	-2.287954
26900	9.559818	-0.203325	2.432168	-0.003098	-0.004426	0.053765	1.000000	0.000030	0.000017	-0.000001	-4.666041	-75.696577	-2.295949
26901	9.547932	-0.186306	2.420026	0.007712	0.011219	0.038914	1.000000	0.000028	0.000026	0.000045	-4.678478	-75.695589	-2.283051
26902	9.544974	-0.200021	2.452062	-0.025516	0.001652	0.044213	1.000000	0.000016	0.000007	0.000003	-4.674123	-75.697288	-2.294480
26903	9.588805	-0.211941	2.394972	0.038700	-0.017580	0.072867	1.000000	0.000027	0.000025	0.000015	-4.673009	-75.696699	-2.295713
26904	9.547647	-0.186844	2.421109	0.006416	0.010786	0.038916	1.000000	0.000030	0.000020	0.000011	-4.669914	-75.696836	-2.297787
26905	9.547526	-0.187063	2.421571	0.005989	0.010644	0.038916	1.000000	0.000026	0.000028	0.000026	-4.673947	-75.695880	-2.293779
26906	9.532749	-0.183195	2.441233	-0.016006	0.016865	0.029363	1.000000	0.000025	0.000027	-0.000004	-4.664354	-75.695442	-2.297158
26907	9.574660	-0.187819	2.443502	-0.008441	0.012077	0.070626	1.000000	0.000037	0.000009	0.000034	-4.671116	-75.696560	-2.289051
26908	9.532559	-0.183792	2.441931	-0.016855	0.016579	0.029362	1.000000	0.000007	0.000027	0.000027	-4.677503	-75.695706	-2.288176
26909	9.558821	-0.205302	2.435919	-0.006990	-0.005715	0.053762	1.000000	0.000024	0.000029	0.000007	-4.673132	-75.694782	-2.293056
26910	9.558697	-0.205406	2.436396	-0.007431	-0.005860	0.053761	1.000000	0.000040	0.000019	0.000020	-4.673013	-75.694895	-2.291104
26911	9.559544	-0.184855	2.464402	-0.031706	0.017875	0.061066	1.000000	0.000019	0.000022	0.000013	-4.672186	-75.694715	-2.293014
26912	9.546732	-0.188456	2.424590	0.002964	0.009634	0.038919	1.000000	0.000032	0.000016	0.000018	-4.672333	-75.695187	-2.293527
26913	9.558367	-0.205977	2.437642	-0.008722	-0.006289	0.053760	1.000000	0.000024	0.000031	0.000019	-4.673107	-75.693896	-2.293169
26914	9.573829	-0.189478	2.446629	-0.011448	0.011069	0.070624	1.000000	0.000029	0.000022	0.000022	-4.675153	-75.693618	-2.296678
26915	9.534620	-0.171879	2.413351	0.012951	0.024982	0.024080	1.000000	0.000032	0.000016	0.000018	-4.675402	-75.694066	-2.295865
26916	9.573676	-0.189992	2.447186	-0.012302	0.010782	0.070623	1.000000	0.000010	0.000002	0.000021	-4.679656	-75.696061	-2.296874
26917	9.530654	-0.206418	2.417907	0.003135	-0.008589	0.022055	1.000000	0.000038	0.000023	0.000013	-4.676359	-75.695765	-2.299034
26918	9.570590	-0.203678	2.479617	-0.045970	0.001100	0.075896	1.000000	0.000007	0.000024	0.000015	-4.677569	-75.695330	-2.295486
26919	9.576280	-0.177250	2.416573	0.019210	0.019740	0.065350	1.000000	0.000032	0.000016	0.000018	-4.677818	-75.695778	-2.294674
26920	9.572335	-0.211621	2.421045	0.009801	-0.013687	0.063322	1.000000	0.000032	0.000018	0.000030	-4.683097	-75.695912	-2.285906
26921	9.541953	-0.224621	2.432199	-0.009862	-0.024942	0.036891	1.000000	0.000033	0.000032	0.000009	-4.678432	-75.694580	-2.290120
26922	9.545694	-0.190783	2.428493	-0.001290	0.008185	0.038920	1.000000	0.000015	0.000011	0.000027	-4.684214	-75.695323	-2.292458
26923	9.557333	-0.208371	2.441490	-0.012994	-0.007731	0.053754	1.000000	0.000035	0.000029	0.000017	-4.682805	-75.694326	-2.293027
26924	9.545457	-0.191287	2.429383	-0.002147	0.007898	0.038920	1.000000	0.000029	0.000022	0.000022	-4.684840	-75.694089	-2.291985
26925	9.556121	-0.229598	2.414889	0.009970	-0.031917	0.046457	1.000000	0.000016	0.000028	0.000017	-4.685896	-75.693207	-2.292307
26926	9.559891	-0.195784	2.411089	0.018512	0.001213	0.048491	1.000000	0.000038	0.000007	0.000022	-4.687374	-75.694777	-2.278287
26927	9.571562	-0.213235	2.423961	0.006803	-0.014705	0.063323	1.000000	0.000030	0.000020	0.000011	-4.684364	-75.694891	-2.281123
26928	9.571454	-0.213410	2.424371	0.006370	-0.014852	0.063323	1.000000	0.000029	0.000022	0.000022	-4.686397	-75.694655	-2.279846
26929	9.528415	-0.229993	2.395159	0.021820	-0.034224	0.014761	1.000000	0.000015	0.000011	0.000027	-4.692368	-75.695553	-2.275143
26930	9.559527	-0.196651	2.412461	0.016793	0.000633	0.048494	1.000000	0.000036	0.000027	0.000005	-4.685775	-75.694944	-2.284681
26931	9.598480	-0.214770	2.446617	-0.008508	-0.013552	0.095018	1.000000	0.000031	0.000021	0.000042	-4.696311	-75.694656	-2.273395
26932	9.559274	-0.197266	2.413410	0.015932	0.000344	0.048496	1.000000	0.000024	0.000029	0.000007	-4.691805	-75.693758	-2.271260
26933	9.556253	-0.210859	2.445498	-0.017310	-0.009167	0.053747	1.000000	0.000018	0.000008	0.000034	-4.701033	-75.694991	-2.262911
26934	9.547332	-0.180664	2.401569	0.026369	0.015825	0.033671	1.000000	0.000032	0.000035	0.000020	-4.701462	-75.693287	-2.267034
26935	9.555983	-0.211452	2.446502	-0.018168	-0.009449	0.053745	1.000000	0.000027	0.000025	0.000015	-4.700337	-75.692699	-2.268282
26936	9.574398	-0.181554	2.423698	0.011931	0.017266	0.065366	1.000000	0.000019	0.000022	0.000013	-4.699454	-75.692497	-2.275755
26937	9.543087	-0.215249	2.407146	0.016088	-0.017879	0.031631	1.000000	0.000032	0.000016	0.000018	-4.699700	-75.692946	-2.274948
26938	9.559518	-0.177947	2.443641	-0.010465	0.023394	0.055786	1.000000	0.000024	0.000031	0.000019	-4.700431	-75.691763	-2.268180
26939	9.543789	-0.194923	2.435640	-0.008599	0.005752	0.038918	1.000000	0.000032	0.000016	0.000018	-4.700677	-75.692212	-2.267373
26940	9.545682	-0.202758	2.376702	0.047598	-0.008954	0.026394	1.000000	0.000020	0.000021	0.000032	-4.708168	-75.692055	-2.257601
26941	9.555284	-0.212840	2.449112	-0.020767	-0.010302	0.053739	1.000000	0.000024	0.000029	0.000007	-4.703784	-75.691134	-2.262498
26942	9.558133	-0.199621	2.417732	0.011638	-0.001099	0.048502	1.000000	0.000027	0.000007	0.000013	-4.702329	-75.692624	-2.267161
26943	9.547279	-0.161641	2.432962	-0.001292	0.038445	0.040966	1.000000	0.000038	0.000023	0.000013	-4.699027	-75.692330	-2.269330
26944	9.572607	-0.203829	2.399369	0.032300	-0.007814	0.058089	1.000000	0.000019	0.000022	0.000013	-4.698084	-75.692131	-2.275846
26945	9.557844	-0.199993	2.418844	0.010356	-0.001533	0.048503	1.000000	0.000032	0.000016	0.000018	-4.698329	-75.692580	-2.275040
26946	9.542159	-0.216951	2.410669	0.012238	-0.019183	0.031635	1.000000	0.000024	0.000013	0.000017	-4.698724	-75.693307	-2.281779
26947	9.558590	-0.179572	2.447151	-0.014278	0.022105	0.055785	1.000000	0.000021	0.000035	0.000011	-4.696221	-75.691683	-2.285089
26948	9.557564	-0.200482	2.419909	0.009084	-0.001970	0.048504	1.000000	0.000032	-0.000003	0.000016	-4.696202	-75.694332	-2.285638
26949	9.531127	-0.179390	2.426565	-0.001534	0.020083	0.024099	1.000000	0.000029	0.000022	0.000022	-4.698331	-75.694079	-2.283245
26950	9.584728	-0.201529	2.441600	-0.005382	-0.000520	0.080189	1.000000	0.000021	0.000018	0.000021	-4.700663	-75.694239	-2.280788
26951	9.572909	-0.184462	2.429354	0.005512	0.015098	0.065375	1.000000	0.000019	0.000022	0.000013	-4.699823	-75.694060	-2.282714
26952	9.542524	-0.197483	2.440386	-0.014140	0.003888	0.038913	1.000000	0.000032	0.000018	0.000030	-4.705075	-75.694149	-2.273514
26953	9.572705	-0.185109	2.430110	0.004653	0.014808	0.065376	1.000000	0.000021	0.000018	0.000021	-4.707493	-75.694304	-2.271793
26954	9.541399	-0.218756	2.413513	0.008799	-0.020338	0.031636	1.000000	0.000033	0.000014	0.000007	-4.702496	-75.695105	-2.281430
26955	9.556903	-0.202173	2.422378	0.006086	-0.002981	0.048506	1.000000	0.000026	0.000028	0.000026	-4.706506	-75.694149	-2.277452
26956	9.556773	-0.202504	2.422863	0.005643	-0.003125	0.048507	1.000000	0.000029	0.000022	0.000022	-4.708574	-75.693979	-2.270810
26957	9.556676	-0.202796	2.423224	0.005214	-0.003267	0.048507	1.000000	0.000013	0.000015	0.000019	-4.711281	-75.694543	-2.269762
26958	9.568304	-0.220287	2.436160	-0.006530	-0.019172	0.063316	1.000000	0.000043	0.000014	0.000016	-4.709236	-75.695164	-2.280543
26959	9.557445	-0.182395	2.451409	-0.019405	0.020392	0.055780	1.000000	0.000029	0.000022	0.000022	-4.711361	-75.694910	-2.278154
26960	9.556398	-0.203364	2.424271	0.003929	-0.003701	0.048507	1.000000	0.000030	0.000020	0.000011	-4.708322	-75.695144	-2.276858
26961	9.567979	-0.220694	2.437402	-0.007840	-0.019598	0.063314	1.000000	0.000024	0.000029	0.000007	-4.703928	-75.694224	-2.281765
26962	9.528862	-0.202998	2.404020	0.016698	-0.005732	0.016830	1.000000	0.000046	0.000010	0.000024	-4.705242	-75.695279	-2.285641
26963	9.567760	-0.220990	2.438235	-0.008699	-0.019881	0.063313	1.000000	0.000021	0.000035	0.000011	-4.702729	-75.693655	-2.288963
26964	9.556883	-0.183121	2.453545	-0.021578	0.019690	0.055777	1.000000	0.000026	0.000009	0.000024	-4.706551	-75.694968	-2.284934
26965	9.555818	-0.204305	2.426475	0.001769	-0.004410	0.048508	1.000000	0.000010	0.000039	0.000025	-4.711351	-75.692681	-2.282108
26966	9.528371	-0.204036	2.405876	0.014966	-0.006302	0.016833	1.000000	0.000043	0.000014	0.000016	-4.709363	-75.693437	-2.283293
26967	9.558571	-0.191524	2.395599	0.033755	0.004589	0.043311	1.000000	0.000029	0.000022	0.000022	-4.711486	-75.693183	-2.280908
26968	9.582795	-0.205534	2.448842	-0.013144	-0.003096	0.080182	1.000000	0.000032	0.000016	0.000018	-4.711596	-75.693597	-2.280645
26969	9.529022	-0.183790	2.434489	-0.010079	0.017230	0.024100	1.000000	0.000030	0.000020	0.000011	-4.708578	-75.693713	-2.283494
26970	9.566978	-0.222592	2.441153	-0.011727	-0.020880	0.063308	1.000000	0.000029	0.000022	0.000022	-4.710629	-75.693460	-2.280431
26971	9.528815	-0.184202	2.435267	-0.010932	0.016945	0.024099	1.000000	0.000032	0.000016	0.000018	-4.710869	-75.693910	-2.279633
26972	9.558999	-0.171611	2.425079	0.007862	0.027828	0.050582	1.000000	0.000024	0.000029	0.000007	-4.706434	-75.692970	-2.289707
26973	9.542322	-0.209449	2.389579	0.033472	-0.013785	0.026446	1.000000	0.000020	0.000021	0.000032	-4.713986	-75.692754	-2.282762
26974	9.554859	-0.206230	2.430090	-0.002081	-0.005704	0.048507	1.000000	0.000035	0.000010	0.000015	-4.712263	-75.693898	-2.286621
26975	9.570405	-0.189626	2.438805	-0.004782	0.011652	0.065380	1.000000	0.000032	0.000016	0.000018	-4.712503	-75.694347	-2.285824
26976	9.569366	-0.210557	2.411685	0.018537	-0.012468	0.058120	1.000000	0.000016	0.000026	0.000005	-4.708355	-75.693898	-2.288894
26977	9.558502	-0.172495	2.426973	0.005720	0.027111	0.050585	1.000000	0.000030	0.000020	0.000011	-4.705334	-75.694014	-2.291746
26978	9.554492	-0.206734	2.431487	-0.003826	-0.006272	0.048506	1.000000	0.000026	0.000009	0.000024	-4.709114	-75.695326	-2.283709
26979	9.542724	-0.189824	2.419113	0.007117	0.009331	0.033712	1.000000	0.000040	0.000022	0.000032	-4.714203	-75.694997	-2.277011
26980	9.558242	-0.173194	2.427947	0.004423	0.026681	0.050587	1.000000	0.000030	0.000017	-0.000001	-4.705944	-75.695456	-2.288155
26981	9.568878	-0.211350	2.413550	0.016374	-0.013187	0.058122	1.000000	0.000016	0.000028	0.000017	-4.706973	-75.694575	-2.288509
26982	9.557057	-0.194379	2.401404	0.027312	0.002410	0.043332	1.000000	0.000026	0.000028	0.000026	-4.710854	-75.693672	-2.279879
26983	9.554847	-0.187086	2.461166	-0.029728	0.016994	0.055760	1.000000	0.000029	0.000022	0.000022	-4.712972	-75.693418	-2.277501
26984	9.542149	-0.190878	2.421298	0.004968	0.008610	0.033714	1.000000	0.000024	0.000013	0.000017	-4.713476	-75.694324	-2.278962
26985	9.555833	-0.215990	2.374996	0.049771	-0.022010	0.036081	1.000000	0.000032	0.000016	0.000018	-4.713714	-75.694773	-2.278168
26986	9.569244	-0.191823	2.443183	-0.009537	0.010078	0.065379	1.000000	0.000024	0.000031	0.000019	-4.714365	-75.693468	-2.278920
26987	9.541860	-0.191424	2.422395	0.003689	0.008181	0.033715	1.000000	0.000038	0.000004	0.000011	-4.710846	-75.695325	-2.281292
26988	9.569081	-0.192102	2.443800	-0.010399	0.009789	0.065378	1.000000	0.000029	0.000022	0.000022	-4.712847	-75.695095	-2.274057
26989	9.557313	-0.175113	2.431464	0.000559	0.025388	0.050591	1.000000	0.000013	0.000015	0.000019	-4.715547	-75.695658	-2.273019
26990	9.538581	-0.205356	2.455106	-0.030473	-0.001498	0.038877	1.000000	0.000021	0.000018	0.000021	-4.717889	-75.695883	-2.267150
26991	9.556199	-0.196542	2.404638	0.023438	0.001110	0.043342	1.000000	0.000021	0.000018	0.000021	-4.720297	-75.696038	-2.265444
26992	9.554011	-0.189135	2.464251	-0.033596	0.015711	0.055750	1.000000	0.000032	0.000016	0.000018	-4.720411	-75.696461	-2.263661
26993	9.528724	-0.196437	2.384204	0.036249	-0.000937	0.011684	1.000000	0.000019	0.000022	0.000013	-4.719556	-75.696283	-2.265605
26994	9.541237	-0.193057	2.424718	0.000664	0.007176	0.033717	1.000000	0.000016	0.000009	0.000015	-4.720381	-75.697677	-2.269436
26995	9.570529	-0.201536	2.386954	0.043180	-0.005972	0.052975	1.000000	0.000026	0.000028	0.000026	-4.724374	-75.696720	-2.265480
26996	9.568295	-0.194206	2.446711	-0.013861	0.008648	0.065375	1.000000	0.000029	0.000022	0.000022	-4.726423	-75.696492	-2.266160
26997	9.568178	-0.194375	2.447154	-0.014290	0.008507	0.065374	1.000000	0.000038	0.000023	0.000013	-4.723106	-75.696202	-2.268350
26998	9.567144	-0.215285	2.420071	0.009009	-0.015641	0.058128	1.000000	0.000030	0.000020	0.000011	-4.719993	-75.696378	-2.270816
26999	9.540681	-0.194016	2.426827	-0.001487	0.006462	0.033717	1.000000	0.000019	0.000022	0.000013	-4.719136	-75.696200	-2.272762
27000	9.552210	-0.211446	2.440033	-0.013331	-0.009417	0.048495	1.000000	0.000035	0.000029	0.000016	-4.717655	-75.695281	-2.271270
27001	9.567703	-0.194844	2.448974	-0.016027	0.007936	0.065372	1.000000	0.000019	0.000022	0.000013	-4.716798	-75.695103	-2.273217
27002	9.555001	-0.198640	2.409224	0.018682	-0.000480	0.043352	1.000000	0.000037	0.000025	0.000024	-4.718630	-75.694456	-2.277302
27003	9.566562	-0.216290	2.422282	0.006843	-0.016355	0.058129	1.000000	0.000037	0.000009	0.000034	-4.725392	-75.695571	-2.269214
27004	9.554808	-0.199254	2.409940	0.017815	-0.000765	0.043354	1.000000	0.000024	0.000029	0.000007	-4.720988	-75.694711	-2.273933
27005	9.551616	-0.212555	2.442261	-0.015489	-0.010119	0.048491	1.000000	0.000016	0.000028	0.000017	-4.722006	-75.693830	-2.274301
27006	9.527293	-0.199154	2.389688	0.030645	-0.002820	0.011703	1.000000	0.000026	0.000009	0.000024	-4.725735	-75.694977	-2.277011
27007	9.554487	-0.199927	2.411156	0.016538	-0.001198	0.043356	1.000000	0.000019	0.000022	0.000013	-4.724877	-75.694799	-2.278960
27008	9.569992	-0.183331	2.420061	0.013837	0.016148	0.060235	1.000000	0.000027	0.000025	0.000015	-4.723586	-75.694274	-2.277558
27009	9.550261	-0.234263	2.416395	0.006512	-0.034711	0.041250	1.000000	0.000027	0.000025	0.000015	-4.722435	-75.693689	-2.278839
27010	9.569712	-0.183676	2.421142	0.012975	0.015860	0.060237	1.000000	0.000032	0.000035	0.000020	-4.722800	-75.692027	-2.279295
27011	9.550882	-0.213782	2.445025	-0.018074	-0.010974	0.048486	1.000000	0.000019	0.000022	0.000013	-4.721940	-75.691850	-2.281245
27012	9.554763	-0.180109	2.441102	-0.009335	0.022103	0.050595	1.000000	0.000034	0.000015	0.000038	-4.730499	-75.692255	-2.274351
27013	9.581012	-0.201810	2.435160	0.000265	-0.000299	0.075008	1.000000	0.000038	0.000023	0.000013	-4.727180	-75.691966	-2.276545
27014	9.538936	-0.197224	2.433419	-0.007936	0.004328	0.033715	1.000000	0.000022	0.000016	0.000009	-4.724440	-75.692527	-2.283128
27015	9.523204	-0.214085	2.425383	-0.006106	-0.013307	0.016835	1.000000	0.000027	0.000025	0.000015	-4.723287	-75.691941	-2.284413
27016	9.554326	-0.180795	2.442761	-0.011057	0.021535	0.050594	1.000000	0.000037	0.000025	0.000024	-4.725025	-75.691318	-2.276636
27017	9.564930	-0.219182	2.428457	0.000792	-0.018364	0.058128	1.000000	0.000040	0.000019	0.000020	-4.724967	-75.691361	-2.275184
27018	9.554093	-0.181197	2.443644	-0.014588	0.019294	0.050594	1.000000	0.000027	0.000025	0.000015	-4.674986	-75.705939	-2.344097
27019	9.553954	-0.181343	2.444173	-0.015023	0.019147	0.050594	1.000000	0.000035	0.000029	0.000016	-4.673407	-75.704987	-2.344838
27020	9.538196	-0.198308	2.436230	-0.013209	0.001515	0.033710	1.000000	0.000029	0.000022	0.000022	-4.675464	-75.704821	-2.346540
27021	9.552781	-0.202708	2.417674	0.007799	-0.005188	0.043365	1.000000	0.000016	0.000028	0.000017	-4.676343	-75.703981	-2.347039
27022	9.583924	-0.169428	2.434981	0.002866	0.029644	0.077133	1.000000	0.000032	0.000016	0.000018	-4.676421	-75.704424	-2.349459
27023	9.552591	-0.203130	2.418387	0.006936	-0.005484	0.043366	1.000000	0.000024	0.000013	0.000017	-4.676811	-75.705324	-2.349470
27024	9.568160	-0.186649	2.427043	0.004254	0.011856	0.060250	1.000000	0.000026	0.000009	0.000024	-4.680424	-75.706517	-2.342315
27025	9.540833	-0.186394	2.406108	0.017530	0.009938	0.028612	1.000000	0.000032	0.000016	0.000018	-4.680523	-75.707009	-2.341657
27026	9.579613	-0.204297	2.440449	-0.008075	-0.004159	0.075004	1.000000	0.000016	0.000026	0.000005	-4.676236	-75.706531	-2.346708
27027	9.552251	-0.203886	2.419669	0.005202	-0.006077	0.043367	1.000000	0.000032	0.000016	0.000018	-4.676334	-75.707023	-2.346051
27028	9.555242	-0.191002	2.388258	0.037684	0.002918	0.038277	1.000000	0.000029	0.000022	0.000022	-4.678248	-75.706709	-2.352318
27029	9.556043	-0.170149	2.416167	0.013564	0.026829	0.045501	1.000000	0.000017	0.000023	-0.000006	-4.668838	-75.706611	-2.363285
27030	9.548829	-0.217398	2.452710	-0.028991	-0.015666	0.048454	1.000000	0.000040	0.000022	0.000032	-4.673772	-75.706314	-2.358342
27031	9.551808	-0.204625	2.421355	0.003477	-0.006671	0.043367	1.000000	0.000029	0.000022	0.000022	-4.675746	-75.706102	-2.356105
27032	9.540952	-0.166712	2.436614	-0.009170	0.032962	0.035839	1.000000	0.000032	0.000035	0.000020	-4.676055	-75.704459	-2.357233
27033	9.567132	-0.188438	2.430951	0.000356	0.010524	0.060252	1.000000	0.000026	0.000028	0.000026	-4.679903	-75.703544	-2.353419
27034	9.548251	-0.218559	2.454856	-0.030735	-0.016244	0.048448	1.000000	0.000035	0.000029	0.000016	-4.678283	-75.702553	-2.359747
27035	9.539624	-0.188463	2.410734	0.013216	0.008449	0.028621	1.000000	0.000023	0.000015	0.000028	-4.683812	-75.703081	-2.354531
27036	9.582405	-0.172588	2.440729	-0.003193	0.027569	0.077139	1.000000	0.000029	0.000022	0.000022	-4.685774	-75.702894	-2.349859
27037	9.551059	-0.206155	2.424176	0.000861	-0.007556	0.043367	1.000000	0.000014	0.000010	-0.000004	-4.678046	-75.704241	-2.359422
27038	9.551860	-0.185416	2.452042	-0.023226	0.016375	0.050583	1.000000	0.000045	0.000031	0.000037	-4.684522	-75.702742	-2.363480
27039	9.574059	-0.241212	2.450552	-0.022970	-0.039267	0.072853	1.000000	0.000024	0.000013	0.000017	-4.684909	-75.703642	-2.363494
27040	9.550752	-0.206923	2.425320	-0.000410	-0.008004	0.043366	1.000000	0.000021	0.000018	0.000021	-4.687092	-75.703702	-2.376774
27041	9.550654	-0.207214	2.425681	-0.000846	-0.008151	0.043366	1.000000	0.000021	0.000018	0.000021	-4.689353	-75.703898	-2.375211
27042	9.576869	-0.228804	2.419894	0.008652	-0.030606	0.067781	1.000000	0.000024	0.000029	0.000007	-4.684732	-75.702962	-2.383128
27043	9.553569	-0.194289	2.394680	0.031211	0.000649	0.038300	1.000000	0.000038	0.000004	0.000011	-4.681079	-75.704863	-2.385631
27044	9.565998	-0.190654	2.435236	-0.004369	0.008894	0.060253	1.000000	0.000024	0.000029	0.000007	-4.676481	-75.703943	-2.393736
27045	9.553359	-0.194461	2.395505	0.030348	0.000349	0.038302	1.000000	0.000029	0.000022	0.000022	-4.678451	-75.703731	-2.391506
27046	9.580485	-0.195200	2.417144	0.016185	0.001986	0.069930	1.000000	0.000019	0.000022	0.000013	-4.677415	-75.703546	-2.402176
27047	9.550001	-0.207928	2.428190	-0.003438	-0.009037	0.043365	1.000000	0.000027	0.000025	0.000015	-4.676117	-75.703002	-2.403598
27048	9.553918	-0.174021	2.424282	0.005416	0.024002	0.045516	1.000000	0.000030	0.000020	0.000011	-4.672952	-75.703132	-2.414647
27049	9.565397	-0.191388	2.437538	-0.006532	0.008161	0.060253	1.000000	0.000035	0.000029	0.000016	-4.671362	-75.702181	-2.415402
27050	9.565283	-0.191494	2.437979	-0.006971	0.008014	0.060252	1.000000	0.000022	0.000016	0.000009	-4.668479	-75.702767	-2.415925
27051	9.565181	-0.191504	2.438378	-0.007407	0.007867	0.060252	1.000000	0.000057	0.000024	0.000012	-4.662560	-75.702410	-2.418500
27052	9.549415	-0.208352	2.430457	-0.005613	-0.009768	0.043363	1.000000	0.000016	0.000028	0.000017	-4.663415	-75.701536	-2.427364
27053	9.568072	-0.178810	2.407516	0.024659	0.016638	0.055201	1.000000	0.000043	0.000016	0.000028	-4.666483	-75.701954	-2.422395
27054	9.550083	-0.187868	2.458768	-0.030109	0.014056	0.050568	1.000000	0.000024	0.000029	0.000007	-4.661848	-75.701035	-2.427462
27055	9.522723	-0.187505	2.438041	-0.016797	0.012113	0.018946	1.000000	0.000029	0.000022	0.000022	-4.663814	-75.700824	-2.425236
27056	9.564572	-0.192375	2.440696	-0.009590	0.007132	0.060251	1.000000	0.000038	0.000023	0.000013	-4.660377	-75.700670	-2.413358
27057	9.548830	-0.209297	2.432675	-0.007800	-0.010502	0.043361	1.000000	0.000021	0.000018	0.000021	-4.662634	-75.700866	-2.411801
27058	9.579090	-0.196962	2.422526	0.010952	0.000206	0.069937	1.000000	0.000027	0.000025	0.000015	-4.661299	-75.700285	-2.418500
27059	9.578983	-0.197136	2.422934	0.010515	0.000058	0.069937	1.000000	0.000032	0.000016	0.000018	-4.661391	-75.700777	-2.417853
27060	9.548493	-0.209795	2.433952	-0.009104	-0.010941	0.043359	1.000000	0.000024	0.000029	0.000007	-4.656829	-75.699907	-2.427004
27061	9.563091	-0.214124	2.415499	0.011863	-0.017726	0.053048	1.000000	0.000016	0.000028	0.000017	-4.657691	-75.699066	-2.427524
27062	9.549146	-0.189268	2.462294	-0.033591	0.012893	0.050558	1.000000	0.000026	0.000009	0.000024	-4.661281	-75.700245	-2.426263
27063	9.563811	-0.193666	2.443576	-0.012625	0.006106	0.060248	1.000000	0.000030	0.000020	0.000011	-4.658106	-75.700406	-2.429268
27064	9.551216	-0.197528	2.403784	0.022093	-0.002482	0.038324	1.000000	0.000037	0.000025	0.000024	-4.659783	-75.699821	-2.421615
27065	9.551987	-0.176857	2.431674	-0.001964	0.021501	0.045523	1.000000	0.000029	0.000022	0.000022	-4.661747	-75.699610	-2.419395
27066	9.562594	-0.215316	2.417361	0.009678	-0.018464	0.053049	1.000000	0.000016	0.000009	0.000015	-4.662456	-75.700925	-2.426192
27067	9.578119	-0.198725	2.426216	0.007022	-0.001124	0.069940	1.000000	0.000021	0.000035	0.000011	-4.659757	-75.699345	-2.429699
27068	9.562381	-0.215599	2.418177	0.008798	-0.018757	0.053049	1.000000	0.000049	0.000004	0.000020	-4.659114	-75.701213	-2.424692
27069	9.551654	-0.177739	2.432918	-0.003708	0.020918	0.045524	1.000000	0.000017	0.000008	0.000034	-4.668194	-75.702480	-2.416504
27070	9.550656	-0.199101	2.405878	0.019469	-0.003367	0.038329	1.000000	0.000024	0.000031	0.000019	-4.668745	-75.701249	-2.413615
27071	9.546451	-0.233302	2.410818	0.009704	-0.036686	0.036158	1.000000	0.000027	0.000025	0.000015	-4.667439	-75.700705	-2.415048
27072	9.547220	-0.212557	2.438702	-0.014345	-0.012693	0.043351	1.000000	0.000029	0.000022	0.000022	-4.669388	-75.700485	-2.414017
27073	9.562751	-0.195981	2.447535	-0.017000	0.004648	0.060242	1.000000	0.000030	0.000020	0.000011	-4.666211	-75.700646	-2.417025
27074	9.577383	-0.200253	2.428996	0.003950	-0.002153	0.069942	1.000000	0.000046	0.000026	0.000014	-4.662489	-75.700032	-2.416097
27075	9.546902	-0.213024	2.439905	-0.015660	-0.013129	0.043349	1.000000	0.000007	0.000008	0.000025	-4.668592	-75.701373	-2.412230
27076	9.562477	-0.196645	2.448554	-0.018312	0.004216	0.060240	1.000000	0.000013	0.000015	0.000019	-4.671179	-75.701963	-2.419176
27077	9.577127	-0.200928	2.429948	0.002642	-0.002593	0.069942	1.000000	0.000047	0.000024	0.000003	-4.662279	-75.701683	-2.426077
27078	9.558219	-0.230671	2.453685	-0.028528	-0.029238	0.058060	1.000000	0.000035	0.000010	0.000014	-4.660503	-75.702843	-2.434778
27079	9.564491	-0.204857	2.390395	0.036939	-0.011366	0.048040	1.000000	0.000018	0.000024	0.000024	-4.664625	-75.702334	-2.431656
27080	9.578616	-0.159461	2.485871	-0.045852	0.045282	0.084318	1.000000	0.000010	0.000019	0.000011	-4.663896	-75.702584	-2.438685
27081	9.550399	-0.180196	2.437659	-0.008911	0.019167	0.045524	1.000000	0.000026	0.000028	0.000026	-4.667725	-75.701668	-2.434897
27082	9.560958	-0.218545	2.423534	0.002674	-0.020815	0.053049	1.000000	0.000060	0.000018	0.000008	-4.659939	-75.702033	-2.439621
27083	9.559986	-0.239542	2.396458	0.025830	-0.045125	0.045863	1.000000	0.000002	0.000015	0.000009	-4.659505	-75.702710	-2.443059
27084	9.564874	-0.184911	2.419733	0.011169	0.012051	0.055232	1.000000	0.000004	0.000014	0.000029	-4.667450	-75.703322	-2.435312
27085	9.539348	-0.142735	2.453651	-0.022663	0.058421	0.037998	1.000000	0.000038	0.000023	0.000012	-4.663978	-75.703076	-2.437657
27086	9.580303	-0.168511	2.428968	0.008085	0.029242	0.072128	1.000000	0.000038	0.000023	0.000012	-4.660506	-75.702844	-2.437192
27087	9.544812	-0.236171	2.417019	0.002702	-0.039036	0.036153	1.000000	0.000037	0.000025	0.000024	-4.662172	-75.702226	-2.434313
27088	9.590747	-0.207205	2.415274	0.019222	-0.010892	0.079654	1.000000	0.000013	0.000015	0.000019	-4.664723	-75.702843	-2.429821
27089	9.538029	-0.164515	2.427885	-0.000812	0.033672	0.030816	1.000000	0.000021	0.000018	0.000021	-4.666972	-75.703039	-2.428276
27090	9.549508	-0.181913	2.441021	-0.012847	0.017855	0.045522	1.000000	0.000054	0.000011	0.000014	-4.662812	-75.704234	-2.422498
27091	9.564180	-0.186237	2.422371	0.008096	0.011026	0.055236	1.000000	0.000019	0.000022	0.000013	-4.661791	-75.704098	-2.424607
27092	9.571532	-0.237820	2.440056	-0.013303	-0.037950	0.067750	1.000000	0.000020	0.000021	0.000032	-4.669229	-75.703968	-2.418361
27093	9.563087	-0.207972	2.395739	0.030805	-0.013436	0.048059	1.000000	0.000013	0.000015	0.000019	-4.671770	-75.704570	-2.417483
27094	9.549129	-0.183041	2.442419	-0.014586	0.017271	0.045521	1.000000	0.000043	0.000016	0.000028	-4.674774	-75.704944	-2.412577
27095	9.563811	-0.187553	2.423727	0.006354	0.010437	0.055238	1.000000	0.000024	0.000013	0.000017	-4.675153	-75.705845	-2.412606
27096	9.548044	-0.204515	2.415772	0.008143	-0.007199	0.038343	1.000000	0.000032	0.000035	0.000020	-4.675342	-75.704103	-2.420053
27097	9.563560	-0.188099	2.424674	0.005499	0.010138	0.055239	1.000000	0.000023	0.000015	0.000028	-4.680859	-75.704630	-2.414857
27098	9.556169	-0.235401	2.461207	-0.037287	-0.032139	0.058022	1.000000	0.000024	0.000013	0.000017	-4.681210	-75.705522	-2.410853
27099	9.536174	-0.188176	2.404125	0.018433	0.008028	0.023645	1.000000	0.000012	0.000034	0.000021	-4.683921	-75.703977	-2.409824
27100	9.547592	-0.205627	2.417460	0.006400	-0.007788	0.038344	1.000000	0.000022	0.000016	0.000009	-4.681030	-75.704555	-2.412723
27101	9.563156	-0.189193	2.426184	0.003756	0.009549	0.055241	1.000000	0.000034	0.000015	0.000037	-4.689525	-75.705006	-2.403209
27102	9.574591	-0.206730	2.439436	-0.008280	-0.006266	0.069938	1.000000	0.000016	0.000025	0.000005	-4.685236	-75.704538	-2.410434
27103	9.558816	-0.223675	2.431503	-0.006510	-0.023896	0.053040	1.000000	0.000018	0.000024	0.000024	-4.689348	-75.704028	-2.407324
27104	9.548045	-0.185754	2.446447	-0.018918	0.015811	0.045516	1.000000	0.000021	0.000018	0.000021	-4.691590	-75.704232	-2.405505
27105	9.574236	-0.207487	2.440767	-0.009593	-0.006705	0.069936	1.000000	0.000027	0.000025	0.000015	-4.690272	-75.703690	-2.406954
27106	9.547793	-0.186118	2.447403	-0.019779	0.015521	0.045515	1.000000	0.000035	0.000029	0.000016	-4.688640	-75.702701	-2.412769
27107	9.573950	-0.207776	2.441864	-0.010461	-0.006998	0.069935	1.000000	0.000035	0.000029	0.000016	-4.687028	-75.701753	-2.413553
27108	9.549886	-0.194399	2.389193	0.035896	-0.000014	0.033381	1.000000	0.000022	0.000016	0.000009	-4.684125	-75.702297	-2.420952
27109	9.547464	-0.186564	2.448655	-0.021078	0.015085	0.045513	1.000000	0.000026	0.000009	0.000024	-4.687774	-75.703529	-2.417329
27110	9.574543	-0.187369	2.470313	-0.035335	0.016760	0.077101	1.000000	0.000045	0.000029	0.000026	-4.689150	-75.702529	-2.411656
27111	9.546349	-0.208158	2.422148	0.001610	-0.009404	0.038344	1.000000	0.000029	0.000022	0.000022	-4.691100	-75.702318	-2.409454
27112	9.572543	-0.229969	2.416453	0.010918	-0.031928	0.062766	1.000000	0.000021	0.000018	0.000021	-4.693323	-75.702518	-2.399023
27113	9.550282	-0.174703	2.418390	0.010152	0.023447	0.040554	1.000000	0.000024	0.000013	0.000017	-4.693701	-75.703418	-2.399054
27114	9.558475	-0.205158	2.463438	-0.034871	-0.001302	0.060196	1.000000	0.000029	0.000022	0.000022	-4.695652	-75.703158	-2.406190
27115	9.562484	-0.171273	2.459416	-0.025885	0.031695	0.062407	1.000000	0.000027	0.000023	0.000003	-4.689196	-75.702991	-2.412865
27116	9.545854	-0.209279	2.424004	-0.000562	-0.010139	0.038344	1.000000	0.000034	0.000015	0.000037	-4.697652	-75.703437	-2.402897
27117	9.561435	-0.192866	2.432669	-0.003198	0.007197	0.055243	1.000000	0.000035	0.000010	0.000014	-4.695873	-75.704636	-2.403832
27118	9.546575	-0.188659	2.451957	-0.024986	0.013770	0.045505	1.000000	0.000038	0.000023	0.000012	-4.692321	-75.704372	-2.399620
27119	9.549712	-0.175693	2.420570	0.007561	0.022559	0.040559	1.000000	0.000027	0.000023	0.000003	-4.685862	-75.704205	-2.406297
27120	9.561126	-0.192994	2.433871	-0.004500	0.006752	0.055243	1.000000	0.000040	0.000019	0.000020	-4.685628	-75.704276	-2.405977
27121	9.561025	-0.193118	2.434257	-0.004935	0.006606	0.055243	1.000000	0.000030	0.000020	0.000011	-4.682440	-75.704440	-2.409001
27122	9.557645	-0.206167	2.466572	-0.038350	-0.002473	0.060183	1.000000	0.000035	0.000029	0.000016	-4.680769	-75.703461	-2.407838
27123	9.545134	-0.210131	2.426763	-0.003601	-0.011171	0.038342	1.000000	0.000032	0.000016	0.000018	-4.680852	-75.703956	-2.407209
27124	9.549170	-0.176386	2.422656	0.005389	0.021821	0.040562	1.000000	0.000029	0.000022	0.000022	-4.682778	-75.703783	-2.399112
27125	9.572979	-0.190117	2.476159	-0.041868	0.014570	0.077078	1.000000	0.000013	0.000015	0.000019	-4.685310	-75.704385	-2.398245
27126	9.518552	-0.189297	2.433895	-0.014607	0.010778	0.013918	1.000000	0.000030	0.000020	0.000011	-4.682050	-75.704443	-2.410713
27127	9.587583	-0.194726	2.457865	-0.021373	0.007546	0.086820	1.000000	0.000024	0.000013	0.000017	-4.682425	-75.705344	-2.410749
27128	9.544677	-0.211279	2.428462	-0.005756	-0.011911	0.038340	1.000000	0.000031	0.000018	0.000030	-4.687527	-75.705365	-2.410866
27129	9.560216	-0.194820	2.437299	-0.008387	0.005423	0.055241	1.000000	0.000027	0.000025	0.000015	-4.686200	-75.704824	-2.412327
27130	9.590529	-0.182486	2.427234	0.010323	0.016013	0.081889	1.000000	0.000038	0.000023	0.000012	-4.682688	-75.704588	-2.412497
27131	9.547628	-0.198977	2.397826	0.025927	-0.003443	0.033412	1.000000	0.000007	0.000008	0.000025	-4.688785	-75.705926	-2.408641
27132	9.544272	-0.212269	2.429966	-0.007496	-0.012501	0.038338	1.000000	0.000029	0.000022	0.000022	-4.690661	-75.705692	-2.402522
27133	9.559812	-0.195696	2.438814	-0.010129	0.004833	0.055240	1.000000	0.000038	0.000023	0.000012	-4.687176	-75.705450	-2.404886
27134	9.532520	-0.195233	2.418012	0.003287	0.002858	0.023664	1.000000	0.000024	0.000029	0.000007	-4.682574	-75.704561	-2.411109
27135	9.570209	-0.234132	2.425283	0.000884	-0.035339	0.062760	1.000000	0.000024	0.000013	0.000017	-4.682948	-75.705462	-2.411147
27136	9.547109	-0.199899	2.399813	0.023769	-0.004190	0.033417	1.000000	0.000029	0.000022	0.000022	-4.684842	-75.705180	-2.415662
27137	9.559353	-0.196407	2.440552	-0.011856	0.004247	0.055238	1.000000	0.000026	0.000028	0.000026	-4.688647	-75.704263	-2.411906
27138	9.570730	-0.213924	2.453925	-0.023965	-0.011544	0.069907	1.000000	0.000040	0.000019	0.000020	-4.688509	-75.704426	-2.408044
27139	9.561539	-0.204889	2.382240	0.043787	-0.011386	0.043175	1.000000	0.000027	0.000023	0.000003	-4.682043	-75.704260	-2.414729
27140	9.543349	-0.213588	2.433471	-0.010984	-0.013666	0.038333	1.000000	0.000029	0.000022	0.000022	-4.683994	-75.704049	-2.414644
27141	9.573697	-0.201461	2.423298	0.007722	-0.003093	0.064993	1.000000	0.000013	0.000015	0.000019	-4.686523	-75.704650	-2.413782
27142	9.562096	-0.184448	2.410779	0.018956	0.012404	0.050326	1.000000	0.000027	0.000025	0.000015	-4.685163	-75.704092	-2.416724
27143	9.557827	-0.218598	2.415697	0.009042	-0.020868	0.048090	1.000000	0.000032	0.000016	0.000018	-4.685243	-75.704587	-2.416100
27144	9.542945	-0.214513	2.434974	-0.012726	-0.014251	0.038331	1.000000	0.000021	0.000018	0.000020	-4.687453	-75.704775	-2.413825
27145	9.558489	-0.197992	2.443806	-0.015352	0.003082	0.055234	1.000000	0.000027	0.000025	0.000015	-4.686120	-75.704234	-2.415293
27146	9.561689	-0.185326	2.412326	0.017221	0.011808	0.050330	1.000000	0.000034	0.000012	0.000026	-4.689396	-75.705029	-2.412633
27147	9.569774	-0.215688	2.457496	-0.027895	-0.012856	0.069895	1.000000	0.000005	0.000028	0.000007	-4.687238	-75.704264	-2.417519
27148	9.561459	-0.185751	2.413202	0.016376	0.011505	0.050332	1.000000	0.000029	0.000022	0.000022	-4.689050	-75.703916	-2.421526
27149	9.542384	-0.215548	2.437080	-0.014881	-0.014988	0.038326	1.000000	0.000008	0.000022	0.000004	-4.685031	-75.703857	-2.427976
27150	9.573620	-0.182135	2.454204	-0.019690	0.019825	0.072135	1.000000	0.000035	0.000010	0.000014	-4.683280	-75.705063	-2.428222
27151	9.542224	-0.215697	2.437694	-0.015754	-0.015277	0.038325	1.000000	0.000030	0.000020	0.000011	-4.680086	-75.705228	-2.431256
27152	9.573450	-0.182344	2.454851	-0.020574	0.019533	0.072134	1.000000	0.000032	0.000016	0.000018	-4.680200	-75.705774	-2.421930
27153	9.534757	-0.164835	2.420820	0.004548	0.033191	0.025911	1.000000	0.000037	0.000007	0.000022	-4.681692	-75.707305	-2.419217
27154	9.572446	-0.203840	2.428035	0.002066	-0.005016	0.064995	1.000000	0.000018	0.000022	0.000013	-4.680644	-75.707172	-2.423801
27155	9.533751	-0.186203	2.394034	0.027193	0.008639	0.018775	1.000000	0.000038	0.000004	0.000011	-4.677000	-75.709079	-2.426308
27156	9.572294	-0.203944	2.428628	0.001198	-0.005312	0.064995	1.000000	0.000024	0.000029	0.000007	-4.672339	-75.708173	-2.429694
27157	9.557367	-0.199862	2.448038	-0.020560	0.001324	0.055224	1.000000	0.000020	0.000021	0.000032	-4.679706	-75.707992	-2.422955
27158	9.544902	-0.204049	2.408229	0.014204	-0.007446	0.033434	1.000000	0.000027	0.000025	0.000015	-4.678361	-75.707446	-2.429058
27159	9.545658	-0.183132	2.435959	-0.009735	0.016672	0.040569	1.000000	0.000032	0.000016	0.000018	-4.678438	-75.707942	-2.428439
27160	9.544696	-0.204461	2.409009	0.013339	-0.007743	0.033435	1.000000	0.000029	0.000022	0.000022	-4.680305	-75.707691	-2.423860
27161	9.572606	-0.184102	2.458009	-0.024481	0.018217	0.072127	1.000000	0.000024	0.000013	0.000017	-4.680675	-75.708592	-2.423904
27162	9.545362	-0.183719	2.437075	-0.011032	0.016229	0.040568	1.000000	0.000024	0.000029	0.000007	-4.676055	-75.707711	-2.425345
27163	9.570663	-0.226619	2.404205	0.021650	-0.030612	0.057862	1.000000	0.000023	0.000015	0.000028	-4.681560	-75.708236	-2.420171
27164	9.545180	-0.184202	2.437752	-0.011898	0.015938	0.040567	1.000000	0.000035	0.000010	0.000014	-4.679789	-75.709421	-2.422004
27165	9.559911	-0.188775	2.419096	0.008982	0.008998	0.050344	1.000000	0.000043	0.000016	0.000028	-4.682847	-75.709841	-2.417067
27166	9.585223	-0.231705	2.386183	0.041666	-0.037855	0.067641	1.000000	0.000018	0.000022	0.000013	-4.681721	-75.709626	-2.417703
27167	9.571192	-0.206422	2.432756	-0.003582	-0.006935	0.064993	1.000000	0.000024	0.000013	0.000017	-4.682091	-75.710527	-2.417749
27168	9.544813	-0.185116	2.439120	-0.013615	0.015347	0.040566	1.000000	0.000026	0.000028	0.000026	-4.685802	-75.709566	-2.414812
27169	9.559480	-0.189741	2.420720	0.007261	0.008401	0.050346	1.000000	0.000027	0.000025	0.000015	-4.684461	-75.709025	-2.416291
27170	9.543679	-0.206740	2.412842	0.009002	-0.009220	0.033438	1.000000	0.000026	0.000028	0.000026	-4.688276	-75.708154	-2.406551
27171	9.570681	-0.207493	2.434675	-0.005330	-0.007525	0.064992	1.000000	0.000018	0.000022	0.000013	-4.687229	-75.708019	-2.408692
27172	9.554902	-0.224451	2.426709	-0.003587	-0.025145	0.048083	1.000000	0.000029	0.000022	0.000022	-4.689201	-75.707850	-2.400150
27173	9.574668	-0.174051	2.430919	0.003317	0.025292	0.067256	1.000000	0.000042	0.000016	0.000028	-4.692258	-75.708269	-2.395215
27174	9.544080	-0.186698	2.441865	-0.016221	0.014471	0.040564	1.000000	0.000015	0.000028	0.000017	-4.692995	-75.707327	-2.404993
27175	9.547308	-0.173998	2.410454	0.016369	0.023149	0.035706	1.000000	0.000030	0.000020	0.000011	-4.689794	-75.707493	-2.408035
27176	9.539629	-0.220912	2.447364	-0.026617	-0.018927	0.038295	1.000000	0.000035	0.000029	0.000016	-4.688051	-75.706469	-2.415065
27177	9.558539	-0.191498	2.424295	0.003794	0.007219	0.050349	1.000000	0.000024	0.000013	0.000017	-4.688420	-75.707370	-2.415112
27178	9.531340	-0.191208	2.403221	0.017280	0.005219	0.018800	1.000000	0.000032	0.000016	0.000018	-4.688434	-75.707767	-2.424534
27179	9.542668	-0.208583	2.416680	0.005117	-0.010554	0.033440	1.000000	0.000021	0.000035	0.000011	-4.685671	-75.706191	-2.428114
27180	9.554850	-0.204772	2.457442	-0.030525	-0.002032	0.055199	1.000000	0.000021	0.000016	0.000009	-4.682732	-75.706759	-2.431150
27181	9.573791	-0.175503	2.434268	-0.000105	0.024102	0.067259	1.000000	0.000034	0.000015	0.000037	-4.691214	-75.707207	-2.421665
27182	9.558031	-0.192546	2.426215	0.001624	0.006481	0.050350	1.000000	0.000030	0.000020	0.000011	-4.688021	-75.707430	-2.413830
27183	9.557932	-0.192607	2.426600	0.001188	0.006334	0.050350	1.000000	0.000030	0.000020	0.000011	-4.684818	-75.707596	-2.416874
27184	9.553599	-0.226735	2.431621	-0.008799	-0.026914	0.048075	1.000000	0.000037	0.000025	0.000024	-4.686400	-75.706938	-2.419108
27185	9.569159	-0.210169	2.440422	-0.011412	-0.009586	0.064985	1.000000	0.000021	0.000016	0.000009	-4.683491	-75.707510	-2.422814
27186	9.557635	-0.193081	2.427730	-0.000107	0.005891	0.050350	1.000000	0.000024	0.000013	0.000017	-4.683848	-75.708387	-2.418674
27187	9.560898	-0.180539	2.396248	0.032492	0.014541	0.045513	1.000000	0.000026	0.000028	0.000026	-4.687633	-75.707470	-2.414945
27188	9.531138	-0.172076	2.434531	-0.010541	0.028049	0.025922	1.000000	0.000029	0.000022	0.000022	-4.689577	-75.707293	-2.406382
27189	9.557284	-0.193862	2.429051	-0.001420	0.005451	0.050351	1.000000	0.000038	0.000023	0.000012	-4.686078	-75.707053	-2.408766
27190	9.541507	-0.210656	2.421079	0.000338	-0.012172	0.033439	1.000000	0.000030	0.000020	0.000011	-4.682807	-75.707118	-2.418845
27191	9.557063	-0.194023	2.429909	-0.002273	0.005155	0.050351	1.000000	0.000027	0.000025	0.000015	-4.681459	-75.706578	-2.420333
27192	9.530688	-0.172505	2.436260	-0.012247	0.027467	0.025922	1.000000	0.000030	0.000020	0.000011	-4.678299	-75.706725	-2.428589
27193	9.560238	-0.181375	2.398818	0.029900	0.013646	0.045522	1.000000	0.000021	0.000016	0.000009	-4.675389	-75.707297	-2.432298
27194	9.556751	-0.194363	2.431106	-0.003573	0.004716	0.050350	1.000000	0.000037	0.000025	0.000024	-4.676987	-75.706662	-2.430803
27195	9.567245	-0.233095	2.417155	0.007697	-0.035363	0.057867	1.000000	0.000037	0.000009	0.000034	-4.683612	-75.707816	-2.422881
27196	9.545120	-0.177751	2.418831	0.007306	0.020041	0.035724	1.000000	0.000024	0.000029	0.000007	-4.678971	-75.706968	-2.423209
27197	9.556444	-0.195011	2.432260	-0.004884	0.004276	0.050350	1.000000	0.000021	0.000016	0.000009	-4.676059	-75.707540	-2.426919
27198	9.571184	-0.199668	2.413674	0.015975	-0.002715	0.060154	1.000000	0.000023	0.000015	0.000028	-4.681565	-75.708013	-2.425809
27199	9.544844	-0.178347	2.419878	0.006014	0.019600	0.035726	1.000000	0.000032	0.000016	0.000018	-4.681635	-75.708508	-2.425201
27200	9.552801	-0.208562	2.465076	-0.039224	-0.004932	0.055167	1.000000	0.000032	0.000016	0.000018	-4.681631	-75.708981	-2.427959
27201	9.541277	-0.191585	2.452419	-0.027896	0.010538	0.040542	1.000000	0.000021	0.000018	0.000020	-4.683851	-75.709175	-2.426456
27202	9.555956	-0.196372	2.434070	-0.007038	0.003539	0.050349	1.000000	0.000031	0.000037	0.000032	-4.689117	-75.707086	-2.427007
27203	9.568096	-0.192745	2.474849	-0.042690	0.012108	0.072075	1.000000	0.000002	0.000015	0.000009	-4.688649	-75.707762	-2.430483
27204	9.554907	-0.217861	2.407563	0.015536	-0.021084	0.043244	1.000000	0.000044	0.000011	0.000005	-4.681461	-75.708921	-2.442002
27205	9.570465	-0.201409	2.416380	0.012935	-0.003758	0.060158	1.000000	0.000014	0.000033	0.000040	-4.692520	-75.707325	-2.432174
27206	9.555539	-0.197340	2.435627	-0.008782	0.002955	0.050348	1.000000	0.000038	0.000004	0.000011	-4.688867	-75.709254	-2.429948
27207	9.555469	-0.197490	2.435890	-0.009218	0.002809	0.050347	1.000000	0.000029	0.000022	0.000022	-4.690791	-75.709043	-2.427786
27208	9.539664	-0.214551	2.427990	-0.007485	-0.014813	0.033433	1.000000	0.000026	0.000028	0.000026	-4.694495	-75.708108	-2.420539
27209	9.570061	-0.202530	2.417888	0.011189	-0.004350	0.060160	1.000000	0.000024	0.000013	0.000017	-4.694859	-75.709009	-2.420594
27210	9.558558	-0.185561	2.405185	0.022545	0.011108	0.045545	1.000000	0.000021	0.000018	0.000020	-4.697019	-75.709129	-2.422250
27211	9.554194	-0.219633	2.410231	0.012492	-0.022120	0.043246	1.000000	0.000057	0.000024	0.000012	-4.691071	-75.708787	-2.424878
27212	9.554939	-0.198704	2.437869	-0.011376	0.002072	0.050345	1.000000	0.000004	0.000014	0.000028	-4.698978	-75.709387	-2.422946
27213	9.567134	-0.194949	2.478395	-0.047032	0.010663	0.072057	1.000000	0.000044	0.000011	0.000005	-4.691766	-75.710563	-2.428450
27214	9.542515	-0.202938	2.398207	0.022977	-0.006961	0.028634	1.000000	0.000037	0.000025	0.000024	-4.693358	-75.709918	-2.428896
27215	9.539000	-0.215952	2.430475	-0.010518	-0.015838	0.033428	1.000000	0.000024	0.000013	0.000017	-4.693722	-75.710819	-2.428953
27216	9.528384	-0.177787	2.444877	-0.022583	0.023973	0.025913	1.000000	0.000029	0.000003	0.000020	-4.695555	-75.712721	-2.431752
27217	9.568533	-0.225254	2.393204	0.031147	-0.029887	0.053067	1.000000	0.000035	0.000029	0.000016	-4.693900	-75.711776	-2.432593
27218	9.528169	-0.178189	2.445688	-0.022356	0.023217	0.025915	1.000000	0.000029	0.000022	0.000022	-4.686000	-75.705047	-2.428688
27219	9.542059	-0.204166	2.399919	0.021907	-0.008158	0.028636	1.000000	0.000023	0.000015	0.000028	-4.691472	-75.705556	-2.423560
27220	9.539380	-0.196103	2.459431	-0.035012	0.007318	0.040523	1.000000	0.000029	0.000022	0.000022	-4.693337	-75.705323	-2.420165
27221	9.554972	-0.179446	2.468140	-0.037603	0.024643	0.057439	1.000000	0.000044	0.000011	0.000005	-4.686106	-75.706486	-2.425694
27222	9.522695	-0.234115	2.424425	-0.010290	-0.034796	0.016506	1.000000	0.000010	0.000019	0.000011	-4.685269	-75.706706	-2.430878
27223	9.580198	-0.222651	2.435687	-0.005576	-0.022493	0.074770	1.000000	0.000012	0.000017	0.000030	-4.692887	-75.706914	-2.424857
27224	9.550412	-0.214079	2.473847	-0.048531	-0.008862	0.055123	1.000000	0.000027	0.000025	0.000015	-4.691481	-75.706315	-2.433296
27225	9.568565	-0.205878	2.423518	0.005363	-0.007188	0.060163	1.000000	0.000030	0.000019	0.000011	-4.688249	-75.706469	-2.436378
27226	9.575299	-0.180451	2.360247	0.071061	0.010083	0.050605	1.000000	0.000021	0.000035	0.000011	-4.685384	-75.704880	-2.434605
27227	9.579764	-0.223372	2.437331	-0.007313	-0.023087	0.074767	1.000000	0.000026	-0.000010	0.000022	-4.688876	-75.708243	-2.431140
27228	9.557735	-0.167898	2.438760	-0.007533	0.032327	0.052653	1.000000	0.000011	0.000035	0.000001	-4.683030	-75.706661	-2.444015
27229	9.568135	-0.206307	2.425179	0.003636	-0.007785	0.060164	1.000000	0.000054	0.000030	0.000016	-4.678910	-75.705601	-2.445120
27230	9.568828	-0.185253	2.452986	-0.020215	0.016434	0.067255	1.000000	0.000015	0.000028	0.000017	-4.679698	-75.704773	-2.441213
27231	9.539937	-0.227364	2.377603	0.040143	-0.034315	0.021554	1.000000	0.000027	0.000025	0.000014	-4.678315	-75.704220	-2.442744
27232	9.556343	-0.189655	2.413651	0.014138	0.007374	0.045564	1.000000	0.000021	0.000018	0.000020	-4.680514	-75.704430	-2.434542
27233	9.560516	-0.155933	2.409415	0.023363	0.040292	0.047885	1.000000	0.000027	0.000025	0.000014	-4.679131	-75.703877	-2.436074
27234	9.551830	-0.223983	2.419184	0.003620	-0.025994	0.043244	1.000000	0.000040	0.000019	0.000020	-4.678784	-75.703883	-2.444511
27235	9.571704	-0.173501	2.423247	0.010700	0.024390	0.062486	1.000000	0.000032	0.000016	0.000018	-4.678828	-75.704365	-2.443939
27236	9.552471	-0.203094	2.447161	-0.020663	-0.001914	0.050330	1.000000	0.000038	0.000023	0.000012	-4.675346	-75.704163	-2.442703
27237	9.552371	-0.203152	2.447546	-0.021096	-0.002061	0.050329	1.000000	0.000021	0.000016	0.000009	-4.672407	-75.704722	-2.446448
27238	9.540902	-0.186092	2.434794	-0.009694	0.013386	0.035733	1.000000	0.000054	0.000013	0.000025	-4.673213	-75.705366	-2.447806
27239	9.537379	-0.199163	2.466933	-0.043202	0.004557	0.040492	1.000000	0.000037	0.000009	0.000034	-4.679813	-75.706506	-2.439920
27240	9.525061	-0.203472	2.426991	-0.008405	-0.004376	0.018812	1.000000	0.000027	0.000025	0.000014	-4.678395	-75.705939	-2.445153
27241	9.567730	-0.187341	2.457106	-0.024967	0.014821	0.067246	1.000000	0.000027	0.000007	0.000013	-4.676883	-75.707534	-2.446794
27242	9.551978	-0.204159	2.448996	-0.023250	-0.002793	0.050324	1.000000	0.000030	0.000019	0.000011	-4.673631	-75.707675	-2.451120
27243	9.555378	-0.191476	2.417325	0.009397	0.005733	0.045571	1.000000	0.000038	0.000004	0.000011	-4.669972	-75.709572	-2.453655
27244	9.551846	-0.204459	2.449487	-0.024112	-0.003087	0.050322	1.000000	0.000020	0.000021	0.000032	-4.677246	-75.709343	-2.447204
27245	9.570044	-0.196511	2.399152	0.029780	-0.001487	0.055412	1.000000	0.000038	0.000023	0.000012	-4.673711	-75.709093	-2.449635
27246	9.566481	-0.209338	2.431436	-0.003734	-0.010305	0.060161	1.000000	0.000002	0.000015	0.000009	-4.673156	-75.709737	-2.451707
27247	9.555027	-0.192321	2.418646	0.007672	0.005136	0.045573	1.000000	0.000024	0.000013	0.000017	-4.673492	-75.710624	-2.451798
27248	9.554929	-0.192495	2.419018	0.007243	0.004986	0.045573	1.000000	0.000027	0.000025	0.000014	-4.672046	-75.710048	-2.453775
27249	9.566188	-0.209849	2.432543	-0.005034	-0.010750	0.060160	1.000000	0.000018	0.000022	0.000013	-4.670952	-75.709900	-2.455974
27250	9.570414	-0.176096	2.428154	0.004240	0.022154	0.062496	1.000000	0.000016	0.000009	0.000015	-4.671536	-75.711146	-2.458271
27251	9.554645	-0.193138	2.420090	0.005952	0.004540	0.045574	1.000000	0.000039	0.000022	0.000031	-4.676410	-75.710845	-2.451835
27252	9.581564	-0.194029	2.442055	-0.008472	0.006271	0.077082	1.000000	-0.000007	0.000033	0.000021	-4.681419	-75.709370	-2.454498
27253	9.535196	-0.223237	2.444700	-0.025856	-0.021874	0.033389	1.000000	0.000038	0.000023	0.000012	-4.677883	-75.709120	-2.456931
27254	9.554255	-0.193973	2.421562	0.004660	0.004096	0.045575	1.000000	0.000021	0.000018	0.000020	-4.680105	-75.709280	-2.460545
27255	9.542792	-0.177013	2.408830	0.016083	0.019531	0.030993	1.000000	0.000032	0.000016	0.000018	-4.680146	-75.709763	-2.459978
27256	9.554110	-0.194436	2.422097	0.003794	0.003800	0.045575	1.000000	0.000029	0.000003	0.000020	-4.681896	-75.711677	-2.454051
27257	9.550562	-0.207350	2.454244	-0.029730	-0.004989	0.050306	1.000000	0.000040	0.000019	0.000020	-4.681640	-75.711756	-2.452827
27258	9.538251	-0.211504	2.414378	0.005076	-0.013964	0.028652	1.000000	0.000038	0.000023	0.000012	-4.678050	-75.711461	-2.459700
27259	9.549549	-0.228968	2.427706	-0.007220	-0.029692	0.043232	1.000000	0.000020	0.000002	0.000030	-4.685245	-75.713409	-2.453132
27260	9.566049	-0.191412	2.463331	-0.033170	0.012036	0.067226	1.000000	0.000010	0.000002	0.000021	-4.689461	-75.715460	-2.444070
27261	9.550336	-0.208388	2.455038	-0.031463	-0.005575	0.050300	1.000000	0.000048	0.000004	0.000020	-4.688791	-75.717282	-2.442286
27262	9.568633	-0.200385	2.404450	0.022426	-0.004036	0.055431	1.000000	0.000024	0.000013	0.000017	-4.689126	-75.718175	-2.444985
27263	9.565090	-0.213229	2.436567	-0.011104	-0.012815	0.060153	1.000000	0.000027	0.000007	0.000013	-4.687612	-75.719770	-2.446630
27264	9.552847	-0.217436	2.396442	0.023695	-0.021797	0.038508	1.000000	0.000016	0.000009	0.000015	-4.688233	-75.721086	-2.443375
27265	9.569320	-0.179618	2.432203	-0.002247	0.019934	0.062501	1.000000	0.000035	0.000010	0.000014	-4.686423	-75.722277	-2.444362
27266	9.568403	-0.200996	2.405318	0.020690	-0.004633	0.055435	1.000000	0.000018	0.000022	0.000013	-4.685266	-75.722106	-2.445487
27267	9.553461	-0.196673	2.424475	-0.000969	0.002172	0.045577	1.000000	0.000045	0.000010	0.000024	-4.686443	-75.723221	-2.442154
27268	9.556859	-0.184235	2.392924	0.031689	0.010648	0.040863	1.000000	0.000015	0.000028	0.000017	-4.687184	-75.722403	-2.442577
27269	9.579450	-0.218777	2.419596	0.007504	-0.020657	0.070009	1.000000	0.000038	0.000023	0.000012	-4.683640	-75.722155	-2.445020
27270	9.568787	-0.180357	2.434245	-0.004410	0.019193	0.062502	1.000000	0.000032	0.000032	0.000009	-4.678661	-75.720837	-2.446818
27271	9.567818	-0.201756	2.407579	0.018518	-0.005376	0.055439	1.000000	0.000029	0.000022	0.000022	-4.680545	-75.720613	-2.444707
27272	9.583374	-0.185286	2.416459	0.015945	0.011939	0.072365	1.000000	0.000024	0.000031	0.000018	-4.681005	-75.719352	-2.444049
27273	9.555362	-0.206340	2.368328	0.052891	-0.014521	0.033809	1.000000	0.000029	0.000022	0.000022	-4.682889	-75.719128	-2.441939
27274	9.568246	-0.181343	2.436294	-0.006140	0.018603	0.062502	1.000000	0.000026	0.000028	0.000026	-4.686609	-75.718185	-2.439425
27275	9.536684	-0.215030	2.420247	-0.002296	-0.016471	0.028649	1.000000	0.000038	0.000042	0.000014	-4.683177	-75.715790	-2.441777
27276	9.551358	-0.219835	2.402148	0.018481	-0.023581	0.038515	1.000000	0.000023	0.000034	0.000030	-4.688783	-75.714193	-2.435837
27277	9.536317	-0.215529	2.421651	-0.003171	-0.016763	0.028649	1.000000	0.000041	0.000036	0.000010	-4.683505	-75.712506	-2.439736
27278	9.566709	-0.203454	2.411838	0.015489	-0.006420	0.055443	1.000000	0.000024	0.000031	0.000018	-4.683909	-75.711155	-2.448200
27279	9.551669	-0.199131	2.431325	-0.006160	0.000404	0.045575	1.000000	0.000010	0.000037	0.000013	-4.683213	-75.709265	-2.450978
27280	9.552356	-0.177942	2.459038	-0.029929	0.024693	0.052632	1.000000	0.000041	0.000017	0.000008	-4.677759	-75.709668	-2.458186
27281	9.578437	-0.199769	2.453831	-0.021047	0.002001	0.077065	1.000000	0.000032	0.000035	0.000020	-4.677906	-75.708005	-2.457537
27282	9.551286	-0.199587	2.432790	-0.007452	-0.000039	0.045574	1.000000	0.000026	0.000009	0.000024	-4.681523	-75.709229	-2.453766
27283	9.566897	-0.183103	2.441456	-0.010017	0.017276	0.062502	1.000000	0.000018	0.000022	0.000013	-4.680418	-75.709081	-2.455979
27284	9.510038	-0.173793	2.457929	-0.038837	0.029191	0.011267	1.000000	0.000026	0.000009	0.000024	-4.683929	-75.710298	-2.449566
27285	9.565895	-0.204797	2.414954	0.012456	-0.007466	0.055447	1.000000	0.000024	0.000029	0.000007	-4.679243	-75.709419	-2.454782
27286	9.550109	-0.221654	2.406946	0.014166	-0.025082	0.038519	1.000000	0.000037	0.000007	0.000022	-4.680635	-75.710860	-2.456699
27287	9.554413	-0.188072	2.402374	0.023508	0.007798	0.040889	1.000000	0.000015	0.000012	0.000026	-4.686391	-75.711771	-2.452251
27288	9.555983	-0.145824	2.456999	-0.023607	0.056548	0.054995	1.000000	0.000032	0.000016	0.000018	-4.686418	-75.712295	-2.448439
27289	9.569129	-0.193134	2.384146	0.043840	0.000514	0.050768	1.000000	0.000032	0.000016	0.000018	-4.686452	-75.712779	-2.447883
27290	9.566326	-0.184681	2.443575	-0.013040	0.016242	0.062500	1.000000	0.000032	0.000016	0.000018	-4.686511	-75.713253	-2.455630
27291	9.539199	-0.184393	2.422468	0.000570	0.014196	0.031015	1.000000	0.000018	0.000022	0.000013	-4.685402	-75.713106	-2.457846
27292	9.566131	-0.185079	2.444307	-0.013903	0.015946	0.062499	1.000000	0.000013	0.000015	0.000019	-4.687832	-75.713674	-2.457913
27293	9.551185	-0.180846	2.463373	-0.035537	0.022797	0.052618	1.000000	0.000056	0.000010	0.000033	-4.691996	-75.714713	-2.450267
27294	9.550261	-0.202434	2.436577	-0.012654	-0.001809	0.045569	1.000000	0.000015	0.000028	0.000017	-4.692738	-75.713919	-2.443690
27295	9.550141	-0.202699	2.437027	-0.013087	-0.001956	0.045568	1.000000	0.000021	0.000018	0.000020	-4.694912	-75.714099	-2.442248
27296	9.550034	-0.202983	2.437422	-0.013513	-0.002103	0.045567	1.000000	0.000029	0.000022	0.000022	-4.696749	-75.713828	-2.446838
27297	9.549934	-0.203335	2.437784	-0.013947	-0.002250	0.045567	1.000000	0.000023	0.000015	0.000028	-4.702208	-75.714335	-2.441734
27298	9.522803	-0.203221	2.416694	-0.000327	-0.004299	0.014086	1.000000	0.000037	0.000025	0.000024	-4.703744	-75.713698	-2.437626
27299	9.568169	-0.195762	2.387782	0.039507	-0.000995	0.050787	1.000000	0.000024	0.000010	0.000005	-4.698948	-75.714967	-2.442934
27300	9.549649	-0.203937	2.438849	-0.015241	-0.002692	0.045565	1.000000	0.000029	0.000022	0.000022	-4.700771	-75.714712	-2.445793
27301	9.564427	-0.208811	2.420417	0.005519	-0.009848	0.055451	1.000000	0.000042	0.000016	0.000028	-4.703791	-75.715119	-2.440923
27302	9.549440	-0.204522	2.439620	-0.016105	-0.002987	0.045563	1.000000	0.000007	0.000024	0.000015	-4.704774	-75.714650	-2.443125
27303	9.549319	-0.204786	2.440069	-0.016539	-0.003133	0.045562	1.000000	0.000029	0.000022	0.000022	-4.706648	-75.714426	-2.441030
27304	9.564913	-0.188230	2.448830	-0.019091	0.014180	0.062493	1.000000	0.000030	0.000019	0.000011	-4.703371	-75.714560	-2.444345
27305	9.579696	-0.192868	2.430409	0.001666	0.007018	0.072383	1.000000	0.000030	0.000019	0.000011	-4.700118	-75.714718	-2.447455
27306	9.564774	-0.188464	2.449352	-0.019968	0.013885	0.062492	1.000000	0.000034	-0.000006	0.000024	-4.703345	-75.717726	-2.435219
27307	9.549026	-0.205298	2.441173	-0.018278	-0.003722	0.045559	1.000000	0.000027	0.000023	0.000003	-4.696803	-75.717556	-2.441994
27308	9.553345	-0.171537	2.436642	-0.008896	0.029145	0.047948	1.000000	0.000039	0.000003	0.000030	-4.701532	-75.719409	-2.433198
27309	9.567372	-0.197548	2.390825	0.035171	-0.002496	0.050803	1.000000	0.000014	0.000010	-0.000004	-4.693743	-75.720755	-2.442829
27310	9.552437	-0.193119	2.409821	0.013556	0.004372	0.040910	1.000000	0.000036	0.000009	0.000033	-4.700360	-75.721867	-2.442446
27311	9.552352	-0.193492	2.410128	0.013123	0.004223	0.040911	1.000000	0.000029	0.000022	0.000022	-4.702232	-75.721644	-2.440353
27312	9.555830	-0.181075	2.378551	0.045837	0.012598	0.036268	1.000000	0.000021	0.000016	0.000009	-4.699263	-75.722131	-2.449004
27313	9.563480	-0.210979	2.423968	0.000318	-0.011625	0.055451	1.000000	0.000032	0.000016	0.000018	-4.699293	-75.722615	-2.448455
27314	9.567762	-0.177240	2.419605	0.009721	0.021236	0.057845	1.000000	0.000035	0.000029	0.000016	-4.697594	-75.721650	-2.453043
27315	9.548362	-0.206603	2.443660	-0.021731	-0.004888	0.045552	1.000000	0.000041	0.000017	0.000008	-4.692196	-75.722113	-2.457046
27316	9.593739	-0.199194	2.414800	0.018067	-0.001639	0.082283	1.000000	0.000029	0.000022	0.000022	-4.694116	-75.721955	-2.453298
27317	9.536798	-0.189891	2.431483	-0.010651	0.010370	0.031014	1.000000	0.000009	0.000040	0.000024	-4.698520	-75.719683	-2.450900
27318	9.551543	-0.194796	2.413227	0.010089	0.003189	0.040915	1.000000	0.000032	0.000016	0.000018	-4.698562	-75.720204	-2.447080
27319	9.547855	-0.207612	2.445554	-0.023483	-0.005471	0.045547	1.000000	0.000029	0.000022	0.000022	-4.700432	-75.719981	-2.444991
27320	9.566234	-0.199876	2.395182	0.030410	-0.004151	0.050818	1.000000	0.000032	0.000016	0.000018	-4.700408	-75.720399	-2.452214
27321	9.547670	-0.207976	2.446245	-0.024341	-0.005762	0.045545	1.000000	0.000021	0.000016	0.000009	-4.697448	-75.720961	-2.455986
27322	9.562460	-0.212704	2.427840	-0.003601	-0.012951	0.055448	1.000000	0.000048	0.000023	0.000022	-4.696884	-75.720646	-2.451340
27323	9.551061	-0.195713	2.415061	0.007933	0.002446	0.040917	1.000000	0.000032	0.000016	0.000018	-4.696912	-75.721131	-2.450795
27324	9.555359	-0.161914	2.410676	0.017366	0.035298	0.043321	1.000000	0.000024	0.000029	0.000007	-4.692167	-75.720215	-2.460443
27325	9.562086	-0.212986	2.429284	-0.004900	-0.013394	0.055447	1.000000	0.000011	0.000035	0.000001	-4.686311	-75.718707	-2.468461
27326	9.535794	-0.191417	2.435295	-0.014512	0.009048	0.031010	1.000000	0.000028	0.000006	0.000032	-4.693143	-75.720145	-2.466931
27327	9.565483	-0.200996	2.398085	0.027394	-0.005204	0.050826	1.000000	0.000023	0.000031	0.000018	-4.693562	-75.718886	-2.466968
27328	9.550461	-0.196529	2.417365	0.005784	0.001704	0.040918	1.000000	0.000030	0.000019	0.000011	-4.690343	-75.719089	-2.466773
27329	9.562455	-0.192533	2.458075	-0.029907	0.010528	0.062471	1.000000	0.000029	0.000022	0.000022	-4.692210	-75.718866	-2.464688
27330	9.576433	-0.218779	2.412559	0.014103	-0.021188	0.065356	1.000000	0.000021	0.000018	0.000020	-4.694370	-75.719038	-2.464636
27331	9.561414	-0.214373	2.431806	-0.007498	-0.014278	0.055444	1.000000	0.000035	0.000029	0.000016	-4.692650	-75.718085	-2.465561
27332	9.561300	-0.214361	2.432258	-0.007927	-0.014427	0.055444	1.000000	0.000030	0.000017	-0.000001	-4.684231	-75.718597	-2.471207
27333	9.549933	-0.197367	2.419383	0.003624	0.000964	0.040919	1.000000	0.000004	0.000014	0.000028	-4.692119	-75.719201	-2.465885
27334	9.576834	-0.198173	2.441236	-0.010898	0.002733	0.072379	1.000000	0.000040	0.000019	0.000020	-4.691785	-75.719233	-2.466199
27335	9.550574	-0.176633	2.447118	-0.020505	0.025187	0.047942	1.000000	0.000026	0.000009	0.000024	-4.695398	-75.720447	-2.462648
27336	9.531203	-0.206126	2.470899	-0.051980	-0.000887	0.035610	1.000000	0.000027	0.000007	0.000013	-4.693835	-75.722032	-2.468037
27337	9.565376	-0.181641	2.428693	-0.000205	0.017826	0.057857	1.000000	0.000024	0.000013	0.000017	-4.694159	-75.722920	-2.468150
27338	9.565340	-0.181869	2.428820	-0.000628	0.017677	0.057857	1.000000	0.000021	-0.000000	0.000019	-4.696212	-75.725201	-2.473800
27339	9.549554	-0.198790	2.420763	0.001043	0.000073	0.040920	1.000000	0.000035	0.000029	0.000016	-4.694489	-75.724248	-2.474729
27340	9.561512	-0.194816	2.461564	-0.034652	0.008927	0.062457	1.000000	0.000029	0.000022	0.000022	-4.696375	-75.724031	-2.475100
27341	9.538048	-0.182001	2.408441	0.012178	0.015311	0.026403	1.000000	0.000021	0.000016	0.000009	-4.693409	-75.724593	-2.478879
27342	9.560565	-0.216459	2.434960	-0.012258	-0.015899	0.055437	1.000000	0.000032	-0.000003	0.000017	-4.693297	-75.727177	-2.488299
27343	9.576214	-0.199889	2.443528	-0.014791	0.001412	0.072374	1.000000	0.000027	0.000025	0.000014	-4.691870	-75.726627	-2.489885
27344	9.549119	-0.199674	2.422405	-0.001118	-0.000665	0.040920	1.000000	0.000042	0.000016	0.000028	-4.694865	-75.727038	-2.485113
27345	9.563951	-0.204466	2.403894	0.019600	-0.007899	0.050843	1.000000	0.000024	0.000010	0.000005	-4.690058	-75.728308	-2.490434
27346	9.560262	-0.217083	2.436091	-0.014000	-0.016487	0.055434	1.000000	0.000024	0.000013	0.000017	-4.690365	-75.729209	-2.488248
