// Start Time: Unknown
// Update Rate: 100.0Hz
// Filter Profile: human (46.1)
// Firmware Version: 4.4.0
PacketCounter	Acc_X	Acc_Y	Acc_Z	FreeAcc_X	FreeAcc_Y	FreeAcc_Z	OriInc_q0	OriInc_q1	OriInc_q2	OriInc_q3	Roll	Pitch	Yaw
54028	2.441920	-0.048131	12.905249	0.000000	0.000000	3.321647	1.000000	-0.000009	0.000041	-0.000073	-0.213977	-10.717040	-177.163835
54029	2.429617	-0.066211	12.893607	-0.000000	-0.000000	3.308003	1.000000	-0.000004	0.000059	-0.000068	-0.294714	-10.674640	-177.345265
54030	2.453534	-0.087505	12.903417	-0.017563	0.029439	3.322170	1.000000	-0.000005	0.000048	-0.000060	-0.253907	-10.692692	-177.268027
54031	2.427108	-0.065880	12.894081	0.006490	0.009123	3.307998	1.000000	-0.000009	0.000041	-0.000073	-0.253334	-10.688032	-177.276577
54032	2.468879	-0.079138	12.875245	-0.039639	0.020465	3.297293	1.000000	-0.000001	0.000047	-0.000067	-0.252147	-10.683281	-177.284331
54033	2.424750	-0.065425	12.894527	0.006623	0.009090	3.307998	1.000000	-0.000007	0.000050	-0.000071	-0.251369	-10.677609	-177.292597
54034	2.456198	-0.053702	12.897088	-0.024253	-0.003934	3.316291	1.000000	-0.000005	0.000029	-0.000072	-0.250473	-10.674347	-177.300957
54035	2.440339	-0.057030	12.866310	-0.015576	0.000138	3.283121	1.000000	-0.000007	0.000050	-0.000071	-0.249696	-10.668674	-177.309222
54036	2.432193	-0.046403	12.907092	-0.001090	-0.009629	3.321644	1.000000	0.000012	0.000070	-0.000055	-0.247174	-10.660801	-177.315714
54037	2.459006	-0.062907	12.857329	-0.038675	0.005818	3.277769	1.000000	-0.000001	0.000028	-0.000079	-0.245574	-10.657654	-177.324896
54038	2.418928	-0.064009	12.895628	0.006728	0.009066	3.307998	1.000000	-0.000011	0.000051	-0.000064	-0.245492	-10.652086	-177.332338
54039	2.450082	-0.052358	12.898257	-0.024159	-0.003946	3.316291	1.000000	-0.000007	0.000050	-0.000071	-0.244719	-10.646410	-177.340601
54040	2.431226	-0.060140	12.927082	-0.001871	0.004985	3.341168	1.000000	-0.000001	0.000047	-0.000067	-0.243423	-10.641417	-177.348392
54041	2.447624	-0.051883	12.898725	-0.024081	-0.003956	3.316291	1.000000	-0.000005	0.000048	-0.000060	-0.242727	-10.635924	-177.355378
54042	2.431714	-0.055136	12.867951	-0.015298	0.000105	3.283122	1.000000	0.000001	0.000037	-0.000076	-0.240993	-10.632227	-177.364263
54043	2.445373	-0.051144	12.899155	-0.023974	-0.003967	3.316291	1.000000	0.000006	0.000054	-0.000071	-0.238775	-10.626046	-177.372596
54044	2.443639	-0.094230	12.866091	-0.031437	0.039116	3.283649	1.000000	-0.000018	0.000044	-0.000059	-0.239586	-10.621740	-177.379498
54045	2.442799	-0.050950	12.899644	-0.023816	-0.003973	3.316292	1.000000	-0.000004	0.000059	-0.000068	-0.238611	-10.615049	-177.387475
54046	2.452179	-0.075706	12.878457	-0.038958	0.020358	3.297295	1.000000	-0.000005	0.000029	-0.000072	-0.237975	-10.612747	-177.395783
54047	2.429737	-0.068753	12.888138	-0.015827	0.014671	3.302647	1.000000	-0.000001	0.000047	-0.000067	-0.236626	-10.607411	-177.403581
54048	2.424692	-0.053714	12.869282	-0.014586	-0.000080	3.283122	1.000000	-0.000001	0.000047	-0.000067	-0.235886	-10.603450	-177.411269
54049	2.448856	-0.074765	12.879095	-0.038637	0.020236	3.297296	1.000000	0.000005	0.000044	-0.000063	-0.233956	-10.598459	-177.418605
54050	2.443815	-0.059808	12.860239	-0.037312	0.005482	3.277773	1.000000	-0.000010	0.000050	-0.000053	-0.234560	-10.594552	-177.424642
54051	2.446503	-0.074168	12.879545	-0.038230	0.020111	3.297298	1.000000	0.000014	0.000041	-0.000077	-0.231312	-10.589884	-177.433608
54052	2.445420	-0.073885	12.879753	-0.037692	0.019909	3.297299	1.000000	-0.000018	0.000044	-0.000059	-0.233081	-10.587201	-177.440339
54053	2.444222	-0.073578	12.879982	-0.037691	0.019909	3.297299	1.000000	0.000016	0.000050	-0.000074	-0.229631	-10.581523	-177.449020
54054	2.442909	-0.073166	12.880233	-0.036990	0.019613	3.297302	1.000000	-0.000012	0.000053	-0.000075	-0.230916	-10.578506	-177.457478
54055	2.441747	-0.073014	12.880455	-0.036986	0.019611	3.297302	1.000000	-0.000003	0.000038	-0.000069	-0.229790	-10.574195	-177.465551
54056	2.397684	-0.059399	12.899616	0.010015	0.008001	3.307997	1.000000	-0.000001	0.000047	-0.000067	-0.229607	-10.572002	-177.473043
54057	2.454313	-0.068949	12.911878	-0.044919	0.015306	3.330476	1.000000	-0.000009	0.000041	-0.000073	-0.229043	-10.567324	-177.481582
54058	2.442228	-0.087175	12.900182	-0.036315	0.033436	3.316834	1.000000	-0.000010	0.000050	-0.000053	-0.231748	-10.565256	-177.487482
54059	2.444268	-0.039342	12.874152	-0.042238	-0.014523	3.291426	1.000000	-0.000010	0.000043	-0.000084	-0.231142	-10.560388	-177.497284
54060	2.429340	-0.061846	12.922010	-0.019991	0.008518	3.335826	1.000000	0.000004	0.000046	-0.000074	-0.231656	-10.559201	-177.505596
54061	2.438625	-0.086312	12.900869	-0.035377	0.032902	3.316838	1.000000	0.000005	0.000056	-0.000082	-0.229412	-10.552803	-177.515181
54062	2.444367	-0.053174	12.893954	-0.040979	-0.000815	3.310960	1.000000	-0.000024	0.000047	-0.000063	-0.232729	-10.552818	-177.521860
54063	2.446993	-0.067890	12.913273	-0.041883	0.013802	3.330487	1.000000	-0.000002	0.000049	-0.000078	-0.231353	-10.547319	-177.530912
54064	2.430999	-0.071144	12.882498	-0.031984	0.017164	3.297318	1.000000	-0.000002	0.000049	-0.000078	-0.233390	-10.547061	-177.539640
54065	2.440655	-0.052599	12.894659	-0.039723	-0.001554	3.310964	1.000000	-0.000005	0.000048	-0.000060	-0.232779	-10.541592	-177.546592
54066	2.428692	-0.070852	12.882935	-0.031218	0.016662	3.297321	1.000000	-0.000017	0.000035	-0.000079	-0.235353	-10.540774	-177.555977
54067	2.448963	-0.077245	12.873713	-0.054346	0.022331	3.291985	1.000000	0.000010	0.000062	-0.000058	-0.233112	-10.533771	-177.562709
54068	2.458535	-0.058606	12.885895	-0.059938	0.002999	3.305640	1.000000	-0.000009	0.000041	-0.000073	-0.235792	-10.538502	-177.569918
54069	2.421257	-0.055142	12.864526	-0.028118	0.001366	3.277797	1.000000	0.000015	0.000040	-0.000066	-0.232756	-10.534149	-177.577557
54070	2.449296	-0.090920	12.893477	-0.051185	0.036000	3.311533	1.000000	-0.000015	0.000053	-0.000057	-0.234980	-10.536337	-177.582957
54071	2.451211	-0.042991	12.867471	-0.057075	-0.011971	3.286118	1.000000	0.000004	0.000046	-0.000074	-0.233097	-10.531352	-177.591521
54072	2.425266	-0.083668	12.903405	-0.026293	0.029231	3.316868	1.000000	0.000007	0.000053	-0.000060	-0.236052	-10.532619	-177.598600
54073	2.420252	-0.068576	12.884535	-0.025338	0.014573	3.297336	1.000000	-0.000003	0.000038	-0.000069	-0.235101	-10.528514	-177.606610
54074	2.462449	-0.038424	12.899162	-0.062864	-0.017356	3.319307	1.000000	-0.000015	0.000044	-0.000077	-0.236218	-10.528173	-177.615104
54075	2.443373	-0.089699	12.894610	-0.048235	0.034647	3.311548	1.000000	-0.000007	0.000050	-0.000071	-0.235610	-10.522677	-177.623303
54076	2.453086	-0.070932	12.906767	-0.053467	0.014738	3.325205	1.000000	0.000015	0.000040	-0.000066	-0.238326	-10.528993	-177.630278
54077	2.433266	-0.059343	12.856888	-0.043869	0.004163	3.272493	1.000000	-0.000004	0.000059	-0.000068	-0.237597	-10.522592	-177.638166
54078	2.461261	-0.052014	12.919219	-0.059070	-0.005009	3.338860	1.000000	-0.000011	0.000051	-0.000064	-0.242338	-10.525594	-177.645283
54079	2.445316	-0.055378	12.888424	-0.050355	-0.000978	3.305680	1.000000	0.000004	0.000046	-0.000074	-0.240637	-10.520777	-177.653785
54080	2.433231	-0.073465	12.876718	-0.040170	0.017585	3.292043	1.000000	-0.000011	0.000051	-0.000064	-0.241622	-10.525693	-177.659313
54081	2.432087	-0.073324	12.876935	-0.040059	0.017528	3.292043	1.000000	-0.000003	0.000038	-0.000069	-0.240769	-10.521825	-177.667289
54082	2.424189	-0.062697	12.917599	-0.022075	0.006475	3.330541	1.000000	0.000008	0.000044	-0.000081	-0.244466	-10.531854	-177.675374
54083	2.440569	-0.054162	12.889329	-0.044175	-0.002526	3.305702	1.000000	-0.000003	0.000057	-0.000057	-0.243963	-10.526009	-177.681939
54084	2.450077	-0.035501	12.901526	-0.049785	-0.022496	3.319355	1.000000	0.000004	0.000046	-0.000074	-0.248020	-10.529869	-177.691109
54085	2.448821	-0.078605	12.868430	-0.057306	0.020525	3.286766	1.000000	-0.000018	0.000044	-0.000059	-0.249246	-10.525584	-177.697860
54086	2.447792	-0.035141	12.901961	-0.046574	-0.022868	3.319366	1.000000	0.000008	0.000044	-0.000081	-0.248341	-10.533845	-177.704619
54087	2.457330	-0.059670	12.880822	-0.061805	0.001445	3.300428	1.000000	-0.000005	0.000048	-0.000060	-0.248104	-10.529144	-177.711445
54088	2.438281	-0.067554	12.909590	-0.035649	0.009862	3.325270	1.000000	0.000000	0.000058	-0.000075	-0.249394	-10.539546	-177.717074
54089	2.443939	-0.077431	12.869365	-0.049994	0.019568	3.286798	1.000000	-0.000003	0.000038	-0.000069	-0.248694	-10.536121	-177.725000
54090	2.421302	-0.070586	12.878983	-0.023266	0.013533	3.292089	1.000000	-0.000001	0.000047	-0.000067	-0.249508	-10.546490	-177.729517
54091	2.452321	-0.058552	12.881782	-0.053880	0.000423	3.300463	1.000000	-0.000003	0.000057	-0.000057	-0.249052	-10.541019	-177.736067
54092	2.429548	-0.051846	12.891420	-0.028717	-0.006235	3.305744	1.000000	-0.000006	0.000038	-0.000051	-0.253378	-10.545406	-177.742943
54093	2.439193	-0.033361	12.903594	-0.036163	-0.025051	3.319395	1.000000	-0.000008	0.000052	-0.000081	-0.253047	-10.540647	-177.752299
54094	2.452545	-0.072726	12.901571	-0.047542	0.013373	3.320034	1.000000	-0.000001	0.000047	-0.000067	-0.255204	-10.556894	-177.755804
54095	2.447501	-0.057632	12.882703	-0.046365	-0.001339	3.300492	1.000000	0.000004	0.000046	-0.000074	-0.253734	-10.553082	-177.764230
54096	2.439501	-0.090338	12.890045	-0.036098	0.030165	3.306397	1.000000	-0.000003	0.000038	-0.000069	-0.261387	-10.563368	-177.774598
54097	2.441439	-0.042345	12.864027	-0.041773	-0.017890	3.280958	1.000000	-0.000007	0.000050	-0.000070	-0.261266	-10.559094	-177.782636
54098	2.411750	-0.068566	12.880786	-0.009269	0.009599	3.292110	1.000000	0.000005	0.000044	-0.000063	-0.260399	-10.565059	-177.787671
54099	2.442885	-0.056448	12.883584	-0.039765	-0.003556	3.300513	1.000000	-0.000007	0.000050	-0.000070	-0.260277	-10.560880	-177.795710
54100	2.419919	-0.049719	12.893240	-0.013718	-0.009781	3.305766	1.000000	-0.000004	0.000059	-0.000068	-0.262222	-10.566843	-177.802177
54101	2.450838	-0.081083	12.862772	-0.051946	0.020185	3.281624	1.000000	-0.000017	0.000055	-0.000067	-0.263382	-10.562308	-177.809852
54102	2.442624	-0.070660	12.903465	-0.032513	0.008486	3.320084	1.000000	0.000008	0.000044	-0.000080	-0.270049	-10.578058	-177.819792
54103	2.426741	-0.073759	12.872641	-0.023570	0.012448	3.286880	1.000000	0.000006	0.000055	-0.000071	-0.268631	-10.573667	-177.827849
54104	2.436270	-0.055087	12.884842	-0.027349	-0.006860	3.300543	1.000000	-0.000009	0.000041	-0.000073	-0.271375	-10.586140	-177.833071
54105	2.456734	-0.061315	12.875675	-0.050037	-0.001335	3.295318	1.000000	0.000004	0.000046	-0.000073	-0.270196	-10.582960	-177.841400
54106	2.433888	-0.054551	12.885295	-0.023919	-0.008533	3.300549	1.000000	-0.000012	0.000053	-0.000074	-0.277329	-10.589709	-177.852620
54107	2.421822	-0.072810	12.873572	-0.015737	0.010001	3.286894	1.000000	-0.000007	0.000050	-0.000070	-0.277504	-10.586156	-177.860561
54108	2.467346	-0.057100	12.907512	-0.052528	-0.009282	3.328548	1.000000	-0.000004	0.000059	-0.000068	-0.286599	-10.590363	-177.874456
54109	2.401497	-0.080520	12.902535	0.009695	0.016543	3.311668	1.000000	0.000003	0.000035	-0.000065	-0.285987	-10.588679	-177.881697
54110	2.446532	-0.045300	12.857789	-0.039590	-0.021040	3.275792	1.000000	0.000006	0.000055	-0.000071	-0.289154	-10.596011	-177.890281
54111	2.431360	-0.067813	12.905607	-0.017455	0.002193	3.320115	1.000000	-0.000001	0.000047	-0.000066	-0.289021	-10.593162	-177.897669
54112	2.447861	-0.059292	12.877374	-0.037350	-0.007606	3.295358	1.000000	-0.000002	0.000049	-0.000077	-0.292103	-10.598297	-177.907381
54113	2.429015	-0.067213	12.906052	-0.014383	0.001020	3.320119	1.000000	-0.000003	0.000038	-0.000069	-0.292231	-10.596545	-177.915032
54114	2.423982	-0.052360	12.887171	-0.010237	-0.015180	3.300561	1.000000	-0.000012	0.000053	-0.000074	-0.299884	-10.605015	-177.925755
54115	2.458868	-0.055088	12.909138	-0.041220	-0.013910	3.328585	1.000000	-0.000004	0.000047	-0.000049	-0.300671	-10.602452	-177.930997
54116	2.421510	-0.051980	12.887637	-0.005630	-0.016187	3.300562	1.000000	0.000004	0.000046	-0.000073	-0.302544	-10.614593	-177.936584
54117	2.445704	-0.072702	12.897626	-0.028899	0.003800	3.314942	1.000000	0.000007	0.000053	-0.000060	-0.301859	-10.611504	-177.943150
54118	2.466097	-0.078876	12.888504	-0.050132	0.008933	3.309767	1.000000	-0.000009	0.000041	-0.000073	-0.304188	-10.615257	-177.951800
54119	2.403339	-0.054683	12.857230	0.006143	-0.013217	3.267342	1.000000	-0.000001	0.000047	-0.000066	-0.304339	-10.612941	-177.959093
54120	2.431110	-0.046990	12.919664	-0.009421	-0.022416	3.333781	1.000000	0.000000	0.000058	-0.000075	-0.306988	-10.612029	-177.970553
54121	2.447883	-0.081622	12.858117	-0.038940	0.011551	3.276557	1.000000	0.000003	0.000035	-0.000065	-0.306808	-10.611079	-177.977649
54122	2.439642	-0.071174	12.898782	-0.021840	0.001359	3.314956	1.000000	-0.000003	0.000057	-0.000057	-0.307809	-10.614908	-177.982480
54123	2.445440	-0.080860	12.858587	-0.035846	0.010890	3.276567	1.000000	0.000014	0.000042	-0.000076	-0.306122	-10.613329	-177.990910
54124	2.447961	-0.052037	12.911224	-0.024952	-0.018774	3.328620	1.000000	-0.000018	0.000044	-0.000059	-0.312322	-10.624970	-177.996028
54125	2.414744	-0.063874	12.908747	0.006647	-0.006084	3.320124	1.000000	-0.000001	0.000028	-0.000078	-0.312357	-10.625112	-178.004649
54126	2.431531	-0.055300	12.880486	-0.014694	-0.016136	3.295395	1.000000	-0.000001	0.000047	-0.000066	-0.316495	-10.624237	-178.016425
54127	2.434185	-0.069697	12.899821	-0.014677	-0.001918	3.314966	1.000000	-0.000001	0.000047	-0.000066	-0.316867	-10.622230	-178.023642
54128	2.429094	-0.054770	12.880948	-0.009923	-0.019053	3.295396	1.000000	-0.000005	0.000049	-0.000059	-0.328335	-10.633893	-178.034542
54129	2.438824	-0.079386	12.859853	-0.024630	0.005002	3.276596	1.000000	-0.000001	0.000047	-0.000066	-0.328864	-10.632029	-178.041707
54130	2.437201	-0.035821	12.893428	-0.014187	-0.038681	3.309051	1.000000	0.000001	0.000056	-0.000064	-0.329944	-10.636860	-178.047137
54131	2.457493	-0.041853	12.884355	-0.036524	-0.033371	3.303912	1.000000	0.000002	0.000048	-0.000084	-0.329762	-10.635051	-178.056376
54132	2.427846	-0.068200	12.901024	-0.003460	-0.006112	3.314973	1.000000	-0.000005	0.000049	-0.000059	-0.331076	-10.642679	-178.059648
54133	2.448263	-0.074332	12.891931	-0.025767	-0.000808	3.309840	1.000000	0.000004	0.000046	-0.000073	-0.330999	-10.641192	-178.067605
54134	2.436127	-0.049356	12.913472	-0.009038	-0.026864	3.328626	1.000000	-0.000018	0.000044	-0.000059	-0.339158	-10.641131	-178.080775
54135	2.435245	-0.092669	12.880379	-0.016068	0.015906	3.296190	1.000000	-0.000011	0.000052	-0.000063	-0.341069	-10.638964	-178.087544
54136	2.444599	-0.074092	12.892627	-0.023062	-0.003840	3.309845	1.000000	-0.000002	0.000049	-0.000077	-0.344267	-10.636047	-178.101068
54137	2.439447	-0.059224	12.873764	-0.021467	-0.018840	3.290266	1.000000	-0.000011	0.000052	-0.000063	-0.346227	-10.633847	-178.107820
54138	2.452675	-0.055347	12.905120	-0.027171	-0.022695	3.323505	1.000000	-0.000001	0.000047	-0.000066	-0.343795	-10.640204	-178.110050
54139	2.419465	-0.067016	12.902604	0.004507	-0.010090	3.314970	1.000000	0.000001	0.000027	-0.000067	-0.344285	-10.640913	-178.117267
54140	2.457858	-0.064739	12.865070	-0.038950	-0.013820	3.285159	1.000000	0.000007	0.000053	-0.000060	-0.345121	-10.644269	-178.123752
54141	2.445400	-0.039566	12.886662	-0.022534	-0.038706	3.303928	1.000000	-0.000004	0.000059	-0.000068	-0.346200	-10.641265	-178.131038
54142	2.437186	-0.072317	12.894041	-0.014098	-0.004855	3.309857	1.000000	0.000006	0.000055	-0.000071	-0.341763	-10.641852	-178.134729
54143	2.435937	-0.072081	12.894278	-0.013218	-0.005277	3.309858	1.000000	-0.000013	0.000043	-0.000066	-0.343867	-10.640765	-178.141782
54144	2.434745	-0.072007	12.894504	-0.010618	-0.006121	3.309860	1.000000	-0.000007	0.000050	-0.000070	-0.347278	-10.646356	-178.149008
54145	2.465765	-0.059676	12.897455	-0.040525	-0.019589	3.318416	1.000000	0.000004	0.000046	-0.000073	-0.347321	-10.644996	-178.156921
54146	2.432262	-0.071460	12.894975	-0.006758	-0.006932	3.309862	1.000000	-0.000011	0.000052	-0.000063	-0.349345	-10.652087	-178.160463
54147	2.431184	-0.071409	12.895179	-0.005836	-0.007367	3.309862	1.000000	-0.000011	0.000033	-0.000075	-0.351046	-10.652357	-178.168587
54148	2.440680	-0.052707	12.907405	-0.011528	-0.025317	3.323524	1.000000	0.000007	0.000053	-0.000060	-0.345593	-10.654829	-178.169133
54149	2.439407	-0.052242	12.907648	-0.010598	-0.025739	3.323524	1.000000	0.000004	0.000046	-0.000073	-0.345595	-10.653601	-178.177059
54150	2.456056	-0.043721	12.879463	-0.031131	-0.035128	3.298853	1.000000	-0.000013	0.000043	-0.000066	-0.348365	-10.657152	-178.184249
54151	2.426623	-0.070411	12.896044	-0.000110	-0.007952	3.309863	1.000000	-0.000007	0.000040	-0.000062	-0.349908	-10.656658	-178.190831
54152	2.425544	-0.070361	12.896247	0.002677	-0.009187	3.309862	1.000000	-0.000015	0.000045	-0.000077	-0.355865	-10.663681	-178.200266
54153	2.467635	-0.083102	12.877912	-0.042744	0.001788	3.299708	1.000000	-0.000011	0.000052	-0.000063	-0.357855	-10.661908	-178.207006
54154	2.444969	-0.076460	12.887387	-0.018138	-0.004334	3.304787	1.000000	0.000004	0.000027	-0.000085	-0.357637	-10.665029	-178.216550
54155	2.418413	-0.055210	12.877749	0.006715	-0.025039	3.290271	1.000000	-0.000016	0.000053	-0.000056	-0.360305	-10.663130	-178.222475
54156	2.442545	-0.076073	12.887849	-0.013815	-0.003063	3.304792	1.000000	0.000004	0.000057	-0.000082	-0.350756	-10.671734	-178.217582
54157	2.441275	-0.075609	12.888093	-0.012823	-0.003483	3.304793	1.000000	0.000006	0.000043	-0.000052	-0.350915	-10.671156	-178.222962
54158	2.440085	-0.075316	12.888320	-0.011088	-0.004452	3.304795	1.000000	-0.000007	0.000050	-0.000070	-0.354738	-10.672868	-178.233709
54159	2.467208	-0.048236	12.872200	-0.040187	-0.032487	3.293811	1.000000	0.000004	0.000046	-0.000073	-0.354775	-10.671907	-178.241620
54160	2.437487	-0.074746	12.888815	-0.006667	-0.005242	3.304797	1.000000	-0.000009	0.000061	-0.000061	-0.356564	-10.680089	-178.242572
54161	2.442820	-0.041371	12.881988	-0.012535	-0.038982	3.298873	1.000000	0.000005	0.000044	-0.000062	-0.356696	-10.679473	-178.249206
54162	2.413421	-0.067950	12.898534	0.018834	-0.013033	3.309846	1.000000	-0.000018	0.000038	-0.000090	-0.364440	-10.680605	-178.265990
54163	2.451828	-0.065903	12.861094	-0.025846	-0.016624	3.280158	1.000000	-0.000004	0.000047	-0.000048	-0.365974	-10.679681	-178.270980
54164	2.443228	-0.055478	12.901762	-0.009636	-0.026923	3.318462	1.000000	0.000004	0.000057	-0.000082	-0.365598	-10.678800	-178.280533
54165	2.438082	-0.040329	12.882889	-0.007924	-0.041924	3.298868	1.000000	0.000006	0.000043	-0.000051	-0.365897	-10.678384	-178.285866
54166	2.462442	-0.061055	12.892975	-0.029393	-0.022815	3.313423	1.000000	-0.000007	0.000050	-0.000070	-0.370591	-10.683063	-178.295218
54167	2.432656	-0.087726	12.909584	0.001751	0.004321	3.324392	1.000000	-0.000010	0.000062	-0.000072	-0.372413	-10.680458	-178.302909
54168	2.437862	-0.054467	12.902781	-0.002430	-0.030008	3.318458	1.000000	-0.000007	0.000050	-0.000070	-0.376597	-10.686538	-178.310900
54169	2.454273	-0.045917	12.874681	-0.023902	-0.039319	3.293832	1.000000	-0.000005	0.000059	-0.000068	-0.377879	-10.684339	-178.318114
54170	2.450302	-0.093357	12.901102	-0.015260	0.006857	3.319367	1.000000	0.000007	0.000034	-0.000072	-0.383302	-10.690799	-178.329968
54171	2.430295	-0.038863	12.884365	0.002764	-0.047186	3.298852	1.000000	-0.000007	0.000050	-0.000070	-0.384856	-10.689673	-178.337439
54172	2.444117	-0.078007	12.882428	-0.010959	-0.008686	3.299771	1.000000	0.000004	0.000046	-0.000073	-0.385470	-10.695639	-178.343637
54173	2.421206	-0.071392	12.891902	0.013324	-0.014888	3.304785	1.000000	-0.000005	0.000049	-0.000059	-0.387121	-10.694757	-178.349830
54174	2.459518	-0.069033	12.854533	-0.030579	-0.019243	3.275159	1.000000	0.000004	0.000046	-0.000073	-0.390904	-10.697457	-178.361745
54175	2.414883	-0.056105	12.873246	0.016911	-0.031169	3.285176	1.000000	-0.000007	0.000051	-0.000070	-0.392526	-10.696408	-178.369192
54176	2.449673	-0.058387	12.895420	-0.013030	-0.030809	3.313433	1.000000	-0.000002	0.000049	-0.000077	-0.396328	-10.697179	-178.381499
54177	2.448434	-0.058075	12.895657	-0.011938	-0.031326	3.313433	1.000000	-0.000001	0.000047	-0.000066	-0.397414	-10.696490	-178.388468
54178	2.418861	-0.084683	12.912196	0.019364	-0.004849	3.324377	1.000000	-0.000007	0.000051	-0.000070	-0.401767	-10.695776	-178.400457
54179	2.445960	-0.057536	12.896129	-0.009667	-0.032960	3.313431	1.000000	0.000005	0.000044	-0.000062	-0.402316	-10.695438	-178.406947
54180	2.455862	-0.081970	12.875101	-0.023230	-0.008493	3.294776	1.000000	-0.000005	0.000059	-0.000068	-0.401670	-10.697783	-178.411030
54181	2.432861	-0.075509	12.884574	0.001075	-0.014731	3.299770	1.000000	-0.000009	0.000042	-0.000073	-0.403572	-10.697806	-178.418731
54182	2.442360	-0.056708	12.896815	-0.004673	-0.032520	3.313435	1.000000	0.000007	0.000034	-0.000072	-0.396990	-10.701973	-178.418105
54183	2.463044	-0.062496	12.887790	-0.026769	-0.027323	3.308447	1.000000	0.000004	0.000046	-0.000073	-0.397398	-10.701520	-178.425885
54184	2.422966	-0.107436	12.892269	0.012233	0.018539	3.305713	1.000000	0.000001	0.000056	-0.000064	-0.398244	-10.700828	-178.434392
54185	2.438663	-0.055567	12.897519	-0.001127	-0.034047	3.313432	1.000000	-0.000005	0.000049	-0.000059	-0.399992	-10.700062	-178.440550
54186	2.437367	-0.055398	12.897765	0.000278	-0.034848	3.313430	1.000000	-0.000008	0.000052	-0.000081	-0.402908	-10.700183	-178.451717
54187	2.439966	-0.069912	12.917130	0.000760	-0.020842	3.333039	1.000000	-0.000004	0.000047	-0.000048	-0.404764	-10.699615	-178.456595
54188	2.452836	-0.046553	12.869882	-0.019844	-0.043977	3.288843	1.000000	0.000000	0.000039	-0.000087	-0.402073	-10.701100	-178.463591
54189	2.419392	-0.058302	12.867272	0.012024	-0.031434	3.280151	1.000000	0.000011	0.000060	-0.000046	-0.402274	-10.699003	-178.468254
54190	2.421919	-0.072729	12.886651	0.013708	-0.016658	3.299760	1.000000	-0.000015	0.000045	-0.000077	-0.401453	-10.704098	-178.471340
54191	2.442468	-0.078843	12.877669	-0.008381	-0.011464	3.294792	1.000000	-0.000001	0.000048	-0.000066	-0.402526	-10.703547	-178.478308
54192	2.451816	-0.060006	12.889943	-0.013760	-0.031581	3.308458	1.000000	0.000001	0.000037	-0.000076	-0.406995	-10.708657	-178.488342
54193	2.436387	-0.063528	12.858966	-0.004468	-0.027857	3.275178	1.000000	-0.000007	0.000051	-0.000070	-0.408703	-10.707814	-178.495755
54194	2.467591	-0.070412	12.940721	-0.019522	-0.022508	3.361352	1.000000	-0.000005	0.000049	-0.000059	-0.411255	-10.710366	-178.502688
54195	2.430081	-0.048257	12.840304	-0.000852	-0.043580	3.255561	1.000000	0.000014	0.000042	-0.000076	-0.410489	-10.710541	-178.510784
54196	2.451024	-0.073502	12.909961	-0.007979	-0.019131	3.328073	1.000000	-0.000018	0.000044	-0.000059	-0.413038	-10.715310	-178.514423
54197	2.449727	-0.073331	12.910208	-0.006825	-0.019664	3.328073	1.000000	0.000004	0.000057	-0.000082	-0.413251	-10.713825	-178.523159
54198	2.422771	-0.052016	12.900529	0.018566	-0.039921	3.313402	1.000000	-0.000001	0.000048	-0.000066	-0.412199	-10.715261	-178.527997
54199	2.433023	-0.076476	12.879471	0.004031	-0.015965	3.294789	1.000000	-0.000002	0.000037	-0.000058	-0.413619	-10.716053	-178.533952
54200	2.464050	-0.064011	12.882572	-0.025872	-0.029125	3.303515	1.000000	-0.000007	0.000051	-0.000070	-0.413349	-10.713952	-178.542216
54201	2.419394	-0.051327	12.901165	0.021715	-0.041070	3.313394	1.000000	-0.000004	0.000041	-0.000080	-0.414600	-10.714345	-178.550713
54202	2.440105	-0.057280	12.892178	0.000054	-0.035444	3.308455	1.000000	-0.000004	0.000041	-0.000080	-0.413902	-10.716566	-178.557474
54203	2.428590	-0.075574	12.880313	0.008730	-0.017193	3.294785	1.000000	-0.000004	0.000047	-0.000048	-0.415781	-10.716187	-178.562340
54204	2.441627	-0.071602	12.911752	0.002270	-0.021241	3.328072	1.000000	-0.000005	0.000049	-0.000059	-0.414328	-10.717913	-178.564308
54205	2.436314	-0.056735	12.892897	0.004031	-0.036284	3.308452	1.000000	-0.000007	0.000063	-0.000089	-0.415671	-10.715782	-178.573977
54206	2.438909	-0.071377	12.912267	0.004209	-0.021892	3.328071	1.000000	-0.000021	0.000037	-0.000072	-0.417186	-10.714911	-178.583347
54207	2.445209	-0.081352	12.872110	-0.009747	-0.012447	3.289855	1.000000	0.000001	0.000057	-0.000064	-0.418105	-10.713481	-178.590013
54208	2.422138	-0.074747	12.881532	0.014966	-0.017936	3.294779	1.000000	0.000004	0.000046	-0.000073	-0.415285	-10.714774	-178.595145
54209	2.453180	-0.062094	12.884655	-0.014609	-0.031533	3.303527	1.000000	-0.000003	0.000039	-0.000069	-0.416572	-10.715388	-178.602384
54210	2.452113	-0.061748	12.884860	-0.013660	-0.031983	3.303527	1.000000	0.000005	0.000045	-0.000062	-0.416760	-10.714416	-178.610432
54211	2.436652	-0.065290	12.853877	-0.004408	-0.028237	3.270235	1.000000	-0.000007	0.000051	-0.000070	-0.418447	-10.713663	-178.617846
54212	2.442046	-0.051226	12.925727	0.004539	-0.042312	3.341735	1.000000	-0.000008	0.000052	-0.000081	-0.417062	-10.716091	-178.622459
54213	2.448386	-0.060816	12.885573	-0.009430	-0.032859	3.303529	1.000000	0.000015	0.000040	-0.000065	-0.416319	-10.716553	-178.629296
54214	2.447357	-0.060405	12.885771	-0.008283	-0.032468	3.303530	1.000000	-0.000008	0.000040	-0.000062	-0.414191	-10.717050	-178.633637
54215	2.435925	-0.078649	12.873887	0.000380	-0.014197	3.289857	1.000000	0.000005	0.000045	-0.000062	-0.414672	-10.717011	-178.640137
54216	2.445051	-0.059834	12.886211	-0.005934	-0.033722	3.303528	1.000000	-0.000007	0.000051	-0.000070	-0.417355	-10.716363	-178.650023
54217	2.425899	-0.068080	12.914736	0.017879	-0.025431	3.328053	1.000000	-0.000001	0.000048	-0.000066	-0.418440	-10.715979	-178.656979
54218	2.476011	-0.090214	12.856243	-0.042417	-0.003688	3.280057	1.000000	-0.000005	0.000030	-0.000071	-0.415973	-10.718381	-178.661208
54219	2.441844	-0.059018	12.886823	-0.002290	-0.034389	3.303528	1.000000	0.000005	0.000045	-0.000062	-0.416451	-10.718351	-178.667707
54220	2.430179	-0.077218	12.874981	0.006352	-0.015831	3.289854	1.000000	-0.000005	0.000060	-0.000068	-0.416638	-10.716571	-178.675183
54221	2.468560	-0.074727	12.837803	-0.038371	-0.019453	3.260442	1.000000	-0.000009	0.000042	-0.000073	-0.418475	-10.716868	-178.682891
54222	2.434274	-0.043450	12.868392	0.002063	-0.049891	3.283900	1.000000	0.000015	0.000040	-0.000065	-0.416561	-10.718691	-178.688119
54223	2.436875	-0.057648	12.887770	0.002662	-0.035894	3.303524	1.000000	-0.000005	0.000060	-0.000068	-0.418015	-10.716970	-178.695260
54224	2.425316	-0.075866	12.875906	0.011838	-0.017845	3.289847	1.000000	0.000001	0.000038	-0.000076	-0.419681	-10.720052	-178.704455
54225	2.448732	-0.053116	12.919449	-0.002523	-0.041433	3.336821	1.000000	-0.000001	0.000048	-0.000066	-0.420762	-10.719708	-178.711409
54226	2.433146	-0.056807	12.888478	0.007444	-0.037836	3.303516	1.000000	-0.000009	0.000061	-0.000061	-0.423730	-10.721117	-178.718122
54227	2.435630	-0.071201	12.907878	0.008063	-0.023852	3.323143	1.000000	0.000002	0.000048	-0.000084	-0.424080	-10.720755	-178.727145
54228	2.438247	-0.066290	12.848583	0.001054	0.004362	3.265367	1.000000	-0.000006	0.000038	-0.000051	-0.277384	-10.753697	-177.254023
54229	2.455150	-0.076931	12.899180	-0.006543	0.014280	3.318279	1.000000	-0.000008	0.000053	-0.000081	-0.277727	-10.753092	-177.255486
54230	2.432243	-0.070425	12.908521	0.017967	0.008882	3.323152	1.000000	0.000007	0.000035	-0.000072	-0.277007	-10.754035	-177.253259
54231	2.449063	-0.061556	12.880468	-0.003242	-0.000788	3.298687	1.000000	-0.000007	0.000051	-0.000070	-0.277433	-10.753624	-177.253452
54232	2.447801	-0.061321	12.880708	-0.002251	-0.000062	3.298687	1.000000	-0.000001	0.000048	-0.000066	-0.273077	-10.752665	-177.270156
54233	2.428565	-0.069447	12.909219	0.021444	0.009197	3.323147	1.000000	0.000006	0.000055	-0.000071	-0.272064	-10.751728	-177.270405
54234	2.438865	-0.093819	12.888221	0.005827	0.032881	3.304553	1.000000	-0.000008	0.000040	-0.000062	-0.273239	-10.750599	-177.266341
54235	2.418498	-0.039719	12.871379	0.025346	-0.020407	3.283955	1.000000	-0.000010	0.000044	-0.000083	-0.273772	-10.751007	-177.268088
54236	2.442975	-0.060039	12.881631	0.002538	-0.001035	3.298687	1.000000	0.000016	0.000051	-0.000073	-0.271643	-10.751707	-177.267640
54237	2.441692	-0.059578	12.881876	0.003778	-0.001242	3.298686	1.000000	-0.000005	0.000049	-0.000059	-0.272153	-10.751488	-177.266562
54238	2.430303	-0.077921	12.869976	0.011585	0.017825	3.284956	1.000000	-0.000003	0.000039	-0.000069	-0.270686	-10.750838	-177.272610
54239	2.439326	-0.059150	12.882326	0.005878	-0.001336	3.298686	1.000000	-0.000003	0.000058	-0.000057	-0.271007	-10.749601	-177.271244
54240	2.437971	-0.058905	12.882584	0.007095	-0.001063	3.298685	1.000000	-0.000001	0.000048	-0.000066	-0.268711	-10.749528	-177.280585
54241	2.440691	-0.073419	12.901944	0.007411	0.013264	3.318280	1.000000	-0.000013	0.000043	-0.000066	-0.269994	-10.749980	-177.280255
54242	2.421391	-0.062511	12.851789	0.017416	0.003074	3.265356	1.000000	0.000001	0.000057	-0.000064	-0.269087	-10.748825	-177.282164
54243	2.412331	-0.052254	12.892409	0.034187	-0.006599	3.303527	1.000000	-0.000007	0.000051	-0.000070	-0.269515	-10.748406	-177.282352
54244	2.464961	-0.045594	12.886570	-0.018307	-0.015571	3.307572	1.000000	0.000004	0.000047	-0.000073	-0.268203	-10.748402	-177.285081
54245	2.435596	-0.072250	12.902914	0.012330	0.012673	3.318277	1.000000	0.000004	0.000047	-0.000073	-0.267382	-10.748475	-177.285613
54246	2.452438	-0.063343	12.874887	-0.009141	0.002798	3.293841	1.000000	-0.000003	0.000039	-0.000069	-0.268127	-10.748326	-177.281992
54247	2.441099	-0.081621	12.862976	-0.000986	0.021553	3.280108	1.000000	-0.000001	0.000048	-0.000066	-0.267972	-10.748249	-177.281717
54248	2.450219	-0.062784	12.875312	-0.006459	0.002330	3.293843	1.000000	-0.000003	0.000039	-0.000069	-0.268279	-10.750069	-177.280448
54249	2.441507	-0.052528	12.915859	0.010345	-0.007338	3.332006	1.000000	-0.000003	0.000039	-0.000069	-0.268313	-10.751009	-177.280458
54250	2.430097	-0.070725	12.903959	0.019007	0.012014	3.318269	1.000000	0.000007	0.000054	-0.000060	-0.264854	-10.752609	-177.292120
54251	2.446792	-0.061851	12.875969	-0.002229	0.002301	3.293844	1.000000	-0.000010	0.000044	-0.000083	-0.265388	-10.753007	-177.293861
54252	2.441716	-0.047058	12.857052	-0.000802	-0.012416	3.274246	1.000000	-0.000005	0.000049	-0.000059	-0.265658	-10.749567	-177.294400
54253	2.430441	-0.084947	12.923771	0.021067	0.025947	3.337864	1.000000	-0.000021	0.000037	-0.000072	-0.267714	-10.750687	-177.294816
54254	2.457442	-0.057593	12.907898	-0.007040	-0.003065	3.327180	1.000000	0.000012	0.000052	-0.000066	-0.267551	-10.750115	-177.287544
54255	2.424286	-0.069513	12.905058	0.024494	0.010690	3.318261	1.000000	0.000007	0.000035	-0.000072	-0.266335	-10.751543	-177.287896
54256	2.455265	-0.056590	12.908317	-0.004559	-0.003052	3.327181	1.000000	-0.000001	0.000048	-0.000066	-0.264277	-10.751529	-177.297957
54257	2.439914	-0.060284	12.877281	0.004490	0.001184	3.293844	1.000000	-0.000007	0.000051	-0.000070	-0.264708	-10.751102	-177.298140
54258	2.442769	-0.074736	12.896622	0.004918	0.015334	3.313443	1.000000	-0.000005	0.000030	-0.000071	-0.265709	-10.753511	-177.294554
54259	2.444105	-0.026836	12.870673	0.001134	-0.032901	3.287981	1.000000	-0.000016	0.000053	-0.000056	-0.267474	-10.752790	-177.293126
54260	2.418437	-0.068456	12.906162	0.030820	0.010143	3.318248	1.000000	0.000004	0.000057	-0.000081	-0.265409	-10.751734	-177.300200
54261	2.445208	-0.040960	12.890348	0.002706	-0.018570	3.307581	1.000000	-0.000005	0.000049	-0.000059	-0.265924	-10.751503	-177.299114
54262	2.433802	-0.059239	12.878442	0.011012	0.000237	3.293840	1.000000	0.000004	0.000047	-0.000073	-0.264982	-10.752439	-177.300776
54263	2.436444	-0.073573	12.897825	0.011329	0.014556	3.313440	1.000000	-0.000007	0.000051	-0.000070	-0.265414	-10.752009	-177.300957
54264	2.435179	-0.073341	12.898066	0.012723	0.014503	3.313439	1.000000	-0.000001	0.000048	-0.000066	-0.264610	-10.752623	-177.304639
54265	2.444138	-0.054471	12.910438	0.007110	-0.004684	3.327180	1.000000	0.000000	0.000046	-0.000055	-0.264542	-10.752734	-177.303089
54266	2.450772	-0.064093	12.870316	-0.007212	0.004407	3.289043	1.000000	0.000005	0.000045	-0.000062	-0.264444	-10.753309	-177.299044
54267	2.431614	-0.072252	12.898744	0.016521	0.013746	3.313436	1.000000	0.000002	0.000048	-0.000084	-0.263542	-10.753170	-177.300835
54268	2.426609	-0.057338	12.879808	0.018131	-0.000806	3.293832	1.000000	-0.000006	0.000039	-0.000051	-0.263420	-10.751774	-177.304231
54269	2.451193	-0.077866	12.890128	-0.004970	0.018483	3.308648	1.000000	-0.000008	0.000053	-0.000081	-0.263768	-10.751143	-177.305678
54270	2.424076	-0.056877	12.880287	0.020258	-0.000996	3.293829	1.000000	0.000007	0.000054	-0.000060	-0.261784	-10.748883	-177.311192
54271	2.436751	-0.052683	12.911841	0.013743	-0.005665	3.327174	1.000000	-0.000011	0.000052	-0.000063	-0.262885	-10.748303	-177.310566
54272	2.447213	-0.077142	12.890888	-0.001605	0.017620	3.308650	1.000000	0.000000	0.000046	-0.000055	-0.264862	-10.748328	-177.297751
54273	2.420135	-0.056182	12.881031	0.023982	-0.002066	3.293823	1.000000	0.000001	0.000057	-0.000063	-0.264525	-10.747218	-177.297178
54274	2.444460	-0.076501	12.891415	0.000968	0.017018	3.308651	1.000000	0.000002	0.000055	-0.000053	-0.265121	-10.746689	-177.291131
54275	2.439303	-0.061633	12.872506	0.003133	0.002291	3.289045	1.000000	-0.000010	0.000044	-0.000083	-0.265656	-10.747073	-177.292863
54276	2.448133	-0.042711	12.884908	-0.002434	-0.017123	3.302789	1.000000	0.000004	0.000057	-0.000081	-0.265516	-10.745867	-177.289068
54277	2.440569	-0.075464	12.892158	0.004684	0.016183	3.308651	1.000000	0.000004	0.000047	-0.000073	-0.264699	-10.745919	-177.289587
54278	2.453386	-0.071353	12.923691	-0.001773	0.011802	3.342002	1.000000	-0.000019	0.000046	-0.000069	-0.265226	-10.746198	-177.298282
54279	2.438286	-0.075268	12.892591	0.007194	0.016073	3.308650	1.000000	-0.000003	0.000039	-0.000068	-0.265262	-10.747122	-177.298283
54280	2.425386	-0.050474	12.913990	0.025542	-0.007819	3.327155	1.000000	-0.000005	0.000049	-0.000059	-0.264763	-10.748993	-177.304303
54281	2.439820	-0.089403	12.912191	0.009223	0.030427	3.328255	1.000000	0.000004	0.000047	-0.000073	-0.263946	-10.749043	-177.304820
54282	2.444855	-0.055946	12.905424	0.004614	-0.003765	3.322395	1.000000	-0.000015	0.000045	-0.000076	-0.267236	-10.749252	-177.293426
54283	2.433508	-0.074328	12.893499	0.012638	0.015030	3.308647	1.000000	0.000008	0.000052	-0.000049	-0.266403	-10.748678	-177.291119
54284	2.432165	-0.074011	12.893754	0.013733	0.014917	3.308646	1.000000	-0.000008	0.000053	-0.000081	-0.266306	-10.747426	-177.296135
54285	2.459036	-0.046594	12.877982	-0.014312	-0.013889	3.298035	1.000000	-0.000009	0.000042	-0.000072	-0.266926	-10.748003	-177.296597
54286	2.425845	-0.058855	12.875062	0.017427	-0.000523	3.289034	1.000000	0.000012	0.000053	-0.000066	-0.267707	-10.748528	-177.281590
54287	2.450455	-0.079019	12.885428	-0.005704	0.018693	3.303899	1.000000	-0.000003	0.000039	-0.000068	-0.267743	-10.749448	-177.281589
54288	2.423555	-0.058144	12.875497	0.019977	-0.000978	3.289031	1.000000	-0.000001	0.000048	-0.000066	-0.267816	-10.749645	-177.280212
54289	2.448113	-0.078443	12.885877	-0.003157	0.018231	3.303901	1.000000	-0.000001	0.000048	-0.000066	-0.267668	-10.749545	-177.279921
54290	2.434908	-0.053614	12.907314	0.014938	-0.006183	3.322386	1.000000	-0.000005	0.000060	-0.000067	-0.269274	-10.748718	-177.271252
54291	2.445481	-0.077882	12.886380	-0.000522	0.017518	3.303902	1.000000	0.000001	0.000038	-0.000075	-0.268643	-10.749780	-177.272053
54292	2.450537	-0.044359	12.879610	-0.004909	-0.016081	3.298040	1.000000	-0.000005	0.000049	-0.000059	-0.268605	-10.750356	-177.275352
54293	2.433137	-0.096087	12.874643	0.008874	0.036254	3.290153	1.000000	-0.000009	0.000042	-0.000072	-0.269225	-10.750928	-177.275812
54294	2.426250	-0.038202	12.889060	0.020875	-0.021356	3.302767	1.000000	-0.000011	0.000052	-0.000063	-0.270194	-10.749691	-177.276181
54295	2.440728	-0.077251	12.887285	0.004466	0.016848	3.303902	1.000000	0.000000	0.000046	-0.000055	-0.270132	-10.749786	-177.274621
54296	2.425651	-0.081044	12.856169	0.013235	0.021616	3.270538	1.000000	-0.000009	0.000042	-0.000072	-0.268641	-10.749878	-177.290644
54297	2.448451	-0.058282	12.899904	0.000090	-0.002116	3.317653	1.000000	-0.000007	0.000051	-0.000070	-0.269078	-10.749428	-177.290814
54298	2.437257	-0.076779	12.887945	0.008010	0.016493	3.303901	1.000000	-0.000006	0.000039	-0.000051	-0.270761	-10.750170	-177.282995
54299	2.458112	-0.082598	12.879158	-0.014205	0.021159	3.299185	1.000000	-0.000010	0.000044	-0.000083	-0.271297	-10.750539	-177.284719
54300	2.445155	-0.057612	12.900532	0.003966	-0.003203	3.317652	1.000000	0.000015	0.000041	-0.000065	-0.270519	-10.752042	-177.276115
54301	2.408051	-0.055078	12.878419	0.036302	-0.003755	3.288995	1.000000	0.000004	0.000058	-0.000081	-0.269436	-10.750858	-177.277602
54302	2.464493	-0.062459	12.892045	-0.017142	0.000829	3.312943	1.000000	0.000005	0.000045	-0.000062	-0.270495	-10.750420	-177.263929
54303	2.431373	-0.074727	12.889068	0.014253	0.014798	3.303898	1.000000	0.000004	0.000047	-0.000073	-0.269681	-10.750455	-177.264437
54304	2.436321	-0.041035	12.882318	0.009625	-0.019046	3.298033	1.000000	0.000005	0.000045	-0.000062	-0.269390	-10.750176	-177.261019
54305	2.447028	-0.065224	12.861386	-0.005908	0.004625	3.279578	1.000000	-0.000001	0.000048	-0.000066	-0.269244	-10.750066	-177.260723
54306	2.423945	-0.059015	12.870581	0.018853	-0.000323	3.284277	1.000000	-0.000006	0.000043	-0.000090	-0.268671	-10.750860	-177.267247
54307	2.458544	-0.060832	12.893189	-0.010986	-0.000217	3.312949	1.000000	-0.000016	0.000054	-0.000056	-0.270447	-10.750118	-177.265806
54308	2.435192	-0.054737	12.902429	0.013595	-0.005271	3.317645	1.000000	0.000004	0.000058	-0.000081	-0.269374	-10.748380	-177.267876
54309	2.464096	-0.070288	12.853348	-0.024487	0.008725	3.274887	1.000000	-0.000013	0.000025	-0.000077	-0.270362	-10.750984	-177.268908
54310	2.441167	-0.064130	12.862506	0.000117	0.003515	3.279579	1.000000	0.000007	0.000054	-0.000059	-0.270184	-10.749725	-177.261890
54311	2.453754	-0.059725	12.894107	-0.006244	-0.001229	3.312952	1.000000	-0.000001	0.000048	-0.000066	-0.270040	-10.749612	-177.261592
54312	2.416658	-0.057622	12.871957	0.025934	-0.001728	3.284265	1.000000	-0.000007	0.000051	-0.000070	-0.270488	-10.748590	-177.262267
54313	2.447308	-0.044641	12.875432	-0.002952	-0.016153	3.293334	1.000000	-0.000001	0.000048	-0.000066	-0.270344	-10.748476	-177.261968
54314	2.431952	-0.067617	12.922943	0.019635	0.007297	3.337255	1.000000	0.000004	0.000047	-0.000073	-0.271837	-10.747306	-177.243612
54315	2.422894	-0.038077	12.884859	0.022764	-0.021904	3.298013	1.000000	-0.000007	0.000051	-0.000070	-0.272278	-10.746847	-177.243776
54316	2.441227	-0.091660	12.902304	0.005075	0.030493	3.318820	1.000000	-0.000005	0.000060	-0.000067	-0.273587	-10.744432	-177.234481
54317	2.441922	-0.043731	12.876458	0.001574	-0.017757	3.293332	1.000000	-0.000017	0.000055	-0.000067	-0.275280	-10.743485	-177.234304
54318	2.448560	-0.072755	12.915003	0.001088	0.011078	3.332575	1.000000	0.000007	0.000035	-0.000071	-0.273890	-10.745595	-177.236491
54319	2.443595	-0.057720	12.896045	0.003276	-0.003624	3.312953	1.000000	-0.000001	0.000048	-0.000066	-0.273747	-10.745477	-177.236190
54320	2.420397	-0.051629	12.905226	0.027992	-0.008806	3.317620	1.000000	-0.000006	0.000049	-0.000059	-0.275124	-10.745144	-177.227462
54321	2.453065	-0.081875	12.875381	-0.011116	0.019609	3.294530	1.000000	-0.000006	0.000049	-0.000059	-0.275651	-10.744882	-177.226358
54322	2.421812	-0.065818	12.924857	0.029471	0.005227	3.337237	1.000000	0.000005	0.000045	-0.000062	-0.275168	-10.744829	-177.222992
54323	2.460438	-0.062602	12.888080	-0.015307	0.000079	3.308289	1.000000	-0.000006	0.000062	-0.000078	-0.275342	-10.743143	-177.224129
54324	2.454974	-0.047770	12.869215	-0.013243	-0.014563	3.288667	1.000000	-0.000005	0.000060	-0.000067	-0.275313	-10.741126	-177.226649
54325	2.415722	-0.093682	12.873148	0.023732	0.033072	3.285434	1.000000	-0.000009	0.000042	-0.000072	-0.275936	-10.741681	-177.227098
54326	2.434516	-0.055937	12.897770	0.011826	-0.005375	3.312947	1.000000	0.000014	0.000043	-0.000076	-0.274439	-10.742360	-177.222480
54327	2.433409	-0.055587	12.897980	0.013068	-0.005580	3.312946	1.000000	-0.000013	0.000044	-0.000065	-0.275732	-10.742773	-177.222127
54328	2.422432	-0.074063	12.885969	0.020756	0.013203	3.299187	1.000000	0.000002	0.000038	-0.000075	-0.275416	-10.743195	-177.219503
54329	2.453348	-0.060836	12.889440	-0.008076	-0.001312	3.308296	1.000000	0.000001	0.000038	-0.000075	-0.274787	-10.744234	-177.220290
54330	2.446143	-0.093894	12.896620	-0.001238	0.032159	3.314163	1.000000	-0.000013	0.000054	-0.000074	-0.275269	-10.743315	-177.226541
54331	2.425056	-0.039786	12.879658	0.018820	-0.020843	3.293314	1.000000	0.000014	0.000043	-0.000076	-0.273206	-10.743817	-177.227377
54332	2.449877	-0.059825	12.890104	-0.004438	-0.001963	3.308298	1.000000	-0.000006	0.000039	-0.000051	-0.274663	-10.744496	-177.218450
54333	2.422831	-0.039249	12.880078	0.021252	-0.021398	3.293310	1.000000	-0.000008	0.000053	-0.000081	-0.275021	-10.743824	-177.219873
54334	2.451228	-0.073972	12.909758	-0.002995	0.012312	3.327925	1.000000	0.000007	0.000054	-0.000059	-0.273216	-10.742669	-177.227485
54335	2.436101	-0.077569	12.878628	0.005755	0.016687	3.294538	1.000000	0.000002	0.000049	-0.000084	-0.272321	-10.742481	-177.229246
54336	2.466695	-0.064400	12.882179	-0.023196	0.002174	3.303666	1.000000	-0.000007	0.000051	-0.000070	-0.272605	-10.741423	-177.230978
54337	2.429761	-0.062438	12.859924	0.009045	0.001818	3.274909	1.000000	-0.000003	0.000039	-0.000068	-0.272646	-10.742316	-177.230960
54338	2.442470	-0.057943	12.891519	0.002814	-0.003339	3.308298	1.000000	0.000008	0.000046	-0.000080	-0.272806	-10.742509	-177.215896
54339	2.431381	-0.076262	12.879528	0.010594	0.015533	3.294536	1.000000	-0.000004	0.000048	-0.000048	-0.273423	-10.742441	-177.213521
54340	2.418045	-0.051638	12.900886	0.028807	-0.008325	3.312920	1.000000	-0.000006	0.000050	-0.000059	-0.273320	-10.742228	-177.218949
54341	2.460935	-0.062837	12.883288	-0.016959	0.000903	3.303676	1.000000	0.000012	0.000034	-0.000078	-0.271438	-10.743745	-177.220070
54342	2.424095	-0.060608	12.861002	0.015400	0.000484	3.274903	1.000000	-0.000002	0.000050	-0.000077	-0.271663	-10.743964	-177.216553
54343	2.440506	-0.070906	12.911807	0.008207	0.010168	3.327924	1.000000	-0.000006	0.000050	-0.000059	-0.272194	-10.743692	-177.215441
54344	2.457331	-0.061878	12.883981	-0.012944	0.000306	3.303680	1.000000	-0.000001	0.000048	-0.000066	-0.271550	-10.744289	-177.220712
54345	2.455979	-0.061561	12.884240	-0.011703	0.000098	3.303682	1.000000	0.000001	0.000057	-0.000063	-0.271232	-10.743135	-177.220112
54346	2.418953	-0.059708	12.861974	0.020251	-0.000299	3.274897	1.000000	-0.000012	0.000042	-0.000055	-0.272964	-10.742571	-177.214436
54347	2.431558	-0.055415	12.893592	0.014027	-0.005104	3.308290	1.000000	0.000002	0.000049	-0.000083	-0.272071	-10.742375	-177.216192
54348	2.402521	-0.082500	12.909629	0.044527	0.023630	3.318759	1.000000	0.000003	0.000036	-0.000064	-0.271295	-10.744466	-177.217927
54349	2.465037	-0.056551	12.916542	-0.014262	-0.005365	3.337081	1.000000	-0.000017	0.000056	-0.000067	-0.272995	-10.743503	-177.217741
54350	2.440168	-0.079027	12.873150	0.000716	0.018270	3.289920	1.000000	0.000014	0.000043	-0.000076	-0.270227	-10.743080	-177.226301
54351	2.426967	-0.054066	12.894463	0.018973	-0.005711	3.308283	1.000000	-0.000003	0.000039	-0.000068	-0.270269	-10.743966	-177.226279
54352	2.447856	-0.059490	12.885796	-0.003283	-0.001407	3.303686	1.000000	0.000004	0.000047	-0.000073	-0.270245	-10.744009	-177.217962
54353	2.446747	-0.059139	12.886008	-0.002041	-0.001613	3.303687	1.000000	-0.000003	0.000039	-0.000068	-0.270288	-10.744894	-177.217938
54354	2.449514	-0.073539	12.905399	-0.002044	0.012713	3.323320	1.000000	-0.000006	0.000050	-0.000059	-0.270529	-10.743364	-177.220581
54355	2.454452	-0.039993	12.898649	-0.006327	-0.021067	3.317453	1.000000	0.000001	0.000028	-0.000067	-0.270166	-10.745613	-177.220384
54356	2.433805	-0.077149	12.874366	0.007816	0.016694	3.289920	1.000000	-0.000006	0.000050	-0.000059	-0.271682	-10.745072	-177.208558
54357	2.420357	-0.052545	12.895712	0.026108	-0.007269	3.308270	1.000000	-0.000006	0.000050	-0.000059	-0.272216	-10.744793	-177.207442
54358	2.422923	-0.066756	12.915140	0.026442	0.006935	3.327902	1.000000	0.000010	0.000055	-0.000077	-0.270897	-10.744110	-177.204890
54359	2.461670	-0.063265	12.878495	-0.018407	0.001563	3.299106	1.000000	-0.000007	0.000051	-0.000070	-0.271345	-10.743626	-177.205039
54360	2.442404	-0.071902	12.906756	0.005569	0.011141	3.323320	1.000000	-0.000003	0.000040	-0.000068	-0.271604	-10.745229	-177.202851
54361	2.459399	-0.062701	12.878932	-0.015758	0.001106	3.299109	1.000000	0.000004	0.000047	-0.000073	-0.270798	-10.745227	-177.203337
54362	2.436008	-0.056632	12.888054	0.009069	-0.003868	3.303683	1.000000	-0.000005	0.000060	-0.000067	-0.271634	-10.743944	-177.196799
54363	2.438483	-0.071045	12.907502	0.009350	0.010403	3.323319	1.000000	-0.000007	0.000051	-0.000070	-0.272082	-10.743458	-177.196947
54364	2.423481	-0.075008	12.876326	0.017794	0.014852	3.289913	1.000000	-0.000006	0.000050	-0.000059	-0.272474	-10.742329	-177.198244
54365	2.422534	-0.074917	12.876505	0.019031	0.014650	3.289911	1.000000	-0.000013	0.000025	-0.000077	-0.273457	-10.744908	-177.199260
54366	2.453315	-0.061672	12.880097	-0.009630	-0.000143	3.299115	1.000000	0.000006	0.000056	-0.000070	-0.272977	-10.744128	-177.193824
54367	2.429938	-0.055629	12.889204	0.015145	-0.004973	3.303677	1.000000	-0.000006	0.000050	-0.000059	-0.273513	-10.743844	-177.192706
54368	2.428757	-0.055497	12.889427	0.016324	-0.005246	3.303676	1.000000	-0.000009	0.000043	-0.000072	-0.274440	-10.744088	-177.189905
54369	2.449639	-0.061021	12.880800	-0.005971	-0.000833	3.299118	1.000000	0.000000	0.000047	-0.000055	-0.274393	-10.744146	-177.188322
54370	2.452308	-0.075319	12.900215	-0.005763	0.013416	3.318757	1.000000	-0.000002	0.000050	-0.000077	-0.274233	-10.743488	-177.188916
54371	2.447266	-0.060365	12.881254	-0.003559	-0.001261	3.299118	1.000000	0.000002	0.000038	-0.000075	-0.273607	-10.744502	-177.189687
54372	2.459957	-0.055990	12.912874	-0.009843	-0.006073	3.332529	1.000000	-0.000006	0.000039	-0.000051	-0.274201	-10.744757	-177.190267
54373	2.445235	-0.060015	12.881642	-0.001235	-0.001633	3.299119	1.000000	-0.000009	0.000043	-0.000072	-0.274829	-10.745288	-177.190701
54374	2.438256	-0.093272	12.888780	0.005435	0.031765	3.304988	1.000000	-0.000015	0.000046	-0.000076	-0.275968	-10.745459	-177.193197
54375	2.460874	-0.050971	12.854103	-0.021337	-0.011898	3.274935	1.000000	-0.000005	0.000060	-0.000067	-0.276243	-10.743944	-177.193050
54376	2.423207	-0.068494	12.910392	0.025083	0.007552	3.323300	1.000000	-0.000002	0.000050	-0.000076	-0.276429	-10.743657	-177.189363
54377	2.422071	-0.068137	12.910607	0.026325	0.007350	3.323298	1.000000	0.000002	0.000038	-0.000075	-0.275802	-10.744667	-177.190132
54378	2.439102	-0.058818	12.882810	0.004907	-0.002639	3.299118	1.000000	0.000004	0.000047	-0.000073	-0.274565	-10.744334	-177.196934
54379	2.437776	-0.058354	12.883063	0.006148	-0.002843	3.299117	1.000000	0.000006	0.000056	-0.000070	-0.273585	-10.743298	-177.197122
54380	2.436709	-0.058241	12.883265	0.007357	-0.003014	3.299117	1.000000	-0.000022	0.000027	-0.000063	-0.275749	-10.745462	-177.199101
54381	2.447836	-0.082525	12.862408	-0.008579	0.020489	3.280813	1.000000	0.000008	0.000065	-0.000067	-0.274594	-10.743402	-177.198997
54382	2.424415	-0.076520	12.871488	0.016237	0.015590	3.285341	1.000000	-0.000009	0.000043	-0.000072	-0.275744	-10.744043	-177.193447
54383	2.436892	-0.072167	12.903154	0.010149	0.010725	3.318757	1.000000	-0.000001	0.000049	-0.000066	-0.275613	-10.743888	-177.193124
54384	2.441537	-0.038636	12.896460	0.005948	-0.023114	3.312887	1.000000	-0.000009	0.000043	-0.000072	-0.276415	-10.744184	-177.192108
54385	2.434674	-0.071772	12.903575	0.012580	0.010276	3.318755	1.000000	-0.000003	0.000040	-0.000068	-0.276460	-10.745051	-177.192075
54386	2.455675	-0.077253	12.894965	-0.009659	0.014403	3.314237	1.000000	-0.000009	0.000043	-0.000072	-0.278131	-10.745865	-177.178581
54387	2.440844	-0.081262	12.863744	-0.001110	0.018867	3.280818	1.000000	-0.000007	0.000052	-0.000070	-0.278585	-10.745365	-177.178720
54388	2.462961	-0.058083	12.907699	-0.013576	-0.005147	3.328014	1.000000	0.000006	0.000044	-0.000051	-0.277955	-10.745486	-177.177409
54389	2.425977	-0.056123	12.885300	0.018528	-0.005230	3.299105	1.000000	0.000004	0.000058	-0.000081	-0.276891	-10.744237	-177.178856
54390	2.442870	-0.046817	12.857553	-0.002712	-0.015285	3.274949	1.000000	-0.000003	0.000040	-0.000068	-0.276678	-10.745600	-177.182688
54391	2.459208	-0.056806	12.908420	-0.009733	-0.005704	3.328017	1.000000	0.000011	0.000053	-0.000066	-0.275118	-10.744898	-177.182406
54392	2.422344	-0.054882	12.885989	0.022496	-0.005839	3.299098	1.000000	-0.000003	0.000040	-0.000068	-0.275489	-10.746325	-177.177880
54393	2.447154	-0.074907	12.896599	-0.000795	0.012956	3.314242	1.000000	-0.000007	0.000052	-0.000070	-0.275943	-10.745822	-177.178017
54394	2.441957	-0.060096	12.877658	0.001446	-0.001739	3.294595	1.000000	-0.000001	0.000049	-0.000066	-0.275950	-10.745792	-177.176147
54395	2.418838	-0.054267	12.886650	0.026252	-0.006473	3.299091	1.000000	-0.000011	0.000034	-0.000075	-0.276755	-10.747334	-177.176865
54396	2.465529	-0.079815	12.888515	-0.020557	0.016887	3.309748	1.000000	0.000011	0.000072	-0.000054	-0.275316	-10.744677	-177.178073
54397	2.451893	-0.055131	12.909819	-0.002052	-0.006990	3.328020	1.000000	-0.000013	0.000025	-0.000077	-0.276296	-10.747241	-177.179081
54398	2.437303	-0.058973	12.878545	0.006567	-0.002471	3.294593	1.000000	0.000011	0.000053	-0.000066	-0.274590	-10.747015	-177.181235
54399	2.449566	-0.054421	12.910263	0.000545	-0.007362	3.328020	1.000000	-0.000006	0.000050	-0.000059	-0.275133	-10.746714	-177.180107
54400	2.434837	-0.058398	12.879014	0.009093	-0.002926	3.294592	1.000000	-0.000003	0.000040	-0.000068	-0.275402	-10.747757	-177.177399
54401	2.443499	-0.039312	12.891486	0.004048	-0.022278	3.308370	1.000000	0.000002	0.000039	-0.000075	-0.274776	-10.748752	-177.178160
54402	2.440687	-0.086824	12.917767	0.009518	0.025542	3.333889	1.000000	0.000002	0.000039	-0.000075	-0.274301	-10.749230	-177.176753
54403	2.421953	-0.076135	12.867346	0.018976	0.015576	3.280809	1.000000	-0.000004	0.000059	-0.000056	-0.274671	-10.747904	-177.175333
54404	2.462087	-0.044096	12.883377	-0.015777	-0.018466	3.303891	1.000000	-0.000006	0.000039	-0.000050	-0.275667	-10.749388	-177.169718
54405	2.432995	-0.071681	12.899296	0.014339	0.010439	3.314236	1.000000	-0.000005	0.000061	-0.000067	-0.275949	-10.747855	-177.169560
54406	2.449825	-0.062627	12.871592	-0.006962	0.000259	3.290113	1.000000	-0.000013	0.000044	-0.000065	-0.277333	-10.748505	-177.168039
54407	2.430473	-0.071466	12.899772	0.016884	0.010018	3.314233	1.000000	-0.000001	0.000049	-0.000066	-0.277206	-10.748336	-177.167708
54408	2.415673	-0.075364	12.868531	0.025403	0.014473	3.280799	1.000000	-0.000001	0.000049	-0.000066	-0.277302	-10.748383	-177.163442
54409	2.446283	-0.061851	12.872269	-0.003191	-0.000404	3.290115	1.000000	0.000002	0.000039	-0.000075	-0.276676	-10.749373	-177.164200
54410	2.445260	-0.061511	12.872465	-0.002007	-0.000645	3.290115	1.000000	-0.000004	0.000042	-0.000079	-0.276782	-10.749766	-177.163756
54411	2.444007	-0.061133	12.872705	-0.000767	-0.000850	3.290115	1.000000	0.000005	0.000056	-0.000070	-0.275810	-10.748708	-177.163931
54412	2.430236	-0.036620	12.894001	0.017809	-0.024754	3.308354	1.000000	-0.000018	0.000045	-0.000058	-0.278082	-10.748884	-177.158481
54413	2.423208	-0.069808	12.901148	0.024313	0.008659	3.314223	1.000000	0.000004	0.000058	-0.000081	-0.277022	-10.747618	-177.159917
54414	2.430533	-0.079140	12.861146	0.009107	0.017636	3.276332	1.000000	0.000002	0.000039	-0.000075	-0.276376	-10.748321	-177.161532
54415	2.452636	-0.055902	12.905125	-0.003083	-0.006447	3.323551	1.000000	-0.000009	0.000043	-0.000072	-0.277008	-10.748829	-177.161953
54416	2.428332	-0.078673	12.861564	0.011490	0.017195	3.276331	1.000000	-0.000001	0.000049	-0.000066	-0.277024	-10.748259	-177.160195
54417	2.440627	-0.074102	12.893287	0.005533	0.012274	3.309768	1.000000	0.000003	0.000048	-0.000072	-0.276227	-10.748220	-177.160659
54418	2.413465	-0.053601	12.883057	0.031282	-0.006994	3.294556	1.000000	-0.000004	0.000042	-0.000079	-0.276929	-10.748568	-177.148986
54419	2.434313	-0.058795	12.874552	0.008931	-0.002750	3.290112	1.000000	0.000005	0.000056	-0.000070	-0.275959	-10.747504	-177.149157
54420	2.436794	-0.073187	12.894018	0.009159	0.011558	3.309766	1.000000	-0.000017	0.000056	-0.000067	-0.277382	-10.746373	-177.154720
54421	2.431550	-0.058456	12.875076	0.011377	-0.003093	3.290110	1.000000	0.000003	0.000048	-0.000072	-0.276585	-10.746331	-177.155181
54422	2.430379	-0.058251	12.875298	0.012555	-0.003362	3.290109	1.000000	-0.000013	0.000044	-0.000065	-0.278176	-10.746410	-177.149748
54423	2.433060	-0.072832	12.894725	0.012816	0.010882	3.309764	1.000000	-0.000012	0.000053	-0.000063	-0.279309	-10.745754	-177.149077
54424	2.441295	-0.053963	12.907284	0.007862	-0.008542	3.323548	1.000000	-0.000007	0.000052	-0.000069	-0.279967	-10.745185	-177.146506
54425	2.448643	-0.063427	12.867297	-0.007330	0.000411	3.285677	1.000000	0.000003	0.000048	-0.000072	-0.279171	-10.745141	-177.146966
54426	2.460800	-0.058744	12.899054	-0.013427	-0.004529	3.319121	1.000000	0.000005	0.000057	-0.000070	-0.278167	-10.743296	-177.148541
54427	2.423886	-0.056968	12.876528	0.018571	-0.004418	3.290101	1.000000	0.000005	0.000046	-0.000062	-0.277460	-10.743458	-177.147738
54428	2.426674	-0.071266	12.895937	0.018983	0.008710	3.309758	1.000000	-0.000009	0.000043	-0.000072	-0.283083	-10.744369	-177.157305
54429	2.412178	-0.075240	12.864624	0.027370	0.013243	3.276312	1.000000	0.000003	0.000037	-0.000064	-0.282568	-10.745550	-177.156804
54430	2.442670	-0.061852	12.868440	-0.001217	-0.001716	3.285679	1.000000	-0.000017	0.000056	-0.000067	-0.284225	-10.744309	-177.158501
54431	2.432692	-0.051933	12.908916	0.016485	-0.011079	3.323538	1.000000	0.000003	0.000048	-0.000072	-0.283451	-10.744257	-177.158970
54432	2.466260	-0.081513	12.879389	-0.023344	0.016800	3.300928	1.000000	-0.000008	0.000041	-0.000061	-0.283814	-10.744869	-177.164025
54433	2.416938	-0.055698	12.877839	0.026080	-0.006666	3.290087	1.000000	-0.000001	0.000049	-0.000065	-0.283713	-10.744680	-177.163696
54434	2.441893	-0.075667	12.888530	0.002758	0.011999	3.305340	1.000000	-0.000017	0.000037	-0.000079	-0.285009	-10.745950	-177.166115
54435	2.453402	-0.099948	12.867710	-0.013461	0.035378	3.287149	1.000000	-0.000004	0.000048	-0.000048	-0.285669	-10.745834	-177.163725
54436	2.453869	-0.051733	12.841870	-0.016400	-0.012911	3.261613	1.000000	0.000003	0.000048	-0.000072	-0.284946	-10.745864	-177.163493
54437	2.434272	-0.060464	12.870037	0.007470	-0.003077	3.285677	1.000000	-0.000005	0.000061	-0.000067	-0.285259	-10.744306	-177.163334
54438	2.450454	-0.070661	12.920977	0.000662	0.006306	3.338788	1.000000	-0.000010	0.000032	-0.000064	-0.286605	-10.746199	-177.155378
54439	2.450395	-0.051042	12.842536	-0.012641	-0.013640	3.261617	1.000000	0.000002	0.000039	-0.000075	-0.286002	-10.747166	-177.156136
54440	2.444503	-0.055513	12.902167	0.004029	-0.008591	3.319125	1.000000	-0.000001	0.000049	-0.000065	-0.286061	-10.746542	-177.152473
54441	2.443227	-0.055211	12.902410	0.005272	-0.008800	3.319124	1.000000	-0.000002	0.000051	-0.000076	-0.285872	-10.746140	-177.153403
54442	2.419108	-0.078058	12.858787	0.019612	0.014975	3.271883	1.000000	-0.000008	0.000041	-0.000061	-0.286464	-10.746323	-177.155956
54443	2.431415	-0.073844	12.890522	0.013753	0.010008	3.305334	1.000000	-0.000019	0.000047	-0.000069	-0.288377	-10.746334	-177.156046
54444	2.452517	-0.079073	12.882028	-0.008633	0.014112	3.300949	1.000000	0.000012	0.000035	-0.000078	-0.286769	-10.747733	-177.152296
54445	2.433309	-0.087742	12.910107	0.015242	0.023973	3.324997	1.000000	-0.000009	0.000043	-0.000072	-0.287425	-10.748220	-177.152718
54446	2.433703	-0.039516	12.884275	0.012287	-0.024310	3.299454	1.000000	0.000007	0.000055	-0.000059	-0.286585	-10.747105	-177.151400
54447	2.436298	-0.053702	12.903726	0.012549	-0.010084	3.319118	1.000000	-0.000001	0.000049	-0.000065	-0.286487	-10.746908	-177.151065
54448	2.417860	-0.043060	12.853206	0.021815	-0.019921	3.265995	1.000000	0.000003	0.000037	-0.000064	-0.285806	-10.747948	-177.153639
54449	2.442840	-0.062761	12.863933	-0.001547	-0.001340	3.281287	1.000000	-0.000001	0.000049	-0.000065	-0.285708	-10.747750	-177.153304
54450	2.458791	-0.072828	12.914928	-0.008285	0.008076	3.334411	1.000000	-0.000004	0.000059	-0.000056	-0.286288	-10.746704	-177.147827
54451	2.409395	-0.047045	12.913304	0.041186	-0.015258	3.323480	1.000000	-0.000002	0.000032	-0.000088	-0.285768	-10.748480	-177.150134
54452	2.417195	-0.056525	12.873274	0.025878	-0.006352	3.285652	1.000000	-0.000009	0.000043	-0.000072	-0.286464	-10.749015	-177.149572
54453	2.460259	-0.067164	12.856163	-0.020135	0.002119	3.276923	1.000000	0.000007	0.000055	-0.000059	-0.285612	-10.748132	-177.148479
54454	2.428060	-0.051675	12.905287	0.021266	-0.011587	3.319106	1.000000	-0.000010	0.000045	-0.000083	-0.286383	-10.748225	-177.146349
54455	2.435577	-0.061326	12.865316	0.005929	-0.002683	3.281285	1.000000	-0.000012	0.000053	-0.000063	-0.287543	-10.747547	-177.145680
54456	2.394029	-0.064781	12.902071	0.053440	0.002826	3.309666	1.000000	0.000003	0.000037	-0.000064	-0.287312	-10.748689	-177.139519
54457	2.437257	-0.075351	12.884946	0.007419	0.011269	3.300953	1.000000	-0.000001	0.000049	-0.000065	-0.287215	-10.748486	-177.139181
54458	2.410014	-0.055152	12.874626	0.033295	-0.007697	3.285634	1.000000	-0.000008	0.000041	-0.000061	-0.288013	-10.749265	-177.137589
54459	2.444533	-0.056076	12.897700	0.003869	-0.008373	3.314744	1.000000	0.000002	0.000039	-0.000075	-0.287412	-10.750219	-177.138339
54460	2.439327	-0.041219	12.878740	0.006066	-0.022998	3.295074	1.000000	-0.000005	0.000061	-0.000067	-0.287674	-10.748516	-177.138954
54461	2.473035	-0.070798	12.849309	-0.033922	0.004630	3.272590	1.000000	-0.000010	0.000032	-0.000064	-0.288590	-10.750229	-177.138403
54462	2.407656	0.022112	12.901966	0.044641	-0.084876	3.311673	1.000000	-0.000007	0.000052	-0.000069	-0.288986	-10.749281	-177.140076
54463	2.303876	-0.127679	12.871504	0.133422	0.069704	3.263134	1.000000	0.000005	0.000046	-0.000061	-0.288306	-10.749417	-177.139272
54464	2.559540	-0.034677	12.920456	-0.103667	-0.035389	3.358442	1.000000	-0.000003	0.000040	-0.000068	-0.288255	-10.750233	-177.141358
54465	2.416484	-0.168936	12.847858	0.016700	0.105264	3.261104	1.000000	-0.000016	0.000048	-0.000087	-0.289409	-10.750157	-177.143500
54466	2.449765	-0.050297	12.930794	0.005456	-0.014537	3.348204	1.000000	0.000003	0.000037	-0.000064	-0.288747	-10.751426	-177.145886
54467	2.524097	-0.075707	12.864856	-0.080856	0.007225	3.297413	1.000000	0.000014	0.000044	-0.000075	-0.286721	-10.751825	-177.146672
54468	2.445095	0.013207	12.885965	0.004807	-0.077462	3.302980	1.000000	-0.000008	0.000054	-0.000080	-0.287140	-10.750711	-177.147557
54469	2.452927	-0.135482	12.864789	-0.014128	0.070302	3.284368	1.000000	-0.000018	0.000045	-0.000058	-0.289146	-10.750921	-177.146380
54470	2.338921	-0.017173	12.915511	0.112813	-0.042097	3.312356	1.000000	0.000011	0.000054	-0.000066	-0.287386	-10.749766	-177.151192
54471	2.488011	-0.059375	12.914685	-0.035775	-0.006976	3.339555	1.000000	0.000005	0.000046	-0.000061	-0.286708	-10.749898	-177.150385
54472	2.369400	-0.122482	12.859840	0.067358	0.061725	3.263864	1.000000	-0.000004	0.000042	-0.000079	-0.286497	-10.750351	-177.155580
54473	2.450319	-0.057648	12.892180	-0.002697	-0.006833	3.310409	1.000000	-0.000003	0.000040	-0.000068	-0.286571	-10.751165	-177.155529
54474	2.409758	-0.041736	12.850257	0.030095	-0.020920	3.261579	1.000000	0.000000	0.000047	-0.000055	-0.286498	-10.750923	-177.155641
54475	2.511460	-0.030332	12.900016	-0.059545	-0.037155	3.329376	1.000000	-0.000012	0.000023	-0.000066	-0.287583	-10.753656	-177.155379
54476	2.451525	-0.071741	12.911907	-0.000022	0.006968	3.330083	1.000000	-0.000010	0.000032	-0.000064	-0.288516	-10.755311	-177.153267
54477	2.516913	-0.087780	12.886254	-0.069729	0.019555	3.317158	1.000000	-0.000005	0.000061	-0.000067	-0.288841	-10.753728	-177.153094
54478	2.489326	-0.067734	12.875956	-0.043888	0.000704	3.301795	1.000000	-0.000012	0.000053	-0.000063	-0.289790	-10.752912	-177.156981
54479	2.469731	-0.076734	12.904044	-0.019980	0.010647	3.325779	1.000000	-0.000002	0.000051	-0.000076	-0.289608	-10.752485	-177.157896
54480	2.458828	-0.095237	12.891979	-0.012734	0.029685	3.311983	1.000000	0.000001	0.000069	-0.000071	-0.289034	-10.750152	-177.159158
54481	2.401023	-0.040408	12.851896	0.038756	-0.022295	3.261554	1.000000	0.000005	0.000057	-0.000070	-0.288100	-10.749040	-177.159315
54482	2.452316	-0.051300	12.925903	0.001483	-0.013450	3.343881	1.000000	-0.000005	0.000055	-0.000098	-0.287684	-10.748276	-177.163026
54483	2.415058	-0.078547	12.850643	0.022576	0.015217	3.263129	1.000000	-0.000004	0.000048	-0.000048	-0.288356	-10.748138	-177.160623
54484	2.399490	-0.101994	12.897905	0.045421	0.039642	3.306774	1.000000	0.000003	0.000048	-0.000072	-0.287378	-10.747697	-177.166022
54485	2.416620	-0.092680	12.870301	0.023981	0.029265	3.282803	1.000000	-0.000024	0.000042	-0.000093	-0.289285	-10.748292	-177.168915
54486	2.482441	-0.080000	12.897265	-0.034984	0.013445	3.321503	1.000000	0.000011	0.000054	-0.000066	-0.287905	-10.747511	-177.164852
54487	2.449595	-0.093061	12.893752	-0.004140	0.028236	3.311992	1.000000	0.000000	0.000047	-0.000055	-0.287904	-10.747502	-177.163244
54488	2.418340	-0.058197	12.864158	0.022705	-0.005049	3.276918	1.000000	0.000009	0.000045	-0.000068	-0.286589	-10.747674	-177.162820
54489	2.492149	-0.074390	12.929539	-0.038203	0.007965	3.354992	1.000000	-0.000003	0.000040	-0.000068	-0.286665	-10.748479	-177.162764
54490	2.451530	-0.058601	12.887576	-0.005493	-0.006060	3.306115	1.000000	-0.000008	0.000054	-0.000080	-0.287035	-10.747286	-177.165656
54491	2.472374	-0.063638	12.879243	-0.027915	-0.002045	3.301839	1.000000	0.000008	0.000053	-0.000048	-0.286284	-10.746590	-177.163289
54492	2.417121	-0.071653	12.884343	0.026611	0.008580	3.296589	1.000000	-0.000014	0.000063	-0.000053	-0.287806	-10.744882	-177.164243
54493	2.398724	-0.032710	12.886389	0.046572	-0.029507	3.294979	1.000000	0.000004	0.000059	-0.000080	-0.286785	-10.743549	-177.165655
54494	2.440140	-0.091063	12.895559	0.004425	0.026759	3.311995	1.000000	-0.000011	0.000064	-0.000071	-0.287877	-10.741551	-177.161917
54495	2.390318	-0.065518	12.893790	0.053978	0.003714	3.300848	1.000000	0.000007	0.000049	-0.000090	-0.286349	-10.741374	-177.164415
54496	2.420458	-0.051503	12.897846	0.025626	-0.011513	3.310381	1.000000	-0.000001	0.000060	-0.000074	-0.285919	-10.739856	-177.166690
54497	2.387481	-0.064719	12.894320	0.056444	0.003327	3.300838	1.000000	-0.000004	0.000053	-0.000087	-0.285650	-10.739205	-177.168858
54498	2.376839	-0.083361	12.882190	0.063605	0.022425	3.287030	1.000000	-0.000007	0.000052	-0.000069	-0.285925	-10.738719	-177.173179
54499	2.420658	-0.065228	12.917764	0.028386	0.002330	3.330054	1.000000	-0.000002	0.000021	-0.000080	-0.285657	-10.741701	-177.174501
54500	2.455011	-0.094518	12.888388	-0.011834	0.029743	3.307737	1.000000	-0.000009	0.000043	-0.000072	-0.286457	-10.742080	-177.172134
54501	2.418513	-0.064561	12.918169	0.030854	0.001887	3.330049	1.000000	0.000019	0.000060	-0.000059	-0.284194	-10.740610	-177.171059
54502	2.452570	-0.093504	12.888860	-0.009408	0.029290	3.307740	1.000000	0.000001	0.000028	-0.000066	-0.283977	-10.742572	-177.168354
54503	2.448099	-0.049997	12.922350	0.003736	-0.013624	3.339598	1.000000	0.000009	0.000034	-0.000060	-0.282884	-10.744052	-177.167363
54504	2.459913	-0.073700	12.901618	-0.012829	0.009611	3.321547	1.000000	0.000007	0.000055	-0.000059	-0.282036	-10.743076	-177.166394
54505	2.432556	-0.053441	12.891193	0.013072	-0.009189	3.306108	1.000000	0.000003	0.000037	-0.000064	-0.281528	-10.744214	-177.165868
54506	2.453574	-0.058387	12.882863	-0.009410	-0.005252	3.301865	1.000000	0.000001	0.000058	-0.000063	-0.281410	-10.742744	-177.162455
54507	2.420731	-0.071605	12.879293	0.021376	0.009627	3.292300	1.000000	0.000005	0.000046	-0.000061	-0.280738	-10.742854	-177.161636
54508	2.432864	-0.066848	12.911101	0.015687	0.004570	3.325789	1.000000	0.000003	0.000037	-0.000064	-0.280183	-10.743650	-177.163231
54509	2.427927	-0.051915	12.892072	0.017914	-0.010044	3.306102	1.000000	0.000000	0.000041	-0.000085	-0.279495	-10.744360	-177.165223
54510	2.445004	-0.042449	12.864531	-0.003568	-0.020498	3.282181	1.000000	-0.000013	0.000055	-0.000073	-0.280596	-10.743318	-177.166132
54511	2.438634	-0.047184	12.924150	0.013532	-0.015324	3.339590	1.000000	-0.000004	0.000042	-0.000079	-0.280583	-10.743898	-177.167329
54512	2.446604	-0.056634	12.884196	-0.002120	-0.006470	3.301867	1.000000	-0.000009	0.000043	-0.000072	-0.281053	-10.744150	-177.172770
54513	2.467686	-0.061631	12.875871	-0.024563	-0.002522	3.297641	1.000000	0.000003	0.000048	-0.000072	-0.280292	-10.744042	-177.173207
54514	2.479671	-0.056969	12.907714	-0.030159	-0.007597	3.331137	1.000000	-0.000010	0.000045	-0.000083	-0.280857	-10.744235	-177.175387
54515	2.469468	-0.075772	12.895506	-0.023077	0.011458	3.317333	1.000000	-0.000008	0.000030	-0.000053	-0.281865	-10.746137	-177.173564
54516	2.454923	-0.079833	12.864156	-0.015108	0.016117	3.283840	1.000000	0.000008	0.000077	-0.000075	-0.280487	-10.742340	-177.176425
54517	2.488797	-0.080238	12.887531	-0.044374	0.015183	3.313120	1.000000	0.000006	0.000044	-0.000050	-0.279908	-10.742657	-177.174342
54518	2.407739	-0.068562	12.881744	0.034697	0.007359	3.292273	1.000000	-0.000009	0.000043	-0.000072	-0.280796	-10.742905	-177.170457
54519	2.464221	-0.074580	12.896517	-0.018251	0.010558	3.317341	1.000000	-0.000006	0.000050	-0.000058	-0.281387	-10.742537	-177.169305
54520	2.431492	-0.088024	12.892892	0.012469	0.025484	3.307745	1.000000	0.000000	0.000047	-0.000054	-0.281397	-10.742386	-177.167900
54521	2.435648	-0.054334	12.886282	0.008877	-0.008401	3.301863	1.000000	-0.000003	0.000040	-0.000068	-0.281476	-10.743173	-177.167834
54522	2.460835	-0.073784	12.897168	-0.014606	0.009909	3.317346	1.000000	0.000002	0.000039	-0.000075	-0.280921	-10.743883	-177.168123
54523	2.424226	-0.072788	12.874301	0.017119	0.010450	3.288052	1.000000	-0.000016	0.000054	-0.000056	-0.282772	-10.743043	-177.166640
54524	2.454385	-0.058980	12.878425	-0.011153	-0.004943	3.297659	1.000000	0.000003	0.000048	-0.000072	-0.282135	-10.742867	-177.164603
54525	2.440004	-0.034520	12.899603	0.007985	-0.028552	3.315667	1.000000	-0.000008	0.000054	-0.000080	-0.282546	-10.742068	-177.165965
54526	2.451650	-0.058343	12.878949	-0.008672	-0.005337	3.297660	1.000000	0.000005	0.000057	-0.000069	-0.281506	-10.740930	-177.168706
54527	2.459439	-0.039113	12.891623	-0.013223	-0.024830	3.311470	1.000000	-0.000007	0.000052	-0.000069	-0.282007	-10.740344	-177.168810
54528	2.430653	-0.067246	12.907198	0.016520	0.004551	3.321545	1.000000	-0.000015	0.000046	-0.000076	-0.283166	-10.740452	-177.171436
54529	2.416191	-0.071482	12.875818	0.024531	0.009230	3.288042	1.000000	0.000001	0.000058	-0.000063	-0.282920	-10.739178	-177.170779
54530	2.414777	-0.071246	12.876085	0.025775	0.009029	3.288039	1.000000	-0.000007	0.000052	-0.000069	-0.283402	-10.738620	-177.170876
54531	2.391238	-0.065740	12.884832	0.050713	0.004723	3.292222	1.000000	0.000005	0.000046	-0.000061	-0.282734	-10.738714	-177.170047
54532	2.416404	-0.085228	12.895747	0.027280	0.023036	3.307727	1.000000	-0.000012	0.000036	-0.000085	-0.283375	-10.740042	-177.174021
54533	2.411387	-0.070438	12.876725	0.029503	0.008435	3.288032	1.000000	0.000003	0.000048	-0.000072	-0.282617	-10.739921	-177.174450
54534	2.427285	-0.080296	12.927806	0.022955	0.017770	3.341228	1.000000	-0.000008	0.000041	-0.000061	-0.283186	-10.740362	-177.178773
54535	2.466766	-0.075926	12.891792	-0.022227	0.011349	3.313180	1.000000	0.000003	0.000048	-0.000072	-0.282429	-10.740240	-177.179202
54536	2.407864	-0.069474	12.877389	0.033184	0.007828	3.288023	1.000000	0.000003	0.000048	-0.000072	-0.281809	-10.740194	-177.176036
54537	2.460359	-0.060521	12.873042	-0.018744	-0.003502	3.293490	1.000000	0.000003	0.000048	-0.000072	-0.281052	-10.740071	-177.176464
54538	2.449978	-0.079006	12.860863	-0.011785	0.015571	3.279679	1.000000	0.000003	0.000048	-0.000072	-0.280324	-10.739814	-177.176492
54539	2.439518	-0.068950	12.901244	0.006427	0.006384	3.317355	1.000000	0.000002	0.000050	-0.000083	-0.279477	-10.739474	-177.178178
54540	2.434225	-0.053975	12.882273	0.008640	-0.008224	3.297659	1.000000	0.000007	0.000055	-0.000059	-0.278672	-10.738473	-177.176406
54541	2.464391	-0.039950	12.886443	-0.019567	-0.023658	3.307308	1.000000	-0.000009	0.000043	-0.000072	-0.279338	-10.738907	-177.176799
54542	2.428023	-0.038857	12.863473	0.012077	-0.023033	3.277961	1.000000	0.000009	0.000034	-0.000060	-0.278245	-10.740229	-177.176558
54543	2.434797	-0.067557	12.902143	0.011344	0.005543	3.317352	1.000000	-0.000007	0.000052	-0.000069	-0.278750	-10.739634	-177.176656
54544	2.451966	-0.058021	12.874655	-0.010215	-0.005017	3.293499	1.000000	-0.000003	0.000040	-0.000068	-0.278909	-10.740079	-177.176020
54545	2.419372	-0.071497	12.870938	0.020460	0.010015	3.283839	1.000000	-0.000002	0.000051	-0.000076	-0.278739	-10.739608	-177.176910
54546	2.453425	-0.071947	12.894361	-0.008753	0.008948	3.313198	1.000000	-0.000002	0.000051	-0.000076	-0.278583	-10.739004	-177.177826
54547	2.461352	-0.052805	12.907012	-0.013228	-0.010565	3.327013	1.000000	-0.000008	0.000041	-0.000061	-0.279341	-10.739650	-177.176960
54548	2.460234	-0.052847	12.907225	-0.012007	-0.010790	3.327014	1.000000	-0.000018	0.000046	-0.000058	-0.281416	-10.739722	-177.174843
54549	2.427477	-0.066464	12.903528	0.018660	0.004258	3.317344	1.000000	0.000004	0.000059	-0.000080	-0.280409	-10.738347	-177.176230
54550	2.475860	-0.042945	12.880047	-0.032267	-0.021487	3.303175	1.000000	-0.000001	0.000049	-0.000065	-0.280022	-10.738043	-177.183532
54551	2.451048	-0.085453	12.914799	-0.003577	0.022340	3.332900	1.000000	-0.000002	0.000051	-0.000076	-0.279853	-10.737568	-177.184420
54552	2.445816	-0.070643	12.895814	-0.001372	0.007721	3.313201	1.000000	-0.000001	0.000049	-0.000065	-0.279862	-10.737215	-177.182011
54553	2.462804	-0.060979	12.868381	-0.022866	-0.002842	3.289367	1.000000	0.000001	0.000058	-0.000063	-0.279623	-10.735926	-177.181345
54554	2.426301	-0.059905	12.845401	0.008751	-0.002153	3.259986	1.000000	-0.000002	0.000032	-0.000088	-0.279042	-10.737551	-177.185161
54555	2.419694	-0.064550	12.904999	0.026051	0.003075	3.317332	1.000000	-0.000001	0.000066	-0.000042	-0.279411	-10.735322	-177.182151
54556	2.423662	-0.059319	12.845902	0.011228	-0.002570	3.259984	1.000000	0.000000	0.000041	-0.000085	-0.278737	-10.736021	-177.183598
54557	2.461941	-0.074130	12.888541	-0.018911	0.010705	3.309075	1.000000	0.000003	0.000037	-0.000064	-0.278234	-10.737129	-177.183056
54558	2.434451	-0.054129	12.877995	0.007002	-0.007925	3.293499	1.000000	0.000001	0.000058	-0.000063	-0.278052	-10.735665	-177.181631
54559	2.418533	-0.077614	12.925197	0.029993	0.016620	3.337023	1.000000	0.000005	0.000057	-0.000069	-0.277138	-10.734497	-177.181755
54560	2.457944	-0.073077	12.889310	-0.015221	0.010067	3.309081	1.000000	-0.000009	0.000043	-0.000072	-0.277756	-10.734971	-177.182846
54561	2.434393	-0.067810	12.897990	0.009746	0.005846	3.313199	1.000000	-0.000007	0.000052	-0.000069	-0.278264	-10.734364	-177.182938
54562	2.451470	-0.058208	12.870558	-0.011803	-0.004738	3.289381	1.000000	-0.000001	0.000049	-0.000065	-0.278176	-10.733893	-177.183942
54563	2.431950	-0.067248	12.898454	0.012179	0.005430	3.313197	1.000000	0.000002	0.000039	-0.000074	-0.277582	-10.734781	-177.184655
54564	2.421751	-0.085939	12.886231	0.019051	0.024516	3.299378	1.000000	-0.000006	0.000051	-0.000058	-0.278290	-10.734312	-177.180779
54565	2.447890	-0.057459	12.871243	-0.008101	-0.005395	3.289384	1.000000	-0.000006	0.000051	-0.000058	-0.278890	-10.733919	-177.179612
54566	2.437660	-0.076215	12.859027	-0.001284	0.013663	3.275566	1.000000	-0.000004	0.000042	-0.000078	-0.279099	-10.734178	-177.176986
54567	2.418114	-0.085257	12.886919	0.022696	0.023846	3.299373	1.000000	0.000003	0.000048	-0.000072	-0.278346	-10.734035	-177.177402
54568	2.435331	-0.075584	12.859471	0.001122	0.013225	3.275566	1.000000	-0.000009	0.000044	-0.000072	-0.279091	-10.734168	-177.177684
54569	2.415769	-0.084708	12.887362	0.025104	0.023414	3.299370	1.000000	0.000003	0.000048	-0.000072	-0.278340	-10.734023	-177.178099
54570	2.445998	-0.070503	12.891596	-0.002996	0.007844	3.309091	1.000000	-0.000003	0.000041	-0.000068	-0.278513	-10.734888	-177.174623
54571	2.435863	-0.089135	12.879362	0.003863	0.026960	3.295272	1.000000	0.000005	0.000046	-0.000061	-0.277853	-10.734959	-177.173780
54572	2.471148	-0.041525	12.876815	-0.028916	-0.022327	3.299114	1.000000	-0.000009	0.000044	-0.000072	-0.278588	-10.735211	-177.173385
54573	2.442530	-0.069775	12.892258	0.000686	0.007199	3.309091	1.000000	-0.000006	0.000051	-0.000058	-0.279191	-10.734815	-177.172216
54574	2.441354	-0.069497	12.892482	0.001888	0.006978	3.309091	1.000000	0.000000	0.000041	-0.000085	-0.278548	-10.735315	-177.174230
54575	2.458590	-0.059726	12.865047	-0.019622	-0.003646	3.285300	1.000000	-0.000001	0.000050	-0.000065	-0.278474	-10.735042	-177.173852
54576	2.447941	-0.049810	12.905395	-0.001222	-0.012783	3.322911	1.000000	0.000003	0.000048	-0.000072	-0.277779	-10.734932	-177.172671
54577	2.411373	-0.048917	12.882357	0.030352	-0.011991	3.293463	1.000000	-0.000006	0.000051	-0.000058	-0.278382	-10.734534	-177.171502
54578	2.436440	-0.068146	12.893419	0.006809	0.006113	3.309090	1.000000	0.000009	0.000045	-0.000068	-0.277118	-10.734513	-177.170867
54579	2.453589	-0.058359	12.866008	-0.014705	-0.004522	3.285306	1.000000	-0.000007	0.000053	-0.000069	-0.277630	-10.733896	-177.170953
54580	2.452564	-0.058409	12.866203	-0.013506	-0.004737	3.285307	1.000000	-0.000022	0.000028	-0.000063	-0.279982	-10.735942	-177.171043
54581	2.455491	-0.072796	12.885639	-0.013260	0.009426	3.305017	1.000000	0.000001	0.000052	-0.000093	-0.279049	-10.735354	-177.173967
54582	2.450163	-0.057830	12.866663	-0.011057	-0.005154	3.285309	1.000000	0.000006	0.000056	-0.000059	-0.278210	-10.734263	-177.174197
54583	2.452742	-0.071948	12.886168	-0.010811	0.009009	3.305020	1.000000	-0.000003	0.000052	-0.000076	-0.278046	-10.733767	-177.175073
54584	2.464332	-0.067234	12.918124	-0.016131	0.003808	3.338553	1.000000	-0.000007	0.000053	-0.000069	-0.278662	-10.733147	-177.172226
54585	2.446233	-0.057083	12.867414	-0.007339	-0.005809	3.285312	1.000000	-0.000009	0.000044	-0.000072	-0.279334	-10.733556	-177.172605
54586	2.471329	-0.076417	12.878495	-0.030837	0.012272	3.300963	1.000000	-0.000003	0.000052	-0.000076	-0.279203	-10.733093	-177.172015
54587	2.434738	-0.075334	12.855436	0.000702	0.013107	3.271490	1.000000	0.000017	0.000052	-0.000061	-0.277126	-10.732589	-177.171196
54588	2.432883	-0.046360	12.908255	0.013561	-0.015366	3.322902	1.000000	-0.000008	0.000055	-0.000080	-0.277678	-10.731586	-177.170263
54589	2.436084	-0.089231	12.875176	0.002142	0.027030	3.291201	1.000000	-0.000009	0.000044	-0.000072	-0.278349	-10.731994	-177.170642
54590	2.439741	-0.055381	12.868654	-0.001176	-0.006924	3.285313	1.000000	0.000014	0.000062	-0.000052	-0.276928	-10.730302	-177.165130
54591	2.407065	-0.069043	12.864829	0.029358	0.008307	3.275537	1.000000	-0.000014	0.000045	-0.000065	-0.278277	-10.730585	-177.164717
54592	2.441225	-0.069552	12.888368	0.000262	0.007010	3.305025	1.000000	-0.000008	0.000042	-0.000061	-0.279108	-10.731005	-177.163256
54593	2.436084	-0.054857	12.869349	0.002497	-0.007567	3.285313	1.000000	-0.000003	0.000052	-0.000076	-0.278946	-10.730503	-177.164128
54594	2.433841	-0.102713	12.895599	0.007259	0.040310	3.310914	1.000000	-0.000012	0.000043	-0.000054	-0.280389	-10.730957	-177.162694
54595	2.437775	-0.069053	12.889023	0.003969	0.006383	3.305025	1.000000	0.000002	0.000040	-0.000074	-0.279798	-10.731826	-177.163395
54596	2.445435	-0.049612	12.901737	-0.000337	-0.013172	3.318849	1.000000	0.000004	0.000060	-0.000080	-0.278773	-10.730293	-177.166679
54597	2.412781	-0.063439	12.897891	0.030182	0.002083	3.309058	1.000000	-0.000018	0.000046	-0.000058	-0.280801	-10.730450	-177.165475
54598	2.452486	-0.058946	12.862115	-0.015109	-0.004713	3.281277	1.000000	-0.000003	0.000041	-0.000068	-0.280866	-10.731191	-177.165441
54599	2.436812	-0.082717	12.909202	0.007902	0.019926	3.324738	1.000000	-0.000007	0.000053	-0.000069	-0.281383	-10.730562	-177.165521
54600	2.418172	-0.044009	12.911027	0.028392	-0.017886	3.322875	1.000000	-0.000004	0.000043	-0.000078	-0.281397	-10.731051	-177.166219
54601	2.443863	-0.091660	12.869587	-0.006899	0.028373	3.287171	1.000000	0.000006	0.000056	-0.000058	-0.280587	-10.730073	-177.165070
54602	2.441931	-0.062713	12.922401	0.006129	-0.000092	3.338562	1.000000	0.000005	0.000047	-0.000061	-0.280083	-10.730169	-177.159973
54603	2.437341	-0.076453	12.850832	-0.003423	0.013556	3.267457	1.000000	-0.000007	0.000053	-0.000069	-0.280600	-10.729538	-177.160051
54604	2.435545	-0.047673	12.903615	0.009608	-0.014898	3.318844	1.000000	0.000003	0.000038	-0.000064	-0.280215	-10.730584	-177.156609
54605	2.447999	-0.071422	12.882979	-0.007439	0.008115	3.301001	1.000000	-0.000009	0.000044	-0.000072	-0.280889	-10.730982	-177.156983
54606	2.424375	-0.066297	12.891565	0.017542	0.003993	3.305015	1.000000	-0.000007	0.000053	-0.000069	-0.281656	-10.730212	-177.151618
54607	2.440811	-0.028057	12.916782	0.007841	-0.034941	3.332667	1.000000	-0.000003	0.000052	-0.000076	-0.281497	-10.729701	-177.152485
54608	2.457087	-0.066259	12.915426	-0.010229	0.002408	3.334547	1.000000	-0.000003	0.000041	-0.000068	-0.281662	-10.730390	-177.150257
54609	2.416904	-0.050997	12.872981	0.022251	-0.011004	3.285291	1.000000	0.000003	0.000038	-0.000064	-0.281165	-10.731469	-177.149698
54610	2.415862	-0.050752	12.873177	0.023462	-0.011204	3.285289	1.000000	-0.000009	0.000044	-0.000072	-0.281805	-10.731742	-177.152053
54611	2.463288	-0.075047	12.875993	-0.023850	0.010629	3.297002	1.000000	-0.000004	0.000060	-0.000056	-0.282261	-10.730295	-177.150577
54612	2.452694	-0.065308	12.916266	-0.005280	0.001510	3.334551	1.000000	-0.000001	0.000020	-0.000069	-0.282353	-10.733451	-177.142114
54613	2.438897	-0.069745	12.884714	0.002410	0.006311	3.301004	1.000000	-0.000018	0.000057	-0.000066	-0.284136	-10.732352	-177.141866
54614	2.441578	-0.083948	12.904207	0.002613	0.020412	3.320723	1.000000	0.000015	0.000043	-0.000064	-0.282435	-10.732715	-177.136509
54615	2.462879	-0.088501	12.896084	-0.019928	0.024025	3.316731	1.000000	-0.000009	0.000044	-0.000072	-0.283110	-10.733108	-177.136880
54616	2.435389	-0.069014	12.885381	0.006101	0.005620	3.301003	1.000000	-0.000014	0.000045	-0.000065	-0.284549	-10.733402	-177.133393
54617	2.456742	-0.073798	12.877251	-0.016442	0.009225	3.297014	1.000000	0.000003	0.000038	-0.000064	-0.284053	-10.734477	-177.132830
54618	2.455573	-0.073606	12.877475	-0.015231	0.009001	3.297016	1.000000	-0.000012	0.000054	-0.000062	-0.285308	-10.733596	-177.131395
54619	2.467111	-0.068708	12.909463	-0.020415	0.003770	3.330568	1.000000	0.000014	0.000045	-0.000075	-0.283301	-10.733881	-177.132115
54620	2.444397	-0.091866	12.865431	-0.007363	0.027940	3.283190	1.000000	-0.000007	0.000040	-0.000050	-0.284239	-10.734613	-177.128635
54621	2.452028	-0.072720	12.878156	-0.011538	0.008352	3.297020	1.000000	-0.000008	0.000055	-0.000080	-0.284668	-10.733752	-177.129963
54622	2.428200	-0.067467	12.886746	0.013467	0.004345	3.300998	1.000000	0.000006	0.000056	-0.000058	-0.283861	-10.732671	-177.129993
54623	2.439578	-0.062702	12.918762	0.008299	-0.000888	3.334549	1.000000	-0.000012	0.000054	-0.000062	-0.285061	-10.731908	-177.129276
54624	2.425471	-0.067105	12.887262	0.015922	0.003934	3.300995	1.000000	-0.000001	0.000050	-0.000065	-0.284980	-10.731503	-177.130334
54625	2.420205	-0.052409	12.868257	0.018167	-0.010625	3.281270	1.000000	-0.000007	0.000053	-0.000069	-0.285502	-10.730860	-177.130406
54626	2.422807	-0.066741	12.887765	0.018381	0.003523	3.300992	1.000000	-0.000007	0.000053	-0.000069	-0.286014	-10.730129	-177.131341
54627	2.412748	-0.085337	12.875500	0.025007	0.022702	3.287160	1.000000	0.000014	0.000045	-0.000074	-0.284008	-10.730408	-177.132057
54628	2.442901	-0.070836	12.879901	-0.002729	0.006934	3.297026	1.000000	-0.000007	0.000040	-0.000050	-0.284727	-10.732131	-177.136069
54629	2.458637	-0.080675	12.931100	-0.008878	0.016043	3.350306	1.000000	-0.000012	0.000037	-0.000085	-0.285465	-10.733331	-177.137986
54630	2.431954	-0.089426	12.867806	0.005083	0.025895	3.283195	1.000000	0.000011	0.000055	-0.000065	-0.284008	-10.732267	-177.138963
54631	2.453047	-0.093899	12.859761	-0.017476	0.029461	3.279239	1.000000	-0.000001	0.000050	-0.000065	-0.283946	-10.731964	-177.138564
54632	2.434150	-0.055257	12.861560	0.003181	-0.008260	3.277300	1.000000	-0.000007	0.000053	-0.000069	-0.284476	-10.731287	-177.138796
54633	2.449536	-0.064961	12.912828	-0.002953	0.000843	3.330584	1.000000	-0.000001	0.000050	-0.000065	-0.284414	-10.730983	-177.138397
54634	2.435609	-0.069243	12.881291	0.004649	0.005637	3.297026	1.000000	-0.000004	0.000043	-0.000078	-0.284582	-10.731454	-177.134913
54635	2.434387	-0.069034	12.881523	0.005889	0.005429	3.297025	1.000000	-0.000007	0.000053	-0.000069	-0.285106	-10.730807	-177.134980
54636	2.428964	-0.054391	12.862544	0.008124	-0.009106	3.277298	1.000000	-0.000005	0.000062	-0.000066	-0.285381	-10.729096	-177.137870
54637	2.431503	-0.068558	12.882070	0.008359	0.005035	3.297024	1.000000	0.000003	0.000049	-0.000072	-0.284641	-10.728909	-177.138258
54638	2.407997	-0.063410	12.890557	0.033394	0.001042	3.300963	1.000000	-0.000011	0.000035	-0.000074	-0.285646	-10.730295	-177.134013
54639	2.429353	-0.068120	12.882478	0.010833	0.004583	3.297022	1.000000	-0.000001	0.000050	-0.000065	-0.285585	-10.729987	-177.133612
54640	2.444881	-0.077686	12.933726	0.004683	0.013643	3.350311	1.000000	0.000001	0.000040	-0.000074	-0.285120	-10.730645	-177.132953
54641	2.435936	-0.048412	12.895406	0.007939	-0.015257	3.310854	1.000000	-0.000003	0.000041	-0.000067	-0.285212	-10.731368	-177.132848
54642	2.438806	-0.062705	12.914870	0.008169	-0.001155	3.330582	1.000000	-0.000009	0.000044	-0.000071	-0.286051	-10.731710	-177.128775
54643	2.443359	-0.057256	12.855795	-0.007055	-0.006923	3.273360	1.000000	0.000017	0.000052	-0.000061	-0.283989	-10.731169	-177.127932
54644	2.450037	-0.086068	12.894549	-0.007854	0.021525	3.312820	1.000000	-0.000033	0.000045	-0.000079	-0.287394	-10.731345	-177.125546
54645	2.453742	-0.052741	12.888013	-0.010919	-0.012431	3.306925	1.000000	-0.000007	0.000040	-0.000050	-0.288259	-10.732168	-177.123397
54646	2.444031	-0.071409	12.875680	-0.004374	0.006749	3.293092	1.000000	0.000012	0.000036	-0.000077	-0.286470	-10.733438	-177.122632
54647	2.451790	-0.051891	12.888388	-0.008439	-0.012864	3.306927	1.000000	-0.000003	0.000041	-0.000067	-0.286563	-10.734158	-177.122525
54648	2.445889	-0.085083	12.895343	-0.002948	0.020669	3.312824	1.000000	0.000005	0.000047	-0.000061	-0.285935	-10.733995	-177.123544
54649	2.449539	-0.051226	12.888818	-0.005997	-0.013288	3.306927	1.000000	-0.000003	0.000041	-0.000067	-0.286028	-10.734714	-177.123437
54650	2.448362	-0.051037	12.889043	-0.004773	-0.013484	3.306928	1.000000	-0.000006	0.000051	-0.000058	-0.286587	-10.734205	-177.125179
54651	2.451080	-0.065373	12.908540	-0.004539	0.000648	3.326660	1.000000	-0.000010	0.000046	-0.000082	-0.287173	-10.734360	-177.126792
54652	2.445843	-0.050457	12.889523	-0.002316	-0.013908	3.306928	1.000000	0.000016	0.000054	-0.000072	-0.285040	-10.733468	-177.128199
54653	2.448457	-0.064484	12.909042	-0.002081	0.000224	3.326661	1.000000	-0.000006	0.000051	-0.000058	-0.285662	-10.733033	-177.127005
54654	2.424767	-0.059596	12.917528	0.022947	-0.003683	3.330564	1.000000	-0.000014	0.000045	-0.000065	-0.287024	-10.733160	-177.127937
54655	2.442053	-0.049846	12.890244	0.001384	-0.014535	3.306927	1.000000	-0.000001	0.000050	-0.000065	-0.286967	-10.732843	-177.127531
54656	2.423481	-0.087704	12.865410	0.013140	0.024095	3.279255	1.000000	-0.000003	0.000041	-0.000067	-0.286986	-10.733423	-177.131388
54657	2.435098	-0.082864	12.897399	0.008098	0.018815	3.312824	1.000000	-0.000003	0.000041	-0.000067	-0.287081	-10.734136	-177.131278
54658	2.452432	-0.072875	12.870115	-0.013488	0.007964	3.289196	1.000000	0.000002	0.000051	-0.000082	-0.286203	-10.733652	-177.134998
54659	2.463731	-0.068126	12.902168	-0.018519	0.002678	3.322768	1.000000	-0.000017	0.000055	-0.000055	-0.288092	-10.732755	-177.133482
54660	2.453803	-0.087056	12.889873	-0.012009	0.021896	3.308933	1.000000	0.000000	0.000042	-0.000085	-0.287354	-10.733408	-177.136370
54661	2.447592	-0.043694	12.923391	0.002542	-0.020822	3.340495	1.000000	0.000006	0.000045	-0.000050	-0.286805	-10.733651	-177.134241
54662	2.438879	-0.091061	12.858513	-0.003278	0.026567	3.275363	1.000000	-0.000015	0.000047	-0.000075	-0.288022	-10.733665	-177.136714
54663	2.454999	-0.052790	12.883818	-0.012537	-0.012476	3.303039	1.000000	-0.000001	0.000050	-0.000065	-0.287966	-10.733342	-177.136305
54664	2.418455	-0.052351	12.860524	0.018770	-0.011295	3.273346	1.000000	-0.000005	0.000062	-0.000066	-0.288454	-10.731601	-177.133429
54665	2.456166	-0.066870	12.903617	-0.011069	0.001414	3.322777	1.000000	-0.000009	0.000044	-0.000071	-0.289135	-10.731970	-177.133783
54666	2.427792	-0.095325	12.918799	0.018208	0.031296	3.332552	1.000000	0.000003	0.000049	-0.000072	-0.288407	-10.731693	-177.134840
54667	2.439824	-0.042578	12.924864	0.009994	-0.022088	3.340490	1.000000	-0.000017	0.000055	-0.000055	-0.290298	-10.730792	-177.133322
54668	2.421029	-0.080562	12.900062	0.021683	0.016542	3.312812	1.000000	0.000004	0.000060	-0.000080	-0.289355	-10.729277	-177.134282
54669	2.419776	-0.080130	12.900300	0.022922	0.016336	3.312810	1.000000	0.000003	0.000038	-0.000063	-0.288864	-10.730325	-177.133702
54670	2.428524	-0.089209	12.860486	0.006539	0.024887	3.275365	1.000000	-0.000001	0.000050	-0.000065	-0.288728	-10.729904	-177.136912
54671	2.458343	-0.074706	12.865062	-0.021271	0.008901	3.285340	1.000000	-0.000007	0.000053	-0.000069	-0.289260	-10.729236	-177.136967
54672	2.434579	-0.069637	12.873522	0.003775	0.005026	3.289204	1.000000	0.000004	0.000047	-0.000061	-0.288708	-10.729150	-177.134641
54673	2.437298	-0.083753	12.893026	0.004005	0.019150	3.308943	1.000000	-0.000001	0.000050	-0.000065	-0.288655	-10.728822	-177.134229
54674	2.432188	-0.068952	12.873977	0.006241	0.004604	3.289203	1.000000	0.000001	0.000040	-0.000074	-0.288102	-10.729597	-177.134480
54675	2.429808	-0.040065	12.926758	0.019905	-0.023763	3.340475	1.000000	0.000004	0.000047	-0.000061	-0.287463	-10.729608	-177.133600
54676	2.433874	-0.082744	12.893679	0.007679	0.018519	3.308942	1.000000	-0.000009	0.000044	-0.000071	-0.288139	-10.729831	-177.135936
54677	2.441244	-0.063226	12.906466	0.003725	-0.001119	3.322781	1.000000	0.000016	0.000054	-0.000072	-0.285991	-10.729042	-177.136332
54678	2.436090	-0.048494	12.887424	0.005992	-0.015667	3.303040	1.000000	-0.000021	0.000039	-0.000071	-0.288141	-10.730046	-177.134064
54679	2.438807	-0.062820	12.906929	0.006226	-0.001546	3.322780	1.000000	0.000005	0.000058	-0.000069	-0.287259	-10.728798	-177.134139
54680	2.433549	-0.047996	12.887906	0.008472	-0.016072	3.303038	1.000000	-0.000004	0.000043	-0.000078	-0.287218	-10.729253	-177.136694
54681	2.467439	-0.047771	12.911757	-0.020308	-0.017772	3.332778	1.000000	0.000003	0.000049	-0.000072	-0.286486	-10.729037	-177.137066
54682	2.444995	-0.071135	12.867626	-0.007726	0.006559	3.285357	1.000000	-0.000001	0.000050	-0.000065	-0.286433	-10.728631	-177.137375
54683	2.429916	-0.047104	12.888595	0.012183	-0.016694	3.303034	1.000000	-0.000008	0.000042	-0.000061	-0.287210	-10.729213	-177.136471
54684	2.459913	-0.032657	12.893168	-0.015596	-0.032724	3.313040	1.000000	-0.000009	0.000044	-0.000071	-0.287851	-10.729502	-177.138780
54685	2.419166	-0.065849	12.876447	0.019813	0.002339	3.289190	1.000000	0.000003	0.000038	-0.000063	-0.287362	-10.730541	-177.138195
54686	2.453125	-0.065472	12.900299	-0.008989	0.000609	3.318944	1.000000	0.000008	0.000048	-0.000078	-0.285993	-10.730289	-177.140098
54687	2.451945	-0.065120	12.900525	-0.007747	0.000399	3.318944	1.000000	-0.000009	0.000044	-0.000071	-0.286676	-10.730645	-177.140446
54688	2.469285	-0.055203	12.873302	-0.029383	-0.010532	3.295376	1.000000	-0.000001	0.000050	-0.000065	-0.286577	-10.730125	-177.143934
54689	2.449429	-0.064629	12.901005	-0.005306	-0.000011	3.318946	1.000000	-0.000003	0.000052	-0.000075	-0.286433	-10.729562	-177.144769
54690	2.435673	-0.068990	12.869405	0.002092	0.004889	3.285359	1.000000	-0.000004	0.000043	-0.000078	-0.286475	-10.730051	-177.144190
54691	2.455522	-0.045187	12.914038	-0.007956	-0.019882	3.332789	1.000000	-0.000017	0.000055	-0.000055	-0.288373	-10.729139	-177.142667
54692	2.433292	-0.068984	12.869856	0.004531	0.004465	3.285359	1.000000	-0.000010	0.000033	-0.000063	-0.289327	-10.730586	-177.143615
54693	2.453333	-0.044986	12.914454	-0.005502	-0.020310	3.332789	1.000000	0.000003	0.000049	-0.000071	-0.288597	-10.730361	-177.143983
54694	2.439455	-0.049197	12.882876	0.001848	-0.015384	3.299201	1.000000	0.000006	0.000056	-0.000058	-0.287754	-10.729195	-177.146194
54695	2.425535	-0.053555	12.851303	0.009222	-0.010468	3.265611	1.000000	-0.000007	0.000053	-0.000069	-0.288292	-10.728512	-177.146241
54696	2.431975	-0.082371	12.890133	0.008441	0.017959	3.305103	1.000000	-0.000010	0.000063	-0.000059	-0.289404	-10.726660	-177.143900
54697	2.435225	-0.048677	12.883678	0.005570	-0.016018	3.299199	1.000000	-0.000003	0.000041	-0.000067	-0.289503	-10.727350	-177.143778
54698	2.438057	-0.062799	12.903168	0.005789	-0.001916	3.318945	1.000000	0.000004	0.000047	-0.000061	-0.288915	-10.727275	-177.142318
54699	2.428257	-0.081476	12.890840	0.012139	0.017326	3.305101	1.000000	0.000002	0.000051	-0.000082	-0.288092	-10.726821	-177.143935
54700	2.445577	-0.071596	12.863644	-0.009442	0.006333	3.281555	1.000000	-0.000018	0.000046	-0.000058	-0.290244	-10.727051	-177.137465
54701	2.438293	-0.076566	12.923151	0.008533	0.011758	3.338691	1.000000	0.000003	0.000049	-0.000071	-0.289515	-10.726821	-177.137829
54702	2.447224	-0.085440	12.883364	-0.008015	0.020228	3.301305	1.000000	0.000007	0.000037	-0.000070	-0.288367	-10.727791	-177.140024
54703	2.419575	-0.065963	12.872457	0.018088	0.002154	3.285348	1.000000	-0.000007	0.000053	-0.000069	-0.288906	-10.727104	-177.140069
54704	2.453221	-0.065914	12.896420	-0.010607	0.000346	3.315152	1.000000	-0.000012	0.000054	-0.000062	-0.290164	-10.726388	-177.136324
54705	2.424796	-0.094655	12.911521	0.018564	0.030371	3.324843	1.000000	-0.000001	0.000050	-0.000065	-0.290117	-10.726040	-177.135901
54706	2.407186	-0.084617	12.860612	0.026905	0.020974	3.271497	1.000000	-0.000003	0.000041	-0.000067	-0.290284	-10.726740	-177.133237
54707	2.426968	-0.060636	12.905269	0.016981	-0.003830	3.318935	1.000000	-0.000007	0.000053	-0.000069	-0.290824	-10.726051	-177.133281
54708	2.439829	-0.084168	12.884775	-0.000556	0.018941	3.301310	1.000000	0.000003	0.000038	-0.000063	-0.290384	-10.727126	-177.130049
54709	2.447216	-0.064643	12.897567	-0.004384	-0.000727	3.315155	1.000000	0.000003	0.000049	-0.000071	-0.289656	-10.726890	-177.130410
54710	2.425199	-0.088192	12.853332	0.007977	0.023660	3.267714	1.000000	-0.000010	0.000033	-0.000063	-0.290631	-10.728428	-177.129164
54711	2.441167	-0.049715	12.878685	-0.000903	-0.015471	3.295404	1.000000	0.000004	0.000047	-0.000061	-0.289999	-10.728418	-177.128271
54712	2.435521	-0.082877	12.885599	0.004404	0.018077	3.301310	1.000000	0.000001	0.000040	-0.000074	-0.289519	-10.729322	-177.123814
54713	2.442855	-0.063414	12.898400	0.000594	-0.001595	3.315156	1.000000	-0.000001	0.000050	-0.000065	-0.289473	-10.728970	-177.123388
54714	2.441851	-0.063025	12.898592	0.001836	-0.001829	3.315156	1.000000	0.000006	0.000028	-0.000073	-0.288568	-10.731133	-177.120391
54715	2.418262	-0.058049	12.906915	0.026945	-0.005538	3.318918	1.000000	-0.000007	0.000053	-0.000069	-0.289110	-10.730439	-177.120432
54716	2.445026	-0.105159	12.865766	-0.009455	0.040161	3.283703	1.000000	0.000016	0.000054	-0.000072	-0.287092	-10.729741	-177.114718
54717	2.434135	-0.047222	12.880026	0.006607	-0.016789	3.295401	1.000000	0.000003	0.000049	-0.000071	-0.286367	-10.729501	-177.115077
54718	2.428578	-0.080547	12.886924	0.011877	0.016781	3.301307	1.000000	-0.000010	0.000033	-0.000063	-0.287322	-10.731189	-177.111489
54719	2.439959	-0.075612	12.918990	0.007079	0.011414	3.334907	1.000000	0.000003	0.000049	-0.000071	-0.286597	-10.730948	-177.111847
54720	2.453392	-0.051021	12.872538	-0.013498	-0.013940	3.291647	1.000000	-0.000004	0.000043	-0.000078	-0.286640	-10.731477	-177.109942
54721	2.456202	-0.065119	12.892042	-0.013274	0.000160	3.311403	1.000000	0.000004	0.000047	-0.000061	-0.286010	-10.731461	-177.109047
54722	2.450919	-0.050176	12.873012	-0.011044	-0.014372	3.291649	1.000000	0.000011	0.000055	-0.000065	-0.284607	-10.730397	-177.109025
54723	2.453561	-0.064400	12.892549	-0.010820	-0.000273	3.311405	1.000000	-0.000020	0.000048	-0.000069	-0.286563	-10.730280	-177.109045
54724	2.433888	-0.073953	12.920145	0.013289	0.010352	3.334904	1.000000	0.000012	0.000036	-0.000077	-0.284748	-10.731568	-177.107694
54725	2.463628	-0.059006	12.924872	-0.014338	-0.005868	3.345011	1.000000	-0.000006	0.000062	-0.000066	-0.285147	-10.729835	-177.107434
54726	2.445870	-0.049201	12.873976	-0.006076	-0.015239	3.291651	1.000000	-0.000014	0.000045	-0.000065	-0.286624	-10.730003	-177.104491
54727	2.448615	-0.063517	12.893493	-0.005854	-0.001141	3.311408	1.000000	-0.000001	0.000050	-0.000065	-0.286582	-10.729643	-177.104061
54728	2.420766	-0.044179	12.882556	0.020280	-0.019125	3.295384	1.000000	-0.000003	0.000052	-0.000075	-0.286519	-10.729023	-177.102885
54729	2.441992	-0.048491	12.874715	-0.002357	-0.015881	3.291652	1.000000	-0.000003	0.000052	-0.000075	-0.286382	-10.728435	-177.103706
54730	2.440638	-0.048268	12.874972	-0.001108	-0.016095	3.291652	1.000000	-0.000007	0.000053	-0.000069	-0.286959	-10.727760	-177.101669
54731	2.443408	-0.062430	12.894487	-0.000887	-0.001998	3.311410	1.000000	0.000001	0.000040	-0.000074	-0.286380	-10.728546	-177.102321
54732	2.423633	-0.072002	12.922084	0.023186	0.008649	3.334891	1.000000	-0.000006	0.000051	-0.000058	-0.287060	-10.727935	-177.102020
54733	2.463453	-0.066328	12.886884	-0.022317	0.001012	3.307689	1.000000	0.000016	0.000054	-0.000071	-0.284925	-10.727103	-177.102390
54734	2.417169	-0.056646	12.903269	0.026696	-0.006066	3.315128	1.000000	-0.000006	0.000034	-0.000081	-0.285090	-10.728600	-177.102400
54735	2.461237	-0.065573	12.887311	-0.019830	0.000587	3.307693	1.000000	-0.000001	0.000050	-0.000065	-0.285050	-10.728236	-177.101967
54736	2.414831	-0.056052	12.903710	0.029190	-0.006521	3.315122	1.000000	0.000004	0.000047	-0.000061	-0.284653	-10.728232	-177.093676
54737	2.427825	-0.079606	12.883255	0.011488	0.016183	3.297558	1.000000	-0.000014	0.000045	-0.000064	-0.286024	-10.728449	-177.093226
54738	2.434880	-0.060321	12.896110	0.007793	-0.003531	3.311407	1.000000	0.000000	0.000059	-0.000062	-0.285924	-10.727062	-177.089115
54739	2.425380	-0.078994	12.883719	0.013967	0.015754	3.297556	1.000000	0.000010	0.000027	-0.000079	-0.284221	-10.729331	-177.090379
54740	2.432684	-0.059585	12.896528	0.010261	-0.003919	3.311405	1.000000	-0.000018	0.000057	-0.000066	-0.285924	-10.728108	-177.093825
54741	2.449566	-0.097466	12.895389	-0.008484	0.033074	3.313613	1.000000	0.000015	0.000043	-0.000063	-0.284030	-10.728532	-177.093239
54742	2.430372	-0.058999	12.896966	0.012687	-0.004338	3.311403	1.000000	-0.000015	0.000036	-0.000067	-0.285558	-10.729528	-177.097286
54743	2.424976	-0.092500	12.903838	0.017826	0.029249	3.317313	1.000000	-0.000003	0.000041	-0.000067	-0.285662	-10.730194	-177.097150
54744	2.428320	-0.058670	12.897354	0.015160	-0.004758	3.311400	1.000000	-0.000003	0.000041	-0.000067	-0.285802	-10.730807	-177.096502
54745	2.441522	-0.082079	12.876879	-0.002579	0.017928	3.293855	1.000000	0.000003	0.000038	-0.000063	-0.285320	-10.731813	-177.095898
54746	2.440389	-0.081752	12.877096	-0.001331	0.017709	3.293855	1.000000	-0.000001	0.000050	-0.000065	-0.285335	-10.731492	-177.092300
54747	2.443683	-0.047984	12.870622	-0.003972	-0.016293	3.287943	1.000000	-0.000011	0.000035	-0.000074	-0.286169	-10.732852	-177.092930
54748	2.446648	-0.062022	12.890106	-0.003787	-0.002227	3.307707	1.000000	0.000015	0.000043	-0.000063	-0.284369	-10.733123	-177.092253
54749	2.426734	-0.071622	12.917698	0.020327	0.008480	3.331155	1.000000	-0.000018	0.000057	-0.000066	-0.286187	-10.731959	-177.091968
54750	2.470595	-0.080502	12.901847	-0.026267	0.015018	3.323790	1.000000	0.000009	0.000046	-0.000067	-0.284932	-10.731849	-177.093781
54751	2.424199	-0.070929	12.918178	0.022770	0.008055	3.331151	1.000000	0.000004	0.000047	-0.000061	-0.284309	-10.731816	-177.092876
54752	2.433357	-0.079810	12.878439	0.006039	0.016414	3.293856	1.000000	0.000001	0.000040	-0.000074	-0.283810	-10.732673	-177.088989
54753	2.440509	-0.060293	12.891278	0.002399	-0.003296	3.307707	1.000000	-0.000003	0.000052	-0.000075	-0.283678	-10.732070	-177.089801
54754	2.449524	-0.069219	12.851572	-0.014367	0.005059	3.270417	1.000000	0.000004	0.000047	-0.000061	-0.283110	-10.732008	-177.087251
54755	2.460630	-0.064198	12.883710	-0.019024	-0.000362	3.304037	1.000000	-0.000010	0.000046	-0.000082	-0.283707	-10.732099	-177.088830
54756	2.424410	-0.064132	12.860091	0.012000	0.001292	3.274087	1.000000	0.000006	0.000056	-0.000058	-0.282904	-10.730984	-177.088974
54757	2.458021	-0.063628	12.884211	-0.016552	-0.000773	3.304040	1.000000	-0.000009	0.000044	-0.000071	-0.283597	-10.731303	-177.089302
54758	2.430062	-0.092313	12.899117	0.012441	0.029455	3.313619	1.000000	0.000013	0.000035	-0.000066	-0.281906	-10.732825	-177.085295
54759	2.433279	-0.058315	12.892654	0.009852	-0.004552	3.307703	1.000000	-0.000007	0.000053	-0.000069	-0.282457	-10.732107	-177.085323
54760	2.450532	-0.048343	12.865590	-0.011797	-0.015677	3.284276	1.000000	-0.000012	0.000054	-0.000062	-0.283568	-10.731236	-177.088083
54761	2.438870	-0.038862	12.905788	0.007479	-0.024447	3.321554	1.000000	0.000003	0.000050	-0.000071	-0.282850	-10.730968	-177.088425
54762	2.443592	-0.081374	12.872764	-0.005540	0.017708	3.290193	1.000000	-0.000001	0.000050	-0.000065	-0.282802	-10.730401	-177.091578
54763	2.450589	-0.061830	12.885635	-0.009141	-0.002011	3.304047	1.000000	0.000002	0.000052	-0.000082	-0.281990	-10.729902	-177.093170
54764	2.449335	-0.061700	12.885874	-0.007887	-0.002247	3.304048	1.000000	-0.000018	0.000046	-0.000058	-0.284170	-10.730047	-177.087192
54765	2.429622	-0.071665	12.913393	0.016238	0.008504	3.327465	1.000000	-0.000012	0.000037	-0.000084	-0.284909	-10.731168	-177.089068
54766	2.432743	-0.037718	12.906948	0.013640	-0.025504	3.321547	1.000000	0.000011	0.000056	-0.000065	-0.283452	-10.730029	-177.091959
54767	2.441818	-0.046624	12.867253	-0.003177	-0.017159	3.284279	1.000000	-0.000009	0.000044	-0.000071	-0.284146	-10.730342	-177.092283
54768	2.436298	-0.080031	12.874155	0.001892	0.016447	3.290196	1.000000	-0.000002	0.000051	-0.000065	-0.284082	-10.730114	-177.088549
54769	2.443295	-0.060493	12.887027	-0.001684	-0.003278	3.304050	1.000000	0.000003	0.000050	-0.000071	-0.283366	-10.729840	-177.088888
54770	2.411223	-0.074937	12.882630	0.028244	0.012729	3.293831	1.000000	-0.000008	0.000042	-0.000060	-0.284100	-10.730218	-177.092237
54771	2.453157	-0.055188	12.919409	-0.005072	-0.008915	3.337675	1.000000	0.000002	0.000052	-0.000082	-0.283289	-10.729713	-177.093826
54772	2.421008	-0.069772	12.915021	0.024901	0.007073	3.327452	1.000000	-0.000018	0.000046	-0.000058	-0.285426	-10.729844	-177.089062
54773	2.430170	-0.078905	12.875320	0.008052	0.015408	3.290194	1.000000	0.000003	0.000050	-0.000071	-0.284711	-10.729568	-177.089400
54774	2.429008	-0.078570	12.875541	0.009293	0.015209	3.290194	1.000000	-0.000003	0.000042	-0.000067	-0.284790	-10.730231	-177.088836
54775	2.440074	-0.073456	12.907696	0.004714	0.009765	3.323821	1.000000	0.000003	0.000050	-0.000071	-0.284076	-10.729953	-177.089173
54776	2.449327	-0.082285	12.867986	-0.012177	0.018088	3.286571	1.000000	0.000001	0.000041	-0.000074	-0.283510	-10.730589	-177.091649
54777	2.411105	-0.053900	12.896838	0.032115	-0.008228	3.307666	1.000000	-0.000007	0.000054	-0.000068	-0.284066	-10.729861	-177.091671
54778	2.428231	-0.091763	12.895745	0.013186	0.028679	3.309964	1.000000	-0.000004	0.000044	-0.000078	-0.284016	-10.730259	-177.094019
54779	2.445727	-0.081470	12.868676	-0.008471	0.017476	3.286575	1.000000	0.000004	0.000048	-0.000060	-0.283399	-10.730208	-177.093105
54780	2.452643	-0.061985	12.881566	-0.012012	-0.002234	3.300432	1.000000	-0.000009	0.000056	-0.000079	-0.283749	-10.729226	-177.096893
54781	2.451372	-0.061554	12.881810	-0.010771	-0.002443	3.300433	1.000000	0.000015	0.000044	-0.000063	-0.281862	-10.729623	-177.096292
54782	2.431569	-0.071193	12.909313	0.013356	0.008319	3.323816	1.000000	-0.000014	0.000045	-0.000064	-0.283393	-10.729764	-177.092836
54783	2.444850	-0.094724	12.888908	-0.004567	0.030915	3.306353	1.000000	-0.000004	0.000044	-0.000078	-0.283406	-10.730177	-177.093938
54784	2.439671	-0.080043	12.869835	-0.002299	0.016412	3.286579	1.000000	-0.000002	0.000051	-0.000064	-0.283441	-10.729803	-177.090968
54785	2.427900	-0.070529	12.910007	0.017086	0.007688	3.323812	1.000000	-0.000003	0.000053	-0.000075	-0.283315	-10.729178	-177.091770
54786	2.445323	-0.060349	12.882965	-0.004580	-0.003559	3.300436	1.000000	-0.000009	0.000045	-0.000071	-0.284118	-10.729436	-177.090083
54787	2.439916	-0.093702	12.889850	0.000375	0.030045	3.306356	1.000000	0.000004	0.000048	-0.000060	-0.283502	-10.729381	-177.089166
54788	2.439151	-0.045293	12.864080	-0.001099	-0.018272	3.280660	1.000000	-0.000000	0.000032	-0.000076	-0.283144	-10.731033	-177.090566
54789	2.468654	-0.077972	12.894932	-0.025843	0.013329	3.316622	1.000000	0.000015	0.000055	-0.000071	-0.281024	-10.730157	-177.090911
54790	2.417997	-0.054206	12.891825	0.024281	-0.007674	3.304026	1.000000	-0.000003	0.000053	-0.000075	-0.280979	-10.729511	-177.089809
54791	2.458114	-0.048363	12.856820	-0.021308	-0.015666	3.277072	1.000000	-0.000003	0.000042	-0.000067	-0.281090	-10.730151	-177.089658
54792	2.438273	-0.058017	12.884312	0.002808	-0.004861	3.300436	1.000000	0.000003	0.000050	-0.000071	-0.280462	-10.729742	-177.090053
54793	2.463701	-0.076560	12.895888	-0.020911	0.012447	3.316632	1.000000	-0.000009	0.000045	-0.000071	-0.281159	-10.730041	-177.090370
54794	2.431905	-0.043084	12.865460	0.006319	-0.019560	3.280656	1.000000	0.000004	0.000048	-0.000060	-0.280591	-10.729970	-177.088121
54795	2.457269	-0.061463	12.877053	-0.017403	-0.002260	3.296857	1.000000	0.000002	0.000052	-0.000082	-0.279784	-10.729448	-177.089700
54796	2.441381	-0.037692	12.897925	0.003073	-0.025263	3.314291	1.000000	-0.000018	0.000058	-0.000066	-0.281727	-10.728273	-177.085828
54797	2.446382	-0.080401	12.864922	-0.010216	0.016838	3.283002	1.000000	0.000006	0.000046	-0.000050	-0.281210	-10.728444	-177.083657
54798	2.430938	-0.056347	12.885705	0.010240	-0.006127	3.300432	1.000000	0.000006	0.000029	-0.000072	-0.280155	-10.730479	-177.086120
54799	2.429897	-0.055951	12.885903	0.011482	-0.006333	3.300431	1.000000	-0.000003	0.000053	-0.000075	-0.280032	-10.729846	-177.086917
54800	2.432708	-0.070017	12.905434	0.011665	0.007748	3.320210	1.000000	0.000003	0.000039	-0.000063	-0.279487	-10.730697	-177.090122
54801	2.462382	-0.054856	12.910363	-0.015718	-0.008791	3.330504	1.000000	-0.000002	0.000051	-0.000064	-0.279461	-10.730294	-177.089668
54802	2.418227	-0.074411	12.873915	0.019875	0.012612	3.286568	1.000000	-0.000013	0.000043	-0.000054	-0.280938	-10.730777	-177.085925
54803	2.455968	-0.040153	12.891518	-0.012183	-0.023481	3.310725	1.000000	0.000002	0.000052	-0.000082	-0.280133	-10.730249	-177.087501
54804	2.419460	-0.088154	12.893744	0.021319	0.026469	3.306346	1.000000	0.000007	0.000068	-0.000066	-0.279174	-10.727872	-177.086415
54805	2.457019	-0.053800	12.911389	-0.010724	-0.009634	3.330508	1.000000	-0.000007	0.000040	-0.000050	-0.280067	-10.728629	-177.084230
54806	2.420956	-0.053993	12.887595	0.020140	-0.007761	3.300419	1.000000	0.000005	0.000059	-0.000068	-0.279224	-10.727209	-177.085477
54807	2.423505	-0.068016	12.907176	0.020352	0.006304	3.320200	1.000000	-0.000003	0.000053	-0.000075	-0.279102	-10.726570	-177.086271
54808	2.436846	-0.091340	12.886817	0.002278	0.028863	3.302791	1.000000	-0.000003	0.000042	-0.000067	-0.279112	-10.727062	-177.090603
54809	2.417222	-0.053101	12.888299	0.023832	-0.008354	3.300413	1.000000	-0.000004	0.000044	-0.000078	-0.279128	-10.727460	-177.091696
54810	2.434553	-0.090818	12.887254	0.004750	0.028448	3.302792	1.000000	-0.000002	0.000051	-0.000064	-0.279110	-10.727041	-177.090548
54811	2.441333	-0.071379	12.900171	0.001339	0.008687	3.316651	1.000000	-0.000007	0.000054	-0.000068	-0.279673	-10.726293	-177.090559
54812	2.440150	-0.071120	12.900396	0.002554	0.008470	3.316651	1.000000	0.000003	0.000039	-0.000063	-0.279239	-10.727142	-177.091044
54813	2.449678	-0.080063	12.860705	-0.014482	0.016727	3.279470	1.000000	-0.000009	0.000045	-0.000071	-0.279939	-10.727430	-177.091355
54814	2.429902	-0.089945	12.888138	0.009621	0.027595	3.302791	1.000000	-0.000002	0.000040	-0.000056	-0.280211	-10.728055	-177.093185
54815	2.440841	-0.084781	12.920335	0.005196	0.022098	3.336436	1.000000	0.000003	0.000050	-0.000071	-0.279504	-10.727750	-177.093507
54816	2.446259	-0.079299	12.861361	-0.010826	0.016072	3.279474	1.000000	-0.000009	0.000045	-0.000071	-0.280263	-10.728027	-177.092096
54817	2.434557	-0.069864	12.901460	0.008706	0.007406	3.316649	1.000000	0.000001	0.000041	-0.000074	-0.279693	-10.728759	-177.092719
54818	2.456007	-0.073703	12.893790	-0.013979	0.010372	3.313124	1.000000	0.000011	0.000056	-0.000064	-0.278214	-10.727866	-177.090038
54819	2.442703	-0.078056	12.862044	-0.007092	0.015459	3.279478	1.000000	0.000001	0.000041	-0.000074	-0.277644	-10.728597	-177.090660
54820	2.434968	-0.083017	12.921455	0.011431	0.021066	3.336434	1.000000	-0.000009	0.000045	-0.000071	-0.278341	-10.728910	-177.089649
54821	2.452544	-0.072548	12.894456	-0.010251	0.009746	3.313128	1.000000	0.000015	0.000044	-0.000063	-0.276461	-10.729280	-177.089033
54822	2.424604	-0.053498	12.883279	0.015960	-0.007895	3.296856	1.000000	-0.000012	0.000055	-0.000062	-0.277813	-10.728349	-177.087481
54823	2.450059	-0.072014	12.894931	-0.007784	0.009305	3.313130	1.000000	0.000001	0.000041	-0.000074	-0.277243	-10.729078	-177.088102
54824	2.448887	-0.071677	12.895156	-0.006555	0.009071	3.313131	1.000000	-0.000002	0.000051	-0.000064	-0.277334	-10.728605	-177.086201
54825	2.451676	-0.037691	12.888759	-0.008874	-0.024965	3.307204	1.000000	0.000003	0.000050	-0.000071	-0.276629	-10.728294	-177.086520
54826	2.438148	-0.090131	12.882994	0.000495	0.028220	3.299270	1.000000	0.000005	0.000059	-0.000068	-0.275792	-10.726856	-177.088226
54827	2.432800	-0.075313	12.863938	0.002763	0.013752	3.279481	1.000000	0.000004	0.000048	-0.000060	-0.275185	-10.726777	-177.087296
54828	2.466211	-0.074467	12.888301	-0.025359	0.010209	3.309633	1.000000	-0.000009	0.000056	-0.000079	-0.280876	-10.726431	-177.103606
54829	2.438547	-0.055541	12.877052	0.000866	-0.007394	3.293342	1.000000	-0.000001	0.000021	-0.000068	-0.280687	-10.729465	-177.103586
54830	2.449621	-0.050447	12.909230	-0.003481	-0.012923	3.326994	1.000000	-0.000007	0.000054	-0.000068	-0.281300	-10.728771	-177.101152
54831	2.458923	-0.059463	12.869617	-0.020596	-0.004697	3.289848	1.000000	-0.000007	0.000054	-0.000068	-0.281880	-10.728011	-177.101165
54832	2.443077	-0.035584	12.890398	0.000023	-0.027612	3.307202	1.000000	0.000007	0.000038	-0.000070	-0.280777	-10.729010	-177.101595
54833	2.445872	-0.049711	12.909944	0.000240	-0.013566	3.326994	1.000000	-0.000012	0.000055	-0.000062	-0.282042	-10.728143	-177.100828
54834	2.436477	-0.068914	12.897521	0.006033	0.005792	3.313133	1.000000	-0.000006	0.000052	-0.000058	-0.282738	-10.727554	-177.099827
54835	2.431164	-0.054246	12.878454	0.008301	-0.008673	3.293339	1.000000	0.000002	0.000052	-0.000082	-0.281951	-10.727003	-177.101398
54836	2.429858	-0.053810	12.878702	0.009531	-0.008896	3.293338	1.000000	0.000003	0.000050	-0.000071	-0.281322	-10.726629	-177.100914
54837	2.432539	-0.067922	12.898270	0.009744	0.005150	3.313131	1.000000	-0.000006	0.000052	-0.000058	-0.282001	-10.726099	-177.099676
54838	2.441906	-0.076940	12.858657	-0.007423	0.013361	3.275997	1.000000	-0.000007	0.000054	-0.000068	-0.282599	-10.725265	-177.100034
54839	2.429844	-0.067588	12.898780	0.012211	0.004727	3.313129	1.000000	-0.000002	0.000051	-0.000064	-0.282594	-10.724839	-177.099576
54840	2.428657	-0.067332	12.899005	0.013467	0.004483	3.313128	1.000000	-0.000003	0.000042	-0.000067	-0.282891	-10.725508	-177.094784
54841	2.408746	-0.077120	12.926405	0.037647	0.015437	3.336393	1.000000	0.000003	0.000050	-0.000071	-0.282202	-10.725186	-177.095104
54842	2.448895	-0.070821	12.891622	-0.008017	0.007162	3.309657	1.000000	0.000002	0.000052	-0.000082	-0.281374	-10.724639	-177.096721
54843	2.447516	-0.070679	12.891885	-0.006776	0.006951	3.309658	1.000000	-0.000017	0.000056	-0.000055	-0.283326	-10.723662	-177.095172
54844	2.446396	-0.070579	12.892098	-0.005554	0.006731	3.309658	1.000000	-0.000000	0.000032	-0.000076	-0.282941	-10.725335	-177.096624
54845	2.414575	-0.085044	12.887468	0.024174	0.023026	3.299258	1.000000	0.000015	0.000055	-0.000071	-0.280848	-10.724415	-177.096952
54846	2.443963	-0.069450	12.892566	-0.003090	0.006307	3.309659	1.000000	0.000004	0.000048	-0.000060	-0.280264	-10.724247	-177.096948
54847	2.419943	-0.064859	12.900655	0.022124	0.003025	3.313117	1.000000	-0.000003	0.000053	-0.000075	-0.280163	-10.723582	-177.097735
54848	2.441457	-0.068832	12.893044	-0.000612	0.005880	3.309660	1.000000	-0.000003	0.000042	-0.000067	-0.280318	-10.724171	-177.097073
54849	2.436275	-0.102300	12.899903	0.004100	0.039505	3.315595	1.000000	-0.000006	0.000052	-0.000058	-0.281000	-10.723635	-177.095832
54850	2.439096	-0.068405	12.893493	0.001866	0.005457	3.309660	1.000000	0.000003	0.000039	-0.000063	-0.280551	-10.724561	-177.094631
54851	2.460732	-0.072381	12.885868	-0.020869	0.008306	3.306212	1.000000	-0.000010	0.000047	-0.000082	-0.281171	-10.724593	-177.096187
54852	2.413857	-0.063776	12.901800	0.028325	0.001982	3.313105	1.000000	-0.000006	0.000063	-0.000066	-0.281630	-10.722788	-177.094988
54853	2.446174	-0.076857	12.854346	-0.012873	0.013221	3.272554	1.000000	-0.000000	0.000032	-0.000076	-0.281209	-10.724536	-177.095908
54854	2.419596	-0.044078	12.914915	0.026326	-0.018013	3.326962	1.000000	-0.000014	0.000046	-0.000064	-0.282574	-10.724687	-177.095680
54855	2.459894	-0.085898	12.906119	-0.016939	0.021708	3.326020	1.000000	0.000008	0.000049	-0.000078	-0.281202	-10.724460	-177.096774
54856	2.454744	-0.071109	12.887017	-0.014672	0.007251	3.306221	1.000000	-0.000003	0.000042	-0.000067	-0.281326	-10.725049	-177.096527
54857	2.465597	-0.065959	12.919251	-0.018929	0.001691	3.339887	1.000000	-0.000003	0.000042	-0.000067	-0.281458	-10.725652	-177.096365
54858	2.434003	-0.080737	12.914546	0.010745	0.018047	3.329456	1.000000	0.000001	0.000030	-0.000066	-0.281080	-10.727569	-177.097622
54859	2.425054	-0.051465	12.876076	0.014046	-0.010650	3.289853	1.000000	0.000014	0.000046	-0.000074	-0.279122	-10.727678	-177.098246
54860	2.439724	-0.060358	12.927671	0.008740	-0.001977	3.343318	1.000000	0.000003	0.000050	-0.000071	-0.278478	-10.727207	-177.099902
54861	2.430626	-0.031062	12.889226	0.012044	-0.030673	3.303714	1.000000	0.000012	0.000037	-0.000076	-0.276653	-10.728353	-177.100827
54862	2.448340	-0.068660	12.888248	-0.007295	0.006008	3.306228	1.000000	-0.000020	0.000049	-0.000068	-0.278522	-10.728086	-177.103514
54863	2.455133	-0.049274	12.901167	-0.010500	-0.013800	3.320093	1.000000	0.000003	0.000039	-0.000063	-0.278067	-10.729024	-177.102882
54864	2.454058	-0.049030	12.901372	-0.009242	-0.014018	3.320093	1.000000	-0.000009	0.000045	-0.000071	-0.278811	-10.729342	-177.101157
54865	2.448965	-0.034406	12.882253	-0.006967	-0.028471	3.300291	1.000000	0.000001	0.000041	-0.000074	-0.278259	-10.730044	-177.101771
54866	2.439932	-0.053431	12.869761	-0.001321	-0.009100	3.286427	1.000000	-0.000010	0.000047	-0.000082	-0.278954	-10.729924	-177.104332
54867	2.438693	-0.053318	12.869996	-0.000080	-0.009310	3.286427	1.000000	-0.000005	0.000050	-0.000047	-0.279739	-10.729615	-177.101839
54868	2.449389	-0.048138	12.902263	-0.004298	-0.014898	3.320095	1.000000	0.000000	0.000043	-0.000084	-0.279158	-10.730059	-177.102483
54869	2.448169	-0.047870	12.902495	-0.003053	-0.015109	3.320095	1.000000	-0.000006	0.000052	-0.000058	-0.279845	-10.729513	-177.101237
54870	2.435201	-0.052631	12.870660	0.003636	-0.009973	3.286426	1.000000	-0.000005	0.000033	-0.000070	-0.280189	-10.731129	-177.099627
54871	2.446082	-0.047543	12.902892	-0.000567	-0.015549	3.320095	1.000000	-0.000009	0.000045	-0.000071	-0.280910	-10.731385	-177.099930
54872	2.436969	-0.066648	12.890414	0.005065	0.003830	3.306230	1.000000	-0.000002	0.000051	-0.000064	-0.280981	-10.730839	-177.100040
54873	2.435805	-0.066403	12.890635	0.006305	0.003620	3.306229	1.000000	-0.000002	0.000040	-0.000056	-0.281213	-10.731669	-177.098626
54874	2.415897	-0.076379	12.917971	0.030480	0.014636	3.329430	1.000000	-0.000000	0.000049	-0.000054	-0.281426	-10.731336	-177.096894
54875	2.448618	-0.089483	12.870528	-0.010835	0.025765	3.288971	1.000000	-0.000011	0.000025	-0.000065	-0.282507	-10.733906	-177.096553
54876	2.455533	-0.069956	12.883427	-0.013995	0.005941	3.302837	1.000000	0.000003	0.000050	-0.000071	-0.281841	-10.733549	-177.096574
54877	2.431407	-0.065514	12.891470	0.011240	0.002753	3.306226	1.000000	-0.000009	0.000056	-0.000079	-0.282335	-10.732525	-177.097820
54878	2.475685	-0.073602	12.876147	-0.035528	0.008467	3.299454	1.000000	-0.000003	0.000042	-0.000067	-0.282561	-10.733029	-177.097100
54879	2.428892	-0.064903	12.891947	0.013703	0.002314	3.306224	1.000000	0.000011	0.000056	-0.000064	-0.281163	-10.731980	-177.096635
54880	2.473055	-0.072751	12.876657	-0.033061	0.008033	3.299461	1.000000	-0.000002	0.000051	-0.000064	-0.281184	-10.731478	-177.096400
54881	2.430210	-0.078493	12.911789	0.015142	0.016127	3.326030	1.000000	0.000003	0.000050	-0.000071	-0.280503	-10.731130	-177.096706
54882	2.451843	-0.082440	12.904233	-0.007632	0.018856	3.322652	1.000000	-0.000017	0.000039	-0.000078	-0.282036	-10.732003	-177.097061
54883	2.427958	-0.078136	12.912215	0.017607	0.015688	3.326027	1.000000	0.000004	0.000048	-0.000060	-0.281454	-10.731891	-177.096120
54884	2.449473	-0.081849	12.904687	-0.005155	0.018433	3.322654	1.000000	0.000003	0.000050	-0.000071	-0.280773	-10.731526	-177.096036
54885	2.413442	-0.082224	12.880667	0.025475	0.020656	3.292348	1.000000	0.000004	0.000061	-0.000079	-0.279865	-10.729897	-177.097284
54886	2.423824	-0.076905	12.912999	0.021338	0.015070	3.326022	1.000000	-0.000002	0.000051	-0.000064	-0.279847	-10.729497	-177.095856
54887	2.441418	-0.066408	12.886128	-0.000389	0.003574	3.302846	1.000000	-0.000003	0.000042	-0.000067	-0.279983	-10.730083	-177.095685
54888	2.455265	-0.089657	12.865856	-0.018840	0.025933	3.285617	1.000000	-0.000009	0.000045	-0.000071	-0.280655	-10.730174	-177.099346
54889	2.439229	-0.065992	12.886544	0.002056	0.003163	3.302846	1.000000	0.000003	0.000039	-0.000063	-0.280204	-10.731098	-177.098705
54890	2.442170	-0.079955	12.906083	0.002250	0.017175	3.322657	1.000000	0.000000	0.000043	-0.000084	-0.279587	-10.731479	-177.100443
54891	2.459881	-0.069293	12.879200	-0.019482	0.005667	3.299490	1.000000	0.000001	0.000041	-0.000073	-0.279038	-10.732164	-177.101048
54892	2.435836	-0.064778	12.887192	0.005752	0.002520	3.302845	1.000000	0.000006	0.000057	-0.000058	-0.278354	-10.730956	-177.099966
54893	2.457547	-0.068634	12.879649	-0.017013	0.005235	3.299493	1.000000	-0.000012	0.000027	-0.000076	-0.279337	-10.733280	-177.100868
54894	2.437508	-0.030469	12.880989	0.004950	-0.031787	3.296897	1.000000	0.000015	0.000056	-0.000071	-0.277422	-10.732338	-177.098009
54895	2.455129	-0.067730	12.880115	-0.014527	0.004772	3.299496	1.000000	-0.000002	0.000051	-0.000064	-0.277430	-10.731879	-177.097533
54896	2.431158	-0.063309	12.888083	0.010695	0.001644	3.302842	1.000000	0.000001	0.000041	-0.000073	-0.276881	-10.732449	-177.100108
54897	2.437798	-0.043590	12.901033	0.007626	-0.018190	3.316708	1.000000	0.000004	0.000048	-0.000060	-0.276303	-10.732328	-177.099163
54898	2.455203	-0.032968	12.874219	-0.014105	-0.029726	3.293553	1.000000	-0.000000	0.000060	-0.000062	-0.276219	-10.730825	-177.097512
54899	2.427458	-0.062534	12.888784	0.014418	0.001010	3.302838	1.000000	-0.000023	0.000031	-0.000073	-0.278475	-10.732708	-177.098105
54900	2.426354	-0.062284	12.888993	0.015656	0.000784	3.302837	1.000000	0.000015	0.000056	-0.000071	-0.276478	-10.731730	-177.096808
54901	2.425065	-0.061862	12.889238	0.016897	0.000576	3.302835	1.000000	-0.000009	0.000045	-0.000071	-0.277204	-10.731970	-177.097102
54902	2.423949	-0.061690	12.889448	0.018109	0.000343	3.302834	1.000000	-0.000003	0.000042	-0.000067	-0.277445	-10.732411	-177.098057
54903	2.453550	-0.046203	12.894640	-0.008949	-0.016604	3.313372	1.000000	-0.000005	0.000033	-0.000069	-0.277712	-10.734029	-177.098184
54904	2.421910	-0.061228	12.889834	0.020605	-0.000074	3.302830	1.000000	-0.000002	0.000051	-0.000064	-0.277735	-10.733625	-177.095995
54905	2.443479	-0.065100	12.882343	-0.002168	0.002603	3.299505	1.000000	-0.000009	0.000045	-0.000071	-0.278462	-10.733862	-177.096288
54906	2.442156	-0.064908	12.882595	-0.000969	0.002403	3.299505	1.000000	0.000001	0.000058	-0.000051	-0.278385	-10.732417	-177.098327
54907	2.448721	-0.045245	12.895561	-0.003999	-0.017441	3.313373	1.000000	-0.000001	0.000034	-0.000087	-0.277867	-10.733894	-177.100476
54908	2.462621	-0.068351	12.875325	-0.022509	0.004871	3.296189	1.000000	-0.000009	0.000056	-0.000079	-0.278315	-10.732829	-177.102668
54909	2.438427	-0.064166	12.883305	0.002747	0.001784	3.299505	1.000000	-0.000006	0.000052	-0.000057	-0.279013	-10.732262	-177.101411
54910	2.444967	-0.044577	12.896276	-0.000287	-0.018101	3.313373	1.000000	0.000001	0.000041	-0.000073	-0.278635	-10.732858	-177.100680
54911	2.432167	-0.049247	12.864392	0.006246	-0.012895	3.279686	1.000000	-0.000003	0.000042	-0.000067	-0.278775	-10.733431	-177.100501
54912	2.457780	-0.067377	12.876255	-0.017554	0.003991	3.296197	1.000000	-0.000002	0.000051	-0.000064	-0.278737	-10.733016	-177.098621
54913	2.460429	-0.081520	12.895858	-0.017348	0.017997	3.316018	1.000000	-0.000008	0.000054	-0.000068	-0.279338	-10.732207	-177.098609
54914	2.436345	-0.077365	12.903805	0.007910	0.014920	3.319322	1.000000	-0.000009	0.000045	-0.000071	-0.280098	-10.732427	-177.098224
54915	2.453800	-0.066921	12.877017	-0.013837	0.003346	3.296202	1.000000	-0.000005	0.000061	-0.000055	-0.280671	-10.730815	-177.096662
54916	2.448723	-0.100480	12.883873	-0.009412	0.036980	3.302154	1.000000	-0.000009	0.000045	-0.000071	-0.281450	-10.730974	-177.097113
54917	2.409556	-0.072986	12.912253	0.035638	0.011433	3.322615	1.000000	-0.000006	0.000052	-0.000057	-0.282150	-10.730402	-177.095854
54918	2.453958	-0.080838	12.897096	-0.011155	0.016914	3.316026	1.000000	-0.000004	0.000044	-0.000077	-0.282198	-10.730786	-177.095371
54919	2.418217	-0.081553	12.872924	0.019365	0.019289	3.285628	1.000000	-0.000002	0.000051	-0.000064	-0.282212	-10.730313	-177.094887
54920	2.451552	-0.080238	12.897557	-0.008658	0.016486	3.316028	1.000000	0.000001	0.000041	-0.000073	-0.281683	-10.731056	-177.093211
54921	2.438782	-0.084996	12.865664	-0.002170	0.021705	3.282339	1.000000	-0.000008	0.000043	-0.000060	-0.282511	-10.731524	-177.092253
54922	2.414883	-0.080751	12.873555	0.023071	0.018644	3.285623	1.000000	0.000001	0.000041	-0.000073	-0.282054	-10.732090	-177.092990
54923	2.440494	-0.098546	12.885449	-0.000754	0.035478	3.302162	1.000000	0.000016	0.000054	-0.000060	-0.280081	-10.731349	-177.092039
