// Start Time: Unknown
// Update Rate: 100.0Hz
// Filter Profile: human (46.1)
// Firmware Version: 4.4.0
PacketCounter	Acc_X	Acc_Y	Acc_Z	FreeAcc_X	FreeAcc_Y	FreeAcc_Z	OriInc_q0	OriInc_q1	OriInc_q2	OriInc_q3	Roll	Pitch	Yaw
39418	1.429055	-0.463953	9.713933	-0.000000	-0.000000	0.016755	1.000000	-0.000039	0.000019	0.000040	-2.731892	-8.360793	54.187947
39419	1.429498	-0.415018	9.691850	0.000000	-0.000000	-0.007196	1.000000	-0.000054	0.000023	0.000008	-2.448808	-8.384074	51.041161
39420	1.429121	-0.415971	9.691864	-0.017051	0.014719	-0.007222	1.000000	-0.000038	0.000015	0.000030	-2.592850	-8.371805	52.614279
39421	1.456191	-0.434368	9.680133	0.014704	0.026425	-0.014053	1.000000	-0.000037	0.000006	0.000011	-2.597244	-8.371108	52.615523
39422	1.429808	-0.452042	9.695252	0.010411	-0.005682	-0.002159	1.000000	-0.000056	0.000018	0.000023	-2.603670	-8.368643	52.618078
39423	1.428361	-0.418792	9.691855	-0.016973	0.014729	-0.007222	1.000000	-0.000050	0.000012	0.000024	-2.609774	-8.367142	52.620825
39424	1.473111	-0.398751	9.714297	-0.009315	0.061090	0.020562	1.000000	-0.000049	0.000021	0.000019	-2.615697	-8.364602	52.622895
39425	1.455007	-0.438424	9.680128	0.014784	0.026432	-0.014054	1.000000	-0.000049	0.000007	0.000015	-2.621555	-8.363673	52.624551
39426	1.453668	-0.405095	9.676732	-0.012600	0.046804	-0.019116	1.000000	-0.000050	0.000012	0.000024	-2.627521	-8.362358	52.627277
39427	1.425160	-0.438398	9.710537	-0.008207	0.001926	0.011656	1.000000	-0.000044	0.000020	0.000029	-2.633057	-8.359878	52.630567
39428	1.426945	-0.423757	9.691848	-0.016960	0.014619	-0.007222	1.000000	-0.000048	0.000003	0.000005	-2.638373	-8.359791	52.631090
39429	1.452761	-0.407990	9.676746	-0.012589	0.046737	-0.019116	1.000000	-0.000049	0.000031	0.000013	-2.644152	-8.356191	52.632485
39430	1.447122	-0.405993	9.710754	-0.022408	0.041515	0.013579	1.000000	-0.000067	0.000015	0.000017	-2.651568	-8.354788	52.634342
39431	1.447936	-0.441463	9.714118	0.004975	0.021104	0.018641	1.000000	-0.000043	0.000016	0.000020	-2.656857	-8.352878	52.636541
39432	1.449676	-0.426838	9.695442	-0.003742	0.033700	-0.000236	1.000000	-0.000050	0.000012	0.000024	-2.662144	-8.351971	52.639164
39433	1.425210	-0.428999	9.691872	-0.016879	0.014343	-0.007221	1.000000	-0.000049	0.000021	0.000019	-2.668083	-8.349421	52.641232
39434	1.454234	-0.431976	9.661459	0.006178	0.038602	-0.032930	1.000000	-0.000044	0.000006	0.000025	-2.672464	-8.349293	52.643948
39435	1.426703	-0.415399	9.673193	-0.025577	0.026895	-0.026098	1.000000	-0.000056	0.000018	0.000023	-2.679215	-8.347151	52.646558
39436	1.448279	-0.430823	9.695474	-0.003586	0.033212	-0.000235	1.000000	-0.000037	0.000033	0.000019	-2.682364	-8.344192	52.648420
39437	1.449885	-0.416229	9.676827	-0.012352	0.045974	-0.019112	1.000000	-0.000061	0.000009	0.000018	-2.689682	-8.343029	52.650484
39438	1.449715	-0.417310	9.676806	-0.012247	0.045606	-0.019110	1.000000	-0.000044	0.000006	0.000025	-2.693313	-8.343509	52.653091
39439	1.423177	-0.434998	9.691904	-0.016618	0.013487	-0.007220	1.000000	-0.000049	0.000031	0.000013	-2.699088	-8.339909	52.654480
39440	1.446972	-0.434799	9.695492	-0.003341	0.032408	-0.000232	1.000000	-0.000043	0.000002	0.000015	-2.702076	-8.341147	52.655938
39441	1.448862	-0.420148	9.676811	-0.012107	0.045171	-0.019108	1.000000	-0.000050	0.000012	0.000024	-2.708174	-8.339646	52.658675
39442	1.419298	-0.419148	9.707212	-0.034946	0.020177	0.006601	1.000000	-0.000045	0.000011	0.000035	-2.711297	-8.340114	52.662237
39443	1.451466	-0.440655	9.661483	0.006659	0.037001	-0.032924	1.000000	-0.000030	0.000019	0.000001	-2.714711	-8.337961	52.662256
39444	1.444015	-0.453910	9.714128	0.005782	0.018526	0.018646	1.000000	-0.000048	0.000003	0.000005	-2.717223	-8.339622	52.662412
39445	1.468821	-0.403859	9.695727	-0.017231	0.071058	0.001706	1.000000	-0.000051	0.000021	0.000043	-2.723809	-8.336978	52.667325
39446	1.424374	-0.460373	9.676553	0.002710	0.003582	-0.021036	1.000000	-0.000061	0.000023	0.000022	-2.727654	-8.336718	52.669333
39447	1.441745	-0.422921	9.710831	-0.021385	0.038228	0.013595	1.000000	-0.000049	0.000021	0.000019	-2.733583	-8.334166	52.671393
39448	1.444512	-0.442638	9.695504	-0.002543	0.029817	-0.000223	1.000000	-0.000048	0.000017	0.000009	-2.735471	-8.334949	52.671827
39449	1.446282	-0.427925	9.676856	-0.011310	0.042583	-0.019095	1.000000	-0.000043	0.000011	0.000010	-2.740499	-8.333615	52.672930
39450	1.446091	-0.428847	9.676844	-0.011099	0.041795	-0.019091	1.000000	-0.000049	0.000007	0.000015	-2.742536	-8.335602	52.673970
39451	1.440423	-0.426686	9.710863	-0.020946	0.036668	0.013602	1.000000	-0.000043	0.000039	0.000019	-2.747732	-8.331028	52.675899
39452	1.418966	-0.447589	9.691948	-0.015194	0.008766	-0.007212	1.000000	-0.000061	0.000009	0.000018	-2.750526	-8.333097	52.677347
39453	1.467013	-0.446317	9.699118	0.011082	0.047471	0.006775	1.000000	-0.000035	0.000010	-0.000004	-2.754504	-8.331923	52.676817
39454	1.442665	-0.448286	9.695520	-0.001766	0.027143	-0.000216	1.000000	-0.000050	0.000012	0.000024	-2.755733	-8.333936	52.678940
39455	1.463437	-0.429433	9.714451	-0.007242	0.054132	0.020605	1.000000	-0.000044	0.000006	0.000025	-2.761160	-8.333086	52.681804
39456	1.422325	-0.419940	9.654615	-0.032206	0.032428	-0.044942	1.000000	-0.000037	0.000006	0.000011	-2.761187	-8.335770	52.682375
39457	1.463032	-0.431147	9.714436	-0.007004	0.053218	0.020610	1.000000	-0.000049	0.000021	0.000019	-2.767111	-8.333221	52.684430
39458	1.445747	-0.420706	9.658232	-0.018778	0.050781	-0.037939	1.000000	-0.000049	0.000021	0.000019	-2.768106	-8.334289	52.685738
39459	1.440251	-0.418593	9.692226	-0.028621	0.045642	-0.005247	1.000000	-0.000044	0.000006	0.000025	-2.773545	-8.333424	52.688600
39460	1.437924	-0.435358	9.710848	-0.019454	0.031479	0.013623	1.000000	-0.000063	0.000018	0.000037	-2.774521	-8.336165	52.692031
39461	1.465783	-0.404011	9.677198	-0.023857	0.076384	-0.017102	1.000000	-0.000037	0.000020	0.000015	-2.778969	-8.333864	52.693676
39462	1.437224	-0.437209	9.710869	-0.019016	0.030157	0.013628	1.000000	-0.000043	0.000011	0.000010	-2.777259	-8.337080	52.694064
39463	1.438913	-0.422516	9.692254	-0.027788	0.042937	-0.005233	1.000000	-0.000050	0.000026	0.000028	-2.783421	-8.333967	52.697206
39464	1.462591	-0.422513	9.695874	-0.014164	0.061244	0.001777	1.000000	-0.000056	0.000018	0.000023	-2.784145	-8.334942	52.699033
39465	1.438129	-0.424633	9.692278	-0.027299	0.041892	-0.005227	1.000000	-0.000043	0.000016	0.000020	-2.789394	-8.333036	52.701217
39466	1.437820	-0.425439	9.692289	-0.026837	0.040475	-0.005220	1.000000	-0.000036	0.000015	0.000006	-2.786362	-8.336261	52.700665
39467	1.434358	-0.407597	9.707670	-0.045446	0.048098	0.008616	1.000000	-0.000045	0.000015	0.000044	-2.792248	-8.334282	52.705701
39468	1.442458	-0.430472	9.658294	-0.016452	0.044173	-0.037903	1.000000	-0.000061	0.000009	0.000018	-2.791784	-8.337964	52.706697
39469	1.433801	-0.409722	9.707663	-0.044896	0.046631	0.008625	1.000000	-0.000037	0.000020	0.000015	-2.796200	-8.335682	52.708342
39470	1.434516	-0.444908	9.710920	-0.017047	0.025078	0.013645	1.000000	-0.000043	0.000016	0.000020	-2.795282	-8.337391	52.709198
39471	1.438290	-0.414542	9.673701	-0.034597	0.050656	-0.024058	1.000000	-0.000049	0.000021	0.000019	-2.801180	-8.334868	52.711250
39472	1.441048	-0.434279	9.658334	-0.015564	0.041714	-0.037891	1.000000	-0.000050	0.000016	0.000034	-2.800829	-8.337439	52.713435
39473	1.461608	-0.415430	9.677346	-0.021036	0.068677	-0.017038	1.000000	-0.000038	0.000024	0.000025	-2.805531	-8.334590	52.716167
39474	1.437147	-0.417536	9.673743	-0.033448	0.047985	-0.024041	1.000000	-0.000061	0.000009	0.000018	-2.804562	-8.337111	52.717546
39475	1.464244	-0.436223	9.661946	-0.001697	0.059698	-0.030870	1.000000	-0.000044	0.000006	0.000025	-2.809980	-8.336280	52.720405
39476	1.432616	-0.450926	9.710922	-0.015262	0.021083	0.013658	1.000000	-0.000050	0.000012	0.000024	-2.808453	-8.338592	52.722032
39477	1.460582	-0.419402	9.677329	-0.019676	0.066016	-0.017017	1.000000	-0.000037	0.000020	0.000015	-2.812874	-8.336309	52.723673
39478	1.436080	-0.421467	9.673731	-0.031978	0.044876	-0.024021	1.000000	-0.000061	0.000019	0.000013	-2.809581	-8.339505	52.724574
39479	1.411613	-0.423598	9.670122	-0.045114	0.025520	-0.031039	1.000000	-0.000043	0.000016	0.000020	-2.814772	-8.337646	52.726758
39480	1.430109	-0.420580	9.707743	-0.041247	0.038369	0.008677	1.000000	-0.000061	0.000023	0.000022	-2.814915	-8.338988	52.727913
39481	1.456977	-0.439264	9.695975	-0.009493	0.050078	0.001846	1.000000	-0.000043	0.000016	0.000020	-2.820116	-8.337132	52.730097
39482	1.427302	-0.438230	9.726360	-0.031475	0.023958	0.027524	1.000000	-0.000043	0.000016	0.000020	-2.815083	-8.339103	52.732359
39483	1.434284	-0.426575	9.673773	-0.030428	0.041945	-0.024003	1.000000	-0.000056	0.000018	0.000023	-2.821711	-8.337002	52.734948
39484	1.458167	-0.426443	9.677386	-0.016709	0.060755	-0.016978	1.000000	-0.000037	0.000006	0.000011	-2.821518	-8.336679	52.735258
39485	1.455918	-0.443115	9.695959	-0.007912	0.047938	0.001858	1.000000	-0.000061	0.000009	0.000018	-2.828743	-8.335507	52.737293
39486	1.454475	-0.409828	9.692782	-0.034149	0.066902	-0.003108	1.000000	-0.000043	0.000030	0.000024	-2.823402	-8.334651	52.740372
39487	1.430854	-0.446151	9.692388	-0.019880	0.027131	-0.005157	1.000000	-0.000043	0.000025	0.000014	-2.828375	-8.331660	52.741863
39488	1.432623	-0.431392	9.673806	-0.027899	0.038463	-0.023981	1.000000	-0.000049	0.000007	0.000014	-2.825267	-8.334916	52.742690
39489	1.431287	-0.398024	9.670627	-0.055266	0.058872	-0.028950	1.000000	-0.000049	0.000021	0.000019	-2.831022	-8.332344	52.744722
39490	1.431956	-0.433337	9.673818	-0.027027	0.036859	-0.023973	1.000000	-0.000043	0.000016	0.000020	-2.826586	-8.334846	52.746341
39491	1.455735	-0.433289	9.677448	-0.013855	0.056177	-0.016946	1.000000	-0.000056	0.000018	0.000023	-2.833125	-8.332693	52.748914
39492	1.431310	-0.435439	9.673819	-0.026301	0.035856	-0.023967	1.000000	-0.000050	0.000012	0.000024	-2.832397	-8.333289	52.750881
39493	1.446795	-0.413767	9.726850	-0.041533	0.057565	0.029619	1.000000	-0.000050	0.000012	0.000024	-2.838287	-8.331756	52.753584
39494	1.428688	-0.453006	9.692390	-0.016455	0.021504	-0.005137	1.000000	-0.000031	0.000014	0.000016	-2.831794	-8.333529	52.754694
39495	1.427351	-0.419410	9.689240	-0.043810	0.041903	-0.010089	1.000000	-0.000043	0.000016	0.000020	-2.836792	-8.331604	52.756855
39496	1.449092	-0.434927	9.711448	-0.020870	0.046788	0.015772	1.000000	-0.000043	0.000011	0.000010	-2.831278	-8.334304	52.757652
39497	1.450906	-0.420223	9.692872	-0.029623	0.059580	-0.003046	1.000000	-0.000055	0.000018	0.000023	-2.837684	-8.332161	52.760220
39498	1.428625	-0.406730	9.670659	-0.050936	0.051669	-0.028886	1.000000	-0.000056	0.000008	0.000029	-2.836545	-8.335422	52.761602
39499	1.453434	-0.441060	9.677443	-0.010349	0.050534	-0.016911	1.000000	-0.000043	0.000025	0.000014	-2.841282	-8.332499	52.763091
39500	1.446878	-0.404648	9.708299	-0.047073	0.064251	0.010852	1.000000	-0.000048	0.000003	0.000005	-2.839422	-8.337387	52.762016
39501	1.428714	-0.443913	9.673817	-0.022987	0.029682	-0.023938	1.000000	-0.000038	0.000028	0.000034	-2.844004	-8.333998	52.765818
39502	1.446141	-0.406483	9.708332	-0.046024	0.063094	0.010864	1.000000	-0.000050	0.000012	0.000024	-2.841378	-8.334066	52.768781
39503	1.426893	-0.411461	9.670714	-0.049331	0.048958	-0.028864	1.000000	-0.000048	0.000026	0.000004	-2.846499	-8.331079	52.769049
39504	1.448516	-0.427109	9.692929	-0.026835	0.053668	-0.003004	1.000000	-0.000050	0.000012	0.000024	-2.843608	-8.336024	52.770024
39505	1.418856	-0.426183	9.723290	-0.049727	0.029036	0.022648	1.000000	-0.000043	0.000016	0.000020	-2.848469	-8.334215	52.772194
39506	1.431158	-0.417263	9.636740	-0.038499	0.051087	-0.061534	1.000000	-0.000048	0.000017	0.000009	-2.847405	-8.336668	52.770823
39507	1.445299	-0.445783	9.711521	-0.017490	0.039423	0.015811	1.000000	-0.000056	0.000031	0.000027	-2.853792	-8.333047	52.773817
39508	1.443840	-0.412509	9.708420	-0.043453	0.058568	0.010904	1.000000	-0.000050	0.000012	0.000024	-2.848490	-8.332412	52.777558
39509	1.446793	-0.432045	9.692967	-0.024806	0.050916	-0.002984	1.000000	-0.000037	0.000006	0.000011	-2.852371	-8.331824	52.778773
39510	1.444397	-0.448644	9.711523	-0.014536	0.036727	0.015827	1.000000	-0.000049	0.000021	0.000019	-2.846545	-8.330333	52.782052
39511	1.450428	-0.402484	9.655869	-0.040899	0.075190	-0.040573	1.000000	-0.000050	0.000012	0.000024	-2.852056	-8.328916	52.784752
39512	1.442840	-0.416304	9.708407	-0.040461	0.055851	0.010933	1.000000	-0.000049	0.000007	0.000014	-2.846815	-8.328723	52.786945
39513	1.445738	-0.435890	9.692953	-0.021792	0.048196	-0.002963	1.000000	-0.000043	0.000016	0.000020	-2.851432	-8.326873	52.789098
39514	1.447573	-0.421177	9.674402	-0.029644	0.059460	-0.021747	1.000000	-0.000052	0.000011	0.000049	-2.847920	-8.329274	52.794093
39515	1.424147	-0.457443	9.673860	-0.015305	0.019624	-0.023898	1.000000	-0.000030	0.000019	0.000001	-2.850615	-8.327197	52.794081
39516	1.444918	-0.438533	9.692956	-0.019763	0.044916	-0.002943	1.000000	-0.000048	0.000003	0.000005	-2.845799	-8.330898	52.794351
39517	1.441424	-0.421038	9.708413	-0.038254	0.052400	0.010960	1.000000	-0.000063	0.000032	0.000041	-2.852904	-8.327081	52.798950
39518	1.444097	-0.440893	9.692971	-0.019046	0.043180	-0.002934	1.000000	-0.000055	0.000013	0.000013	-2.850547	-8.331009	52.798951
39519	1.446890	-0.460545	9.677516	-0.000371	0.035506	-0.016839	1.000000	-0.000044	0.000020	0.000029	-2.855266	-8.328680	52.802197
39520	1.421303	-0.428188	9.670811	-0.040392	0.034293	-0.028760	1.000000	-0.000050	0.000026	0.000028	-2.850568	-8.334587	52.803764
39521	1.439764	-0.425311	9.708473	-0.036913	0.048205	0.010987	1.000000	-0.000050	0.000012	0.000024	-2.855804	-8.333328	52.806475
39522	1.444927	-0.429187	9.674446	-0.026336	0.051779	-0.021694	1.000000	-0.000044	-0.000003	0.000030	-2.851350	-8.338687	52.808866
39523	1.468678	-0.429079	9.678113	-0.013092	0.070969	-0.014637	1.000000	-0.000043	0.000039	0.000018	-2.855625	-8.334397	52.810782
39524	1.440946	-0.412531	9.689953	-0.043426	0.057723	-0.007766	1.000000	-0.000061	0.000009	0.000018	-2.850927	-8.335218	52.813936
39525	1.447013	-0.450737	9.659002	-0.006162	0.042457	-0.035597	1.000000	-0.000035	0.000010	-0.000004	-2.853899	-8.334319	52.813396
39526	1.440340	-0.414365	9.689965	-0.042770	0.056290	-0.007755	1.000000	-0.000051	0.000030	0.000038	-2.853081	-8.334733	52.816743
39527	1.468052	-0.467395	9.681236	0.016471	0.047475	-0.009757	1.000000	-0.000049	0.000021	0.000019	-2.857988	-8.332487	52.818782
39528	1.439408	-0.416292	9.690021	-0.041335	0.055095	-0.007742	1.000000	-0.000037	0.000019	0.000015	-2.852356	-8.330331	52.821272
39529	1.433740	-0.414184	9.724046	-0.050963	0.049635	0.024953	1.000000	-0.000037	0.000019	0.000015	-2.855732	-8.328288	52.822900
39530	1.438711	-0.417853	9.690057	-0.040310	0.054102	-0.007732	1.000000	-0.000042	0.000011	0.000010	-2.853446	-8.327650	52.824608
39531	1.460222	-0.433501	9.712269	-0.018202	0.060403	0.018099	1.000000	-0.000044	0.000034	0.000033	-2.857941	-8.323804	52.828268
39532	1.446228	-0.441321	9.640623	-0.011097	0.050218	-0.054342	1.000000	-0.000061	0.000009	0.000018	-2.856158	-8.326928	52.829898
39533	1.413448	-0.421888	9.686433	-0.052437	0.032980	-0.014780	1.000000	-0.000038	0.000014	0.000030	-2.859888	-8.325366	52.833282
39534	1.440429	-0.440331	9.674616	-0.019675	0.043075	-0.021637	1.000000	-0.000042	0.000011	0.000010	-2.853991	-8.328175	52.834234
39535	1.464226	-0.440217	9.678287	-0.006391	0.062230	-0.014571	1.000000	-0.000044	0.000020	0.000029	-2.858297	-8.325998	52.837483
39536	1.407299	-0.421699	9.720444	-0.060480	0.024504	0.017933	1.000000	-0.000044	0.000006	0.000025	-2.856582	-8.329429	52.839495
39537	1.439599	-0.443056	9.674615	-0.018892	0.041436	-0.021628	1.000000	-0.000043	0.000016	0.000019	-2.860629	-8.327845	52.841661
39538	1.436287	-0.425331	9.690091	-0.037240	0.046677	-0.007682	1.000000	-0.000043	0.000002	0.000015	-2.856495	-8.337629	52.841144
39539	1.458042	-0.441110	9.712254	-0.015121	0.052918	0.018147	1.000000	-0.000055	0.000017	0.000023	-2.861961	-8.335917	52.843727
39540	1.441066	-0.429977	9.656086	-0.025009	0.049705	-0.040357	1.000000	-0.000024	0.000013	0.000002	-2.845682	-8.335900	52.846939
39541	1.435525	-0.427892	9.690092	-0.034580	0.044151	-0.007661	1.000000	-0.000050	0.000012	0.000024	-2.850316	-8.334822	52.849649
39542	1.438300	-0.447603	9.674599	-0.015120	0.034681	-0.021595	1.000000	-0.000056	0.000022	0.000033	-2.846121	-8.338011	52.853595
39543	1.436931	-0.414380	9.671600	-0.042381	0.054896	-0.026395	1.000000	-0.000055	0.000017	0.000023	-2.851339	-8.336337	52.856174
39544	1.439720	-0.433997	9.656107	-0.022414	0.045518	-0.040330	1.000000	-0.000043	0.000016	0.000019	-2.843296	-8.338092	52.859607
39545	1.428766	-0.429271	9.724124	-0.041673	0.034559	0.025062	1.000000	-0.000044	0.000020	0.000029	-2.847201	-8.336100	52.862869
39546	1.433714	-0.433162	9.690125	-0.031530	0.037465	-0.007622	1.000000	-0.000057	0.000013	0.000038	-2.843474	-8.344496	52.864459
39547	1.459708	-0.417381	9.675300	-0.027065	0.069429	-0.019279	1.000000	-0.000041	0.000016	-0.000005	-2.846413	-8.343259	52.863802
39548	1.460385	-0.452670	9.678293	0.001739	0.047169	-0.014485	1.000000	-0.000050	0.000012	0.000024	-2.839328	-8.345409	52.867842
39549	1.432893	-0.436092	9.690115	-0.029801	0.035122	-0.007608	1.000000	-0.000050	0.000012	0.000024	-2.843638	-8.344517	52.870566
39550	1.455670	-0.401759	9.690819	-0.043267	0.073485	-0.005288	1.000000	-0.000050	0.000026	0.000028	-2.841068	-8.345015	52.873388
39551	1.434252	-0.422340	9.671653	-0.037680	0.046385	-0.026332	1.000000	-0.000048	0.000017	0.000009	-2.844925	-8.343659	52.874354
39552	1.433892	-0.423197	9.671669	-0.037592	0.044626	-0.026324	1.000000	-0.000037	0.000019	0.000015	-2.842663	-8.349335	52.872997
39553	1.455422	-0.438887	9.693859	-0.015403	0.050739	-0.000503	1.000000	-0.000049	0.000021	0.000019	-2.846748	-8.347485	52.875059
39554	1.434057	-0.459406	9.674675	-0.007660	0.023224	-0.021553	1.000000	-0.000043	0.000016	0.000019	-2.838421	-8.340437	52.883293
39555	1.451650	-0.422121	9.709390	-0.031426	0.057285	0.013475	1.000000	-0.000042	0.000011	0.000010	-2.841520	-8.339704	52.884386
39556	1.451167	-0.423181	9.709417	-0.029708	0.055198	0.013492	1.000000	-0.000061	0.000037	0.000026	-2.833333	-8.338966	52.889314
39557	1.456059	-0.426901	9.675435	-0.019811	0.060312	-0.019202	1.000000	-0.000027	0.000003	0.000032	-2.834861	-8.339040	52.892984
39558	1.428644	-0.410145	9.687262	-0.049619	0.046721	-0.012297	1.000000	-0.000055	0.000013	0.000013	-2.825845	-8.339103	52.896323
39559	1.429273	-0.445650	9.690215	-0.021960	0.025989	-0.007559	1.000000	-0.000055	0.000017	0.000023	-2.830394	-8.337589	52.898898
39560	1.428969	-0.446734	9.690210	-0.020057	0.024206	-0.007551	1.000000	-0.000050	0.000012	0.000024	-2.821023	-8.337686	52.903032
39561	1.451945	-0.412381	9.690932	-0.034089	0.063620	-0.005183	1.000000	-0.000049	0.000007	0.000014	-2.824554	-8.337377	52.904651
39562	1.430669	-0.432892	9.671717	-0.028089	0.036420	-0.026258	1.000000	-0.000044	0.000020	0.000029	-2.825826	-8.334584	52.908630
39563	1.473267	-0.429078	9.713103	-0.011201	0.069294	0.020627	1.000000	-0.000042	0.000011	0.000010	-2.828561	-8.333837	52.909708
39564	1.427786	-0.450541	9.690208	-0.018449	0.021424	-0.007541	1.000000	-0.000050	0.000026	0.000028	-2.826007	-8.337187	52.910591
39565	1.428755	-0.401331	9.668800	-0.054519	0.054457	-0.030961	1.000000	-0.000048	0.000003	0.000005	-2.829268	-8.337467	52.911124
39566	1.453528	-0.435624	9.675427	-0.012051	0.052043	-0.019142	1.000000	-0.000038	0.000024	0.000025	-2.820376	-8.333937	52.916595
39567	1.445563	-0.449588	9.727925	-0.012555	0.033343	0.032262	1.000000	-0.000049	0.000021	0.000019	-2.823861	-8.332006	52.918622
39568	1.428537	-0.438454	9.671782	-0.023826	0.030161	-0.026225	1.000000	-0.000044	0.000020	0.000029	-2.815987	-8.336151	52.921677
39569	1.428218	-0.439345	9.671788	-0.023556	0.029816	-0.026223	1.000000	-0.000042	0.000011	0.000010	-2.818496	-8.335477	52.922757
39570	1.451090	-0.404883	9.672569	-0.036408	0.069042	-0.023812	1.000000	-0.000044	0.000020	0.000029	-2.815396	-8.330234	52.928493
39571	1.424487	-0.422661	9.687336	-0.040385	0.036458	-0.012211	1.000000	-0.000054	0.000009	0.000004	-2.819078	-8.329844	52.928877
39572	1.451471	-0.441273	9.675479	-0.007816	0.045688	-0.019106	1.000000	-0.000048	0.000017	0.000009	-2.811317	-8.336960	52.926989
39573	1.426091	-0.408629	9.668888	-0.048127	0.046450	-0.030886	1.000000	-0.000027	0.000017	0.000036	-2.812322	-8.335490	52.931061
39574	1.448507	-0.458826	9.693971	0.001495	0.030844	-0.000409	1.000000	-0.000061	0.000023	0.000022	-2.813608	-8.339500	52.930677
39575	1.423119	-0.426528	9.687368	-0.038821	0.031601	-0.012188	1.000000	-0.000050	0.000012	0.000024	-2.817031	-8.338752	52.933383
39576	1.449134	-0.410825	9.672611	-0.033933	0.063440	-0.023765	1.000000	-0.000055	0.000017	0.000023	-2.819321	-8.336281	52.935493
39577	1.425596	-0.447183	9.671816	-0.019367	0.023347	-0.026197	1.000000	-0.000043	0.000016	0.000019	-2.821936	-8.335101	52.937660
39578	1.443927	-0.444410	9.709547	-0.015858	0.035273	0.013616	1.000000	-0.000043	0.000030	0.000024	-2.820544	-8.340567	52.935860
39579	1.421547	-0.430546	9.687421	-0.037639	0.028549	-0.012174	1.000000	-0.000055	0.000017	0.000023	-2.824596	-8.339233	52.938436
39580	1.445423	-0.430537	9.691117	-0.023626	0.046361	-0.005055	1.000000	-0.000037	0.000006	0.000011	-2.819605	-8.342476	52.938597
39581	1.444159	-0.397281	9.688236	-0.050785	0.066404	-0.009711	1.000000	-0.000074	0.000029	0.000035	-2.825954	-8.339730	52.942525
39582	1.466524	-0.447666	9.713285	0.000535	0.050096	0.020750	1.000000	-0.000031	0.000014	0.000016	-2.813218	-8.341996	52.946210
39583	1.401460	-0.438230	9.649721	-0.037928	0.010263	-0.051964	1.000000	-0.000055	0.000013	0.000013	-2.816865	-8.341271	52.947700
39584	1.444144	-0.434680	9.691123	-0.019927	0.040545	-0.005021	1.000000	-0.000049	0.000007	0.000014	-2.806387	-8.348924	52.948499
39585	1.442959	-0.401245	9.688251	-0.047069	0.060552	-0.009654	1.000000	-0.000044	0.000020	0.000029	-2.808953	-8.347368	52.951768
39586	1.440548	-0.418068	9.706676	-0.036597	0.045145	0.009031	1.000000	-0.000049	-0.000002	0.000019	-2.798823	-8.353400	52.955018
39587	1.422296	-0.457044	9.671841	-0.012381	0.010498	-0.026163	1.000000	-0.000043	0.000039	0.000018	-2.800949	-8.349780	52.956951
39588	1.461655	-0.435128	9.728843	-0.014087	0.050119	0.034823	1.000000	-0.000074	0.000002	0.000027	-2.806098	-8.353271	52.957648
39589	1.444974	-0.423987	9.672666	-0.026241	0.048879	-0.023658	1.000000	-0.000035	0.000010	-0.000004	-2.807028	-8.353056	52.957128
39590	1.415272	-0.422985	9.702965	-0.048257	0.023216	0.001923	1.000000	-0.000038	0.000014	0.000030	-2.805263	-8.352555	52.959969
39591	1.444310	-0.425666	9.672691	-0.025175	0.047586	-0.023649	1.000000	-0.000050	0.000026	0.000028	-2.808362	-8.350416	52.963105
39592	1.441700	-0.442561	9.691130	-0.015202	0.033586	-0.004986	1.000000	-0.000050	0.000012	0.000024	-2.805785	-8.349981	52.967794
39593	1.441498	-0.443568	9.691114	-0.014885	0.033142	-0.004984	1.000000	-0.000049	0.000007	0.000014	-2.808535	-8.350012	52.969424
39594	1.465510	-0.443570	9.694800	-0.000663	0.049328	0.002158	1.000000	-0.000043	0.000002	0.000015	-2.797577	-8.360551	52.970066
39595	1.440103	-0.410979	9.688268	-0.040953	0.050006	-0.009567	1.000000	-0.000043	0.000039	0.000018	-2.799568	-8.357024	52.972006
39596	1.440507	-0.446433	9.691130	-0.013513	0.027813	-0.004966	1.000000	-0.000061	0.000009	0.000018	-2.800628	-8.364204	52.970587
39597	1.439374	-0.413063	9.688288	-0.040646	0.047772	-0.009555	1.000000	-0.000038	0.000014	0.000030	-2.802300	-8.363484	52.974008
39598	1.460956	-0.428776	9.710435	-0.017122	0.052836	0.016234	1.000000	-0.000036	0.000015	0.000005	-2.795302	-8.362397	52.976874
39599	1.439651	-0.449032	9.691137	-0.011434	0.025633	-0.004957	1.000000	-0.000043	0.000016	0.000019	-2.797319	-8.361588	52.979069
39600	1.438397	-0.415578	9.688325	-0.038601	0.044621	-0.009532	1.000000	-0.000049	0.000021	0.000018	-2.796722	-8.364832	52.977766
39601	1.443443	-0.419312	9.654317	-0.028687	0.049697	-0.042227	1.000000	-0.000056	0.000008	0.000028	-2.800345	-8.364885	52.981031
39602	1.444161	-0.454750	9.657112	-0.000330	0.027385	-0.037645	1.000000	-0.000044	0.000006	0.000025	-2.794727	-8.369674	52.984030
39603	1.440731	-0.437116	9.672714	-0.018523	0.034324	-0.023578	1.000000	-0.000043	0.000025	0.000014	-2.796511	-8.367884	52.985563
39604	1.459024	-0.434544	9.710469	-0.013693	0.047985	0.016264	1.000000	-0.000051	0.000021	0.000043	-2.796959	-8.361055	52.993623
39605	1.412765	-0.421421	9.684615	-0.048621	0.021932	-0.016646	1.000000	-0.000037	0.000005	0.000011	-2.798013	-8.361466	52.994865
39606	1.436605	-0.421376	9.688341	-0.034310	0.040181	-0.009497	1.000000	-0.000049	0.000021	0.000018	-2.794771	-8.359701	52.997528
39607	1.439379	-0.440908	9.672743	-0.015454	0.032263	-0.023566	1.000000	-0.000050	0.000012	0.000024	-2.797486	-8.359312	53.000251
39608	1.452469	-0.435591	9.744491	-0.019103	0.038991	0.048987	1.000000	-0.000032	0.000018	0.000025	-2.785499	-8.355350	53.009134
39609	1.437918	-0.408319	9.669954	-0.040238	0.050806	-0.028100	1.000000	-0.000061	0.000009	0.000018	-2.789332	-8.355262	53.011159
39610	1.438385	-0.443822	9.672758	-0.011825	0.027860	-0.023547	1.000000	-0.000048	0.000031	0.000013	-2.781527	-8.360161	53.010353
39611	1.434930	-0.426356	9.688371	-0.029977	0.034767	-0.009462	1.000000	-0.000055	0.000003	0.000019	-2.784641	-8.360774	53.012518
39612	1.433377	-0.477726	9.709529	0.007116	0.000664	0.013690	1.000000	-0.000050	0.000012	0.000024	-2.785152	-8.359997	53.016580
39613	1.463915	-0.430032	9.658078	-0.006221	0.058473	-0.035009	1.000000	-0.000037	0.000019	0.000015	-2.786077	-8.358800	53.018233
39614	1.437148	-0.447706	9.672763	-0.009341	0.024666	-0.023536	1.000000	-0.000049	0.000021	0.000018	-2.781388	-8.359519	53.021879
39615	1.454776	-0.410624	9.707727	-0.032831	0.058252	0.011796	1.000000	-0.000032	0.000004	0.000021	-2.781793	-8.360027	53.024335
39616	1.431449	-0.446705	9.706747	-0.017605	0.016090	0.009174	1.000000	-0.000043	0.000002	0.000015	-2.773851	-8.368015	53.024789
39617	1.433411	-0.431799	9.688355	-0.026195	0.028582	-0.009431	1.000000	-0.000055	0.000027	0.000017	-2.776763	-8.366014	53.026709
39618	1.454158	-0.413458	9.707700	-0.006638	0.017753	0.012006	1.000000	-0.000049	-0.000002	0.000019	-2.530739	-8.454860	52.614120
39619	1.432892	-0.433695	9.688347	-0.000951	-0.009729	-0.009359	1.000000	-0.000031	0.000028	0.000020	-2.528901	-8.453495	52.614075
39620	1.458774	-0.417668	9.673735	0.003997	0.021724	-0.020695	1.000000	-0.000047	0.000022	-0.000006	-2.528396	-8.453053	52.611981
39621	1.434266	-0.419664	9.670011	-0.008741	0.001718	-0.027890	1.000000	-0.000062	0.000018	0.000037	-2.530446	-8.452706	52.613923
39622	1.453610	-0.451612	9.710502	0.022886	-0.006062	0.016363	1.000000	-0.000037	0.000005	0.000011	-2.530369	-8.453241	52.606973
39623	1.452580	-0.418091	9.707737	-0.003883	0.013722	0.012014	1.000000	-0.000049	0.000012	0.000024	-2.530717	-8.453678	52.607428
39624	1.454558	-0.403140	9.689360	-0.012278	0.026145	-0.006509	1.000000	-0.000043	0.000016	0.000019	-2.530853	-8.453359	52.604978
39625	1.431058	-0.439375	9.688362	0.002318	-0.014491	-0.009365	1.000000	-0.000049	0.000007	0.000014	-2.530956	-8.454353	52.604343
39626	1.433964	-0.458874	9.672712	0.021222	-0.022823	-0.023550	1.000000	-0.000049	0.000012	0.000024	-2.531624	-8.455159	52.604945
39627	1.454759	-0.440533	9.692069	0.016695	0.002953	-0.002167	1.000000	-0.000054	0.000009	0.000004	-2.532125	-8.456068	52.603087
39628	1.432678	-0.426439	9.669950	-0.005117	-0.003864	-0.027888	1.000000	-0.000038	0.000014	0.000030	-2.531960	-8.456618	52.603234
39629	1.456540	-0.426579	9.673682	0.008771	0.014443	-0.020684	1.000000	-0.000061	0.000009	0.000018	-2.533517	-8.457385	52.602994
39630	1.450812	-0.425149	9.707695	-0.000175	0.007913	0.012021	1.000000	-0.000050	0.000026	0.000028	-2.534183	-8.456229	52.602937
39631	1.448158	-0.442110	9.726074	0.009325	-0.006111	0.030534	1.000000	-0.000049	0.000012	0.000024	-2.534530	-8.456668	52.603389
39632	1.454595	-0.395283	9.670991	-0.016790	0.032494	-0.025000	1.000000	-0.000042	0.000025	0.000014	-2.533150	-8.455648	52.605095
39633	1.447320	-0.443993	9.726113	0.010571	-0.007889	0.030532	1.000000	-0.000049	0.000021	0.000018	-2.533328	-8.455030	52.604884
39634	1.452269	-0.447549	9.692121	0.020649	-0.002997	-0.002174	1.000000	-0.000049	0.000021	0.000018	-2.533452	-8.454198	52.603640
39635	1.427047	-0.414975	9.685661	-0.019440	-0.002344	-0.013692	1.000000	-0.000044	0.000006	0.000025	-2.533155	-8.455278	52.604223
39636	1.450718	-0.415187	9.689427	-0.005575	0.016038	-0.006482	1.000000	-0.000061	0.000037	0.000026	-2.535301	-8.452550	52.602209
39637	1.451147	-0.450700	9.692143	0.022332	-0.005457	-0.002179	1.000000	-0.000048	0.000003	0.000004	-2.535156	-8.454101	52.600481
39638	1.455506	-0.419779	9.655418	0.005017	0.020074	-0.039183	1.000000	-0.000048	0.000017	0.000009	-2.535185	-8.454108	52.598887
39639	1.423393	-0.435096	9.704037	-0.008275	-0.018832	0.004811	1.000000	-0.000055	0.000017	0.000023	-2.536173	-8.453906	52.599203
39640	1.452583	-0.437840	9.673774	0.015056	0.005164	-0.020683	1.000000	-0.000049	0.000012	0.000024	-2.536571	-8.454610	52.599076
39641	1.406482	-0.424711	9.647896	-0.019969	-0.020765	-0.053607	1.000000	-0.000055	0.000003	0.000018	-2.537482	-8.456021	52.598964
39642	1.449095	-0.421571	9.689394	-0.002195	0.010959	-0.006473	1.000000	-0.000055	0.000017	0.000023	-2.538544	-8.455670	52.598179
39643	1.445703	-0.404095	9.705058	-0.020021	0.017571	0.007740	1.000000	-0.000042	0.000011	0.000010	-2.537831	-8.456251	52.597009
39644	1.448571	-0.423500	9.689389	-0.001071	0.009261	-0.006471	1.000000	-0.000049	0.000012	0.000024	-2.538241	-8.456782	52.597059
39645	1.424145	-0.425254	9.685642	-0.013834	-0.010720	-0.013688	1.000000	-0.000037	0.000019	0.000015	-2.536963	-8.456392	52.596449
39646	1.450930	-0.443853	9.673748	0.018484	0.000101	-0.020687	1.000000	-0.000061	0.000023	0.000022	-2.538459	-8.455542	52.596757
39647	1.447382	-0.426512	9.689434	0.000661	0.006710	-0.006469	1.000000	-0.000049	0.000021	0.000018	-2.538634	-8.454926	52.596542
39648	1.453126	-0.464364	9.658118	0.037985	-0.009019	-0.034910	1.000000	-0.000042	0.000025	0.000014	-2.538236	-8.453877	52.594026
39649	1.445683	-0.394027	9.686818	-0.025557	0.025708	-0.010729	1.000000	-0.000055	0.000017	0.000023	-2.539222	-8.453676	52.594338
39650	1.446022	-0.429462	9.689507	0.002360	0.004139	-0.006468	1.000000	-0.000043	0.000029	0.000023	-2.538545	-8.452311	52.596657
39651	1.445521	-0.430380	9.689541	0.002931	0.003292	-0.006468	1.000000	-0.000044	0.000020	0.000029	-2.538322	-8.451782	52.597662
39652	1.450561	-0.433753	9.655544	0.012848	0.008266	-0.039173	1.000000	-0.000038	0.000014	0.000030	-2.538122	-8.451986	52.596794
39653	1.447088	-0.415982	9.671249	-0.004969	0.014873	-0.024944	1.000000	-0.000025	0.000022	0.000021	-2.535634	-8.451268	52.596877
39654	1.442038	-0.448801	9.707938	0.013485	-0.012406	0.012007	1.000000	-0.000061	0.000023	0.000022	-2.537293	-8.450425	52.596395
39655	1.440790	-0.415509	9.705307	-0.013272	0.007416	0.007765	1.000000	-0.000049	0.000021	0.000018	-2.537466	-8.449809	52.596177
39656	1.417112	-0.451720	9.704197	0.001270	-0.033294	0.004776	1.000000	-0.000043	0.000016	0.000019	-2.536823	-8.450202	52.598239
39657	1.469693	-0.419027	9.675073	0.010638	0.030554	-0.017711	1.000000	-0.000049	0.000007	0.000014	-2.536919	-8.451199	52.597593
39658	1.443131	-0.436826	9.689609	0.006774	-0.002594	-0.006469	1.000000	-0.000049	0.000007	0.000014	-2.537352	-8.452110	52.594018
39659	1.439612	-0.419344	9.705317	-0.011036	0.004006	0.007769	1.000000	-0.000044	0.000034	0.000033	-2.537204	-8.449970	52.595449
39660	1.447502	-0.441325	9.655660	0.017311	0.001482	-0.039177	1.000000	-0.000060	0.000028	0.000007	-2.538527	-8.448825	52.593409
39661	1.438596	-0.421508	9.705374	-0.009927	0.002296	0.007771	1.000000	-0.000049	0.000012	0.000024	-2.538867	-8.449268	52.593850
39662	1.440642	-0.406369	9.687060	-0.018299	0.014659	-0.010690	1.000000	-0.000031	0.000014	0.000016	-2.536832	-8.449609	52.594035
39663	1.443390	-0.425630	9.671382	0.000648	0.006371	-0.024934	1.000000	-0.000049	0.000021	0.000018	-2.537004	-8.448994	52.593814
39664	1.415841	-0.409074	9.683310	-0.030569	-0.006128	-0.017920	1.000000	-0.000054	0.000013	0.000013	-2.538091	-8.449470	52.591662
39665	1.464506	-0.442827	9.693479	0.024033	0.010577	0.000759	1.000000	-0.000044	0.000020	0.000029	-2.537865	-8.448944	52.592663
39666	1.412822	-0.427008	9.701641	-0.020482	-0.021104	0.000537	1.000000	-0.000048	0.000017	0.000009	-2.537652	-8.449118	52.592212
39667	1.466212	-0.428725	9.675176	0.016218	0.022079	-0.017695	1.000000	-0.000044	0.000006	0.000024	-2.537350	-8.450204	52.592784
39668	1.420044	-0.415590	9.649303	-0.018879	-0.003771	-0.050622	1.000000	-0.000072	0.000020	0.000016	-2.540105	-8.449814	52.592386
39669	1.435993	-0.429292	9.705418	-0.005416	-0.004556	0.007774	1.000000	-0.000025	0.000022	0.000021	-2.537615	-8.449099	52.592467
39670	1.440968	-0.432543	9.671436	0.004579	0.000392	-0.024933	1.000000	-0.000054	0.000022	0.000008	-2.538087	-8.448436	52.590838
39671	1.432805	-0.447090	9.723769	0.004692	-0.019516	0.026220	1.000000	-0.000044	0.000020	0.000029	-2.537859	-8.447911	52.591838
39672	1.461275	-0.415203	9.690946	0.000675	0.025279	-0.003430	1.000000	-0.000044	0.000006	0.000024	-2.537839	-8.448981	52.590417
39673	1.434567	-0.432982	9.705465	-0.003157	-0.007929	0.007773	1.000000	-0.000049	0.000021	0.000018	-2.538008	-8.448368	52.590193
39674	1.463710	-0.435621	9.675247	0.020188	0.016125	-0.017691	1.000000	-0.000050	0.000016	0.000033	-2.538473	-8.448357	52.592754
39675	1.430940	-0.416542	9.721170	-0.020373	-0.002215	0.022038	1.000000	-0.000042	-0.000003	0.000005	-2.537679	-8.450551	52.591146
39676	1.439252	-0.438431	9.671427	0.007942	-0.004676	-0.024936	1.000000	-0.000061	0.000023	0.000022	-2.539396	-8.449826	52.591316
39677	1.430279	-0.418481	9.721184	-0.019252	-0.003917	0.022040	1.000000	-0.000025	0.000022	0.000021	-2.536905	-8.449112	52.591395
39678	1.432988	-0.437656	9.705489	-0.000354	-0.012221	0.007769	1.000000	-0.000048	0.000017	0.000009	-2.536909	-8.449288	52.590344
39679	1.459042	-0.421810	9.690998	0.004621	0.019298	-0.003418	1.000000	-0.000049	0.000021	0.000018	-2.537076	-8.448676	52.590119
39680	1.437644	-0.442115	9.671498	0.010213	-0.008073	-0.024940	1.000000	-0.000055	0.000017	0.000023	-2.537949	-8.448351	52.589703
39681	1.431006	-0.406400	9.702964	-0.025934	0.005942	0.003612	1.000000	-0.000055	0.000027	0.000017	-2.538757	-8.447097	52.589343
39682	1.457872	-0.425011	9.691034	0.006371	0.016725	-0.003414	1.000000	-0.000044	0.000006	0.000024	-2.538270	-8.448345	52.591166
39683	1.433451	-0.426715	9.687251	-0.006427	-0.003220	-0.010664	1.000000	-0.000042	0.000025	0.000014	-2.537626	-8.447317	52.590413
39684	1.429875	-0.409355	9.703006	-0.024186	0.003364	0.003618	1.000000	-0.000061	0.000023	0.000022	-2.539134	-8.446377	52.589822
39685	1.429543	-0.410311	9.703015	-0.023614	0.002517	0.003620	1.000000	-0.000035	0.000011	-0.000004	-2.537359	-8.447097	52.587026
39686	1.435467	-0.447998	9.671551	0.013663	-0.013191	-0.024950	1.000000	-0.000050	0.000016	0.000033	-2.537901	-8.447040	52.588300
39687	1.458485	-0.413739	9.672807	0.000286	0.025762	-0.021830	1.000000	-0.000043	0.000015	0.000019	-2.537425	-8.447071	52.588206
39688	1.428629	-0.413046	9.703033	-0.021910	-0.000053	0.003624	1.000000	-0.000043	0.000015	0.000019	-2.536925	-8.447229	52.588102
39689	1.433696	-0.416376	9.669035	-0.011957	0.004960	-0.029082	1.000000	-0.000049	0.000021	0.000018	-2.537090	-8.446618	52.587873
39690	1.430894	-0.433324	9.687336	-0.002383	-0.009191	-0.010666	1.000000	-0.000042	0.000025	0.000014	-2.536201	-8.445576	52.587552
39691	1.430512	-0.434355	9.687346	-0.001813	-0.010037	-0.010667	1.000000	-0.000057	0.000012	0.000037	-2.537590	-8.445888	52.589596
39692	1.454314	-0.434630	9.691142	0.012154	0.008148	-0.003409	1.000000	-0.000048	0.000017	0.000009	-2.537205	-8.446029	52.590226
39693	1.432269	-0.420397	9.669073	-0.009625	0.001503	-0.029078	1.000000	-0.000049	0.000012	0.000023	-2.537539	-8.446477	52.590656
39694	1.426527	-0.419103	9.703083	-0.018421	-0.005233	0.003630	1.000000	-0.000055	0.000017	0.000023	-2.538423	-8.446345	52.591077
39695	1.426137	-0.420169	9.703094	-0.017849	-0.006079	0.003630	1.000000	-0.000049	0.000021	0.000018	-2.538586	-8.445735	52.590846
39696	1.455314	-0.422678	9.672898	0.005484	0.017979	-0.021814	1.000000	-0.000043	0.000015	0.000019	-2.537822	-8.445993	52.592944
39697	1.452674	-0.439699	9.691159	0.015031	0.003837	-0.003410	1.000000	-0.000054	0.000013	0.000013	-2.538550	-8.446353	52.592149
39698	1.428186	-0.441506	9.687366	0.002218	-0.016124	-0.010675	1.000000	-0.000047	0.000026	0.000003	-2.538209	-8.445388	52.591541
39699	1.451964	-0.441631	9.691178	0.016170	0.002114	-0.003411	1.000000	-0.000044	0.000006	0.000024	-2.537901	-8.446479	52.592103
39700	1.448612	-0.424356	9.706923	-0.001599	0.008662	0.010898	1.000000	-0.000062	0.000018	0.000036	-2.539871	-8.446230	52.594389
39701	1.410909	-0.431738	9.631293	-0.009076	-0.018564	-0.069051	1.000000	-0.000047	0.000022	-0.000006	-2.539374	-8.445666	52.591321
39702	1.450211	-0.410269	9.688697	-0.009430	0.020251	-0.007495	1.000000	-0.000038	0.000014	0.000030	-2.538397	-8.445867	52.593200
39703	1.447491	-0.427222	9.706964	0.000123	0.006098	0.010900	1.000000	-0.000049	0.000021	0.000018	-2.538559	-8.445258	52.592967
39704	1.447065	-0.428220	9.706984	0.000692	0.005287	0.010900	1.000000	-0.000049	0.000021	0.000018	-2.538867	-8.444489	52.590511
39705	1.473021	-0.412337	9.692581	0.005668	0.036829	-0.000218	1.000000	-0.000043	0.000029	0.000023	-2.538462	-8.442913	52.590841
39706	1.425221	-0.449318	9.687444	0.006750	-0.022853	-0.010691	1.000000	-0.000050	0.000002	0.000029	-2.539249	-8.444342	52.589113
39707	1.424102	-0.415952	9.684976	-0.019995	-0.002976	-0.014758	1.000000	-0.000054	0.000036	0.000012	-2.539879	-8.442034	52.588085
39708	1.445425	-0.432126	9.707055	0.002966	0.001906	0.010901	1.000000	-0.000036	0.000005	0.000010	-2.538330	-8.443341	52.587898
39709	1.444452	-0.398721	9.704576	-0.023777	0.021783	0.006843	1.000000	-0.000062	0.000018	0.000036	-2.540354	-8.443015	52.589799
39710	1.442475	-0.450219	9.725290	0.013116	-0.013127	0.029282	1.000000	-0.000036	0.000015	0.000005	-2.538666	-8.443189	52.588378
39711	1.425809	-0.438049	9.669244	0.000651	-0.013808	-0.029083	1.000000	-0.000042	0.000025	0.000014	-2.538015	-8.442164	52.587619
39712	1.422291	-0.420669	9.685038	-0.017108	-0.007287	-0.014754	1.000000	-0.000055	0.000017	0.000022	-2.538852	-8.442153	52.589485
39713	1.446047	-0.420990	9.688860	-0.003144	0.010938	-0.007476	1.000000	-0.000050	0.000016	0.000033	-2.539426	-8.442053	52.590996
39714	1.443393	-0.438007	9.707094	0.006428	-0.003237	0.010899	1.000000	-0.000042	0.000011	0.000009	-2.538646	-8.442604	52.589368
39715	1.450808	-0.425248	9.654867	0.007344	0.015173	-0.040182	1.000000	-0.000055	0.000031	0.000027	-2.539689	-8.440804	52.590085
39716	1.448064	-0.442251	9.673111	0.016913	0.000995	-0.021811	1.000000	-0.000036	0.000005	0.000010	-2.538267	-8.442016	52.588574
39717	1.445442	-0.459340	9.691329	0.026474	-0.013184	-0.003442	1.000000	-0.000062	0.000018	0.000036	-2.540290	-8.441693	52.590472
39718	1.444338	-0.425972	9.688897	-0.000270	0.006685	-0.007472	1.000000	-0.000042	0.000021	0.000004	-2.539337	-8.441306	52.588982
39719	1.447071	-0.445188	9.673125	0.018621	-0.001559	-0.021814	1.000000	-0.000043	0.000015	0.000019	-2.538855	-8.441341	52.588878
39720	1.449034	-0.430078	9.654920	0.010219	0.010913	-0.040179	1.000000	-0.000049	0.000025	0.000028	-2.539076	-8.440205	52.590723
39721	1.440046	-0.410422	9.704743	-0.016853	0.011520	0.006875	1.000000	-0.000048	0.000017	0.000008	-2.538989	-8.440150	52.589395
39722	1.469959	-0.447318	9.677000	0.033758	0.014927	-0.014532	1.000000	-0.000044	0.000020	0.000029	-2.538667	-8.439716	52.591132
39723	1.442479	-0.430713	9.688964	0.002610	0.002413	-0.007470	1.000000	-0.000054	0.000008	0.000003	-2.539145	-8.440628	52.589239
39724	1.442165	-0.431858	9.688960	0.003202	0.001533	-0.007470	1.000000	-0.000061	0.000023	0.000022	-2.540530	-8.439875	52.590684
39725	1.439518	-0.449028	9.707165	0.012771	-0.012660	0.010885	1.000000	-0.000048	0.000003	0.000004	-2.540368	-8.441430	52.588925
39726	1.444122	-0.417657	9.670726	-0.004667	0.013161	-0.025825	1.000000	-0.000031	0.000014	0.000016	-2.538382	-8.441865	52.589597
39727	1.446906	-0.436862	9.654934	0.014216	0.004926	-0.040179	1.000000	-0.000050	0.000016	0.000033	-2.538953	-8.441769	52.591103
39728	1.459756	-0.432611	9.726790	0.009562	0.011187	0.032528	1.000000	-0.000049	0.000012	0.000023	-2.539225	-8.442365	52.592397
39729	1.424607	-0.423648	9.632885	-0.007062	-0.002488	-0.065821	1.000000	-0.000055	0.000017	0.000022	-2.540190	-8.442178	52.592679
39730	1.440365	-0.437731	9.688965	0.006584	-0.003628	-0.007473	1.000000	-0.000043	0.000029	0.000023	-2.539785	-8.440831	52.594211
39731	1.436897	-0.420358	9.704785	-0.011154	0.002911	0.006889	1.000000	-0.000054	0.000008	0.000003	-2.540261	-8.441744	52.592315
39732	1.436648	-0.421361	9.704778	-0.010592	0.002044	0.006890	1.000000	-0.000048	0.000017	0.000008	-2.540148	-8.441813	52.591526
39733	1.442375	-0.458944	9.673183	0.026593	-0.013570	-0.021841	1.000000	-0.000038	0.000028	0.000034	-2.539343	-8.440333	52.593073
39734	1.432735	-0.404855	9.720633	-0.027753	0.007710	0.021260	1.000000	-0.000054	0.000008	0.000003	-2.539732	-8.441344	52.592142
39735	1.459772	-0.423430	9.708637	0.004535	0.018531	0.014189	1.000000	-0.000044	0.000006	0.000024	-2.539418	-8.442442	52.592692
39736	1.459582	-0.424402	9.708624	0.005106	0.017658	0.014191	1.000000	-0.000049	0.000012	0.000023	-2.539660	-8.443022	52.594223
39737	1.440620	-0.428209	9.670787	0.001560	0.003748	-0.025816	1.000000	-0.000030	0.000023	0.000010	-2.537555	-8.442225	52.593070
39738	1.434625	-0.426919	9.704835	-0.007143	-0.003121	0.006893	1.000000	-0.000062	0.000027	0.000031	-2.539186	-8.440932	52.595772
39739	1.437231	-0.446361	9.689036	0.011730	-0.011346	-0.007483	1.000000	-0.000044	0.000020	0.000029	-2.538945	-8.440420	52.596752
39740	1.439401	-0.431191	9.670836	0.003297	0.001168	-0.025815	1.000000	-0.000048	0.000003	0.000004	-2.538698	-8.442011	52.595202
39741	1.439005	-0.432286	9.670846	0.003867	0.000323	-0.025815	1.000000	-0.000061	0.000037	0.000026	-2.540373	-8.439575	52.595776
39742	1.429898	-0.412799	9.720717	-0.023148	0.000842	0.021275	1.000000	-0.000043	0.000015	0.000019	-2.539855	-8.439663	52.595744
39743	1.435114	-0.415977	9.686703	-0.013292	0.005998	-0.011433	1.000000	-0.000049	0.000012	0.000023	-2.540178	-8.440120	52.596155
39744	1.464464	-0.418479	9.656527	0.009983	0.030176	-0.036835	1.000000	-0.000049	0.000012	0.000023	-2.540381	-8.440682	52.597766
39745	1.435260	-0.452426	9.689047	0.015165	-0.016474	-0.007495	1.000000	-0.000048	0.000017	0.000008	-2.540289	-8.440629	52.596432
39746	1.434205	-0.418960	9.686709	-0.011579	0.003441	-0.011429	1.000000	-0.000049	0.000021	0.000018	-2.540483	-8.440016	52.595117
39747	1.460463	-0.403165	9.672370	-0.006604	0.035021	-0.022439	1.000000	-0.000055	0.000003	0.000018	-2.541370	-8.441440	52.594960
39748	1.454595	-0.401899	9.706400	-0.015300	0.028134	0.010273	1.000000	-0.000037	0.000033	0.000019	-2.540016	-8.439536	52.595750
39749	1.433133	-0.421848	9.686742	-0.009859	0.000879	-0.011427	1.000000	-0.000049	0.000012	0.000023	-2.540338	-8.439994	52.596159
39750	1.435933	-0.441155	9.670902	0.009003	-0.007368	-0.025822	1.000000	-0.000048	0.000017	0.000008	-2.540118	-8.440093	52.596208
39751	1.432504	-0.423877	9.686747	-0.008716	-0.000846	-0.011426	1.000000	-0.000055	0.000017	0.000022	-2.541078	-8.439910	52.596481
39752	1.435211	-0.443223	9.670915	0.010170	-0.009065	-0.025824	1.000000	-0.000044	0.000020	0.000029	-2.540677	-8.439338	52.597156
39753	1.458280	-0.408960	9.672456	-0.003144	0.029887	-0.022420	1.000000	-0.000043	0.000015	0.000019	-2.540188	-8.439379	52.597043
39754	1.455643	-0.425953	9.690620	0.006457	0.015620	-0.004111	1.000000	-0.000039	0.000005	0.000035	-2.539352	-8.440653	52.599742
39755	1.452777	-0.442942	9.708816	0.016052	0.001373	0.014195	1.000000	-0.000042	0.000039	0.000018	-2.538765	-8.438025	52.599404
39756	1.430625	-0.428585	9.686818	-0.005828	-0.005120	-0.011425	1.000000	-0.000061	0.000009	0.000017	-2.540237	-8.438880	52.599197
39757	1.454570	-0.428844	9.690654	0.008171	0.013065	-0.004109	1.000000	-0.000036	0.000005	0.000010	-2.538865	-8.440111	52.598129
39758	1.427760	-0.446685	9.704957	0.004335	-0.020225	0.006874	1.000000	-0.000061	0.000023	0.000021	-2.540448	-8.439334	52.598017
39759	1.427406	-0.447817	9.704957	0.004906	-0.021073	0.006872	1.000000	-0.000049	0.000012	0.000023	-2.540767	-8.439794	52.598423
39760	1.450511	-0.413666	9.706517	-0.008404	0.017875	0.010305	1.000000	-0.000049	0.000021	0.000018	-2.540933	-8.439220	52.597621
39761	1.429111	-0.433751	9.686811	-0.002985	-0.009359	-0.011427	1.000000	-0.000055	0.000017	0.000022	-2.541890	-8.439038	52.597890
39762	1.455179	-0.417821	9.672544	0.002003	0.022228	-0.022400	1.000000	-0.000036	0.000029	0.000009	-2.540336	-8.437589	52.596194
39763	1.449139	-0.416730	9.706591	-0.006674	0.015325	0.010311	1.000000	-0.000068	0.000023	0.000035	-2.542984	-8.436636	52.597936
39764	1.451859	-0.436253	9.690730	0.012170	0.007135	-0.004107	1.000000	-0.000049	0.000012	0.000023	-2.543371	-8.437044	52.596569
39765	1.427541	-0.437807	9.686860	-0.000695	-0.012735	-0.011430	1.000000	-0.000035	0.000011	-0.000005	-2.541583	-8.437763	52.593756
39766	1.427273	-0.438671	9.686860	-0.000115	-0.013605	-0.011431	1.000000	-0.000050	0.000016	0.000033	-2.542008	-8.437752	52.596042
39767	1.447959	-0.420641	9.706598	-0.004379	0.011925	0.010317	1.000000	-0.000043	0.000015	0.000019	-2.541517	-8.437794	52.595925
39768	1.455640	-0.407590	9.654438	-0.003611	0.030561	-0.040674	1.000000	-0.000049	0.000012	0.000023	-2.541846	-8.438344	52.596428
39769	1.453546	-0.459261	9.674854	0.033296	-0.004487	-0.018536	1.000000	-0.000055	0.000017	0.000022	-2.542801	-8.438163	52.596694
39770	1.441476	-0.421567	9.740623	-0.011917	0.003296	0.043029	1.000000	-0.000044	0.000020	0.000028	-2.542588	-8.437689	52.596880
39771	1.473060	-0.407641	9.692374	0.002298	0.040970	-0.000628	1.000000	-0.000031	0.000027	0.000020	-2.540720	-8.436347	52.596810
39772	1.422122	-0.425996	9.702784	-0.014988	-0.011343	0.002993	1.000000	-0.000048	0.000003	0.000004	-2.540577	-8.437938	52.594251
39773	1.473042	-0.444016	9.694653	0.030738	0.018491	0.003218	1.000000	-0.000062	0.000032	0.000041	-2.542656	-8.436021	52.596556
39774	1.421425	-0.428224	9.702788	-0.013862	-0.013021	0.002992	1.000000	-0.000043	0.000002	0.000015	-2.542221	-8.437661	52.594076
39775	1.450851	-0.430653	9.672631	0.009383	0.011233	-0.022385	1.000000	-0.000055	0.000017	0.000022	-2.543174	-8.437481	52.594340
39776	1.423342	-0.414070	9.684645	-0.021759	-0.001280	-0.015278	1.000000	-0.000043	0.000015	0.000019	-2.542673	-8.437550	52.593568
39777	1.447789	-0.448776	9.690767	0.019560	-0.003903	-0.004117	1.000000	-0.000049	0.000012	0.000023	-2.542988	-8.438012	52.593967
39778	1.446801	-0.415179	9.688537	-0.007161	0.016007	-0.007941	1.000000	-0.000035	0.000024	-0.000000	-2.541112	-8.437247	52.593050
39779	1.425283	-0.435097	9.668808	-0.001780	-0.011194	-0.029720	1.000000	-0.000056	0.000026	0.000041	-2.542552	-8.435974	52.595489
39780	1.470039	-0.416308	9.692464	0.007442	0.033314	-0.000602	1.000000	-0.000025	0.000008	0.000016	-2.539893	-8.436887	52.594678
39781	1.443104	-0.433918	9.706737	0.003604	0.000012	0.010325	1.000000	-0.000048	0.000031	0.000013	-2.539863	-8.435228	52.593766
39782	1.445760	-0.453189	9.690864	0.022431	-0.008194	-0.004126	1.000000	-0.000049	0.000012	0.000023	-2.540131	-8.435766	52.594259
39783	1.442400	-0.435868	9.706754	0.004746	-0.001699	0.010324	1.000000	-0.000043	0.000015	0.000019	-2.539636	-8.435810	52.594137
39784	1.438915	-0.418466	9.722669	-0.012941	0.004782	0.024777	1.000000	-0.000042	0.000025	0.000014	-2.538940	-8.434866	52.593401
39785	1.444616	-0.455939	9.690906	0.024140	-0.010749	-0.004132	1.000000	-0.000049	0.000021	0.000018	-2.539081	-8.434269	52.593143
39786	1.443581	-0.422450	9.688703	-0.002602	0.009175	-0.007930	1.000000	-0.000044	0.000020	0.000028	-2.538801	-8.433938	52.595358
39787	1.421545	-0.407878	9.666722	-0.024533	0.002786	-0.033523	1.000000	-0.000044	0.000020	0.000028	-2.538549	-8.433436	52.596323
39788	1.440478	-0.440490	9.706831	0.007581	-0.005984	0.010320	1.000000	-0.000048	0.000003	0.000004	-2.538381	-8.435041	52.594074
39789	1.445094	-0.409011	9.670612	-0.009942	0.020093	-0.026175	1.000000	-0.000038	0.000028	0.000034	-2.537563	-8.433575	52.595608
39790	1.436667	-0.424072	9.722759	-0.009526	-0.000357	0.024782	1.000000	-0.000054	0.000013	0.000013	-2.538226	-8.434014	52.594878
39791	1.420859	-0.446134	9.668956	0.005034	-0.021409	-0.029738	1.000000	-0.000049	0.000021	0.000018	-2.538367	-8.433418	52.594618
39792	1.446999	-0.430262	9.654754	0.010023	0.010193	-0.040636	1.000000	-0.000049	0.000021	0.000018	-2.538402	-8.432870	52.594666
39793	1.443452	-0.413011	9.670687	-0.007654	0.016683	-0.026167	1.000000	-0.000049	0.000025	0.000027	-2.538786	-8.431728	52.595493
39794	1.440555	-0.430249	9.688810	0.001973	0.002356	-0.007926	1.000000	-0.000050	0.000016	0.000033	-2.539271	-8.431679	52.596794
39795	1.440385	-0.431094	9.688798	0.002544	0.001510	-0.007926	1.000000	-0.000031	-0.000000	0.000011	-2.537256	-8.433554	52.595853
39796	1.442828	-0.415681	9.670666	-0.005939	0.014125	-0.026162	1.000000	-0.000048	0.000003	0.000004	-2.537038	-8.435179	52.594183
39797	1.464023	-0.432200	9.692679	0.017149	0.018796	-0.000575	1.000000	-0.000049	0.000039	0.000032	-2.537492	-8.432430	52.595443
39798	1.405069	-0.423261	9.594858	-0.013365	-0.013270	-0.106281	1.000000	-0.000061	-0.000014	0.000018	-2.539067	-8.436009	52.596035
39799	1.437170	-0.444319	9.548849	0.028092	0.003705	-0.146117	1.000000	-0.000082	0.000078	0.000011	-2.542924	-8.428894	52.594735
39800	1.507541	-0.345388	10.010151	-0.064507	0.078415	0.315727	1.000000	0.000022	-0.000004	0.000018	-2.534914	-8.431246	52.594374
39801	1.410415	-0.496418	9.565301	0.052104	-0.051259	-0.131502	1.000000	-0.000032	0.000008	0.000030	-2.533386	-8.432030	52.595608
39802	1.422866	-0.492715	9.637251	0.047772	-0.045444	-0.058736	1.000000	-0.000071	0.000044	0.000014	-2.536027	-8.428973	52.595285
39803	1.471253	-0.302689	9.914145	-0.107675	0.084428	0.213666	1.000000	-0.000053	0.000008	0.000003	-2.536486	-8.429888	52.593362
39804	1.434429	-0.455820	9.707019	0.016726	-0.019676	0.010291	1.000000	-0.000051	0.000020	0.000042	-2.537241	-8.429352	52.596170
39805	1.426558	-0.463658	9.601094	0.031349	-0.021008	-0.095197	1.000000	-0.000049	0.000025	0.000027	-2.537621	-8.428212	52.596993
39806	1.494128	-0.417691	9.784616	0.012645	0.044037	0.094053	1.000000	-0.000078	0.000012	0.000010	-2.540922	-8.428776	52.596322
39807	1.420960	-0.498623	9.637228	0.050599	-0.049692	-0.058771	1.000000	-0.000049	0.000012	0.000023	-2.541231	-8.429243	52.596710
39808	1.440423	-0.411841	9.652774	-0.008188	0.017390	-0.044366	1.000000	-0.000049	0.000025	0.000027	-2.541619	-8.428197	52.597698
39809	1.442374	-0.438441	9.794911	-0.003521	-0.010000	0.097552	1.000000	-0.000036	0.000019	0.000014	-2.540310	-8.427825	52.597051
39810	1.442804	-0.431705	9.636872	0.011178	0.008365	-0.058859	1.000000	-0.000036	0.000005	0.000010	-2.538867	-8.429157	52.596535
39811	1.264928	-0.340677	9.497129	-0.150454	-0.063301	-0.227026	1.000000	-0.000069	0.000004	0.000046	-2.541845	-8.430339	52.599561
39812	1.408887	-0.527671	9.549352	0.076488	-0.067869	-0.146092	1.000000	-0.000168	0.000095	0.000045	-2.556053	-8.421164	52.601682
39813	1.636016	-0.386583	10.104083	0.032991	0.147640	0.429168	1.000000	0.000102	-0.000028	0.000048	-2.539485	-8.426046	52.605177
39814	1.354206	-0.563586	9.279669	0.106019	-0.109420	-0.419044	1.000000	-0.000122	-0.000005	0.000035	-2.548382	-8.428360	52.604957
39815	1.450473	-0.310588	10.016357	-0.128149	0.055435	0.311948	1.000000	-0.000037	0.000010	0.000020	-2.547244	-8.429050	52.604962
39816	1.360846	-0.341702	9.810813	-0.130957	-0.016645	0.097069	1.000000	0.000076	0.000001	0.000019	-2.533127	-8.430737	52.604217
39817	1.395576	-0.569023	9.479550	0.111410	-0.099451	-0.215241	1.000000	-0.000060	0.000032	0.000016	-2.534532	-8.428859	52.603676
39818	1.536478	-0.478469	9.812729	0.081023	0.034348	0.130732	1.000000	-0.000086	0.000017	0.000033	-2.537288	-8.448958	52.597825
39819	1.439988	-0.440254	9.636907	0.014444	-0.002154	-0.058860	1.000000	-0.000042	0.000011	0.000009	-2.536533	-8.449635	52.596618
39820	1.396421	-0.410231	9.592959	-0.030087	-0.013897	-0.110005	1.000000	-0.000074	0.000029	0.000034	-2.539712	-8.448124	52.598596
39821	1.460683	-0.345783	9.792590	-0.066852	0.058171	0.093883	1.000000	0.000002	0.000029	-0.000016	-2.533468	-8.446925	52.594426
39822	1.463806	-0.510549	9.645155	0.084199	-0.027433	-0.044138	1.000000	-0.000017	0.000017	-0.000003	-2.529626	-8.446974	52.591858
39823	1.401648	-0.482789	9.563299	0.035308	-0.051897	-0.135371	1.000000	-0.000070	0.000035	-0.000005	-2.531806	-8.444986	52.588879
39824	1.414580	-0.401955	9.771048	-0.046620	-0.010487	0.068289	1.000000	-0.000059	0.000028	0.000006	-2.533003	-8.443706	52.586583
39825	1.432022	-0.366008	9.806912	-0.068992	0.022221	0.104718	1.000000	-0.000054	0.000022	0.000007	-2.533518	-8.443100	52.585100
39826	1.452066	-0.425469	9.691024	0.004510	0.011906	-0.004257	1.000000	-0.000031	0.000014	0.000015	-2.531589	-8.443435	52.584370
39827	1.446053	-0.424488	9.725058	-0.004070	0.004813	0.028449	1.000000	-0.000066	0.000028	0.000020	-2.533791	-8.442063	52.584353
39828	1.439945	-0.423815	9.759092	-0.012634	-0.002278	0.061155	1.000000	-0.000061	0.000023	0.000021	-2.535323	-8.441264	52.583622
39829	1.439127	-0.390449	9.757001	-0.039349	0.017701	0.057507	1.000000	-0.000048	0.000003	0.000004	-2.535131	-8.442906	52.581839
39830	1.445181	-0.427801	9.725042	-0.002354	0.002234	0.028451	1.000000	-0.000043	0.000006	0.000024	-2.534754	-8.444070	52.582208
39831	1.448132	-0.446835	9.709055	0.016421	-0.005929	0.013919	1.000000	-0.000036	0.000005	0.000010	-2.533361	-8.445391	52.581134
39832	1.474734	-0.430900	9.694895	0.021409	0.025706	0.003136	1.000000	-0.000056	-0.000006	0.000023	-2.534376	-8.447994	52.582374
39833	1.459956	-0.487319	9.642985	0.063096	-0.016006	-0.047859	1.000000	-0.000061	-0.000005	0.000012	-2.535801	-8.450477	52.581622
39834	1.450252	-0.399314	9.688780	-0.018236	0.025879	-0.007886	1.000000	-0.000044	-0.000004	0.000029	-2.535595	-8.452724	52.582908
39835	1.477461	-0.417782	9.676685	0.014033	0.036674	-0.015028	1.000000	-0.000042	-0.000003	0.000005	-2.534767	-8.455009	52.581261
39836	1.462527	-0.473687	9.624807	0.055704	-0.005020	-0.066040	1.000000	-0.000025	0.000008	0.000016	-2.532209	-8.455997	52.580387
39837	1.458149	-0.387056	9.636676	-0.016499	0.043124	-0.058745	1.000000	-0.000024	0.000013	0.000001	-2.529198	-8.456478	52.578281
39838	1.455181	-0.404147	9.654745	-0.006857	0.028713	-0.040578	1.000000	-0.000060	0.000032	0.000016	-2.530575	-8.454676	52.577337
39839	1.481821	-0.422794	9.642725	0.025410	0.039510	-0.047725	1.000000	-0.000044	0.000020	0.000028	-2.530303	-8.454269	52.578299
39840	1.475587	-0.421808	9.676796	0.016845	0.032380	-0.015018	1.000000	-0.000048	0.000044	0.000017	-2.530321	-8.451144	52.578307
39841	1.448187	-0.439677	9.690971	0.012982	-0.000986	-0.004257	1.000000	-0.000049	0.000035	0.000022	-2.530510	-8.449033	52.578480
39842	1.450590	-0.459034	9.675032	0.031732	-0.009138	-0.018808	1.000000	-0.000062	0.000031	0.000040	-2.532610	-8.447262	52.580749
39843	1.473570	-0.425049	9.676962	0.018524	0.029803	-0.015012	1.000000	-0.000042	0.000025	0.000013	-2.531920	-8.446336	52.579970
39844	1.467481	-0.423892	9.711016	0.009966	0.022661	0.017694	1.000000	-0.000035	0.000024	-0.000000	-2.530192	-8.445585	52.577866
39845	1.470087	-0.443041	9.695054	0.028726	0.014511	0.003140	1.000000	-0.000061	0.000023	0.000021	-2.531754	-8.444858	52.577979
39846	1.469110	-0.409693	9.693041	0.002010	0.034503	-0.000451	1.000000	-0.000048	0.000021	0.000018	-2.531855	-8.444393	52.577805
39847	1.496382	-0.462731	9.683033	0.061556	0.024434	-0.004016	1.000000	-0.000048	0.000021	0.000018	-2.531973	-8.443889	52.577540
39848	1.466269	-0.462385	9.713125	0.039492	-0.001666	0.021283	1.000000	-0.000044	0.000020	0.000028	-2.531695	-8.443573	52.579246
39849	1.443787	-0.413117	9.689167	-0.009818	0.012974	-0.007848	1.000000	-0.000041	0.000021	0.000004	-2.530761	-8.443190	52.577378
39850	1.416622	-0.430819	9.703284	-0.013691	-0.020427	0.002889	1.000000	-0.000041	0.000034	0.000008	-2.529848	-8.441362	52.578295
39851	1.445786	-0.432995	9.673254	0.009487	0.003947	-0.022410	1.000000	-0.000044	0.000020	0.000028	-2.529574	-8.440957	52.579254
39852	1.439334	-0.397537	9.705263	-0.026329	0.017638	0.006724	1.000000	-0.000039	0.000009	0.000044	-2.529032	-8.441791	52.582919
39853	1.442312	-0.416385	9.689247	-0.007577	0.009497	-0.007842	1.000000	-0.000023	-0.000001	-0.000003	-2.525951	-8.443876	52.580374
39854	1.436598	-0.415156	9.723246	-0.016124	0.002338	0.024864	1.000000	-0.000039	0.000009	0.000044	-2.525542	-8.444663	52.582224
39855	1.441901	-0.418046	9.689236	-0.006464	0.007785	-0.007840	1.000000	-0.000051	0.000020	0.000042	-2.526318	-8.444138	52.584783
39856	1.468732	-0.436659	9.677180	0.025797	0.018575	-0.015001	1.000000	-0.000044	0.000010	0.000033	-2.526224	-8.444828	52.585978
39857	1.438800	-0.436315	9.707238	0.003750	-0.007527	0.010291	1.000000	-0.000044	0.000010	0.000033	-2.526123	-8.445487	52.587586
39858	1.465168	-0.420411	9.693178	0.008728	0.024127	-0.000424	1.000000	-0.000045	0.000014	0.000043	-2.526292	-8.445684	52.590711
39859	1.443881	-0.440090	9.673219	0.013954	-0.002937	-0.022415	1.000000	-0.000042	0.000011	0.000009	-2.525530	-8.446364	52.589492
39860	1.443758	-0.440910	9.673200	0.014512	-0.003805	-0.022416	1.000000	-0.000038	0.000000	0.000025	-2.524536	-8.448265	52.590229
39861	1.446610	-0.460199	9.657166	0.033253	-0.011937	-0.037000	1.000000	-0.000072	0.000020	0.000015	-2.527293	-8.447860	52.589626
39862	1.442641	-0.408652	9.671209	-0.011645	0.015350	-0.025955	1.000000	-0.000036	0.000019	0.000014	-2.525983	-8.447626	52.588569
39863	1.445352	-0.427666	9.655208	0.007095	0.007220	-0.040539	1.000000	-0.000048	0.000017	0.000008	-2.525855	-8.447664	52.587212
39864	1.439315	-0.426698	9.689244	-0.001423	0.000024	-0.007835	1.000000	-0.000042	0.000025	0.000013	-2.525129	-8.446777	52.586110
39865	1.438903	-0.427599	9.689265	-0.000860	-0.000835	-0.007835	1.000000	-0.000048	0.000017	0.000008	-2.525000	-8.446815	52.584752
39866	1.438069	-0.394080	9.687304	-0.027566	0.019162	-0.011358	1.000000	-0.000048	0.000017	0.000008	-2.524777	-8.446946	52.584718
39867	1.414078	-0.430026	9.685337	-0.013257	-0.021496	-0.015256	1.000000	-0.000042	0.000025	0.000013	-2.524082	-8.446023	52.583934
39868	1.437795	-0.430384	9.689306	0.000824	-0.003428	-0.007835	1.000000	-0.000049	0.000011	0.000023	-2.524428	-8.446589	52.582963
39869	1.428673	-0.411364	9.739366	-0.025855	-0.003364	0.039464	1.000000	-0.000048	0.000030	0.000012	-2.524367	-8.445023	52.582041
39870	1.433776	-0.414314	9.705383	-0.016221	0.002115	0.006761	1.000000	-0.000061	0.000023	0.000021	-2.525905	-8.444332	52.581818
39871	1.436404	-0.433584	9.689370	0.002512	-0.006011	-0.007837	1.000000	-0.000048	0.000021	0.000018	-2.526018	-8.443830	52.581546
39872	1.408875	-0.417025	9.701451	-0.028623	-0.018534	-0.000662	1.000000	-0.000050	0.000016	0.000032	-2.526484	-8.443909	52.583622
39873	1.433085	-0.451915	9.707369	0.012743	-0.021363	0.010263	1.000000	-0.000043	0.000020	0.000028	-2.526205	-8.443508	52.584574
39874	1.435307	-0.436469	9.689403	0.004207	-0.008602	-0.007839	1.000000	-0.000038	0.000014	0.000029	-2.525276	-8.443735	52.584492
39875	1.458932	-0.436881	9.693391	0.018304	0.009452	-0.000412	1.000000	-0.000055	0.000031	0.000026	-2.526264	-8.442050	52.585168
39876	1.440167	-0.440247	9.655417	0.014389	-0.003957	-0.040545	1.000000	-0.000038	0.000000	0.000025	-2.525292	-8.443905	52.585020
39877	1.428684	-0.437643	9.723426	-0.003164	-0.017545	0.024861	1.000000	-0.000062	0.000018	0.000036	-2.527262	-8.443704	52.586858
39878	1.434013	-0.440407	9.689416	0.006448	-0.012047	-0.007844	1.000000	-0.000026	0.000012	0.000026	-2.524910	-8.444243	52.588259
39879	1.431190	-0.457492	9.707388	0.016118	-0.026538	0.010246	1.000000	-0.000044	0.000010	0.000033	-2.524804	-8.444906	52.589860
39880	1.436120	-0.425828	9.671439	-0.001534	-0.000129	-0.025937	1.000000	-0.000049	0.000011	0.000023	-2.525095	-8.445451	52.588820
39881	1.433296	-0.443170	9.689396	0.008137	-0.014621	-0.007849	1.000000	-0.000049	0.000011	0.000023	-2.525380	-8.446013	52.589195
39882	1.454075	-0.425492	9.709402	0.004073	0.010681	0.014201	1.000000	-0.000049	0.000011	0.000023	-2.525705	-8.446621	52.589580
39883	1.408648	-0.445710	9.685420	-0.004290	-0.035245	-0.015288	1.000000	-0.000043	0.000020	0.000028	-2.525424	-8.446221	52.590529
39884	1.461755	-0.412872	9.657426	0.005129	0.028985	-0.036584	1.000000	-0.000048	0.000003	0.000004	-2.525265	-8.447889	52.588323
39885	1.434865	-0.430593	9.671414	0.001258	-0.004416	-0.025938	1.000000	-0.000036	0.000019	0.000014	-2.523933	-8.447609	52.587672
39886	1.431937	-0.447962	9.689377	0.010928	-0.018922	-0.007859	1.000000	-0.000066	0.000015	0.000016	-2.526046	-8.447887	52.587247
39887	1.410131	-0.433312	9.667441	-0.011167	-0.025036	-0.033378	1.000000	-0.000048	0.000017	0.000008	-2.525912	-8.447926	52.585883
39888	1.425089	-0.413734	9.721506	-0.024249	-0.006147	0.021391	1.000000	-0.000042	0.000025	0.000013	-2.525172	-8.447058	52.586088
39889	1.448695	-0.414233	9.725505	-0.010137	0.011891	0.028833	1.000000	-0.000061	0.000023	0.000021	-2.526722	-8.446337	52.586184
39890	1.427243	-0.433990	9.705486	-0.004976	-0.015121	0.006762	1.000000	-0.000043	0.000020	0.000028	-2.526458	-8.445970	52.587153
39891	1.456587	-0.436323	9.675459	0.018170	0.009318	-0.018500	1.000000	-0.000065	0.000020	0.000001	-2.528154	-8.445687	52.584936
39892	1.428951	-0.419847	9.687570	-0.012970	-0.003187	-0.011309	1.000000	-0.000048	0.000030	0.000012	-2.528108	-8.444146	52.584053
39893	1.428594	-0.420693	9.687586	-0.012408	-0.004045	-0.011309	1.000000	-0.000036	0.000005	0.000010	-2.526706	-8.445471	52.582963
39894	1.454989	-0.404785	9.673620	-0.007412	0.027636	-0.021929	1.000000	-0.000061	0.000023	0.000021	-2.528213	-8.444814	52.584004
39895	1.422173	-0.420945	9.721623	-0.020309	-0.012189	0.021395	1.000000	-0.000042	0.000025	0.000013	-2.527512	-8.443893	52.583213
39896	1.430550	-0.441651	9.671554	0.007425	-0.013884	-0.025949	1.000000	-0.000037	0.000010	0.000019	-2.526325	-8.444701	52.583318
39897	1.424312	-0.406196	9.703681	-0.028299	-0.000253	0.003334	1.000000	-0.000038	0.000000	0.000025	-2.525340	-8.446550	52.583963
39898	1.427288	-0.425204	9.687582	-0.009600	-0.008354	-0.011308	1.000000	-0.000048	0.000007	0.000013	-2.525413	-8.447673	52.583241
39899	1.427012	-0.426153	9.687581	-0.009037	-0.009213	-0.011309	1.000000	-0.000043	0.000020	0.000028	-2.525129	-8.447277	52.584185
39900	1.451254	-0.461163	9.693418	0.032343	-0.012095	-0.000451	1.000000	-0.000060	0.000009	0.000017	-2.526609	-8.448168	52.583706
39901	1.429109	-0.411981	9.669625	-0.017036	0.002741	-0.029363	1.000000	-0.000049	0.000011	0.000023	-2.526890	-8.448733	52.584074
39902	1.450433	-0.428841	9.691520	0.006206	0.007089	-0.003858	1.000000	-0.000050	0.000002	0.000028	-2.527323	-8.450410	52.586010
39903	1.423243	-0.412215	9.703584	-0.024926	-0.005416	0.003342	1.000000	-0.000043	0.000001	0.000014	-2.526728	-8.452157	52.585428
39904	1.474405	-0.430260	9.695435	0.020889	0.024258	0.003596	1.000000	-0.000055	0.000003	0.000017	-2.527606	-8.453685	52.584798
39905	1.431642	-0.434229	9.653439	0.003340	-0.007928	-0.044015	1.000000	-0.000060	0.000023	0.000021	-2.529151	-8.452967	52.584889
39906	1.449652	-0.433140	9.691446	0.008456	0.003649	-0.003858	1.000000	-0.000055	0.000017	0.000022	-2.530039	-8.452918	52.585609
39907	1.449295	-0.433986	9.691461	0.009019	0.002790	-0.003858	1.000000	-0.000029	0.000019	0.000000	-2.527652	-8.452757	52.583356
39908	1.427623	-0.419167	9.669536	-0.013105	-0.003270	-0.029357	1.000000	-0.000073	0.000001	0.000025	-2.530714	-8.454487	52.583761
39909	1.448860	-0.436200	9.691427	0.010150	0.001068	-0.003859	1.000000	-0.000046	0.000022	-0.000007	-2.530157	-8.454002	52.580655
39910	1.424423	-0.437567	9.687453	-0.002859	-0.018674	-0.011318	1.000000	-0.000038	0.000014	0.000029	-2.529254	-8.454291	52.581692
39911	1.450716	-0.421592	9.673544	0.002140	0.013034	-0.021896	1.000000	-0.000049	0.000025	0.000027	-2.529600	-8.453256	52.582495
39912	1.447634	-0.438978	9.691485	0.011828	-0.001519	-0.003861	1.000000	-0.000048	0.000021	0.000018	-2.529712	-8.452798	52.582829
39913	1.450270	-0.458064	9.675403	0.030518	-0.009609	-0.018531	1.000000	-0.000048	0.000021	0.000018	-2.529815	-8.452301	52.582545
39914	1.443879	-0.422821	9.707603	-0.005176	0.003987	0.010808	1.000000	-0.000043	0.000006	0.000024	-2.529465	-8.453548	52.583467
39915	1.452258	-0.443473	9.657502	0.022505	0.002365	-0.036566	1.000000	-0.000041	0.000030	-0.000001	-2.528341	-8.452103	52.580936
39916	1.445823	-0.408143	9.689720	-0.013169	0.015954	-0.007218	1.000000	-0.000048	0.000003	0.000004	-2.528038	-8.453750	52.579216
39917	1.448506	-0.427258	9.673626	0.005518	0.007869	-0.021892	1.000000	-0.000051	0.000034	0.000046	-2.528868	-8.451638	52.582192
39918	1.445434	-0.444587	9.691557	0.015210	-0.006695	-0.003868	1.000000	-0.000037	0.000010	0.000019	-2.527716	-8.452466	52.582360
39919	1.442191	-0.427462	9.707650	-0.002348	-0.000329	0.010810	1.000000	-0.000055	0.000008	0.000027	-2.528801	-8.453457	52.583232
39920	1.447642	-0.430144	9.673628	0.007194	0.005295	-0.021891	1.000000	-0.000038	0.000014	0.000029	-2.527917	-8.453710	52.583909
39921	1.439027	-0.445687	9.725550	0.007912	-0.015753	0.028829	1.000000	-0.000043	0.000015	0.000018	-2.527385	-8.453856	52.583760
39922	1.474099	-0.449592	9.661532	0.040014	0.015225	-0.029106	1.000000	-0.000055	0.000021	0.000031	-2.528538	-8.453227	52.584173
39923	1.452159	-0.434607	9.639666	0.017861	0.009212	-0.054593	1.000000	-0.000031	0.000027	0.000020	-2.526634	-8.451991	52.584092
39924	1.464671	-0.431413	9.711692	0.014038	0.014240	0.018281	1.000000	-0.000036	-0.000008	0.000005	-2.525201	-8.454946	52.582732
39925	1.446266	-0.434568	9.673636	0.009999	0.001009	-0.021892	1.000000	-0.000060	0.000009	0.000016	-2.526673	-8.455832	52.582376
39926	1.467416	-0.451536	9.695527	0.033276	0.005298	0.003590	1.000000	-0.000043	0.000020	0.000028	-2.526412	-8.455461	52.583333
39927	1.445606	-0.436569	9.673644	0.011118	-0.000707	-0.021894	1.000000	-0.000048	0.000017	0.000008	-2.526269	-8.455503	52.581957
39928	1.444868	-0.403002	9.671884	-0.015571	0.019365	-0.025207	1.000000	-0.000043	0.000015	0.000018	-2.525698	-8.455679	52.582181
39929	1.444866	-0.438467	9.673669	0.012245	-0.002430	-0.021895	1.000000	-0.000054	0.000027	0.000017	-2.526428	-8.454542	52.581753
39930	1.441428	-0.421448	9.689805	-0.005308	0.003921	-0.007198	1.000000	-0.000049	0.000011	0.000023	-2.526705	-8.455160	52.582365
39931	1.446719	-0.424290	9.655801	0.004219	0.009572	-0.039899	1.000000	-0.000066	0.000028	0.000020	-2.528874	-8.453803	52.582307
39932	1.443102	-0.407299	9.671968	-0.013330	0.015927	-0.025197	1.000000	-0.000038	0.000028	0.000033	-2.528021	-8.452480	52.583516
39933	1.412836	-0.406981	9.702008	-0.035313	-0.010301	0.000027	1.000000	-0.000046	0.000022	-0.000007	-2.527458	-8.451995	52.580404
39934	1.463617	-0.425091	9.693916	0.010518	0.019337	0.000283	1.000000	-0.000055	0.000021	0.000031	-2.528648	-8.451421	52.581668
39935	1.444846	-0.428376	9.655901	0.006453	0.006144	-0.039897	1.000000	-0.000055	0.000017	0.000022	-2.529553	-8.451350	52.581885
39936	1.438816	-0.427726	9.689918	-0.001950	-0.001234	-0.007196	1.000000	-0.000043	0.000015	0.000018	-2.529061	-8.451523	52.581703
39937	1.432811	-0.426927	9.723939	-0.010341	-0.008619	0.025504	1.000000	-0.000038	0.000014	0.000029	-2.528137	-8.451776	52.582775
39938	1.429354	-0.409789	9.740097	-0.027878	-0.002279	0.040215	1.000000	-0.000049	0.000025	0.000027	-2.528451	-8.450783	52.583882
39939	1.440262	-0.414014	9.672106	-0.009411	0.009920	-0.025185	1.000000	-0.000042	0.000025	0.000013	-2.527740	-8.449867	52.583082
39940	1.458668	-0.447309	9.711876	0.023036	0.000430	0.018274	1.000000	-0.000049	0.000011	0.000023	-2.528044	-8.450468	52.583580
39941	1.439587	-0.415824	9.672129	-0.008294	0.008205	-0.025182	1.000000	-0.000036	0.000019	0.000014	-2.526701	-8.450194	52.582918
39942	1.412229	-0.399171	9.684251	-0.039427	-0.004299	-0.017950	1.000000	-0.000055	0.000003	0.000017	-2.527544	-8.451766	52.583103
39943	1.460269	-0.399257	9.692260	-0.011677	0.032537	-0.002973	1.000000	-0.000048	0.000007	0.000013	-2.527574	-8.452874	52.582369
39944	1.436377	-0.435332	9.689941	0.002535	-0.008125	-0.007200	1.000000	-0.000061	0.000013	0.000026	-2.529291	-8.453275	52.583277
39945	1.457143	-0.417944	9.710099	-0.001401	0.017063	0.015012	1.000000	-0.000049	0.000011	0.000023	-2.529563	-8.453847	52.583629
39946	1.438493	-0.421018	9.672067	-0.005494	0.003902	-0.025178	1.000000	-0.000048	0.000017	0.000008	-2.529388	-8.453922	52.582346
39947	1.438155	-0.422050	9.672072	-0.004932	0.003044	-0.025177	1.000000	-0.000055	0.000017	0.000022	-2.530290	-8.453852	52.582560
39948	1.435201	-0.439553	9.689925	0.004787	-0.011574	-0.007204	1.000000	-0.000049	0.000011	0.000023	-2.530539	-8.454451	52.582809
39949	1.455959	-0.421952	9.710103	0.000859	0.013607	0.015017	1.000000	-0.000038	0.000014	0.000029	-2.529613	-8.454707	52.583879
39950	1.410537	-0.441903	9.685904	-0.007689	-0.032132	-0.014701	1.000000	-0.000055	0.000017	0.000022	-2.530519	-8.454648	52.583733
39951	1.431187	-0.424414	9.706097	-0.011614	-0.006954	0.007524	1.000000	-0.000043	0.000019	0.000028	-2.530224	-8.454261	52.584663
39952	1.454815	-0.424836	9.710149	0.002548	0.011014	0.015020	1.000000	-0.000042	0.000025	0.000013	-2.529492	-8.453399	52.584824
39953	1.457118	-0.409328	9.692314	-0.006047	0.023918	-0.002943	1.000000	-0.000049	0.000011	0.000023	-2.529761	-8.453972	52.585174
39954	1.435718	-0.428852	9.672135	-0.001005	-0.002978	-0.025176	1.000000	-0.000049	0.000025	0.000027	-2.530089	-8.452983	52.586539
39955	1.411323	-0.430278	9.668112	-0.014047	-0.022670	-0.032675	1.000000	-0.000043	0.000006	0.000024	-2.529728	-8.454199	52.587027
39956	1.435078	-0.430784	9.672144	0.000120	-0.004686	-0.025176	1.000000	-0.000049	0.000025	0.000027	-2.530081	-8.453138	52.587126
39957	1.434696	-0.431526	9.672168	0.000682	-0.005544	-0.025177	1.000000	-0.000023	0.000013	0.000001	-2.527055	-8.453621	52.585005
39958	1.458416	-0.431912	9.676213	0.014855	0.012433	-0.017676	1.000000	-0.000060	0.000023	0.000021	-2.528575	-8.452885	52.584068
39959	1.433903	-0.433474	9.672198	0.001810	-0.007256	-0.025178	1.000000	-0.000048	0.000021	0.000017	-2.528667	-8.452393	52.583769
39960	1.451751	-0.432380	9.710274	0.007064	0.004130	0.015023	1.000000	-0.000043	0.000029	0.000023	-2.528208	-8.450952	52.584083
39961	1.454019	-0.416881	9.692458	-0.001537	0.017047	-0.002927	1.000000	-0.000049	0.000011	0.000023	-2.528476	-8.451526	52.584430
39962	1.423932	-0.416741	9.722436	-0.023495	-0.009237	0.022269	1.000000	-0.000048	0.000017	0.000008	-2.528306	-8.451594	52.583493
39963	1.423933	-0.452161	9.724102	0.004313	-0.031067	0.025463	1.000000	-0.000043	0.000019	0.000028	-2.528008	-8.451209	52.584419
39964	1.452960	-0.419805	9.692490	0.000160	0.014454	-0.002922	1.000000	-0.000050	0.000020	0.000042	-2.528694	-8.450740	52.587103
39965	1.422779	-0.419711	9.722477	-0.021795	-0.011830	0.022271	1.000000	-0.000048	0.000017	0.000008	-2.528542	-8.450784	52.585716
39966	1.446614	-0.420227	9.726508	-0.007615	0.006128	0.029779	1.000000	-0.000048	0.000007	0.000013	-2.528545	-8.451914	52.584884
39967	1.449413	-0.439300	9.710313	0.011022	-0.001918	0.015020	1.000000	-0.000055	0.000017	0.000022	-2.529442	-8.451846	52.585090
39968	1.430410	-0.407914	9.670622	-0.020370	0.005975	-0.028366	1.000000	-0.000054	0.000013	0.000012	-2.530075	-8.452342	52.584085
39969	1.424805	-0.441774	9.706261	-0.001466	-0.022467	0.007508	1.000000	-0.000037	0.000010	0.000019	-2.528904	-8.453136	52.584062
39970	1.429792	-0.409667	9.670640	-0.019239	0.004259	-0.028362	1.000000	-0.000043	0.000029	0.000023	-2.528384	-8.451679	52.583758
39971	1.450820	-0.426596	9.692514	0.004114	0.008425	-0.002916	1.000000	-0.000043	0.000006	0.000024	-2.528020	-8.452897	52.584240
39972	1.426517	-0.427961	9.688466	-0.008939	-0.011255	-0.010429	1.000000	-0.000048	0.000017	0.000008	-2.527843	-8.452943	52.582778
39973	1.431619	-0.395992	9.652833	-0.026724	0.015487	-0.046287	1.000000	-0.000049	0.000011	0.000023	-2.528109	-8.453519	52.583121
39974	1.425895	-0.430028	9.688466	-0.007813	-0.012971	-0.010430	1.000000	-0.000055	0.000021	0.000031	-2.529240	-8.452912	52.584309
39975	1.446557	-0.412572	9.708719	-0.011691	0.012162	0.011858	1.000000	-0.000038	0.000014	0.000029	-2.528310	-8.453172	52.585371
39976	1.425209	-0.431981	9.688480	-0.006691	-0.014684	-0.010432	1.000000	-0.000055	0.000017	0.000022	-2.529232	-8.453099	52.584831
39977	1.449070	-0.432666	9.692507	0.007496	0.003270	-0.002915	1.000000	-0.000055	0.000003	0.000017	-2.530061	-8.454633	52.584592
39978	1.448657	-0.399255	9.690866	-0.019179	0.023393	-0.006058	1.000000	-0.000050	0.000002	0.000028	-2.530506	-8.456284	52.585766
39979	1.424719	-0.434975	9.688418	-0.005004	-0.017261	-0.010435	1.000000	-0.000029	0.000019	0.000000	-2.528107	-8.456124	52.583503
39980	1.426946	-0.419528	9.670637	-0.013625	-0.004306	-0.028353	1.000000	-0.000073	0.000029	0.000033	-2.531333	-8.454679	52.584959
39981	1.442159	-0.435338	9.726505	0.000866	-0.006811	0.029781	1.000000	-0.000049	0.000011	0.000023	-2.531597	-8.455256	52.585299
39982	1.450281	-0.421363	9.674697	0.001122	0.012786	-0.020830	1.000000	-0.000048	0.000021	0.000017	-2.531701	-8.454792	52.585113
39983	1.473844	-0.421910	9.678782	0.015315	0.030735	-0.013307	1.000000	-0.000048	0.000030	0.000012	-2.531609	-8.453237	52.584162
39984	1.425228	-0.423792	9.670705	-0.011382	-0.007730	-0.028352	1.000000	-0.000055	0.000017	0.000022	-2.532512	-8.453150	52.583516
39985	1.443300	-0.422915	9.708759	-0.006060	0.003564	0.011870	1.000000	-0.000048	0.000007	0.000013	-2.532533	-8.454262	52.582768
39986	1.440308	-0.440336	9.726554	0.003683	-0.011119	0.029777	1.000000	-0.000046	0.000022	-0.000007	-2.531975	-8.453786	52.579793
39987	1.448594	-0.426464	9.674726	0.003933	0.008502	-0.020826	1.000000	-0.000067	-0.000005	0.000026	-2.534416	-8.456170	52.580560
39988	1.442664	-0.426211	9.708709	-0.004364	0.000979	0.011871	1.000000	-0.000050	0.000020	0.000042	-2.535111	-8.455675	52.582306
39989	1.445111	-0.410625	9.690921	-0.012984	0.013947	-0.006029	1.000000	-0.000036	0.000005	0.000010	-2.533695	-8.457006	52.581192
39990	1.421140	-0.446454	9.688422	0.001174	-0.026717	-0.010455	1.000000	-0.000055	0.000017	0.000022	-2.534562	-8.456998	52.582251
39991	1.447677	-0.430583	9.674681	0.006187	0.005056	-0.020825	1.000000	-0.000048	0.000007	0.000013	-2.534582	-8.458111	52.581501
39992	1.441764	-0.430165	9.708669	-0.002109	-0.002474	0.011872	1.000000	-0.000055	0.000007	0.000027	-2.535642	-8.459115	52.581977
39993	1.423301	-0.433079	9.670577	-0.006326	-0.015458	-0.028357	1.000000	-0.000043	0.000006	0.000023	-2.535274	-8.460337	52.582452
39994	1.449770	-0.417126	9.656859	-0.001314	0.016320	-0.038718	1.000000	-0.000049	0.000025	0.000027	-2.535608	-8.459314	52.583050
39995	1.443720	-0.416722	9.690868	-0.009606	0.008785	-0.006020	1.000000	-0.000055	0.000003	0.000017	-2.536434	-8.460850	52.582803
39996	1.440745	-0.434058	9.708647	0.000145	-0.005915	0.011871	1.000000	-0.000025	0.000022	0.000020	-2.533896	-8.460269	52.583323
39997	1.422098	-0.436705	9.670591	-0.004082	-0.018884	-0.028362	1.000000	-0.000049	0.000011	0.000022	-2.534156	-8.460848	52.583658
39998	1.445975	-0.437293	9.674635	0.010124	-0.000950	-0.020827	1.000000	-0.000048	0.000007	0.000013	-2.534163	-8.461964	52.582752
39999	1.461016	-0.418382	9.728939	-0.002557	0.017449	0.034218	1.000000	-0.000043	0.000015	0.000018	-2.533616	-8.462120	52.582582
40000	1.427075	-0.441002	9.636567	0.006449	-0.014770	-0.061063	1.000000	-0.000048	0.000021	0.000017	-2.533676	-8.461663	52.582462
40001	1.444946	-0.439941	9.674668	0.011810	-0.003531	-0.020830	1.000000	-0.000030	0.000023	0.000010	-2.531516	-8.460970	52.581283
40002	1.441417	-0.422873	9.690944	-0.005654	0.002767	-0.006013	1.000000	-0.000056	0.000025	0.000041	-2.532847	-8.459800	52.582578
40003	1.419567	-0.407773	9.669144	-0.027932	-0.003024	-0.031429	1.000000	-0.000042	0.000025	0.000013	-2.532122	-8.458889	52.581763
40004	1.434703	-0.423250	9.725016	-0.013362	-0.005664	0.026684	1.000000	-0.000036	0.000019	0.000014	-2.530713	-8.458656	52.581847
40005	1.439981	-0.425544	9.691041	-0.003960	0.000180	-0.006012	1.000000	-0.000048	0.000030	0.000012	-2.530617	-8.457102	52.580891
40006	1.457851	-0.424730	9.729138	0.001421	0.011392	0.034227	1.000000	-0.000054	0.000013	0.000012	-2.531230	-8.457583	52.579901
40007	1.441904	-0.411086	9.673311	-0.012028	0.012319	-0.023881	1.000000	-0.000049	0.000025	0.000027	-2.531552	-8.456564	52.580675
40008	1.454321	-0.443273	9.746927	0.011754	-0.004192	0.052097	1.000000	-0.000043	0.000015	0.000018	-2.531005	-8.456685	52.579874
40009	1.444282	-0.430820	9.657080	0.007129	0.003461	-0.038707	1.000000	-0.000037	0.000010	0.000019	-2.529827	-8.457485	52.579840
40010	1.435283	-0.412390	9.707331	-0.019160	0.003028	0.008819	1.000000	-0.000055	0.000007	0.000027	-2.530848	-8.458493	52.580264
40011	1.434955	-0.413390	9.707336	-0.018596	0.002168	0.008821	1.000000	-0.000042	0.000025	0.000013	-2.530121	-8.457583	52.579446
40012	1.440261	-0.415850	9.673352	-0.009209	0.008033	-0.023874	1.000000	-0.000060	0.000023	0.000021	-2.531646	-8.456887	52.579967
40013	1.431367	-0.431988	9.725123	-0.008269	-0.013424	0.026682	1.000000	-0.000038	0.000014	0.000029	-2.530709	-8.457154	52.581019
40014	1.436532	-0.399822	9.689634	-0.026113	0.013461	-0.009034	1.000000	-0.000052	0.000018	-0.000003	-2.530956	-8.457114	52.578983
40015	1.463392	-0.418440	9.677439	0.006131	0.024235	-0.016320	1.000000	-0.000050	0.000006	0.000037	-2.531632	-8.458231	52.581041
40016	1.436333	-0.436463	9.691096	0.002229	-0.009271	-0.006016	1.000000	-0.000055	0.000017	0.000021	-2.532572	-8.458184	52.581056
40017	1.436050	-0.437441	9.691094	0.002792	-0.010130	-0.006017	1.000000	-0.000042	0.000011	0.000009	-2.531780	-8.458874	52.579794
40018	1.411444	-0.404370	9.685535	-0.037524	-0.008741	-0.016577	1.000000	-0.000061	0.000013	0.000026	-2.533438	-8.459224	52.580227
40019	1.462371	-0.422610	9.677412	0.008380	0.020804	-0.016314	1.000000	-0.000042	0.000011	0.000009	-2.532646	-8.459913	52.578964
40020	1.438048	-0.423807	9.673336	-0.004711	0.001175	-0.023867	1.000000	-0.000038	0.000014	0.000029	-2.531666	-8.460156	52.579269
40021	1.437811	-0.424818	9.673327	-0.004149	0.000318	-0.023867	1.000000	-0.000060	0.000009	0.000016	-2.533114	-8.461053	52.578872
40022	1.437429	-0.425869	9.673337	-0.003584	-0.000545	-0.023867	1.000000	-0.000043	0.000029	0.000023	-2.532596	-8.459630	52.579486
40023	1.457962	-0.408493	9.693729	-0.007371	0.024500	-0.001457	1.000000	-0.000048	0.000021	0.000017	-2.532673	-8.459145	52.579169
40024	1.436513	-0.427786	9.673389	-0.002458	-0.002266	-0.023867	1.000000	-0.000048	0.000021	0.000017	-2.532720	-8.458679	52.579046
40025	1.427639	-0.443959	9.725132	-0.001489	-0.023775	0.026666	1.000000	-0.000049	0.000011	0.000022	-2.532975	-8.459262	52.579371
40026	1.457305	-0.445965	9.695189	0.021547	0.000890	0.001530	1.000000	-0.000048	0.000007	0.000013	-2.532980	-8.460358	52.577966
40027	1.453886	-0.429083	9.711482	0.004101	0.007163	0.016388	1.000000	-0.000055	0.000031	0.000026	-2.533926	-8.458699	52.578594
40028	1.456448	-0.448056	9.695222	0.022684	-0.000839	0.001527	1.000000	-0.000047	0.000017	0.000008	-2.533684	-8.458749	52.576997
40029	1.455779	-0.414646	9.693796	-0.003972	0.019333	-0.001443	1.000000	-0.000060	0.000023	0.000020	-2.535194	-8.458048	52.577040
40030	1.428624	-0.432572	9.707434	-0.007869	-0.014184	0.008825	1.000000	-0.000037	0.000009	0.000019	-2.534037	-8.458836	52.576801
40031	1.428404	-0.433464	9.707427	-0.007306	-0.015044	0.008824	1.000000	-0.000049	0.000011	0.000022	-2.534290	-8.459420	52.577124
40032	1.403964	-0.434842	9.703347	-0.020415	-0.034665	0.001258	1.000000	-0.000049	0.000025	0.000027	-2.534596	-8.458416	52.578198
40033	1.460334	-0.419912	9.659806	0.007071	0.022677	-0.034130	1.000000	-0.000048	0.000007	0.000013	-2.534607	-8.459531	52.577433
40034	1.427402	-0.436328	9.707446	-0.005608	-0.017630	0.008821	1.000000	-0.000032	0.000022	0.000034	-2.533062	-8.458835	52.579144
40035	1.426975	-0.437146	9.707472	-0.005044	-0.018490	0.008820	1.000000	-0.000043	0.000019	0.000028	-2.532750	-8.458464	52.580050
40036	1.429271	-0.421610	9.689784	-0.013691	-0.005434	-0.009001	1.000000	-0.000059	0.000028	0.000006	-2.533817	-8.457188	52.577600
40037	1.452945	-0.422342	9.693889	0.000550	0.012460	-0.001431	1.000000	-0.000049	0.000011	0.000022	-2.534069	-8.457773	52.577920
40038	1.452690	-0.423166	9.693891	0.001120	0.011592	-0.001430	1.000000	-0.000030	0.000013	0.000015	-2.532018	-8.458169	52.577473
40039	1.455524	-0.441854	9.677585	0.019682	0.003609	-0.016309	1.000000	-0.000043	0.000006	0.000023	-2.531642	-8.459397	52.577933
40040	1.428206	-0.425175	9.689786	-0.011434	-0.008881	-0.009000	1.000000	-0.000043	0.000015	0.000018	-2.531079	-8.459577	52.578054
40041	1.430617	-0.409523	9.672095	-0.020092	0.004183	-0.026811	1.000000	-0.000048	0.000021	0.000017	-2.531152	-8.459094	52.577732
40042	1.430548	-0.445016	9.673496	0.007683	-0.017721	-0.023885	1.000000	-0.000049	0.000011	0.000022	-2.531407	-8.459705	52.578634
40043	1.469543	-0.426152	9.732003	0.008845	0.019228	0.038841	1.000000	-0.000055	0.000017	0.000021	-2.532286	-8.459648	52.578813
40044	1.430028	-0.447001	9.673481	0.008814	-0.019431	-0.023889	1.000000	-0.000036	0.000005	0.000010	-2.530843	-8.460930	52.576795
40045	1.453648	-0.447541	9.677606	0.023061	-0.001544	-0.016315	1.000000	-0.000049	0.000039	0.000031	-2.531219	-8.458319	52.578002
40046	1.450197	-0.430614	9.693936	0.005628	0.004712	-0.001426	1.000000	-0.000047	0.000003	0.000003	-2.531001	-8.459989	52.576421
40047	1.425608	-0.397344	9.688458	-0.034709	0.006159	-0.011911	1.000000	-0.000042	0.000025	0.000013	-2.530266	-8.459082	52.575595
40048	1.425450	-0.432736	9.689857	-0.006935	-0.015739	-0.009005	1.000000	-0.000047	0.000017	0.000008	-2.530142	-8.459098	52.573944
40049	1.427906	-0.417139	9.672170	-0.015599	-0.002662	-0.026802	1.000000	-0.000050	0.000015	0.000032	-2.530633	-8.459155	52.575347
40050	1.445781	-0.416512	9.710293	-0.010110	0.008396	0.013471	1.000000	-0.000048	0.000021	0.000017	-2.530714	-8.458684	52.575461
40051	1.445534	-0.417559	9.710285	-0.009545	0.007535	0.013472	1.000000	-0.000055	0.000003	0.000017	-2.531528	-8.460226	52.575192
40052	1.426927	-0.420125	9.672186	-0.013914	-0.005238	-0.026801	1.000000	-0.000036	0.000033	0.000018	-2.530200	-8.458380	52.575300
40053	1.420599	-0.419848	9.706224	-0.022107	-0.012928	0.005892	1.000000	-0.000062	0.000017	0.000035	-2.532124	-8.458220	52.577062
40054	1.444363	-0.420673	9.710325	-0.007840	0.004954	0.013476	1.000000	-0.000049	0.000011	0.000022	-2.532343	-8.458745	52.576979
40055	1.449895	-0.423032	9.676315	0.001476	0.010932	-0.019215	1.000000	-0.000055	0.000017	0.000021	-2.533219	-8.458689	52.577153
40056	1.395697	-0.423441	9.702095	-0.034097	-0.034231	-0.001694	1.000000	-0.000048	0.000007	0.000013	-2.533219	-8.459780	52.575614
40057	1.446573	-0.441658	9.693981	0.011836	-0.004732	-0.001431	1.000000	-0.000048	0.000021	0.000017	-2.533288	-8.459299	52.575287
40058	1.446399	-0.442584	9.693965	0.012400	-0.005596	-0.001433	1.000000	-0.000039	-0.000005	0.000039	-2.532685	-8.461731	52.578390
40059	1.446253	-0.443301	9.693954	0.012963	-0.006456	-0.001434	1.000000	-0.000029	0.000019	0.000000	-2.530273	-8.461572	52.576116
40060	1.448641	-0.427584	9.676302	0.004292	0.006654	-0.019212	1.000000	-0.000060	0.000023	0.000020	-2.531827	-8.460817	52.575439
40061	1.421229	-0.411235	9.688522	-0.026820	-0.005829	-0.011886	1.000000	-0.000060	0.000009	0.000016	-2.533266	-8.461717	52.575025
40062	1.445241	-0.446447	9.693960	0.014648	-0.009017	-0.001438	1.000000	-0.000038	0.000018	0.000038	-2.532599	-8.461454	52.577219
40063	1.426664	-0.448897	9.655851	0.010247	-0.021744	-0.041722	1.000000	-0.000042	0.000015	0.000018	-2.532040	-8.461617	52.577031
40064	1.468649	-0.447872	9.698092	0.029485	0.007994	0.006151	1.000000	-0.000042	0.000015	0.000018	-2.531456	-8.461722	52.576121
40065	1.422964	-0.432813	9.672210	-0.006594	-0.016351	-0.026805	1.000000	-0.000048	0.000021	0.000017	-2.531523	-8.461242	52.575792
40066	1.449557	-0.451256	9.660016	0.025644	-0.005578	-0.034136	1.000000	-0.000040	0.000030	-0.000002	-2.530373	-8.459765	52.573076
40067	1.416104	-0.433520	9.706279	-0.014199	-0.024930	0.005883	1.000000	-0.000067	0.000023	0.000034	-2.532919	-8.458964	52.574691
40068	1.421514	-0.435844	9.672287	-0.004914	-0.018919	-0.026809	1.000000	-0.000036	0.000019	0.000014	-2.531581	-8.458737	52.574670
40069	1.442323	-0.453040	9.694089	0.018593	-0.015027	-0.001452	1.000000	-0.000049	0.000025	0.000027	-2.531888	-8.457729	52.575425
40070	1.438893	-0.436026	9.710460	0.001198	-0.008797	0.013476	1.000000	-0.000035	0.000015	0.000004	-2.530225	-8.457996	52.573744
40071	1.441568	-0.454741	9.694122	0.019727	-0.016753	-0.001457	1.000000	-0.000048	0.000021	0.000017	-2.530291	-8.457517	52.573413
40072	1.441068	-0.421216	9.692821	-0.006906	0.003459	-0.004282	1.000000	-0.000048	0.000007	0.000013	-2.530251	-8.458604	52.572275
40073	1.440796	-0.422160	9.692820	-0.006343	0.002600	-0.004281	1.000000	-0.000043	0.000019	0.000028	-2.529932	-8.458240	52.573170
40074	1.443266	-0.406335	9.675188	-0.015031	0.015731	-0.022033	1.000000	-0.000035	0.000015	0.000004	-2.528397	-8.458489	52.570957
40075	1.440159	-0.423976	9.692836	-0.005225	0.000891	-0.004280	1.000000	-0.000066	0.000014	0.000015	-2.530459	-8.458748	52.570397
40076	1.442702	-0.408228	9.675192	-0.013902	0.014009	-0.022029	1.000000	-0.000023	0.000013	0.000001	-2.527375	-8.459254	52.568779
40077	1.439686	-0.425632	9.692833	-0.004095	-0.000834	-0.004280	1.000000	-0.000050	0.000006	0.000037	-2.528040	-8.460385	52.570813
40078	1.442333	-0.409919	9.675176	-0.012784	0.012295	-0.022025	1.000000	-0.000037	0.000009	0.000019	-2.526885	-8.461214	52.571450
40079	1.439296	-0.427448	9.692811	-0.002975	-0.002552	-0.004280	1.000000	-0.000049	0.000011	0.000022	-2.527129	-8.461804	52.571757
40080	1.436177	-0.410559	9.709148	-0.020357	0.003677	0.010667	1.000000	-0.000044	-0.000004	0.000028	-2.526879	-8.464062	52.572494
40081	1.447757	-0.413866	9.641117	-0.002379	0.016631	-0.054709	1.000000	-0.000038	0.000014	0.000029	-2.525932	-8.464341	52.573528
40082	1.435726	-0.412208	9.709145	-0.019224	0.001959	0.010670	1.000000	-0.000036	0.000019	0.000014	-2.524551	-8.464054	52.572553
40083	1.441322	-0.414243	9.675142	-0.009957	0.008012	-0.022017	1.000000	-0.000043	0.000006	0.000023	-2.524168	-8.465287	52.573000
40084	1.441230	-0.415158	9.675117	-0.009399	0.007161	-0.022016	1.000000	-0.000047	0.000003	0.000003	-2.523971	-8.466920	52.571209
40085	1.462230	-0.432526	9.696870	0.014135	0.011008	0.003328	1.000000	-0.000050	0.000020	0.000041	-2.524696	-8.466456	52.573686
40086	1.443632	-0.435157	9.658742	0.009684	-0.001627	-0.036971	1.000000	-0.000059	0.000018	0.000011	-2.525943	-8.466219	52.572067
40087	1.434363	-0.417185	9.709134	-0.016400	-0.002326	0.010675	1.000000	-0.000048	0.000021	0.000017	-2.526005	-8.465741	52.571731
40088	1.437007	-0.436086	9.692766	0.002121	-0.010276	-0.004284	1.000000	-0.000054	0.000017	0.000021	-2.526793	-8.465701	52.571844
40089	1.427744	-0.418094	9.743162	-0.023955	-0.010984	0.043365	1.000000	-0.000048	0.000021	0.000017	-2.526855	-8.465224	52.571508
40090	1.439175	-0.421453	9.675150	-0.006002	0.002017	-0.022011	1.000000	-0.000048	0.000007	0.000013	-2.526840	-8.466320	52.570624
40091	1.435962	-0.439160	9.692782	0.003814	-0.012852	-0.004288	1.000000	-0.000054	0.000031	0.000026	-2.527769	-8.464672	52.571232
40092	1.462430	-0.423289	9.679314	0.008847	0.019003	-0.014394	1.000000	-0.000049	0.000011	0.000022	-2.528032	-8.465258	52.571476
40093	1.435190	-0.441347	9.692797	0.004938	-0.014567	-0.004291	1.000000	-0.000060	0.000023	0.000020	-2.529525	-8.464564	52.571495
40094	1.437610	-0.425664	9.675199	-0.003765	-0.001408	-0.022010	1.000000	-0.000036	0.000019	0.000014	-2.528208	-8.464325	52.571283
40095	1.431570	-0.459921	9.710440	0.015311	-0.030302	0.013421	1.000000	-0.000054	0.000017	0.000021	-2.529074	-8.464275	52.571443
40096	1.439946	-0.445423	9.658824	0.015298	-0.010188	-0.036984	1.000000	-0.000042	0.000015	0.000018	-2.528539	-8.464403	52.570911
40097	1.436596	-0.428579	9.675221	-0.002079	-0.003972	-0.022010	1.000000	-0.000054	0.000017	0.000021	-2.529405	-8.464353	52.571070
40098	1.454434	-0.428290	9.713368	0.003546	0.006914	0.018298	1.000000	-0.000059	0.000018	0.000011	-2.530631	-8.464138	52.569314
40099	1.429994	-0.429613	9.709237	-0.009623	-0.012638	0.010676	1.000000	-0.000043	0.000019	0.000028	-2.530306	-8.463778	52.570202
40100	1.429650	-0.430476	9.709249	-0.009057	-0.013491	0.010676	1.000000	-0.000038	0.000014	0.000029	-2.529372	-8.464018	52.570637
40101	1.453442	-0.465595	9.714623	0.032437	-0.016760	0.021022	1.000000	-0.000047	0.000030	0.000012	-2.529251	-8.462472	52.569659
40102	1.434795	-0.433487	9.675269	0.000750	-0.008252	-0.022013	1.000000	-0.000049	-0.000003	0.000018	-2.529377	-8.464645	52.569315
40103	1.410582	-0.434808	9.671100	-0.012425	-0.027796	-0.029639	1.000000	-0.000054	0.000017	0.000021	-2.530241	-8.464596	52.569473
40104	1.458372	-0.435272	9.679394	0.015624	0.008723	-0.014388	1.000000	-0.000042	0.000015	0.000018	-2.529638	-8.464702	52.568019
40105	1.425337	-0.451893	9.726851	0.003044	-0.031827	0.028369	1.000000	-0.000037	0.000009	0.000019	-2.528446	-8.465513	52.567961
40106	1.460699	-0.420353	9.661798	0.007479	0.021042	-0.032085	1.000000	-0.000054	0.000017	0.000021	-2.529332	-8.465492	52.568676
40107	1.430396	-0.420489	9.691666	-0.014363	-0.005473	-0.007026	1.000000	-0.000043	0.000019	0.000028	-2.529006	-8.465133	52.569562
40108	1.433056	-0.439237	9.675268	0.004129	-0.013404	-0.022019	1.000000	-0.000047	0.000017	0.000008	-2.528781	-8.465219	52.568616
40109	1.429654	-0.422155	9.691703	-0.013235	-0.007199	-0.007025	1.000000	-0.000025	0.000021	0.000020	-2.526219	-8.464650	52.568649
40110	1.435099	-0.424077	9.657729	-0.004011	-0.001070	-0.039711	1.000000	-0.000053	0.000022	0.000007	-2.526656	-8.464026	52.566679
40111	1.458767	-0.424898	9.661891	0.010295	0.016752	-0.032079	1.000000	-0.000054	0.000017	0.000021	-2.527518	-8.463977	52.566833
40112	1.455529	-0.442636	9.679489	0.020123	0.001846	-0.014393	1.000000	-0.000048	0.000021	0.000017	-2.527582	-8.463511	52.566784
40113	1.454869	-0.409062	9.678355	-0.006505	0.022096	-0.017076	1.000000	-0.000042	0.000029	0.000023	-2.527074	-8.462084	52.567029
40114	1.427410	-0.426962	9.691823	-0.010414	-0.011491	-0.007026	1.000000	-0.000049	0.000025	0.000027	-2.527339	-8.461072	52.567841
40115	1.453809	-0.376435	9.677252	-0.032563	0.041489	-0.019747	1.000000	-0.000042	0.000011	0.000008	-2.526529	-8.461766	52.566553
40116	1.423643	-0.411071	9.708272	-0.027212	-0.006154	0.007979	1.000000	-0.000059	0.000028	0.000006	-2.527619	-8.460556	52.564800
40117	1.429115	-0.413162	9.674288	-0.018003	-0.000011	-0.024705	1.000000	-0.000037	0.000014	0.000029	-2.526666	-8.460842	52.565824
40118	1.425957	-0.396289	9.690695	-0.035357	0.006181	-0.009694	1.000000	-0.000054	-0.000001	0.000007	-2.527205	-8.462939	52.564750
40119	1.452817	-0.414990	9.678411	-0.003127	0.016941	-0.017064	1.000000	-0.000060	0.000022	0.000020	-2.528691	-8.462249	52.564759
40120	1.428328	-0.416335	9.674269	-0.016310	-0.002589	-0.024702	1.000000	-0.000048	0.000021	0.000017	-2.528707	-8.461760	52.564465
40121	1.422120	-0.416200	9.708276	-0.024387	-0.010459	0.007983	1.000000	-0.000044	0.000010	0.000033	-2.528558	-8.462474	52.565985
40122	1.427690	-0.418344	9.674276	-0.015184	-0.004300	-0.024701	1.000000	-0.000055	0.000021	0.000031	-2.529660	-8.461879	52.567649
40123	1.442660	-0.400137	9.728861	-0.027414	0.013540	0.030645	1.000000	-0.000032	-0.000006	0.000025	-2.528021	-8.464405	52.568366
40124	1.442589	-0.400990	9.728837	-0.026850	0.012681	0.030647	1.000000	-0.000049	0.000011	0.000022	-2.528272	-8.464998	52.569344
40125	1.450999	-0.420896	9.678429	0.000256	0.011795	-0.017056	1.000000	-0.000049	0.000039	0.000031	-2.528627	-8.462404	52.570531
40126	1.417655	-0.437816	9.725860	-0.012282	-0.028818	0.025645	1.000000	-0.000054	0.000013	0.000012	-2.529234	-8.462816	52.568938
40127	1.450194	-0.422955	9.678460	0.001390	0.010087	-0.017054	1.000000	-0.000047	0.000017	0.000007	-2.529046	-8.462868	52.567505
40128	1.428914	-0.442020	9.657841	0.006105	-0.016483	-0.039726	1.000000	-0.000055	0.000007	0.000026	-2.530038	-8.463893	52.568614
40129	1.449715	-0.425004	9.678442	0.002521	0.008366	-0.017053	1.000000	-0.000042	0.000015	0.000018	-2.529466	-8.464064	52.568408
40130	1.422417	-0.442880	9.691843	-0.001388	-0.025224	-0.007046	1.000000	-0.000048	0.000021	0.000017	-2.529509	-8.463523	52.567407
40131	1.443317	-0.460313	9.713562	0.022218	-0.021507	0.018253	1.000000	-0.000043	0.000005	0.000023	-2.529118	-8.464763	52.567838
40132	1.448839	-0.427968	9.678442	0.004225	0.005791	-0.017051	1.000000	-0.000062	0.000017	0.000035	-2.530953	-8.464635	52.569914
40133	1.451577	-0.446725	9.661990	0.022688	-0.002108	-0.032086	1.000000	-0.000035	0.000011	-0.000005	-2.529094	-8.465428	52.567040
40134	1.445392	-0.446329	9.696003	0.014637	-0.010013	0.000596	1.000000	-0.000031	0.000017	0.000024	-2.527317	-8.465274	52.567448
40135	1.447701	-0.430488	9.678501	0.005916	0.003216	-0.017051	1.000000	-0.000054	0.000040	0.000021	-2.528053	-8.462563	52.567405
40136	1.444033	-0.413766	9.695006	-0.011409	0.009393	-0.002011	1.000000	-0.000049	0.000025	0.000027	-2.528289	-8.461545	52.567800
40137	1.440681	-0.431497	9.712576	-0.001560	-0.005559	0.015631	1.000000	-0.000048	0.000021	0.000017	-2.528340	-8.461072	52.567449
40138	1.419221	-0.450564	9.691957	0.003128	-0.032107	-0.007067	1.000000	-0.000055	0.000021	0.000031	-2.529457	-8.460514	52.569049
40139	1.448664	-0.417738	9.661071	-0.001115	0.013878	-0.034690	1.000000	-0.000029	0.000019	0.000000	-2.527033	-8.460354	52.566765
40140	1.436627	-0.416398	9.729072	-0.017763	-0.001108	0.030676	1.000000	-0.000047	0.000003	0.000003	-2.526767	-8.462005	52.564907
40141	1.445170	-0.436292	9.678619	0.009299	-0.001937	-0.017053	1.000000	-0.000060	0.000036	0.000025	-2.528305	-8.459723	52.565358
40142	1.441682	-0.419608	9.695105	-0.008032	0.004250	-0.002005	1.000000	-0.000044	0.000010	0.000033	-2.528206	-8.460386	52.566838
40143	1.438479	-0.437277	9.712644	0.001821	-0.010713	0.015627	1.000000	-0.000043	0.000019	0.000028	-2.527873	-8.460033	52.567713
40144	1.446945	-0.422460	9.661123	0.001693	0.009597	-0.034685	1.000000	-0.000042	0.000015	0.000018	-2.527274	-8.460246	52.568195
40145	1.434789	-0.421312	9.729131	-0.014940	-0.005413	0.030679	1.000000	-0.000047	0.000017	0.000007	-2.527082	-8.460299	52.566757
40146	1.422224	-0.424408	9.656965	-0.010962	-0.010762	-0.042345	1.000000	-0.000036	0.000019	0.000014	-2.525706	-8.460066	52.566176
40147	1.464155	-0.423788	9.699332	0.008557	0.018585	0.005661	1.000000	-0.000043	0.000005	0.000023	-2.525312	-8.461309	52.566601
40148	1.442940	-0.442716	9.678660	0.013225	-0.007943	-0.017061	1.000000	-0.000049	0.000011	0.000022	-2.525565	-8.461921	52.567528
40149	1.442510	-0.409419	9.677603	-0.013391	0.012338	-0.019622	1.000000	-0.000071	0.000020	0.000014	-2.528230	-8.461543	52.566793
40150	1.436236	-0.409611	9.711604	-0.021405	0.004382	0.013061	1.000000	-0.000045	0.000014	0.000042	-2.528233	-8.461734	52.569364
40151	1.441838	-0.411670	9.677608	-0.012254	0.010615	-0.019618	1.000000	-0.000054	0.000017	0.000021	-2.529086	-8.461692	52.569503
40152	1.465564	-0.447079	9.682850	0.029262	0.007268	-0.009401	1.000000	-0.000054	0.000026	0.000016	-2.529831	-8.460523	52.569066
40153	1.438124	-0.430481	9.695157	-0.001836	-0.005206	-0.002002	1.000000	-0.000042	0.000011	0.000008	-2.529014	-8.461220	52.567767
40154	1.440592	-0.414547	9.677671	-0.010565	0.008061	-0.019614	1.000000	-0.000041	0.000034	0.000008	-2.528064	-8.459214	52.565620
40155	1.461270	-0.432106	9.699400	0.013078	0.011714	0.005666	1.000000	-0.000056	0.000011	0.000036	-2.529338	-8.459720	52.567480
40156	1.436765	-0.398995	9.694184	-0.027307	0.013370	-0.004539	1.000000	-0.000060	0.000022	0.000020	-2.530779	-8.458982	52.567010
40157	1.436540	-0.434445	9.695215	0.000431	-0.008636	-0.002004	1.000000	-0.000035	0.000011	-0.000005	-2.528917	-8.459774	52.564131
40158	1.460273	-0.435157	9.699413	0.014785	0.009139	0.005667	1.000000	-0.000055	0.000021	0.000031	-2.529990	-8.459179	52.565122
40159	1.438781	-0.419567	9.677724	-0.007738	0.003779	-0.019608	1.000000	-0.000037	0.000014	0.000028	-2.529030	-8.459473	52.566135
40160	1.462572	-0.420284	9.681917	0.006617	0.021553	-0.011934	1.000000	-0.000049	0.000011	0.000022	-2.529239	-8.460046	52.566318
40161	1.438233	-0.421534	9.677720	-0.006608	0.002065	-0.019607	1.000000	-0.000054	0.000017	0.000021	-2.530089	-8.460005	52.566454
40162	1.461804	-0.422409	9.681940	0.007747	0.019842	-0.011931	1.000000	-0.000052	0.000032	0.000001	-2.530344	-8.458301	52.564121
40163	1.434304	-0.405954	9.694260	-0.023350	0.007370	-0.004522	1.000000	-0.000056	0.000011	0.000036	-2.531616	-8.458808	52.565977
40164	1.436970	-0.424896	9.677761	-0.004916	-0.000505	-0.019606	1.000000	-0.000060	0.000022	0.000020	-2.533065	-8.458133	52.566127
40165	1.430685	-0.425046	9.711760	-0.012917	-0.008493	0.013073	1.000000	-0.000049	0.000011	0.000022	-2.533292	-8.458736	52.566404
40166	1.436331	-0.426847	9.677770	-0.003778	-0.002219	-0.019606	1.000000	-0.000031	0.000017	0.000024	-2.531465	-8.458548	52.566340
40167	1.433106	-0.444463	9.695269	0.006090	-0.017223	-0.002017	1.000000	-0.000049	0.000011	0.000022	-2.531691	-8.459151	52.566617
40168	1.429802	-0.427791	9.711770	-0.011214	-0.011078	0.013073	1.000000	-0.000054	0.000017	0.000021	-2.532536	-8.459143	52.567401
40169	1.429560	-0.463298	9.712754	0.016520	-0.033096	0.015564	1.000000	-0.000042	0.000015	0.000018	-2.531957	-8.459318	52.567184
40170	1.477304	-0.429375	9.720176	0.017517	0.024444	0.028436	1.000000	-0.000049	0.000011	0.000022	-2.532146	-8.459868	52.567130
40171	1.437986	-0.449358	9.661247	0.016902	-0.013517	-0.034704	1.000000	-0.000043	0.000005	0.000023	-2.531748	-8.461114	52.567548
40172	1.434638	-0.432653	9.677763	-0.000392	-0.007366	-0.019607	1.000000	-0.000058	0.000028	0.000005	-2.532780	-8.459854	52.565978
40173	1.431209	-0.415904	9.694296	-0.017690	-0.001218	-0.004508	1.000000	-0.000037	0.000014	0.000028	-2.531817	-8.460150	52.566987
40174	1.452127	-0.467974	9.716944	0.033157	-0.018789	0.023228	1.000000	-0.000054	0.000013	0.000011	-2.532380	-8.460656	52.566193
40175	1.454702	-0.452112	9.699475	0.024410	-0.005492	0.005650	1.000000	-0.000037	0.000023	0.000023	-2.531235	-8.459880	52.566566
40176	1.433151	-0.436368	9.677816	0.001854	-0.010804	-0.019611	1.000000	-0.000048	0.000021	0.000017	-2.531305	-8.459428	52.566687
40177	1.450774	-0.436303	9.716044	0.007676	-0.000211	0.020753	1.000000	-0.000054	0.000026	0.000016	-2.531970	-8.458317	52.566182
40178	1.462180	-0.439118	9.648083	0.025325	0.013264	-0.044602	1.000000	-0.000042	0.000025	0.000013	-2.531221	-8.457372	52.564944
40179	1.428585	-0.421524	9.694440	-0.014310	-0.006370	-0.004504	1.000000	-0.000043	0.000033	0.000032	-2.530939	-8.455432	52.566260
40180	1.431104	-0.440171	9.677947	0.004116	-0.014237	-0.019616	1.000000	-0.000047	0.000017	0.000007	-2.530655	-8.455488	52.564652
40181	1.451856	-0.423265	9.698684	0.000633	0.010512	0.003187	1.000000	-0.000049	0.000011	0.000022	-2.530878	-8.456093	52.564923
40182	1.433508	-0.425192	9.660477	-0.004087	-0.001780	-0.037181	1.000000	-0.000035	0.000015	0.000004	-2.529303	-8.456399	52.563203
40183	1.430142	-0.408313	9.677022	-0.021375	0.004359	-0.022064	1.000000	-0.000048	0.000021	0.000017	-2.529343	-8.455932	52.562839
40184	1.450835	-0.425901	9.698721	0.002322	0.007925	0.003189	1.000000	-0.000043	0.000019	0.000027	-2.528940	-8.455590	52.563647
40185	1.426420	-0.427073	9.694516	-0.010924	-0.011539	-0.004504	1.000000	-0.000054	0.000017	0.000021	-2.529784	-8.455552	52.563775
40186	1.450011	-0.393315	9.697824	-0.023705	0.027375	0.000758	1.000000	-0.000032	0.000022	0.000034	-2.528196	-8.454881	52.564797
40187	1.428538	-0.412055	9.677101	-0.019108	0.000920	-0.022058	1.000000	-0.000053	0.000022	0.000006	-2.528618	-8.454292	52.563204
40188	1.428128	-0.447598	9.678046	0.008622	-0.021109	-0.019631	1.000000	-0.000049	0.000025	0.000026	-2.528884	-8.453277	52.563967
40189	1.448796	-0.396098	9.697892	-0.022009	0.024799	0.000768	1.000000	-0.000036	0.000005	0.000009	-2.527439	-8.454618	52.562802
40190	1.421613	-0.448528	9.712037	0.001220	-0.030021	0.013040	1.000000	-0.000059	0.000018	0.000010	-2.528690	-8.454479	52.562316
40191	1.454280	-0.433578	9.664804	0.014795	0.009104	-0.029485	1.000000	-0.000054	0.000013	0.000011	-2.529293	-8.454963	52.561356
40192	1.448063	-0.433731	9.698788	0.006843	0.001044	0.003190	1.000000	-0.000049	0.000011	0.000022	-2.529499	-8.455561	52.561914
40193	1.444805	-0.417074	9.715324	-0.010433	0.007170	0.018323	1.000000	-0.000054	0.000013	0.000011	-2.530101	-8.456046	52.560953
40194	1.423493	-0.435891	9.694554	-0.005847	-0.019275	-0.004512	1.000000	-0.000042	0.000015	0.000018	-2.529501	-8.456232	52.560626
40195	1.447079	-0.436744	9.698800	0.008534	-0.001540	0.003189	1.000000	-0.000054	0.000030	0.000025	-2.530401	-8.454603	52.561200
40196	1.443595	-0.420082	9.715374	-0.008736	0.004581	0.018327	1.000000	-0.000047	0.000017	0.000007	-2.530182	-8.454667	52.559885
40197	1.452286	-0.439680	9.664828	0.018171	0.003952	-0.029487	1.000000	-0.000059	0.000014	0.000001	-2.531165	-8.455029	52.557695
40198	1.443012	-0.422095	9.715374	-0.007600	0.002860	0.018328	1.000000	-0.000037	0.000013	0.000028	-2.530162	-8.455299	52.558641
40199	1.451639	-0.441660	9.664835	0.019302	0.002238	-0.029489	1.000000	-0.000060	0.000022	0.000020	-2.531625	-8.454620	52.558620
40200	1.466272	-0.423951	9.719631	0.007351	0.019744	0.026036	1.000000	-0.000036	0.000019	0.000014	-2.530300	-8.454293	52.558029
40201	1.417741	-0.425107	9.711201	-0.019731	-0.018295	0.010622	1.000000	-0.000049	0.000025	0.000026	-2.530577	-8.453307	52.558745
40202	1.420368	-0.443616	9.694662	-0.001334	-0.026124	-0.004526	1.000000	-0.000030	0.000013	0.000015	-2.528580	-8.453636	52.558324
40203	1.495032	-0.427254	9.689948	0.031375	0.042986	0.001075	1.000000	-0.000054	0.000030	0.000025	-2.529478	-8.452008	52.558896
40204	1.422565	-0.428683	9.677258	-0.009543	-0.013641	-0.022054	1.000000	-0.000047	0.000003	0.000003	-2.529197	-8.453712	52.557377
40205	1.446343	-0.463935	9.682362	0.032004	-0.017102	-0.011976	1.000000	-0.000037	0.000027	0.000033	-2.528288	-8.452421	52.558829
40206	1.445721	-0.430389	9.681541	0.005417	0.003228	-0.014343	1.000000	-0.000054	0.000030	0.000025	-2.529148	-8.450759	52.558575
40207	1.442229	-0.448278	9.698996	0.015312	-0.011846	0.003174	1.000000	-0.000048	0.000021	0.000017	-2.529183	-8.450295	52.558203
40208	1.417700	-0.414800	9.693930	-0.025112	-0.010096	-0.006899	1.000000	-0.000042	0.000025	0.000013	-2.528424	-8.449399	52.557231
40209	1.420263	-0.433384	9.677387	-0.006728	-0.017927	-0.022058	1.000000	-0.000048	0.000021	0.000017	-2.528459	-8.448935	52.556859
40210	1.440914	-0.416627	9.698206	-0.010162	0.006768	0.000817	1.000000	-0.000054	0.000017	0.000021	-2.529334	-8.448921	52.557700
40211	1.440504	-0.452021	9.699079	0.017557	-0.015285	0.003165	1.000000	-0.000030	0.000027	0.000019	-2.527379	-8.447723	52.557575
40212	1.431102	-0.434350	9.749664	-0.008176	-0.016442	0.051000	1.000000	-0.000049	0.000011	0.000022	-2.527532	-8.448359	52.557771
40213	1.439698	-0.419406	9.698267	-0.008466	0.004179	0.000820	1.000000	-0.000058	0.000028	0.000005	-2.528569	-8.447129	52.556025
40214	1.436340	-0.437213	9.715694	0.001444	-0.010914	0.018325	1.000000	-0.000037	0.000009	0.000019	-2.527299	-8.447941	52.555795
40215	1.442065	-0.404331	9.680870	-0.016669	0.016685	-0.016682	1.000000	-0.000042	0.000015	0.000018	-2.526712	-8.448121	52.555565
40216	1.444855	-0.422913	9.664285	0.001716	0.008854	-0.031850	1.000000	-0.000048	0.000007	0.000012	-2.526625	-8.449258	52.554451
40217	1.435666	-0.405303	9.714846	-0.024010	0.007693	0.015995	1.000000	-0.000037	0.000009	0.000019	-2.525416	-8.450082	52.554364
40218	1.432460	-0.423045	9.732247	-0.014908	-0.007325	0.033493	1.000000	-0.000049	0.000011	0.000022	-2.529701	-8.453161	52.578863
40219	1.420142	-0.425831	9.660017	-0.011235	-0.012209	-0.039572	1.000000	-0.000054	0.000017	0.000021	-2.530546	-8.453133	52.579017
40220	1.459007	-0.408158	9.719070	-0.009280	0.023758	0.023723	1.000000	-0.000047	0.000003	0.000003	-2.530213	-8.454753	52.577088
40221	1.422731	-0.411088	9.642581	-0.019449	0.000313	-0.057066	1.000000	-0.000061	0.000017	0.000034	-2.532102	-8.454635	52.578816
40222	1.437494	-0.428065	9.698215	-0.004166	-0.003490	0.000823	1.000000	-0.000037	0.000009	0.000019	-2.530863	-8.455431	52.578612
40223	1.461401	-0.428888	9.702441	0.010231	0.014223	0.008550	1.000000	-0.000054	0.000003	0.000016	-2.531650	-8.456996	52.578312
40224	1.440153	-0.378603	9.679979	-0.039538	0.030213	-0.018970	1.000000	-0.000042	0.000015	0.000018	-2.530967	-8.457201	52.578209
40225	1.481998	-0.413157	9.723260	0.007396	0.038010	0.031464	1.000000	-0.000060	0.000009	0.000015	-2.532375	-8.458123	52.577766
40226	1.460877	-0.397590	9.701580	-0.015230	0.032831	0.006253	1.000000	-0.000056	-0.000002	0.000031	-2.533623	-8.460216	52.579117
40227	1.433468	-0.415577	9.714736	-0.019155	-0.000844	0.016009	1.000000	-0.000041	0.000038	0.000017	-2.532915	-8.457738	52.578742
40228	1.445007	-0.452577	9.647578	0.025482	-0.008290	-0.047038	1.000000	-0.000049	0.000011	0.000022	-2.533140	-8.458287	52.578647
40229	1.459817	-0.435160	9.702400	0.013623	0.009064	0.008552	1.000000	-0.000060	0.000009	0.000015	-2.534546	-8.459209	52.578201
40230	1.441562	-0.402487	9.663367	-0.018356	0.018138	-0.034135	1.000000	-0.000032	0.000012	0.000039	-2.533159	-8.459652	52.580727
40231	1.444180	-0.421038	9.646782	0.000007	0.010336	-0.049326	1.000000	-0.000053	0.000026	0.000016	-2.533818	-8.458553	52.580245
40232	1.434763	-0.438312	9.698162	0.001475	-0.012090	0.000817	1.000000	-0.000061	0.000013	0.000025	-2.535439	-8.458966	52.581106
40233	1.458541	-0.439376	9.702402	0.015880	0.005613	0.008551	1.000000	-0.000054	0.000013	0.000011	-2.536040	-8.459459	52.580170
40234	1.461171	-0.458058	9.685801	0.034264	-0.002190	-0.006648	1.000000	-0.000049	0.000025	0.000026	-2.536219	-8.458404	52.579456
40235	1.433699	-0.441580	9.698171	0.003181	-0.014668	0.000813	1.000000	-0.000054	0.000017	0.000021	-2.537060	-8.458379	52.579604
40236	1.436325	-0.425520	9.680816	-0.005615	-0.001266	-0.016655	1.000000	-0.000025	0.000021	0.000020	-2.534488	-8.457843	52.579608
40237	1.457021	-0.443084	9.702462	0.018151	0.002169	0.008548	1.000000	-0.000049	0.000011	0.000022	-2.534708	-8.458461	52.579900
40238	1.465724	-0.427967	9.651104	0.017802	0.022903	-0.041583	1.000000	-0.000053	0.000022	0.000006	-2.535087	-8.457850	52.578049
40239	1.432311	-0.445221	9.698210	0.005434	-0.018108	0.000806	1.000000	-0.000049	0.000011	0.000022	-2.535306	-8.458468	52.578340
40240	1.453018	-0.428497	9.719092	0.002058	0.006520	0.023754	1.000000	-0.000048	0.000021	0.000017	-2.535300	-8.458020	52.577761
40241	1.458586	-0.430232	9.685128	0.011054	0.012994	-0.008913	1.000000	-0.000049	0.000025	0.000026	-2.535576	-8.457046	52.578504
40242	1.437144	-0.448973	9.664259	0.015564	-0.013359	-0.031867	1.000000	-0.000049	0.000015	0.000031	-2.535974	-8.457137	52.579855
40243	1.439628	-0.433025	9.646931	0.006762	0.000060	-0.049323	1.000000	-0.000041	0.000038	0.000017	-2.535262	-8.454661	52.579477
40244	1.454181	-0.449897	9.702575	0.022098	-0.003881	0.008540	1.000000	-0.000036	0.000005	0.000009	-2.533812	-8.456125	52.579061
40245	1.454010	-0.450762	9.702560	0.022661	-0.004742	0.008538	1.000000	-0.000049	0.000011	0.000022	-2.534030	-8.456744	52.579350
40246	1.429529	-0.417319	9.697587	-0.017776	-0.002939	-0.001440	1.000000	-0.000048	0.000034	0.000021	-2.534086	-8.454669	52.579434
40247	1.453117	-0.418150	9.701881	-0.003357	0.014750	0.006308	1.000000	-0.000042	0.000011	0.000008	-2.533261	-8.455377	52.578149
40248	1.428854	-0.419144	9.697608	-0.016653	-0.004655	-0.001438	1.000000	-0.000049	0.000011	0.000022	-2.533484	-8.455991	52.578430
40249	1.431539	-0.437751	9.680979	0.001693	-0.012443	-0.016661	1.000000	-0.000048	0.000021	0.000017	-2.533518	-8.455537	52.578086
40250	1.452199	-0.421016	9.701895	-0.001676	0.012165	0.006312	1.000000	-0.000047	0.000017	0.000007	-2.533315	-8.455658	52.577258
40251	1.406772	-0.439698	9.676732	-0.011051	-0.032711	-0.024414	1.000000	-0.000043	0.000019	0.000027	-2.532968	-8.455330	52.578142
40252	1.451588	-0.422759	9.701910	-0.000548	0.010439	0.006314	1.000000	-0.000036	0.000005	0.000009	-2.531484	-8.456694	52.577389
40253	1.433261	-0.424302	9.663668	-0.005435	-0.001596	-0.034103	1.000000	-0.000037	0.000027	0.000033	-2.530573	-8.455419	52.578870
40254	1.453834	-0.407617	9.684605	-0.008797	0.023013	-0.011118	1.000000	-0.000059	0.000018	0.000010	-2.531815	-8.455287	52.578418
40255	1.429420	-0.408727	9.680345	-0.022098	0.003615	-0.018869	1.000000	-0.000043	0.000019	0.000027	-2.531467	-8.454960	52.579301
40256	1.447054	-0.408889	9.718619	-0.016078	0.013920	0.021552	1.000000	-0.000047	0.000017	0.000007	-2.531244	-8.455017	52.577777
40257	1.407754	-0.428285	9.659438	-0.017062	-0.023560	-0.041858	1.000000	-0.000049	0.000011	0.000022	-2.531460	-8.455638	52.578062
40258	1.449538	-0.393973	9.701278	-0.024309	0.026489	0.004129	1.000000	-0.000049	0.000015	0.000031	-2.531811	-8.455745	52.578960
40259	1.452169	-0.412619	9.684643	-0.005972	0.018710	-0.011107	1.000000	-0.000053	0.000022	0.000006	-2.532223	-8.455166	52.577384
40260	1.448768	-0.430461	9.701993	0.003974	0.003545	0.006318	1.000000	-0.000037	0.000013	0.000028	-2.531194	-8.455454	52.578437
40261	1.451247	-0.448977	9.685380	0.022308	-0.004233	-0.008925	1.000000	-0.000048	0.000038	0.000031	-2.531521	-8.452893	52.579628
40262	1.423730	-0.397965	9.697103	-0.035923	0.004526	-0.003617	1.000000	-0.000054	0.000013	0.000011	-2.532184	-8.453368	52.578845
40263	1.450433	-0.416615	9.684732	-0.003721	0.015284	-0.011100	1.000000	-0.000055	0.000021	0.000030	-2.533258	-8.452829	52.580068
40264	1.423074	-0.434621	9.697777	-0.007663	-0.018416	-0.001443	1.000000	-0.000043	0.000005	0.000023	-2.532897	-8.454115	52.580837
40265	1.449927	-0.418645	9.684721	-0.002606	0.013569	-0.011097	1.000000	-0.000054	0.000017	0.000021	-2.533731	-8.454093	52.580974
40266	1.419494	-0.419144	9.714426	-0.024309	-0.013235	0.013805	1.000000	-0.000054	0.000017	0.000021	-2.534519	-8.454143	52.581241
40267	1.449220	-0.420765	9.684734	-0.001484	0.011838	-0.011095	1.000000	-0.000043	0.000019	0.000027	-2.534169	-8.453818	52.582120
40268	1.418720	-0.455599	9.715107	0.003971	-0.036187	0.015960	1.000000	-0.000047	0.000017	0.000007	-2.533896	-8.453852	52.580479
40269	1.427579	-0.440389	9.663789	0.003539	-0.015317	-0.034114	1.000000	-0.000060	0.000009	0.000015	-2.535293	-8.454777	52.580016
40270	1.445187	-0.440701	9.702068	0.009594	-0.005058	0.006314	1.000000	-0.000037	0.000027	0.000033	-2.534383	-8.453478	52.581518
40271	1.453861	-0.459843	9.651432	0.036299	-0.005410	-0.041609	1.000000	-0.000049	0.000011	0.000022	-2.534597	-8.454100	52.581797
40272	1.438552	-0.407453	9.735413	-0.024801	0.007036	0.036833	1.000000	-0.000049	0.000011	0.000022	-2.534792	-8.454715	52.581971
40273	1.426357	-0.444306	9.663791	0.005782	-0.018740	-0.034121	1.000000	-0.000049	0.000011	0.000022	-2.535005	-8.455337	52.582250
40274	1.444041	-0.444682	9.702057	0.011847	-0.008495	0.006309	1.000000	-0.000054	0.000017	0.000021	-2.535844	-8.455291	52.582993
40275	1.446735	-0.428750	9.684756	0.003026	0.004976	-0.011089	1.000000	-0.000043	0.000019	0.000027	-2.535492	-8.454967	52.583870
40276	1.422390	-0.429744	9.680470	-0.010290	-0.014395	-0.018860	1.000000	-0.000049	0.000011	0.000022	-2.535712	-8.455542	52.584329
40277	1.446048	-0.465437	9.685380	0.031293	-0.017970	-0.008965	1.000000	-0.000071	0.000020	0.000013	-2.538345	-8.455181	52.583574
40278	1.445786	-0.431905	9.684757	0.004712	0.002406	-0.011089	1.000000	-0.000025	0.000012	0.000025	-2.535956	-8.455727	52.584189
40279	1.427503	-0.433297	9.646497	-0.000242	-0.009531	-0.051524	1.000000	-0.000043	0.000019	0.000027	-2.535604	-8.455404	52.585065
40280	1.441959	-0.450466	9.702099	0.015223	-0.013645	0.006298	1.000000	-0.000041	0.000025	0.000013	-2.534836	-8.454494	52.584247
40281	1.444578	-0.434421	9.684825	0.006398	-0.000164	-0.011089	1.000000	-0.000048	0.000021	0.000017	-2.534863	-8.454043	52.583893
40282	1.417274	-0.417818	9.697213	-0.024682	-0.012643	-0.003589	1.000000	-0.000043	0.000005	0.000023	-2.534458	-8.455345	52.584203
40283	1.440995	-0.453039	9.702123	0.016905	-0.016231	0.006292	1.000000	-0.000029	0.000019	0.000000	-2.532019	-8.455193	52.581938
40284	1.416563	-0.419573	9.697241	-0.023565	-0.014354	-0.003588	1.000000	-0.000072	0.000028	0.000032	-2.535180	-8.453795	52.583135
40285	1.440121	-0.420662	9.701560	-0.009115	0.003298	0.004190	1.000000	-0.000036	0.000019	0.000014	-2.533784	-8.453558	52.582440
40286	1.457697	-0.420768	9.739865	-0.003015	0.013492	0.044630	1.000000	-0.000036	0.000019	0.000014	-2.532371	-8.453309	52.581192
40287	1.442479	-0.405237	9.684310	-0.017378	0.015931	-0.013184	1.000000	-0.000042	0.000015	0.000018	-2.531778	-8.453503	52.580981
40288	1.436031	-0.439996	9.718895	0.001975	-0.013634	0.021565	1.000000	-0.000037	0.000013	0.000028	-2.530768	-8.453793	52.581748
40289	1.468838	-0.424433	9.671948	0.015390	0.025830	-0.020686	1.000000	-0.000041	0.000025	0.000013	-2.529990	-8.452912	52.580907
40290	1.438328	-0.424711	9.701650	-0.006296	-0.000996	0.004193	1.000000	-0.000042	0.000015	0.000018	-2.529428	-8.453102	52.580657
40291	1.441113	-0.408835	9.684363	-0.015127	0.012504	-0.013175	1.000000	-0.000065	0.000014	0.000014	-2.531438	-8.453386	52.580041
40292	1.461704	-0.426706	9.705962	0.008731	0.015785	0.011977	1.000000	-0.000025	0.000021	0.000020	-2.528818	-8.452837	52.579907
40293	1.440426	-0.410524	9.684393	-0.013998	0.010785	-0.013171	1.000000	-0.000049	0.000011	0.000022	-2.529027	-8.453462	52.580179
40294	1.440196	-0.411527	9.684385	-0.013434	0.009919	-0.013169	1.000000	-0.000049	0.000011	0.000022	-2.529196	-8.454120	52.580547
40295	1.436788	-0.429487	9.701668	-0.003477	-0.005305	0.004193	1.000000	-0.000048	0.000021	0.000017	-2.529220	-8.453671	52.580190
40296	1.436454	-0.430508	9.701672	-0.002916	-0.006171	0.004192	1.000000	-0.000053	0.000013	0.000011	-2.529790	-8.454200	52.579175
40297	1.442211	-0.432103	9.667695	0.005983	0.000454	-0.028466	1.000000	-0.000048	0.000021	0.000017	-2.529813	-8.453751	52.578817
40298	1.459899	-0.398109	9.705422	-0.015033	0.031863	0.009928	1.000000	-0.000061	0.000013	0.000025	-2.531496	-8.454184	52.580324
40299	1.435341	-0.433823	9.701689	-0.001239	-0.008747	0.004191	1.000000	-0.000054	0.000030	0.000025	-2.532377	-8.452577	52.580904
40300	1.441102	-0.435407	9.667713	0.007656	-0.002118	-0.028468	1.000000	-0.000047	0.000003	0.000002	-2.532088	-8.454246	52.578877
40301	1.461900	-0.418863	9.688726	0.004389	0.022400	-0.005369	1.000000	-0.000050	0.000019	0.000041	-2.532774	-8.453843	52.581316
40302	1.434420	-0.436826	9.701690	0.000453	-0.011328	0.004188	1.000000	-0.000042	0.000015	0.000018	-2.532160	-8.454008	52.580716
40303	1.455083	-0.420297	9.722728	-0.002809	0.013183	0.027291	1.000000	-0.000055	0.000021	0.000030	-2.533225	-8.453477	52.581924
40304	1.469896	-0.440066	9.638059	0.032138	0.020445	-0.053334	1.000000	-0.000054	0.000017	0.000021	-2.534009	-8.453474	52.582072
40305	1.481442	-0.440026	9.710326	0.029956	0.023066	0.019774	1.000000	-0.000049	0.000011	0.000022	-2.534216	-8.454101	52.582340
40306	1.460233	-0.424005	9.688754	0.007201	0.018106	-0.005362	1.000000	-0.000047	0.000017	0.000007	-2.534050	-8.454166	52.581367
40307	1.438893	-0.442489	9.667720	0.011579	-0.008116	-0.028475	1.000000	-0.000044	0.000013	0.000042	-2.534117	-8.454409	52.583948
40308	1.435568	-0.426089	9.684442	-0.005578	-0.002089	-0.013157	1.000000	-0.000061	0.000017	0.000034	-2.535993	-8.454239	52.585519
40309	1.459105	-0.461691	9.689293	0.036021	-0.005724	-0.003344	1.000000	-0.000046	0.000022	-0.000008	-2.535350	-8.453745	52.582360
40310	1.428714	-0.427493	9.718447	-0.012765	-0.011320	0.019499	1.000000	-0.000042	0.000015	0.000018	-2.534740	-8.453895	52.582253
40311	1.482475	-0.428984	9.693123	0.023936	0.032310	0.002443	1.000000	-0.000048	0.000025	0.000026	-2.534999	-8.452934	52.582975
40312	1.433997	-0.430025	9.684501	-0.003323	-0.005528	-0.013157	1.000000	-0.000054	0.000017	0.000021	-2.535760	-8.452956	52.583551
40313	1.457704	-0.431025	9.688825	0.011151	0.012096	-0.005356	1.000000	-0.000042	0.000015	0.000018	-2.535162	-8.453153	52.583333
40314	1.433422	-0.431771	9.684509	-0.002196	-0.007234	-0.013158	1.000000	-0.000034	0.000011	-0.000006	-2.533295	-8.453878	52.580569
40315	1.457118	-0.432804	9.688834	0.012281	0.010388	-0.005356	1.000000	-0.000067	0.000022	0.000033	-2.535777	-8.453136	52.582111
40316	1.459770	-0.451519	9.672094	0.030566	0.002649	-0.020687	1.000000	-0.000049	0.000011	0.000022	-2.535895	-8.453800	52.582528
40317	1.429526	-0.417294	9.701245	-0.018219	-0.002957	0.002174	1.000000	-0.000034	0.000011	-0.000006	-2.534015	-8.454593	52.579657
40318	1.432229	-0.435590	9.684514	0.000048	-0.010689	-0.013161	1.000000	-0.000043	0.000019	0.000027	-2.533659	-8.454343	52.580590
40319	1.452892	-0.419103	9.705590	-0.003184	0.013792	0.009981	1.000000	-0.000054	0.000017	0.000021	-2.534480	-8.454328	52.580708
40320	1.428425	-0.454595	9.701759	0.010578	-0.026806	0.004152	1.000000	-0.000042	0.000015	0.000018	-2.533936	-8.454506	52.580431
40321	1.428275	-0.421007	9.701269	-0.015984	-0.006394	0.002176	1.000000	-0.000049	0.000011	0.000022	-2.534139	-8.455135	52.580694
40322	1.434071	-0.422491	9.667297	-0.007130	0.000291	-0.030477	1.000000	-0.000048	0.000021	0.000017	-2.534142	-8.454731	52.580485
40323	1.457663	-0.457936	9.672110	0.034475	-0.003367	-0.020701	1.000000	-0.000041	0.000011	0.000008	-2.533303	-8.455443	52.579181
40324	1.451307	-0.423842	9.705621	-0.000367	0.009489	0.009987	1.000000	-0.000048	0.000025	0.000026	-2.533497	-8.454455	52.579484
40325	1.436085	-0.408159	9.650119	-0.014855	0.012136	-0.047783	1.000000	-0.000036	0.000019	0.000014	-2.532095	-8.454221	52.578780
40326	1.447423	-0.442725	9.722876	0.010178	-0.006657	0.027293	1.000000	-0.000060	0.000013	0.000025	-2.533680	-8.454659	52.579618
40327	1.432539	-0.392639	9.666871	-0.031437	0.017276	-0.032430	1.000000	-0.000037	0.000009	0.000019	-2.532463	-8.455501	52.579542
40328	1.429038	-0.444997	9.684558	0.005656	-0.019280	-0.013176	1.000000	-0.000042	0.000015	0.000018	-2.531895	-8.455722	52.579659
40329	1.431843	-0.428959	9.667342	-0.003202	-0.005714	-0.030477	1.000000	-0.000054	0.000017	0.000020	-2.532714	-8.455709	52.579774
40330	1.452598	-0.412515	9.688429	-0.006408	0.018753	-0.007307	1.000000	-0.000044	0.000009	0.000032	-2.532526	-8.456420	52.581153
40331	1.443131	-0.429954	9.739613	-0.004706	-0.004110	0.042642	1.000000	-0.000041	0.000011	0.000008	-2.531686	-8.457132	52.579846
40332	1.449057	-0.396922	9.705192	-0.022994	0.023909	0.008054	1.000000	-0.000060	0.000022	0.000019	-2.533252	-8.456413	52.580165
40333	1.454786	-0.398636	9.671225	-0.014155	0.030630	-0.024594	1.000000	-0.000061	0.000017	0.000034	-2.535113	-8.456319	52.581845
40334	1.427355	-0.416649	9.684098	-0.018101	-0.003122	-0.015119	1.000000	-0.000037	0.000009	0.000019	-2.533878	-8.457159	52.581785
40335	1.448035	-0.434605	9.705634	0.005815	0.000045	0.009990	1.000000	-0.000049	0.000011	0.000021	-2.534079	-8.457790	52.582043
40336	1.423827	-0.401027	9.700865	-0.034662	0.002007	0.000247	1.000000	-0.000048	0.000021	0.000016	-2.534028	-8.457316	52.581490
40337	1.471227	-0.436684	9.710005	0.020886	0.016780	0.017810	1.000000	-0.000054	0.000030	0.000025	-2.534899	-8.455715	52.582059
40338	1.425869	-0.420519	9.684149	-0.015845	-0.006547	-0.015117	1.000000	-0.000037	0.000013	0.000028	-2.533949	-8.456001	52.582978
40339	1.425280	-0.456002	9.684600	0.011832	-0.028691	-0.013204	1.000000	-0.000054	0.000030	0.000025	-2.534819	-8.454400	52.583547
40340	1.452016	-0.405614	9.671351	-0.010208	0.024624	-0.024572	1.000000	-0.000058	0.000028	0.000005	-2.535760	-8.453219	52.581795
