// Start Time: Unknown
// Update Rate: 100.0Hz
// Filter Profile: human (46.1)
// Firmware Version: 4.4.0
PacketCounter	Acc_X	Acc_Y	Acc_Z	FreeAcc_X	FreeAcc_Y	FreeAcc_Z	OriInc_q0	OriInc_q1	OriInc_q2	OriInc_q3	Roll	Pitch	Yaw
02853	9.881589	-0.372893	0.673158	-0.000000	-0.000000	0.098821	1.000000	0.000041	0.000030	0.000035	-28.974997	-85.549503	25.060940
02854	9.877572	-0.347783	0.696454	0.000000	-0.000000	0.095513	1.000000	0.000028	0.000030	0.000034	-26.525153	-85.496216	22.643252
02855	9.895983	-0.356751	0.683326	0.002422	0.003722	0.113272	1.000000	0.000028	0.000018	0.000035	-27.763522	-85.522627	23.868176
02856	9.921035	-0.380712	0.688295	-0.001817	-0.018372	0.139463	1.000000	0.000037	0.000026	0.000039	-27.792103	-85.517843	23.901071
02857	9.895855	-0.358211	0.684424	0.002491	0.003937	0.113272	1.000000	0.000032	0.000035	0.000043	-27.832315	-85.511137	23.943150
02858	9.895792	-0.359038	0.684894	0.002491	0.003937	0.113272	1.000000	0.000032	0.000010	0.000045	-27.879967	-85.507688	23.994663
02859	9.899687	-0.385402	0.662648	0.023605	-0.023648	0.116579	1.000000	0.000016	0.000030	0.000020	-27.852133	-85.504752	23.972823
02860	9.895668	-0.360327	0.686013	0.002480	0.003460	0.113272	1.000000	0.000036	0.000040	0.000052	-27.887479	-85.497986	24.012385
02861	9.881064	-0.378549	0.677690	0.009266	-0.015101	0.098805	1.000000	0.000028	0.000030	0.000034	-27.900507	-85.493403	24.029729
02862	9.895523	-0.361817	0.687312	0.002465	0.003352	0.113272	1.000000	0.000024	0.000027	0.000039	-27.929597	-85.488630	24.061616
02863	9.892779	-0.373416	0.647027	0.042131	-0.010569	0.108163	1.000000	0.000032	0.000023	0.000044	-27.950701	-85.484706	24.088876
02864	9.913873	-0.371679	0.674633	0.016767	-0.005558	0.131046	1.000000	0.000042	0.000018	0.000036	-27.979507	-85.480972	24.122551
02865	9.880816	-0.381395	0.679713	0.009180	-0.015447	0.098804	1.000000	0.000028	0.000030	0.000034	-27.994832	-85.476610	24.142226
02866	9.895277	-0.364611	0.689377	0.002378	0.003004	0.113272	1.000000	0.000041	0.000030	0.000035	-28.013611	-85.471682	24.165822
02867	9.901821	-0.380306	0.708158	-0.016250	-0.010209	0.121688	1.000000	0.000041	0.000031	0.000048	-28.066207	-85.465772	24.221500
02868	9.895159	-0.365891	0.690389	0.002313	0.003231	0.113272	1.000000	0.000030	0.000004	0.000010	-28.072036	-85.464818	24.230822
02869	9.880577	-0.383964	0.681731	0.009059	-0.015117	0.098805	1.000000	0.000026	0.000032	0.000061	-28.133660	-85.458368	24.295097
02870	9.909555	-0.350028	0.700560	-0.004544	0.021788	0.127739	1.000000	0.000028	0.000043	0.000033	-28.143143	-85.452260	24.307829
02871	9.892285	-0.378914	0.651360	0.041917	-0.010256	0.108164	1.000000	0.000028	0.000018	0.000035	-28.178368	-85.448507	24.346007
02872	9.888291	-0.353837	0.674461	0.020791	0.016852	0.104857	1.000000	0.000037	0.000026	0.000039	-28.205951	-85.443713	24.377904
02873	9.892163	-0.380292	0.652412	0.041784	-0.010024	0.108165	1.000000	0.000028	0.000030	0.000034	-28.244601	-85.438935	24.417905
02874	9.892104	-0.380845	0.652989	0.041784	-0.010024	0.108165	1.000000	0.000024	0.000026	0.000025	-28.256289	-85.434944	24.432435
02875	9.913174	-0.379048	0.680765	0.016173	-0.005030	0.131047	1.000000	0.000041	0.000031	0.000048	-28.297250	-85.430561	24.478777
02876	9.888032	-0.356515	0.676838	0.020412	0.017065	0.104857	1.000000	0.000028	0.000030	0.000034	-28.316319	-85.425640	24.501147
02877	9.939448	-0.356483	0.659308	0.041970	0.018302	0.154875	1.000000	0.000028	0.000030	0.000034	-28.350263	-85.422005	24.537733
02878	9.873364	-0.375245	0.669007	0.026927	-0.001293	0.090391	1.000000	0.000024	0.000027	0.000039	-28.378354	-85.417219	24.568621
02879	9.887837	-0.358526	0.678619	0.019637	0.017218	0.104858	1.000000	0.000015	0.000031	0.000034	-28.416731	-85.414739	24.608216
02880	9.906238	-0.367626	0.665695	0.033958	0.008563	0.122635	1.000000	0.000032	0.000035	0.000043	-28.443037	-85.408891	24.638281
02881	9.873168	-0.377348	0.670712	0.026134	-0.000862	0.090394	1.000000	0.000033	0.000009	0.000032	-28.506402	-85.406891	24.701212
02882	9.887657	-0.360500	0.680202	0.019333	0.017593	0.104858	1.000000	0.000033	0.000034	0.000029	-28.516101	-85.401831	24.714706
02883	9.920599	-0.352190	0.676322	0.026632	0.027265	0.137101	1.000000	0.000041	0.000031	0.000048	-28.548602	-85.397550	24.752475
02884	9.880922	-0.347323	0.663348	0.037680	0.030905	0.096445	1.000000	0.000013	0.000032	0.000060	-28.600942	-85.391030	24.806505
02885	9.903248	-0.382311	0.627863	0.072565	-0.005184	0.117539	1.000000	0.000037	0.000038	0.000025	-28.597034	-85.389572	24.808793
02886	9.887371	-0.363563	0.682719	0.018554	0.017142	0.104860	1.000000	0.000033	0.000009	0.000032	-28.626318	-85.386889	24.841990
02887	9.905800	-0.372525	0.669475	0.032201	0.008476	0.122640	1.000000	0.000033	0.000022	0.000031	-28.665493	-85.386573	24.883203
02888	9.880690	-0.349939	0.665428	0.036446	0.030570	0.096451	1.000000	0.000027	0.000031	0.000047	-28.700385	-85.380861	24.921352
02889	9.912228	-0.389033	0.688868	0.012490	-0.005009	0.131053	1.000000	0.000032	0.000035	0.000043	-28.757672	-85.381093	24.980398
02890	9.872564	-0.383829	0.675912	0.023539	-0.001368	0.090400	1.000000	0.000041	0.000030	0.000034	-28.775398	-85.376194	25.002938
02891	9.887054	-0.367122	0.685401	0.016168	0.016949	0.104865	1.000000	0.000010	0.000014	0.000040	-28.821758	-85.375877	25.049752
02892	9.913444	-0.344071	0.663234	0.042241	0.040183	0.128703	1.000000	0.000036	0.000039	0.000051	-28.854725	-85.369112	25.086933
02893	9.905391	-0.377025	0.673005	0.029765	0.008175	0.122648	1.000000	0.000034	0.000021	0.000017	-28.871576	-85.370028	25.105364
02894	9.890779	-0.394973	0.664555	0.036567	-0.010278	0.108185	1.000000	0.000032	0.000035	0.000043	-28.897168	-85.364183	25.134705
02895	9.919812	-0.361038	0.683167	0.021830	0.026431	0.137115	1.000000	0.000027	0.000019	0.000049	-28.962985	-85.366012	25.203286
02896	9.898641	-0.364300	0.656463	0.047197	0.021415	0.114249	1.000000	0.000028	0.000030	0.000034	-28.981421	-85.361136	25.225014
02897	9.872109	-0.388848	0.679677	0.019965	-0.002058	0.090408	1.000000	0.000028	0.000018	0.000035	-29.029115	-85.364048	25.275105
02898	9.913074	-0.348186	0.666613	0.039215	0.039626	0.128717	1.000000	0.000028	0.000043	0.000033	-29.037615	-85.358013	25.286844
02899	9.905004	-0.381191	0.676345	0.026302	0.007547	0.122659	1.000000	0.000010	0.000014	0.000039	-29.098482	-85.360866	25.346534
02900	9.912943	-0.349747	0.667739	0.038048	0.039439	0.128723	1.000000	0.000036	0.000039	0.000051	-29.131389	-85.354149	25.383638
02901	9.898323	-0.367870	0.659258	0.043984	0.020491	0.114265	1.000000	0.000038	0.000013	0.000027	-29.145795	-85.357107	25.404344
02902	9.904801	-0.383511	0.677994	0.025389	0.007054	0.122661	1.000000	0.000036	0.000039	0.000051	-29.178486	-85.350402	25.441253
02903	9.898189	-0.369361	0.660437	0.043331	0.020227	0.114269	1.000000	0.000033	0.000022	0.000030	-29.199733	-85.350451	25.463748
02904	9.937704	-0.376004	0.674565	0.032231	0.016583	0.154914	1.000000	0.000032	0.000022	0.000044	-29.235115	-85.345835	25.502931
02905	9.876972	-0.373311	0.634189	0.067587	0.015012	0.091420	1.000000	0.000037	0.000026	0.000039	-29.282843	-85.347329	25.550774
02906	9.912581	-0.354091	0.670813	0.035366	0.038486	0.128736	1.000000	0.000033	0.000009	0.000032	-29.312303	-85.344711	25.584107
02907	9.897961	-0.372132	0.662286	0.041317	0.019626	0.114278	1.000000	0.000023	0.000039	0.000037	-29.329209	-85.344214	25.602501
02908	9.879402	-0.364532	0.676628	0.026999	0.028294	0.096488	1.000000	0.000036	0.000039	0.000051	-29.361726	-85.337490	25.639205
02909	9.916286	-0.382045	0.650163	0.054793	0.010457	0.132074	1.000000	0.000034	0.000021	0.000017	-29.356121	-85.339858	25.637620
02910	9.900374	-0.363190	0.704966	0.000787	0.032805	0.119342	1.000000	0.000024	0.000026	0.000039	-29.383203	-85.335123	25.667480
02911	9.897707	-0.374725	0.664616	0.039421	0.018760	0.114288	1.000000	0.000038	0.000013	0.000027	-29.412321	-85.338702	25.697967
02912	9.872644	-0.351999	0.660580	0.043687	0.040865	0.088110	1.000000	0.000032	0.000047	0.000041	-29.427571	-85.331743	25.716893
02913	9.879093	-0.367573	0.679486	0.024127	0.027213	0.096499	1.000000	0.000033	0.000022	0.000030	-29.462831	-85.333496	25.749045
02914	9.897509	-0.376574	0.666523	0.038402	0.018553	0.114292	1.000000	0.000020	0.000034	0.000029	-29.473175	-85.328521	25.761598
02915	9.893543	-0.351377	0.689581	0.016418	0.045275	0.110964	1.000000	0.000037	0.000014	0.000040	-29.510512	-85.330422	25.799654
02916	9.905436	-0.345785	0.658394	0.049277	0.050048	0.120378	1.000000	0.000036	0.000039	0.000051	-29.543028	-85.323663	25.836291
02917	9.878840	-0.370354	0.681650	0.022609	0.026096	0.096505	1.000000	0.000011	0.000014	0.000026	-29.535176	-85.325838	25.831693
02918	9.899869	-0.368482	0.709292	-0.002803	0.031120	0.119347	1.000000	0.000037	0.000026	0.000039	-29.561236	-85.321050	25.862007
02919	9.902661	-0.358807	0.619129	0.086983	0.035315	0.115351	1.000000	0.000037	0.000026	0.000039	-29.610235	-85.324105	25.908286
02920	9.885171	-0.387229	0.701319	0.002628	0.012381	0.104885	1.000000	0.000033	0.000022	0.000030	-29.629808	-85.320283	25.931605
02921	9.898642	-0.334281	0.642762	0.064047	0.062067	0.112032	1.000000	0.000032	0.000035	0.000043	-29.686982	-85.324887	25.987637
02922	9.882422	-0.399662	0.661852	0.040462	-0.001678	0.099850	1.000000	0.000019	0.000035	0.000042	-29.714009	-85.319157	26.016760
02923	9.890433	-0.368154	0.653164	0.051366	0.029961	0.105946	1.000000	0.000037	0.000014	0.000040	-29.761946	-85.320588	26.059369
02924	9.904941	-0.351629	0.662738	0.044519	0.048437	0.120408	1.000000	0.000036	0.000039	0.000051	-29.795344	-85.313874	26.096772
02925	9.915286	-0.393048	0.658788	0.046211	0.007517	0.132120	1.000000	0.000021	-0.000004	0.000019	-29.821246	-85.318203	26.117404
02926	9.911343	-0.367762	0.681659	0.025091	0.034679	0.128781	1.000000	0.000032	0.000035	0.000043	-29.847842	-85.312400	26.147499
02927	9.904787	-0.353542	0.664024	0.042225	0.047596	0.120423	1.000000	0.000033	0.000022	0.000030	-29.879744	-85.317413	26.180340
02928	9.896641	-0.386514	0.673685	0.030402	0.015751	0.114325	1.000000	0.000032	0.000022	0.000044	-29.916731	-85.312815	26.220865
02929	9.890088	-0.372345	0.656007	0.048481	0.028530	0.105965	1.000000	0.000028	0.000030	0.000034	-29.908650	-85.312174	26.214363
02930	9.896514	-0.387788	0.674808	0.029849	0.015136	0.114327	1.000000	0.000038	0.000026	0.000026	-29.920493	-85.308262	26.230303
02931	9.904547	-0.356190	0.666187	0.040445	0.046507	0.120435	1.000000	0.000027	0.000031	0.000047	-29.958769	-85.309948	26.268470
02932	9.871432	-0.365769	0.671139	0.032953	0.036773	0.088168	1.000000	0.000038	0.000013	0.000027	-29.980898	-85.307216	26.294734
02933	9.904440	-0.357439	0.667101	0.039163	0.045697	0.120444	1.000000	0.000028	0.000030	0.000034	-29.982909	-85.310897	26.303674
02934	9.896263	-0.390479	0.676937	0.027335	0.013848	0.114337	1.000000	0.000027	0.000031	0.000047	-30.018385	-85.305288	26.342177
02935	9.897831	-0.343996	0.650077	0.056420	0.058631	0.112099	1.000000	0.000024	0.000026	0.000025	-30.036792	-85.309375	26.360049
02936	9.889671	-0.376880	0.659700	0.044584	0.026784	0.105988	1.000000	0.000024	0.000014	0.000040	-30.075765	-85.305901	26.401626
02937	9.889608	-0.377658	0.660203	0.043250	0.026139	0.105996	1.000000	0.000032	0.000035	0.000043	-30.100526	-85.308613	26.429192
02938	9.885653	-0.352460	0.683302	0.022108	0.053303	0.102651	1.000000	0.000020	0.000022	0.000030	-30.122615	-85.304966	26.453386
02939	9.907969	-0.387500	0.647659	0.055984	0.016943	0.123814	1.000000	0.000050	0.000014	0.000041	-30.169678	-85.310260	26.502869
02940	9.904038	-0.362228	0.670474	0.034834	0.044110	0.120467	1.000000	0.000038	0.000013	0.000027	-30.192514	-85.307698	26.529866
02941	9.903975	-0.362956	0.671017	0.032953	0.043710	0.120476	1.000000	0.000023	0.000039	0.000051	-30.258684	-85.311684	26.593093
02942	9.885427	-0.355159	0.685179	0.018613	0.052435	0.102663	1.000000	0.000038	0.000026	0.000026	-30.272060	-85.308036	26.610543
02943	9.901271	-0.375220	0.631510	0.071549	0.029126	0.115494	1.000000	0.000028	0.000030	0.000034	-30.262982	-85.310619	26.608266
02944	9.870717	-0.373719	0.677235	0.024345	0.033116	0.088206	1.000000	0.000028	0.000018	0.000035	-30.293962	-85.307219	26.642361
02945	9.899846	-0.339660	0.695722	0.009432	0.069008	0.117141	1.000000	0.000037	0.000026	0.000039	-30.294642	-85.311499	26.653399
02946	9.882626	-0.368726	0.646423	0.055853	0.036869	0.097693	1.000000	0.000042	0.000018	0.000036	-30.324485	-85.308150	26.687946
02947	9.910075	-0.381731	0.692337	0.010845	0.027945	0.128828	1.000000	0.000020	0.000022	0.000030	-30.341079	-85.310547	26.701986
02948	9.897102	-0.352731	0.656470	0.047970	0.054815	0.112165	1.000000	0.000023	0.000039	0.000051	-30.376251	-85.304168	26.739668
02949	9.909934	-0.383137	0.693578	0.009347	0.027710	0.128831	1.000000	0.000021	0.000021	0.000017	-30.408121	-85.309024	26.764154
02950	9.896982	-0.353964	0.657620	0.046470	0.054582	0.112173	1.000000	0.000041	0.000031	0.000048	-30.444376	-85.303706	26.804922
02951	9.884878	-0.361075	0.689980	0.012203	0.048942	0.102691	1.000000	0.000028	0.000030	0.000034	-30.447333	-85.308463	26.815061
02952	9.917891	-0.352966	0.686051	0.019495	0.058708	0.134975	1.000000	0.000032	0.000022	0.000044	-30.485684	-85.304268	26.857011
02953	9.915266	-0.364719	0.645850	0.058159	0.044313	0.130014	1.000000	0.000028	0.000030	0.000034	-30.492238	-85.306371	26.864936
02954	9.896724	-0.356814	0.659948	0.043797	0.053037	0.112194	1.000000	0.000028	0.000030	0.000034	-30.513593	-85.301990	26.889386
02955	9.888502	-0.389662	0.669723	0.029829	0.020383	0.106059	1.000000	0.000020	0.000022	0.000030	-30.552460	-85.311517	26.931830
02956	9.915089	-0.366555	0.647537	0.055703	0.043566	0.130031	1.000000	0.000028	0.000030	0.000034	-30.574346	-85.307257	26.956832
02957	9.884498	-0.364974	0.693364	0.007882	0.046916	0.102705	1.000000	0.000041	0.000030	0.000034	-30.573244	-85.307731	26.957797
02958	9.902905	-0.374284	0.680515	0.021971	0.038232	0.120528	1.000000	0.000014	0.000031	0.000047	-30.611675	-85.302634	26.997776
02959	9.877929	-0.351675	0.676311	0.025159	0.059876	0.094397	1.000000	0.000024	0.000026	0.000039	-30.645217	-85.305286	27.028909
02960	9.908392	-0.354614	0.631774	0.072091	0.055908	0.121737	1.000000	0.000037	0.000039	0.000038	-30.665228	-85.300003	27.052969
02961	9.902695	-0.376445	0.682385	0.019377	0.037245	0.120538	1.000000	0.000033	0.000022	0.000030	-30.689787	-85.303865	27.076704
02962	9.881596	-0.379647	0.655777	0.044681	0.032252	0.097765	1.000000	0.000027	0.000043	0.000046	-30.717661	-85.297663	27.107546
02963	9.902549	-0.377878	0.683712	0.017244	0.036639	0.120544	1.000000	0.000020	0.000022	0.000030	-30.760140	-85.305660	27.150758
02964	9.902490	-0.378567	0.684172	0.017068	0.036665	0.120544	1.000000	0.000045	0.000022	0.000044	-30.799367	-85.301736	27.195073
02965	9.896013	-0.364513	0.666371	0.033518	0.049774	0.112251	1.000000	0.000019	0.000022	0.000043	-30.885111	-85.309094	27.275739
02966	9.895944	-0.365323	0.666958	0.033321	0.049805	0.112251	1.000000	0.000045	0.000034	0.000043	-30.914921	-85.304110	27.310539
02967	9.914360	-0.374613	0.654044	0.046965	0.040755	0.130088	1.000000	0.000028	0.000018	0.000035	-30.939197	-85.304111	27.329825
02968	9.862726	-0.375562	0.672492	0.025179	0.039781	0.079958	1.000000	0.000032	0.000035	0.000042	-30.970016	-85.299109	27.364070
02969	9.889342	-0.352659	0.650399	0.050801	0.062423	0.103965	1.000000	0.000037	0.000026	0.000039	-30.975293	-85.297553	27.368524
02970	9.895682	-0.368213	0.669248	0.031975	0.049045	0.112260	1.000000	0.000015	0.000030	0.000033	-31.000185	-85.293480	27.394848
02971	9.916640	-0.366413	0.696988	0.003338	0.053459	0.135023	1.000000	0.000050	0.000014	0.000041	-31.098632	-85.307714	27.498901
02972	9.889158	-0.354885	0.651981	0.047234	0.061888	0.103986	1.000000	0.000023	0.000039	0.000051	-31.137840	-85.301902	27.540459
02973	9.877011	-0.361805	0.684324	0.012388	0.056732	0.094440	1.000000	0.000034	0.000021	0.000017	-31.176556	-85.310429	27.578635
02974	9.889032	-0.356198	0.653174	0.044991	0.061466	0.103999	1.000000	0.000018	0.000035	0.000055	-31.225373	-85.304793	27.629273
02975	9.899213	-0.397910	0.649625	0.046660	0.020086	0.115665	1.000000	0.000024	0.000026	0.000039	-31.223298	-85.305856	27.630576
02976	9.891431	-0.346717	0.694986	0.004325	0.074446	0.108909	1.000000	0.000028	0.000018	0.000035	-31.259247	-85.303175	27.669528
02977	9.888840	-0.358473	0.654831	0.043049	0.059874	0.104017	1.000000	0.000023	0.000039	0.000037	-31.252767	-85.304340	27.667048
02978	9.901534	-0.388960	0.692140	0.005518	0.033075	0.120570	1.000000	0.000032	0.000035	0.000042	-31.284764	-85.299592	27.702485
02979	9.888715	-0.359830	0.655987	0.040185	0.058809	0.104036	1.000000	0.000029	0.000005	0.000023	-31.322347	-85.314242	27.751281
02980	9.876547	-0.366964	0.688254	0.007076	0.054138	0.094460	1.000000	0.000017	0.000048	0.000067	-31.376233	-85.306795	27.807011
02981	9.894951	-0.376451	0.675447	0.019716	0.044633	0.112312	1.000000	0.000051	0.000013	0.000027	-31.396089	-85.314016	27.833664
02982	9.894899	-0.377006	0.675899	0.019432	0.044656	0.112313	1.000000	0.000015	0.000030	0.000033	-31.422846	-85.310445	27.861976
02983	9.909452	-0.360422	0.685526	0.011010	0.062656	0.126781	1.000000	0.000027	0.000031	0.000047	-31.478727	-85.313836	27.915917
02984	9.888390	-0.363634	0.658771	0.036222	0.057667	0.104058	1.000000	0.000033	0.000022	0.000030	-31.506651	-85.311346	27.947445
02985	9.897212	-0.368079	0.718369	-0.023473	0.057178	0.117193	1.000000	0.000032	0.000035	0.000042	-31.522493	-85.314565	27.968392
02986	9.909252	-0.362582	0.687273	0.009057	0.061893	0.126788	1.000000	0.000037	0.000026	0.000039	-31.557053	-85.311167	28.007037
02987	9.876073	-0.372126	0.692282	0.000936	0.051378	0.094477	1.000000	0.000027	0.000031	0.000047	-31.563285	-85.311625	28.017493
02988	9.921254	-0.357660	0.656506	0.040784	0.065793	0.136393	1.000000	0.000043	0.000004	0.000010	-31.578689	-85.312146	28.037708
02989	9.912937	-0.390426	0.666250	0.028756	0.032836	0.130187	1.000000	0.000023	0.000039	0.000051	-31.546028	-85.309483	28.013232
02990	9.909003	-0.365490	0.689315	0.007408	0.060008	0.126801	1.000000	0.000031	0.000023	0.000057	-31.604298	-85.305325	28.075117
02991	9.894302	-0.383695	0.680858	0.013431	0.040803	0.112339	1.000000	0.000028	0.000030	0.000034	-31.598724	-85.306778	28.073343
02992	9.902505	-0.352156	0.672262	0.024911	0.072666	0.118559	1.000000	0.000023	0.000039	0.000037	-31.622667	-85.302282	28.099911
02993	9.894155	-0.385073	0.682221	0.012293	0.040256	0.112343	1.000000	0.000037	0.000026	0.000039	-31.638960	-85.303197	28.117222
02994	9.914511	-0.347423	0.641583	0.056601	0.076810	0.128176	1.000000	0.000032	0.000010	0.000045	-31.692188	-85.301059	28.174173
02995	9.887684	-0.371767	0.664803	0.029941	0.052992	0.104105	1.000000	0.000037	0.000038	0.000038	-31.684305	-85.300536	28.169304
02996	9.881266	-0.357577	0.647197	0.048287	0.066426	0.095864	1.000000	0.000015	0.000030	0.000033	-31.710679	-85.297110	28.197339
02997	9.908528	-0.370575	0.693426	0.002164	0.057641	0.126817	1.000000	0.000041	0.000030	0.000034	-31.767769	-85.303129	28.253185
02998	9.899621	-0.367469	0.635018	0.060194	0.057336	0.113736	1.000000	0.000028	0.000030	0.000034	-31.793992	-85.299766	28.282556
02999	9.905892	-0.383038	0.653988	0.040650	0.043418	0.121978	1.000000	0.000032	0.000035	0.000042	-31.814610	-85.299735	28.302335
03000	9.887340	-0.375206	0.667983	0.026156	0.052172	0.104120	1.000000	0.000032	0.000022	0.000044	-31.858076	-85.296557	28.349437
03001	9.880954	-0.361006	0.650044	0.043413	0.065233	0.095895	1.000000	0.000025	0.000013	0.000026	-31.902275	-85.301851	28.390434
03002	9.920374	-0.367602	0.664269	0.031710	0.061518	0.136454	1.000000	0.000029	0.000017	0.000022	-31.924284	-85.300536	28.415644
03003	9.868699	-0.368466	0.682658	0.009155	0.060956	0.086263	1.000000	0.000008	0.000040	0.000063	-32.031279	-85.297396	28.505767
03004	9.913906	-0.354429	0.647082	0.048931	0.075341	0.128228	1.000000	0.000051	0.000013	0.000027	-32.061461	-85.296140	28.541563
03005	9.883221	-0.352532	0.692651	0.000581	0.078683	0.100733	1.000000	0.000015	0.000030	0.000033	-32.077455	-85.300198	28.559329
03006	9.901632	-0.361946	0.679871	0.014388	0.069967	0.118599	1.000000	0.000041	0.000030	0.000047	-32.119828	-85.296035	28.606172
03007	9.886911	-0.380123	0.671542	0.020088	0.050966	0.104140	1.000000	0.000032	0.000035	0.000042	-32.144999	-85.297662	28.632239
03008	9.880519	-0.366080	0.653807	0.038403	0.064408	0.095921	1.000000	0.000032	0.000022	0.000044	-32.190056	-85.294572	28.680798
03009	9.905259	-0.390360	0.659234	0.033197	0.041912	0.122012	1.000000	0.000037	0.000026	0.000039	-32.215488	-85.294104	28.703581
03010	9.901353	-0.365168	0.682212	0.011821	0.069123	0.118608	1.000000	0.000027	0.000031	0.000047	-32.258974	-85.289969	28.749983
03011	9.886653	-0.383057	0.673664	0.017143	0.050324	0.104149	1.000000	0.000039	0.000012	0.000013	-32.291597	-85.296887	28.781473
03012	9.901245	-0.366412	0.683116	0.009906	0.068789	0.118613	1.000000	0.000013	0.000032	0.000060	-32.351692	-85.291915	28.842891
03013	9.898702	-0.378303	0.642937	0.049705	0.053881	0.113813	1.000000	0.000021	0.000021	0.000016	-32.278153	-85.291449	28.777242
03014	9.882200	-0.323112	0.629160	0.065677	0.107912	0.093985	1.000000	0.000050	0.000026	0.000039	-32.313367	-85.288292	28.817985
03015	9.881453	-0.407964	0.594423	0.095194	0.021534	0.094551	1.000000	0.000028	0.000042	0.000032	-32.331325	-85.286304	28.829835
03016	9.933890	-0.480573	0.713588	-0.024102	-0.040459	0.158276	1.000000	-0.000043	-0.000021	0.000055	-32.430657	-85.286758	28.924162
03017	9.898284	-0.295101	0.811339	-0.113862	0.148765	0.121410	1.000000	0.000116	0.000030	-0.000022	-32.361984	-85.292407	28.868361
03018	9.606373	-0.317656	0.601756	0.072940	0.101807	-0.183059	1.000000	0.000084	0.000047	0.000056	-32.397889	-85.286215	28.913663
03019	10.018680	-0.354050	0.660599	0.041711	0.086844	0.233527	1.000000	-0.000075	0.000069	0.000112	-32.516449	-85.280572	29.016999
03020	10.069490	-0.439694	0.608239	0.092937	0.001581	0.284306	1.000000	0.000077	0.000012	0.000028	-32.546128	-85.279453	29.055278
03021	10.068135	-0.402681	0.671179	0.031498	0.042377	0.285688	1.000000	-0.000017	-0.000029	-0.000007	-32.577498	-85.286805	29.075755
03022	10.027801	-0.394778	0.788173	-0.088335	0.055677	0.253243	1.000000	0.000007	-0.000022	-0.000029	-32.574715	-85.292513	29.073272
03023	9.555377	-0.392015	0.757787	-0.092026	0.037286	-0.219810	1.000000	0.000059	0.000046	0.000029	-32.561297	-85.289636	29.060576
03024	9.778477	-0.328896	0.669097	0.016784	0.104597	-0.006401	1.000000	0.000051	0.000057	0.000085	-32.628109	-85.280647	29.132997
03025	9.939514	-0.345501	0.635239	0.061973	0.093364	0.152466	1.000000	0.000016	0.000049	0.000081	-32.660764	-85.273843	29.164266
03026	9.881515	-0.331787	0.635374	0.058908	0.105909	0.094049	1.000000	0.000059	0.000022	0.000044	-32.704853	-85.270763	29.214762
03027	9.960303	-0.344969	0.663927	0.035631	0.098278	0.175131	1.000000	0.000010	0.000039	0.000037	-32.722979	-85.267284	29.224749
03028	9.926348	-0.438681	0.633469	0.058170	0.002439	0.143352	1.000000	0.000023	0.000014	0.000053	-32.786640	-85.264339	29.290723
03029	9.887617	-0.348795	0.655323	0.038936	0.091825	0.102257	1.000000	0.000057	0.000028	0.000008	-32.750660	-85.265326	29.258422
03030	9.925283	-0.282485	0.664443	0.036652	0.160556	0.137458	1.000000	0.000027	0.000018	0.000048	-32.805324	-85.262301	29.315906
03031	9.891318	-0.376192	0.633994	0.057813	0.064251	0.105688	1.000000	0.000006	0.000035	0.000041	-32.861731	-85.266412	29.368498
03032	9.914649	-0.363187	0.702609	-0.007817	0.083135	0.133109	1.000000	0.000033	0.000021	0.000030	-32.892761	-85.264247	29.402891
03033	9.905871	-0.360058	0.644048	0.050056	0.081764	0.120164	1.000000	0.000038	0.000025	0.000025	-32.857216	-85.265508	29.374484
03034	9.860452	-0.375474	0.680577	0.009623	0.067525	0.078118	1.000000	0.000014	0.000019	0.000048	-32.912809	-85.262536	29.431395
03035	9.904387	-0.324321	0.708129	-0.011872	0.122260	0.121517	1.000000	0.000024	0.000039	0.000037	-32.921107	-85.262522	29.439297
03036	9.845639	-0.394258	0.672862	0.015243	0.048593	0.063658	1.000000	0.000055	0.000029	0.000034	-32.948395	-85.259337	29.472459
03037	9.911864	-0.377750	0.664919	0.028495	0.067323	0.128365	1.000000	0.000019	0.000047	0.000040	-32.965280	-85.260116	29.488962
03038	9.968318	-0.356358	0.729228	-0.029920	0.095852	0.188115	1.000000	0.000010	0.000015	0.000053	-33.029928	-85.257254	29.554415
03039	9.903317	-0.411544	0.675320	0.015125	0.035198	0.122082	1.000000	0.000038	0.000025	0.000025	-33.055601	-85.260059	29.578383
03040	9.860048	-0.379777	0.684030	0.005223	0.066194	0.078130	1.000000	0.000020	0.000009	0.000031	-33.098484	-85.259073	29.623162
03041	9.886899	-0.356959	0.661721	0.029461	0.089208	0.102314	1.000000	0.000042	0.000030	0.000034	-33.169003	-85.262787	29.688267
03042	9.878401	-0.389893	0.671796	0.017227	0.057437	0.096023	1.000000	0.000036	0.000039	0.000051	-33.211216	-85.257750	29.734156
03043	9.865819	-0.361164	0.635783	0.053332	0.083450	0.079695	1.000000	0.000014	0.000031	0.000046	-33.238694	-85.260705	29.763944
03044	9.973915	-0.339790	0.682399	0.016190	0.112860	0.189668	1.000000	0.000042	0.000030	0.000034	-33.267838	-85.257639	29.797387
03045	9.868138	-0.351147	0.677621	0.012254	0.096738	0.084439	1.000000	0.000034	0.000021	0.000017	-33.267245	-85.261249	29.798083
03046	9.919726	-0.351898	0.660460	0.033151	0.097645	0.134692	1.000000	0.000041	0.000030	0.000047	-33.311508	-85.257302	29.846592
03047	9.871817	-0.378495	0.656480	0.032157	0.068974	0.087878	1.000000	0.000020	0.000034	0.000028	-33.302880	-85.257308	29.837560
03048	9.871751	-0.379071	0.657132	0.031744	0.069020	0.087879	1.000000	0.000042	0.000030	0.000034	-33.332075	-85.254266	29.871053
03049	9.925766	-0.368686	0.680719	0.012200	0.083309	0.142866	1.000000	0.000024	0.000026	0.000038	-33.371318	-85.256333	29.907703
03050	9.864015	-0.328380	0.702852	-0.011770	0.123109	0.081014	1.000000	0.000045	0.000022	0.000044	-33.417702	-85.253442	29.958870
03051	9.875369	-0.407050	0.636504	0.050606	0.040284	0.091330	1.000000	0.000065	0.000036	0.000012	-33.342025	-85.255294	29.896123
03052	9.950313	-0.393935	0.687319	0.006198	0.060028	0.168929	1.000000	-0.000024	0.000006	0.000034	-33.396861	-85.254498	29.947790
03053	9.856254	-0.277696	0.748970	-0.074542	0.093003	0.075164	1.000000	0.000064	0.000037	0.000025	-28.642957	-85.583881	24.740454
03054	9.787961	-0.428059	0.619487	0.039728	-0.068376	0.003876	1.000000	0.000051	0.000037	0.000025	-28.616269	-85.583509	24.716075
03055	9.878385	-0.313839	0.714920	-0.040862	0.055199	0.096267	1.000000	-0.000001	0.000045	0.000071	-28.645098	-85.579051	24.743848
03056	9.966063	-0.417051	0.636100	0.037052	-0.049843	0.182167	1.000000	0.000049	0.000026	0.000052	-28.662887	-85.578258	24.763879
03057	10.082627	-0.363563	0.673097	0.011799	0.009828	0.298909	1.000000	-0.000010	0.000005	0.000021	-28.659530	-85.580946	24.755651
03058	9.939899	-0.357073	0.694635	-0.019519	0.012721	0.157822	1.000000	0.000048	0.000020	0.000004	-28.618722	-85.583466	24.716787
03059	9.819443	-0.385573	0.680633	-0.016070	-0.020857	0.037830	1.000000	0.000024	0.000014	0.000040	-28.629368	-85.584350	24.725150
03060	9.824057	-0.328050	0.693990	-0.025298	0.037567	0.041209	1.000000	0.000028	0.000030	0.000034	-28.622256	-85.584226	24.717806
03061	9.893249	-0.422239	0.628427	0.038657	-0.058468	0.109242	1.000000	0.000000	0.000032	0.000059	-28.647883	-85.582200	24.739749
03062	9.913565	-0.299096	0.754661	-0.077197	0.073983	0.133484	1.000000	0.000032	0.000034	0.000042	-28.648363	-85.581157	24.740456
03063	9.883088	-0.383026	0.633676	0.035591	-0.019062	0.098017	1.000000	0.000055	0.000029	0.000034	-28.640235	-85.581019	24.729374
03064	9.864539	-0.374919	0.647564	0.021036	-0.010644	0.080163	1.000000	0.000010	0.000026	0.000038	-28.643279	-85.581017	24.730159
03065	9.893860	-0.341082	0.666028	0.006878	0.025398	0.109394	1.000000	0.000032	0.000022	0.000043	-28.655667	-85.581410	24.741937
03066	9.922293	-0.391314	0.649259	0.022086	-0.025078	0.138466	1.000000	0.000047	0.000020	0.000017	-28.631868	-85.583138	24.720029
03067	9.893741	-0.342282	0.667172	0.005753	0.024065	0.109398	1.000000	0.000031	0.000047	0.000054	-28.636037	-85.579807	24.724058
03068	9.899871	-0.357851	0.686181	-0.013705	0.010110	0.117371	1.000000	0.000025	0.000013	0.000026	-28.631803	-85.581778	24.719175
03069	9.893612	-0.343765	0.668321	0.004635	0.022705	0.109402	1.000000	0.000023	0.000039	0.000050	-28.635570	-85.579507	24.730442
03070	9.914420	-0.342200	0.696406	-0.021581	0.027097	0.131990	1.000000	0.000027	0.000031	0.000047	-28.645435	-85.578591	24.740023
03071	9.887365	-0.366187	0.719694	-0.048225	0.003868	0.107479	1.000000	0.000038	0.000025	0.000025	-28.628491	-85.579405	24.724403
03072	9.851723	-0.386561	0.683861	-0.016442	-0.020189	0.070271	1.000000	0.000037	0.000026	0.000039	-28.630022	-85.579414	24.726711
03073	9.870137	-0.396114	0.671179	-0.003127	-0.029948	0.088125	1.000000	0.000019	0.000035	0.000042	-28.631857	-85.578554	24.725146
03074	9.888552	-0.405776	0.658418	0.010217	-0.039706	0.105980	1.000000	0.000014	0.000018	0.000048	-28.652933	-85.578806	24.744459
03075	9.934987	-0.343230	0.726535	-0.050252	0.028839	0.154572	1.000000	0.000016	0.000030	0.000020	-28.631497	-85.579668	24.717004
03076	9.884646	-0.380816	0.681789	-0.011716	-0.013569	0.102743	1.000000	0.000028	0.000030	0.000033	-28.624366	-85.579551	24.709643
03077	9.884581	-0.381539	0.682322	-0.012285	-0.014231	0.102741	1.000000	0.000019	0.000022	0.000043	-28.634886	-85.579536	24.717110
03078	9.888316	-0.408291	0.660417	0.007804	-0.042344	0.105971	1.000000	0.000051	0.000012	0.000027	-28.629162	-85.581519	24.713774
03079	9.902959	-0.391673	0.669856	0.000430	-0.024663	0.120596	1.000000	0.000027	0.000031	0.000047	-28.639599	-85.580728	24.725440
03080	9.929900	-0.369271	0.647771	0.025888	-0.002807	0.145134	1.000000	0.000041	0.000030	0.000047	-28.648702	-85.579822	24.735779
03081	9.899034	-0.367111	0.693331	-0.021438	0.001483	0.117362	1.000000	0.000038	0.000025	0.000025	-28.633533	-85.580546	24.718772
03082	9.905137	-0.346737	0.643670	0.029654	0.018274	0.119335	1.000000	0.000042	0.000017	0.000022	-28.619139	-85.582403	24.705760
03083	9.874278	-0.344628	0.689063	-0.017744	0.022573	0.091560	1.000000	0.000031	0.000023	0.000057	-28.649568	-85.582086	24.736402
03084	9.880375	-0.360278	0.708012	-0.037222	0.008632	0.099499	1.000000	0.000028	0.000030	0.000033	-28.642415	-85.581973	24.729020
03085	9.890252	-0.366344	0.636177	0.034524	-0.002044	0.104712	1.000000	0.000019	0.000022	0.000043	-28.655425	-85.582205	24.736721
03086	9.901122	-0.323695	0.667912	0.006509	0.043103	0.116119	1.000000	0.000050	0.000025	0.000039	-28.656201	-85.582226	24.739793
03087	9.911004	-0.365247	0.664560	0.007633	0.001697	0.127282	1.000000	0.000033	0.000021	0.000030	-28.652332	-85.583465	24.732830
03088	9.880141	-0.327489	0.641578	0.030900	0.036722	0.093561	1.000000	0.000032	0.000034	0.000042	-28.652750	-85.582434	24.733476
03089	9.871519	-0.360286	0.651672	0.018187	0.004431	0.086859	1.000000	0.000028	0.000030	0.000033	-28.643918	-85.582218	24.724078
03090	9.904661	-0.352418	0.647902	0.024758	0.012974	0.119357	1.000000	0.000033	0.000021	0.000030	-28.637843	-85.583154	24.718324
03091	9.904600	-0.353139	0.648436	0.024207	0.012297	0.119359	1.000000	0.000027	0.000030	0.000047	-28.645268	-85.582042	24.724338
03092	9.898326	-0.374721	0.699332	-0.028092	-0.005774	0.117344	1.000000	0.000019	0.000047	0.000040	-28.635918	-85.579838	24.713661
03093	9.925316	-0.352097	0.677232	-0.002711	0.016031	0.141922	1.000000	0.000051	0.000012	0.000027	-28.632458	-85.582266	24.710901
03094	9.916701	-0.384650	0.687079	-0.015464	-0.016241	0.135201	1.000000	0.000011	0.000026	0.000024	-28.618436	-85.583068	24.694674
03095	9.877298	-0.378941	0.673432	-0.004346	-0.012829	0.094781	1.000000	0.000032	0.000022	0.000043	-28.629433	-85.583357	24.705278
03096	9.873458	-0.353703	0.696174	-0.025589	0.013997	0.091559	1.000000	0.000023	0.000027	0.000051	-28.648650	-85.582575	24.723700
03097	9.883290	-0.395520	0.692983	-0.024375	-0.027441	0.102691	1.000000	0.000032	0.000034	0.000042	-28.645443	-85.581247	24.723477
03098	9.891787	-0.364359	0.684239	-0.012814	0.003506	0.109420	1.000000	0.000031	0.000035	0.000055	-28.662811	-85.579426	24.741019
03099	9.891732	-0.365090	0.684650	-0.013466	0.002844	0.109420	1.000000	0.000029	0.000004	0.000023	-28.661248	-85.582749	24.738266
03100	9.889310	-0.377030	0.644513	0.025483	-0.012037	0.104732	1.000000	0.000032	0.000047	0.000041	-28.651134	-85.580556	24.728344
03101	9.873096	-0.357770	0.699224	-0.028538	0.010674	0.091555	1.000000	0.000026	0.000031	0.000060	-28.676664	-85.578796	24.754240
03102	9.910002	-0.376341	0.673254	-0.001348	-0.008306	0.127281	1.000000	0.000046	0.000021	0.000030	-28.669863	-85.579744	24.749278
03103	9.885334	-0.353319	0.668564	0.003094	0.013454	0.101517	1.000000	0.000024	0.000026	0.000038	-28.670828	-85.579673	24.749307
03104	9.903759	-0.362910	0.655843	0.016388	0.003629	0.119382	1.000000	0.000024	0.000026	0.000038	-28.673042	-85.579690	24.750781
03105	9.885211	-0.354810	0.669588	0.001953	0.012124	0.101519	1.000000	0.000032	0.000022	0.000043	-28.681690	-85.579599	24.757890
03106	9.891268	-0.370405	0.688483	-0.017558	-0.001800	0.109413	1.000000	0.000045	0.000022	0.000044	-28.691847	-85.579753	24.769832
03107	9.887451	-0.344929	0.711155	-0.038753	0.025028	0.106198	1.000000	0.000020	0.000022	0.000030	-28.684655	-85.580572	24.762828
03108	9.872682	-0.362824	0.702462	-0.032607	0.006041	0.091546	1.000000	0.000028	0.000005	0.000036	-28.698498	-85.582804	24.776517
03109	9.891119	-0.372349	0.689582	-0.019314	-0.003811	0.109410	1.000000	0.000028	0.000030	0.000033	-28.689842	-85.582706	24.771381
03110	9.876319	-0.390437	0.681184	-0.013169	-0.022798	0.094756	1.000000	0.000009	0.000027	0.000051	-28.709732	-85.581921	24.788957
03111	9.911824	-0.371486	0.718026	-0.046291	-0.000067	0.131943	1.000000	0.000028	0.000017	0.000035	-28.716824	-85.583619	24.797252
03112	9.894689	-0.400696	0.668838	-0.000608	-0.033297	0.112617	1.000000	0.000025	0.000025	0.000025	-28.702058	-85.584435	24.781801
03113	9.909355	-0.384091	0.678383	-0.007879	-0.015635	0.127269	1.000000	0.000027	0.000030	0.000047	-28.709349	-85.583180	24.784894
03114	9.888469	-0.387189	0.651369	0.017186	-0.021362	0.104735	1.000000	0.000021	0.000009	0.000018	-28.697548	-85.586082	24.771988
03115	9.903152	-0.370508	0.660748	0.009844	-0.003704	0.119391	1.000000	0.000054	0.000030	0.000048	-28.705557	-85.585242	24.786517
03116	9.921596	-0.380006	0.647798	0.023117	-0.013555	0.137258	1.000000	0.000034	-0.000004	0.000019	-28.703570	-85.589320	24.784980
03117	9.903060	-0.371658	0.661481	0.008708	-0.005030	0.119391	1.000000	0.000045	0.000046	0.000041	-28.690586	-85.586836	24.771892
03118	9.902983	-0.372392	0.662223	0.008110	-0.005692	0.119391	1.000000	0.000037	0.000026	0.000039	-28.692054	-85.586867	24.774139
03119	9.917649	-0.355822	0.671848	0.000839	0.011965	0.134051	1.000000	0.000024	0.000038	0.000037	-28.681427	-85.585391	24.761491
03120	9.878270	-0.350041	0.658265	0.012048	0.015436	0.093658	1.000000	0.000033	0.000021	0.000030	-28.675325	-85.586339	24.755710
03121	9.899040	-0.348078	0.686253	-0.014234	0.019833	0.116185	1.000000	0.000033	0.000034	0.000029	-28.658624	-85.586208	24.743712
03122	9.878157	-0.351116	0.659391	0.010844	0.014109	0.093662	1.000000	0.000020	0.000022	0.000030	-28.653230	-85.587148	24.737122
03123	9.892835	-0.334559	0.668890	0.003476	0.031767	0.108326	1.000000	0.000041	0.000030	0.000047	-28.663170	-85.586444	24.748919
03124	9.902584	-0.376337	0.665941	0.004540	-0.009674	0.119390	1.000000	0.000032	0.000047	0.000041	-28.652975	-85.584264	24.738918
03125	9.877952	-0.353277	0.661310	0.009140	0.012109	0.093666	1.000000	0.000011	0.000013	0.000026	-28.644624	-85.585679	24.728656
03126	9.898717	-0.351468	0.689185	-0.017133	0.016514	0.116186	1.000000	0.000027	0.000030	0.000047	-28.654364	-85.584788	24.738114
03127	9.902392	-0.378359	0.667652	0.002856	-0.011676	0.119389	1.000000	0.000033	0.000034	0.000029	-28.637858	-85.584595	24.717180
03128	9.902327	-0.378982	0.668263	0.002257	-0.012337	0.119388	1.000000	0.000024	0.000026	0.000038	-28.640024	-85.584621	24.718607
03129	9.910935	-0.347613	0.659336	0.013893	0.018562	0.126208	1.000000	0.000028	0.000030	0.000033	-28.631544	-85.584411	24.708663
03130	9.896128	-0.365506	0.650977	0.020031	-0.000417	0.111541	1.000000	0.000028	0.000030	0.000033	-28.624303	-85.584317	24.701196
03131	9.898385	-0.354933	0.692163	-0.020067	0.013198	0.116186	1.000000	0.000031	0.000022	0.000057	-28.650506	-85.583569	24.728677
03132	9.883584	-0.372885	0.683643	-0.013929	-0.005777	0.101515	1.000000	0.000021	0.000021	0.000016	-28.628126	-85.585307	24.705157
03133	9.883520	-0.373596	0.684177	-0.014507	-0.006453	0.101514	1.000000	0.000053	0.000030	0.000061	-28.651760	-85.583584	24.735883
03134	9.877383	-0.359752	0.666290	0.003846	0.006137	0.093675	1.000000	0.000024	0.000026	0.000038	-28.653913	-85.583613	24.737297
03135	9.877315	-0.360505	0.666903	0.003287	0.005462	0.093676	1.000000	0.000032	0.000034	0.000042	-28.652076	-85.582448	24.738065
03136	9.901798	-0.384971	0.672665	-0.002423	-0.017675	0.119380	1.000000	0.000037	0.000013	0.000040	-28.664050	-85.583654	24.750854
03137	9.877199	-0.361991	0.667806	0.002088	0.004142	0.093677	1.000000	0.000037	0.000026	0.000038	-28.665672	-85.583734	24.750403
03138	9.897936	-0.360335	0.695785	-0.024197	0.008549	0.116182	1.000000	0.000036	0.000026	0.000052	-28.684064	-85.582978	24.769519
03139	9.901608	-0.387309	0.674113	-0.004234	-0.019660	0.119376	1.000000	0.000020	0.000021	0.000029	-28.678706	-85.583957	24.760136
03140	9.897803	-0.361857	0.696891	-0.025396	0.007229	0.116180	1.000000	0.000023	0.000039	0.000050	-28.687256	-85.582027	24.767855
03141	9.901474	-0.388884	0.675182	-0.005447	-0.020981	0.119373	1.000000	0.000028	0.000005	0.000036	-28.701617	-85.584343	24.778815
03142	9.880623	-0.391980	0.648143	0.019647	-0.026711	0.096871	1.000000	0.000033	0.000033	0.000029	-28.684949	-85.584135	24.762434
03143	9.897631	-0.363757	0.698350	-0.027196	0.005251	0.116176	1.000000	0.000025	0.000025	0.000025	-28.669773	-85.584940	24.746535
03144	9.888856	-0.396368	0.708394	-0.040027	-0.026957	0.109312	1.000000	0.000024	0.000026	0.000038	-28.671907	-85.584972	24.747930
03145	9.895199	-0.376470	0.658803	0.011192	-0.010392	0.111550	1.000000	0.000028	0.000030	0.000033	-28.662345	-85.584553	24.734917
03146	9.901170	-0.391802	0.677937	-0.008374	-0.024290	0.119363	1.000000	0.000033	0.000033	0.000029	-28.645671	-85.584346	24.718531
03147	9.882624	-0.383481	0.691612	-0.022863	-0.015681	0.101488	1.000000	0.000010	0.000014	0.000039	-28.662209	-85.585874	24.730793
03148	9.895023	-0.378461	0.660307	0.009326	-0.012362	0.111549	1.000000	0.000045	0.000021	0.000044	-28.672340	-85.586050	24.742709
03149	9.913460	-0.387974	0.647563	0.022607	-0.022292	0.129422	1.000000	0.000021	0.000021	0.000016	-28.647211	-85.587497	24.723150
03150	9.876426	-0.370582	0.674499	-0.005620	-0.004434	0.093675	1.000000	0.000032	0.000034	0.000042	-28.647491	-85.586497	24.723662
03151	9.928100	-0.371926	0.657663	0.014728	-0.005315	0.144108	1.000000	0.000033	0.000021	0.000030	-28.639632	-85.587202	24.717417
03152	9.894793	-0.380845	0.662373	0.007047	-0.015019	0.111548	1.000000	0.000037	0.000026	0.000038	-28.641052	-85.587249	24.719617
03153	9.894729	-0.381512	0.662944	0.006442	-0.015675	0.111547	1.000000	0.000028	0.000030	0.000033	-28.634398	-85.587193	24.714364
03154	9.903413	-0.349989	0.654012	0.018091	0.015202	0.118438	1.000000	0.000029	0.000029	0.000020	-28.610135	-85.587903	24.689932
03155	9.894605	-0.382617	0.664157	0.005265	-0.016991	0.111546	1.000000	0.000041	0.000030	0.000047	-28.618844	-85.586917	24.698857
03156	9.903297	-0.351283	0.655069	0.016918	0.013882	0.118442	1.000000	0.000038	0.000013	0.000027	-28.613831	-85.588925	24.694714
03157	9.890763	-0.357772	0.687273	-0.016472	0.009270	0.108360	1.000000	0.000023	0.000039	0.000050	-28.623150	-85.587036	24.703442
03158	9.903170	-0.352804	0.656174	0.015715	0.012565	0.118446	1.000000	0.000028	0.000017	0.000035	-28.626401	-85.588119	24.706502
03159	9.896642	-0.374039	0.706878	-0.036676	-0.005277	0.116146	1.000000	0.000032	0.000034	0.000042	-28.627888	-85.587261	24.710648
03160	9.917804	-0.337104	0.666321	0.007764	0.029546	0.133142	1.000000	0.000027	0.000030	0.000047	-28.637552	-85.586386	24.720031
03161	9.902969	-0.355161	0.657937	0.013917	0.010583	0.118451	1.000000	0.000024	0.000026	0.000038	-28.638864	-85.586314	24.722106
03162	9.875640	-0.379055	0.681268	-0.012733	-0.012324	0.093662	1.000000	0.000031	0.000035	0.000055	-28.656072	-85.584526	24.739491
03163	9.902815	-0.356918	0.659297	0.012760	0.009256	0.118453	1.000000	0.000024	0.000038	0.000037	-28.646216	-85.583216	24.730119
03164	9.887973	-0.374826	0.651028	0.018891	-0.009703	0.103758	1.000000	0.000028	0.000030	0.000033	-28.638915	-85.583136	24.722594
03165	9.881913	-0.360698	0.633127	0.037305	0.002864	0.095983	1.000000	0.000028	0.000030	0.000033	-28.631061	-85.582939	24.712912
03166	9.908622	-0.373575	0.679591	-0.008001	-0.005955	0.126230	1.000000	0.000042	0.000017	0.000035	-28.633613	-85.584038	24.716791
03167	9.887798	-0.376756	0.652570	0.017119	-0.011677	0.103759	1.000000	0.000024	0.000026	0.000038	-28.636428	-85.584050	24.713433
03168	9.887736	-0.377526	0.653060	0.016522	-0.012338	0.103759	1.000000	0.000019	0.000022	0.000043	-28.647911	-85.584210	24.723663
03169	9.865467	-0.343115	0.688864	-0.018392	0.023903	0.082705	1.000000	0.000027	0.000030	0.000047	-28.658914	-85.583458	24.734289
03170	9.908369	-0.376597	0.681596	-0.010422	-0.008580	0.126226	1.000000	0.000020	0.000021	0.000029	-28.653451	-85.584413	24.727631
03171	9.904609	-0.350982	0.704071	-0.031574	0.018370	0.123049	1.000000	0.000050	0.000013	0.000040	-28.667164	-85.585884	24.742737
03172	9.869002	-0.371668	0.668100	0.000276	-0.005656	0.085881	1.000000	0.000013	0.000031	0.000059	-28.694416	-85.584206	24.768133
03173	9.889687	-0.370050	0.696192	-0.026088	-0.001234	0.108343	1.000000	0.000042	0.000029	0.000034	-28.688323	-85.584350	24.764198
03174	10.233092	-0.258880	0.514427	0.186886	0.107811	0.434326	1.000000	0.000139	0.000080	0.000026	-28.623905	-85.579607	24.712087
03175	9.703250	-0.618475	1.012416	-0.370244	-0.231841	-0.046945	1.000000	-0.000400	-0.000047	0.000158	-28.882543	-85.580329	24.919644
03176	9.750584	-0.757715	0.402084	0.229006	-0.412051	-0.035803	1.000000	0.000289	-0.000102	-0.000141	-28.713020	-85.603034	24.779390
03177	9.454863	0.020113	0.860176	-0.194285	0.384245	-0.328524	1.000000	0.000345	0.000250	0.000094	-28.593160	-85.577421	24.699785
03178	10.202223	-0.237412	0.321279	0.378966	0.114767	0.389673	1.000000	-0.000070	-0.000020	0.000054	-28.659118	-85.581231	24.754447
03179	10.104690	-0.244668	0.959697	-0.263887	0.149402	0.335893	1.000000	-0.000056	0.000060	0.000094	-28.719103	-85.574727	24.804933
03180	10.088945	-0.447592	0.577202	0.100660	-0.080748	0.301840	1.000000	-0.000017	-0.000141	-0.000118	-28.641129	-85.600170	24.721315
03181	9.455293	-0.566050	0.719210	-0.093722	-0.209753	-0.315980	1.000000	-0.000064	0.000120	0.000145	-28.726439	-85.584933	24.797987
03182	10.236113	-0.311660	0.736356	-0.038606	0.070451	0.454295	1.000000	0.000171	-0.000011	-0.000043	-28.632935	-85.593138	24.720402
03183	9.403084	-0.458602	0.663407	-0.034051	-0.107984	-0.375760	1.000000	-0.000058	0.000061	0.000121	-28.727161	-85.585011	24.804728
03184	10.064193	-0.182034	0.769096	-0.073822	0.196587	0.280306	1.000000	0.000217	0.000059	-0.000018	-28.610842	-85.584827	24.709579
03185	9.714931	-0.380597	0.595919	0.060906	-0.024762	-0.072280	1.000000	-0.000108	-0.000001	0.000086	-28.709059	-85.584842	24.794910
03186	10.453979	-0.274864	0.700946	0.014923	0.112110	0.667759	1.000000	0.000039	0.000036	0.000010	-28.665992	-85.585331	24.752706
03187	9.610664	-0.537595	0.602792	0.035948	-0.184358	-0.169973	1.000000	-0.000041	0.000014	0.000011	-28.649221	-85.588172	24.727125
03188	10.056790	-0.361990	0.792626	-0.110206	0.017763	0.281165	1.000000	0.000057	0.000028	0.000008	-28.606606	-85.589717	24.687440
03189	9.650470	-0.509452	0.549024	0.093607	-0.159614	-0.134965	1.000000	0.000038	-0.000012	0.000029	-28.622352	-85.593917	24.702855
03190	9.954461	-0.168408	0.787633	-0.099906	0.206602	0.171669	1.000000	0.000068	0.000053	0.000032	-28.591807	-85.591564	24.676578
03191	9.875276	-0.435830	0.633883	0.029866	-0.073369	0.092188	1.000000	0.000055	0.000016	0.000035	-28.593713	-85.592613	24.680181
03192	9.961050	-0.380281	0.716219	-0.042383	-0.009037	0.181222	1.000000	-0.000042	0.000034	0.000084	-28.657574	-85.589298	24.735994
03193	9.946842	-0.363216	0.639186	0.034543	0.002306	0.161226	1.000000	0.000128	0.000029	0.000005	-28.603426	-85.590853	24.693319
03194	9.811407	-0.408060	0.615663	0.045342	-0.048508	0.026259	1.000000	0.000000	0.000007	0.000062	-28.652495	-85.591495	24.739076
03195	9.944528	-0.253721	0.696556	-0.015710	0.115367	0.158754	1.000000	0.000056	0.000028	0.000021	-28.627090	-85.592172	24.716365
03196	9.866783	-0.314238	0.674568	-0.003167	0.050939	0.081987	1.000000	0.000023	0.000039	0.000050	-28.635496	-85.590267	24.723944
03197	9.936990	-0.324924	0.644699	0.030762	0.040492	0.150364	1.000000	0.000038	0.000012	0.000026	-28.629774	-85.592138	24.716578
03198	9.898472	-0.392133	0.636776	0.031282	-0.028214	0.113904	1.000000	0.000005	0.000023	0.000055	-28.658841	-85.591500	24.742815
03199	9.913991	-0.326324	0.749612	-0.075413	0.045912	0.134565	1.000000	0.000024	0.000038	0.000036	-28.648819	-85.590196	24.730834
03200	9.816204	-0.354128	0.631439	0.033719	0.006671	0.030117	1.000000	0.000078	0.000036	0.000025	-28.620622	-85.589942	24.708001
03201	9.864238	-0.329454	0.636748	0.033397	0.033210	0.077457	1.000000	-0.000017	0.000015	0.000051	-28.653453	-85.590452	24.735930
03202	9.944852	-0.331696	0.706583	-0.030734	0.038411	0.162629	1.000000	0.000043	0.000029	0.000020	-28.628450	-85.591197	24.712281
03203	9.881901	-0.374750	0.693367	-0.024901	-0.007716	0.100560	1.000000	0.000033	0.000021	0.000030	-28.621621	-85.592138	24.705672
03204	9.922506	-0.419819	0.645633	0.022390	-0.054764	0.139484	1.000000	0.000002	0.000030	0.000032	-28.615570	-85.592042	24.696360
03205	9.843250	-0.442611	0.686462	-0.024981	-0.077063	0.064060	1.000000	0.000013	0.000056	0.000056	-28.620898	-85.588009	24.701544
03206	9.909045	-0.354160	0.672811	-0.000631	0.012401	0.125478	1.000000	0.000046	0.000021	0.000030	-28.614034	-85.589007	24.696523
03207	9.875700	-0.362839	0.677403	-0.008243	0.002848	0.092861	1.000000	0.000033	0.000021	0.000030	-28.608517	-85.590027	24.691092
03208	9.945914	-0.373599	0.647587	0.025601	-0.007674	0.161251	1.000000	0.000027	0.000030	0.000046	-28.618079	-85.589172	24.700375
03209	9.888847	-0.431674	0.652897	0.012376	-0.066971	0.106852	1.000000	0.000015	0.000018	0.000034	-28.622235	-85.590270	24.703897
03210	9.918385	-0.398105	0.671409	-0.001653	-0.031088	0.136316	1.000000	0.000040	0.000043	0.000059	-28.637480	-85.587478	24.720291
03211	9.882784	-0.418562	0.635694	0.030244	-0.055095	0.099163	1.000000	0.000056	0.000028	0.000021	-28.611376	-85.588131	24.696782
03212	9.876904	-0.281970	0.714901	-0.039718	0.086342	0.093613	1.000000	0.000009	0.000039	0.000049	-28.620397	-85.586218	24.703459
03213	9.859817	-0.311611	0.665801	0.005890	0.052948	0.074352	1.000000	0.000055	0.000004	0.000037	-28.632484	-85.588458	24.720681
03214	9.878908	-0.394548	0.659285	0.008036	-0.029419	0.096007	1.000000	0.000018	0.000035	0.000054	-28.650220	-85.586680	24.737076
03215	9.947656	-0.367537	0.692257	-0.018049	0.002140	0.165781	1.000000	0.000028	0.000029	0.000033	-28.642658	-85.586611	24.732053
03216	9.875084	-0.369698	0.682656	-0.013576	-0.003078	0.092856	1.000000	0.000037	0.000038	0.000037	-28.633404	-85.585526	24.723550
03217	9.917889	-0.403295	0.675631	-0.005830	-0.035713	0.136299	1.000000	0.000028	0.000017	0.000034	-28.637407	-85.586655	24.726538
03218	9.869081	-0.356149	0.665124	0.004282	0.008805	0.085185	1.000000	0.000016	0.000029	0.000019	-28.613735	-85.587373	24.701184
03219	9.880158	-0.313107	0.696768	-0.023443	0.054086	0.096781	1.000000	0.000050	0.000037	0.000037	-28.604316	-85.586308	24.693816
03220	9.893334	-0.381072	0.671822	-0.002274	-0.015101	0.110739	1.000000	0.000011	0.000013	0.000026	-28.600614	-85.588305	24.687947
03221	9.959888	-0.365695	0.664005	0.011116	0.001963	0.176000	1.000000	0.000013	0.000031	0.000059	-28.627341	-85.586547	24.711277
03222	9.913901	-0.380232	0.700324	-0.029228	-0.011342	0.133140	1.000000	0.000033	0.000021	0.000030	-28.621134	-85.587536	24.705395
03223	9.863513	-0.417672	0.655396	0.009344	-0.053593	0.081246	1.000000	0.000038	0.000025	0.000025	-28.607426	-85.588503	24.689414
03224	9.893086	-0.383852	0.673887	-0.004675	-0.017723	0.110734	1.000000	0.000019	0.000034	0.000041	-28.608215	-85.587521	24.688919
03225	9.913115	-0.309169	0.695775	-0.020035	0.059014	0.129428	1.000000	0.000019	0.000022	0.000043	-28.620331	-85.587736	24.701376
03226	9.887081	-0.370655	0.656405	0.013189	-0.005853	0.103079	1.000000	0.000055	0.000029	0.000034	-28.611612	-85.587717	24.695473
03227	9.915053	-0.421419	0.640435	0.027636	-0.056799	0.131760	1.000000	0.000020	0.000021	0.000029	-28.604874	-85.588535	24.688060
03228	9.855855	-0.368252	0.702162	-0.034416	-0.001522	0.074948	1.000000	0.000028	0.000029	0.000033	-28.597458	-85.588482	24.680422
03229	9.895854	-0.340773	0.648418	0.023802	0.023611	0.110183	1.000000	0.000040	0.000030	0.000060	-28.623244	-85.586802	24.707721
03230	9.871430	-0.317803	0.643508	0.028600	0.045555	0.084653	1.000000	0.000042	0.000029	0.000033	-28.615174	-85.586768	24.700949
03231	9.880897	-0.359527	0.640656	0.029346	0.004026	0.095438	1.000000	0.000010	0.000026	0.000037	-28.616972	-85.586683	24.699738
03232	9.901528	-0.357647	0.668667	0.002964	0.008444	0.117832	1.000000	0.000046	0.000020	0.000030	-28.610103	-85.587693	24.694713
03233	9.871819	-0.392694	0.651271	0.015804	-0.028738	0.088327	1.000000	0.000037	0.000025	0.000038	-28.610703	-85.587675	24.696206
03234	9.927419	-0.298077	0.709422	-0.032009	0.071328	0.144203	1.000000	0.000025	0.000013	0.000026	-28.606334	-85.589694	24.691189
03235	9.897695	-0.333249	0.692152	-0.019170	0.034148	0.114697	1.000000	0.000031	0.000047	0.000053	-28.612038	-85.586697	24.696845
03236	9.882773	-0.351532	0.684000	-0.013058	0.015231	0.099943	1.000000	0.000040	0.000030	0.000060	-28.637792	-85.585082	24.723779
03237	9.873719	-0.384513	0.694116	-0.026021	-0.016865	0.092817	1.000000	0.000009	0.000014	0.000052	-28.667471	-85.585455	24.751521
03238	9.912323	-0.318930	0.702617	-0.027654	0.050424	0.129457	1.000000	0.000038	0.000012	0.000026	-28.662479	-85.587494	24.747401
03239	9.910591	-0.404198	0.668784	0.000131	-0.037064	0.128595	1.000000	0.000032	0.000034	0.000042	-28.662142	-85.586461	24.745143
03240	9.892030	-0.395834	0.682404	-0.014134	-0.028281	0.110700	1.000000	0.000019	0.000022	0.000043	-28.673483	-85.586646	24.755231
03241	9.886120	-0.381984	0.664337	0.004357	-0.015762	0.103076	1.000000	0.000027	0.000030	0.000046	-28.683265	-85.585786	24.762804
03242	9.876568	-0.341676	0.668205	0.002485	0.024454	0.092323	1.000000	0.000028	0.000017	0.000034	-28.686443	-85.586899	24.765791
03243	9.937811	-0.384644	0.648163	0.023784	-0.017735	0.153620	1.000000	0.000014	0.000030	0.000046	-28.696041	-85.586014	24.775216
03244	9.885914	-0.384525	0.665932	0.002572	-0.017747	0.103073	1.000000	0.000026	0.000031	0.000060	-28.722388	-85.584383	24.801225
03245	9.910172	-0.409195	0.671947	-0.003483	-0.041029	0.128578	1.000000	0.000051	0.000012	0.000027	-28.717723	-85.586533	24.800480
03246	9.891625	-0.400690	0.685434	-0.017738	-0.032233	0.110682	1.000000	0.000027	0.000030	0.000046	-28.727171	-85.585695	24.809649
03247	9.876255	-0.345765	0.670726	-0.000481	0.021161	0.092331	1.000000	0.000032	0.000021	0.000043	-28.737411	-85.585789	24.818484
03248	9.902693	-0.358620	0.717319	-0.045976	0.012415	0.122312	1.000000	0.000033	0.000021	0.000030	-28.731206	-85.586789	24.812605
03249	9.887792	-0.376443	0.708866	-0.039843	-0.006503	0.107545	1.000000	0.000037	0.000025	0.000038	-28.731156	-85.586758	24.815021
03250	9.885556	-0.388716	0.668807	-0.000988	-0.021708	0.103066	1.000000	0.000025	0.000025	0.000025	-28.716193	-85.587624	24.799382
03251	9.896708	-0.345715	0.700106	-0.028617	0.023601	0.114705	1.000000	0.000050	0.000012	0.000040	-28.726969	-85.588780	24.811594
03252	9.915127	-0.355641	0.687685	-0.015568	0.013472	0.132599	1.000000	0.000032	0.000046	0.000040	-28.716372	-85.586672	24.801206
03253	9.885371	-0.390655	0.670421	-0.002750	-0.023685	0.103061	1.000000	0.000025	0.000013	0.000026	-28.711753	-85.588636	24.796615
03254	9.905974	-0.388827	0.698412	-0.029156	-0.019262	0.125424	1.000000	0.000014	0.000030	0.000046	-28.721821	-85.587781	24.804885
03255	9.900098	-0.374905	0.680284	-0.010655	-0.006753	0.117828	1.000000	0.000028	0.000017	0.000034	-28.725528	-85.588926	24.810433
03256	9.933379	-0.367584	0.676635	-0.004317	0.001356	0.150493	1.000000	0.000024	0.000026	0.000038	-28.727450	-85.589001	24.811620
03257	9.897810	-0.388009	0.640677	0.027616	-0.022630	0.113359	1.000000	0.000024	0.000026	0.000038	-28.729134	-85.588958	24.810572
03258	9.881435	-0.367770	0.694716	-0.026065	0.000753	0.099929	1.000000	0.000042	0.000017	0.000035	-28.731672	-85.590097	24.814439
03259	9.860716	-0.370939	0.667726	-0.000837	-0.004986	0.077568	1.000000	0.000024	0.000038	0.000036	-28.722796	-85.588951	24.805456
03260	9.906675	-0.358217	0.632606	0.038243	0.006791	0.120550	1.000000	0.000032	0.000021	0.000043	-28.733470	-85.589163	24.816397
03261	9.908779	-0.347215	0.673703	-0.001795	0.020703	0.125014	1.000000	0.000015	0.000030	0.000033	-28.726861	-85.589065	24.807747
03262	9.912350	-0.374135	0.652436	0.017937	-0.007691	0.128135	1.000000	0.000051	0.000036	0.000024	-28.699966	-85.588819	24.783186
03263	9.878944	-0.382674	0.657161	0.010416	-0.017097	0.095462	1.000000	0.000037	0.000025	0.000038	-28.701667	-85.588876	24.784913
03264	9.908597	-0.348910	0.675503	-0.003580	0.018727	0.125017	1.000000	0.000033	0.000021	0.000030	-28.695434	-85.589882	24.779007
03265	9.890047	-0.340353	0.689077	-0.017784	0.027561	0.107122	1.000000	0.000032	0.000034	0.000041	-28.694892	-85.588854	24.779296
03266	9.897236	-0.393908	0.645927	0.022262	-0.028576	0.113357	1.000000	0.000024	0.000038	0.000036	-28.686154	-85.587775	24.769795
03267	9.923256	-0.333822	0.686251	-0.012065	0.034990	0.139800	1.000000	0.000037	0.000013	0.000040	-28.698926	-85.589069	24.784237
03268	9.908333	-0.351851	0.677852	-0.005962	0.016089	0.125021	1.000000	0.000036	0.000038	0.000050	-28.706444	-85.587219	24.792451
03269	9.893400	-0.369920	0.669536	0.000155	-0.002817	0.110240	1.000000	0.000019	0.000022	0.000042	-28.716875	-85.587343	24.802954
03270	9.889717	-0.344180	0.691909	-0.020756	0.024267	0.107125	1.000000	0.000033	0.000021	0.000030	-28.710643	-85.588352	24.797049
03271	9.908144	-0.354118	0.679431	-0.007729	0.014100	0.125023	1.000000	0.000027	0.000030	0.000046	-28.719758	-85.587480	24.806194
03272	9.893207	-0.372089	0.671193	-0.001628	-0.004799	0.110239	1.000000	0.000024	0.000038	0.000036	-28.711004	-85.586404	24.796677
03273	9.922869	-0.338427	0.689576	-0.015598	0.031008	0.139809	1.000000	0.000024	0.000013	0.000039	-28.722365	-85.587533	24.808147
03274	9.887311	-0.358843	0.653602	0.016332	0.007026	0.102683	1.000000	0.000024	0.000038	0.000036	-28.713604	-85.586457	24.798623
03275	9.887237	-0.359620	0.654292	0.015735	0.006366	0.102684	1.000000	0.000041	0.000030	0.000047	-28.722431	-85.585653	24.808849
03276	9.892938	-0.375129	0.673464	-0.003994	-0.007446	0.110236	1.000000	0.000032	0.000021	0.000043	-28.733075	-85.585871	24.819759
03277	9.880163	-0.381098	0.705534	-0.037304	-0.011744	0.099886	1.000000	0.000034	0.000020	0.000016	-28.708677	-85.587556	24.796124
03278	9.887068	-0.361577	0.655774	0.013972	0.004376	0.102688	1.000000	0.000027	0.000030	0.000046	-28.718052	-85.586733	24.805221
03279	9.898514	-0.391744	0.693716	-0.024915	-0.022579	0.117779	1.000000	0.000032	0.000034	0.000041	-28.718876	-85.585875	24.807812
03280	9.889066	-0.351480	0.697515	-0.026672	0.017668	0.107125	1.000000	0.000027	0.000018	0.000048	-28.738897	-85.586209	24.827582
03281	9.920227	-0.356120	0.653343	0.019096	0.011095	0.135382	1.000000	0.000037	0.000025	0.000038	-28.738747	-85.586181	24.828046
03282	9.886803	-0.364890	0.657930	0.011599	0.001730	0.102692	1.000000	0.000023	0.000026	0.000051	-28.757486	-85.585472	24.845990
03283	9.898231	-0.395057	0.695881	-0.027269	-0.025222	0.117766	1.000000	0.000024	0.000038	0.000036	-28.748423	-85.584330	24.835388
03284	9.892409	-0.381129	0.677839	-0.008725	-0.012736	0.110228	1.000000	0.000045	0.000021	0.000043	-28.758432	-85.584575	24.847183
03285	9.907220	-0.364647	0.687290	-0.016009	0.004836	0.125022	1.000000	0.000042	0.000029	0.000033	-28.750179	-85.584514	24.839861
03286	9.907157	-0.365356	0.687815	-0.016607	0.004176	0.125021	1.000000	0.000019	0.000022	0.000042	-28.761422	-85.584713	24.849853
03287	9.888601	-0.356884	0.701359	-0.030773	0.013051	0.107120	1.000000	0.000032	0.000034	0.000041	-28.760539	-85.583691	24.849433
03288	9.907021	-0.366991	0.688914	-0.017783	0.002851	0.125019	1.000000	0.000027	0.000018	0.000048	-28.780537	-85.584027	24.869181
03289	9.916300	-0.408898	0.686242	-0.017229	-0.038724	0.135646	1.000000	0.000024	0.000038	0.000036	-28.770907	-85.582832	24.857651
03290	9.904761	-0.380186	0.649529	0.020473	-0.013103	0.120597	1.000000	0.000033	0.000021	0.000030	-28.764675	-85.583849	24.851747
03291	9.901102	-0.354281	0.671859	-0.000403	0.014012	0.117496	1.000000	0.000020	0.000021	0.000029	-28.759339	-85.584854	24.846027
03292	9.884045	-0.383926	0.622821	0.045119	-0.019511	0.098278	1.000000	0.000032	0.000021	0.000043	-28.769957	-85.585079	24.856912
03293	9.886095	-0.373006	0.663987	0.005096	-0.005532	0.102696	1.000000	0.000036	0.000038	0.000050	-28.777600	-85.583237	24.865941
03294	9.895181	-0.342010	0.654777	0.016962	0.025171	0.109983	1.000000	0.000024	0.000013	0.000039	-28.790123	-85.584482	24.877756
03295	9.919343	-0.366733	0.660838	0.010771	0.001820	0.135401	1.000000	0.000019	0.000022	0.000042	-28.802116	-85.584737	24.889317
03296	9.900802	-0.358126	0.674242	-0.003400	0.010715	0.117499	1.000000	0.000033	0.000021	0.000030	-28.795887	-85.585757	24.883415
03297	9.891577	-0.390616	0.684547	-0.016442	-0.021312	0.110204	1.000000	0.000032	0.000034	0.000041	-28.794673	-85.584733	24.883196
03298	9.867313	-0.367338	0.679281	-0.011449	0.000726	0.084792	1.000000	0.000033	0.000008	0.000031	-28.799122	-85.586908	24.887999
03299	9.919118	-0.369473	0.662686	0.008421	-0.000838	0.135403	1.000000	0.000027	0.000030	0.000046	-28.807750	-85.585971	24.895497
03300	9.900551	-0.361091	0.676340	-0.005744	0.008066	0.117501	1.000000	0.000023	0.000038	0.000049	-28.815746	-85.584114	24.902672
03301	9.887714	-0.367062	0.708566	-0.039090	0.003847	0.107098	1.000000	0.000034	0.000020	0.000016	-28.793920	-85.586015	24.882282
03302	9.872775	-0.384770	0.700078	-0.032995	-0.015031	0.092287	1.000000	0.000032	0.000021	0.000043	-28.804532	-85.586244	24.893161
03303	9.915267	-0.345829	0.686779	-0.014246	0.024311	0.132310	1.000000	0.000037	0.000025	0.000038	-28.805687	-85.586353	24.896290
03304	9.881823	-0.354483	0.691376	-0.021710	0.015005	0.099597	1.000000	0.000027	0.000030	0.000046	-28.814986	-85.585541	24.905311
03305	9.876050	-0.340621	0.673267	-0.003123	0.027470	0.092105	1.000000	0.000024	0.000026	0.000038	-28.815840	-85.585582	24.906900
03306	9.900179	-0.365243	0.679554	-0.009332	0.004101	0.117500	1.000000	0.000028	0.000029	0.000033	-28.808293	-85.585564	24.899137
03307	9.894409	-0.351334	0.661482	0.009267	0.016567	0.110012	1.000000	0.000027	0.000030	0.000046	-28.816528	-85.584637	24.906878
03308	9.894342	-0.352078	0.662087	0.008670	0.015906	0.110013	1.000000	0.000028	0.000029	0.000033	-28.808979	-85.584620	24.899113
03309	9.881492	-0.358117	0.694232	-0.024648	0.011704	0.099595	1.000000	0.000045	0.000021	0.000043	-28.819177	-85.584851	24.910696
03310	9.912695	-0.362923	0.650316	0.021030	0.005002	0.127921	1.000000	0.000014	0.000043	0.000044	-28.818368	-85.582864	24.908066
03311	9.881346	-0.359634	0.695523	-0.025824	0.010381	0.099593	1.000000	0.000033	0.000021	0.000030	-28.811200	-85.583820	24.901700
03312	9.899762	-0.369646	0.683228	-0.012873	0.000132	0.117497	1.000000	0.000028	0.000042	0.000045	-28.809786	-85.581859	24.899985
03313	9.912485	-0.365050	0.652334	0.019282	0.002997	0.127925	1.000000	0.000028	0.000029	0.000033	-28.800677	-85.581716	24.890758
03314	9.884723	-0.388143	0.675636	-0.007350	-0.019411	0.102677	1.000000	0.000042	0.000029	0.000033	-28.792521	-85.581727	24.883907
03315	9.905248	-0.386303	0.703683	-0.033815	-0.014986	0.124967	1.000000	0.000010	0.000014	0.000039	-28.805320	-85.582936	24.895473
03316	9.884597	-0.389660	0.676604	-0.008542	-0.020733	0.102673	1.000000	0.000036	0.000038	0.000050	-28.812665	-85.581113	24.903518
03317	9.905126	-0.387679	0.704647	-0.034983	-0.016313	0.124961	1.000000	0.000043	0.000003	0.000010	-28.790765	-85.584880	24.883104
03318	9.893718	-0.358929	0.667700	0.002789	0.009274	0.110025	1.000000	0.000023	0.000038	0.000049	-28.798710	-85.583032	24.890229
03319	9.893639	-0.359839	0.668393	0.002210	0.008605	0.110026	1.000000	0.000027	0.000030	0.000046	-28.806861	-85.582154	24.899307
03320	9.897155	-0.387125	0.647116	0.021835	-0.019871	0.113109	1.000000	0.000037	0.000025	0.000038	-28.808065	-85.582280	24.901297
03321	9.893511	-0.361330	0.669481	0.001032	0.007279	0.110027	1.000000	0.000037	0.000025	0.000038	-28.808495	-85.582338	24.903161
03322	9.899117	-0.376628	0.688737	-0.018755	-0.006503	0.117486	1.000000	0.000028	0.000029	0.000033	-28.800922	-85.582327	24.895374
03323	9.893381	-0.362724	0.670645	-0.000146	0.005953	0.110028	1.000000	0.000041	0.000029	0.000046	-28.808761	-85.581481	24.905121
03324	9.896881	-0.390133	0.649503	0.019471	-0.022529	0.113108	1.000000	0.000023	0.000038	0.000049	-28.816671	-85.579636	24.912212
03325	9.880412	-0.369529	0.703554	-0.034045	0.001119	0.099574	1.000000	0.000034	0.000020	0.000016	-28.792641	-85.581407	24.889810
03326	9.891113	-0.376517	0.631830	0.037483	-0.010741	0.105657	1.000000	0.000033	0.000021	0.000030	-28.786383	-85.582440	24.883881
03327	9.919363	-0.377393	0.719160	-0.047604	-0.004733	0.139754	1.000000	0.000024	0.000025	0.000038	-28.788210	-85.582574	24.886420
03328	9.887413	-0.351378	0.654741	0.016075	0.015757	0.102583	1.000000	0.000032	0.000034	0.000041	-28.788078	-85.581662	24.886531
03329	9.883743	-0.398447	0.683915	-0.016211	-0.029347	0.102642	1.000000	0.000033	0.000033	0.000028	-28.770231	-85.581457	24.869016
03330	9.907853	-0.350078	0.683556	-0.010984	0.019517	0.124861	1.000000	0.000028	0.000017	0.000034	-28.773332	-85.582603	24.871927
03331	9.911355	-0.377417	0.662382	0.008635	-0.008975	0.127936	1.000000	0.000031	0.000046	0.000053	-28.778865	-85.579678	24.877712
03332	9.898459	-0.383258	0.694513	-0.024680	-0.013123	0.117466	1.000000	0.000043	0.000003	0.000010	-28.758425	-85.583588	24.858750
03333	9.887102	-0.354597	0.657693	0.013128	0.012453	0.102592	1.000000	0.000027	0.000055	0.000056	-28.763553	-85.579676	24.863439
03334	9.922493	-0.335785	0.694964	-0.020044	0.035079	0.139697	1.000000	0.000028	0.000017	0.000034	-28.766648	-85.580823	24.866344
03335	9.907525	-0.353607	0.686487	-0.013927	0.016213	0.124863	1.000000	0.000037	0.000025	0.000038	-28.766628	-85.580821	24.866382
03336	9.888977	-0.344940	0.699908	-0.028031	0.025190	0.106954	1.000000	0.000024	0.000025	0.000038	-28.768394	-85.580927	24.867416
03337	9.886848	-0.357493	0.659940	0.010803	0.009802	0.102598	1.000000	0.000028	0.000029	0.000033	-28.759779	-85.580764	24.857322
03338	9.907337	-0.355529	0.688204	-0.015687	0.014230	0.124863	1.000000	0.000046	0.000032	0.000028	-28.742229	-85.580676	24.841598
03339	9.883134	-0.332274	0.683189	-0.010568	0.036316	0.099530	1.000000	0.000031	0.000046	0.000053	-28.747562	-85.577804	24.848118
03340	9.897885	-0.388971	0.699511	-0.029403	-0.018405	0.117445	1.000000	0.000006	0.000022	0.000042	-28.759261	-85.577996	24.857045
03341	9.879332	-0.380301	0.712924	-0.043484	-0.009419	0.099533	1.000000	0.000028	0.000029	0.000033	-28.751011	-85.577915	24.848475
03342	9.886510	-0.361054	0.663070	0.007845	0.006489	0.102603	1.000000	0.000028	0.000017	0.000034	-28.754092	-85.579065	24.851365
03343	9.907000	-0.359205	0.691141	-0.018645	0.010914	0.124862	1.000000	0.000037	0.000025	0.000038	-28.754869	-85.579179	24.853671
03344	9.901317	-0.345330	0.672901	-0.000025	0.023360	0.117448	1.000000	0.000032	0.000021	0.000043	-28.765394	-85.579427	24.864464
03345	9.886336	-0.363231	0.664470	0.006067	0.004503	0.102606	1.000000	0.000024	0.000025	0.000037	-28.766939	-85.579511	24.865386
03346	9.891893	-0.378561	0.683715	-0.013749	-0.009263	0.110016	1.000000	0.000037	0.000025	0.000038	-28.768106	-85.579649	24.867339
03347	9.912365	-0.376927	0.711841	-0.040232	-0.004840	0.132268	1.000000	0.000018	0.000022	0.000055	-28.795008	-85.579000	24.893271
03348	9.891745	-0.380549	0.684742	-0.014926	-0.010589	0.110013	1.000000	0.000026	0.000030	0.000059	-28.820973	-85.577416	24.918897
03349	9.891684	-0.381345	0.685186	-0.015528	-0.011257	0.110011	1.000000	0.000051	0.000011	0.000027	-28.815086	-85.579571	24.917437
03350	9.900948	-0.350297	0.675766	-0.003584	0.019377	0.117456	1.000000	0.000023	0.000026	0.000051	-28.833614	-85.578890	24.935171
03351	9.891560	-0.382899	0.686112	-0.016713	-0.012584	0.110008	1.000000	0.000024	0.000025	0.000037	-28.834551	-85.578962	24.936238
03352	9.906427	-0.366519	0.695505	-0.023993	0.004946	0.124856	1.000000	0.000019	0.000022	0.000042	-28.845647	-85.579185	24.946082
03353	9.885831	-0.369797	0.668345	0.001335	-0.000798	0.102608	1.000000	0.000024	0.000025	0.000037	-28.847207	-85.579198	24.945978
03354	9.900703	-0.353460	0.677698	-0.005943	0.016731	0.117460	1.000000	0.000041	0.000017	0.000048	-28.866508	-85.579587	24.966545
03355	9.889268	-0.397774	0.647482	0.020331	-0.029997	0.105668	1.000000	0.000016	0.000029	0.000019	-28.840720	-85.580220	24.939439
03356	9.919064	-0.364147	0.665983	0.006370	0.005717	0.135373	1.000000	0.000036	0.000038	0.000050	-28.847940	-85.578419	24.947361
03357	9.879976	-0.358014	0.651891	0.018222	0.009641	0.095220	1.000000	0.000042	0.000029	0.000033	-28.839235	-85.578419	24.940471
03358	9.924526	-0.380057	0.685962	-0.014052	-0.008710	0.142760	1.000000	0.000025	0.000025	0.000024	-28.824181	-85.579327	24.924748
03359	9.885463	-0.373697	0.671611	-0.002190	-0.004791	0.102607	1.000000	0.000028	0.000017	0.000034	-28.825831	-85.580436	24.927587
03360	9.885408	-0.374370	0.672048	-0.002787	-0.005452	0.102607	1.000000	0.000024	0.000025	0.000037	-28.827553	-85.580552	24.928577
03361	9.903825	-0.384588	0.659750	0.010102	-0.015809	0.120519	1.000000	0.000027	0.000030	0.000046	-28.835434	-85.579683	24.936753
03362	9.885271	-0.375945	0.673177	-0.003961	-0.006782	0.102605	1.000000	0.000037	0.000025	0.000038	-28.836579	-85.579829	24.938686
03363	9.922185	-0.395332	0.648011	0.022386	-0.026839	0.138430	1.000000	0.000029	0.000028	0.000020	-28.810641	-85.580568	24.913755
03364	9.881609	-0.350378	0.696085	-0.025278	0.019761	0.099550	1.000000	0.000028	0.000029	0.000033	-28.802994	-85.580577	24.905897
03365	9.900047	-0.360450	0.683581	-0.012408	0.009417	0.117463	1.000000	0.000028	0.000005	0.000036	-28.817325	-85.582831	24.919311
03366	9.887076	-0.366281	0.715741	-0.045707	0.005361	0.106919	1.000000	0.000024	0.000050	0.000034	-28.797596	-85.580649	24.898807
03367	9.897878	-0.373794	0.644354	0.025805	-0.006703	0.113147	1.000000	0.000032	0.000021	0.000043	-28.806625	-85.580782	24.908171
03368	9.884911	-0.379632	0.676392	-0.007493	-0.010755	0.102600	1.000000	0.000033	0.000021	0.000029	-28.800330	-85.581832	24.902208
03369	9.879277	-0.365677	0.658199	0.011178	0.001686	0.095235	1.000000	0.000032	0.000033	0.000041	-28.800180	-85.580807	24.900598
03370	9.897688	-0.375848	0.646074	0.024032	-0.008681	0.113150	1.000000	0.000024	0.000038	0.000036	-28.791166	-85.579776	24.890830
03371	9.894087	-0.350077	0.668270	0.003290	0.018546	0.110102	1.000000	0.000027	0.000005	0.000049	-28.822420	-85.581383	24.923466
03372	9.875547	-0.341199	0.681627	-0.010754	0.027595	0.092189	1.000000	0.000034	0.000044	0.000013	-28.777899	-85.580927	24.879296
03373	9.918005	-0.375384	0.675455	-0.003677	-0.005586	0.135374	1.000000	0.000026	0.000030	0.000059	-28.802168	-85.579211	24.902933
03374	9.866026	-0.374406	0.692678	-0.024488	-0.004997	0.084677	1.000000	0.000025	0.000012	0.000026	-28.797798	-85.581273	24.897918
03375	9.893845	-0.352803	0.670420	0.000953	0.015886	0.110107	1.000000	0.000027	0.000030	0.000046	-28.806038	-85.580429	24.906252
03376	9.880850	-0.358782	0.702542	-0.032341	0.011858	0.099543	1.000000	0.000032	0.000021	0.000043	-28.816521	-85.580690	24.917003
03377	9.923307	-0.393142	0.696150	-0.025292	-0.021328	0.142718	1.000000	0.000027	0.000030	0.000046	-28.824752	-85.579791	24.924396
03378	9.893652	-0.355076	0.672062	-0.000812	0.013901	0.110110	1.000000	0.000043	0.000028	0.000020	-28.799744	-85.580628	24.900761
03379	9.899141	-0.370382	0.691343	-0.020661	0.000163	0.117454	1.000000	0.000018	0.000022	0.000055	-28.827708	-85.580010	24.926999
03380	9.899073	-0.371216	0.691868	-0.021258	-0.000497	0.117453	1.000000	0.000042	0.000029	0.000033	-28.819477	-85.580055	24.920077
03381	9.893454	-0.357480	0.673711	-0.002584	0.011925	0.110112	1.000000	0.000026	0.000030	0.000059	-28.845124	-85.578435	24.945330
03382	9.911872	-0.367743	0.661444	0.010251	0.001534	0.128029	1.000000	0.000025	0.000025	0.000024	-28.830040	-85.579351	24.929578
03383	9.878383	-0.375931	0.665800	0.002901	-0.007575	0.095239	1.000000	0.000028	0.000017	0.000034	-28.832561	-85.580519	24.933070
03384	9.896807	-0.386162	0.653452	0.015731	-0.017970	0.113154	1.000000	0.000027	0.000030	0.000046	-28.841654	-85.579743	24.941889
03385	9.896745	-0.386867	0.653972	0.015127	-0.018631	0.113154	1.000000	0.000033	0.000020	0.000029	-28.835662	-85.580826	24.937042
03386	9.898691	-0.375568	0.694989	-0.024839	-0.004462	0.117444	1.000000	0.000027	0.000030	0.000046	-28.844752	-85.580051	24.945858
03387	9.926524	-0.354105	0.672982	0.000611	0.016380	0.142910	1.000000	0.000037	0.000037	0.000036	-28.833881	-85.578922	24.935369
03388	9.859555	-0.370175	0.681586	-0.013482	-0.001137	0.077319	1.000000	0.000023	0.000038	0.000049	-28.841577	-85.577108	24.942251
03389	9.896463	-0.389852	0.656465	0.012782	-0.021290	0.113152	1.000000	0.000038	0.000012	0.000026	-28.835638	-85.579112	24.937260
03390	9.913377	-0.361361	0.706216	-0.033854	0.011056	0.132317	1.000000	0.000019	0.000022	0.000042	-28.846655	-85.579347	24.947025
03391	9.892830	-0.364636	0.679018	-0.008481	0.005293	0.110115	1.000000	0.000037	0.000025	0.000038	-28.846351	-85.579409	24.947758
03392	9.926209	-0.357800	0.675667	-0.002336	0.013048	0.142914	1.000000	0.000027	0.000030	0.000046	-28.855419	-85.578637	24.956553
03393	9.877738	-0.383287	0.671159	-0.002991	-0.014201	0.095231	1.000000	0.000028	0.000017	0.000034	-28.857703	-85.579762	24.959298
03394	9.892642	-0.367021	0.680462	-0.010260	0.003305	0.110114	1.000000	0.000031	0.000022	0.000056	-28.884915	-85.579238	24.986713
03395	9.911052	-0.377391	0.668258	0.002553	-0.007106	0.128031	1.000000	0.000024	0.000038	0.000036	-28.876219	-85.578195	24.977229
03396	9.905469	-0.363444	0.650156	0.021236	0.005303	0.120722	1.000000	0.000028	0.000029	0.000033	-28.868526	-85.578218	24.969327
03397	9.910932	-0.378568	0.669368	0.001373	-0.008445	0.128030	1.000000	0.000051	0.000011	0.000027	-28.861530	-85.580299	24.965733
03398	9.879419	-0.374815	0.714200	-0.045318	-0.002652	0.099498	1.000000	0.000001	0.000031	0.000045	-28.871681	-85.579465	24.972572
03399	9.905301	-0.365452	0.651584	0.019476	0.003310	0.120727	1.000000	0.000024	0.000025	0.000037	-28.873611	-85.579488	24.972611
03400	9.892261	-0.371137	0.683769	-0.013809	-0.000654	0.110110	1.000000	0.000033	0.000033	0.000028	-28.856559	-85.579405	24.955872
03401	9.910682	-0.381303	0.671523	-0.000990	-0.011102	0.128028	1.000000	0.000032	0.000021	0.000043	-28.865150	-85.579632	24.966033
03402	9.892137	-0.372586	0.684765	-0.014987	-0.001994	0.110108	1.000000	0.000032	0.000021	0.000043	-28.875596	-85.579903	24.976748
03403	9.892068	-0.373323	0.685366	-0.015562	-0.002660	0.110107	1.000000	0.000024	0.000038	0.000036	-28.865406	-85.578788	24.965791
03404	9.910468	-0.383646	0.673336	-0.002765	-0.013095	0.128025	1.000000	0.000036	0.000038	0.000049	-28.872492	-85.577015	24.973582
03405	9.901402	-0.343126	0.676754	-0.004131	0.027247	0.117707	1.000000	0.000051	0.000011	0.000027	-28.867119	-85.579130	24.970775
03406	9.904858	-0.370375	0.655534	0.015333	-0.001352	0.120734	1.000000	0.000019	0.000034	0.000041	-28.867347	-85.578224	24.969732
03407	9.889814	-0.388174	0.647276	0.021420	-0.020183	0.105841	1.000000	0.000028	0.000029	0.000033	-28.858467	-85.578200	24.961282
03408	9.873255	-0.367164	0.701063	-0.031919	0.003815	0.092181	1.000000	0.000033	0.000020	0.000029	-28.852153	-85.579267	24.955301
03409	9.880697	-0.348267	0.651279	0.019467	0.019494	0.095534	1.000000	0.000023	0.000038	0.000049	-28.859519	-85.577459	24.962384
03410	9.904586	-0.373231	0.658015	0.012958	-0.004016	0.120737	1.000000	0.000046	0.000033	0.000041	-28.858654	-85.576621	24.963288
03411	9.886027	-0.364414	0.671521	-0.001014	0.005104	0.102818	1.000000	0.000024	0.000038	0.000036	-28.848833	-85.575581	24.953282
03412	9.885957	-0.365055	0.672198	-0.001611	0.004443	0.102818	1.000000	0.000028	0.000029	0.000033	-28.841114	-85.575610	24.945355
03413	9.898902	-0.360618	0.641207	0.030497	0.007053	0.113464	1.000000	0.000042	0.000028	0.000033	-28.832362	-85.575549	24.937114
03414	9.885821	-0.366468	0.673433	-0.002782	0.003126	0.102818	1.000000	0.000031	0.000034	0.000054	-28.848764	-85.573888	24.953701
03415	9.867263	-0.357789	0.686816	-0.016747	0.012265	0.084898	1.000000	0.000024	0.000025	0.000037	-28.850347	-85.573979	24.954422
03416	9.867196	-0.358573	0.687376	-0.017342	0.011607	0.084897	1.000000	0.000027	0.000030	0.000046	-28.859348	-85.573218	24.963151
03417	9.900589	-0.351839	0.684140	-0.011230	0.019305	0.117721	1.000000	0.000032	0.000033	0.000041	-28.859349	-85.572334	24.963268
03418	9.900528	-0.352540	0.684656	-0.011827	0.018644	0.117721	1.000000	0.000028	0.000017	0.000034	-28.862373	-85.573511	24.966103
03419	9.902445	-0.341047	0.725521	-0.051732	0.032873	0.121967	1.000000	0.000033	0.000020	0.000029	-28.854118	-85.574421	24.957803
03420	9.890902	-0.385468	0.695393	-0.025628	-0.013894	0.110077	1.000000	0.000019	0.000022	0.000042	-28.865060	-85.574667	24.967493
03421	9.881870	-0.345105	0.698852	-0.026921	0.026448	0.099801	1.000000	0.000036	0.000038	0.000049	-28.870553	-85.572798	24.973831
03422	9.905736	-0.370053	0.705539	-0.033465	0.002925	0.124979	1.000000	0.000024	0.000025	0.000037	-28.872154	-85.572938	24.974703
03423	9.890685	-0.387899	0.697123	-0.027384	-0.015887	0.110069	1.000000	0.000032	0.000021	0.000042	-28.881901	-85.573156	24.984806
03424	9.879718	-0.359553	0.659933	0.010650	0.009556	0.095562	1.000000	0.000032	0.000021	0.000042	-28.892299	-85.573437	24.995472
03425	9.900093	-0.357811	0.688203	-0.015931	0.013994	0.117723	1.000000	0.000032	0.000033	0.000041	-28.892132	-85.572585	24.996035
03426	9.885047	-0.375524	0.679780	-0.009863	-0.004814	0.102813	1.000000	0.000025	0.000012	0.000026	-28.887776	-85.574663	24.991033
03427	9.884991	-0.376194	0.680214	-0.010442	-0.005472	0.102812	1.000000	0.000027	0.000030	0.000046	-28.896291	-85.573808	24.998797
03428	9.897950	-0.372197	0.649248	0.021636	-0.002907	0.113489	1.000000	0.000026	0.000030	0.000059	-28.921959	-85.572259	25.024127
03429	9.866368	-0.368419	0.694023	-0.024973	0.003036	0.084887	1.000000	0.000011	0.000013	0.000025	-28.917800	-85.574216	25.017431
03430	9.899796	-0.361494	0.690549	-0.018882	0.010695	0.117722	1.000000	0.000037	0.000025	0.000038	-28.918862	-85.574393	25.019283
03431	9.884732	-0.379365	0.682216	-0.012800	-0.008108	0.102807	1.000000	0.000027	0.000030	0.000046	-28.927402	-85.573555	25.027254
03432	9.903144	-0.389633	0.670100	-0.000050	-0.018600	0.120729	1.000000	0.000033	0.000033	0.000028	-28.910324	-85.573487	25.010491
03433	9.897646	-0.375669	0.651870	0.018689	-0.006216	0.113494	1.000000	0.000037	0.000025	0.000038	-28.911158	-85.573607	25.011988
03434	9.884535	-0.381348	0.683962	-0.014582	-0.010086	0.102803	1.000000	0.000024	0.000025	0.000037	-28.912742	-85.573751	25.012844
03435	9.897531	-0.376993	0.652858	0.017505	-0.007539	0.113495	1.000000	0.000033	0.000020	0.000029	-28.906177	-85.574762	25.006459
03436	9.899421	-0.365449	0.693836	-0.022427	0.006738	0.117718	1.000000	0.000028	0.000029	0.000033	-28.898423	-85.574801	24.998499
03437	9.897413	-0.378171	0.653962	0.016337	-0.008889	0.113496	1.000000	0.000028	0.000029	0.000033	-28.888004	-85.574756	24.988904
03438	9.912352	-0.361740	0.663409	0.009078	0.008589	0.128416	1.000000	0.000024	0.000025	0.000037	-28.889577	-85.574901	24.989749
03439	9.897282	-0.379518	0.655156	0.015149	-0.010207	0.113496	1.000000	0.000024	0.000037	0.000036	-28.880667	-85.573846	24.979782
03440	9.899146	-0.368116	0.696342	-0.024780	0.004079	0.117714	1.000000	0.000032	0.000033	0.000041	-28.880282	-85.572990	24.979647
03441	9.897138	-0.380926	0.656514	0.013962	-0.011525	0.113497	1.000000	0.000028	0.000029	0.000032	-28.872629	-85.572966	24.971369
03442	9.897070	-0.381658	0.657113	0.013364	-0.012187	0.113497	1.000000	0.000041	0.000029	0.000046	-28.881047	-85.572252	24.981036
03443	9.875049	-0.346065	0.691991	-0.020561	0.025013	0.092572	1.000000	0.000020	0.000021	0.000029	-28.876666	-85.573307	24.975177
03444	9.883881	-0.387885	0.689711	-0.020511	-0.016675	0.102784	1.000000	0.000029	0.000029	0.000032	-28.868906	-85.573349	24.967211
03445	9.887991	-0.342362	0.661685	0.010944	0.026857	0.103287	1.000000	0.000019	0.000046	0.000039	-28.856311	-85.571214	24.953748
03446	9.878311	-0.374804	0.672396	-0.002336	-0.004975	0.095571	1.000000	0.000027	0.000030	0.000046	-28.865245	-85.570466	24.962411
03447	9.893243	-0.358488	0.681967	-0.009583	0.012517	0.110498	1.000000	0.000037	0.000037	0.000036	-28.856425	-85.569424	24.953397
03448	9.908182	-0.342042	0.691532	-0.016838	0.029992	0.125426	1.000000	0.000029	0.000029	0.000032	-28.848667	-85.569467	24.945432
03449	9.883502	-0.391405	0.693145	-0.023448	-0.019983	0.102771	1.000000	0.000037	0.000025	0.000038	-28.848253	-85.569593	24.946262
03450	9.887659	-0.345787	0.664857	0.007994	0.023555	0.103299	1.000000	0.000025	0.000025	0.000024	-28.833116	-85.570533	24.930463
03451	9.900328	-0.363322	0.743391	-0.070623	0.011810	0.121898	1.000000	0.000050	0.000012	0.000040	-28.844712	-85.571874	24.944247
03452	9.911437	-0.371203	0.671797	0.000767	-0.000665	0.128424	1.000000	0.000029	0.000029	0.000032	-28.836941	-85.571919	24.936270
03453	9.887500	-0.347632	0.666260	0.005768	0.018585	0.103311	1.000000	0.000029	0.000029	0.000032	-28.638961	-85.581564	24.743406
03454	9.879729	-0.367792	0.717312	-0.046845	0.001731	0.099762	1.000000	0.000019	0.000034	0.000040	-28.638588	-85.580701	24.741791
03455	9.883127	-0.395185	0.696343	-0.027461	-0.026949	0.102744	1.000000	0.000029	0.000029	0.000032	-28.629504	-85.580713	24.733633
03456	9.889216	-0.337579	0.708581	-0.035330	0.031550	0.107514	1.000000	0.000041	0.000029	0.000046	-28.637436	-85.580034	24.742839
03457	9.892624	-0.365032	0.687453	-0.015939	0.002878	0.110497	1.000000	0.000028	0.000017	0.000034	-28.639489	-85.581119	24.743993
03458	9.892570	-0.365746	0.687846	-0.016537	0.002209	0.110496	1.000000	0.000032	0.000021	0.000042	-28.649325	-85.581442	24.754124
03459	9.877487	-0.383650	0.679479	-0.010470	-0.016577	0.095553	1.000000	0.000027	0.000029	0.000046	-28.657882	-85.580684	24.762662
03460	9.887073	-0.352794	0.669865	0.001634	0.013906	0.103320	1.000000	0.000028	0.000004	0.000036	-28.671037	-85.583047	24.775671
03461	9.905497	-0.363233	0.657594	0.014368	0.003341	0.121245	1.000000	0.000036	0.000037	0.000049	-28.676468	-85.581161	24.781186
03462	9.892324	-0.369013	0.689641	-0.018890	-0.000459	0.110492	1.000000	0.000019	0.000009	0.000043	-28.697561	-85.582593	24.801071
03463	9.877249	-0.386854	0.681110	-0.012809	-0.019254	0.095546	1.000000	0.000024	0.000025	0.000037	-28.697505	-85.582672	24.800906
03464	9.905321	-0.365638	0.658910	0.012595	0.001323	0.121248	1.000000	0.000032	0.000021	0.000042	-28.707340	-85.582997	24.811036
03465	9.905261	-0.366339	0.659424	0.012015	0.000665	0.121249	1.000000	0.000029	0.000029	0.000032	-28.699305	-85.582943	24.801361
03466	9.892085	-0.371927	0.691501	-0.021242	-0.003124	0.110487	1.000000	0.000032	0.000021	0.000042	-28.709138	-85.583269	24.811489
03467	9.910510	-0.382252	0.679235	-0.008545	-0.013692	0.128411	1.000000	0.000020	0.000021	0.000029	-28.703034	-85.584287	24.804041
03468	9.891974	-0.373263	0.692366	-0.022431	-0.004452	0.110484	1.000000	0.000032	0.000021	0.000042	-28.712869	-85.584613	24.814171
03469	9.910394	-0.383713	0.680106	-0.009728	-0.015030	0.128408	1.000000	0.000045	0.000020	0.000043	-28.721784	-85.584886	24.824857
03470	9.895305	-0.401576	0.671660	-0.003674	-0.033817	0.113455	1.000000	0.000019	0.000021	0.000042	-28.732121	-85.585174	24.833970
03471	9.889881	-0.387872	0.653314	0.015094	-0.021462	0.106300	1.000000	0.000028	0.000029	0.000046	-28.740999	-85.584494	24.843857
03472	9.886357	-0.361953	0.675532	-0.005440	0.005901	0.103327	1.000000	0.000032	0.000033	0.000041	-28.740057	-85.583678	24.843194
03473	9.910119	-0.386889	0.682307	-0.012121	-0.017703	0.128401	1.000000	0.000037	0.000025	0.000038	-28.740283	-85.583816	24.844264
03474	9.906603	-0.360932	0.704438	-0.032652	0.009663	0.125427	1.000000	0.000028	0.000029	0.000046	-28.748676	-85.583106	24.852413
03475	9.871129	-0.381221	0.668313	-0.000543	-0.014217	0.088371	1.000000	0.000033	0.000020	0.000029	-28.740989	-85.584123	24.845445
03476	9.904573	-0.374568	0.665107	0.005478	-0.006698	0.121253	1.000000	0.000023	0.000038	0.000049	-28.747941	-85.582377	24.851615
03477	9.899158	-0.360903	0.646837	0.024279	0.005648	0.114112	1.000000	0.000019	0.000021	0.000042	-28.757735	-85.582571	24.860345
03478	9.885959	-0.366456	0.678908	-0.008971	0.001892	0.103326	1.000000	0.000042	0.000028	0.000033	-28.748879	-85.582691	24.852832
03479	9.891236	-0.381631	0.698335	-0.028934	-0.011793	0.110461	1.000000	0.000037	0.000024	0.000038	-28.748586	-85.582820	24.853746
03480	9.909651	-0.392014	0.686170	-0.016266	-0.022395	0.128385	1.000000	0.000024	0.000025	0.000037	-28.749561	-85.583006	24.854021
03481	9.882326	-0.341735	0.702165	-0.030634	0.027935	0.100358	1.000000	0.000024	0.000037	0.000036	-28.739113	-85.581898	24.842237
03482	9.900747	-0.351894	0.690072	-0.017967	0.017330	0.118285	1.000000	0.000034	0.000020	0.000016	-28.715441	-85.583804	24.818995
03483	9.909464	-0.393842	0.687828	-0.018032	-0.024400	0.128378	1.000000	0.000018	0.000022	0.000055	-28.742273	-85.583268	24.845217
03484	9.870547	-0.387406	0.673333	-0.005850	-0.020224	0.088359	1.000000	0.000051	0.000035	0.000023	-28.714732	-85.583178	24.820068
03485	9.919031	-0.363744	0.679102	-0.006485	0.005380	0.136212	1.000000	0.000026	0.000030	0.000059	-28.739621	-85.581636	24.845254
03486	9.900487	-0.354926	0.692253	-0.020341	0.014656	0.118284	1.000000	0.000028	0.000017	0.000034	-28.742028	-85.582863	24.847500
03487	9.866906	-0.363029	0.696514	-0.027538	0.005835	0.085391	1.000000	0.000028	0.000029	0.000046	-28.750725	-85.582128	24.856286
03488	9.895040	-0.341880	0.674435	-0.002138	0.026333	0.111166	1.000000	0.000029	0.000029	0.000032	-28.742351	-85.582212	24.847736
03489	9.894987	-0.342498	0.674903	-0.002715	0.025664	0.111168	1.000000	0.000028	0.000017	0.000034	-28.744150	-85.583335	24.849465
03490	9.900249	-0.357635	0.694259	-0.022709	0.011988	0.118283	1.000000	0.000042	0.000028	0.000033	-28.735279	-85.583460	24.841938
03491	9.885137	-0.375517	0.685898	-0.016645	-0.006782	0.103314	1.000000	0.000018	0.000022	0.000055	-28.762155	-85.582907	24.867766
03492	9.874450	-0.347393	0.648554	0.021557	0.018561	0.089093	1.000000	0.000045	0.000020	0.000043	-28.771468	-85.583284	24.878894
03493	9.881591	-0.350204	0.708300	-0.037721	0.019954	0.100352	1.000000	0.000021	0.000020	0.000016	-28.748371	-85.585058	24.854182
03494	9.894707	-0.346013	0.677215	-0.005672	0.022329	0.111174	1.000000	0.000036	0.000025	0.000051	-28.765571	-85.584503	24.872135
03495	9.903376	-0.388178	0.675055	-0.005764	-0.019406	0.121236	1.000000	0.000032	0.000021	0.000042	-28.775062	-85.584734	24.881517
03496	9.911186	-0.369607	0.625082	0.045686	-0.004037	0.124960	1.000000	0.000024	0.000025	0.000037	-28.776011	-85.584926	24.881765
03497	9.881350	-0.353179	0.710191	-0.040087	0.017291	0.100348	1.000000	0.000032	0.000021	0.000042	-28.785703	-85.585260	24.892718
03498	9.903188	-0.390277	0.676598	-0.007562	-0.021416	0.121230	1.000000	0.000025	0.000037	0.000022	-28.759113	-85.585099	24.865482
03499	9.884641	-0.381287	0.689847	-0.021389	-0.012111	0.103299	1.000000	0.000018	0.000022	0.000055	-28.786056	-85.584565	24.891497
03500	9.879282	-0.367792	0.671311	-0.002578	0.000221	0.096204	1.000000	0.000036	0.000013	0.000052	-28.814051	-85.585154	24.920258
03501	9.916175	-0.388048	0.646450	0.023307	-0.020397	0.132062	1.000000	0.000029	0.000029	0.000032	-28.805195	-85.585134	24.911023
03502	9.899514	-0.366620	0.700030	-0.029813	0.003986	0.118270	1.000000	0.000033	0.000020	0.000029	-28.798265	-85.586262	24.904457
03503	9.879106	-0.369846	0.672762	-0.004340	-0.001779	0.096203	1.000000	0.000028	0.000029	0.000045	-28.806413	-85.585511	24.912673
03504	9.902802	-0.394926	0.679542	-0.011126	-0.025427	0.121218	1.000000	0.000032	0.000021	0.000042	-28.816210	-85.585852	24.922765
03505	9.897449	-0.381190	0.661193	0.007695	-0.013101	0.114132	1.000000	0.000032	0.000033	0.000041	-28.814970	-85.585025	24.922561
03506	9.897382	-0.382019	0.661712	0.007096	-0.013771	0.114132	1.000000	0.000027	0.000017	0.000047	-28.834103	-85.585470	24.941466
03507	9.873559	-0.358543	0.655999	0.012704	0.008551	0.089122	1.000000	0.000024	0.000037	0.000035	-28.824470	-85.584455	24.930838
03508	9.912318	-0.366231	0.671729	-0.000740	0.002991	0.129113	1.000000	0.000034	0.000019	0.000016	-28.800819	-85.586374	24.907618
03509	9.897194	-0.383875	0.663444	0.005316	-0.015768	0.114130	1.000000	0.000023	0.000038	0.000049	-28.807739	-85.584584	24.913783
03510	9.893713	-0.357815	0.685549	-0.015145	0.011650	0.111183	1.000000	0.000033	0.000020	0.000029	-28.800807	-85.585715	24.907215
03511	9.888373	-0.343985	0.667267	0.003694	0.023979	0.104112	1.000000	0.000028	0.000042	0.000044	-28.798280	-85.583797	24.904214
03512	9.880370	-0.363979	0.718320	-0.048964	0.007326	0.100321	1.000000	0.000028	0.000016	0.000034	-28.800683	-85.585032	24.906456
03513	9.878456	-0.376831	0.678406	-0.010249	-0.008436	0.096195	1.000000	0.000033	0.000032	0.000028	-28.782307	-85.584854	24.887554
03514	9.896861	-0.387124	0.666526	0.002362	-0.019107	0.114125	1.000000	0.000029	0.000041	0.000031	-28.763082	-85.583808	24.868142
03515	9.911850	-0.370797	0.676116	-0.004859	-0.001687	0.129112	1.000000	0.000041	0.000029	0.000046	-28.770144	-85.583037	24.876392
03516	9.911786	-0.371721	0.676557	-0.005458	-0.002357	0.129112	1.000000	0.000023	0.000013	0.000052	-28.798585	-85.583590	24.904078
03517	9.898493	-0.377227	0.708778	-0.038679	-0.006000	0.118239	1.000000	0.000029	0.000053	0.000029	-28.768503	-85.581322	24.873616
03518	9.854365	-0.356115	0.675351	-0.006971	0.011228	0.071201	1.000000	0.000037	0.000012	0.000039	-28.779749	-85.582706	24.885695
03519	9.893112	-0.364113	0.690879	-0.020432	0.005644	0.111178	1.000000	0.000019	0.000021	0.000042	-28.789217	-85.582968	24.894887
03520	9.893059	-0.364829	0.691271	-0.021030	0.004976	0.111178	1.000000	0.000028	0.000016	0.000034	-28.791609	-85.584206	24.897117
03521	9.891151	-0.377831	0.651368	0.017676	-0.010809	0.107064	1.000000	0.000032	0.000033	0.000041	-28.789831	-85.583264	24.895129
03522	9.911404	-0.375976	0.679797	-0.009003	-0.006377	0.129107	1.000000	0.000042	0.000028	0.000033	-28.780933	-85.583405	24.887578
03523	9.887626	-0.352258	0.673987	-0.003340	0.015953	0.104128	1.000000	0.000033	0.000020	0.000029	-28.773181	-85.584455	24.880598
03524	9.911291	-0.377104	0.680809	-0.010184	-0.007721	0.129105	1.000000	0.000029	0.000029	0.000032	-28.764746	-85.584554	24.871990
03525	9.911215	-0.377870	0.681488	-0.010767	-0.008389	0.129104	1.000000	0.000023	0.000038	0.000049	-28.771176	-85.582737	24.877572
03526	9.896072	-0.395684	0.673174	-0.004724	-0.027142	0.114105	1.000000	0.000028	0.000016	0.000034	-28.773556	-85.583977	24.879791
03527	9.905848	-0.364902	0.663587	0.007489	0.003254	0.122063	1.000000	0.000028	0.000029	0.000045	-28.781581	-85.583219	24.887704
03528	9.911024	-0.380096	0.683032	-0.012553	-0.010396	0.129100	1.000000	0.000033	0.000020	0.000029	-28.774629	-85.584357	24.881117
03529	9.874013	-0.361260	0.708713	-0.039502	0.009000	0.093234	1.000000	0.000023	0.000026	0.000050	-28.791617	-85.583677	24.897444
03530	9.892414	-0.371956	0.696670	-0.026916	-0.001701	0.111164	1.000000	0.000041	0.000029	0.000046	-28.799415	-85.583035	24.906520
03531	9.887121	-0.358055	0.678319	-0.008061	0.010604	0.104132	1.000000	0.000030	0.000028	0.000019	-28.773847	-85.583904	24.881746
03532	9.910770	-0.383013	0.685087	-0.014928	-0.013080	0.129094	1.000000	0.000023	0.000013	0.000052	-28.802265	-85.584463	24.909408
03533	9.881784	-0.345018	0.660241	0.010203	0.022246	0.097106	1.000000	0.000042	0.000028	0.000033	-28.793242	-85.584559	24.901996
03534	9.900193	-0.355551	0.648237	0.022783	0.011533	0.115042	1.000000	0.000014	0.000030	0.000045	-28.801961	-85.583831	24.908953
03535	9.920427	-0.353884	0.676648	-0.003895	0.015958	0.137070	1.000000	0.000028	0.000029	0.000045	-28.809307	-85.583093	24.916837
03536	9.905284	-0.371653	0.668250	0.002148	-0.002790	0.122066	1.000000	0.000042	0.000016	0.000034	-28.811226	-85.584381	24.920115
03537	9.905222	-0.372299	0.668799	0.001558	-0.003458	0.122066	1.000000	0.000024	0.000037	0.000035	-28.801132	-85.583397	24.909526
03538	9.886672	-0.363107	0.682181	-0.012210	0.005923	0.104132	1.000000	0.000029	0.000041	0.000031	-28.781854	-85.582363	24.890064
03539	9.905083	-0.373468	0.670218	0.000384	-0.004806	0.122065	1.000000	0.000033	0.000020	0.000029	-28.773637	-85.583395	24.882585
03540	9.908403	-0.401138	0.649282	0.019590	-0.033606	0.124990	1.000000	0.000013	0.000031	0.000058	-28.799035	-85.581884	24.906153
03541	9.901557	-0.348321	0.692790	-0.020602	0.021997	0.119140	1.000000	0.000042	0.000028	0.000033	-28.790420	-85.581924	24.898108
03542	9.910099	-0.390129	0.690746	-0.020859	-0.019774	0.129072	1.000000	0.000029	0.000016	0.000021	-28.776089	-85.583957	24.883685
03543	9.874667	-0.410267	0.654445	0.011307	-0.043621	0.092041	1.000000	0.000032	0.000021	0.000042	-28.784963	-85.584182	24.892702
03544	9.899576	-0.362515	0.653783	0.016893	0.004822	0.115059	1.000000	0.000032	0.000033	0.000041	-28.783869	-85.583400	24.891892
03545	9.908093	-0.404522	0.651920	0.016633	-0.036948	0.124983	1.000000	0.000042	0.000028	0.000033	-28.775090	-85.583499	24.884475
03546	9.886175	-0.368538	0.686451	-0.016917	0.000587	0.104127	1.000000	0.000032	0.000021	0.000042	-28.784822	-85.583858	24.894503
03547	9.904579	-0.378992	0.674542	-0.004357	-0.010144	0.122060	1.000000	0.000047	0.000044	0.000026	-28.756035	-85.582733	24.867702
03548	9.880854	-0.355138	0.668736	0.001361	0.012222	0.097129	1.000000	0.000038	0.000011	0.000026	-28.750557	-85.584916	24.863126
03549	9.909172	-0.334265	0.646503	0.026780	0.032513	0.123087	1.000000	0.000026	0.000030	0.000058	-28.774393	-85.583275	24.886162
03550	9.906200	-0.368779	0.716511	-0.045377	0.003027	0.126131	1.000000	0.000024	0.000025	0.000037	-28.775244	-85.583487	24.886315
03551	9.916046	-0.338031	0.706890	-0.033141	0.033402	0.134157	1.000000	0.000019	0.000021	0.000042	-28.786254	-85.583773	24.895868
03552	9.904259	-0.382685	0.677148	-0.007320	-0.013482	0.122055	1.000000	0.000032	0.000033	0.000041	-28.785144	-85.582995	24.895044
03553	9.880540	-0.359013	0.671301	-0.001591	0.008893	0.097133	1.000000	0.000020	0.000021	0.000029	-28.778866	-85.584108	24.888222
03554	9.867187	-0.364247	0.703416	-0.034805	0.005348	0.086181	1.000000	0.000024	0.000037	0.000035	-28.768880	-85.583184	24.877529
03555	9.919183	-0.367560	0.687500	-0.015754	0.002576	0.137071	1.000000	0.000020	-0.000004	0.000032	-28.783857	-85.586544	24.891946
03556	9.890736	-0.389963	0.710514	-0.042334	-0.019031	0.111093	1.000000	0.000036	0.000037	0.000049	-28.790111	-85.584880	24.898943
03557	9.895409	-0.344850	0.682044	-0.010608	0.024292	0.112157	1.000000	0.000032	0.000021	0.000042	-28.800364	-85.585208	24.909420
03558	9.900525	-0.360065	0.701479	-0.030685	0.010666	0.119133	1.000000	0.000037	0.000024	0.000037	-28.800760	-85.585469	24.910638
03559	9.885361	-0.377770	0.693125	-0.024628	-0.008063	0.104107	1.000000	0.000024	0.000025	0.000037	-28.801152	-85.585578	24.910162
03560	9.880131	-0.364090	0.674589	-0.005743	0.004225	0.097134	1.000000	0.000027	0.000017	0.000047	-28.820206	-85.586043	24.928986
03561	9.913648	-0.357730	0.671328	0.000173	0.011529	0.130096	1.000000	0.000037	0.000024	0.000037	-28.820563	-85.586186	24.929581
03562	9.895113	-0.348738	0.684356	-0.013553	0.020959	0.112161	1.000000	0.000031	0.000021	0.000055	-28.846976	-85.585764	24.956220
03563	9.918676	-0.373929	0.691373	-0.020497	-0.002758	0.137063	1.000000	0.000037	0.000036	0.000036	-28.836615	-85.584798	24.946244
03564	9.913460	-0.360124	0.672828	-0.001609	0.009525	0.130098	1.000000	0.000015	0.000005	0.000035	-28.850288	-85.587143	24.958246
03565	9.913415	-0.360856	0.673097	-0.002176	0.008842	0.130098	1.000000	0.000032	0.000021	0.000042	-28.858189	-85.587376	24.966859
03566	9.894886	-0.351730	0.686116	-0.015896	0.018279	0.112163	1.000000	0.000024	0.000025	0.000037	-28.859019	-85.587595	24.966992
03567	9.893023	-0.364874	0.646325	0.022787	0.002386	0.108111	1.000000	0.000019	0.000034	0.000040	-28.856768	-85.586604	24.963301
03568	9.918369	-0.377670	0.693742	-0.023430	-0.006126	0.137055	1.000000	0.000023	0.000026	0.000050	-28.874276	-85.586036	24.980042
03569	9.913150	-0.363977	0.675317	-0.004536	0.006157	0.130100	1.000000	0.000042	0.000028	0.000033	-28.865626	-85.586193	24.973033
03570	9.882857	-0.398759	0.658148	0.008131	-0.030627	0.100033	1.000000	0.000023	0.000026	0.000050	-28.883128	-85.585625	24.989767
03571	9.845856	-0.379746	0.683704	-0.018665	-0.011052	0.064158	1.000000	0.000007	0.000021	0.000028	-28.876636	-85.586517	24.979726
03572	9.918128	-0.380575	0.695590	-0.025802	-0.008793	0.137047	1.000000	0.000041	0.000003	0.000036	-28.889451	-85.588956	24.993910
03573	9.892665	-0.369436	0.649197	0.019250	-0.001619	0.108119	1.000000	0.000023	0.000038	0.000048	-28.895859	-85.587119	24.998885
03574	9.897727	-0.384744	0.668899	-0.000848	-0.015235	0.115063	1.000000	0.000032	0.000033	0.000040	-28.894691	-85.586352	24.998004
03575	9.931252	-0.378279	0.665772	0.005045	-0.007976	0.148036	1.000000	0.000033	0.000020	0.000029	-28.887240	-85.587411	24.990853
03576	9.867366	-0.420076	0.652236	0.011232	-0.052680	0.084984	1.000000	0.000041	0.000028	0.000046	-28.894964	-85.586792	24.999857
03577	9.910871	-0.382281	0.638986	0.029976	-0.014429	0.126060	1.000000	0.000037	0.000024	0.000037	-28.895525	-85.587065	25.001767
03578	9.907476	-0.355963	0.660754	0.009646	0.013084	0.123163	1.000000	0.000038	0.000011	0.000026	-28.890115	-85.589259	24.997260
03579	9.941011	-0.349430	0.657586	0.015528	0.020339	0.156143	1.000000	0.000024	0.000037	0.000035	-28.880257	-85.588260	24.986313
03580	9.888875	-0.347418	0.674538	-0.004635	0.021888	0.105228	1.000000	0.000036	0.000037	0.000049	-28.886422	-85.586607	24.993222
03581	9.907271	-0.358075	0.662682	0.007893	0.011082	0.123167	1.000000	0.000042	0.000028	0.000033	-28.876722	-85.586622	24.984407
03582	9.892093	-0.375586	0.654365	0.013924	-0.007638	0.108125	1.000000	0.000025	0.000024	0.000024	-28.860850	-85.587633	24.967909
03583	9.868442	-0.351869	0.648438	0.019777	0.014774	0.083262	1.000000	0.000028	0.000029	0.000045	-28.868089	-85.586798	24.974352
03584	9.860141	-0.371631	0.699622	-0.032934	-0.001624	0.079172	1.000000	0.000024	0.000037	0.000035	-28.858008	-85.585887	24.963565
03585	9.910365	-0.387508	0.643655	0.025258	-0.019786	0.126063	1.000000	0.000033	0.000020	0.000029	-28.851331	-85.586974	24.956926
03586	9.906960	-0.361148	0.665652	0.004944	0.007739	0.123172	1.000000	0.000029	0.000041	0.000030	-28.831923	-85.585963	24.937339
03587	9.930480	-0.386071	0.672763	-0.002103	-0.016012	0.148028	1.000000	0.000020	0.000021	0.000029	-28.826259	-85.587151	24.931203
03588	9.873234	-0.369408	0.670602	-0.002725	-0.001490	0.090187	1.000000	0.000033	0.000045	0.000039	-28.814206	-85.585254	24.919430
03589	9.891642	-0.379920	0.658673	0.009769	-0.012308	0.108125	1.000000	0.000038	0.000011	0.000026	-28.808782	-85.587390	24.914817
03590	9.874879	-0.358227	0.712059	-0.043137	0.012449	0.094208	1.000000	0.000023	0.000038	0.000048	-28.815379	-85.585695	24.920638
03591	9.893266	-0.368989	0.700267	-0.030640	0.001626	0.112145	1.000000	0.000032	0.000033	0.000040	-28.813824	-85.584852	24.919314
03592	9.854497	-0.362374	0.685462	-0.018165	0.006006	0.072246	1.000000	0.000032	0.000021	0.000042	-28.823508	-85.585228	24.929294
03593	9.908262	-0.353591	0.710187	-0.038456	0.018350	0.127193	1.000000	0.000028	0.000029	0.000045	-28.832474	-85.584497	24.937352
03594	9.869489	-0.347010	0.695462	-0.025975	0.022733	0.087298	1.000000	0.000019	0.000033	0.000040	-28.831707	-85.583690	24.935353
03595	9.867670	-0.360221	0.655561	0.012669	0.006784	0.083283	1.000000	0.000050	0.000011	0.000039	-28.841885	-85.585072	24.948036
03596	9.901208	-0.353986	0.652426	0.018517	0.013988	0.116278	1.000000	0.000023	0.000038	0.000048	-28.848449	-85.583379	24.953825
03597	9.906229	-0.369296	0.672035	-0.001606	0.000406	0.123176	1.000000	0.000019	0.000021	0.000042	-28.859514	-85.583650	24.963078
03598	9.906170	-0.370035	0.672503	-0.002205	-0.000264	0.123176	1.000000	0.000050	0.000023	0.000038	-28.859452	-85.583978	24.965360
03599	9.916172	-0.339179	0.662722	0.010118	0.030036	0.131341	1.000000	0.000025	0.000012	0.000025	-28.854303	-85.586036	24.959336
03600	9.867385	-0.363837	0.657850	0.009708	0.003463	0.083288	1.000000	0.000032	0.000021	0.000042	-28.863985	-85.586415	24.969313
03601	9.906009	-0.372017	0.673778	-0.003971	-0.002265	0.123175	1.000000	0.000019	0.000033	0.000040	-28.863008	-85.585519	24.966824
03602	9.905944	-0.372891	0.674254	-0.004570	-0.002935	0.123175	1.000000	0.000036	0.000013	0.000052	-28.890917	-85.586147	24.995493
03603	9.890738	-0.390794	0.665837	0.001475	-0.021639	0.108114	1.000000	0.000028	0.000029	0.000045	-28.898653	-85.585376	25.002604
03604	9.887345	-0.364588	0.687772	-0.018803	0.005915	0.105234	1.000000	0.000015	0.000029	0.000032	-28.890520	-85.585459	24.992783
03605	9.900674	-0.360699	0.656848	0.013215	0.007976	0.116293	1.000000	0.000042	0.000028	0.000033	-28.880639	-85.585531	24.984225
03606	9.905701	-0.375718	0.676249	-0.006923	-0.005614	0.123172	1.000000	0.000020	0.000008	0.000030	-28.884975	-85.587783	24.987414
03607	9.892248	-0.381041	0.708150	-0.040082	-0.009020	0.112107	1.000000	0.000026	0.000030	0.000058	-28.908023	-85.586198	25.010269
03608	9.905568	-0.377419	0.677241	-0.008090	-0.006963	0.123170	1.000000	0.000029	0.000028	0.000032	-28.899464	-85.586333	25.001542
03609	9.903760	-0.390618	0.637391	0.030545	-0.022942	0.119173	1.000000	0.000032	0.000020	0.000042	-28.908772	-85.586597	25.010773
03610	9.880163	-0.366988	0.631397	0.036445	-0.000499	0.094363	1.000000	0.000032	0.000033	0.000040	-28.907536	-85.585846	25.009826
03611	9.876775	-0.340848	0.653358	0.016196	0.027067	0.091491	1.000000	0.000028	0.000029	0.000045	-28.915450	-85.585112	25.017288
03612	9.918702	-0.375953	0.648021	0.022137	-0.006921	0.134241	1.000000	0.000029	0.000028	0.000032	-28.906888	-85.585248	25.008558
03613	9.905222	-0.381177	0.680198	-0.011036	-0.010299	0.123165	1.000000	0.000023	0.000038	0.000048	-28.913162	-85.583467	25.013779
03614	9.884954	-0.384360	0.652862	0.014536	-0.016086	0.101232	1.000000	0.000043	0.000015	0.000021	-28.898452	-85.585574	25.000499
03615	9.881585	-0.357965	0.674683	-0.005703	0.011484	0.098361	1.000000	0.000032	0.000033	0.000040	-28.896740	-85.584732	24.998958
03616	9.923499	-0.392981	0.669439	0.000218	-0.022517	0.141101	1.000000	0.000033	0.000032	0.000027	-28.878852	-85.584771	24.981431
03617	9.886492	-0.373724	0.695085	-0.026437	-0.002777	0.105218	1.000000	0.000036	0.000037	0.000049	-28.883609	-85.583104	24.987785
03618	9.881371	-0.360092	0.676680	-0.007480	0.009466	0.098362	1.000000	0.000037	0.000024	0.000037	-28.883945	-85.583391	24.988945
03619	9.876272	-0.346273	0.658105	0.011496	0.021720	0.091511	1.000000	0.000020	0.000021	0.000028	-28.877653	-85.584396	24.980772
03620	9.909838	-0.339854	0.654993	0.017310	0.028859	0.124529	1.000000	0.000029	0.000028	0.000032	-28.869077	-85.584534	24.972029
03621	9.918129	-0.381742	0.653378	0.016807	-0.012974	0.134245	1.000000	0.000038	0.000036	0.000023	-28.841217	-85.584453	24.945610
03622	9.881130	-0.362389	0.678965	-0.009843	0.006800	0.098362	1.000000	0.000014	0.000030	0.000045	-28.849689	-85.583755	24.952323
03623	9.881057	-0.363197	0.679599	-0.010427	0.006133	0.098362	1.000000	0.000032	0.000033	0.000040	-28.848090	-85.582940	24.951008
03624	9.891053	-0.392853	0.718313	-0.050149	-0.020347	0.112045	1.000000	0.000028	0.000029	0.000045	-28.856149	-85.582294	24.958829
03625	9.880917	-0.364775	0.680781	-0.011596	0.004790	0.098362	1.000000	0.000024	0.000025	0.000037	-28.855638	-85.582417	24.957702
03626	9.901045	-0.362870	0.709216	-0.038376	0.009242	0.120278	1.000000	0.000042	0.000028	0.000032	-28.846653	-85.582609	24.950069
03627	9.885816	-0.380461	0.701030	-0.032350	-0.009448	0.105196	1.000000	0.000024	0.000037	0.000035	-28.836380	-85.581684	24.939287
03628	9.914359	-0.359730	0.678806	-0.006984	0.010576	0.131383	1.000000	0.000041	0.000003	0.000036	-28.849180	-85.584143	24.953452
03629	9.894116	-0.363064	0.651338	0.018624	0.004783	0.109471	1.000000	0.000023	0.000038	0.000048	-28.854788	-85.582359	24.958258
03630	9.870558	-0.339388	0.645405	0.024585	0.027252	0.084701	1.000000	0.000042	0.000028	0.000032	-28.845798	-85.582553	24.950621
03631	9.914161	-0.361995	0.680491	-0.008745	0.008566	0.131384	1.000000	0.000028	0.000029	0.000045	-28.853672	-85.581827	24.958027
03632	9.893921	-0.365283	0.653061	0.016845	0.002775	0.109475	1.000000	0.000028	0.000016	0.000034	-28.855979	-85.583103	24.960173
03633	9.880414	-0.370428	0.685022	-0.016326	-0.000541	0.098356	1.000000	0.000028	0.000029	0.000045	-28.864399	-85.582410	24.968109
03634	9.895512	-0.354232	0.694417	-0.023539	0.016811	0.113441	1.000000	0.000037	0.000024	0.000037	-28.864716	-85.582704	24.969251
03635	9.890435	-0.340584	0.675910	-0.004555	0.029036	0.106622	1.000000	0.000028	0.000029	0.000045	-28.872307	-85.582041	24.976957
03636	9.898664	-0.382875	0.674358	-0.005111	-0.012798	0.116295	1.000000	0.000023	0.000038	0.000048	-28.878739	-85.580365	24.982615
03637	9.875144	-0.358961	0.668153	0.000874	0.009693	0.091537	1.000000	0.000043	0.000002	0.000010	-28.858953	-85.584343	24.963907
03638	9.913747	-0.366858	0.683913	-0.012920	0.003892	0.131382	1.000000	0.000011	0.000026	0.000036	-28.860058	-85.584535	24.962798
03639	9.898524	-0.384536	0.675457	-0.006907	-0.014798	0.116292	1.000000	0.000024	0.000013	0.000038	-28.871536	-85.585943	24.974167
03640	9.895177	-0.358257	0.697122	-0.027116	0.012807	0.113438	1.000000	0.000024	0.000025	0.000037	-28.872245	-85.586188	24.974180
03641	9.896700	-0.398568	0.635978	0.031105	-0.031521	0.112334	1.000000	0.000032	0.000020	0.000042	-28.881161	-85.586475	24.983198
03642	9.900057	-0.374194	0.717077	-0.047874	-0.001422	0.120241	1.000000	0.000032	0.000020	0.000042	-28.890792	-85.586870	24.993124
03643	9.911747	-0.383121	0.645839	0.023280	-0.014847	0.127426	1.000000	0.000037	0.000036	0.000036	-28.880747	-85.586084	24.984238
03644	9.916661	-0.398322	0.665657	0.003093	-0.028409	0.134227	1.000000	0.000023	0.000038	0.000048	-28.887160	-85.584412	24.989880
03645	9.894835	-0.362042	0.700023	-0.030092	0.009475	0.113433	1.000000	0.000029	0.000028	0.000032	-28.878842	-85.584547	24.981453
03646	9.898067	-0.389596	0.679252	-0.011092	-0.019476	0.116280	1.000000	0.000046	0.000019	0.000029	-28.871444	-85.585783	24.975943
03647	9.908193	-0.358867	0.669569	0.001316	0.010770	0.124580	1.000000	0.000032	0.000033	0.000040	-28.870210	-85.584851	24.973807
03648	9.892951	-0.376543	0.661311	0.007330	-0.007911	0.109483	1.000000	0.000037	0.000024	0.000037	-28.870517	-85.585152	24.974938
03649	9.855966	-0.357078	0.686684	-0.019209	0.011981	0.073595	1.000000	0.000042	0.000028	0.000032	-28.861541	-85.585256	24.966864
03650	9.923180	-0.343989	0.680121	-0.007076	0.026776	0.139681	1.000000	0.000028	0.000029	0.000045	-28.869550	-85.584621	24.974634
03651	9.902963	-0.347235	0.652713	0.018552	0.020973	0.117796	1.000000	0.000020	0.000021	0.000028	-28.861801	-85.585674	24.965963
03652	9.879212	-0.383766	0.694942	-0.027599	-0.013191	0.098322	1.000000	0.000026	0.000030	0.000058	-28.886431	-85.584254	24.990283
03653	9.904525	-0.336308	0.694145	-0.019680	0.032133	0.121755	1.000000	0.000029	0.000028	0.000032	-28.612305	-85.580213	24.720520
03654	9.855640	-0.360789	0.689410	-0.020027	0.005746	0.073599	1.000000	0.000037	0.000024	0.000037	-28.612044	-85.580507	24.721083
03655	9.894202	-0.368956	0.705340	-0.033838	-0.000096	0.113426	1.000000	0.000028	0.000016	0.000034	-28.613705	-85.581692	24.722210
03656	9.907638	-0.365233	0.674319	-0.001862	0.001818	0.124586	1.000000	0.000015	0.000029	0.000032	-28.604919	-85.581778	24.711737
03657	9.907570	-0.365861	0.674985	-0.002444	0.001152	0.124585	1.000000	0.000037	0.000036	0.000035	-28.594065	-85.580853	24.701166
03658	9.905809	-0.379234	0.635329	0.036140	-0.014942	0.120639	1.000000	0.000028	0.000029	0.000045	-28.601545	-85.580214	24.708408
03659	9.897211	-0.398557	0.686475	-0.016632	-0.031085	0.116242	1.000000	0.000030	0.000028	0.000019	-28.575643	-85.581175	24.683449
03660	9.893866	-0.372262	0.708307	-0.036800	-0.003457	0.113414	1.000000	0.000013	0.000030	0.000058	-28.600164	-85.579704	24.706138
03661	9.887164	-0.371274	0.649328	0.021389	-0.006664	0.102703	1.000000	0.000051	0.000010	0.000026	-28.594279	-85.581936	24.702450
03662	9.892074	-0.386244	0.668787	0.001190	-0.020219	0.109469	1.000000	0.000024	0.000025	0.000037	-28.594393	-85.582179	24.701869
03663	9.888721	-0.360053	0.690736	-0.018958	0.007414	0.106645	1.000000	0.000032	0.000045	0.000052	-28.598054	-85.579453	24.705797
03664	9.888640	-0.360832	0.691483	-0.019550	0.006740	0.106644	1.000000	0.000042	0.000028	0.000032	-28.588490	-85.579652	24.697587
03665	9.907042	-0.371651	0.679554	-0.007176	-0.004244	0.124582	1.000000	0.000027	0.000017	0.000047	-28.606725	-85.580084	24.715534
03666	9.902035	-0.357997	0.660932	0.011840	0.007957	0.117825	1.000000	0.000029	0.000028	0.000032	-28.597539	-85.580229	24.706182
03667	9.906915	-0.373114	0.680609	-0.008360	-0.005599	0.124581	1.000000	0.000028	0.000029	0.000045	-28.604570	-85.579577	24.713679
03668	9.883432	-0.349513	0.674578	-0.002291	0.016920	0.099888	1.000000	0.000036	0.000037	0.000048	-28.610086	-85.577964	24.719944
03669	9.901832	-0.360199	0.662772	0.010079	0.005928	0.117829	1.000000	0.000021	0.000020	0.000015	-28.586085	-85.579789	24.694697
03670	9.921919	-0.358173	0.691118	-0.016736	0.010371	0.139700	1.000000	0.000045	0.000020	0.000042	-28.594718	-85.580245	24.705144
03671	9.935389	-0.354537	0.660062	0.015237	0.012253	0.150893	1.000000	0.000020	0.000020	0.000028	-28.588123	-85.581316	24.696874
03672	9.901673	-0.362026	0.664149	0.008304	0.003911	0.117831	1.000000	0.000032	0.000032	0.000040	-28.586284	-85.580583	24.695326
03673	9.886403	-0.379674	0.656018	0.014324	-0.014749	0.102707	1.000000	0.000024	0.000037	0.000035	-28.575720	-85.579637	24.683842
03674	9.909726	-0.404842	0.663366	0.007049	-0.038627	0.127387	1.000000	0.000024	0.000025	0.000037	-28.575814	-85.579884	24.683240
03675	9.883006	-0.353978	0.678482	-0.006389	0.012228	0.099893	1.000000	0.000037	0.000036	0.000035	-28.564391	-85.578951	24.672376
03676	9.889462	-0.408692	0.636718	0.032101	-0.045097	0.105519	1.000000	0.000029	0.000028	0.000032	-28.555192	-85.579099	24.663012
03677	9.901324	-0.365371	0.667518	0.005366	0.000543	0.117834	1.000000	0.000006	0.000046	0.000038	-28.543263	-85.577099	24.648623
03678	9.890972	-0.397455	0.678454	-0.008249	-0.030988	0.109437	1.000000	0.000032	0.000020	0.000042	-28.552260	-85.577503	24.657914
03679	9.901192	-0.366868	0.668654	0.004176	-0.000797	0.117835	1.000000	0.000037	0.000024	0.000037	-28.552870	-85.577792	24.659049
03680	9.885925	-0.384619	0.660321	0.010186	-0.019459	0.102704	1.000000	0.000036	0.000025	0.000050	-28.569220	-85.577319	24.676150
03681	9.887511	-0.372794	0.701220	-0.029551	-0.004659	0.106620	1.000000	0.000032	0.000032	0.000040	-28.567296	-85.576481	24.674037
03682	9.882536	-0.358994	0.682686	-0.010513	0.007532	0.099895	1.000000	0.000051	0.000022	0.000024	-28.549995	-85.577622	24.659155
03683	9.885730	-0.386583	0.662098	0.008427	-0.021471	0.102702	1.000000	0.000037	0.000036	0.000035	-28.539149	-85.576746	24.648978
03684	9.872591	-0.331488	0.645660	0.027575	0.031915	0.086455	1.000000	0.000019	0.000021	0.000041	-28.548507	-85.577096	24.657110
03685	9.897553	-0.344003	0.693221	-0.018873	0.023511	0.115029	1.000000	0.000029	0.000028	0.000032	-28.539570	-85.577157	24.647455
03686	9.882280	-0.361607	0.685007	-0.012863	0.004854	0.099894	1.000000	0.000032	0.000032	0.000040	-28.537716	-85.576431	24.645894
03687	9.905568	-0.386919	0.692396	-0.020169	-0.019037	0.124547	1.000000	0.000014	0.000030	0.000044	-28.545458	-85.575714	24.652088
03688	9.858795	-0.338609	0.679261	-0.007320	0.026729	0.075240	1.000000	0.000033	0.000007	0.000030	-28.548648	-85.578034	24.655648
03689	9.905458	-0.388283	0.693202	-0.021344	-0.020383	0.124542	1.000000	0.000032	0.000032	0.000040	-28.546532	-85.577218	24.653628
03690	9.877139	-0.350213	0.667830	0.004429	0.015022	0.093184	1.000000	0.000027	0.000017	0.000047	-28.564795	-85.577727	24.671655
03691	9.897179	-0.348323	0.696400	-0.022405	0.019475	0.115030	1.000000	0.000047	0.000043	0.000026	-28.535385	-85.576699	24.644344
03692	9.881887	-0.366034	0.688313	-0.016397	0.000822	0.099889	1.000000	0.000013	0.000030	0.000057	-28.559792	-85.575240	24.666919
03693	9.876937	-0.352357	0.669701	0.002660	0.013002	0.093187	1.000000	0.000021	0.000020	0.000015	-28.535618	-85.577128	24.642125
03694	9.910567	-0.346024	0.666563	0.008374	0.019933	0.126272	1.000000	0.000028	0.000016	0.000034	-28.537240	-85.578416	24.643585
03695	9.868157	-0.372060	0.721079	-0.050705	-0.003672	0.088642	1.000000	0.000024	0.000025	0.000037	-28.537228	-85.578576	24.642504
03696	9.900126	-0.378625	0.677814	-0.005845	-0.012244	0.117826	1.000000	0.000029	0.000028	0.000032	-28.528002	-85.578732	24.633113
03697	9.884849	-0.396194	0.669522	0.000171	-0.030900	0.102681	1.000000	0.000024	0.000025	0.000037	-28.527395	-85.578938	24.632298
03698	9.876665	-0.355437	0.672077	-0.000271	0.009634	0.093192	1.000000	0.000024	0.000025	0.000037	-28.527448	-85.579194	24.631656
03699	9.899949	-0.380564	0.679319	-0.007599	-0.014271	0.117823	1.000000	0.000046	0.000019	0.000029	-28.519096	-85.580340	24.624955
03700	9.879813	-0.383608	0.651686	0.018057	-0.020071	0.095987	1.000000	0.000038	0.000011	0.000026	-28.512983	-85.582564	24.619743
03701	9.899848	-0.381834	0.680071	-0.008782	-0.015608	0.117820	1.000000	0.000026	0.000029	0.000058	-28.537701	-85.581104	24.643590
03702	9.913353	-0.378510	0.649281	0.023170	-0.013825	0.129077	1.000000	0.000037	0.000036	0.000035	-28.526532	-85.580286	24.633244
03703	9.928506	-0.362210	0.658775	0.015993	0.003470	0.144227	1.000000	0.000029	0.000028	0.000032	-28.516872	-85.580358	24.623412
03704	9.909983	-0.352764	0.671687	0.002510	0.013186	0.126286	1.000000	0.000041	0.000028	0.000045	-28.523912	-85.579798	24.631734
03705	9.905047	-0.339248	0.653141	0.021599	0.025364	0.119610	1.000000	0.000028	0.000029	0.000045	-28.531211	-85.579032	24.638013
03706	9.909850	-0.354429	0.672781	0.001347	0.011842	0.126288	1.000000	0.000032	0.000020	0.000042	-28.540173	-85.579447	24.647270
03707	9.903294	-0.353522	0.613940	0.059549	0.008481	0.115733	1.000000	0.000024	0.000037	0.000035	-28.529291	-85.578618	24.636557
03708	9.938527	-0.334831	0.651487	0.026101	0.030897	0.152715	1.000000	0.000036	0.000037	0.000048	-28.534746	-85.577026	24.642763
03709	9.871079	-0.349033	0.659372	0.012972	0.015091	0.086525	1.000000	0.000029	0.000053	0.000028	-28.503039	-85.574744	24.610278
03710	9.894311	-0.374258	0.667015	0.005595	-0.008831	0.111136	1.000000	0.000028	0.000029	0.000045	-28.510417	-85.574128	24.617418
03711	9.886155	-0.333554	0.669692	0.005199	0.031716	0.101685	1.000000	0.000024	0.000037	0.000035	-28.499914	-85.573216	24.606058
03712	9.828419	-0.376410	0.715562	-0.047284	-0.009752	0.048814	1.000000	0.000024	0.000025	0.000037	-28.499942	-85.573477	24.605391
03713	9.932642	-0.384056	0.684437	-0.009565	-0.016129	0.150895	1.000000	0.000019	0.000021	0.000041	-28.509431	-85.573780	24.613429
03714	9.853901	-0.329720	0.715091	-0.041976	0.037689	0.072466	1.000000	0.000032	0.000032	0.000040	-28.507533	-85.573067	24.611825
03715	9.910110	-0.460821	0.666031	0.002224	-0.094621	0.130012	1.000000	0.000037	0.000036	0.000035	-28.497168	-85.572225	24.601867
03716	9.891604	-0.398426	0.780468	-0.108974	-0.025403	0.117025	1.000000	0.000004	0.000004	0.000008	-28.477060	-85.576086	24.578704
03717	9.913946	-0.376170	0.698906	-0.024812	-0.008399	0.132945	1.000000	0.000059	0.000043	0.000039	-28.463892	-85.574315	24.568740
03718	9.886629	-0.437880	0.660850	0.007238	-0.073387	0.105400	1.000000	0.000028	0.000029	0.000045	-28.471262	-85.573703	24.575872
03719	9.744465	-0.311493	0.730322	-0.063489	0.052966	-0.036279	1.000000	0.000032	0.000020	0.000042	-28.479928	-85.574062	24.584926
03720	9.908904	-0.364136	0.681465	-0.006909	0.002411	0.126292	1.000000	0.000050	0.000023	0.000037	-28.479243	-85.574444	24.586586
03721	9.996298	-0.401534	0.601272	0.076464	-0.037565	0.209362	1.000000	0.000019	0.000021	0.000041	-28.489382	-85.574812	24.595415
03722	9.908773	-0.365673	0.682556	-0.008102	0.001070	0.126292	1.000000	0.000028	0.000041	0.000043	-28.485901	-85.573069	24.591696
03723	9.903878	-0.351885	0.664091	0.010970	0.013224	0.119651	1.000000	0.000069	0.000025	0.000020	-28.459315	-85.574265	24.570423
03724	9.873330	-0.386584	0.647102	0.023563	-0.023372	0.089319	1.000000	-0.000006	0.000040	0.000073	-28.499008	-85.570951	24.606158
03725	9.934205	-0.319810	0.683020	-0.003390	0.047802	0.149990	1.000000	0.000021	0.000020	0.000015	-28.475641	-85.572783	24.581075
03726	9.785757	-0.350941	0.728754	-0.061550	0.014655	0.006237	1.000000	0.000052	0.000022	0.000011	-28.441721	-85.574718	24.549650
03727	9.869959	-0.360932	0.669662	0.002350	0.003018	0.086544	1.000000	0.000015	0.000017	0.000033	-28.443931	-85.575955	24.550370
03728	9.851450	-0.351426	0.682337	-0.011088	0.012787	0.068602	1.000000	0.000019	0.000021	0.000041	-28.453202	-85.576320	24.558413
03729	9.893124	-0.386761	0.677412	-0.005672	-0.021597	0.111116	1.000000	0.000043	0.000027	0.000019	-28.427106	-85.577297	24.533844
03730	9.929987	-0.407729	0.653254	0.019420	-0.043165	0.147001	1.000000	0.000010	0.000013	0.000038	-28.438285	-85.578636	24.542807
03731	9.889797	-0.360854	0.699449	-0.026306	0.005462	0.108341	1.000000	0.000024	0.000037	0.000035	-28.428132	-85.577825	24.532370
03732	9.925033	-0.394770	0.635428	0.037903	-0.031693	0.140375	1.000000	0.000046	0.000044	0.000039	-28.415040	-85.576048	24.521093
03733	9.963477	-0.403026	0.651719	0.023874	-0.037693	0.180113	1.000000	0.000011	0.000013	0.000025	-28.409273	-85.578096	24.513256
03734	9.918499	-0.341725	0.678563	-0.002133	0.023765	0.134839	1.000000	0.000045	0.000019	0.000042	-28.417853	-85.578584	24.523650
03735	9.879933	-0.334768	0.663420	0.010730	0.028418	0.095105	1.000000	0.000051	0.000035	0.000036	-28.406409	-85.577799	24.514552
03736	9.887882	-0.376907	0.662098	0.009867	-0.013488	0.104488	1.000000	0.000024	0.000025	0.000037	-28.406393	-85.578067	24.513842
03737	9.898263	-0.346486	0.652265	0.022389	0.016618	0.113054	1.000000	0.000023	0.000025	0.000050	-28.423430	-85.577499	24.529718
03738	9.869289	-0.368278	0.675500	-0.004142	-0.004366	0.086543	1.000000	0.000064	0.000034	0.000036	-28.411557	-85.576819	24.521713
03739	9.874011	-0.383354	0.695331	-0.024421	-0.017854	0.093150	1.000000	0.000014	0.000030	0.000044	-28.419091	-85.576080	24.527358
03740	9.894871	-0.321734	0.674903	0.001209	0.043008	0.110297	1.000000	0.000032	-0.000004	0.000045	-28.449693	-85.578775	24.558252
03741	9.913271	-0.332756	0.663049	0.013452	0.031865	0.128244	1.000000	0.000046	0.000044	0.000039	-28.436352	-85.576956	24.546871
03742	9.902746	-0.364659	0.674019	-0.000255	0.000423	0.119666	1.000000	0.000015	0.000017	0.000033	-28.438241	-85.578199	24.547076
03743	9.882649	-0.367976	0.646492	0.025453	-0.005385	0.097884	1.000000	0.000001	0.000030	0.000044	-28.446002	-85.577431	24.551699
03744	9.917877	-0.349201	0.683821	-0.008022	0.017019	0.134849	1.000000	0.000046	0.000019	0.000029	-28.437952	-85.578698	24.545539
03745	9.890515	-0.410730	0.645655	0.023971	-0.047967	0.107242	1.000000	0.000037	0.000036	0.000035	-28.426997	-85.577856	24.535249
03746	9.892019	-0.398605	0.686622	-0.015736	-0.033032	0.111074	1.000000	0.000032	0.000032	0.000040	-28.425054	-85.577157	24.533600
03747	9.912894	-0.336853	0.666613	0.009929	0.027813	0.128260	1.000000	0.000024	0.000037	0.000035	-28.413896	-85.576201	24.521533
03748	9.925581	-0.393381	0.684474	-0.010685	-0.026915	0.144198	1.000000	0.000045	0.000019	0.000042	-28.422462	-85.576697	24.531913
03749	9.900706	-0.382472	0.637876	0.034720	-0.019907	0.115834	1.000000	0.000010	0.000038	0.000047	-28.429280	-85.575032	24.536549
03750	9.888531	-0.374525	0.710085	-0.037505	-0.007287	0.108304	1.000000	0.000037	0.000011	0.000039	-28.439760	-85.576499	24.547854
03751	9.883707	-0.360798	0.691353	-0.018374	0.004859	0.101719	1.000000	0.000034	0.000032	0.000027	-28.421504	-85.576498	24.529531
03752	9.882069	-0.374351	0.651674	0.020141	-0.011439	0.097892	1.000000	0.000023	0.000025	0.000049	-28.438080	-85.575999	24.545337
03753	9.869873	-0.366498	0.724004	-0.052056	0.001205	0.090351	1.000000	0.000023	0.000037	0.000048	-28.443491	-85.574235	24.549499
03754	9.863473	-0.365728	0.665138	0.006175	-0.002289	0.079948	1.000000	0.000033	0.000019	0.000029	-28.435775	-85.575445	24.542151
03755	9.886627	-0.391009	0.672578	-0.001328	-0.026256	0.104467	1.000000	0.000028	0.000029	0.000045	-28.443490	-85.574789	24.549257
03756	9.901835	-0.374875	0.681746	-0.008507	-0.008991	0.119659	1.000000	0.000015	0.000005	0.000035	-28.456219	-85.577166	24.560301
03757	9.930733	-0.354626	0.659633	0.016832	0.010586	0.146225	1.000000	0.000046	0.000044	0.000039	-28.443700	-85.575377	24.549365
03758	9.896947	-0.361930	0.663749	0.010027	0.002472	0.113088	1.000000	0.000037	0.000024	0.000037	-28.443326	-85.575716	24.549818
03759	9.920093	-0.387269	0.671164	0.002518	-0.021511	0.137600	1.000000	0.000019	0.000021	0.000041	-28.452125	-85.576014	24.557410
03760	9.878372	-0.353099	0.677031	-0.003936	0.011628	0.095144	1.000000	0.000037	0.000036	0.000035	-28.440894	-85.575223	24.547007
03761	9.919963	-0.388575	0.672324	0.001340	-0.022862	0.137597	1.000000	0.000033	0.000019	0.000029	-28.432989	-85.576354	24.539321
03762	9.898263	-0.351750	0.706157	-0.031416	0.015421	0.116904	1.000000	0.000019	0.000033	0.000039	-28.431341	-85.575599	24.536448
03763	9.882938	-0.369365	0.697793	-0.025421	-0.003185	0.101704	1.000000	0.000050	0.000011	0.000039	-28.441596	-85.577107	24.549103
03764	9.881338	-0.382716	0.657867	0.013083	-0.019510	0.097891	1.000000	0.000021	0.000020	0.000015	-28.417569	-85.579031	24.524001
03765	9.887588	-0.384701	0.717738	-0.046327	-0.017321	0.108255	1.000000	0.000006	0.000022	0.000041	-28.427185	-85.579269	24.530608
03766	9.910206	-0.363162	0.636180	0.037838	-0.000643	0.124484	1.000000	0.000054	0.000027	0.000046	-28.433834	-85.578803	24.540060
03767	9.905408	-0.349608	0.617511	0.056981	0.011481	0.117936	1.000000	0.000037	0.000024	0.000037	-28.433842	-85.579114	24.540772
03768	9.901106	-0.382982	0.687809	-0.015594	-0.017059	0.119639	1.000000	0.000019	0.000021	0.000041	-28.443044	-85.579491	24.548746
03769	9.928481	-0.375701	0.625412	0.048820	-0.013192	0.142435	1.000000	0.000037	0.000024	0.000037	-28.443389	-85.579904	24.550311
03770	9.891522	-0.355728	0.650396	0.022676	0.007183	0.106547	1.000000	0.000029	0.000028	0.000032	-28.434051	-85.580087	24.540812
03771	9.896198	-0.370599	0.670098	0.002345	-0.006279	0.113091	1.000000	0.000020	0.000020	0.000028	-28.427135	-85.581226	24.532691
03772	9.896132	-0.371317	0.670680	0.001751	-0.006955	0.113090	1.000000	0.000036	0.000036	0.000048	-28.432497	-85.579668	24.538806
03773	9.906624	-0.340802	0.660778	0.014321	0.023098	0.121759	1.000000	0.000051	0.000010	0.000026	-28.426357	-85.581940	24.534924
