// Start Time: Unknown
// Update Rate: 100.0Hz
// Filter Profile: human (46.1)
// Firmware Version: 4.4.0
PacketCounter	Acc_X	Acc_Y	Acc_Z	FreeAcc_X	FreeAcc_Y	FreeAcc_Z	OriInc_q0	OriInc_q1	OriInc_q2	OriInc_q3	Roll	Pitch	Yaw
41240	9.525856	-0.341266	2.433446	-0.015253	0.043079	0.024892	1.000000	0.000028	0.000009	0.000019	-8.998103	-75.619734	1.391146
41241	9.535762	-0.370191	2.404330	0.011740	0.010726	0.028469	1.000000	0.000028	0.000014	0.000013	-8.999571	-75.617951	1.395955
41242	9.535697	-0.370356	2.404565	0.011827	0.010724	0.028469	1.000000	0.000028	0.000009	0.000019	-9.003869	-75.616124	1.403739
41243	9.569156	-0.365041	2.411012	0.014990	0.017098	0.062254	1.000000	0.000039	0.000025	0.000008	-9.001142	-75.613147	1.405581
41244	9.535557	-0.370529	2.405091	0.011821	0.010716	0.028469	1.000000	0.000024	-0.000009	0.000016	-9.006114	-75.613878	1.413509
41245	9.555732	-0.370469	2.391530	0.030018	0.009267	0.044680	1.000000	0.000031	0.000020	0.000017	-9.008660	-75.611316	1.419762
41246	9.515200	-0.371099	2.419292	-0.006400	0.012148	0.012257	1.000000	0.000018	0.000019	0.000010	-9.009188	-75.609166	1.422435
41247	9.551764	-0.389765	2.429805	-0.009474	-0.004559	0.050981	1.000000	0.000019	0.000009	0.000022	-9.015925	-75.607796	1.431650
41248	9.515082	-0.371543	2.419689	-0.006413	0.012128	0.012257	1.000000	0.000026	0.000003	0.000015	-9.018772	-75.607333	1.437656
41249	9.548594	-0.366277	2.425922	-0.003250	0.018502	0.046043	1.000000	0.000038	0.000009	0.000016	-9.020812	-75.606055	1.444241
41250	9.555409	-0.371360	2.392683	0.029975	0.009188	0.044680	1.000000	0.000018	0.000014	0.000016	-9.023629	-75.604266	1.449395
41251	9.545390	-0.342811	2.422182	0.002982	0.041541	0.041104	1.000000	0.000016	0.000002	0.000017	-9.029285	-75.603675	1.457162
41252	9.535092	-0.372014	2.406706	0.011743	0.010550	0.028469	1.000000	0.000028	0.000014	0.000013	-9.028732	-75.602110	1.460011
41253	9.535007	-0.372017	2.407040	0.011743	0.010550	0.028469	1.000000	0.000037	0.000019	0.000004	-9.024923	-75.599913	1.460404
41254	9.517800	-0.396223	2.425153	-0.012750	-0.011189	0.017195	1.000000	0.000019	0.000009	0.000022	-9.029198	-75.598899	1.467233
41255	9.552008	-0.348301	2.389675	0.036118	0.032076	0.039743	1.000000	0.000028	0.000009	0.000019	-9.033582	-75.597575	1.475128
41256	9.537902	-0.396477	2.411843	0.005363	-0.012766	0.033407	1.000000	0.000028	0.000009	0.000019	-9.035033	-75.596759	1.480183
41257	9.534762	-0.372887	2.407878	0.011600	0.010316	0.028469	1.000000	0.000019	0.000009	0.000022	-9.041761	-75.595388	1.489388
41258	9.548038	-0.367992	2.427850	-0.003537	0.018018	0.046043	1.000000	0.000028	0.000009	0.000019	-9.043409	-75.594679	1.494623
41259	9.544623	-0.402280	2.378878	0.038491	-0.022157	0.032045	1.000000	0.000020	0.000004	0.000028	-9.053060	-75.593768	1.506922
41260	9.547908	-0.368515	2.428281	-0.003681	0.017908	0.046044	1.000000	0.000039	0.000025	0.000008	-9.047847	-75.591648	1.506352
41261	9.514272	-0.373910	2.422508	-0.006843	0.011537	0.012258	1.000000	0.000025	0.000008	0.000009	-9.048230	-75.590643	1.509706
41262	9.554653	-0.373779	2.395326	0.029432	0.008488	0.044683	1.000000	0.000013	0.000010	0.000035	-9.057881	-75.589610	1.521485
41263	9.534349	-0.374301	2.409294	0.011236	0.009938	0.028470	1.000000	0.000027	0.000019	0.000007	-9.056412	-75.587364	1.523183
41264	9.537332	-0.398303	2.413796	0.004830	-0.013314	0.033406	1.000000	0.000031	0.000015	0.000023	-9.058001	-75.586263	1.528806
41265	9.570817	-0.393078	2.420143	0.007992	-0.006943	0.067193	1.000000	0.000025	0.000008	0.000009	-9.058377	-75.585252	1.532156
41266	9.534151	-0.374795	2.409999	0.010855	0.009639	0.028471	1.000000	0.000029	0.000004	0.000025	-9.062790	-75.585656	1.540339
41267	9.534097	-0.374915	2.410195	0.010856	0.009638	0.028471	1.000000	0.000047	0.000014	0.000007	-9.059555	-75.583963	1.542511
41268	9.534027	-0.374985	2.410461	0.010628	0.009481	0.028471	1.000000	-0.000004	0.000012	0.000011	-9.060514	-75.583713	1.543372
41269	9.530118	-0.394091	2.448412	-0.028841	-0.004330	0.034766	1.000000	0.000031	0.000020	0.000017	-9.063035	-75.581154	1.549601
41270	9.533851	-0.375374	2.411095	0.010488	0.009339	0.028472	1.000000	0.000051	0.000010	0.000023	-9.063501	-75.580434	1.556105
41271	9.567366	-0.370076	2.417343	0.013647	0.015709	0.062258	1.000000	0.000022	0.000001	0.000004	-9.062809	-75.580205	1.558018
41272	9.526850	-0.370568	2.444962	-0.022976	0.018427	0.029830	1.000000	0.000021	0.000025	0.000014	-9.060625	-75.578532	1.558446
41273	9.533650	-0.375723	2.411835	0.010254	0.009156	0.028472	1.000000	0.000028	0.000009	0.000019	-9.065003	-75.577211	1.566332
41274	9.553818	-0.375735	2.398348	0.028223	0.007491	0.044687	1.000000	0.000028	0.000009	0.000019	-9.064557	-75.577240	1.569433
41275	9.530454	-0.352388	2.408092	0.016265	0.032026	0.023539	1.000000	0.000022	0.000015	0.000026	-9.072358	-75.575103	1.580069
41276	9.540361	-0.381437	2.378991	0.042999	-0.000609	0.027116	1.000000	0.000035	0.000003	0.000012	-9.066903	-75.576158	1.579289
41277	9.546717	-0.371643	2.432484	-0.005272	0.016481	0.046045	1.000000	0.000006	0.000021	0.000036	-9.080445	-75.573154	1.593973
41278	9.540210	-0.382002	2.379506	0.042708	-0.000870	0.027117	1.000000	0.000031	0.000006	-0.000004	-9.068595	-75.574238	1.585511
41279	9.550405	-0.352989	2.395387	0.033905	0.030032	0.039757	1.000000	0.000021	0.000020	0.000020	-9.073473	-75.571650	1.593053
41280	9.546501	-0.372135	2.433256	-0.006030	0.015883	0.046046	1.000000	0.000016	0.000002	0.000017	-9.071512	-75.573830	1.594211
41281	9.546451	-0.372316	2.433427	-0.006036	0.015882	0.046046	1.000000	0.000028	0.000014	0.000013	-9.072949	-75.572085	1.598997
41282	9.550207	-0.353686	2.396075	0.033087	0.029363	0.039762	1.000000	0.000022	0.000015	0.000026	-9.073244	-75.571993	1.602491
41283	9.546267	-0.372792	2.434075	-0.006388	0.015550	0.046046	1.000000	0.000040	0.000020	0.000014	-9.073411	-75.569512	1.607406
41284	9.539771	-0.383160	2.381076	0.041684	-0.001871	0.027121	1.000000	0.000029	0.000004	0.000025	-9.073099	-75.569829	1.610293
41285	9.546126	-0.373308	2.434550	-0.006588	0.015217	0.046047	1.000000	-0.000001	0.000019	0.000015	-9.078656	-75.567451	1.615913
41286	9.546081	-0.373451	2.434704	-0.006895	0.014878	0.046047	1.000000	0.000032	-0.000004	0.000008	-9.070841	-75.569560	1.611751
41287	9.552934	-0.378572	2.401419	0.026337	0.005607	0.044694	1.000000	0.000021	0.000020	0.000020	-9.075721	-75.566942	1.619289
41288	9.529542	-0.355130	2.411298	0.014042	0.029795	0.023550	1.000000	0.000031	0.000020	0.000017	-9.070290	-75.566437	1.617624
41289	9.515329	-0.403174	2.433690	-0.016626	-0.014915	0.017184	1.000000	0.000028	0.000014	0.000013	-9.071764	-75.564643	1.622419
41290	9.545762	-0.374060	2.435861	-0.007608	0.014202	0.046047	1.000000	0.000038	0.000009	0.000016	-9.066460	-75.565587	1.621338
41291	9.529357	-0.355629	2.411955	0.013674	0.029472	0.023551	1.000000	0.000017	-0.000003	0.000023	-9.075064	-75.565447	1.632195
41292	9.542325	-0.408581	2.387011	0.034065	-0.026307	0.032051	1.000000	0.000028	0.000014	0.000013	-9.068866	-75.565815	1.628628
41293	9.552546	-0.379478	2.402820	0.025264	0.004595	0.044697	1.000000	0.000031	0.000006	-0.000004	-9.062992	-75.565177	1.626175
41294	9.512011	-0.379950	2.430435	-0.011455	0.007230	0.012257	1.000000	0.000025	0.000021	0.000030	-9.065561	-75.564278	1.631360
41295	9.565709	-0.374650	2.423186	0.009881	0.012133	0.062268	1.000000	0.000025	0.000008	0.000009	-9.066039	-75.563270	1.634750
41296	9.552303	-0.380135	2.403683	0.024484	0.004021	0.044699	1.000000	0.000015	0.000021	0.000033	-9.070622	-75.562915	1.641340
41297	9.535834	-0.361798	2.380039	0.045766	0.019295	0.022207	1.000000	0.000028	0.000014	0.000013	-9.072183	-75.561148	1.646173
41298	9.585679	-0.375213	2.410443	0.027335	0.010105	0.078491	1.000000	0.000028	0.000014	0.000013	-9.067422	-75.561081	1.644080
41299	9.531823	-0.380872	2.418241	0.006004	0.005214	0.028478	1.000000	0.000006	0.000012	0.000008	-9.069688	-75.559523	1.647003
41300	9.538693	-0.385880	2.384953	0.038997	-0.004252	0.027131	1.000000	0.000054	0.000003	0.000006	-9.061738	-75.560519	1.642792
41301	9.535577	-0.362280	2.380994	0.045243	0.018840	0.022210	1.000000	0.000006	0.000021	0.000036	-9.075452	-75.557478	1.657530
41302	9.548013	-0.400103	2.442834	-0.015703	-0.010506	0.050969	1.000000	0.000032	-0.000004	0.000008	-9.069219	-75.558847	1.654551
41303	9.562102	-0.352248	2.420981	0.014979	0.034208	0.057350	1.000000	0.000030	0.000025	0.000011	-9.069011	-75.555780	1.657756
41304	9.518163	-0.386829	2.399673	0.020228	-0.003352	0.010911	1.000000	0.000031	0.000015	0.000023	-9.067493	-75.556111	1.660652
41305	9.528379	-0.358091	2.415452	0.011435	0.027553	0.023560	1.000000	0.000029	0.000004	0.000025	-9.074962	-75.555199	1.671686
41306	9.551597	-0.382002	2.406192	0.022752	0.002702	0.044704	1.000000	0.000028	0.000014	0.000013	-9.069704	-75.557131	1.670328
41307	9.548508	-0.358329	2.402148	0.028999	0.025793	0.039785	1.000000	0.000016	0.000002	0.000017	-9.075519	-75.556521	1.678143
41308	9.544574	-0.377373	2.440002	-0.010670	0.011633	0.046048	1.000000	0.000041	0.000015	0.000020	-9.070539	-75.555626	1.679383
41309	9.548328	-0.358760	2.402797	0.028812	0.025449	0.039787	1.000000	0.000023	0.000031	0.000018	-9.073682	-75.551736	1.685301
41310	9.548226	-0.358897	2.403184	0.028247	0.025178	0.039789	1.000000	0.000025	0.000007	0.000009	-9.068175	-75.554083	1.682071
41311	9.551238	-0.382907	2.407470	0.022007	0.002101	0.044706	1.000000	0.000026	-0.000003	0.000021	-9.074556	-75.553973	1.691664
41312	9.530963	-0.383251	2.421255	0.003382	0.003288	0.028480	1.000000	0.000028	0.000014	0.000013	-9.069900	-75.554810	1.689735
41313	9.514546	-0.364809	2.397472	0.024678	0.018568	0.005998	1.000000	0.000019	0.000009	0.000022	-9.076781	-75.553418	1.698982
41314	9.551074	-0.383582	2.408014	0.021000	0.001596	0.044708	1.000000	0.000028	0.000009	0.000019	-9.076107	-75.555452	1.700517
41315	9.551024	-0.383765	2.408185	0.021000	0.001605	0.044708	1.000000	0.000016	0.000007	0.000011	-9.079036	-75.554395	1.705255
41316	9.527723	-0.360162	2.417729	0.008340	0.026043	0.023567	1.000000	0.000035	0.000003	0.000012	-9.078033	-75.558176	1.704814
41317	9.540970	-0.355115	2.437774	-0.006714	0.033868	0.041132	1.000000	0.000043	0.000021	0.000024	-9.082504	-75.555369	1.714379
41318	9.547837	-0.360287	2.404521	0.026262	0.024403	0.039796	1.000000	0.000032	-0.000004	0.000008	-9.078329	-75.557148	1.711107
41319	9.564148	-0.379089	2.428653	0.004962	0.009148	0.062275	1.000000	0.000009	0.000014	0.000018	-9.084805	-75.555278	1.718641
41320	9.530526	-0.384701	2.422745	0.001726	0.002579	0.028481	1.000000	0.000028	0.000009	0.000019	-9.084095	-75.554577	1.719225
41321	9.530433	-0.384842	2.423088	0.001729	0.002596	0.028481	1.000000	0.000030	0.000025	0.000011	-9.084078	-75.551539	1.722506
41322	9.534255	-0.366158	2.385690	0.040820	0.016162	0.022234	1.000000	0.000026	0.000002	0.000015	-9.082197	-75.553304	1.722745
41323	9.537222	-0.390089	2.390148	0.034571	-0.006904	0.027146	1.000000	0.000027	0.000019	0.000007	-9.081134	-75.551053	1.724601
41324	9.547419	-0.361225	2.406041	0.025163	0.023840	0.039801	1.000000	0.000022	0.000015	0.000026	-9.085877	-75.552505	1.729760
41325	9.547327	-0.361367	2.406383	0.025160	0.023860	0.039801	1.000000	0.000037	0.000019	0.000004	-9.082531	-75.550330	1.730338
41326	9.530061	-0.385440	2.424453	0.000184	0.002102	0.028481	1.000000	0.000026	-0.000003	0.000021	-9.085831	-75.553454	1.733944
41327	9.533916	-0.366839	2.386940	0.039661	0.015921	0.022239	1.000000	0.000018	0.000019	0.000010	-9.087212	-75.551191	1.737150
41328	9.529923	-0.385724	2.424950	0.000055	0.001978	0.028481	1.000000	0.000028	0.000014	0.000013	-9.085405	-75.550131	1.735432
41329	9.529874	-0.385855	2.425125	0.000054	0.002002	0.028481	1.000000	0.000026	0.000002	0.000015	-9.089273	-75.549591	1.742103
41330	9.560358	-0.356794	2.427196	0.009247	0.031208	0.057367	1.000000	0.000028	0.000014	0.000013	-9.085784	-75.548930	1.741049
41331	9.533674	-0.367338	2.387830	0.039350	0.015602	0.022241	1.000000	0.000016	0.000007	0.000011	-9.089072	-75.547867	1.745930
41332	9.520303	-0.372675	2.368257	0.054303	0.007521	0.004679	1.000000	0.000028	0.000014	0.000013	-9.084362	-75.546681	1.744505
41333	9.542988	-0.381037	2.445630	-0.015277	0.009381	0.046044	1.000000	0.000019	-0.000005	0.000000	-9.083173	-75.547204	1.745213
41334	9.513357	-0.367696	2.401743	0.021170	0.016727	0.006009	1.000000	0.000026	-0.000003	0.000021	-9.086934	-75.546588	1.748296
41335	9.583398	-0.381117	2.418571	0.021176	0.006352	0.078509	1.000000	0.000023	0.000031	0.000018	-9.090542	-75.542673	1.754392
41336	9.529499	-0.386668	2.426467	-0.000988	0.001514	0.028481	1.000000	0.000034	0.000008	0.000006	-9.089936	-75.546769	1.752021
41337	9.533341	-0.368014	2.389056	0.038502	0.015331	0.022245	1.000000	0.000021	0.000020	0.000020	-9.095502	-75.544133	1.759821
41338	9.529329	-0.386968	2.427088	-0.000884	0.001081	0.028482	1.000000	0.000028	0.000014	0.000013	-9.085975	-75.541810	1.758502
41339	9.549513	-0.386921	2.413665	0.017302	-0.000369	0.044715	1.000000	0.000025	0.000007	0.000009	-9.086976	-75.540740	1.762094
41340	9.533124	-0.368501	2.389846	0.037985	0.014803	0.022248	1.000000	0.000022	0.000015	0.000026	-9.093105	-75.542282	1.768580
41341	9.546367	-0.363502	2.409869	0.022940	0.022648	0.039809	1.000000	0.000025	0.000007	0.000009	-9.094150	-75.541236	1.772191
41342	9.549328	-0.387534	2.414299	0.016046	-0.000766	0.044717	1.000000	0.000019	0.000009	0.000022	-9.093513	-75.543632	1.777252
41343	9.515717	-0.393089	2.408340	0.012928	-0.007077	0.010921	1.000000	0.000038	0.000009	0.000016	-9.096166	-75.542341	1.784070
41344	9.553134	-0.369124	2.377028	0.055748	0.012838	0.038485	1.000000	0.000028	0.000014	0.000013	-9.092537	-75.539309	1.783529
41345	9.546138	-0.364098	2.410685	0.022532	0.022157	0.039811	1.000000	0.000025	0.000007	0.000009	-9.093520	-75.538245	1.787112
41346	9.562377	-0.382889	2.435021	0.000561	0.006825	0.062278	1.000000	0.000021	0.000020	0.000020	-9.097388	-75.539489	1.790897
41347	9.515465	-0.393620	2.409251	0.012502	-0.007300	0.010921	1.000000	0.000023	-0.000004	0.000010	-9.100272	-75.539685	1.796160
41348	9.545946	-0.364606	2.411367	0.021921	0.021915	0.039813	1.000000	0.000033	0.000026	0.000021	-9.099075	-75.536127	1.799121
41349	9.535553	-0.393818	2.396187	0.030724	-0.008955	0.027158	1.000000	0.000025	0.000007	0.000009	-9.100089	-75.535056	1.802714
41350	9.532471	-0.370179	2.392191	0.037074	0.013999	0.022252	1.000000	0.000012	0.000020	0.000023	-9.104243	-75.531870	1.806911
41351	9.535400	-0.394382	2.396703	0.030829	-0.009056	0.027157	1.000000	0.000029	0.000004	0.000025	-9.112165	-75.530898	1.818109
41352	9.548632	-0.389465	2.416740	0.013831	-0.001154	0.044721	1.000000	0.000021	0.000020	0.000020	-9.120551	-75.539706	1.825269
41353	9.532231	-0.371031	2.393013	0.035146	0.014141	0.022259	1.000000	0.000028	0.000014	0.000013	-9.122730	-75.537955	1.830342
41354	9.565709	-0.365867	2.399444	0.038382	0.020276	0.056056	1.000000	0.000018	0.000014	0.000016	-9.121727	-75.535414	1.832121
41355	9.532063	-0.371384	2.393629	0.035269	0.013970	0.022259	1.000000	0.000031	0.000020	0.000017	-9.124944	-75.532846	1.838608
41356	9.561578	-0.384928	2.437835	-0.001932	0.006377	0.062278	1.000000	0.000028	0.000014	0.000013	-9.123623	-75.535913	1.840907
41357	9.545236	-0.366492	2.413890	0.019384	0.021672	0.039819	1.000000	0.000026	-0.000003	0.000021	-9.130559	-75.535856	1.850723
41358	9.548175	-0.390662	2.418350	0.012518	-0.001445	0.044722	1.000000	0.000012	0.000020	0.000023	-9.137410	-75.536713	1.856490
41359	9.528787	-0.348383	2.390333	0.040100	0.036931	0.017362	1.000000	0.000037	0.000014	0.000010	-9.137275	-75.535036	1.860273
41360	9.527762	-0.390918	2.432600	-0.006735	0.000131	0.028479	1.000000	0.000024	0.000012	0.000003	-9.137030	-75.539886	1.858266
41361	9.531623	-0.372346	2.395229	0.032738	0.013942	0.022268	1.000000	0.000034	0.000021	0.000027	-9.144347	-75.537115	1.869330
41362	9.554796	-0.396357	2.386129	0.044114	-0.010880	0.043416	1.000000	0.000026	0.000002	0.000015	-9.142008	-75.539653	1.872917
41363	9.547780	-0.391386	2.419792	0.010867	-0.001545	0.044724	1.000000	0.000031	0.000020	0.000017	-9.145303	-75.537222	1.879447
41364	9.544729	-0.367615	2.415725	0.015591	0.021674	0.039825	1.000000	0.000022	0.000001	0.000004	-9.149137	-75.546059	1.880408
41365	9.544670	-0.367692	2.415946	0.015551	0.021710	0.039825	1.000000	0.000031	0.000020	0.000017	-9.152527	-75.543723	1.886988
41366	9.541597	-0.344093	2.411945	0.021286	0.044664	0.034927	1.000000	0.000019	0.000009	0.000022	-9.156730	-75.545521	1.893421
41367	9.531230	-0.373392	2.396631	0.030033	0.013800	0.022277	1.000000	0.000038	0.000009	0.000016	-9.159654	-75.544488	1.900373
41368	9.524213	-0.368360	2.430294	-0.003559	0.023268	0.023577	1.000000	0.000028	0.000014	0.000013	-9.165244	-75.544844	1.901215
41369	9.544391	-0.368387	2.416944	0.014557	0.021820	0.039827	1.000000	0.000028	0.000014	0.000013	-9.167666	-75.543305	1.906406
41370	9.528039	-0.349939	2.393087	0.034076	0.036951	0.017384	1.000000	0.000028	0.000009	0.000019	-9.170537	-75.552720	1.913900
41371	9.567526	-0.392508	2.407973	0.024549	-0.002834	0.060982	1.000000	0.000026	0.000002	0.000015	-9.174843	-75.552529	1.920782
41372	9.523982	-0.368950	2.431108	-0.006593	0.023564	0.023574	1.000000	0.000028	0.000014	0.000013	-9.185274	-75.557211	1.922579
41373	9.520931	-0.345318	2.427037	-0.000382	0.046688	0.018675	1.000000	0.000019	0.000009	0.000022	-9.193126	-75.556245	1.932255
41374	9.564375	-0.369196	2.404249	0.028667	0.020452	0.056089	1.000000	0.000025	0.000007	0.000009	-9.190194	-75.560984	1.933054
41375	9.530756	-0.374623	2.398323	0.025503	0.014164	0.022289	1.000000	0.000041	0.000015	0.000020	-9.194448	-75.559388	1.941567
41376	9.539998	-0.388215	2.456142	-0.030766	0.008209	0.046009	1.000000	0.000028	0.000014	0.000013	-9.196775	-75.567567	1.945099
41377	9.540910	-0.345937	2.414398	0.014928	0.045092	0.034936	1.000000	0.000022	0.000015	0.000026	-9.205742	-75.565967	1.956241
41378	9.533500	-0.399121	2.403468	0.017010	-0.008796	0.027191	1.000000	0.000038	0.000009	0.000016	-9.210431	-75.567110	1.958402
41379	9.550721	-0.375430	2.385719	0.041348	0.012836	0.038556	1.000000	0.000019	0.000009	0.000022	-9.218412	-75.566299	1.968148
41380	9.556959	-0.365300	2.439284	-0.007991	0.029691	0.057372	1.000000	0.000033	0.000026	0.000021	-9.215875	-75.569137	1.973938
41381	9.563814	-0.370796	2.406233	0.025121	0.020418	0.056099	1.000000	0.000032	0.000010	0.000029	-9.225483	-75.568104	1.986905
41382	9.533143	-0.400332	2.404680	0.015885	-0.008932	0.027193	1.000000	0.000012	0.000020	0.000023	-9.234049	-75.564667	1.990211
41383	9.530109	-0.376614	2.400583	0.022073	0.014195	0.022297	1.000000	0.000032	0.000001	0.000002	-9.232337	-75.565085	1.991419
41384	9.543357	-0.371455	2.420554	0.006875	0.022166	0.039834	1.000000	0.000031	0.000015	0.000023	-9.241280	-75.563684	1.996098
41385	9.529988	-0.376952	2.401008	0.021846	0.014388	0.022297	1.000000	0.000028	0.000009	0.000019	-9.247028	-75.562936	2.004584
41386	9.525932	-0.395726	2.438983	-0.017554	0.000596	0.028466	1.000000	0.000037	0.000014	0.000010	-9.244930	-75.560538	2.002999
41387	9.547149	-0.353236	2.383542	0.046304	0.035967	0.033666	1.000000	0.000038	0.000009	0.000016	-9.248371	-75.559814	2.010192
41388	9.546061	-0.395850	2.425842	0.000704	-0.000779	0.044730	1.000000	0.000028	0.000014	0.000013	-9.251302	-75.556765	2.009263
41389	9.529737	-0.377328	2.401946	0.021982	0.014517	0.022297	1.000000	0.000025	0.000007	0.000009	-9.253132	-75.556280	2.013242
41390	9.529679	-0.377650	2.402126	0.022338	0.014217	0.022297	1.000000	0.000013	0.000010	0.000035	-9.258803	-75.552472	2.023538
41391	9.542906	-0.372669	2.422146	0.007184	0.022109	0.039834	1.000000	0.000024	0.000012	0.000003	-9.257652	-75.551494	2.024390
41392	9.509290	-0.378091	2.416191	0.003000	0.015782	0.006033	1.000000	0.000019	0.000009	0.000022	-9.265463	-75.556634	2.031581
41393	9.563040	-0.372963	2.408974	0.024123	0.020669	0.056101	1.000000	0.000028	0.000014	0.000013	-9.268341	-75.555383	2.036978
41394	9.532374	-0.402211	2.407413	0.013978	-0.008421	0.027196	1.000000	0.000028	0.000014	0.000013	-9.277974	-75.558050	2.038578
41395	9.529342	-0.378633	2.403309	0.020185	0.014713	0.022300	1.000000	0.000010	0.000009	0.000024	-9.288560	-75.557179	2.049719
41396	9.562839	-0.373368	2.409709	0.022566	0.021618	0.056102	1.000000	0.000052	0.000012	-0.000006	-9.293265	-75.559820	2.042259
41397	9.529192	-0.378804	2.403876	0.019393	0.015354	0.022301	1.000000	0.000006	0.000021	0.000036	-9.308470	-75.557361	2.057609
41398	9.565651	-0.397677	2.414567	0.016549	-0.001404	0.060999	1.000000	0.000032	-0.000004	0.000008	-9.307583	-75.555291	2.056165
41399	9.555676	-0.368617	2.443808	-0.010442	0.031097	0.057366	1.000000	0.000027	0.000019	0.000007	-9.307846	-75.553599	2.058585
41400	9.542299	-0.373922	2.424343	0.003614	0.023461	0.039833	1.000000	0.000028	0.000014	0.000013	-9.315159	-75.557723	2.062034
41401	9.562480	-0.374083	2.411021	0.021649	0.022021	0.056104	1.000000	0.000031	0.000015	0.000023	-9.322432	-75.556205	2.072118
41402	9.528876	-0.379506	2.405018	0.017696	0.016014	0.022303	1.000000	0.000022	0.000001	0.000004	-9.330370	-75.561115	2.071607
41403	9.539175	-0.350560	2.420579	0.008840	0.047013	0.034935	1.000000	0.000019	0.000009	0.000022	-9.339031	-75.560361	2.081619
41404	9.542066	-0.374617	2.425152	0.001662	0.024430	0.039831	1.000000	0.000028	0.000014	0.000013	-9.352611	-75.563504	2.083151
41405	9.559315	-0.350820	2.407414	0.026012	0.046058	0.051207	1.000000	0.000025	0.000007	0.000009	-9.355106	-75.563163	2.087409
41406	9.562196	-0.374772	2.412041	0.019260	0.023001	0.056106	1.000000	0.000030	0.000020	0.000017	-9.358193	-75.563056	2.090372
41407	9.528575	-0.380225	2.406095	0.016077	0.016751	0.022305	1.000000	0.000026	0.000002	0.000015	-9.363658	-75.563178	2.097750
41408	9.541804	-0.375094	2.426107	0.001547	0.024545	0.039831	1.000000	0.000018	0.000019	0.000010	-9.362489	-75.557734	2.094085
41409	9.528429	-0.380455	2.406638	0.016504	0.016771	0.022304	1.000000	0.000028	0.000014	0.000013	-9.366074	-75.556576	2.099767
41410	9.528363	-0.380621	2.406873	0.016705	0.017478	0.022302	1.000000	0.000028	0.000009	0.000019	-9.387139	-75.553936	2.099971
41411	9.535278	-0.385923	2.373708	0.049798	0.008171	0.021051	1.000000	0.000046	0.000014	0.000007	-9.386264	-75.552853	2.103136
41412	9.538553	-0.351835	2.422845	0.006603	0.048207	0.034931	1.000000	0.000003	0.000015	0.000032	-9.392785	-75.558107	2.116403
41413	9.544414	-0.399705	2.431681	-0.006202	0.002180	0.044728	1.000000	0.000051	-0.000004	0.000002	-9.390383	-75.559149	2.118545
41414	9.548404	-0.381050	2.394089	0.032955	0.015818	0.038584	1.000000	0.000018	0.000019	0.000010	-9.391075	-75.559130	2.118134
41415	9.541347	-0.375967	2.427772	-0.000361	0.025315	0.039829	1.000000	0.000028	0.000009	0.000019	-9.397772	-75.558461	2.126992
41416	9.561558	-0.376221	2.414345	0.017272	0.023953	0.056108	1.000000	0.000019	0.000009	0.000022	-9.408996	-75.559958	2.133164
41417	9.548215	-0.381707	2.394738	0.032220	0.016178	0.038586	1.000000	0.000038	0.000009	0.000016	-9.413433	-75.559355	2.140756
41418	9.558500	-0.352826	2.410357	0.022722	0.046786	0.051212	1.000000	0.000019	0.000009	0.000022	-9.413186	-75.562581	2.148263
41419	9.541118	-0.376707	2.428553	-0.001880	0.025356	0.039829	1.000000	0.000043	0.000012	-0.000003	-9.408323	-75.561938	2.146915
41420	9.541041	-0.376866	2.428831	-0.001736	0.025635	0.039828	1.000000	0.000003	0.000015	0.000031	-9.427178	-75.558778	2.153915
41421	9.561242	-0.377170	2.415447	0.016271	0.024197	0.056109	1.000000	0.000025	0.000007	0.000009	-9.429987	-75.558457	2.158290
41422	9.504425	-0.358700	2.418678	0.000383	0.042250	0.001128	1.000000	0.000038	0.000009	0.000016	-9.428199	-75.563420	2.162263
41423	9.537925	-0.353646	2.425050	0.003311	0.048686	0.034930	1.000000	0.000019	0.000009	0.000022	-9.437305	-75.562760	2.172450
41424	9.524568	-0.359168	2.405502	0.018537	0.040909	0.017410	1.000000	0.000040	0.000015	0.000020	-9.442681	-75.559784	2.174437
41425	9.524497	-0.359373	2.405751	0.018413	0.041009	0.017410	1.000000	0.000028	0.000009	0.000019	-9.449504	-75.559154	2.183342
41426	9.544736	-0.359470	2.392257	0.036169	0.039424	0.033695	1.000000	0.000022	0.000001	0.000004	-9.448203	-75.561108	2.181165
41427	9.530333	-0.407179	2.414647	0.005196	-0.005046	0.027207	1.000000	0.000013	0.000001	0.000007	-9.452332	-75.561543	2.185437
41428	9.574178	-0.373070	2.436438	0.000633	0.032303	0.073629	1.000000	0.000034	0.000016	0.000033	-9.462584	-75.552738	2.190313
41429	9.560820	-0.378596	2.416892	0.015585	0.024524	0.056109	1.000000	0.000025	0.000007	0.000009	-9.465466	-75.552375	2.194703
41430	9.553784	-0.373406	2.450468	-0.017891	0.034068	0.057345	1.000000	0.000038	0.000009	0.000016	-9.470476	-75.552743	2.196438
41431	9.537498	-0.355005	2.426529	0.003431	0.049342	0.034927	1.000000	0.000018	0.000014	0.000016	-9.476773	-75.551546	2.203543
41432	9.527073	-0.384275	2.411394	0.011335	0.018388	0.022308	1.000000	0.000028	0.000014	0.000013	-9.478626	-75.554407	2.205321
41433	9.573854	-0.373810	2.437599	-0.000793	0.032719	0.073627	1.000000	0.000025	0.000007	0.000009	-9.481579	-75.554073	2.209739
41434	9.533954	-0.389815	2.378388	0.043818	0.009571	0.021078	1.000000	0.000019	0.000009	0.000022	-9.501194	-75.556019	2.216322
41435	9.537266	-0.355800	2.427327	0.001823	0.050070	0.034923	1.000000	0.000020	0.000004	0.000028	-9.513534	-75.555767	2.229715
41436	9.526887	-0.385057	2.412004	0.008080	0.019535	0.022309	1.000000	0.000054	0.000002	0.000006	-9.521787	-75.569549	2.235488
41437	9.557454	-0.356032	2.414029	0.017372	0.049040	0.051212	1.000000	-0.000001	0.000019	0.000015	-9.530063	-75.567948	2.242190
41438	9.547022	-0.385455	2.398891	0.011766	-0.011998	0.038637	1.000000	0.000019	0.000009	0.000022	-8.839714	-75.655785	1.231085
41439	9.539936	-0.380359	2.432624	-0.021626	-0.002490	0.039838	1.000000	0.000030	0.000025	0.000011	-8.836262	-75.654317	1.227957
41440	9.526569	-0.385689	2.413160	-0.006825	-0.010590	0.022324	1.000000	0.000025	0.000007	0.000009	-8.832948	-75.654773	1.229537
41441	9.523581	-0.361979	2.408986	-0.000555	0.012297	0.017505	1.000000	0.000018	0.000014	0.000016	-8.833685	-75.654490	1.229369
41442	9.559988	-0.380714	2.419850	-0.004335	-0.004676	0.056150	1.000000	0.000028	0.000014	0.000013	-8.831495	-75.654386	1.232437
41443	9.526390	-0.386264	2.413775	-0.007631	-0.011032	0.022323	1.000000	0.000007	-0.000003	0.000026	-8.839366	-75.655749	1.238342
41444	9.543674	-0.362662	2.396012	0.016750	0.010120	0.033821	1.000000	0.000039	0.000025	0.000008	-8.833170	-75.654168	1.236472
41445	9.533202	-0.391850	2.381066	0.025003	-0.020979	0.021126	1.000000	0.000030	0.000020	0.000017	-8.832664	-75.653160	1.236456
41446	9.559678	-0.381539	2.420946	-0.005337	-0.005272	0.056149	1.000000	0.000019	0.000009	0.000022	-8.835857	-75.653229	1.242856
41447	9.539343	-0.381787	2.434727	-0.023679	-0.003692	0.039832	1.000000	0.000028	0.000009	0.000019	-8.837208	-75.653457	1.244500
41448	9.549206	-0.411151	2.405923	0.002712	-0.036536	0.043453	1.000000	0.000028	0.000009	0.000019	-8.837910	-75.653353	1.252386
41449	9.543308	-0.363752	2.397305	0.015520	0.009375	0.033824	1.000000	0.000019	0.000009	0.000022	-8.841594	-75.653530	1.255331
41450	9.559467	-0.382496	2.421628	-0.006317	-0.005867	0.056148	1.000000	0.000035	0.000002	0.000012	-8.839290	-75.654521	1.256986
41451	9.522934	-0.363893	2.411253	-0.003069	0.010807	0.017507	1.000000	0.000036	0.000019	0.000004	-8.832419	-75.653881	1.251105
41452	9.536152	-0.358785	2.431261	-0.018356	0.018593	0.035016	1.000000	-0.000003	0.000002	0.000023	-8.839472	-75.654590	1.256790
41453	9.566280	-0.388283	2.388906	0.026048	-0.015951	0.054957	1.000000	0.000030	0.000020	0.000017	-8.838967	-75.653581	1.256775
41454	9.545906	-0.388250	2.402878	0.007735	-0.014371	0.038638	1.000000	0.000024	0.000017	-0.000003	-8.830309	-75.653058	1.246920
41455	9.542942	-0.364499	2.398646	0.014015	0.008513	0.033827	1.000000	0.000039	-0.000001	0.000028	-8.835220	-75.654254	1.253489
41456	9.545812	-0.388564	2.403199	0.007197	-0.014634	0.038638	1.000000	0.000028	0.000014	0.000013	-8.834036	-75.654083	1.244967
41457	9.542823	-0.364840	2.399069	0.013483	0.008248	0.033828	1.000000	0.000028	0.000014	0.000013	-8.832444	-75.653852	1.243500
41458	9.572213	-0.378259	2.443349	-0.023462	0.000989	0.073654	1.000000	0.000018	0.000014	0.000016	-8.833687	-75.653771	1.236324
41459	9.548952	-0.354601	2.452757	-0.035242	0.025607	0.052522	1.000000	0.000028	0.000009	0.000019	-8.835040	-75.653999	1.237970
41460	9.545508	-0.389107	2.404320	0.006118	-0.015181	0.038638	1.000000	0.000026	0.000024	0.000001	-8.827388	-75.652803	1.231487
41461	9.545421	-0.389211	2.404646	0.005856	-0.015321	0.038638	1.000000	0.000019	0.000009	0.000022	-8.831074	-75.652980	1.234433
41462	9.519291	-0.341697	2.409482	0.000642	0.032325	0.012699	1.000000	0.000045	-0.000003	0.000015	-8.829761	-75.654539	1.231492
41463	9.578883	-0.384329	2.411169	0.008353	-0.009391	0.072468	1.000000	0.000011	0.000025	0.000017	-8.830975	-75.652970	1.230964
41464	9.542323	-0.366034	2.400875	0.011619	0.007281	0.033831	1.000000	0.000019	0.000009	0.000022	-8.834587	-75.653217	1.235516
41465	9.521957	-0.366236	2.414754	-0.006712	0.008885	0.017507	1.000000	0.000030	0.000020	0.000017	-8.834085	-75.652209	1.235502
41466	9.545054	-0.390311	2.405926	0.004527	-0.016019	0.038638	1.000000	0.000018	0.000014	0.000016	-8.834787	-75.651951	1.235242
41467	9.542072	-0.366638	2.401780	0.010831	0.006860	0.033832	1.000000	0.000028	0.000014	0.000013	-8.833197	-75.651720	1.233776
41468	9.521733	-0.366810	2.415553	-0.007522	0.008470	0.017506	1.000000	0.000029	0.000004	0.000025	-8.837574	-75.652544	1.237264
41469	9.558134	-0.385478	2.426409	-0.011333	-0.008486	0.056142	1.000000	0.000024	0.000017	-0.000003	-8.829004	-75.652173	1.228121
41470	9.541856	-0.367077	2.402572	0.010020	0.006437	0.033833	1.000000	0.000024	0.000021	0.000030	-8.834748	-75.650821	1.235017
41471	9.541747	-0.367303	2.402970	0.009758	0.006297	0.033833	1.000000	0.000027	0.000019	0.000007	-8.830214	-75.650132	1.230440
41472	9.541672	-0.367414	2.403250	0.009500	0.006158	0.033834	1.000000	0.000028	0.000009	0.000019	-8.831594	-75.650347	1.230547
41473	9.544514	-0.391325	2.407903	0.002662	-0.016998	0.038637	1.000000	0.000024	0.000012	0.000003	-8.825972	-75.650434	1.224519
41474	9.534522	-0.362297	2.437127	-0.024140	0.015603	0.035009	1.000000	0.000022	0.000015	0.000026	-8.831057	-75.649869	1.221312
41475	9.541448	-0.367991	2.404051	0.008711	0.005751	0.033835	1.000000	0.000031	0.000015	0.000023	-8.833503	-75.649320	1.224412
41476	9.537280	-0.386597	2.442039	-0.031243	-0.007700	0.039809	1.000000	0.000022	0.000001	0.000004	-8.829482	-75.650640	1.223476
41477	9.541341	-0.368204	2.404445	0.008188	0.005461	0.033835	1.000000	0.000030	0.000020	0.000017	-8.828983	-75.649633	1.223464
41478	9.544154	-0.392285	2.409174	0.001319	-0.017690	0.038636	1.000000	0.000019	0.000009	0.000022	-8.832750	-75.649941	1.224614
41479	9.557375	-0.387314	2.429106	-0.013991	-0.009873	0.056137	1.000000	0.000029	0.000004	0.000025	-8.837056	-75.650627	1.229377
41480	9.561443	-0.369073	2.391475	0.025452	0.003271	0.050168	1.000000	0.000028	0.000014	0.000013	-8.835228	-75.650349	1.231965
41481	9.536975	-0.387640	2.443065	-0.032568	-0.008396	0.039804	1.000000	0.000038	0.000004	0.000022	-8.837206	-75.651087	1.235431
41482	9.541047	-0.369353	2.405435	0.006881	0.004740	0.033837	1.000000	0.000028	0.000014	0.000013	-8.835233	-75.650780	1.240961
41483	9.523592	-0.393385	2.423643	-0.018029	-0.016648	0.022302	1.000000	0.000019	0.000004	0.000028	-8.841869	-75.651415	1.247022
41484	9.540900	-0.369964	2.405921	0.006361	0.004445	0.033837	1.000000	0.000033	0.000026	0.000021	-8.842071	-75.649613	1.257254
41485	9.507251	-0.375337	2.400044	0.003090	-0.001885	0.000004	1.000000	0.000025	0.000007	0.000009	-8.839399	-75.650161	1.254341
41486	9.554029	-0.364888	2.426234	-0.009193	0.012123	0.051338	1.000000	0.000038	0.000009	0.000016	-8.838463	-75.650330	1.252646
41487	9.543557	-0.394167	2.411231	-0.000995	-0.018986	0.038633	1.000000	0.000020	0.000025	0.000014	-8.837347	-75.648814	1.250817
41488	9.533543	-0.365088	2.440537	-0.027758	0.013606	0.035002	1.000000	0.000028	0.000014	0.000013	-8.835585	-75.648491	1.252941
41489	9.560791	-0.370771	2.393818	0.023147	0.001971	0.050174	1.000000	0.000019	0.000009	0.000022	-8.839276	-75.648667	1.255889
41490	9.553738	-0.365630	2.427268	-0.010208	0.011555	0.051337	1.000000	0.000035	-0.000003	0.000018	-8.840078	-75.650100	1.258924
41491	9.553673	-0.365746	2.427505	-0.010470	0.011416	0.051337	1.000000	0.000030	0.000025	0.000011	-8.836634	-75.648636	1.255799
41492	9.540331	-0.371215	2.407986	0.004305	0.003315	0.033839	1.000000	0.000016	0.000002	0.000018	-8.839148	-75.649671	1.258832
41493	9.556406	-0.389991	2.432489	-0.017604	-0.011878	0.056129	1.000000	0.000043	0.000021	0.000024	-8.840359	-75.648398	1.262088
41494	9.553441	-0.366410	2.428319	-0.011262	0.010995	0.051337	1.000000	0.000006	0.000007	0.000014	-8.842340	-75.648807	1.260464
41495	9.553390	-0.366594	2.428489	-0.011523	0.010856	0.051337	1.000000	0.000038	0.000009	0.000016	-8.841377	-75.649088	1.260821
41496	9.556215	-0.390596	2.433142	-0.018352	-0.012308	0.056127	1.000000	0.000028	0.000009	0.000019	-8.842429	-75.649121	1.265606
41497	9.544182	-0.353843	2.371174	0.042745	0.015876	0.027891	1.000000	0.000025	0.000002	0.000015	-8.842707	-75.650126	1.265809
41498	9.539975	-0.372541	2.409190	0.002774	0.002469	0.033840	1.000000	0.000022	0.000015	0.000026	-8.847593	-75.649543	1.265970
41499	9.553129	-0.367504	2.429381	-0.012538	0.010292	0.051336	1.000000	0.000020	0.000025	0.000014	-8.846476	-75.648027	1.264140
41500	9.532757	-0.367618	2.443227	-0.030849	0.011939	0.034995	1.000000	0.000016	0.000002	0.000018	-8.849082	-75.648971	1.262446
41501	9.546751	-0.378654	2.376722	0.035092	-0.007701	0.032685	1.000000	0.000030	0.000020	0.000017	-8.848587	-75.647965	1.262435
41502	9.542513	-0.397222	2.414858	-0.004891	-0.021100	0.038628	1.000000	0.000038	0.000009	0.000016	-8.847581	-75.648291	1.261325
41503	9.573125	-0.368435	2.416859	0.004461	0.007947	0.067677	1.000000	0.000022	0.000015	0.000026	-8.852360	-75.647691	1.265724
41504	9.539474	-0.373842	2.410970	0.001207	0.001622	0.033840	1.000000	0.000027	0.000019	0.000007	-8.847663	-75.646959	1.262942
41505	9.532348	-0.368567	2.444677	-0.032153	0.011241	0.034992	1.000000	0.000031	0.000015	0.000023	-8.850117	-75.646411	1.266045
41506	9.552562	-0.368869	2.431402	-0.014367	0.009311	0.051334	1.000000	0.000028	0.000014	0.000013	-8.848503	-75.646192	1.262919
41507	9.526000	-0.379693	2.391934	0.015471	-0.006766	0.016346	1.000000	0.000026	-0.000003	0.000021	-8.851734	-75.647656	1.266240
41508	9.539189	-0.374632	2.411977	0.000165	0.001054	0.033840	1.000000	0.000033	0.000026	0.000021	-8.852095	-75.645840	1.270748
41509	9.549511	-0.345742	2.427539	-0.008525	0.031891	0.046549	1.000000	0.000026	-0.000003	0.000021	-8.855328	-75.647304	1.274069
41510	9.546105	-0.380403	2.379037	0.032745	-0.008993	0.032692	1.000000	0.000036	0.000019	0.000004	-8.848538	-75.646628	1.261810
41511	9.538993	-0.375083	2.412681	-0.000612	0.000639	0.033840	1.000000	0.000019	0.000009	0.000022	-8.852233	-75.646805	1.264760
41512	9.559234	-0.375470	2.399298	0.017184	-0.001309	0.050186	1.000000	0.000028	0.000009	0.000019	-8.853444	-75.646963	1.265977
41513	9.538872	-0.375473	2.413100	-0.001123	0.000354	0.033840	1.000000	0.000037	0.000014	0.000010	-8.849540	-75.646787	1.263224
41514	9.531774	-0.370113	2.446681	-0.034490	0.009983	0.034985	1.000000	0.000015	0.000007	0.000011	-8.849026	-75.647355	1.263889
41515	9.538763	-0.375735	2.413490	-0.001658	0.000067	0.033840	1.000000	0.000028	0.000009	0.000019	-8.850397	-75.647585	1.265545
41516	9.525405	-0.381291	2.394047	0.013120	-0.008056	0.016349	1.000000	0.000033	0.000026	0.000021	-8.850775	-75.645865	1.270223
41517	9.522459	-0.357569	2.389880	0.019492	0.014809	0.011569	1.000000	0.000012	0.000006	0.000001	-8.846402	-75.646681	1.264046
41518	9.535641	-0.352455	2.409950	0.004177	0.022636	0.029060	1.000000	0.000024	0.000021	0.000030	-8.852076	-75.645329	1.271361
41519	9.551684	-0.371262	2.434483	-0.017770	0.007468	0.051330	1.000000	0.000025	0.000002	0.000015	-8.852363	-75.646335	1.271571
41520	9.545414	-0.382260	2.381513	0.030108	-0.010441	0.032699	1.000000	0.000031	0.000015	0.000023	-8.854609	-75.645802	1.275156
41521	9.551546	-0.371684	2.434963	-0.018296	0.007181	0.051330	1.000000	0.000028	0.000014	0.000013	-8.853033	-75.645574	1.273699
41522	9.538195	-0.377203	2.415503	-0.003498	-0.000940	0.033840	1.000000	0.000021	0.000020	0.000020	-8.854729	-75.644468	1.272580
41523	9.538092	-0.377340	2.415888	-0.003760	-0.001079	0.033840	1.000000	0.000027	0.000019	0.000007	-8.850205	-75.643783	1.268008
41524	9.535126	-0.353595	2.411820	0.002631	0.021784	0.029063	1.000000	0.000020	0.000025	0.000014	-8.849090	-75.642232	1.259866
41525	9.524658	-0.382965	2.396753	0.010772	-0.009338	0.016350	1.000000	0.000026	-0.000003	0.000021	-8.852329	-75.643697	1.263191
41526	9.558187	-0.377966	2.403075	0.013506	-0.003322	0.050191	1.000000	0.000038	0.000009	0.000016	-8.851226	-75.643936	1.261190
41527	9.537819	-0.378000	2.416866	-0.004793	-0.001641	0.033839	1.000000	0.000018	0.000014	0.000016	-8.851975	-75.643655	1.261026
41528	9.537741	-0.378210	2.417140	-0.005062	-0.001781	0.033839	1.000000	0.000018	0.000014	0.000016	-8.852693	-75.643415	1.256672
41529	9.537664	-0.378370	2.417417	-0.005324	-0.001920	0.033839	1.000000	0.000028	0.000014	0.000013	-8.851119	-75.643187	1.255216
41530	9.537587	-0.378531	2.417695	-0.005575	-0.002067	0.033839	1.000000	0.000018	0.000014	0.000016	-8.851676	-75.642847	1.254683
41531	9.537479	-0.378707	2.418096	-0.005837	-0.002205	0.033838	1.000000	0.000042	0.000026	0.000018	-8.849950	-75.641119	1.254832
41532	9.537377	-0.378794	2.418484	-0.006080	-0.002359	0.033838	1.000000	0.000015	0.000012	0.000005	-8.846332	-75.641051	1.253698
41533	9.534464	-0.355186	2.414202	0.000319	0.020501	0.029066	1.000000	0.000032	0.000010	0.000029	-8.851742	-75.640961	1.259920
41534	9.554690	-0.355479	2.400944	0.018104	0.018525	0.045422	1.000000	0.000036	0.000019	0.000004	-8.844778	-75.640264	1.250645
41535	9.537150	-0.379126	2.419326	-0.006854	-0.002780	0.033838	1.000000	0.000015	0.000012	0.000005	-8.841493	-75.640302	1.245920
41536	9.541282	-0.360797	2.381770	0.032633	0.010245	0.027938	1.000000	0.000027	0.000019	0.000007	-8.836703	-75.639606	1.243390
41537	9.557301	-0.379447	2.406364	0.010656	-0.004904	0.050194	1.000000	0.000019	0.000009	0.000022	-8.840402	-75.639783	1.246341
41538	9.536936	-0.379573	2.420098	-0.007630	-0.003222	0.033837	1.000000	0.000028	0.000009	0.000019	-8.841463	-75.639975	1.251005
41539	9.534038	-0.356023	2.415761	-0.001223	0.019636	0.029068	1.000000	0.000019	0.000009	0.000022	-8.845163	-75.640151	1.253957
41540	9.552897	-0.398587	2.444848	-0.029868	-0.018512	0.056089	1.000000	0.000040	0.000015	0.000020	-8.845113	-75.639627	1.254048
41541	9.536714	-0.380245	2.420868	-0.008410	-0.003646	0.033836	1.000000	0.000018	0.000019	0.000010	-8.842914	-75.638890	1.250771
41542	9.540860	-0.362025	2.383276	0.031077	0.009371	0.027944	1.000000	0.000038	0.000009	0.000016	-8.841812	-75.639190	1.250364
41543	9.556900	-0.380594	2.407776	0.009092	-0.005772	0.050195	1.000000	0.000025	0.000007	0.000009	-8.839157	-75.639739	1.247464
41544	9.536515	-0.380550	2.421606	-0.009193	-0.004084	0.033835	1.000000	0.000030	0.000020	0.000017	-8.838328	-75.638711	1.252221
41545	9.546320	-0.410064	2.393125	0.016946	-0.037053	0.037478	1.000000	0.000018	0.000014	0.000016	-8.839079	-75.638431	1.252059
41546	9.540570	-0.362631	2.384342	0.030054	0.008788	0.027947	1.000000	0.000018	0.000014	0.000016	-8.839645	-75.638049	1.251854
41547	9.520187	-0.362534	2.398171	0.011767	0.010492	0.011587	1.000000	0.000046	0.000014	0.000007	-8.833435	-75.637929	1.247822
41548	9.556496	-0.381424	2.409246	0.007800	-0.006497	0.050196	1.000000	0.000003	0.000015	0.000031	-8.842792	-75.637232	1.251856
41549	9.546529	-0.352414	2.438282	-0.018854	0.026201	0.046552	1.000000	0.000025	0.000007	0.000009	-8.840139	-75.637783	1.248958
41550	9.543165	-0.387104	2.389726	0.022335	-0.014780	0.032714	1.000000	0.000032	-0.000004	0.000008	-8.836892	-75.639561	1.243232
41551	9.537418	-0.339469	2.380986	0.035446	0.031064	0.023189	1.000000	0.000032	0.000036	0.000009	-8.831595	-75.636866	1.238446
41552	9.549143	-0.376375	2.443650	-0.026314	0.002785	0.051314	1.000000	0.000028	0.000009	0.000019	-8.832840	-75.637109	1.237494
41553	9.533002	-0.358067	2.419545	-0.004836	0.017639	0.029070	1.000000	0.000028	0.000014	0.000013	-8.831273	-75.636882	1.236043
41554	9.549002	-0.376601	2.444167	-0.026834	0.002501	0.051312	1.000000	0.000037	0.000014	0.000010	-8.827179	-75.636692	1.232627
41555	9.535716	-0.382188	2.424490	-0.012047	-0.005638	0.033831	1.000000	0.000007	-0.000002	0.000026	-8.835065	-75.638049	1.238536
41556	9.542691	-0.387950	2.391483	0.020768	-0.015650	0.032716	1.000000	0.000032	0.000036	0.000009	-8.829472	-75.635315	1.236199
41557	9.555843	-0.382747	2.411625	0.005457	-0.007788	0.050196	1.000000	0.000026	-0.000003	0.000021	-8.832719	-75.636779	1.239530
41558	9.535500	-0.382771	2.425247	-0.012817	-0.006082	0.033830	1.000000	0.000038	0.000009	0.000016	-8.831462	-75.637015	1.244418
41559	9.522192	-0.388238	2.405684	0.001971	-0.014222	0.016350	1.000000	0.000028	0.000014	0.000013	-8.829895	-75.636789	1.242968
41560	9.555691	-0.383142	2.412164	0.004676	-0.008221	0.050197	1.000000	0.000025	0.000007	0.000009	-8.827246	-75.637348	1.234799
41561	9.532494	-0.359223	2.421374	-0.006903	0.016493	0.029071	1.000000	0.000028	0.000014	0.000013	-8.825681	-75.637121	1.233349
41562	9.542314	-0.388685	2.392866	0.019207	-0.016512	0.032718	1.000000	0.000028	0.000014	0.000013	-8.823954	-75.636854	1.231420
41563	9.545594	-0.354197	2.441682	-0.022466	0.024215	0.046549	1.000000	0.000019	0.000009	0.000022	-8.827658	-75.637030	1.234374
41564	9.555450	-0.383742	2.413023	0.003633	-0.008794	0.050196	1.000000	0.000035	0.000002	0.000012	-8.825473	-75.638097	1.234067
41565	9.548281	-0.378448	2.446695	-0.029695	0.000943	0.051305	1.000000	0.000004	0.000031	0.000024	-8.830083	-75.635697	1.236261
41566	9.555278	-0.384196	2.413633	0.003117	-0.009080	0.050196	1.000000	0.000032	-0.000004	0.000008	-8.826804	-75.637486	1.233943
41567	9.518844	-0.365576	2.403036	0.006598	0.007632	0.011594	1.000000	0.000030	0.000025	0.000011	-8.823375	-75.636026	1.230826
41568	9.534800	-0.384176	2.427778	-0.015419	-0.007488	0.033825	1.000000	0.000018	0.000014	0.000016	-8.824049	-75.635719	1.227706
41569	9.555041	-0.384524	2.414520	0.002333	-0.009503	0.050196	1.000000	0.000028	0.000014	0.000013	-8.822485	-75.635493	1.226257
41570	9.531857	-0.360652	2.423667	-0.009227	0.015222	0.029071	1.000000	0.000025	0.000002	0.000015	-8.822793	-75.636505	1.221925
41571	9.534611	-0.384732	2.428431	-0.016206	-0.007902	0.033824	1.000000	0.000044	0.000016	0.000030	-8.826982	-75.635694	1.228313
41572	9.554875	-0.385098	2.415086	0.001550	-0.009928	0.050196	1.000000	0.000022	0.000001	0.000005	-8.823074	-75.636990	1.225660
41573	9.534497	-0.384983	2.428840	-0.016725	-0.008186	0.033823	1.000000	0.000030	0.000020	0.000017	-8.822596	-75.635987	1.225659
41574	9.525449	-0.372191	2.371420	0.037840	-0.003253	0.010494	1.000000	0.000025	0.000007	0.000009	-8.819804	-75.636562	1.226554
41575	9.544760	-0.356018	2.444677	-0.025579	0.022528	0.046546	1.000000	0.000020	0.000025	0.000014	-8.818693	-75.635048	1.224726
41576	9.554534	-0.385563	2.416359	0.000504	-0.010497	0.050195	1.000000	0.000030	0.000020	0.000017	-8.818114	-75.633999	1.223194
41577	9.551632	-0.361841	2.412133	0.006967	0.012348	0.045446	1.000000	0.000037	0.000014	0.000010	-8.814235	-75.633827	1.220460
41578	9.520827	-0.390850	2.410658	-0.002989	-0.016910	0.016346	1.000000	0.000025	0.000007	0.000009	-8.811444	-75.634431	1.221462
41579	9.554325	-0.385815	2.417145	-0.000292	-0.010921	0.050195	1.000000	0.000018	0.000014	0.000016	-8.812200	-75.634151	1.221302
41580	9.538203	-0.367524	2.393047	0.021220	0.003903	0.027973	1.000000	0.000028	0.000014	0.000013	-8.810526	-75.633944	1.222673
41581	9.567453	-0.380663	2.437340	-0.015869	-0.003190	0.067668	1.000000	0.000032	-0.000004	0.000008	-8.807428	-75.635783	1.220160
41582	9.538117	-0.367803	2.393347	0.020694	0.003623	0.027975	1.000000	0.000024	0.000021	0.000030	-8.813346	-75.634427	1.222018
41583	9.554094	-0.386421	2.417960	-0.001349	-0.011482	0.050194	1.000000	0.000031	0.000001	0.000002	-8.807299	-75.635809	1.216391
41584	9.551272	-0.362675	2.413431	0.005121	0.011358	0.045448	1.000000	0.000016	0.000002	0.000018	-8.809856	-75.636772	1.218368
41585	9.571555	-0.363125	2.400025	0.022865	0.009323	0.061827	1.000000	0.000028	0.000009	0.000019	-8.811247	-75.637003	1.220037
41586	9.540744	-0.392374	2.398518	0.012915	-0.019929	0.032722	1.000000	0.000019	0.000009	0.000022	-8.814787	-75.637160	1.225986
41587	9.533075	-0.445566	2.388012	0.014227	-0.074050	0.024740	1.000000	0.000035	0.000002	0.000012	-8.812777	-75.638223	1.224922
41588	9.555832	-0.286670	2.420414	0.009234	0.087754	0.048688	1.000000	0.000037	0.000048	0.000017	-8.809625	-75.634016	1.226233
41589	9.565426	-0.424184	2.481721	-0.064510	-0.040355	0.078241	1.000000	0.000026	-0.000003	0.000021	-8.812883	-75.635481	1.229572
41590	9.492632	-0.386973	2.460275	-0.057202	-0.006769	0.001050	1.000000	0.000029	0.000030	0.000005	-8.806513	-75.633578	1.222538
41591	9.581922	-0.410220	2.286547	0.128753	-0.052296	0.045837	1.000000	-0.000017	-0.000015	0.000024	-8.816865	-75.636378	1.228125
41592	9.524449	-0.241514	2.549884	-0.117256	0.149876	0.048305	1.000000	0.000007	0.000002	0.000020	-8.821866	-75.637283	1.229475
41593	9.554491	-0.404967	2.333364	0.077169	-0.040759	0.030547	1.000000	0.000075	0.000003	0.000011	-8.814632	-75.638245	1.227833
41594	9.575133	-0.454525	2.453529	-0.039537	-0.073942	0.081884	1.000000	0.000006	0.000007	0.000014	-8.816527	-75.638696	1.228476
41595	9.535190	-0.287893	2.435019	-0.010567	0.088680	0.032315	1.000000	0.000029	0.000004	0.000025	-8.820873	-75.639384	1.233264
41596	9.554373	-0.405596	2.333738	0.076377	-0.041197	0.030552	1.000000	0.000060	0.000005	0.000027	-8.822223	-75.639911	1.238429
41597	9.537358	-0.370776	2.395914	0.016767	0.001505	0.027983	1.000000	-0.000007	0.000006	0.000007	-8.822489	-75.640618	1.234830
41598	9.496628	-0.370631	2.423228	-0.019495	0.005188	-0.004786	1.000000	0.000024	0.000021	0.000030	-8.828401	-75.639260	1.237624
41599	9.542801	-0.418978	2.405582	0.002730	-0.044729	0.037460	1.000000	0.000045	-0.000003	0.000015	-8.827035	-75.640835	1.238397
41600	9.575038	-0.348239	2.364860	0.058735	0.020233	0.056017	1.000000	-0.000000	0.000014	0.000021	-8.832314	-75.640417	1.243489
41601	9.540434	-0.337038	2.445359	-0.025617	0.041887	0.041796	1.000000	0.000040	0.000020	0.000014	-8.829525	-75.639470	1.242204
41602	9.533665	-0.406796	2.348574	0.056795	-0.040148	0.014174	1.000000	0.000038	0.000004	0.000022	-8.831447	-75.640256	1.249454
41603	9.563396	-0.361490	2.436980	-0.014908	0.016712	0.062919	1.000000	0.000011	0.000025	0.000017	-8.832650	-75.638688	1.248906
41604	9.542937	-0.361467	2.450987	-0.033168	0.018493	0.046532	1.000000	0.000020	0.000025	0.000014	-8.831563	-75.637200	1.243043
41605	9.533957	-0.348725	2.393479	0.021429	0.023353	0.023251	1.000000	0.000032	-0.000004	0.000008	-8.828478	-75.639041	1.240540
41606	9.558900	-0.380108	2.475573	-0.055504	0.003272	0.068731	1.000000	0.000026	-0.000003	0.000021	-8.831676	-75.640506	1.242471
41607	9.505910	-0.401744	2.396610	0.004433	-0.028990	-0.001133	1.000000	0.000039	0.000025	0.000008	-8.825935	-75.639104	1.238069
41608	9.572899	-0.391578	2.409666	0.010055	-0.016914	0.066575	1.000000	0.000011	0.000025	0.000017	-8.827113	-75.637544	1.235573
41609	9.516139	-0.372867	2.412608	-0.004373	0.001738	0.011598	1.000000	0.000015	0.000007	0.000012	-8.826787	-75.638041	1.233967
41610	9.555779	-0.356856	2.472181	-0.049791	0.025698	0.063992	1.000000	0.000037	0.000009	0.000016	-8.825853	-75.638373	1.235355
41611	9.523126	-0.378747	2.379698	0.028138	-0.008502	0.010524	1.000000	0.000028	0.000014	0.000013	-8.824298	-75.638149	1.233912
41612	9.559416	-0.397607	2.390767	0.024042	-0.025512	0.049111	1.000000	0.000016	0.000002	0.000018	-8.826867	-75.639119	1.236840
41613	9.552243	-0.392235	2.424331	-0.009262	-0.015688	0.050184	1.000000	0.000043	0.000021	0.000024	-8.828120	-75.637852	1.240122
41614	9.549410	-0.368549	2.419905	-0.002761	0.007144	0.045453	1.000000	0.000032	-0.000004	0.000008	-8.825026	-75.639762	1.240856
41615	9.538901	-0.397824	2.404944	0.005252	-0.024003	0.032720	1.000000	0.000020	0.000025	0.000014	-8.823916	-75.638249	1.239024
41616	9.549241	-0.368854	2.420521	-0.003285	0.006864	0.045453	1.000000	0.000031	0.000015	0.000023	-8.826353	-75.637709	1.243516
41617	9.515584	-0.374221	2.414588	-0.006484	0.000622	0.011597	1.000000	0.000030	0.000020	0.000017	-8.825884	-75.636708	1.243519
41618	9.528728	-0.369083	2.434677	-0.021805	0.008521	0.029059	1.000000	0.000019	0.000009	0.000022	-8.829626	-75.636940	1.246718
41619	9.533018	-0.351156	2.396860	0.017754	0.021382	0.023263	1.000000	0.000025	0.000002	0.000015	-8.829944	-75.637948	1.246949
41620	9.549004	-0.369648	2.421338	-0.004351	0.006306	0.045453	1.000000	0.000022	0.000001	0.000005	-8.826183	-75.639344	1.244875
41621	9.535738	-0.375229	2.401662	0.010438	-0.001871	0.027991	1.000000	0.000031	0.000010	0.000029	-8.831624	-75.639255	1.251116
41622	9.559336	-0.340890	2.436924	-0.013143	0.037037	0.058187	1.000000	0.000018	0.000019	0.000010	-8.829424	-75.638542	1.246612
41623	9.535606	-0.375615	2.402124	0.009911	-0.002151	0.027992	1.000000	0.000035	-0.000003	0.000018	-8.830385	-75.640063	1.248680
41624	9.535585	-0.375725	2.402192	0.009653	-0.002295	0.027992	1.000000	0.000025	0.000007	0.000009	-8.827660	-75.640594	1.245029
41625	9.559219	-0.341268	2.437331	-0.013919	0.036617	0.058188	1.000000	0.000028	0.000009	0.000019	-8.829063	-75.640826	1.246706
41626	9.515164	-0.375788	2.416000	-0.008853	-0.000632	0.011595	1.000000	0.000025	0.000002	0.000015	-8.829318	-75.641837	1.245089
41627	9.555772	-0.376399	2.389198	0.026851	-0.004663	0.044390	1.000000	0.000027	0.000019	0.000007	-8.824809	-75.641158	1.240527
41628	9.535373	-0.376301	2.402941	0.008601	-0.002861	0.027993	1.000000	0.000029	0.000004	0.000025	-8.829060	-75.641883	1.248206
41629	9.566127	-0.347559	2.404718	0.018065	0.026063	0.057128	1.000000	0.000025	0.000007	0.000009	-8.826424	-75.642436	1.245318
41630	9.545739	-0.347514	2.418411	-0.000182	0.027870	0.040730	1.000000	0.000031	0.000010	0.000029	-8.831837	-75.642381	1.250985
41631	9.514843	-0.376779	2.417107	-0.010170	-0.001331	0.011594	1.000000	0.000011	0.000025	0.000017	-8.833037	-75.640813	1.250434
41632	9.558172	-0.401370	2.395111	0.018733	-0.028348	0.049115	1.000000	0.000018	0.000014	0.000016	-8.833635	-75.640515	1.251315
41633	9.535023	-0.377472	2.404146	0.007290	-0.003568	0.027994	1.000000	0.000025	0.000002	0.000015	-8.833957	-75.641525	1.251549
41634	9.534965	-0.377552	2.404365	0.007024	-0.003713	0.027994	1.000000	0.000027	0.000019	0.000007	-8.829322	-75.640878	1.249730
41635	9.541008	-0.366503	2.457738	-0.041319	0.014194	0.046508	1.000000	0.000025	0.000007	0.000009	-8.826688	-75.641432	1.246844
41636	9.571159	-0.396342	2.415792	0.002629	-0.020876	0.066573	1.000000	0.000028	0.000014	0.000013	-8.824954	-75.641176	1.247237
41637	9.541885	-0.383550	2.371775	0.039274	-0.014142	0.026939	1.000000	0.000019	0.000009	0.000022	-8.828672	-75.641352	1.250198
41638	9.570010	-0.379914	2.502716	-0.080053	0.006689	0.086129	1.000000	0.000036	0.000018	0.000004	-8.817378	-75.646839	1.239094
41639	9.535609	-0.394885	2.319310	0.085786	-0.032694	0.008440	1.000000	0.000044	0.000016	0.000030	-8.821582	-75.646056	1.245496
41640	9.538844	-0.360313	2.368173	0.044246	0.008184	0.022229	1.000000	0.000011	0.000025	0.000017	-8.822678	-75.644519	1.248886
41641	9.534942	-0.319886	2.450432	-0.030318	0.059073	0.037066	1.000000	0.000052	0.000026	0.000015	-8.818656	-75.642881	1.247765
41642	9.526509	-0.431661	2.396664	0.005299	-0.059035	0.019972	1.000000	0.000030	0.000025	0.000011	-8.815241	-75.641481	1.239872
41643	9.535701	-0.336885	2.365023	0.050261	0.030718	0.017518	1.000000	0.000011	0.000025	0.000017	-8.816424	-75.639938	1.239312
41644	9.560442	-0.368300	2.447530	-0.026772	0.010761	0.062902	1.000000	0.000029	0.000004	0.000025	-8.820701	-75.640683	1.246375
41645	9.510249	-0.413882	2.373236	0.026360	-0.044546	-0.002198	1.000000	0.000049	0.000020	0.000011	-8.815598	-75.639822	1.243810
41646	9.560234	-0.368658	2.448287	-0.027307	0.010482	0.062901	1.000000	0.000004	0.000031	0.000023	-8.820141	-75.637461	1.245721
41647	9.523810	-0.350094	2.437748	-0.023670	0.027223	0.024326	1.000000	0.000034	0.000012	-0.000000	-8.812226	-75.637641	1.238430
41648	9.538009	-0.361485	2.371354	0.042109	0.007036	0.022240	1.000000	0.000015	0.000007	0.000012	-8.811877	-75.638186	1.234200
41649	9.539663	-0.368658	2.462632	-0.046077	0.012038	0.046490	1.000000	0.000018	0.000014	0.000016	-8.812623	-75.637932	1.234034
41650	9.529093	-0.397957	2.447883	-0.038115	-0.019117	0.033748	1.000000	0.000039	0.000025	0.000008	-8.806830	-75.636558	1.226967
41651	9.533360	-0.379888	2.410352	0.001466	-0.006325	0.027995	1.000000	0.000018	0.000019	0.000010	-8.804620	-75.635849	1.223682
41652	9.559709	-0.369134	2.450266	-0.028907	0.009646	0.062897	1.000000	0.000015	0.000012	0.000005	-8.801276	-75.635922	1.218505
41653	9.549174	-0.398566	2.435362	-0.020951	-0.021511	0.050155	1.000000	0.000031	0.000010	0.000029	-8.806710	-75.635860	1.224743
41654	9.531499	-0.422181	2.453808	-0.046007	-0.042639	0.038452	1.000000	0.000024	0.000017	-0.000003	-8.798032	-75.635493	1.218949
41655	9.502882	-0.350419	2.453430	-0.043746	0.028086	0.007912	1.000000	0.000023	-0.000004	0.000011	-8.797257	-75.637305	1.217732
41656	9.562268	-0.393397	2.455595	-0.036795	-0.013881	0.067603	1.000000	0.000016	0.000002	0.000018	-8.799800	-75.638263	1.221053
41657	9.546279	-0.375301	2.431194	-0.015175	0.000883	0.045444	1.000000	0.000029	0.000004	0.000025	-8.804151	-75.638978	1.225847
41658	9.539120	-0.369781	2.464569	-0.048456	0.010785	0.046480	1.000000	0.000035	0.000002	0.000012	-8.802147	-75.640056	1.224496
41659	9.553376	-0.381297	2.397987	0.017312	-0.009441	0.044408	1.000000	0.000023	-0.000004	0.000011	-8.801373	-75.641867	1.223280
41660	9.499467	-0.386173	2.405177	-0.003820	-0.013672	-0.005869	1.000000	0.000035	0.000002	0.000012	-8.799340	-75.642923	1.220932
41661	9.543460	-0.352040	2.426733	-0.009390	0.023283	0.040737	1.000000	0.000019	0.000009	0.000022	-8.803045	-75.643125	1.223887
41662	9.532989	-0.381491	2.411566	-0.001430	-0.007881	0.027994	1.000000	0.000020	-0.000015	0.000013	-8.804054	-75.646093	1.225193
41663	9.537409	-0.363623	2.373440	0.038162	0.004885	0.022257	1.000000	0.000026	-0.000003	0.000021	-8.807324	-75.647584	1.228545
41664	9.543498	-0.352711	2.426488	-0.010162	0.022859	0.040737	1.000000	0.000013	-0.000004	0.000013	-8.808828	-75.649285	1.227248
41665	9.570982	-0.358851	2.379645	0.040547	0.010670	0.056123	1.000000	0.000032	-0.000004	0.000008	-8.805744	-75.651154	1.224752
41666	9.517072	-0.363765	2.386833	0.019422	0.006447	0.005843	1.000000	0.000016	0.000002	0.000018	-8.808286	-75.652096	1.225646
41667	9.570949	-0.359094	2.379740	0.040022	0.010380	0.056126	1.000000	0.000012	0.000006	0.000001	-8.803901	-75.652941	1.219464
41668	9.540074	-0.388039	2.378322	0.030005	-0.018791	0.026964	1.000000	0.000027	0.000014	0.000013	-8.802260	-75.652717	1.218639
41669	9.570826	-0.359396	2.380188	0.039495	0.010092	0.056128	1.000000	0.000031	0.000010	0.000029	-8.807703	-75.652655	1.224886
41670	9.532824	-0.382647	2.412035	-0.003540	-0.009013	0.027992	1.000000	0.000031	0.000006	-0.000004	-8.798620	-75.653620	1.218582
41671	9.554773	-0.341185	2.356090	0.060869	0.024694	0.033984	1.000000	0.000021	0.000015	0.000026	-8.803413	-75.653045	1.222985
41672	9.557403	-0.365364	2.361145	0.053749	0.001592	0.038686	1.000000	0.000034	0.000021	0.000027	-8.806911	-75.651754	1.227943
41673	9.536944	-0.365309	2.375048	0.035527	0.003450	0.022267	1.000000	0.000030	0.000020	0.000017	-8.806433	-75.650781	1.227942
41674	9.550034	-0.360149	2.395305	0.020205	0.011374	0.039713	1.000000	0.000024	0.000026	0.000024	-8.809317	-75.648993	1.228997
41675	9.532299	-0.383989	2.413897	-0.004875	-0.009717	0.027991	1.000000	0.000021	0.000015	0.000026	-8.814109	-75.648418	1.233399
41676	9.555267	-0.408298	2.405509	0.005953	-0.034822	0.049110	1.000000	0.000039	0.000025	0.000008	-8.808237	-75.647046	1.231693
41677	9.555141	-0.408509	2.405972	0.005685	-0.034963	0.049110	1.000000	0.000024	0.000021	0.000030	-8.814113	-75.645694	1.237540
41678	9.541813	-0.414251	2.386584	0.020468	-0.043176	0.031666	1.000000	0.000030	0.000020	0.000017	-8.813612	-75.644729	1.236000
41679	9.514233	-0.408253	2.433699	-0.030759	-0.031227	0.016263	1.000000	0.000037	0.000013	0.000010	-8.809744	-75.644591	1.233277
41680	9.554833	-0.408913	2.407126	0.004874	-0.035386	0.049109	1.000000	0.000039	0.000025	0.000008	-8.804012	-75.643245	1.229949
41681	9.514048	-0.408245	2.434423	-0.031297	-0.031504	0.016261	1.000000	0.000025	0.000007	0.000009	-8.801369	-75.643826	1.227061
41682	9.537657	-0.373592	2.469649	-0.054812	0.007460	0.046449	1.000000	0.000039	0.000025	0.000008	-8.795717	-75.642508	1.223475
41683	9.531464	-0.384559	2.417100	-0.007019	-0.010838	0.027989	1.000000	0.000044	0.000028	-0.000011	-8.780668	-75.641060	1.210112
41684	9.508307	-0.360374	2.426200	-0.018359	0.013992	0.006869	1.000000	0.000029	0.000004	0.000025	-8.785087	-75.641751	1.213969
41685	9.540108	-0.397087	2.475455	-0.062479	-0.015900	0.051139	1.000000	0.000042	0.000017	-0.000009	-8.771913	-75.641535	1.202283
41686	9.544445	-0.378922	2.437823	-0.022874	-0.003176	0.045429	1.000000	0.000018	0.000019	0.000010	-8.769793	-75.640857	1.200669
41687	9.503678	-0.378362	2.464996	-0.059036	0.000722	0.012575	1.000000	0.000025	0.000002	0.000015	-8.770109	-75.641893	1.200903
41688	9.544362	-0.379208	2.438104	-0.023405	-0.003454	0.045428	1.000000	0.000025	0.000002	0.000015	-8.770467	-75.642924	1.203588
41689	9.577882	-0.374261	2.444555	-0.020779	0.002463	0.079295	1.000000	0.000037	0.000009	0.000016	-8.769563	-75.643241	1.203991
41690	9.523933	-0.379094	2.451840	-0.041882	-0.001704	0.028998	1.000000	0.000035	0.000002	0.000012	-8.767682	-75.644317	1.201638
41691	9.531102	-0.384981	2.418461	-0.009147	-0.011944	0.027986	1.000000	0.000020	-0.000015	0.000013	-8.768788	-75.647362	1.202101
41692	9.528408	-0.361185	2.413642	-0.002525	0.010868	0.023295	1.000000	0.000053	0.000002	0.000006	-8.762235	-75.648537	1.200496
41693	9.528372	-0.361279	2.413771	-0.002790	0.010728	0.023296	1.000000	0.000019	0.000009	0.000022	-8.765945	-75.648739	1.203454
41694	9.531022	-0.385050	2.418766	-0.009933	-0.012358	0.027984	1.000000	0.000042	0.000017	-0.000009	-8.752822	-75.648480	1.190468
41695	9.507920	-0.360707	2.427669	-0.021256	0.012479	0.006865	1.000000	0.000032	-0.000004	0.000008	-8.749746	-75.650349	1.187976
41696	9.535425	-0.366800	2.380910	0.029429	0.000201	0.022288	1.000000	0.000031	0.000001	0.000002	-8.743751	-75.651717	1.180915
41697	9.544175	-0.379318	2.438818	-0.025778	-0.004693	0.045421	1.000000	0.000025	0.000007	0.000009	-8.741106	-75.652298	1.178024
41698	9.532655	-0.343026	2.376390	0.035805	0.022866	0.017603	1.000000	0.000035	0.000002	0.000012	-8.739176	-75.653307	1.173709
41699	9.551276	-0.385245	2.405708	0.006698	-0.015086	0.044414	1.000000	0.000013	0.000001	0.000007	-8.737751	-75.654606	1.170647
41700	9.559039	-0.332179	2.416092	0.005172	0.038756	0.052480	1.000000	0.000053	0.000002	0.000006	-8.731280	-75.655810	1.164895
41701	9.572206	-0.326924	2.436013	-0.010146	0.046702	0.069918	1.000000	0.000000	0.000009	0.000027	-8.739605	-75.655897	1.170410
41702	9.548485	-0.361874	2.401212	0.012805	0.007441	0.039729	1.000000	0.000032	-0.000004	0.000008	-8.736497	-75.657727	1.168420
41703	9.545778	-0.338214	2.396431	0.019440	0.030245	0.035046	1.000000	0.000026	-0.000003	0.000021	-8.739777	-75.659218	1.171778
41704	9.535264	-0.367815	2.381400	0.027334	-0.000929	0.022294	1.000000	0.000019	0.000004	0.000028	-8.746472	-75.659840	1.175285
41705	9.548406	-0.362780	2.401390	0.012015	0.007018	0.039731	1.000000	0.000021	0.000015	0.000026	-8.751273	-75.659266	1.179692
41706	9.548326	-0.363178	2.401646	0.011748	0.006879	0.039731	1.000000	0.000031	0.000010	0.000029	-8.756781	-75.659214	1.184849
41707	9.552694	-0.345609	2.363865	0.051380	0.019544	0.034050	1.000000	-0.000001	0.000014	0.000021	-8.762144	-75.658846	1.187239
41708	9.534930	-0.369401	2.382492	0.026271	-0.001497	0.022297	1.000000	0.000046	0.000027	0.000028	-8.764450	-75.656829	1.192067
41709	9.547995	-0.364439	2.402771	0.010952	0.006453	0.039732	1.000000	0.000006	0.000021	0.000036	-8.774948	-75.655363	1.200474
41710	9.530204	-0.388161	2.421490	-0.014157	-0.014581	0.027976	1.000000	0.000029	0.000030	0.000005	-8.768503	-75.653458	1.192812
41711	9.532814	-0.412100	2.426578	-0.021339	-0.037663	0.032655	1.000000	0.000029	0.000004	0.000025	-8.772876	-75.654173	1.197621
41712	9.530049	-0.388619	2.422028	-0.014691	-0.014862	0.027975	1.000000	0.000031	0.000015	0.000023	-8.775349	-75.653665	1.202262
41713	9.550318	-0.389240	2.408867	0.002975	-0.017055	0.044413	1.000000	0.000040	0.000015	0.000020	-8.775539	-75.653207	1.204115
41714	9.537044	-0.394659	2.389356	0.017762	-0.025290	0.026979	1.000000	0.000043	0.000012	-0.000003	-8.765350	-75.653446	1.196133
41715	9.563408	-0.383749	2.429117	-0.012611	-0.009240	0.061845	1.000000	0.000016	0.000002	0.000018	-8.767979	-75.654424	1.197647
41716	9.529763	-0.389071	2.423077	-0.015756	-0.015416	0.027972	1.000000	0.000033	0.000026	0.000021	-8.768639	-75.652670	1.197462
41717	9.526949	-0.365348	2.418769	-0.009099	0.007384	0.023295	1.000000	0.000036	0.000018	0.000004	-8.761818	-75.652078	1.191620
41718	9.563131	-0.384183	2.430139	-0.013411	-0.009657	0.061844	1.000000	0.000019	0.000009	0.000022	-8.765560	-75.652275	1.195723
41719	9.529522	-0.389583	2.423942	-0.016554	-0.015833	0.027970	1.000000	0.000029	0.000004	0.000025	-8.769935	-75.652991	1.200533
41720	9.547088	-0.366463	2.406064	0.008044	0.004903	0.039736	1.000000	0.000023	0.000031	0.000018	-8.769885	-75.650681	1.200572
41721	9.544233	-0.342899	2.401909	0.014706	0.027701	0.035061	1.000000	0.000023	0.000031	0.000018	-8.769844	-75.648421	1.200173
41722	9.508755	-0.389807	2.438901	-0.035270	-0.014187	0.011526	1.000000	0.000017	0.000024	0.000003	-8.764662	-75.647235	1.194314
41723	9.575754	-0.379599	2.452059	-0.029787	-0.002258	0.079272	1.000000	0.000048	0.000025	0.000005	-8.756628	-75.645926	1.188647
41724	9.542113	-0.384766	2.446020	-0.032926	-0.008429	0.045397	1.000000	0.000029	0.000004	0.000025	-8.761031	-75.646632	1.193783
41725	9.526135	-0.366579	2.421790	-0.011206	0.006269	0.023293	1.000000	0.000029	0.000030	0.000005	-8.754642	-75.644751	1.187542
41726	9.525979	-0.366668	2.422387	-0.011466	0.006131	0.023293	1.000000	0.000023	0.000031	0.000018	-8.754637	-75.642463	1.185615
41727	9.539099	-0.361316	2.442466	-0.026784	0.014095	0.040722	1.000000	0.000032	-0.000004	0.000008	-8.751577	-75.644334	1.183136
41728	9.505502	-0.366522	2.436251	-0.029917	0.007926	0.006847	1.000000	0.000031	0.000015	0.000023	-8.754083	-75.643793	1.187533
41729	9.525839	-0.367122	2.422871	-0.012257	0.005713	0.023293	1.000000	0.000032	-0.000009	0.000014	-8.753986	-75.646120	1.188179
41730	9.539047	-0.361652	2.442620	-0.027572	0.013679	0.040721	1.000000	0.000031	0.000001	0.000002	-8.747976	-75.647515	1.182882
41731	9.539077	-0.361614	2.442507	-0.027837	0.013540	0.040720	1.000000	0.000030	-0.000015	0.000010	-8.746792	-75.650618	1.182081
41732	9.523219	-0.343342	2.417829	-0.006095	0.028231	0.018623	1.000000	0.000035	0.000002	0.000012	-8.744807	-75.651658	1.179055
41733	9.543546	-0.343941	2.404491	0.011564	0.026011	0.035070	1.000000	0.000019	0.000009	0.000022	-8.748525	-75.651860	1.182017
41734	9.546208	-0.367892	2.409336	0.004352	0.002937	0.039739	1.000000	0.000032	-0.000004	0.000008	-8.745494	-75.653728	1.179590
41735	9.559398	-0.362551	2.429139	-0.010966	0.010904	0.057167	1.000000	0.000016	0.000002	0.000018	-8.748126	-75.654707	1.181106
41736	9.546187	-0.368092	2.409390	0.003834	0.002656	0.039739	1.000000	0.000031	0.000001	0.000002	-8.742108	-75.656048	1.170088
41737	9.546162	-0.368107	2.409488	0.003569	0.002515	0.039740	1.000000	0.000015	0.000007	0.000012	-8.741775	-75.656571	1.168477
41738	9.569158	-0.392495	2.400984	0.014275	-0.022648	0.060856	1.000000	0.000028	0.000009	0.000019	-8.743127	-75.656785	1.171660
41739	9.519622	-0.379520	2.370409	0.033150	-0.013991	0.004888	1.000000	0.000024	0.000026	0.000024	-8.746054	-75.654980	1.174389
41740	9.539931	-0.380212	2.357133	0.050807	-0.016223	0.021339	1.000000	0.000023	-0.000009	0.000017	-8.748280	-75.657224	1.175474
41741	9.509686	-0.350174	2.399170	0.006612	0.018861	0.001199	1.000000	0.000036	0.000018	0.000004	-8.741462	-75.656633	1.169634
41742	11.455386	-0.285115	-4.580820	7.197647	-0.828816	0.177207	1.000000	0.000472	-0.000360	-0.000027	-8.696707	-75.699381	1.176007
41743	9.309789	-2.203044	18.719155	-15.874675	0.317879	3.964822	0.999979	0.000025	0.006525	0.000070	-8.299157	-74.960190	0.764893
41744	6.185017	1.237348	-12.618942	13.822189	-0.350698	-7.012395	0.999955	0.004662	-0.008211	-0.001087	-7.794294	-75.910072	0.801608
41745	11.890844	1.609503	9.367923	-5.882239	2.815157	3.942800	0.999990	-0.003052	0.003199	0.000822	-8.305490	-75.535405	0.965154
41746	9.203524	-2.321393	1.539640	0.528074	-2.048185	-0.432380	0.999991	-0.003965	0.000023	0.001154	-9.260658	-75.514118	1.481492
41747	9.241312	-1.000406	1.505668	0.734034	-0.737743	-0.453917	0.999995	0.002934	-0.000334	-0.000775	-8.604155	-75.567238	1.147587
41748	9.874773	0.553999	3.306960	-0.642881	1.027003	0.545209	1.000000	0.000373	0.000336	-0.000118	-8.484652	-75.532844	1.066848
41749	9.413432	-0.304918	2.678054	-0.261974	0.093408	-0.024925	0.999999	-0.001052	-0.000401	0.000142	-8.691269	-75.577408	1.152596
41750	9.401931	-0.807511	1.827733	0.484340	-0.512464	-0.226667	1.000000	0.000087	0.000009	0.000012	-8.682908	-75.577738	1.152961
41751	9.465406	-0.174186	4.167621	-1.667309	0.421805	0.387091	1.000000	0.000279	-0.000029	-0.000064	-8.621714	-75.583652	1.119702
41752	9.527000	-0.008130	0.255636	2.121277	0.073482	-0.521621	1.000000	0.000051	-0.000412	0.000106	-8.687145	-75.629919	1.194611
41753	9.412916	-0.704855	3.561469	-1.172961	-0.181507	0.206050	1.000000	-0.000464	0.000100	0.000032	-8.744358	-75.619629	1.195727
41754	9.766588	-0.057779	1.368460	1.100330	0.174452	-0.013652	1.000000	0.000243	-0.000330	0.000033	-8.750628	-75.658032	1.229665
41755	9.417337	-0.606720	2.805981	-0.438001	-0.182924	0.021059	1.000000	0.000034	0.000184	-0.000037	-8.714424	-75.639448	1.193288
41756	9.636708	-0.171655	2.238657	0.216886	0.175232	0.078189	1.000000	-0.000056	-0.000092	0.000096	-8.766255	-75.649871	1.237845
41757	9.654785	-0.484776	1.922230	0.485888	-0.176568	0.029953	1.000000	0.000171	0.000119	-0.000037	-8.718992	-75.638596	1.206197
41758	9.539360	-0.166151	2.935791	-0.474972	0.270747	0.154607	1.000000	0.000086	0.000033	0.000021	-8.713267	-75.636196	1.209617
41759	9.496880	-0.355729	1.903791	0.482799	-0.053136	-0.132513	1.000000	0.000044	0.000082	0.000011	-8.704519	-75.628297	1.202686
41760	9.505543	-0.247645	2.802409	-0.363316	0.171713	0.092296	1.000000	0.000079	0.000074	0.000035	-8.702774	-75.620991	1.209963
41761	9.600214	-0.467960	2.289188	0.126104	-0.112680	0.066324	1.000000	-0.000143	0.000009	0.000059	-8.741473	-75.620506	1.229910
41762	9.474279	-0.142450	2.975348	-0.522794	0.299490	0.100534	1.000000	0.000208	0.000062	-0.000002	-8.709427	-75.615224	1.220285
41763	9.419588	-0.699953	2.113485	0.221553	-0.366678	-0.143052	1.000000	-0.000022	-0.000023	0.000049	-8.731994	-75.618559	1.237907
41764	9.552197	-0.067607	2.691590	-0.221855	0.338061	0.103471	1.000000	-0.000150	-0.000020	0.000059	-8.773279	-75.621372	1.259822
41765	9.512880	-0.469005	2.466995	-0.067558	-0.088937	0.025425	1.000000	0.000144	-0.000081	0.000006	-8.761654	-75.631990	1.261787
41766	9.562620	-0.482919	2.496528	-0.087027	-0.097883	0.081372	1.000000	-0.000174	-0.000072	0.000055	-8.807585	-75.640746	1.287300
41767	9.585090	-0.194166	2.430132	0.017267	0.180991	0.075898	1.000000	0.000015	-0.000058	0.000031	-8.820333	-75.648389	1.299126
41768	9.563419	-0.572026	2.186702	0.196391	-0.225225	0.009663	1.000000	0.000046	-0.000097	0.000032	-8.832286	-75.660510	1.317969
41769	9.582111	-0.490576	2.210535	0.186956	-0.140355	0.030550	1.000000	-0.000106	-0.000031	0.000047	-8.864157	-75.664778	1.335270
41770	9.552322	-0.325529	2.424919	-0.006281	0.051793	0.047857	1.000000	0.000067	-0.000020	0.000005	-8.856684	-75.668706	1.335596
41771	9.610922	-0.514912	2.076967	0.318233	-0.181608	0.026748	1.000000	0.000025	0.000007	0.000009	-8.854058	-75.669293	1.332717
41772	9.559787	-0.407751	2.262601	0.141148	-0.051544	0.018517	1.000000	0.000067	0.000059	0.000007	-8.842031	-75.664168	1.327178
41773	9.584421	-0.514916	2.216681	0.178839	-0.163878	0.035211	1.000000	0.000002	0.000065	0.000020	-8.843197	-75.658040	1.325494
41774	9.522522	-0.312482	2.383596	0.029719	0.057908	0.008380	1.000000	0.000062	0.000073	-0.000022	-8.818281	-75.651916	1.306501
41775	9.560264	-0.413438	2.357914	0.052349	-0.046300	0.042487	1.000000	0.000093	0.000092	-0.000005	-8.796093	-75.643094	1.291468
41776	9.558645	-0.395690	2.445891	-0.028924	-0.017830	0.061799	1.000000	0.000031	0.000081	0.000004	-8.785571	-75.635642	1.283273
41777	9.554405	-0.354439	2.528786	-0.103173	0.033572	0.076462	1.000000	0.000042	0.000071	0.000013	-8.778666	-75.628979	1.277986
41778	9.494181	-0.370502	2.483973	-0.076183	0.011185	0.007748	1.000000	0.000047	0.000048	0.000014	-8.773191	-75.624975	1.276337
41779	9.523643	-0.324410	2.572583	-0.147587	0.068595	0.056290	1.000000	0.000004	0.000036	0.000017	-8.774778	-75.622144	1.275343
41780	9.489360	-0.388781	2.522933	-0.116682	-0.001762	0.013333	1.000000	0.000019	-0.000031	0.000021	-8.780768	-75.626971	1.281419
41781	9.520416	-0.360274	2.523921	-0.107112	0.027026	0.042569	1.000000	0.000009	-0.000026	0.000017	-8.786099	-75.631187	1.284874
41782	9.481028	-0.377040	2.463920	-0.062222	0.002508	-0.009674	1.000000	0.000016	-0.000037	0.000017	-8.790986	-75.636832	1.292871
41783	9.544987	-0.402521	2.427739	-0.015801	-0.026938	0.044379	1.000000	0.000026	-0.000042	0.000020	-8.796585	-75.642852	1.298611
41784	9.547139	-0.361130	2.383903	0.030876	0.008513	0.034151	1.000000	0.000042	-0.000054	0.000016	-8.799446	-75.650295	1.304820
41785	9.543989	-0.396484	2.334886	0.071624	-0.032936	0.020440	1.000000	0.000035	-0.000038	0.000011	-8.799787	-75.655922	1.306168
41786	9.582219	-0.373629	2.302725	0.114131	-0.014418	0.048744	1.000000	0.000038	-0.000010	0.000001	-8.793360	-75.658732	1.303066
41787	9.608596	-0.362467	2.342316	0.083742	0.001688	0.083571	1.000000	0.000043	0.000007	0.000003	-8.786143	-75.659440	1.297651
41788	9.577571	-0.390967	2.341254	0.073619	-0.027375	0.054329	1.000000	0.000056	0.000034	-0.000010	-8.769828	-75.657411	1.286587
41789	9.595792	-0.308168	2.367328	0.064247	0.057502	0.075235	1.000000	0.000056	0.000074	-0.000009	-8.751296	-75.650739	1.271048
41790	9.564500	-0.336906	2.367305	0.054123	0.028443	0.045992	1.000000	0.000026	0.000077	0.000023	-8.750047	-75.643303	1.271710
41791	9.539836	-0.295294	2.463745	-0.037991	0.082014	0.044165	1.000000	0.000015	0.000092	0.000007	-8.742217	-75.634323	1.262292
41792	9.486843	-0.306259	2.563522	-0.146972	0.083753	0.017725	1.000000	0.000004	0.000076	0.000018	-8.741453	-75.627098	1.260857
41793	9.498308	-0.294777	2.493435	-0.074319	0.086008	0.011215	1.000000	0.000018	0.000053	0.000017	-8.739951	-75.622322	1.258358
41794	9.471084	-0.354022	2.588893	-0.179419	0.039778	0.010517	1.000000	-0.000009	0.000049	0.000031	-8.748186	-75.617892	1.263766
41795	9.495887	-0.337314	2.537984	-0.121830	0.050159	0.021419	1.000000	0.000012	0.000015	0.000029	-8.755287	-75.617259	1.269435
41796	9.495140	-0.397076	2.494774	-0.088120	-0.014226	0.012347	1.000000	-0.000020	-0.000007	0.000041	-8.772880	-75.618972	1.283191
41797	9.493975	-0.380313	2.580505	-0.169348	0.014316	0.031617	1.000000	-0.000002	-0.000047	0.000034	-8.788319	-75.625263	1.295847
41798	9.554012	-0.375904	2.448223	-0.027982	0.001984	0.057139	1.000000	0.000042	-0.000049	0.000010	-8.788092	-75.632225	1.298860
41799	9.562840	-0.388411	2.505121	-0.083277	-0.002667	0.080111	1.000000	0.000015	-0.000058	0.000031	-8.800851	-75.639867	1.310692
41800	9.571569	-0.412446	2.384497	0.030362	-0.041772	0.059912	1.000000	0.000034	-0.000064	0.000031	-8.811955	-75.648088	1.323491
41801	9.540866	-0.441581	2.381968	0.020250	-0.070819	0.030659	1.000000	0.000036	-0.000047	0.000023	-8.818259	-75.654621	1.331120
41802	9.566014	-0.424539	2.329672	0.077828	-0.060475	0.041577	1.000000	0.000047	-0.000036	0.000018	-8.820274	-75.660024	1.336950
41803	9.601645	-0.378091	2.292629	0.127372	-0.019081	0.065273	1.000000	0.000073	-0.000013	0.000019	-8.818075	-75.662729	1.340273
41804	9.539724	-0.435858	2.289718	0.107399	-0.077033	0.006765	1.000000	0.000021	0.000015	0.000026	-8.822826	-75.662261	1.347002
41805	9.567974	-0.383362	2.286663	0.123999	-0.025359	0.031392	1.000000	0.000055	0.000018	-0.000002	-8.811428	-75.661804	1.338630
41806	9.529683	-0.406060	2.318993	0.080923	-0.044120	0.003064	1.000000	0.000003	0.000041	0.000011	-8.809978	-75.658633	1.336838
41807	9.555836	-0.395265	2.359389	0.050528	-0.027995	0.037877	1.000000	0.000016	0.000042	0.000019	-8.810331	-75.655088	1.335996
41808	9.537815	-0.418672	2.378679	0.025340	-0.048903	0.026026	1.000000	0.000027	0.000058	0.000008	-8.803517	-75.649989	1.329725
41809	9.563913	-0.407687	2.419283	-0.005056	-0.032774	0.060836	1.000000	0.000003	0.000046	0.000005	-8.799143	-75.646253	1.322450
41810	9.563680	-0.407812	2.420182	-0.005337	-0.032915	0.060836	1.000000	0.000015	0.000047	0.000013	-8.796523	-75.642336	1.319816
41811	9.515491	-0.400832	2.480988	-0.074309	-0.018448	0.028789	1.000000	0.000020	0.000030	0.000008	-8.792428	-75.640405	1.314836
41812	9.528496	-0.395402	2.501412	-0.089651	-0.010447	0.046192	1.000000	0.000001	0.000035	0.000007	-8.789983	-75.637963	1.310296
41813	9.517226	-0.359361	2.439008	-0.027844	0.016815	0.018611	1.000000	0.000031	0.000006	-0.000004	-8.781031	-75.638937	1.301597
41814	9.499435	-0.382594	2.457354	-0.053032	-0.004077	0.006752	1.000000	0.000013	-0.000004	0.000014	-8.782665	-75.640755	1.302779
41815	9.558046	-0.360570	2.411999	0.007371	0.012217	0.051581	1.000000	0.000030	-0.000020	0.000016	-8.784510	-75.644317	1.305158
41816	9.524577	-0.365586	2.405243	0.004282	0.006099	0.017692	1.000000	0.000036	-0.000021	0.000003	-8.780027	-75.648325	1.303022
41817	9.562802	-0.342801	2.373310	0.046808	0.024547	0.046040	1.000000	0.000054	-0.000003	0.000013	-8.776478	-75.650004	1.302619
41818	9.542434	-0.342223	2.386648	0.028652	0.026568	0.029555	1.000000	0.000051	-0.000009	0.000008	-8.771826	-75.652545	1.302525
41819	9.583238	-0.343246	2.359714	0.064138	0.022094	0.062530	1.000000	0.000032	-0.000004	0.000008	-8.768809	-75.654424	1.300081
41820	9.559456	-0.378218	2.325166	0.086948	-0.017244	0.032352	1.000000	0.000053	0.000016	0.000028	-8.770843	-75.653781	1.306369
41821	9.569945	-0.349264	2.340334	0.078659	0.013666	0.045133	1.000000	0.000031	0.000010	0.000029	-8.776342	-75.653723	1.312648
41822	9.542228	-0.342884	2.387379	0.027568	0.026001	0.029559	1.000000	0.000042	0.000031	0.000012	-8.771736	-75.651667	1.310741
41823	9.549257	-0.349151	2.354898	0.060242	0.015547	0.028648	1.000000	0.000028	0.000043	0.000026	-8.773857	-75.647861	1.313211
41824	9.524024	-0.366682	2.407266	0.002101	0.004974	0.017693	1.000000	0.000007	0.000042	0.000021	-8.776503	-75.644359	1.315153
41825	9.536968	-0.361518	2.427897	-0.013229	0.012976	0.035094	1.000000	0.000028	0.000043	0.000026	-8.778624	-75.640552	1.317622
41826	9.539323	-0.385691	2.433701	-0.020566	-0.010081	0.039714	1.000000	0.000009	0.000049	0.000025	-8.782271	-75.636300	1.321586
41827	9.524624	-0.373898	2.500998	-0.086706	0.010414	0.041531	1.000000	0.000016	0.000042	0.000019	-8.782632	-75.632756	1.320749
41828	9.531736	-0.380201	2.468210	-0.054055	-0.000046	0.040621	1.000000	0.000003	0.000001	0.000010	-8.783468	-75.634114	1.320827
41829	9.534270	-0.404211	2.473317	-0.061374	-0.023096	0.045238	1.000000	-0.000001	0.000019	0.000015	-8.785846	-75.633291	1.320066
41830	9.518439	-0.386137	2.448856	-0.039529	-0.008465	0.023219	1.000000	0.000025	0.000007	0.000009	-8.783281	-75.633920	1.317940
41831	9.531586	-0.380726	2.468707	-0.054861	-0.000458	0.040616	1.000000	0.000013	-0.000004	0.000014	-8.784857	-75.635678	1.318033
41832	9.518441	-0.386457	2.448798	-0.040072	-0.008747	0.023216	1.000000	0.000023	-0.000009	0.000017	-8.787018	-75.638014	1.321390
41833	9.538876	-0.387077	2.435231	-0.022471	-0.011065	0.039709	1.000000	0.000029	-0.000010	0.000004	-8.782933	-75.640672	1.317518
41834	9.523149	-0.368851	2.410395	-0.000618	0.003557	0.017694	1.000000	0.000022	-0.000004	0.000011	-8.782170	-75.642519	1.317136
41835	9.532982	-0.398952	2.382017	0.024990	-0.029824	0.021407	1.000000	0.000026	-0.000008	0.000027	-8.788481	-75.644467	1.323668
41836	9.556695	-0.364365	2.416775	0.001640	0.009241	0.051586	1.000000	0.000027	0.000013	0.000013	-8.786970	-75.644342	1.323591
41837	9.553318	-0.399818	2.368802	0.042310	-0.032291	0.037903	1.000000	0.000032	-0.000004	0.000008	-8.783966	-75.646224	1.321158
41838	9.566428	-0.394513	2.388789	0.026963	-0.024286	0.055300	1.000000	0.000024	0.000021	0.000030	-8.789864	-75.644950	1.328471
41839	9.548527	-0.418069	2.407425	0.001766	-0.045151	0.043417	1.000000	0.000028	0.000009	0.000019	-8.791313	-75.645217	1.330180
41840	9.545893	-0.394631	2.402634	0.008560	-0.022383	0.038804	1.000000	0.000019	0.000004	0.000028	-8.798023	-75.645896	1.336741
41841	9.541197	-0.412638	2.440904	-0.031705	-0.035094	0.044315	1.000000	0.000028	0.000009	0.000019	-8.799473	-75.646164	1.338451
41842	9.548362	-0.418907	2.407932	0.000950	-0.045572	0.043416	1.000000	0.000027	0.000013	0.000013	-8.798007	-75.646017	1.337802
41843	9.564044	-0.437066	2.432937	-0.021456	-0.060470	0.065421	1.000000	0.000043	0.000012	-0.000003	-8.787850	-75.646280	1.329282
41844	9.540989	-0.412793	2.441692	-0.032526	-0.035509	0.044310	1.000000	0.000021	0.000015	0.000026	-8.792705	-75.645763	1.335014
41845	9.525220	-0.394479	2.417061	-0.010655	-0.020892	0.022304	1.000000	0.000044	-0.000007	-0.000018	-8.777014	-75.648417	1.320912
41846	9.532448	-0.400473	2.383900	0.021997	-0.031377	0.021409	1.000000	0.000019	0.000009	0.000022	-8.780803	-75.648674	1.325110
41847	9.545596	-0.395005	2.403751	0.006662	-0.023366	0.038803	1.000000	0.000028	-0.000005	-0.000002	-8.773745	-75.650880	1.318105
41848	9.576587	-0.366163	2.405188	0.016251	0.005362	0.068088	1.000000	0.000022	0.000001	0.000005	-8.770190	-75.652309	1.315314
41849	9.563388	-0.371667	2.385533	0.031052	-0.002934	0.050696	1.000000	0.000024	0.000012	0.000003	-8.764611	-75.652448	1.309318
41850	9.558182	-0.324080	2.375840	0.044935	0.042742	0.041481	1.000000	0.000012	0.000006	0.000001	-8.760346	-75.653334	1.304431
41851	9.558109	-0.324106	2.376130	0.044671	0.042598	0.041483	1.000000	0.000008	0.000024	0.000006	-8.757456	-75.652120	1.299269
41852	9.519823	-0.346805	2.408135	0.001595	0.023952	0.013087	1.000000	0.000034	0.000002	0.000012	-8.755569	-75.653323	1.300033
41853	9.550723	-0.318071	2.409915	0.011201	0.052671	0.042376	1.000000	0.000029	0.000030	0.000005	-8.749182	-75.651457	1.293785
41854	9.542590	-0.371318	2.400491	0.011829	-0.001434	0.034196	1.000000	0.000011	0.000020	0.000023	-8.753425	-75.650433	1.296890
41855	9.553015	-0.342378	2.415920	0.003578	0.029487	0.046983	1.000000	0.000038	0.000038	0.000029	-8.756235	-75.647144	1.301232
41856	9.563892	-0.378632	2.479513	-0.058860	0.002057	0.074471	1.000000	0.000026	0.000032	0.000028	-8.760299	-75.644636	1.306314
41857	9.539528	-0.348758	2.397298	0.018105	0.021049	0.029593	1.000000	0.000034	0.000016	0.000033	-8.766890	-75.643804	1.314038
41858	9.524929	-0.336910	2.464068	-0.048022	0.041638	0.031365	1.000000	0.000033	0.000021	0.000027	-8.770512	-75.642620	1.319704
41859	9.539782	-0.414620	2.446095	-0.036631	-0.037580	0.044288	1.000000	0.000040	0.000015	0.000020	-8.770760	-75.642174	1.321595
41860	9.555016	-0.367871	2.422874	-0.004876	0.005878	0.051588	1.000000	0.000023	-0.000009	0.000017	-8.773011	-75.644501	1.324336
41861	9.516733	-0.390698	2.454756	-0.047938	-0.012745	0.023177	1.000000	0.000043	0.000021	0.000024	-8.774341	-75.643279	1.327666
41862	9.534535	-0.367760	2.436501	-0.023273	0.007807	0.035081	1.000000	0.000033	-0.000014	0.000020	-8.777266	-75.646139	1.332757
41863	9.557502	-0.392392	2.428036	-0.012782	-0.017449	0.056189	1.000000	0.000019	0.000009	0.000022	-8.781011	-75.646345	1.335732
41864	9.544312	-0.398246	2.408311	0.002011	-0.025751	0.038799	1.000000	0.000026	-0.000003	0.000021	-8.784366	-75.647890	1.340091
41865	9.554874	-0.369276	2.423223	-0.006229	0.005172	0.051588	1.000000	0.000009	0.000009	0.000025	-8.790400	-75.648033	1.344329
41866	9.544227	-0.398832	2.408551	0.001469	-0.026030	0.038799	1.000000	0.000025	0.000007	0.000009	-8.787870	-75.648667	1.342376
41867	9.541571	-0.375261	2.403924	0.008300	-0.003269	0.034199	1.000000	0.000023	0.000026	0.000024	-8.790801	-75.646869	1.345095
41868	9.541454	-0.375628	2.404332	0.008021	-0.003407	0.034200	1.000000	0.000021	0.000015	0.000026	-8.795696	-75.646366	1.350158
41869	9.557097	-0.394199	2.429338	-0.014416	-0.018286	0.056185	1.000000	0.000019	0.000009	0.000022	-8.799443	-75.646572	1.353135
41870	9.507704	-0.381314	2.398549	0.004701	-0.009632	0.000302	1.000000	0.000004	0.000031	0.000023	-8.804011	-75.644255	1.357192
41871	9.539020	-0.418064	2.448477	-0.039912	-0.039245	0.044269	1.000000	0.000028	0.000009	0.000019	-8.805470	-75.644524	1.358909
41872	9.536408	-0.394474	2.443698	-0.033084	-0.016480	0.039671	1.000000	0.000037	0.000008	0.000016	-8.804732	-75.644908	1.360006
41873	9.523196	-0.400206	2.424084	-0.018282	-0.024785	0.022284	1.000000	0.000028	0.000009	0.000019	-8.806193	-75.645177	1.361723
41874	9.520603	-0.376585	2.419239	-0.011448	-0.002021	0.017688	1.000000	0.000034	0.000002	0.000012	-8.804372	-75.646319	1.361398
41875	9.515904	-0.394215	2.457409	-0.051737	-0.014668	0.023155	1.000000	0.000032	-0.000004	0.000008	-8.801386	-75.648204	1.358981
41876	9.556741	-0.395438	2.430536	-0.016323	-0.019260	0.056180	1.000000	0.000042	-0.000009	0.000011	-8.799116	-75.650640	1.359316
41877	9.536359	-0.394833	2.443829	-0.034434	-0.017171	0.039665	1.000000	0.000032	-0.000004	0.000008	-8.796130	-75.652525	1.356897
41878	9.564830	-0.342353	2.440231	-0.017708	0.034431	0.064377	1.000000	0.000032	-0.000004	0.000008	-8.793282	-75.654435	1.356382
41879	9.527923	-0.382849	2.385757	0.020123	-0.013113	0.016817	1.000000	0.000022	-0.000004	0.000011	-8.792583	-75.656258	1.355223
41880	9.545794	-0.359708	2.367317	0.044799	0.007416	0.028740	1.000000	0.000019	-0.000005	0.000001	-8.787921	-75.658481	1.351016
41881	9.522803	-0.335242	2.375869	0.033809	0.032404	0.007634	1.000000	0.000036	0.000018	0.000004	-8.781137	-75.657910	1.345198
41882	9.548240	-0.383500	2.372722	0.037142	-0.015762	0.033334	1.000000	0.000019	0.000009	0.000022	-8.785029	-75.658164	1.349606
41883	9.558792	-0.354263	2.387736	0.028923	0.015163	0.046127	1.000000	0.000012	0.000011	-0.000005	-8.777679	-75.658567	1.340295
41884	9.558679	-0.354199	2.388199	0.028645	0.015023	0.046128	1.000000	0.000032	0.000036	0.000009	-8.772421	-75.655996	1.337197
41885	9.545399	-0.360076	2.368854	0.043450	0.006709	0.028747	1.000000	0.000013	0.000010	0.000035	-8.782517	-75.655815	1.346012
41886	9.551199	-0.348464	2.422220	-0.004803	0.025147	0.046995	1.000000	0.000035	0.000028	-0.000008	-8.769789	-75.654384	1.334971
41887	9.537893	-0.354072	2.403018	0.010002	0.016834	0.029613	1.000000	0.000026	0.000032	0.000028	-8.773805	-75.651810	1.339131
41888	9.530487	-0.348313	2.436728	-0.023178	0.027107	0.030476	1.000000	0.000024	0.000021	0.000030	-8.779777	-75.650501	1.345771
41889	9.558008	-0.355463	2.390695	0.027301	0.014312	0.046133	1.000000	0.000045	0.000032	0.000022	-8.779220	-75.648054	1.347410
41890	9.537492	-0.354969	2.404475	0.009186	0.016414	0.029614	1.000000	0.000025	0.000007	0.000009	-8.776675	-75.648724	1.345740
41891	9.530169	-0.348892	2.437887	-0.023986	0.026690	0.030475	1.000000	0.000040	0.000015	0.000020	-8.776935	-75.648281	1.347638
41892	9.537342	-0.355384	2.405010	0.008645	0.016131	0.029615	1.000000	0.000021	0.000015	0.000026	-8.781753	-75.647768	1.353234
41893	9.532569	-0.373317	2.443337	-0.031656	0.003515	0.035060	1.000000	0.000038	-0.000001	0.000028	-8.786889	-75.649005	1.359967
41894	9.552973	-0.374266	2.429943	-0.014100	0.001131	0.051581	1.000000	0.000026	-0.000003	0.000021	-8.790301	-75.650567	1.363534
41895	9.539780	-0.380130	2.410262	0.000705	-0.007186	0.034201	1.000000	0.000009	0.000014	0.000018	-8.793360	-75.650259	1.364636
41896	9.546972	-0.386656	2.377308	0.033329	-0.017752	0.033344	1.000000	0.000019	0.000009	0.000022	-8.797136	-75.650540	1.367829
41897	9.542173	-0.404518	2.415731	-0.006978	-0.030360	0.038784	1.000000	0.000031	0.000015	0.000023	-8.799683	-75.650034	1.370987
41898	9.539563	-0.381067	2.410971	-0.000119	-0.007607	0.034201	1.000000	0.000019	0.000009	0.000022	-8.803450	-75.650298	1.374885
41899	9.555180	-0.399523	2.436002	-0.022596	-0.022463	0.056161	1.000000	0.000018	0.000014	0.000016	-8.804224	-75.650054	1.374728
41900	9.559805	-0.382165	2.398201	0.017172	-0.010140	0.050725	1.000000	0.000020	0.000025	0.000014	-8.803160	-75.648614	1.374563
41901	9.532008	-0.375477	2.445197	-0.033827	0.002406	0.035053	1.000000	0.000030	0.000020	0.000017	-8.802729	-75.647657	1.374585
41902	9.521248	-0.405054	2.430923	-0.026176	-0.028803	0.022255	1.000000	0.000035	0.000032	0.000025	-8.804502	-75.645221	1.377307
41903	9.534231	-0.399656	2.451335	-0.041516	-0.020762	0.039631	1.000000	0.000020	0.000030	0.000008	-8.800399	-75.643299	1.372315
41904	9.518425	-0.381584	2.427012	-0.019577	-0.006186	0.017673	1.000000	0.000030	0.000020	0.000017	-8.800068	-75.642401	1.372486
41905	9.551922	-0.376826	2.433673	-0.017088	-0.000404	0.051576	1.000000	0.000025	0.000002	0.000015	-8.800459	-75.643448	1.372773
41906	9.533994	-0.400130	2.452182	-0.042335	-0.021169	0.039627	1.000000	0.000028	0.000009	0.000019	-8.802050	-75.643750	1.375404
41907	9.551836	-0.377109	2.433970	-0.017628	-0.000679	0.051575	1.000000	0.000034	0.000007	0.000006	-8.797181	-75.644411	1.371299
41908	9.551831	-0.377189	2.433975	-0.017895	-0.000815	0.051575	1.000000	0.000023	-0.000009	0.000017	-8.799578	-75.646685	1.373555
41909	9.518263	-0.382244	2.427547	-0.020915	-0.006874	0.017670	1.000000	0.000025	0.000007	0.000009	-8.796991	-75.647281	1.370706
41910	9.549231	-0.353633	2.429220	-0.011283	0.021801	0.046997	1.000000	0.000017	0.000019	0.000010	-8.794943	-75.646625	1.368837
41911	9.538584	-0.383036	2.414532	-0.003631	-0.009414	0.034198	1.000000	0.000020	-0.000010	0.000007	-8.793177	-75.649226	1.366252
41912	9.556479	-0.359926	2.396133	0.021078	0.011070	0.046153	1.000000	0.000034	0.000007	0.000006	-8.788384	-75.649905	1.363561
41913	9.538548	-0.383174	2.414650	-0.004168	-0.009692	0.034198	1.000000	0.000028	0.000004	0.000025	-8.792836	-75.650627	1.368424
41914	9.540746	-0.342153	2.371509	0.042761	0.025491	0.024206	1.000000	0.000025	0.000002	0.000015	-8.793278	-75.651758	1.370303
41915	9.556384	-0.360386	2.396445	0.020264	0.010646	0.046155	1.000000	0.000034	0.000007	0.000006	-8.788407	-75.652419	1.366196
41916	9.535915	-0.359717	2.410016	0.002170	0.012779	0.029624	1.000000	0.000015	0.000012	0.000005	-8.785208	-75.652537	1.362712
41917	9.558769	-0.384244	2.401997	0.012563	-0.012523	0.050729	1.000000	0.000030	0.000020	0.000017	-8.784781	-75.651581	1.362736
41918	9.543000	-0.366156	2.377571	0.034522	0.002038	0.028784	1.000000	0.000049	0.000019	0.000011	-8.779872	-75.650806	1.360892
41919	9.535602	-0.360117	2.411196	0.001364	0.012359	0.029624	1.000000	0.000014	0.000026	0.000027	-8.785091	-75.648946	1.364867
41920	9.535502	-0.360450	2.411542	0.001091	0.012220	0.029625	1.000000	0.000028	0.000009	0.000019	-8.786621	-75.649260	1.366319
41921	9.535447	-0.360678	2.411725	0.000825	0.012079	0.029625	1.000000	0.000028	0.000009	0.000019	-8.788096	-75.649531	1.368045
41922	9.555812	-0.361577	2.398543	0.018365	0.009661	0.046160	1.000000	0.000028	0.000009	0.000019	-8.789602	-75.649868	1.370371
41923	9.553235	-0.338189	2.393701	0.025269	0.032404	0.041591	1.000000	0.000022	0.000010	0.000032	-8.797420	-75.649750	1.377928
41924	9.524608	-0.390813	2.397673	0.007913	-0.019417	0.016824	1.000000	0.000026	0.000023	0.000001	-8.789991	-75.648697	1.370905
41925	9.555573	-0.362249	2.399395	0.017561	0.009236	0.046161	1.000000	0.000019	0.000009	0.000022	-8.793749	-75.648905	1.373888
41926	9.524458	-0.391286	2.398191	0.007377	-0.019698	0.016823	1.000000	0.000031	0.000010	0.000029	-8.799324	-75.648864	1.381457
41927	9.535016	-0.362250	2.413193	-0.000789	0.011238	0.029626	1.000000	0.000018	0.000014	0.000016	-8.800102	-75.648621	1.381302
41928	9.537439	-0.386160	2.418554	-0.008235	-0.011784	0.034193	1.000000	0.000017	0.000019	0.000010	-8.797978	-75.647948	1.377561
41929	9.547995	-0.356976	2.433588	-0.016398	0.019154	0.046996	1.000000	0.000028	0.000009	0.000019	-8.799455	-75.648220	1.379289
41930	9.521643	-0.368371	2.394230	0.013476	0.002625	0.012257	1.000000	0.000040	0.000015	0.000020	-8.799743	-75.647820	1.381871
41931	9.537210	-0.386688	2.419370	-0.009044	-0.012205	0.034192	1.000000	0.000027	0.000013	0.000013	-8.798240	-75.647642	1.380461
41932	9.537102	-0.386867	2.419769	-0.009324	-0.012346	0.034191	1.000000	0.000033	0.000026	0.000021	-8.798892	-75.645990	1.382848
41933	9.534492	-0.363438	2.415084	-0.002409	0.010397	0.029627	1.000000	0.000031	0.000010	0.000029	-8.804430	-75.645936	1.389150
41934	9.550054	-0.381751	2.440229	-0.024945	-0.004428	0.051558	1.000000	0.000036	0.000018	0.000004	-8.797712	-75.645442	1.383936
41935	9.536849	-0.387322	2.420694	-0.010138	-0.012765	0.034190	1.000000	0.000025	0.000007	0.000009	-8.795132	-75.646040	1.381092
41936	9.570352	-0.382546	2.427354	-0.007682	-0.007002	0.068098	1.000000	0.000018	0.000014	0.000016	-8.795941	-75.645865	1.381460
41937	9.543992	-0.393798	2.388076	0.022198	-0.023540	0.033363	1.000000	0.000036	0.000018	0.000004	-8.789179	-75.645301	1.375659
41938	9.539122	-0.411270	2.426617	-0.018146	-0.036064	0.038750	1.000000	0.000027	0.000013	0.000013	-8.787745	-75.645149	1.375325
41939	9.529289	-0.381321	2.454872	-0.044106	-0.002825	0.035012	1.000000	0.000013	0.000001	0.000007	-8.786367	-75.646459	1.372299
41940	9.556960	-0.388406	2.408515	0.006303	-0.015762	0.050730	1.000000	0.000027	0.000013	0.000013	-8.784897	-75.646355	1.372217
41941	9.523358	-0.393507	2.402192	0.003303	-0.021803	0.016821	1.000000	0.000026	-0.000003	0.000021	-8.788280	-75.647855	1.375649
41942	9.531424	-0.340515	2.412148	0.002341	0.032019	0.025067	1.000000	0.000029	0.000030	0.000005	-8.781966	-75.646048	1.370634
41943	9.543643	-0.394345	2.389381	0.020565	-0.024385	0.033365	1.000000	0.000022	-0.000004	0.000011	-8.781290	-75.647873	1.369493
41944	9.533849	-0.364422	2.417474	-0.005396	0.008858	0.029627	1.000000	0.000025	0.000002	0.000015	-8.781686	-75.648986	1.369679
41945	9.541098	-0.370775	2.384476	0.027217	-0.001791	0.028807	1.000000	0.000024	0.000012	0.000003	-8.776125	-75.649134	1.363696
41946	9.531270	-0.340768	2.412719	0.001268	0.031458	0.025069	1.000000	0.000025	0.000002	0.000015	-8.776586	-75.650206	1.365010
41947	9.556624	-0.389145	2.409731	0.004404	-0.016748	0.050730	1.000000	0.000030	0.000020	0.000017	-8.776166	-75.649252	1.365039
41948	9.567173	-0.359936	2.424802	-0.003748	0.014195	0.063537	1.000000	0.000027	0.000013	0.000013	-8.774743	-75.649140	1.364985
41949	9.533550	-0.364861	2.418588	-0.006742	0.008160	0.029627	1.000000	0.000056	0.000008	0.000011	-8.769387	-75.649608	1.362955
41950	9.551433	-0.341948	2.400351	0.017989	0.028587	0.041618	1.000000	0.000018	0.000009	0.000022	-8.773178	-75.649869	1.365816
41951	9.533446	-0.365227	2.418940	-0.007283	0.007880	0.029626	1.000000	0.000015	0.000007	0.000012	-8.772880	-75.650403	1.364226
41952	9.533398	-0.365366	2.419109	-0.007565	0.007738	0.029626	1.000000	0.000037	0.000008	0.000016	-8.772068	-75.650834	1.364715
41953	9.561084	-0.372545	2.372734	0.042843	-0.005239	0.045361	1.000000	0.000025	0.000002	0.000015	-8.772473	-75.651883	1.365011
41954	9.535817	-0.389417	2.424418	-0.015316	-0.015420	0.034180	1.000000	0.000015	0.000007	0.000012	-8.772170	-75.652468	1.364038
41955	9.553674	-0.366633	2.406280	0.009426	0.004999	0.046176	1.000000	0.000033	0.000021	0.000027	-8.775814	-75.651189	1.368643
41956	9.553577	-0.366870	2.406631	0.009153	0.004857	0.046176	1.000000	0.000027	0.000013	0.000013	-8.774327	-75.651052	1.366980
41957	9.546222	-0.360624	2.439996	-0.023986	0.015245	0.046987	1.000000	0.000025	0.000007	0.000009	-8.771750	-75.651651	1.364137
41958	9.555955	-0.390890	2.412098	0.001392	-0.018301	0.050728	1.000000	0.000018	0.000009	0.000022	-8.775521	-75.651924	1.367849
41959	9.519824	-0.372288	2.400849	0.005620	-0.001455	0.012265	1.000000	0.000030	0.000020	0.000017	-8.775104	-75.650971	1.367879
41960	9.545997	-0.361208	2.440788	-0.024809	0.014824	0.046985	1.000000	0.000027	0.000013	0.000013	-8.773617	-75.650867	1.368967
41961	9.553204	-0.367739	2.407977	0.007795	0.004150	0.046177	1.000000	0.000021	0.000020	0.000020	-8.775479	-75.649850	1.370249
41962	9.539990	-0.373607	2.388464	0.022599	-0.004201	0.028818	1.000000	0.000028	0.000009	0.000019	-8.777008	-75.650147	1.372572
41963	9.553065	-0.368270	2.408446	0.007257	0.003868	0.046178	1.000000	0.000018	0.000009	0.000022	-8.780774	-75.650356	1.375558
41964	9.535078	-0.391391	2.427008	-0.018029	-0.016819	0.034173	1.000000	0.000053	0.000002	0.000007	-8.774331	-75.651616	1.370688
41965	9.539827	-0.374248	2.389016	0.021796	-0.004629	0.028820	1.000000	0.000005	0.000021	0.000035	-8.784811	-75.650141	1.379051
41966	9.534912	-0.392042	2.427553	-0.018574	-0.017099	0.034171	1.000000	0.000037	0.000008	0.000016	-8.784041	-75.650534	1.379762
41967	9.573235	-0.369927	2.396005	0.023969	0.000970	0.062734	1.000000	0.000018	0.000014	0.000016	-8.784823	-75.650292	1.379608
41968	9.532320	-0.368651	2.422857	-0.011890	0.005494	0.029624	1.000000	0.000025	0.000002	0.000015	-8.785263	-75.651398	1.379318
41969	9.555197	-0.393238	2.414721	-0.001597	-0.019852	0.050725	1.000000	0.000025	0.000007	0.000009	-8.782690	-75.651999	1.376477
41970	9.534705	-0.392586	2.428280	-0.019659	-0.017655	0.034168	1.000000	0.000027	0.000013	0.000013	-8.781249	-75.651848	1.375668
41971	9.534643	-0.392764	2.428493	-0.019927	-0.017795	0.034167	1.000000	0.000006	0.000008	0.000014	-8.783231	-75.652317	1.375332
41972	9.554982	-0.393745	2.415487	-0.002413	-0.020273	0.050724	1.000000	0.000033	0.000026	0.000021	-8.783895	-75.650633	1.378185
41973	9.518874	-0.375142	2.404168	0.001842	-0.003423	0.012266	1.000000	0.000026	-0.000003	0.000021	-8.787292	-75.652134	1.381627
41974	9.534480	-0.393406	2.429030	-0.020746	-0.018212	0.034165	1.000000	0.000032	-0.000004	0.000008	-8.784437	-75.654077	1.380479
41975	9.539274	-0.376023	2.390945	0.019087	-0.006042	0.028825	1.000000	0.000027	0.000018	0.000007	-8.779958	-75.653452	1.375933
41976	9.531901	-0.369684	2.424347	-0.014043	0.004379	0.029621	1.000000	0.000025	0.000007	0.000009	-8.777434	-75.654058	1.373991
41977	9.521193	-0.399192	2.409823	-0.006475	-0.026850	0.016807	1.000000	0.000028	0.000009	0.000019	-8.778925	-75.654332	1.375728
41978	9.565360	-0.365170	2.431163	-0.011875	0.009978	0.063536	1.000000	0.000028	0.000009	0.000019	-8.780492	-75.654656	1.378645
41979	9.534217	-0.394129	2.429943	-0.022094	-0.018907	0.034161	1.000000	0.000019	0.000004	0.000028	-8.787247	-75.655315	1.384776
41980	9.531723	-0.370538	2.424914	-0.015122	0.003823	0.029620	1.000000	0.000053	0.000002	0.000007	-8.780885	-75.656591	1.383259
41981	9.538970	-0.376938	2.392013	0.017471	-0.006886	0.028827	1.000000	0.000030	0.000020	0.000017	-8.780471	-75.655640	1.383290
41982	9.552016	-0.371565	2.412101	0.002118	0.001196	0.046181	1.000000	0.000018	0.000009	0.000022	-8.784298	-75.655902	1.384645
41983	9.538831	-0.377471	2.392483	0.016927	-0.007169	0.028828	1.000000	0.000028	0.000009	0.000019	-8.785792	-75.656177	1.386384
41984	9.562585	-0.342667	2.427089	-0.006252	0.032004	0.058997	1.000000	0.000025	0.000002	0.000015	-8.786216	-75.657288	1.387706
41985	9.551898	-0.372204	2.412468	0.001307	0.000772	0.046181	1.000000	0.000025	0.000002	0.000015	-8.786632	-75.658339	1.388010
41986	9.549398	-0.348656	2.407472	0.008284	0.023501	0.041645	1.000000	0.000028	0.000009	0.000019	-8.788227	-75.658665	1.390103
41987	9.551803	-0.372434	2.412810	0.000764	0.000494	0.046181	1.000000	0.000033	0.000012	-0.000000	-8.780392	-75.658883	1.382868
41988	9.538629	-0.378156	2.393182	0.015571	-0.007872	0.028830	1.000000	0.000028	0.000004	0.000025	-8.784900	-75.659620	1.390004
41989	9.569695	-0.349738	2.394647	0.025262	0.020720	0.058212	1.000000	0.000025	0.000007	0.000009	-8.782329	-75.660222	1.387164
41990	9.538508	-0.378607	2.393594	0.015026	-0.008152	0.028830	1.000000	0.000024	0.000021	0.000030	-8.788356	-75.658941	1.394805
41991	9.554002	-0.397061	2.418821	-0.007577	-0.022932	0.050715	1.000000	0.000028	0.000009	0.000019	-8.789852	-75.659217	1.396545
41992	9.551480	-0.373490	2.413925	-0.000601	-0.000205	0.046181	1.000000	0.000027	0.000013	0.000013	-8.788432	-75.659132	1.396934
41993	9.553869	-0.397453	2.419282	-0.008129	-0.023211	0.050714	1.000000	0.000018	0.000009	0.000022	-8.792205	-75.659342	1.399926
41994	9.551339	-0.374070	2.414393	-0.001141	-0.000486	0.046181	1.000000	0.000021	0.000015	0.000026	-8.797105	-75.658804	1.406365
41995	9.538156	-0.379982	2.394775	0.013669	-0.008856	0.028832	1.000000	0.000025	0.000002	0.000015	-8.797524	-75.659856	1.406672
41996	9.551181	-0.374438	2.414959	-0.001679	-0.000764	0.046181	1.000000	0.000032	0.000036	0.000009	-8.792321	-75.657254	1.402548
41997	9.517493	-0.379515	2.408946	-0.004644	-0.006770	0.012263	1.000000	0.000031	0.000010	0.000029	-8.797885	-75.657203	1.408867
41998	9.537886	-0.380378	2.395789	0.012854	-0.009273	0.028832	1.000000	0.000031	0.000006	-0.000004	-8.789057	-75.658251	1.400381
41999	9.550958	-0.374782	2.415790	-0.002491	-0.001185	0.046181	1.000000	0.000009	0.000014	0.000018	-8.792118	-75.657944	1.401479
42000	9.532898	-0.398018	2.434481	-0.027801	-0.021817	0.034140	1.000000	0.000028	0.000009	0.000019	-8.793670	-75.658227	1.403682
42001	9.553273	-0.398965	2.421385	-0.010298	-0.024327	0.050710	1.000000	0.000027	0.000013	0.000013	-8.792181	-75.658054	1.402280
42002	9.550739	-0.375330	2.416568	-0.003298	-0.001602	0.046181	1.000000	0.000017	0.000019	0.000010	-8.790064	-75.657387	1.398560
42003	9.517149	-0.380257	2.410188	-0.006259	-0.007604	0.012262	1.000000	0.000020	-0.000010	0.000007	-8.788329	-75.659992	1.396000
42004	9.550665	-0.375535	2.416831	-0.003848	-0.001882	0.046181	1.000000	0.000033	0.000026	0.000021	-8.789069	-75.658358	1.398210
42005	9.552991	-0.399448	2.422417	-0.011393	-0.024884	0.050707	1.000000	0.000017	0.000019	0.000010	-8.786867	-75.657669	1.394914
42006	9.530004	-0.374966	2.430984	-0.022161	0.000214	0.029607	1.000000	0.000049	0.000019	0.000011	-8.781964	-75.656901	1.391994
42007	9.552811	-0.399595	2.423101	-0.011939	-0.025163	0.050706	1.000000	0.000028	0.000009	0.000019	-8.783465	-75.657178	1.393737
42008	9.537198	-0.381638	2.398324	0.010152	-0.010676	0.028834	1.000000	0.000025	0.000007	0.000009	-8.780999	-75.657772	1.390440
42009	9.550271	-0.376134	2.418294	-0.005193	-0.002581	0.046180	1.000000	0.000028	0.000009	0.000019	-8.782501	-75.658048	1.392184
42010	9.529769	-0.375428	2.431833	-0.023234	-0.000334	0.029605	1.000000	0.000024	0.000012	0.000003	-8.777099	-75.658240	1.386094
42011	9.537029	-0.381985	2.398943	0.009343	-0.011095	0.028834	1.000000	0.000040	0.000010	0.000026	-8.780394	-75.658256	1.391167
42012	9.536940	-0.382084	2.399282	0.009068	-0.011232	0.028834	1.000000	0.000026	0.000023	0.000001	-8.773020	-75.657228	1.385152
42013	9.529582	-0.375801	2.432510	-0.024042	-0.000750	0.029603	1.000000	0.000014	-0.000014	0.000026	-8.780617	-75.659889	1.391566
42014	9.553358	-0.341028	2.467013	-0.047182	0.038446	0.059769	1.000000	0.000017	0.000019	0.000010	-8.778439	-75.659239	1.390182
42015	9.549926	-0.376969	2.419525	-0.006818	-0.003416	0.046178	1.000000	0.000037	0.000008	0.000016	-8.777668	-75.659582	1.390678
42016	9.547435	-0.353412	2.414552	0.000206	0.019304	0.041657	1.000000	0.000028	0.000009	0.000019	-8.779260	-75.659860	1.392449
42017	9.549807	-0.377322	2.419940	-0.007354	-0.003694	0.046178	1.000000	0.000027	0.000013	0.000013	-8.777774	-75.659687	1.391048
42018	9.549749	-0.377404	2.420157	-0.007625	-0.003831	0.046178	1.000000	0.000025	0.000007	0.000009	-8.775314	-75.660315	1.390396
42019	9.534096	-0.359407	2.395579	0.014480	0.010642	0.024316	1.000000	0.000032	0.000031	0.000015	-8.772997	-75.658141	1.388719
42020	9.547122	-0.353952	2.415713	-0.000866	0.018746	0.041658	1.000000	0.000016	0.000002	0.000018	-8.775780	-75.659133	1.392925
42021	9.549530	-0.377707	2.420972	-0.008429	-0.004251	0.046177	1.000000	0.000031	0.000006	-0.000004	-8.766875	-75.660130	1.384262
42022	9.567503	-0.354822	2.402645	0.016365	0.016074	0.058239	1.000000	0.000018	0.000009	0.000022	-8.770732	-75.660322	1.388297
42023	9.518301	-0.406572	2.419995	-0.018941	-0.033233	0.016772	1.000000	0.000037	0.000008	0.000016	-8.769964	-75.660666	1.388795
42024	9.554269	-0.360832	2.383259	0.030904	0.007551	0.040899	1.000000	0.000027	0.000013	0.000013	-8.768642	-75.660526	1.387695
42025	9.549286	-0.378362	2.421832	-0.009502	-0.004804	0.046176	1.000000	0.000021	0.000015	0.000026	-8.773500	-75.659960	1.392124
42026	9.518067	-0.407198	2.420807	-0.019765	-0.033641	0.016769	1.000000	0.000027	0.000013	0.000013	-8.772119	-75.659863	1.390884
42027	9.549136	-0.378835	2.422349	-0.010050	-0.005082	0.046175	1.000000	0.000018	0.000009	0.000022	-8.775898	-75.660074	1.393879
42028	9.564684	-0.332510	2.398823	0.022047	0.038085	0.053728	1.000000	0.000028	0.000004	0.000025	-8.780454	-75.660830	1.398159
42029	9.535915	-0.384910	2.402901	0.004488	-0.013608	0.028835	1.000000	0.000023	0.000017	-0.000003	-8.771912	-75.660536	1.389034
42030	9.541628	-0.372855	2.456074	-0.043694	0.005149	0.046930	1.000000	0.000018	0.000009	0.000022	-8.775708	-75.660752	1.394500
42031	9.548889	-0.379588	2.423206	-0.011127	-0.005642	0.046174	1.000000	0.000040	0.000015	0.000020	-8.776022	-75.660320	1.396434
42032	9.556136	-0.386309	2.390401	0.021438	-0.016434	0.045419	1.000000	0.000030	0.000015	0.000023	-8.778648	-75.659826	1.401674
42033	9.535614	-0.385559	2.403991	0.003416	-0.014171	0.028834	1.000000	0.000033	0.000012	-0.000000	-8.770825	-75.660049	1.394449
42034	9.548655	-0.379965	2.424069	-0.011936	-0.006060	0.046172	1.000000	0.000030	0.000015	0.000023	-8.773475	-75.659582	1.396395
42035	9.569023	-0.380990	2.411050	0.005548	-0.008610	0.062758	1.000000	0.000027	0.000013	0.000013	-8.771993	-75.659411	1.394998
42036	9.535385	-0.385946	2.404837	0.002604	-0.014590	0.028834	1.000000	0.000027	0.000013	0.000013	-8.770557	-75.659263	1.395122
42037	9.527955	-0.379607	2.438283	-0.030495	-0.004069	0.029584	1.000000	0.000030	0.000020	0.000017	-8.770155	-75.658315	1.395158
42038	9.532828	-0.362451	2.400158	0.009375	0.007979	0.024324	1.000000	0.000032	-0.000004	0.000008	-8.767282	-75.660287	1.392726
42039	9.535189	-0.386268	2.405563	0.001788	-0.015012	0.028833	1.000000	0.000020	0.000025	0.000014	-8.766161	-75.658823	1.390864
42040	9.555539	-0.387234	2.392638	0.019261	-0.017567	0.045421	1.000000	0.000027	0.000013	0.000013	-8.764716	-75.658703	1.391537
42041	9.519485	-0.368455	2.381230	0.023646	-0.000697	0.006989	1.000000	0.000027	0.000013	0.000013	-8.763236	-75.658532	1.390140
42042	9.532547	-0.362978	2.401197	0.008299	0.007420	0.024326	1.000000	0.000016	0.000002	0.000018	-8.766082	-75.659522	1.391248
42043	9.552951	-0.363997	2.388058	0.025781	0.004860	0.040916	1.000000	0.000027	0.000013	0.000013	-8.764602	-75.659351	1.389851
42044	9.547982	-0.381281	2.426513	-0.014651	-0.007454	0.046168	1.000000	0.000022	0.000001	0.000005	-8.761033	-75.660793	1.386069
42045	9.545543	-0.357566	2.421412	-0.007590	0.015254	0.041662	1.000000	0.000024	0.000007	0.000009	-8.758475	-75.661398	1.383238
42046	9.565928	-0.358474	2.408368	0.009880	0.012691	0.058253	1.000000	0.000017	0.000018	0.000010	-8.756270	-75.660766	1.380745
42047	9.524945	-0.356968	2.435250	-0.025878	0.017395	0.025070	1.000000	0.000028	0.000009	0.000019	-8.757782	-75.661045	1.382496
42048	9.534662	-0.387402	2.407468	-0.000657	-0.016273	0.028832	1.000000	0.000025	0.000002	0.000015	-8.758232	-75.662130	1.381383
42049	9.555088	-0.388446	2.394243	0.016819	-0.018840	0.045424	1.000000	0.000037	0.000003	0.000022	-8.760466	-75.662925	1.385035
42050	9.558416	-0.352739	2.442021	-0.024026	0.022810	0.058995	1.000000	0.000025	0.000002	0.000015	-8.760977	-75.664035	1.387609
42051	9.534540	-0.387986	2.407856	-0.001470	-0.016693	0.028831	1.000000	0.000030	0.000020	0.000017	-8.760577	-75.663088	1.387647
42052	9.560640	-0.376811	2.447897	-0.031900	-0.000313	0.063496	1.000000	0.000020	0.000025	0.000014	-8.759515	-75.661637	1.385633
42053	9.552403	-0.365491	2.390018	0.023073	0.003442	0.040923	1.000000	0.000025	-0.000003	0.000021	-8.762943	-75.663141	1.389098
42054	9.534360	-0.388519	2.408484	-0.002276	-0.017114	0.028830	1.000000	0.000032	-0.000004	0.000008	-8.760025	-75.665043	1.388666
42055	9.552361	-0.365775	2.390144	0.022539	0.003157	0.040924	1.000000	0.000021	0.000020	0.000020	-8.761896	-75.664028	1.389950
42056	9.547337	-0.383237	2.428742	-0.017900	-0.009132	0.046161	1.000000	0.000028	0.000009	0.000019	-8.763485	-75.664354	1.391591
42057	9.565325	-0.360479	2.410462	0.006916	0.011137	0.058257	1.000000	0.000036	0.000013	0.000010	-8.759737	-75.664251	1.388950
42058	9.552144	-0.366223	2.390941	0.021726	0.002737	0.040926	1.000000	0.000027	0.000013	0.000013	-8.758370	-75.664097	1.386985
42059	9.518524	-0.371329	2.384622	0.018801	-0.003232	0.006999	1.000000	0.000019	0.000004	0.000028	-8.765149	-75.664757	1.393131
42060	9.549460	-0.407636	2.434941	-0.026325	-0.032529	0.050656	1.000000	0.000039	0.000024	0.000008	-8.759580	-75.663440	1.390458
42061	9.551926	-0.366720	2.391736	0.020923	0.002313	0.040928	1.000000	0.000024	0.000007	0.000009	-8.757025	-75.664046	1.387629
42062	9.549292	-0.407897	2.435558	-0.026863	-0.032804	0.050654	1.000000	0.000024	0.000021	0.000030	-8.763073	-75.662692	1.392305
42063	9.551754	-0.367369	2.392324	0.020391	0.002032	0.040929	1.000000	0.000018	0.000009	0.000022	-8.766860	-75.662903	1.395304
42064	9.520536	-0.396157	2.391207	0.010105	-0.026771	0.011497	1.000000	0.000015	0.000007	0.000012	-8.766675	-75.663488	1.394260
42065	9.546682	-0.385017	2.431034	-0.020323	-0.010378	0.046155	1.000000	0.000030	0.000015	0.000023	-8.769271	-75.662990	1.397448
42066	9.531117	-0.367093	2.406244	0.001848	0.004060	0.024331	1.000000	0.000034	0.000007	0.000006	-8.764567	-75.663653	1.396829
42067	9.533470	-0.390871	2.411623	-0.005776	-0.018922	0.028825	1.000000	0.000015	0.000007	0.000012	-8.764282	-75.664191	1.395246
42068	9.531011	-0.367316	2.406627	0.001316	0.003781	0.024331	1.000000	0.000040	0.000015	0.000020	-8.764698	-75.663755	1.398868
42069	9.546394	-0.385434	2.432099	-0.021391	-0.010932	0.046152	1.000000	0.000029	0.000029	0.000005	-8.758314	-75.661912	1.392610
42070	9.533187	-0.391257	2.412681	-0.006580	-0.019340	0.028824	1.000000	0.000018	0.000009	0.000022	-8.762144	-75.662133	1.396532
42071	9.538111	-0.374328	2.374481	0.033327	-0.007360	0.023606	1.000000	0.000025	0.000002	0.000015	-8.762585	-75.663188	1.396854
42072	9.525756	-0.385104	2.446001	-0.039934	-0.008897	0.029547	1.000000	0.000015	0.000007	0.000012	-8.762397	-75.663765	1.397580
42073	9.502847	-0.360588	2.454277	-0.050568	0.016256	0.008452	1.000000	0.000036	0.000013	0.000010	-8.758654	-75.663664	1.394943
42074	9.553451	-0.392736	2.400068	0.010068	-0.022351	0.045425	1.000000	0.000028	0.000008	0.000019	-8.760210	-75.663967	1.397592
42075	9.543637	-0.362721	2.428150	-0.015645	0.011071	0.041658	1.000000	0.000009	0.000014	0.000018	-8.763273	-75.663661	1.398687
42076	9.543526	-0.362998	2.428543	-0.015918	0.010933	0.041657	1.000000	0.000033	0.000026	0.000021	-8.764026	-75.661976	1.402423
42077	9.522974	-0.362269	2.442167	-0.033913	0.013249	0.025052	1.000000	0.000024	0.000007	0.000009	-8.761475	-75.662583	1.399598
42078	9.537679	-0.375425	2.376041	0.031430	-0.008351	0.023612	1.000000	0.000032	-0.000004	0.000008	-8.758551	-75.664539	1.397253
42079	9.543382	-0.363171	2.429084	-0.016728	0.010510	0.041657	1.000000	0.000027	0.000018	0.000007	-8.754084	-75.663922	1.392712
42080	9.553069	-0.393548	2.401454	0.008438	-0.023200	0.045425	1.000000	0.000025	0.000002	0.000015	-8.754569	-75.664987	1.392688
42081	9.517082	-0.374832	2.389823	0.012900	-0.006317	0.007007	1.000000	0.000028	0.000008	0.000019	-8.756091	-75.665267	1.394445
42082	9.532510	-0.393144	2.415047	-0.009835	-0.021017	0.028818	1.000000	0.000018	0.000009	0.000022	-8.759965	-75.665538	1.397182
42083	9.530104	-0.369632	2.409863	-0.002725	0.001678	0.024331	1.000000	0.000022	-0.000004	0.000011	-8.759330	-75.667370	1.396072
42084	9.535808	-0.357511	2.462871	-0.050878	0.020556	0.042370	1.000000	0.000040	0.000015	0.000020	-8.759717	-75.666933	1.398366
42085	9.552828	-0.394400	2.402272	0.007085	-0.023904	0.045424	1.000000	0.000023	0.000017	-0.000003	-8.751175	-75.666644	1.389240
42086	9.543036	-0.364284	2.430276	-0.018601	0.009538	0.041654	1.000000	0.000019	-0.000001	0.000034	-8.761046	-75.667720	1.400943
42087	9.550377	-0.371227	2.397219	0.013937	-0.001348	0.040941	1.000000	0.000025	0.000002	0.000015	-8.761492	-75.668776	1.401268
42088	9.542984	-0.364751	2.430411	-0.019142	0.009260	0.041653	1.000000	0.000024	0.000007	0.000009	-8.759027	-75.669427	1.398186
42089	9.529841	-0.370497	2.410768	-0.004327	0.000842	0.024331	1.000000	0.000024	0.000007	0.000009	-8.756477	-75.670035	1.395360
42090	9.545296	-0.388737	2.435879	-0.027070	-0.013850	0.046135	1.000000	0.000016	-0.000002	0.000024	-8.762292	-75.671511	1.400549
42091	9.529767	-0.370947	2.410993	-0.004868	0.000564	0.024331	1.000000	0.000017	0.000018	0.000010	-8.760090	-75.670826	1.397248
42092	9.545157	-0.389079	2.436367	-0.027608	-0.014126	0.046133	1.000000	0.000027	0.000013	0.000013	-8.758712	-75.670665	1.395682
42093	9.550107	-0.372146	2.398152	0.012316	-0.002190	0.040943	1.000000	0.000025	-0.000003	0.000021	-8.762156	-75.672169	1.399159
42094	9.545028	-0.389570	2.436795	-0.028135	-0.014402	0.046131	1.000000	0.000035	0.000032	0.000025	-8.764035	-75.669622	1.404617
42095	9.518720	-0.401147	2.397596	0.001761	-0.031105	0.011489	1.000000	0.000024	0.000007	0.000009	-8.761486	-75.670231	1.401792
42096	9.542481	-0.366247	2.432160	-0.021284	0.008151	0.041650	1.000000	0.000021	0.000015	0.000026	-8.766392	-75.669701	1.407073
42097	9.531669	-0.395922	2.417911	-0.013864	-0.023104	0.028808	1.000000	0.000027	0.000013	0.000013	-8.764922	-75.669533	1.405681
42098	9.544709	-0.390303	2.437926	-0.029214	-0.014955	0.046127	1.000000	0.000024	0.000007	0.000009	-8.762487	-75.670135	1.401412
42099	9.536575	-0.379043	2.379893	0.025796	-0.011316	0.023625	1.000000	0.000016	0.000002	0.000018	-8.765203	-75.671122	1.402982
42100	9.531535	-0.396210	2.418392	-0.014666	-0.023515	0.028806	1.000000	0.000033	0.000012	-0.000000	-8.757515	-75.671336	1.396997
42101	9.529085	-0.372498	2.413450	-0.007533	-0.000825	0.024329	1.000000	0.000030	0.000020	0.000017	-8.757124	-75.670392	1.397039
42102	9.549436	-0.373723	2.400580	0.009918	-0.003447	0.040945	1.000000	0.000024	0.000021	0.000030	-8.763195	-75.669024	1.402184
42103	9.541955	-0.367389	2.434050	-0.023144	0.007185	0.041647	1.000000	0.000017	0.000018	0.000010	-8.760995	-75.668339	1.398884
42104	9.526418	-0.349536	2.409255	-0.000924	0.021593	0.019854	1.000000	0.000028	0.000008	0.000019	-8.762653	-75.668627	1.400553
42105	9.523719	-0.390591	2.453054	-0.048799	-0.013428	0.029502	1.000000	0.000028	0.000008	0.000019	-8.764182	-75.668907	1.402315
42106	9.564606	-0.392554	2.426671	-0.013652	-0.018542	0.062736	1.000000	0.000024	0.000007	0.000009	-8.761807	-75.669556	1.399496
42107	9.554838	-0.362370	2.454579	-0.039303	0.014927	0.058961	1.000000	0.000016	0.000002	0.000018	-8.764525	-75.670544	1.401067
42108	9.528544	-0.373921	2.415363	-0.009406	-0.001785	0.024327	1.000000	0.000032	0.000036	0.000009	-8.759390	-75.667930	1.396951
42109	9.528453	-0.374068	2.415699	-0.009673	-0.001926	0.024327	1.000000	0.000025	-0.000003	0.000021	-8.762841	-75.669435	1.400433
42110	9.551235	-0.398797	2.407873	0.000347	-0.027387	0.045418	1.000000	0.000036	0.000018	0.000004	-8.756178	-75.668924	1.394300
42111	9.528357	-0.374104	2.416072	-0.010214	-0.002204	0.024326	1.000000	0.000022	0.000001	0.000005	-8.752554	-75.670309	1.390045
42112	9.520957	-0.367492	2.449239	-0.043270	0.008450	0.025021	1.000000	0.000024	0.000007	0.000009	-8.750102	-75.670915	1.388291
42113	9.528258	-0.374237	2.416442	-0.010747	-0.002482	0.024326	1.000000	0.000030	0.000020	0.000017	-8.749714	-75.669972	1.388335
42114	9.548629	-0.375445	2.403518	0.006683	-0.005120	0.040947	1.000000	0.000021	0.000015	0.000026	-8.754685	-75.669461	1.391842
42115	9.541144	-0.368990	2.436985	-0.026373	0.005535	0.041639	1.000000	0.000039	0.000024	0.000008	-8.749035	-75.668140	1.387493
42116	9.522953	-0.391898	2.455817	-0.051773	-0.014924	0.029485	1.000000	0.000016	0.000002	0.000018	-8.751808	-75.669154	1.390572
42117	9.525617	-0.351231	2.412176	-0.004406	0.019787	0.019857	1.000000	0.000031	-0.000004	0.000008	-8.748919	-75.671057	1.388229
42118	9.527930	-0.375000	2.417618	-0.012108	-0.003175	0.024324	1.000000	0.000017	0.000018	0.000010	-8.746823	-75.670435	1.385913
42119	9.548352	-0.376116	2.404515	0.005329	-0.005822	0.040947	1.000000	0.000025	-0.000003	0.000021	-8.750276	-75.671940	1.389396
42120	9.525481	-0.351806	2.412629	-0.005217	0.019377	0.019857	1.000000	0.000021	0.000015	0.000026	-8.755364	-75.671397	1.392694
42121	9.527750	-0.375776	2.418207	-0.012913	-0.003587	0.024323	1.000000	0.000027	0.000013	0.000013	-8.753899	-75.671230	1.391305
42122	9.563592	-0.394973	2.430273	-0.017995	-0.020762	0.062725	1.000000	0.000031	0.000010	0.000029	-8.759533	-75.671197	1.396570
42123	9.545755	-0.353591	2.400022	0.011684	0.016442	0.036483	1.000000	0.000016	0.000002	0.000018	-8.762254	-75.672185	1.398143
42124	9.527547	-0.376627	2.418872	-0.013730	-0.004007	0.024322	1.000000	0.000033	0.000026	0.000021	-8.762985	-75.670540	1.401604
42125	9.561038	-0.372053	2.425664	-0.011380	0.001638	0.058259	1.000000	0.000056	-0.000002	0.000023	-8.763728	-75.671927	1.405956
42126	9.540537	-0.371321	2.439009	-0.029347	0.004014	0.041632	1.000000	0.000006	0.000008	0.000014	-8.765716	-75.672397	1.403853
42127	9.514276	-0.382969	2.399685	0.000550	-0.012729	0.007009	1.000000	0.000030	0.000020	0.000017	-8.765330	-75.671455	1.403897
42128	9.547776	-0.378365	2.406446	0.002891	-0.007080	0.040947	1.000000	0.000025	0.000002	0.000015	-8.765943	-75.672555	1.406010
42129	9.550055	-0.402255	2.411978	-0.004818	-0.030042	0.045409	1.000000	0.000030	0.000020	0.000017	-8.765557	-75.671613	1.406055
42130	9.547630	-0.378745	2.406965	0.002366	-0.007359	0.040947	1.000000	0.000028	0.000008	0.000019	-8.767197	-75.671833	1.409005
42131	9.558299	-0.349514	2.421748	-0.005541	0.023622	0.053797	1.000000	0.000030	0.000020	0.000017	-8.766812	-75.670892	1.409049
42132	9.534420	-0.384871	2.387580	0.016907	-0.015945	0.023638	1.000000	0.000023	-0.000009	0.000017	-8.769237	-75.673204	1.410662
42133	9.513888	-0.384007	2.401059	-0.001056	-0.013562	0.007008	1.000000	0.000029	0.000029	0.000005	-8.762850	-75.671368	1.404398
42134	9.547345	-0.379414	2.407990	0.001288	-0.007918	0.040947	1.000000	0.000031	0.000010	0.000029	-8.768606	-75.671322	1.409441
42135	9.532505	-0.366285	2.474338	-0.064532	0.013608	0.042302	1.000000	0.000015	0.000012	0.000005	-8.765329	-75.671415	1.404708
42136	9.544882	-0.356102	2.403119	0.008190	0.014617	0.036489	1.000000	0.000018	0.000009	0.000022	-8.769148	-75.671705	1.408968
42137	9.526692	-0.379052	2.421859	-0.017222	-0.005812	0.024315	1.000000	0.000024	0.000007	0.000009	-8.766609	-75.672316	1.406150
42138	9.526645	-0.379144	2.422029	-0.017497	-0.005945	0.024315	1.000000	0.000037	0.000008	0.000016	-8.766073	-75.672713	1.407996
42139	9.570917	-0.345025	2.443219	-0.022783	0.030816	0.071105	1.000000	0.000024	0.000007	0.000009	-8.763535	-75.673324	1.405178
42140	9.526535	-0.379358	2.422430	-0.018033	-0.006226	0.024313	1.000000	0.000040	0.000015	0.000020	-8.763890	-75.672904	1.408501
42141	9.533861	-0.386170	2.389604	0.014473	-0.017209	0.023640	1.000000	0.000024	0.000007	0.000009	-8.761352	-75.673515	1.405684
42142	9.528701	-0.403334	2.428362	-0.026029	-0.029319	0.028767	1.000000	0.000023	0.000031	0.000018	-8.761381	-75.671293	1.404298
42143	9.546774	-0.380649	2.410061	-0.001148	-0.009180	0.040946	1.000000	0.000041	-0.000004	0.000005	-8.756243	-75.673268	1.400726
42144	9.539362	-0.374073	2.443180	-0.034193	0.001534	0.041617	1.000000	0.000018	0.000009	0.000022	-8.760196	-75.673510	1.403629
42145	9.546687	-0.380988	2.410352	-0.001690	-0.009457	0.040946	1.000000	0.000027	0.000013	0.000013	-8.758736	-75.673345	1.402243
42146	9.523799	-0.356468	2.418575	-0.012175	0.015761	0.019857	1.000000	0.000040	0.000015	0.000020	-8.759194	-75.672892	1.404685
42147	9.526074	-0.380361	2.424085	-0.019908	-0.007194	0.024309	1.000000	0.000025	0.000002	0.000015	-8.759659	-75.673951	1.405024
42148	9.544145	-0.357823	2.405790	0.004980	0.012942	0.036494	1.000000	0.000033	0.000026	0.000021	-8.760476	-75.672223	1.407010
42149	9.566879	-0.382769	2.398107	0.014930	-0.012557	0.057582	1.000000	0.000025	-0.000003	0.000021	-8.763944	-75.673729	1.410505
42150	9.538947	-0.375419	2.444594	-0.035789	0.000711	0.041611	1.000000	0.000011	0.000020	0.000022	-8.768205	-75.672636	1.413533
42151	9.512702	-0.387198	2.405240	-0.005892	-0.016059	0.007003	1.000000	0.000037	0.000003	0.000022	-8.770490	-75.673437	1.417222
42152	9.559282	-0.376917	2.431826	-0.018637	-0.002109	0.058248	1.000000	0.000030	0.000020	0.000017	-8.770270	-75.672471	1.416686
42153	9.559190	-0.377065	2.432162	-0.018905	-0.002249	0.058247	1.000000	0.000027	0.000013	0.000013	-8.768812	-75.672306	1.415302
42154	9.564199	-0.360095	2.394038	0.021071	0.009560	0.053135	1.000000	0.000024	0.000012	0.000003	-8.763414	-75.672454	1.411130
42155	9.523181	-0.358173	2.420758	-0.014561	0.014520	0.019856	1.000000	0.000037	0.000008	0.000016	-8.762698	-75.672807	1.411664
42156	9.532821	-0.388906	2.393306	0.010458	-0.019296	0.023641	1.000000	0.000033	0.000016	0.000033	-8.769539	-75.671989	1.420606
42157	9.566314	-0.384413	2.400096	0.012788	-0.013673	0.057584	1.000000	0.000024	0.000007	0.000009	-8.767005	-75.672601	1.417792
42158	9.543468	-0.359814	2.408175	0.002318	0.011554	0.036496	1.000000	0.000037	0.000008	0.000016	-8.766386	-75.672964	1.418070
42159	9.545721	-0.383696	2.413747	-0.005431	-0.011398	0.040942	1.000000	0.000018	0.000014	0.000016	-8.767189	-75.672729	1.417924
42160	9.547960	-0.407570	2.419366	-0.013176	-0.034349	0.045387	1.000000	0.000027	0.000013	0.000013	-8.765740	-75.672527	1.417995
42161	9.525071	-0.383021	2.427606	-0.023639	-0.009122	0.024299	1.000000	0.000030	0.000020	0.000017	-8.765360	-75.671587	1.418043
42162	9.532364	-0.389933	2.394957	0.008857	-0.020138	0.023641	1.000000	0.000030	0.000020	0.000017	-8.765094	-75.670625	1.416677
42163	9.556149	-0.354912	2.429432	-0.014088	0.019173	0.053798	1.000000	0.000025	0.000002	0.000015	-8.765565	-75.671684	1.417020
42164	9.552708	-0.391264	2.382214	0.025994	-0.022977	0.040284	1.000000	0.000020	0.000025	0.000014	-8.764584	-75.670248	1.416935
42165	9.563392	-0.361920	2.396982	0.018133	0.008011	0.053142	1.000000	0.000024	0.000007	0.000009	-8.762053	-75.670860	1.414122
42166	9.524651	-0.383895	2.429113	-0.024977	-0.009807	0.024295	1.000000	0.000024	0.000021	0.000030	-8.768089	-75.669514	1.419695
42167	9.542755	-0.361445	2.410757	-0.000076	0.010294	0.036498	1.000000	0.000034	0.000002	0.000012	-8.766303	-75.670644	1.418803
42168	9.578591	-0.380554	2.422789	-0.005249	-0.006889	0.074884	1.000000	0.000028	0.000008	0.000019	-8.768007	-75.670939	1.420490
42169	9.544961	-0.385476	2.416465	-0.008109	-0.012788	0.040939	1.000000	0.000027	0.000013	0.000013	-8.766553	-75.670775	1.419109
42170	9.542581	-0.361837	2.411384	-0.000887	0.009879	0.036498	1.000000	0.000036	0.000013	0.000010	-8.762893	-75.670724	1.417883
42171	9.542512	-0.362052	2.411627	-0.001153	0.009737	0.036499	1.000000	0.000031	0.000010	0.000029	-8.768522	-75.670678	1.424244
42172	9.544726	-0.385907	2.417324	-0.008930	-0.013204	0.040938	1.000000	0.000026	0.000023	0.000001	-8.761189	-75.669675	1.415633
42173	9.521850	-0.361303	2.425524	-0.019368	0.012033	0.019851	1.000000	0.000018	0.000009	0.000022	-8.764998	-75.669887	1.418644
