// Start Time: Unknown
// Update Rate: 100.0Hz
// Filter Profile: human (46.1)
// Firmware Version: 4.4.0
PacketCounter	Acc_X	Acc_Y	Acc_Z	FreeAcc_X	FreeAcc_Y	FreeAcc_Z	OriInc_q0	OriInc_q1	OriInc_q2	OriInc_q3	Roll	Pitch	Yaw
63483	9.474473	-0.297987	2.535569	0.000000	-0.000000	-0.000269	1.000000	0.000031	0.000015	0.000012	-6.702506	-74.920050	-0.346603
63484	9.516368	-0.302635	2.532925	-0.000000	0.000000	0.039650	1.000000	0.000015	0.000006	0.000027	-6.808750	-74.994701	-0.232235
63485	9.500717	-0.339970	2.570078	-0.037775	-0.035084	0.035249	1.000000	0.000020	0.000018	0.000010	-6.756238	-74.956278	-0.285633
63486	9.489601	-0.281788	2.527265	0.007570	0.017392	0.011702	1.000000	0.000034	0.000012	0.000004	-6.753535	-74.954906	-0.284454
63487	9.500793	-0.319653	2.542807	-0.008587	-0.018246	0.027674	1.000000	0.000029	0.000019	0.000019	-6.758123	-74.952531	-0.276804
63488	9.504303	-0.306109	2.574525	-0.036185	-0.000751	0.038827	1.000000	0.000026	0.000006	0.000017	-6.762223	-74.951620	-0.269464
63489	9.489150	-0.302711	2.555857	-0.021613	0.000616	0.019278	1.000000	0.000024	0.000010	0.000025	-6.769760	-74.950131	-0.258855
63490	9.488852	-0.323356	2.583897	-0.050805	-0.016193	0.026853	1.000000	0.000026	0.000006	0.000017	-6.773857	-74.949220	-0.251518
63491	9.500536	-0.320521	2.543658	-0.008535	-0.018229	0.027674	1.000000	0.000028	0.000021	0.000008	-6.773154	-74.946490	-0.248937
63492	9.515565	-0.324393	2.562722	-0.023095	-0.019592	0.047223	1.000000	0.000038	0.000001	0.000031	-6.781825	-74.945914	-0.235433
63493	9.504249	-0.286980	2.547614	-0.006882	0.016108	0.031252	1.000000	0.000012	0.000012	0.000023	-6.790317	-74.943908	-0.225221
63494	9.542283	-0.325820	2.541490	0.004632	-0.022969	0.067593	1.000000	0.000029	0.000019	0.000019	-6.794251	-74.941511	-0.217731
63495	9.530734	-0.308515	2.554234	-0.008346	-0.004074	0.059197	1.000000	0.000014	-0.000008	0.000006	-6.796353	-74.942014	-0.213902
63496	9.530711	-0.308567	2.554315	-0.008346	-0.004074	0.059197	1.000000	0.000031	0.000015	0.000012	-6.796963	-74.940130	-0.209571
63497	9.485106	-0.318046	2.525920	0.006216	-0.016752	0.008124	1.000000	0.000026	0.000006	0.000017	-6.802046	-74.938796	-0.201282
63498	9.519048	-0.291440	2.567466	-0.021310	0.014827	0.050801	1.000000	0.000026	0.000025	0.000015	-6.804396	-74.935792	-0.195801
63499	9.515405	-0.305390	2.536209	0.006374	-0.002623	0.039647	1.000000	0.000012	-0.000005	0.000014	-6.809981	-74.935623	-0.188658
63500	9.518917	-0.291652	2.567925	-0.021224	0.014872	0.050802	1.000000	0.000033	0.000030	0.000002	-6.805529	-74.932160	-0.189335
63501	9.503433	-0.308381	2.577462	-0.035754	-0.000545	0.038829	1.000000	0.000029	0.000019	0.000019	-6.810118	-74.929177	-0.181211
63502	9.503602	-0.288326	2.549876	-0.006563	0.016264	0.031252	1.000000	0.000012	0.000012	0.000023	-6.817843	-74.927512	-0.171740
63503	9.530140	-0.309686	2.556309	-0.007934	-0.003946	0.059198	1.000000	0.000034	0.000009	0.000016	-6.820237	-74.925353	-0.165213
63504	9.488080	-0.305467	2.559500	-0.021044	0.000826	0.019279	1.000000	0.000035	0.000026	0.000025	-6.825567	-74.922075	-0.155585
63505	9.518434	-0.292809	2.569583	-0.020786	0.014923	0.050802	1.000000	0.000027	0.000004	0.000029	-6.834817	-74.920180	-0.142835
63506	9.499445	-0.323546	2.547346	-0.007821	-0.018019	0.027675	1.000000	0.000023	0.000012	0.000014	-6.837315	-74.918661	-0.137522
63507	9.499142	-0.344020	2.575356	-0.036781	-0.034811	0.035254	1.000000	0.000020	-0.000001	0.000012	-6.840365	-74.917278	-0.131991
63508	9.503190	-0.289524	2.551273	-0.005995	0.016302	0.031252	1.000000	0.000056	0.000025	0.000006	-6.835251	-74.914294	-0.130668
63509	9.491340	-0.292505	2.592035	-0.047977	0.018406	0.030437	1.000000	0.000010	-0.000001	0.000021	-6.844398	-74.912679	-0.120263
63510	9.499262	-0.323930	2.547978	-0.007343	-0.017946	0.027675	1.000000	0.000040	-0.000000	0.000012	-6.844837	-74.912522	-0.115094
63511	9.514573	-0.307415	2.539084	0.007617	-0.002471	0.039647	1.000000	0.000021	0.000015	0.000021	-6.851262	-74.908591	-0.105891
63512	9.529595	-0.311327	2.558142	-0.006942	-0.003833	0.059198	1.000000	0.000026	0.000006	0.000017	-6.855328	-74.907683	-0.098583
63513	9.514466	-0.307864	2.539429	0.007904	-0.002442	0.039646	1.000000	0.000026	0.000006	0.000017	-6.860051	-74.905104	-0.090431
63514	9.529766	-0.291324	2.530587	0.022534	0.013005	0.051617	1.000000	0.000031	0.000015	0.000012	-6.860626	-74.903235	-0.086126
63515	9.502496	-0.310954	2.580606	-0.034055	-0.000354	0.038835	1.000000	0.000023	0.000030	0.000012	-6.862278	-74.898035	-0.081922
63516	9.502702	-0.290881	2.552937	-0.004867	0.016455	0.031252	1.000000	0.000013	-0.000007	0.000025	-6.871715	-74.898470	-0.070625
63517	9.540747	-0.329627	2.546757	0.006987	-0.022631	0.067592	1.000000	0.000036	0.000024	0.000006	-6.868581	-74.893675	-0.069428
63518	9.487198	-0.307780	2.562488	-0.019171	0.000996	0.019283	1.000000	0.000026	0.000006	0.000017	-6.872629	-74.892767	-0.062131
63519	9.513714	-0.329108	2.568984	-0.020355	-0.019208	0.047230	1.000000	0.000029	0.000019	0.000019	-6.876837	-74.888434	-0.054122
63520	9.517499	-0.295189	2.572772	-0.018760	0.015095	0.050806	1.000000	0.000026	0.000006	0.000017	-6.880871	-74.887522	-0.046830
63521	9.517445	-0.295357	2.572955	-0.018363	0.015136	0.050807	1.000000	0.000023	0.000012	0.000014	-6.884261	-74.883684	-0.040649
63522	9.525320	-0.326796	2.529098	0.022272	-0.021216	0.048038	1.000000	0.000026	0.000006	0.000017	-6.888292	-74.882765	-0.033360
63523	9.486573	-0.328845	2.591561	-0.047401	-0.015708	0.026871	1.000000	0.000027	0.000023	-0.000004	-6.883565	-74.878857	-0.035125
63524	9.502132	-0.291896	2.554943	-0.003579	0.016548	0.031253	1.000000	0.000032	0.000013	0.000023	-6.888995	-74.877070	-0.025695
63525	9.517162	-0.295935	2.573933	-0.017882	0.015237	0.050808	1.000000	0.000019	0.000000	0.000031	-6.900959	-74.875173	-0.011257
63526	9.517155	-0.296122	2.573938	-0.017887	0.015236	0.050808	1.000000	0.000031	-0.000001	0.000002	-6.898387	-74.875314	-0.010247
63527	9.486660	-0.309217	2.564306	-0.017636	0.001174	0.019286	1.000000	0.000021	0.000015	0.000021	-6.904698	-74.871353	-0.001760
63528	9.513457	-0.310246	2.542918	0.010034	-0.002235	0.039644	1.000000	0.000023	0.000012	0.000014	-6.907167	-74.869870	0.003527
63529	9.517247	-0.276337	2.546709	0.012071	0.032058	0.043220	1.000000	0.000021	0.000015	0.000021	-6.912677	-74.865257	0.011712
63530	9.528389	-0.314367	2.562257	-0.004082	-0.003608	0.059200	1.000000	0.000026	0.000006	0.000017	-6.916716	-74.864373	0.018994
63531	9.512967	-0.331290	2.571471	-0.018491	-0.019083	0.047234	1.000000	0.000035	0.000007	0.000027	-6.923097	-74.861873	0.029484
63532	9.513203	-0.311220	2.543748	0.010690	-0.002274	0.039644	1.000000	0.000023	0.000012	0.000014	-6.925569	-74.860398	0.034766
63533	9.532094	-0.280983	2.566311	-0.002038	0.030676	0.062776	1.000000	0.000035	0.000007	0.000027	-6.932750	-74.857899	0.046022
63534	9.528127	-0.315409	2.563103	-0.003644	-0.003627	0.059200	1.000000	0.000006	0.000023	0.000015	-6.937278	-74.855076	0.051432
63535	9.501463	-0.294401	2.557143	-0.001980	0.016590	0.031253	1.000000	0.000025	0.000008	0.000006	-6.936424	-74.853191	0.052754
63536	9.512908	-0.311940	2.544765	0.011048	-0.002265	0.039643	1.000000	0.000023	0.000012	0.000014	-6.938923	-74.851743	0.058039
63537	9.512812	-0.312082	2.545106	0.011040	-0.002326	0.039643	1.000000	0.000037	0.000022	0.000017	-6.939525	-74.849056	0.063076
63538	9.512424	-0.332658	2.573301	-0.018167	-0.019132	0.047234	1.000000	0.000027	0.000004	0.000029	-6.948466	-74.848333	0.075490
63539	9.500848	-0.315385	2.586131	-0.031044	-0.000277	0.038845	1.000000	0.000028	0.000021	0.000008	-6.947399	-74.844900	0.077166
63540	9.512577	-0.312789	2.545896	0.011165	-0.002323	0.039643	1.000000	0.000016	0.000006	0.000027	-6.956678	-74.843943	0.088575
63541	9.501027	-0.295690	2.558613	-0.001627	0.016512	0.031253	1.000000	0.000035	0.000007	0.000027	-6.963168	-74.841302	0.099355
63542	9.512452	-0.313383	2.546291	0.011395	-0.002342	0.039643	1.000000	0.000020	0.000018	0.000010	-6.964105	-74.839284	0.102637
63543	9.500840	-0.296127	2.559257	-0.001550	0.016556	0.031253	1.000000	0.000026	0.000022	0.000027	-6.972166	-74.835827	0.112477
63544	9.500754	-0.296414	2.559541	-0.001572	0.016560	0.031253	1.000000	0.000026	0.000006	0.000017	-6.976282	-74.835034	0.119764
63545	9.500702	-0.296690	2.559703	-0.001406	0.016455	0.031253	1.000000	0.000024	0.000010	0.000025	-6.981213	-74.832632	0.128278
63546	9.500650	-0.296966	2.559865	-0.001427	0.016459	0.031253	1.000000	0.000026	0.000006	0.000017	-6.985317	-74.831836	0.135560
63547	9.515681	-0.300693	2.578855	-0.015788	0.015016	0.050812	1.000000	0.000037	0.000006	0.000008	-6.982328	-74.829977	0.136185
63548	9.496613	-0.331394	2.556881	-0.002858	-0.017922	0.027677	1.000000	0.000021	0.000032	0.000031	-6.991253	-74.826054	0.147842
63549	9.515478	-0.301158	2.579550	-0.015656	0.015029	0.050812	1.000000	0.000040	-0.000000	0.000012	-6.991855	-74.825007	0.150852
63550	9.526950	-0.318760	2.567062	-0.002636	-0.003822	0.059200	1.000000	0.000026	0.000006	0.000017	-6.996013	-74.824206	0.158139
63551	9.527195	-0.298700	2.539392	0.026831	0.012913	0.051606	1.000000	0.000018	0.000021	0.000017	-6.998607	-74.819940	0.162089
63552	9.500206	-0.297989	2.561393	-0.000868	0.016334	0.031254	1.000000	0.000031	0.000015	0.000012	-6.999301	-74.818156	0.166380
63553	9.511634	-0.315625	2.549070	0.012261	-0.002656	0.039642	1.000000	0.000015	0.000008	0.000015	-7.000721	-74.816490	0.169802
63554	9.496193	-0.332465	2.558299	-0.002399	-0.018093	0.027677	1.000000	0.000026	0.000006	0.000017	-7.004886	-74.815682	0.177087
63555	9.500036	-0.298729	2.561938	-0.000882	0.016130	0.031254	1.000000	0.000013	0.000010	0.000035	-7.015578	-74.814608	0.189660
63556	9.499950	-0.299015	2.562222	-0.000905	0.016137	0.031254	1.000000	0.000039	0.000019	0.000010	-7.014365	-74.812488	0.192951
63557	9.526803	-0.299967	2.540714	0.026598	0.012636	0.051607	1.000000	0.000023	-0.000007	0.000016	-7.016650	-74.814113	0.197697
63558	9.526772	-0.300313	2.540787	0.026571	0.012644	0.051607	1.000000	0.000021	0.000013	0.000033	-7.027389	-74.812316	0.211220
63559	9.495885	-0.333864	2.559259	-0.002737	-0.018369	0.027677	1.000000	0.000020	0.000018	0.000010	-7.025493	-74.810356	0.211576
63560	9.523034	-0.314693	2.509943	0.054104	-0.004972	0.040438	1.000000	0.000024	0.000010	0.000025	-7.032949	-74.809083	0.221978
63561	9.499645	-0.300199	2.563215	-0.001363	0.015812	0.031255	1.000000	0.000023	0.000012	0.000014	-7.032473	-74.808741	0.225311
63562	9.522539	-0.335281	2.538440	0.024683	-0.021899	0.048030	1.000000	0.000028	0.000021	0.000008	-7.031582	-74.806434	0.227596
63563	9.499454	-0.300194	2.563922	-0.001620	0.015749	0.031255	1.000000	0.000030	0.000017	0.000000	-7.025709	-74.805795	0.225030
63564	9.510895	-0.317753	2.551558	0.011384	-0.003103	0.039643	1.000000	0.000029	0.000000	0.000021	-7.031444	-74.805684	0.234311
63565	9.499348	-0.300413	2.564289	-0.001630	0.015810	0.031254	1.000000	0.000020	0.000018	0.000010	-7.033542	-74.803408	0.235074
63566	9.525477	-0.342193	2.598803	-0.032368	-0.021203	0.066791	1.000000	0.000005	0.000006	0.000036	-7.048119	-74.802377	0.250589
63567	9.499204	-0.301150	2.564737	-0.001612	0.015800	0.031254	1.000000	0.000031	0.000015	0.000012	-7.048191	-74.800186	0.252869
63568	9.541085	-0.305772	2.562230	0.011483	0.011033	0.071166	1.000000	0.000034	0.000009	0.000016	-7.050519	-74.799092	0.259163
63569	9.495507	-0.315352	2.533773	0.025874	-0.001779	0.020086	1.000000	0.000024	0.000010	0.000025	-7.055820	-74.798058	0.267502
63570	9.510510	-0.319266	2.552808	0.011290	-0.003128	0.039643	1.000000	0.000026	0.000006	0.000017	-7.060047	-74.797334	0.274791
63571	9.498963	-0.301812	2.565552	-0.002336	0.015670	0.031255	1.000000	0.000022	0.000014	0.000002	-7.056290	-74.799211	0.273665
63572	9.498920	-0.301902	2.565701	-0.002379	0.015681	0.031255	1.000000	0.000029	0.000000	0.000021	-7.062094	-74.799144	0.282957
63573	9.495300	-0.315951	2.534472	0.025228	-0.001892	0.020087	1.000000	0.000020	0.000018	0.000010	-7.061339	-74.796901	0.283912
63574	9.510253	-0.319736	2.553706	0.010634	-0.003241	0.039644	1.000000	0.000029	0.000019	0.000019	-7.065371	-74.794738	0.291318
63575	9.525560	-0.303275	2.544976	0.024782	0.012086	0.051613	1.000000	0.000020	0.000018	0.000010	-7.063671	-74.795517	0.293328
63576	9.513631	-0.306111	2.585768	-0.017495	0.014155	0.050810	1.000000	0.000023	0.000012	0.000014	-7.066315	-74.794277	0.298618
63577	9.498862	-0.282334	2.539197	0.026246	0.032247	0.023668	1.000000	0.000031	0.000015	0.000012	-7.065288	-74.792411	0.300571
63578	9.525319	-0.303550	2.545847	0.024681	0.012037	0.051613	1.000000	0.000031	0.000015	0.000012	-7.066034	-74.790800	0.304862
63579	9.513418	-0.306094	2.586555	-0.017178	0.013987	0.050811	1.000000	0.000038	0.000004	-0.000011	-7.054260	-74.788278	0.296654
63580	9.513393	-0.306035	2.586656	-0.017217	0.013998	0.050811	1.000000	0.000007	0.000005	0.000017	-7.060719	-74.787711	0.303934
63581	9.498304	-0.302650	2.567891	-0.002516	0.015381	0.031255	1.000000	0.000026	0.000006	0.000017	-7.065248	-74.785906	0.307349
63582	9.509691	-0.320324	2.555723	0.010483	-0.003468	0.039644	1.000000	0.000023	0.000030	0.000011	-7.066171	-74.782500	0.310754
63583	9.509977	-0.300307	2.528020	0.039496	0.013168	0.032057	1.000000	0.000021	-0.000003	0.000023	-7.069998	-74.783613	0.318575
63584	9.524984	-0.304135	2.547028	0.024906	0.011821	0.051613	1.000000	0.000031	0.000015	0.000012	-7.070776	-74.781942	0.322865
63585	9.509880	-0.300628	2.528348	0.038990	0.013266	0.032059	1.000000	0.000037	0.000004	0.000019	-7.076542	-74.784024	0.327378
63586	9.482538	-0.320130	2.578177	-0.017923	-0.000090	0.019285	1.000000	0.000029	0.000019	0.000019	-7.080664	-74.781865	0.334790
63587	9.524759	-0.304714	2.547801	0.024315	0.011780	0.051614	1.000000	0.000021	0.000015	0.000021	-7.083134	-74.780282	0.340486
63588	9.470926	-0.302903	2.591118	-0.031075	0.018644	0.010895	1.000000	0.000025	-0.000008	-0.000004	-7.079547	-74.781523	0.339460
63589	9.524722	-0.304688	2.547944	0.023943	0.011659	0.051615	1.000000	0.000043	0.000013	0.000014	-7.076744	-74.781817	0.342136
63590	9.509211	-0.321584	2.557348	0.009256	-0.003764	0.039645	1.000000	-0.000001	0.000018	0.000029	-7.088260	-74.779638	0.353643
63591	9.497622	-0.304424	2.570204	-0.003924	0.015310	0.031255	1.000000	0.000040	0.000016	0.000021	-7.096469	-74.778342	0.356922
63592	9.497924	-0.284410	2.542472	0.025231	0.032121	0.023671	1.000000	0.000015	0.000008	0.000015	-7.101224	-74.777442	0.363236
63593	9.508952	-0.322384	2.558211	0.008730	-0.003699	0.039645	1.000000	0.000029	0.000019	0.000019	-7.101404	-74.776971	0.367881
63594	9.527858	-0.292084	2.580762	-0.004258	0.029268	0.062779	1.000000	0.000026	0.000006	0.000017	-7.105817	-74.776327	0.375195
63595	9.508832	-0.322906	2.558592	0.008609	-0.003780	0.039645	1.000000	0.000016	0.000006	0.000027	-7.112757	-74.775672	0.382926
63596	9.508757	-0.323114	2.558845	0.008562	-0.003760	0.039645	1.000000	0.000039	0.000019	0.000010	-7.111795	-74.773694	0.386242
63597	9.497575	-0.285304	2.543676	0.023959	0.031750	0.023676	1.000000	0.000034	0.000012	0.000004	-7.105821	-74.776903	0.385449
63598	9.485656	-0.288026	2.584358	-0.018324	0.033844	0.022863	1.000000	0.000026	0.000006	0.000017	-7.110233	-74.776307	0.392764
63599	9.481653	-0.322333	2.581154	-0.019542	-0.000694	0.019282	1.000000	0.000012	0.000014	0.000011	-7.107656	-74.772186	0.393802
63600	9.527865	-0.272705	2.554080	0.024338	0.045633	0.055201	1.000000	0.000034	0.000009	0.000016	-7.110131	-74.771184	0.400107
63601	9.504875	-0.337478	2.528606	0.035536	-0.021619	0.028485	1.000000	0.000023	0.000012	0.000014	-7.112571	-74.770396	0.400603
63602	9.508364	-0.323800	2.560218	0.007903	-0.004086	0.039646	1.000000	0.000024	0.000010	0.000025	-7.120263	-74.769236	0.411017
63603	9.511888	-0.310217	2.591685	-0.020004	0.013416	0.050806	1.000000	0.000021	-0.000003	0.000023	-7.127530	-74.771183	0.417341
63604	9.497166	-0.286493	2.545072	0.023706	0.031580	0.023677	1.000000	0.000033	0.000030	0.000002	-7.123455	-74.768025	0.416658
63605	9.523604	-0.307604	2.551768	0.021585	0.011277	0.051621	1.000000	0.000040	-0.000000	0.000012	-7.122151	-74.771308	0.418527
63606	9.508189	-0.324217	2.560815	0.006884	-0.004134	0.039647	1.000000	0.000014	-0.000008	0.000006	-7.123911	-74.772482	0.421642
63607	9.496669	-0.306913	2.573427	-0.006554	0.014777	0.031254	1.000000	0.000018	0.000019	0.000029	-7.133873	-74.772356	0.428987
63608	9.496565	-0.307286	2.573765	-0.006614	0.014802	0.031254	1.000000	0.000021	0.000015	0.000021	-7.140089	-74.770663	0.437419
63609	9.523391	-0.308435	2.552465	0.021534	0.011276	0.051621	1.000000	0.000031	0.000015	0.000012	-7.138572	-74.765932	0.437172
63610	9.496400	-0.307562	2.574343	-0.006185	0.014742	0.031254	1.000000	0.000023	0.000012	0.000013	-7.141534	-74.764713	0.442499
63611	9.507841	-0.325360	2.561961	0.007370	-0.004398	0.039646	1.000000	0.000010	-0.000001	0.000021	-7.143199	-74.761362	0.448764
63612	9.493164	-0.301866	2.515193	0.051091	0.013762	0.012519	1.000000	0.000032	0.000013	0.000023	-7.149048	-74.759812	0.458178
63613	9.511261	-0.311912	2.593783	-0.021026	0.013114	0.050804	1.000000	0.000020	0.000018	0.000010	-7.149337	-74.762219	0.458491
63614	9.511563	-0.291869	2.566138	0.008129	0.029922	0.043230	1.000000	0.000029	0.000019	0.000019	-7.153636	-74.760113	0.465910
63615	9.511102	-0.312225	2.594327	-0.021583	0.013404	0.050803	1.000000	0.000020	-0.000001	0.000012	-7.162198	-74.763032	0.464938
63616	9.538011	-0.313396	2.572731	0.006024	0.009989	0.071172	1.000000	0.000029	0.000000	0.000021	-7.168405	-74.763039	0.474283
63617	9.477428	-0.319287	2.525322	0.034422	-0.001376	0.000551	1.000000	0.000031	0.000015	0.000012	-7.169506	-74.764925	0.474418
63618	9.511364	-0.292559	2.566794	0.006868	0.030263	0.043230	1.000000	0.000021	0.000015	0.000021	-7.175860	-74.763243	0.482865
63619	9.492272	-0.323335	2.544864	0.019743	-0.002853	0.020100	1.000000	0.000029	0.000019	0.000019	-7.175991	-74.761138	0.487075
63620	9.492590	-0.303401	2.517173	0.048895	0.013951	0.012529	1.000000	0.000032	0.000013	0.000023	-7.182000	-74.759689	0.496518
63621	9.510690	-0.313712	2.595660	-0.022269	0.013210	0.050802	1.000000	0.000005	0.000006	0.000036	-7.192957	-74.757323	0.508631
63622	9.496018	-0.290206	2.548931	0.021451	0.031362	0.023683	1.000000	0.000034	0.000012	0.000004	-7.190861	-74.756292	0.509873
63623	9.495517	-0.310444	2.577251	-0.007552	0.014732	0.031253	1.000000	0.000029	0.000019	0.000019	-7.197755	-74.752636	0.510879
63624	9.522349	-0.311623	2.555961	0.020056	0.011314	0.051624	1.000000	0.000023	0.000012	0.000013	-7.200895	-74.751419	0.516225
63625	9.526254	-0.277512	2.559563	0.020499	0.045814	0.055209	1.000000	0.000034	0.000012	0.000004	-7.202905	-74.757125	0.512910
63626	9.522233	-0.311695	2.556385	0.018785	0.011552	0.051627	1.000000	0.000026	0.000006	0.000017	-7.207709	-74.756581	0.520281
63627	9.495264	-0.310953	2.578123	-0.009345	0.014947	0.031252	1.000000	0.000035	0.000007	0.000027	-7.213315	-74.758142	0.527895
63628	9.495635	-0.291165	2.550246	0.019808	0.031748	0.023685	1.000000	0.000016	0.000006	0.000027	-7.223301	-74.757459	0.539365
63629	9.499099	-0.277378	2.581927	-0.008689	0.049400	0.034832	1.000000	0.000036	0.000024	0.000006	-7.223001	-74.760066	0.536562
63630	9.491528	-0.325458	2.547366	0.017149	-0.002402	0.020105	1.000000	0.000014	-0.000008	0.000006	-7.225191	-74.761363	0.539766
63631	9.495077	-0.311608	2.578733	-0.010140	0.015055	0.031251	1.000000	0.000026	0.000006	0.000017	-7.227178	-74.758783	0.541719
63632	9.521917	-0.312792	2.557429	0.017442	0.011634	0.051629	1.000000	0.000037	0.000022	0.000017	-7.229933	-74.756437	0.548192
63633	9.491347	-0.325883	2.547987	0.016881	-0.002497	0.020105	1.000000	0.000023	0.000012	0.000013	-7.231338	-74.757695	0.549335
63634	9.495271	-0.291918	2.551517	0.018463	0.031847	0.023687	1.000000	0.000026	0.000006	0.000017	-7.236255	-74.757216	0.556725
63635	9.517709	-0.347333	2.554882	0.015376	-0.022702	0.048048	1.000000	0.000028	0.000021	0.000008	-7.234509	-74.753855	0.554210
63636	9.506572	-0.309736	2.539663	0.031534	0.012978	0.032086	1.000000	0.000032	0.000013	0.000023	-7.240796	-74.752472	0.563691
63637	9.521514	-0.313664	2.558820	0.017574	0.011585	0.051629	1.000000	0.000012	0.000012	0.000023	-7.246946	-74.747195	0.567550
63638	9.494519	-0.312772	2.580644	-0.010146	0.015101	0.031250	1.000000	0.000034	0.000012	0.000004	-7.245160	-74.746208	0.568840
63639	9.506330	-0.310340	2.540492	0.033034	0.013007	0.032081	1.000000	0.000027	0.000022	0.000027	-7.252983	-74.737650	0.571976
63640	9.506231	-0.310597	2.540832	0.032980	0.013054	0.032081	1.000000	0.000023	0.000012	0.000013	-7.256395	-74.736432	0.577355
63641	9.506157	-0.310805	2.541084	0.031676	0.012925	0.032086	1.000000	0.000032	0.000013	0.000023	-7.259090	-74.742287	0.585186
63642	9.494162	-0.313535	2.581864	-0.010613	0.015115	0.031250	1.000000	0.000031	0.000015	0.000012	-7.260586	-74.740778	0.589567
63643	9.506042	-0.311210	2.541465	0.029880	0.012990	0.032091	1.000000	0.000013	-0.000007	0.000025	-7.270774	-74.751343	0.599048
63644	9.494531	-0.293819	2.554050	0.016809	0.031925	0.023690	1.000000	0.000040	0.000019	0.000010	-7.270389	-74.749567	0.602438
63645	9.505930	-0.311498	2.541848	0.029636	0.013014	0.032092	1.000000	0.000026	0.000006	0.000017	-7.273906	-74.749589	0.605216
63646	9.547868	-0.316331	2.539184	0.042627	0.008255	0.072019	1.000000	0.000023	-0.000007	0.000016	-7.279184	-74.750620	0.612539
63647	9.478926	-0.310883	2.563652	0.002111	0.016752	0.011706	1.000000	0.000023	0.000028	0.000023	-7.289257	-74.745870	0.613244
63648	9.493853	-0.314764	2.582850	-0.012542	0.015479	0.031247	1.000000	0.000029	0.000000	0.000021	-7.295948	-74.745993	0.622662
63649	9.536199	-0.299434	2.552305	0.029163	0.027767	0.063617	1.000000	0.000031	0.000015	0.000012	-7.304850	-74.747673	0.619564
63650	9.524238	-0.302065	2.592946	-0.013141	0.029995	0.062769	1.000000	0.000020	-0.000001	0.000012	-7.308732	-74.748104	0.624913
63651	9.509176	-0.298566	2.574201	0.001143	0.031438	0.043229	1.000000	0.000020	0.000018	0.000010	-7.312338	-74.747698	0.623268
63652	9.505089	-0.332877	2.571191	-0.000636	-0.002801	0.039649	1.000000	0.000032	0.000013	0.000023	-7.318947	-74.746367	0.632792
63653	9.493964	-0.295481	2.555965	0.014673	0.033039	0.023690	1.000000	0.000015	0.000025	0.000025	-7.331511	-74.748876	0.636205
63654	9.547251	-0.318043	2.541288	0.040612	0.009387	0.072026	1.000000	0.000029	0.000019	0.000019	-7.336609	-74.746989	0.643734
63655	9.493777	-0.295914	2.556609	0.014001	0.033319	0.023690	1.000000	0.000029	0.000002	0.000010	-7.342393	-74.750013	0.641437
63656	9.493709	-0.296052	2.556845	0.013907	0.033385	0.023690	1.000000	0.000018	0.000021	0.000017	-7.347891	-74.747910	0.647973
63657	9.520106	-0.317571	2.563572	0.011281	0.013398	0.051636	1.000000	0.000027	0.000004	0.000029	-7.362003	-74.752953	0.654494
63658	9.493117	-0.316774	2.585309	-0.016458	0.016979	0.031239	1.000000	0.000023	0.000012	0.000013	-7.365910	-74.752019	0.659969
63659	9.520427	-0.297792	2.536010	0.038662	0.030387	0.044094	1.000000	0.000028	0.000021	0.000008	-7.370267	-74.759963	0.657166
63660	9.519866	-0.318054	2.564404	0.009278	0.013765	0.051637	1.000000	0.000032	0.000013	0.000023	-7.377165	-74.758833	0.666753
63661	9.504324	-0.335053	2.573735	-0.005174	-0.001523	0.039648	1.000000	0.000005	0.000006	0.000036	-7.393679	-74.756231	0.676504
63662	9.493286	-0.297523	2.558246	0.011028	0.034150	0.023691	1.000000	0.000047	0.000005	-0.000002	-7.388962	-74.756294	0.675831
63663	9.520185	-0.298576	2.536825	0.038606	0.030665	0.044093	1.000000	0.000015	0.000008	0.000015	-7.394133	-74.755446	0.674664
63664	9.504652	-0.315387	2.546144	0.023811	0.015354	0.032104	1.000000	0.000024	0.000010	0.000025	-7.403017	-74.754644	0.685260
63665	9.508591	-0.281460	2.549691	0.023659	0.049913	0.035683	1.000000	0.000031	0.000015	0.000012	-7.409898	-74.763849	0.685859
63666	9.519519	-0.319312	2.565537	0.007197	0.014400	0.051638	1.000000	0.000026	0.000006	0.000017	-7.415615	-74.763665	0.693395
63667	9.504489	-0.315724	2.546712	0.022614	0.015186	0.032108	1.000000	0.000039	0.000002	0.000000	-7.399502	-74.758597	0.690909
63668	9.504492	-0.315832	2.546684	0.022495	0.015262	0.032108	1.000000	0.000013	-0.000007	0.000025	-7.410552	-74.759677	0.702449
63669	9.504917	-0.296107	2.518765	0.051603	0.031894	0.024569	1.000000	0.000038	0.000020	0.000029	-7.416132	-74.757949	0.709746
63670	9.519823	-0.300060	2.538007	0.036891	0.030673	0.044100	1.000000	0.000012	0.000012	0.000023	-7.425346	-74.756942	0.719332
63671	9.519287	-0.320451	2.566254	0.007481	0.013794	0.051639	1.000000	0.000026	0.000006	0.000017	-7.424920	-74.756806	0.722833
63672	9.492782	-0.299335	2.559904	0.009012	0.034079	0.023693	1.000000	0.000025	0.000008	0.000006	-7.425706	-74.756488	0.725238
63673	9.534657	-0.304161	2.557500	0.021001	0.029494	0.063632	1.000000	0.000021	0.000015	0.000021	-7.437042	-74.760540	0.727548
63674	9.503625	-0.337438	2.576002	-0.008494	-0.001190	0.039646	1.000000	0.000026	0.000006	0.000017	-7.442733	-74.760337	0.735066
63675	9.504059	-0.317435	2.548103	0.020198	0.015435	0.032112	1.000000	0.000014	0.000010	0.000004	-7.441274	-74.762541	0.732441
63676	9.515966	-0.315085	2.507729	0.062286	0.013269	0.032999	1.000000	0.000029	0.000000	0.000021	-7.448568	-74.762956	0.741977
63677	9.526507	-0.273371	2.602031	-0.020025	0.066219	0.066323	1.000000	0.000024	0.000026	0.000034	-7.460262	-74.757842	0.748061
63678	9.518873	-0.321895	2.567608	0.005626	0.014374	0.051639	1.000000	0.000023	-0.000007	0.000016	-7.466260	-74.759118	0.755524
63679	9.518832	-0.322091	2.567739	0.005093	0.014045	0.051640	1.000000	0.000029	0.000019	0.000019	-7.462738	-74.759829	0.761264
63680	9.534246	-0.305896	2.558826	0.019650	0.029502	0.063635	1.000000	0.000027	0.000004	0.000029	-7.473261	-74.759708	0.773873
63681	9.492263	-0.301390	2.561588	0.006034	0.034569	0.023694	1.000000	0.000025	0.000008	0.000006	-7.477888	-74.762210	0.769200
63682	9.522714	-0.288594	2.571483	0.005992	0.048740	0.055214	1.000000	0.000018	0.000003	0.000019	-7.485562	-74.762394	0.777732
63683	9.515567	-0.316704	2.509038	0.046539	-0.014894	0.033083	1.000000	0.000039	0.000021	-0.000002	-6.853741	-74.846011	-0.207262
63684	9.519066	-0.302749	2.540529	0.018857	0.002733	0.044198	1.000000	0.000013	-0.000007	0.000025	-6.859643	-74.847895	-0.202668
63685	9.519011	-0.302917	2.540712	0.018581	0.002594	0.044199	1.000000	0.000036	0.000024	0.000006	-6.853565	-74.846652	-0.206864
63686	9.503413	-0.319638	2.550236	0.003555	-0.012804	0.032136	1.000000	0.000021	0.000013	0.000033	-6.860630	-74.846172	-0.200037
63687	9.506861	-0.305881	2.581880	-0.024131	0.004842	0.043248	1.000000	0.000020	0.000018	0.000010	-6.858249	-74.845562	-0.204971
63688	9.503253	-0.320070	2.550779	0.003040	-0.013104	0.032136	1.000000	0.000026	0.000006	0.000017	-6.858750	-74.846118	-0.204383
63689	9.522227	-0.289800	2.573149	-0.009870	0.019789	0.055312	1.000000	0.000012	0.000012	0.000023	-6.863264	-74.845960	-0.202971
63690	9.529574	-0.341815	2.557707	0.000663	-0.033675	0.060020	1.000000	0.000034	0.000009	0.000015	-6.861854	-74.846155	-0.203384
63691	9.507088	-0.286408	2.554740	0.004306	0.020732	0.035815	1.000000	0.000039	0.000021	-0.000002	-6.852426	-74.845073	-0.215827
63692	9.514373	-0.338376	2.539534	0.014830	-0.032734	0.040522	1.000000	0.000005	0.000025	0.000034	-6.861520	-74.843227	-0.208893
63693	9.506868	-0.287016	2.555490	0.003784	0.020431	0.035816	1.000000	0.000026	0.000006	0.000017	-6.862272	-74.843885	-0.204997
63694	9.533287	-0.308341	2.562100	0.001664	-0.000002	0.063699	1.000000	0.000040	-0.000000	0.000012	-6.859161	-74.845202	-0.206524
63695	9.529717	-0.322474	2.530878	0.028871	-0.017956	0.052590	1.000000	0.000034	0.000009	0.000015	-6.857856	-74.845148	-0.205059
63696	9.517673	-0.325072	2.571653	-0.013581	-0.015541	0.051630	1.000000	0.000029	0.000019	0.000019	-6.858144	-74.844219	-0.204360
63697	9.502592	-0.321790	2.553022	0.000832	-0.014461	0.032135	1.000000	0.000012	0.000012	0.000023	-6.862218	-74.843896	-0.192405
63698	9.506048	-0.307938	2.584626	-0.026841	0.003185	0.043242	1.000000	0.000031	0.000015	0.000012	-6.859225	-74.843486	-0.194825
63699	9.518448	-0.285665	2.516319	0.044505	0.016951	0.036782	1.000000	0.000012	0.000012	0.000023	-6.863899	-74.843413	-0.190360
63700	9.517330	-0.325973	2.572811	-0.014598	-0.016141	0.051627	1.000000	0.000040	0.000019	0.000010	-6.858995	-74.842641	-0.193781
63701	9.490855	-0.304830	2.566394	-0.012985	0.004001	0.023747	1.000000	0.000023	-0.000007	0.000016	-6.860069	-74.844732	-0.193543
63702	9.517740	-0.306127	2.545085	0.014312	0.000028	0.044206	1.000000	0.000023	0.000030	0.000011	-6.857194	-74.842596	-0.196856
63703	9.517130	-0.326482	2.573487	-0.015382	-0.016566	0.051625	1.000000	0.000019	0.000000	0.000031	-6.864982	-74.843658	-0.194195
63704	9.506155	-0.289087	2.557906	0.001030	0.018783	0.035820	1.000000	0.000023	0.000012	0.000013	-6.863898	-74.843609	-0.195615
63705	9.529003	-0.324437	2.533316	0.026303	-0.019449	0.052594	1.000000	0.000037	0.000006	0.000008	-6.859631	-74.844331	-0.200666
63706	9.502010	-0.323350	2.554991	-0.001498	-0.015779	0.032132	1.000000	0.000026	0.000006	0.000017	-6.860127	-74.844887	-0.200082
63707	9.517468	-0.306965	2.546001	0.013046	-0.000693	0.044208	1.000000	0.000014	0.000010	0.000004	-6.856601	-74.845039	-0.208716
63708	9.505387	-0.309581	2.586861	-0.029402	0.001753	0.043235	1.000000	0.000044	0.000027	0.000034	-6.861200	-74.842954	-0.201786
63709	9.517250	-0.307516	2.546751	0.012530	-0.000987	0.044208	1.000000	0.000004	0.000011	0.000013	-6.862787	-74.843080	-0.202828
63710	9.505189	-0.309970	2.587542	-0.029919	0.001464	0.043234	1.000000	0.000059	0.000020	0.000010	-6.855636	-74.842191	-0.206250
63711	9.501576	-0.324105	2.556507	-0.002768	-0.016504	0.032131	1.000000	0.000015	0.000008	0.000015	-6.856725	-74.842520	-0.205918
63712	9.501528	-0.324203	2.556676	-0.003022	-0.016659	0.032131	1.000000	0.000025	0.000008	0.000006	-6.852360	-74.842991	-0.210456
63713	9.516988	-0.307775	2.547699	0.011537	-0.001584	0.044209	1.000000	0.000034	0.000009	0.000015	-6.851358	-74.843043	-0.210987
63714	9.512848	-0.342117	2.544739	0.009244	-0.036008	0.040517	1.000000	0.000021	0.000015	0.000021	-6.853550	-74.842476	-0.209293
63715	9.520369	-0.293986	2.579544	-0.016348	0.015962	0.055310	1.000000	0.000034	0.000011	0.000004	-6.847862	-74.842450	-0.221207
63716	9.516760	-0.308404	2.548475	0.010800	-0.002029	0.044210	1.000000	0.000011	0.000013	0.000042	-6.860103	-74.841811	-0.210275
63717	9.516144	-0.328767	2.576838	-0.018887	-0.018602	0.051616	1.000000	0.000034	0.000011	0.000004	-6.854142	-74.841828	-0.214173
63718	9.504589	-0.311318	2.589585	-0.031884	0.000304	0.043227	1.000000	0.000024	0.000026	0.000034	-6.860976	-74.839861	-0.207252
63719	9.516496	-0.309269	2.549353	0.010041	-0.002454	0.044211	1.000000	0.000020	-0.000001	0.000012	-6.860753	-74.841382	-0.207184
63720	9.516445	-0.309318	2.549538	0.009787	-0.002611	0.044211	1.000000	0.000040	0.000019	0.000010	-6.855841	-74.840612	-0.210612
63721	9.519877	-0.295246	2.581216	-0.017853	0.015090	0.055309	1.000000	0.000020	0.000018	0.000010	-6.853545	-74.839892	-0.212537
63722	9.531245	-0.313010	2.569122	-0.005368	-0.004129	0.063696	1.000000	0.000034	0.000009	0.000015	-6.852126	-74.840087	-0.212958
63723	9.504755	-0.291868	2.562789	-0.003699	0.016017	0.035824	1.000000	0.000031	0.000015	0.000012	-6.849474	-74.839681	-0.213576
63724	9.500631	-0.326160	2.559757	-0.006012	-0.018405	0.032126	1.000000	0.000029	0.000000	0.000021	-6.851547	-74.840841	-0.210990
63725	9.531097	-0.313481	2.569617	-0.006122	-0.004551	0.063696	1.000000	0.000026	0.000006	0.000017	-6.852711	-74.841345	-0.215938
63726	9.519578	-0.296014	2.582230	-0.019107	0.014362	0.055308	1.000000	0.000029	0.000019	0.000019	-6.852985	-74.840417	-0.215250
63727	9.500982	-0.306704	2.532305	0.022679	-0.002391	0.024730	1.000000	0.000031	0.000015	0.000012	-6.850888	-74.840096	-0.229817
63728	9.515891	-0.310392	2.551477	0.007762	-0.003762	0.044213	1.000000	0.000026	0.000006	0.000017	-6.851379	-74.840652	-0.229238
63729	9.542795	-0.311734	2.530169	0.035055	-0.007789	0.064689	1.000000	0.000031	0.000015	0.000012	-6.848613	-74.840130	-0.229908
63730	9.515760	-0.310657	2.551933	0.007275	-0.004064	0.044213	1.000000	0.000015	0.000008	0.000015	-6.849435	-74.840443	-0.230332
63731	9.519787	-0.276687	2.555299	0.009106	0.030056	0.047915	1.000000	0.000034	0.000009	0.000015	-6.848260	-74.840622	-0.228527
63732	9.515652	-0.311098	2.552280	0.006770	-0.004365	0.044213	1.000000	0.000016	0.000006	0.000027	-6.853939	-74.841020	-0.223832
63733	9.546065	-0.298306	2.562356	0.006646	0.009471	0.075785	1.000000	0.000028	0.000023	-0.000004	-6.844866	-74.839976	-0.230882
63734	9.515536	-0.311168	2.552703	0.006253	-0.004660	0.044213	1.000000	0.000046	-0.000012	0.000020	-6.844910	-74.842502	-0.228402
63735	9.515501	-0.311354	2.552813	0.006024	-0.004811	0.044213	1.000000	0.000018	0.000021	0.000017	-6.845629	-74.841189	-0.228131
63736	9.530388	-0.315124	2.572043	-0.008897	-0.006179	0.063693	1.000000	0.000026	0.000006	0.000017	-6.846117	-74.841745	-0.227553
63737	9.503935	-0.294200	2.565561	-0.007212	0.013970	0.035825	1.000000	0.000016	0.000006	0.000027	-6.852119	-74.842225	-0.220810
63738	9.530840	-0.295676	2.544256	0.020056	0.009918	0.056308	1.000000	0.000031	0.000015	0.000012	-6.849111	-74.841816	-0.223241
63739	9.488249	-0.310963	2.575279	-0.022512	-0.001513	0.023730	1.000000	0.000020	0.000018	0.000010	-6.846673	-74.841091	-0.226652
63740	9.545650	-0.299486	2.563763	0.004892	0.008404	0.075787	1.000000	0.000007	0.000005	0.000017	-6.849406	-74.841764	-0.226076
63741	9.499550	-0.329088	2.563392	-0.010299	-0.020906	0.032118	1.000000	0.000029	0.000019	0.000019	-6.849647	-74.840797	-0.218758
63742	9.519118	-0.278619	2.557581	0.006351	0.028382	0.047922	1.000000	0.000040	-0.000000	0.000012	-6.846527	-74.842115	-0.220291
63743	9.503531	-0.295233	2.566940	-0.008717	0.013060	0.035825	1.000000	0.000009	0.000018	0.000019	-6.849346	-74.841352	-0.220186
63744	9.503414	-0.295575	2.567333	-0.008970	0.012905	0.035825	1.000000	0.000027	0.000022	0.000027	-6.852888	-74.839904	-0.216393
63745	9.514741	-0.313598	2.555368	0.003497	-0.006333	0.044214	1.000000	0.000021	0.000015	0.000021	-6.855122	-74.839266	-0.213446
63746	9.503249	-0.296072	2.567889	-0.009463	0.012596	0.035825	1.000000	0.000029	0.000002	0.000010	-6.852334	-74.840341	-0.215982
63747	9.499128	-0.330365	2.564791	-0.011812	-0.021812	0.032114	1.000000	0.000018	0.000003	0.000019	-6.854930	-74.841200	-0.216154
63748	9.530129	-0.297625	2.546690	0.017556	0.008382	0.056314	1.000000	0.000017	0.000023	0.000006	-6.850667	-74.839945	-0.221599
63749	9.525940	-0.331939	2.543841	0.015205	-0.026029	0.052602	1.000000	0.000035	0.000007	0.000027	-6.854286	-74.840148	-0.217631
63750	9.488099	-0.293185	2.549551	0.004226	0.013198	0.016351	1.000000	0.000014	-0.000008	0.000006	-6.852050	-74.842465	-0.221274
63751	9.529966	-0.298127	2.547239	0.016806	0.007924	0.056316	1.000000	0.000032	0.000032	0.000021	-6.852179	-74.840068	-0.215960
63752	9.503445	-0.277136	2.541048	0.018531	0.028062	0.028454	1.000000	0.000032	0.000013	0.000023	-6.854025	-74.839743	-0.213275
63753	9.517760	-0.300905	2.588359	-0.025891	0.010322	0.055297	1.000000	0.000026	0.000006	0.000017	-6.854480	-74.840315	-0.208412
63754	9.545248	-0.282388	2.538952	0.030855	0.022623	0.068421	1.000000	0.000029	0.000019	0.000019	-6.854741	-74.839387	-0.207735
63755	9.514082	-0.315536	2.557584	0.000992	-0.007880	0.044213	1.000000	0.000035	0.000007	0.000027	-6.858035	-74.839578	-0.199465
63756	9.487630	-0.294521	2.551140	0.002721	0.012261	0.016353	1.000000	0.000023	0.000012	0.000013	-6.856935	-74.839530	-0.200898
63757	9.502532	-0.298233	2.570291	-0.012205	0.010899	0.035824	1.000000	0.000026	0.000006	0.000017	-6.857383	-74.840058	-0.199364
63758	9.513931	-0.316064	2.558081	0.000236	-0.008350	0.044213	1.000000	0.000017	0.000005	0.000008	-6.854923	-74.840890	-0.202906
63759	9.528844	-0.319804	2.577180	-0.014701	-0.009707	0.063683	1.000000	0.000035	0.000007	0.000027	-6.858405	-74.841185	-0.196929
63760	9.510285	-0.330587	2.527207	0.027097	-0.026550	0.033132	1.000000	0.000028	0.000021	0.000008	-6.853805	-74.840173	-0.201374
63761	9.502297	-0.298815	2.571091	-0.013221	0.010284	0.035823	1.000000	0.000026	0.000006	0.000017	-6.854365	-74.840741	-0.199585
63762	9.529215	-0.300221	2.549803	0.014031	0.006196	0.056321	1.000000	0.000031	0.000015	0.000012	-6.851348	-74.840333	-0.202023
63763	9.514200	-0.296806	2.531049	0.028463	0.007244	0.036853	1.000000	0.000026	0.000006	0.000017	-6.851900	-74.840872	-0.202574
63764	9.524981	-0.334653	2.547076	0.011397	-0.028375	0.052601	1.000000	0.000023	0.000012	0.000013	-6.850797	-74.840825	-0.204009
63765	9.517014	-0.302938	2.590864	-0.028924	0.008471	0.055291	1.000000	0.000026	0.000006	0.000017	-6.851406	-74.841452	-0.203348
63766	9.498534	-0.313753	2.540611	0.012875	-0.008382	0.024744	1.000000	0.000023	-0.000007	0.000016	-6.852113	-74.843492	-0.202875
63767	9.524887	-0.335125	2.547366	0.010612	-0.028833	0.052600	1.000000	0.000031	0.000015	0.000012	-6.849237	-74.843118	-0.207513
63768	9.528920	-0.301164	2.550795	0.012496	0.005269	0.056324	1.000000	0.000021	0.000015	0.000021	-6.851407	-74.842550	-0.205838
63769	9.529449	-0.281409	2.522882	0.041757	0.021468	0.048971	1.000000	0.000034	0.000009	0.000015	-6.850095	-74.842705	-0.210959
63770	9.501172	-0.320318	2.601001	-0.045009	-0.007439	0.043173	1.000000	0.000018	0.000019	0.000029	-6.855537	-74.841616	-0.206174
63771	9.513089	-0.318417	2.560920	-0.003088	-0.010345	0.044210	1.000000	0.000018	0.000021	0.000017	-6.856228	-74.840494	-0.205463
63772	9.513022	-0.318661	2.561138	-0.003342	-0.010501	0.044210	1.000000	0.000029	0.000000	0.000021	-6.858292	-74.841653	-0.202883
63773	9.498611	-0.295420	2.514230	0.040590	0.006892	0.017396	1.000000	0.000006	0.000024	0.000015	-6.859423	-74.840321	-0.206558
63774	9.501419	-0.301340	2.574041	-0.016534	0.008306	0.035820	1.000000	0.000043	0.000013	0.000014	-6.856071	-74.840157	-0.207995
63775	9.513400	-0.299117	2.533784	0.025393	0.005388	0.036863	1.000000	0.000026	0.000008	0.000006	-6.851792	-74.840642	-0.211850
63776	9.513352	-0.299215	2.533952	0.025141	0.005230	0.036863	1.000000	0.000015	0.000008	0.000015	-6.852602	-74.840955	-0.212284
63777	9.497125	-0.335747	2.571502	-0.019471	-0.026399	0.032091	1.000000	0.000035	0.000009	0.000015	-6.851384	-74.841231	-0.218801
63778	9.539616	-0.320809	2.540997	0.022593	-0.015381	0.064717	1.000000	0.000015	0.000008	0.000015	-6.852194	-74.841544	-0.219235
63779	9.512541	-0.319615	2.562803	-0.005154	-0.011561	0.044208	1.000000	0.000017	0.000023	0.000006	-6.848038	-74.840305	-0.223045
63780	9.515988	-0.305560	2.594319	-0.032762	0.006209	0.055280	1.000000	0.000029	0.000000	0.000021	-6.850101	-74.841464	-0.220466
63781	9.516523	-0.286004	2.566410	-0.003499	0.022383	0.047939	1.000000	0.000024	0.000026	0.000034	-6.856878	-74.839518	-0.207192
63782	9.508763	-0.334550	2.532407	0.021434	-0.029954	0.033136	1.000000	0.000034	0.000011	0.000004	-6.850582	-74.839632	-0.212745
63783	9.485846	-0.299112	2.557235	-0.004150	0.008129	0.016357	1.000000	0.000023	0.000012	0.000013	-6.849662	-74.839650	-0.213742
63784	9.512159	-0.320540	2.564107	-0.006439	-0.012332	0.044207	1.000000	0.000026	0.000006	0.000017	-6.850139	-74.840206	-0.213173
63785	9.497163	-0.317173	2.545308	0.008005	-0.011300	0.024746	1.000000	0.000023	0.000012	0.000013	-6.848994	-74.840147	-0.207581
63786	9.527587	-0.304406	2.555385	0.007885	0.002493	0.056330	1.000000	0.000020	0.000018	0.000009	-6.846300	-74.839496	-0.211030
63787	9.500523	-0.303333	2.577110	-0.019858	0.006324	0.035816	1.000000	0.000016	0.000006	0.000027	-6.852125	-74.839913	-0.208536
63788	9.496935	-0.317739	2.546088	0.007240	-0.011761	0.024746	1.000000	0.000040	0.000019	0.000010	-6.847182	-74.839146	-0.211985
63789	9.530872	-0.290769	2.587439	-0.020239	0.019968	0.067399	1.000000	0.000004	0.000011	0.000013	-6.848459	-74.839264	-0.211808
63790	9.500294	-0.303562	2.577929	-0.020625	0.005866	0.035814	1.000000	0.000041	0.000017	-0.000010	-6.835389	-74.838935	-0.223484
63791	9.527213	-0.304767	2.556736	0.006599	0.001727	0.056331	1.000000	0.000023	0.000012	0.000013	-6.834355	-74.838918	-0.221032
63792	9.511569	-0.321373	2.566189	-0.008486	-0.013563	0.044203	1.000000	0.000032	0.000013	0.000023	-6.836185	-74.838594	-0.218360
63793	9.512117	-0.301728	2.538288	0.020790	0.002606	0.036875	1.000000	0.000021	0.000015	0.000021	-6.838444	-74.838032	-0.215896
63794	9.512051	-0.301972	2.538505	0.020537	0.002449	0.036875	1.000000	0.000026	0.000006	0.000017	-6.838918	-74.838588	-0.215329
63795	9.515520	-0.288181	2.569883	-0.007070	0.020234	0.047942	1.000000	0.000016	0.000004	0.000038	-6.849545	-74.839104	-0.204847
63796	9.508399	-0.316862	2.507685	0.047371	-0.015799	0.025811	1.000000	0.000034	0.000030	0.000002	-6.841428	-74.837130	-0.212316
63797	9.499748	-0.304857	2.579785	-0.022405	0.004793	0.035811	1.000000	0.000026	0.000006	0.000017	-6.841901	-74.837664	-0.208421
63798	9.496856	-0.299260	2.520400	0.034224	0.003012	0.017423	1.000000	0.000040	-0.000000	0.000012	-6.838772	-74.838985	-0.209958
63799	9.526671	-0.306360	2.558564	0.004552	0.000493	0.056332	1.000000	0.000020	0.000018	0.000009	-6.836255	-74.838413	-0.215817
63800	9.515178	-0.288643	2.571096	-0.008342	0.019464	0.047942	1.000000	0.000026	0.000008	0.000006	-6.831871	-74.838887	-0.220369
63801	9.510968	-0.322839	2.568230	-0.010787	-0.014945	0.044199	1.000000	0.000023	0.000012	0.000013	-6.830753	-74.838822	-0.220938
63802	9.499469	-0.305188	2.580775	-0.023680	0.004029	0.035808	1.000000	0.000031	0.000015	0.000011	-6.827722	-74.838415	-0.223387
63803	9.496548	-0.299509	2.521532	0.032949	0.002233	0.017427	1.000000	0.000037	0.000006	0.000008	-6.823055	-74.839139	-0.227340
63804	9.514288	-0.308762	2.600170	-0.038893	0.002541	0.055260	1.000000	0.000023	0.000012	0.000013	-6.821941	-74.839091	-0.228785
63805	9.495754	-0.319879	2.550220	0.002890	-0.014378	0.024745	1.000000	0.000008	0.000019	0.000038	-6.832666	-74.837901	-0.220935
63806	9.530329	-0.273166	2.563373	0.004974	0.033657	0.060079	1.000000	0.000034	0.000011	0.000004	-6.826364	-74.838015	-0.226492
63807	9.507017	-0.337893	2.538514	0.015005	-0.033819	0.033135	1.000000	0.000043	0.000013	0.000014	-6.823116	-74.837894	-0.230101
63808	9.526025	-0.307322	2.560855	0.002253	-0.000903	0.056333	1.000000	0.000031	0.000015	0.000011	-6.820084	-74.837487	-0.232551
63809	9.498932	-0.306020	2.582653	-0.025476	0.002964	0.035804	1.000000	0.000020	0.000018	0.000009	-6.817441	-74.836876	-0.235180
63810	9.514450	-0.289761	2.573661	-0.010888	0.017924	0.047942	1.000000	0.000038	0.000004	0.000019	-6.817579	-74.837676	-0.233613
63811	9.510896	-0.304155	2.542567	0.016192	-0.000189	0.036883	1.000000	0.000023	0.000012	0.000013	-6.816555	-74.837642	-0.237582
63812	9.495874	-0.301000	2.523889	0.030650	0.000831	0.017435	1.000000	0.000027	0.000020	0.000038	-6.824916	-74.836276	-0.228703
63813	9.525653	-0.308120	2.562138	0.000966	-0.001674	0.056333	1.000000	0.000039	0.000004	-0.000011	-6.812144	-74.837485	-0.240681
63814	9.509997	-0.324420	2.571628	-0.014132	-0.016940	0.044192	1.000000	0.000006	0.000024	0.000015	-6.813043	-74.836068	-0.242034
63815	9.509904	-0.324712	2.571934	-0.014390	-0.017094	0.044191	1.000000	0.000035	0.000007	0.000027	-6.816481	-74.836371	-0.235375
63816	9.514017	-0.290845	2.575140	-0.012418	0.017001	0.047942	1.000000	0.000015	0.000008	0.000015	-6.817281	-74.836682	-0.235817
63817	9.510454	-0.305268	2.544088	0.014652	-0.001119	0.036886	1.000000	0.000023	0.000012	0.000013	-6.816271	-74.836680	-0.237838
63818	9.525320	-0.308840	2.563292	-0.000315	-0.002449	0.056333	1.000000	0.000026	0.000008	0.000006	-6.811883	-74.837154	-0.242393
63819	9.509678	-0.325488	2.572670	-0.015418	-0.017708	0.044188	1.000000	0.000025	0.000008	0.000036	-6.820527	-74.837294	-0.232125
63820	9.498184	-0.307926	2.585174	-0.028286	0.001282	0.035797	1.000000	0.000031	0.000017	-0.000000	-6.812635	-74.836804	-0.239694
63821	9.510150	-0.305989	2.545136	0.013627	-0.001737	0.036887	1.000000	0.000024	0.000026	0.000034	-6.819568	-74.834885	-0.234793
63822	9.497953	-0.308320	2.585977	-0.028801	0.000982	0.035796	1.000000	0.000034	0.000011	0.000004	-6.813262	-74.834999	-0.240353
63823	9.498574	-0.288484	2.557941	0.000508	0.017106	0.028497	1.000000	0.000026	0.000006	0.000017	-6.813896	-74.835579	-0.243186
63824	9.509938	-0.306418	2.545879	0.012863	-0.002200	0.036888	1.000000	0.000023	0.000012	0.000013	-6.812776	-74.835531	-0.244635
63825	9.497791	-0.308692	2.586528	-0.029572	0.000533	0.035793	1.000000	0.000026	0.000006	0.000017	-6.813337	-74.836133	-0.243487
63826	9.524768	-0.310328	2.565162	-0.002370	-0.003676	0.056332	1.000000	0.000018	0.000003	0.000019	-6.815720	-74.837048	-0.241922
63827	9.498376	-0.289329	2.558581	-0.000508	0.016490	0.028498	1.000000	0.000021	0.000015	0.000021	-6.817919	-74.836483	-0.239182
63828	9.509067	-0.327182	2.574712	-0.017730	-0.019080	0.044182	1.000000	0.000020	-0.000001	0.000012	-6.817033	-74.837919	-0.240723
63829	9.509029	-0.327258	2.574844	-0.017982	-0.019236	0.044181	1.000000	0.000043	0.000013	0.000013	-6.813674	-74.837745	-0.239044
63830	9.509601	-0.307598	2.546993	0.011337	-0.003131	0.036890	1.000000	0.000015	0.000025	0.000025	-6.817501	-74.836051	-0.236293
63831	9.509508	-0.307783	2.547319	0.011090	-0.003283	0.036890	1.000000	0.000026	0.000008	0.000006	-6.813239	-74.836485	-0.245406
63832	9.528550	-0.277209	2.569546	-0.001626	0.029643	0.060093	1.000000	0.000023	0.000012	0.000013	-6.812117	-74.836437	-0.246857
63833	9.509376	-0.307938	2.547794	0.010586	-0.003594	0.036890	1.000000	0.000031	0.000015	0.000011	-6.809106	-74.836016	-0.247756
63834	9.493688	-0.324474	2.557321	-0.004523	-0.018839	0.024737	1.000000	0.000021	0.000015	0.000021	-6.811250	-74.835447	-0.246102
63835	9.493660	-0.324697	2.557398	-0.004776	-0.018990	0.024737	1.000000	0.000035	-0.000009	0.000018	-6.811705	-74.837726	-0.245054
63836	9.494315	-0.305067	2.529261	0.024551	-0.002897	0.017452	1.000000	0.000009	0.000018	0.000019	-6.814181	-74.836912	-0.244405
63837	9.524034	-0.312339	2.567641	-0.005159	-0.005369	0.056330	1.000000	0.000029	0.000019	0.000019	-6.814591	-74.836027	-0.245837
63838	9.497669	-0.291247	2.560989	-0.003275	0.014798	0.028500	1.000000	0.000023	-0.000007	0.000016	-6.815292	-74.838066	-0.245368
63839	9.509027	-0.309195	2.548943	0.009060	-0.004518	0.036892	1.000000	0.000026	0.000025	0.000015	-6.813981	-74.836530	-0.244774
63840	9.512423	-0.295059	2.580543	-0.018505	0.013329	0.047938	1.000000	0.000023	0.000012	0.000013	-6.812856	-74.836482	-0.246227
63841	9.493960	-0.305896	2.530494	0.023280	-0.003666	0.017454	1.000000	0.000026	0.000008	0.000006	-6.808598	-74.836958	-0.253972
63842	9.523736	-0.312987	2.568669	-0.006428	-0.006140	0.056329	1.000000	0.000026	0.000006	0.000017	-6.809059	-74.837514	-0.253415
63843	9.508797	-0.309602	2.549751	0.008050	-0.005136	0.036892	1.000000	0.000029	0.000002	0.000010	-6.806273	-74.838571	-0.253454
63844	9.497326	-0.291989	2.562177	-0.004784	0.013874	0.028501	1.000000	0.000009	0.000018	0.000019	-6.808746	-74.837757	-0.252808
63845	9.523567	-0.313600	2.569220	-0.007184	-0.006607	0.056328	1.000000	0.000035	0.000007	0.000027	-6.812137	-74.838023	-0.243628
63846	9.508602	-0.310215	2.550405	0.007292	-0.005605	0.036892	1.000000	0.000034	0.000011	0.000004	-6.805823	-74.838138	-0.249193
63847	9.497137	-0.292589	2.562808	-0.005547	0.013415	0.028501	1.000000	0.000016	0.000006	0.000027	-6.811628	-74.838583	-0.245489
63848	9.511999	-0.296399	2.581952	-0.020530	0.012103	0.047936	1.000000	0.000026	0.000006	0.000017	-6.812088	-74.839139	-0.244934
63849	9.523363	-0.314229	2.569898	-0.008206	-0.007221	0.056327	1.000000	0.000045	0.000009	0.000006	-6.805474	-74.839481	-0.248751
63850	9.481378	-0.309290	2.572547	-0.021164	-0.002122	0.016338	1.000000	0.000023	0.000012	0.000013	-6.804345	-74.839433	-0.250207
63851	9.523213	-0.314303	2.570445	-0.008714	-0.007533	0.056326	1.000000	0.000028	0.000021	0.000008	-6.799724	-74.838427	-0.249805
63852	9.520329	-0.308899	2.511307	0.047934	-0.009478	0.038016	1.000000	0.000032	0.000013	0.000023	-6.801529	-74.838102	-0.247152
63853	9.508167	-0.311253	2.551898	0.005513	-0.006685	0.036893	1.000000	0.000010	-0.000001	0.000021	-6.805932	-74.839366	-0.246734
63854	9.507450	-0.331275	2.580155	-0.024339	-0.023064	0.044159	1.000000	0.000040	-0.000000	0.000012	-6.802790	-74.840688	-0.248280
63855	9.508821	-0.291759	2.523817	0.034606	0.009229	0.029628	1.000000	0.000021	0.000015	0.000021	-6.805044	-74.840126	-0.246461
63856	9.492414	-0.328040	2.561593	-0.010114	-0.022215	0.024726	1.000000	0.000022	0.000014	0.000002	-6.799058	-74.839997	-0.253035
63857	9.507939	-0.311767	2.552686	0.004498	-0.007300	0.036893	1.000000	0.000029	0.000019	0.000019	-6.799360	-74.839069	-0.250352
63858	9.538377	-0.299136	2.562745	0.004375	0.006456	0.068492	1.000000	0.000015	0.000008	0.000015	-6.800149	-74.839380	-0.250803
63859	9.492140	-0.328462	2.562553	-0.010876	-0.022674	0.024724	1.000000	0.000034	0.000028	0.000013	-6.796934	-74.837500	-0.250212
63860	9.523275	-0.296042	2.544425	0.018604	0.007299	0.049063	1.000000	0.000016	0.000006	0.000027	-6.802576	-74.837892	-0.245549
63861	9.522512	-0.316181	2.572811	-0.011258	-0.009065	0.056323	1.000000	0.000026	0.000006	0.000017	-6.803193	-74.838465	-0.246837
63862	9.523224	-0.296541	2.544560	0.018095	0.006991	0.049064	1.000000	0.000023	-0.000007	0.000016	-6.803891	-74.840504	-0.246370
63863	9.522445	-0.316648	2.573002	-0.011773	-0.009374	0.056322	1.000000	0.000015	0.000025	0.000025	-6.807780	-74.838851	-0.237975
63864	9.492543	-0.309927	2.535315	0.017453	-0.007228	0.017464	1.000000	0.000023	0.000012	0.000013	-6.806647	-74.838803	-0.239434
63865	9.522994	-0.297223	2.545340	0.017324	0.006531	0.049066	1.000000	0.000023	0.000012	0.000013	-6.805638	-74.838779	-0.239145
63866	9.511508	-0.279519	2.557829	0.004515	0.025556	0.040674	1.000000	0.000020	0.000018	0.000009	-6.802916	-74.838128	-0.242617
63867	9.495088	-0.315921	2.595564	-0.040217	-0.005860	0.035754	1.000000	0.000016	0.000006	0.000027	-6.808658	-74.838514	-0.239596
63868	9.522768	-0.297787	2.546120	0.016566	0.006064	0.049067	1.000000	0.000040	0.000018	0.000010	-6.803683	-74.837750	-0.243069
63869	9.507073	-0.314201	2.555611	0.001443	-0.009144	0.036892	1.000000	0.000026	0.000006	0.000017	-6.804240	-74.838299	-0.243822
63870	9.537485	-0.301576	2.565775	0.001318	0.004607	0.068494	1.000000	0.000032	0.000032	0.000021	-6.804206	-74.835887	-0.243102
63871	9.495473	-0.296773	2.568484	-0.011617	0.009734	0.028500	1.000000	0.000020	-0.000001	0.000012	-6.803394	-74.837343	-0.242307
63872	9.491948	-0.311226	2.537380	0.015424	-0.008462	0.017467	1.000000	0.000023	0.000012	0.000013	-6.802259	-74.837296	-0.243768
63873	9.510274	-0.300666	2.587809	-0.026868	0.008282	0.047925	1.000000	0.000016	0.000006	0.000027	-6.807996	-74.837696	-0.238981
63874	9.521629	-0.318687	2.575769	-0.014575	-0.011061	0.056316	1.000000	0.000026	0.000008	0.000006	-6.803595	-74.838171	-0.243545
63875	9.510148	-0.300855	2.588249	-0.027374	0.007977	0.047924	1.000000	0.000028	0.000021	0.000007	-6.799035	-74.837163	-0.246900
63876	9.521450	-0.318592	2.576443	-0.015083	-0.011369	0.056315	1.000000	0.000031	0.000017	-0.000000	-6.791124	-74.836676	-0.254483
63877	9.506510	-0.315203	2.557581	-0.000588	-0.010377	0.036891	1.000000	0.000010	-0.000001	0.000021	-6.795488	-74.837939	-0.250249
63878	9.490872	-0.331707	2.566831	-0.015717	-0.025579	0.024710	1.000000	0.000040	-0.000000	0.000012	-6.792342	-74.839262	-0.251797
63879	9.533460	-0.317095	2.536415	0.026325	-0.014832	0.057465	1.000000	0.000015	0.000025	0.000025	-6.796197	-74.837543	-0.245823
63880	9.507065	-0.296052	2.529926	0.028279	0.005347	0.029651	1.000000	0.000023	0.000012	0.000013	-6.795060	-74.837496	-0.247285
63881	9.525385	-0.285252	2.580374	-0.014011	0.022100	0.060103	1.000000	0.000026	0.000008	0.000006	-6.790742	-74.837968	-0.249267
63882	9.510443	-0.281934	2.561524	0.000487	0.023088	0.040681	1.000000	0.000024	0.000010	0.000025	-6.794457	-74.838002	-0.245616
63883	9.521031	-0.319798	2.577840	-0.017702	-0.009740	0.056312	1.000000	0.000023	0.000012	0.000013	-6.853650	-74.842957	-0.186095
63884	9.506789	-0.296665	2.530888	0.026420	0.007437	0.029655	1.000000	0.000026	0.000025	0.000015	-6.852510	-74.841447	-0.187223
63885	9.520856	-0.320194	2.578439	-0.018214	-0.010033	0.056311	1.000000	0.000010	-0.000001	0.000021	-6.856951	-74.842716	-0.183902
63886	9.502490	-0.331323	2.528132	0.023569	-0.027098	0.025872	1.000000	0.000023	-0.000007	0.000016	-6.857907	-74.844776	-0.183169
63887	9.494537	-0.299340	2.571647	-0.016503	0.010009	0.028493	1.000000	0.000029	0.000019	0.000019	-6.858316	-74.843846	-0.184519
63888	9.495213	-0.279645	2.543636	0.012874	0.026042	0.021259	1.000000	0.000026	0.000008	0.000006	-6.854163	-74.844343	-0.188826
63889	9.536314	-0.304570	2.569771	-0.004363	0.004430	0.068493	1.000000	0.000021	0.000015	0.000021	-6.856519	-74.843793	-0.189875
63890	9.509951	-0.283472	2.563178	-0.002391	0.024617	0.040677	1.000000	0.000023	0.000012	0.000013	-6.855629	-74.843767	-0.191082
63891	9.502169	-0.332131	2.529231	0.022285	-0.027838	0.025873	1.000000	0.000026	0.000006	0.000017	-6.856199	-74.844320	-0.188895
63892	9.509816	-0.283741	2.563651	-0.002898	0.024322	0.040678	1.000000	0.000017	0.000023	0.000005	-6.852123	-74.843089	-0.194134
63893	9.505464	-0.317928	2.561129	-0.005515	-0.010061	0.036890	1.000000	0.000020	0.000018	0.000009	-6.849613	-74.842473	-0.200212
63894	9.505389	-0.318130	2.561382	-0.005772	-0.010205	0.036890	1.000000	0.000035	0.000007	0.000027	-6.853246	-74.842772	-0.195297
63895	9.520959	-0.302137	2.552366	0.008854	0.004679	0.049078	1.000000	0.000021	0.000015	0.000021	-6.855508	-74.842214	-0.190307
63896	9.490355	-0.315176	2.542847	0.008475	-0.009369	0.017475	1.000000	0.000023	0.000012	0.000013	-6.854617	-74.842189	-0.191515
63897	9.520025	-0.322194	2.581255	-0.021303	-0.011773	0.056303	1.000000	0.000028	0.000021	0.000007	-6.850181	-74.841201	-0.199591
63898	9.519948	-0.322289	2.581528	-0.021561	-0.011917	0.056302	1.000000	0.000026	0.000006	0.000017	-6.850881	-74.841778	-0.198784
63899	9.493607	-0.301322	2.574846	-0.019572	0.008272	0.028489	1.000000	0.000022	0.000013	0.000032	-6.858060	-74.841310	-0.190528
63900	9.504939	-0.319180	2.562923	-0.007315	-0.011079	0.036888	1.000000	0.000036	0.000010	-0.000015	-6.843865	-74.841894	-0.204060
63901	9.520503	-0.302987	2.553963	0.007323	0.003799	0.049080	1.000000	0.000008	0.000019	0.000038	-6.854588	-74.840598	-0.195835
63902	9.535316	-0.306811	2.573205	-0.007697	0.002528	0.068492	1.000000	0.000040	-0.000000	0.000012	-6.851695	-74.841944	-0.197120
63903	9.502042	-0.314206	2.504067	0.048845	-0.013452	0.018656	1.000000	0.000023	0.000014	0.000002	-6.845898	-74.841836	-0.202620
63904	9.504681	-0.319629	2.563821	-0.008335	-0.011663	0.036886	1.000000	0.000023	0.000012	0.000013	-6.845004	-74.841810	-0.203830
63905	9.489737	-0.316292	2.545014	0.006171	-0.010682	0.017475	1.000000	0.000023	0.000012	0.000013	-6.844120	-74.841793	-0.205886
63906	9.505332	-0.300163	2.535943	0.020803	0.004195	0.029670	1.000000	0.000026	0.000006	0.000017	-6.844818	-74.842369	-0.205080
63907	9.520151	-0.304024	2.555152	0.005783	0.002925	0.049081	1.000000	0.000013	0.000010	0.000034	-6.853949	-74.842244	-0.199245
63908	9.507894	-0.306218	2.595891	-0.036632	0.005854	0.047895	1.000000	0.000040	0.000018	0.000009	-6.849205	-74.841504	-0.202475
63909	9.489457	-0.317231	2.545939	0.005142	-0.011262	0.017475	1.000000	0.000004	0.000011	0.000013	-6.850541	-74.841610	-0.201926
63910	9.519955	-0.304468	2.555830	0.005008	0.002489	0.049081	1.000000	0.000031	-0.000001	0.000002	-6.844716	-74.843235	-0.207318
63911	9.531306	-0.322406	2.543832	0.017253	-0.016875	0.057481	1.000000	0.000021	0.000015	0.000021	-6.847011	-74.842666	-0.202883
63912	9.504178	-0.321056	2.565508	-0.010394	-0.012820	0.036883	1.000000	0.000023	0.000012	0.000013	-6.846114	-74.842640	-0.204094
63913	9.523243	-0.290517	2.587683	-0.023026	0.020148	0.060090	1.000000	0.000023	0.000012	0.000013	-6.845222	-74.842622	-0.205017
63914	9.519696	-0.305037	2.556726	0.003982	0.001906	0.049082	1.000000	0.000023	0.000012	0.000013	-6.844325	-74.842596	-0.206229
63915	9.503960	-0.321536	2.566256	-0.011162	-0.013255	0.036882	1.000000	0.000021	0.000015	0.000021	-6.846638	-74.842017	-0.203600
63916	9.492498	-0.303871	2.578631	-0.023912	0.005821	0.028481	1.000000	0.000046	0.000007	0.000017	-6.845079	-74.842482	-0.202799
63917	9.546587	-0.307154	2.535853	0.030606	-0.002743	0.069684	1.000000	0.000023	-0.000007	0.000016	-6.846010	-74.844513	-0.203331
63918	9.503820	-0.322144	2.566696	-0.011930	-0.013688	0.036880	1.000000	0.000015	0.000025	0.000025	-6.850038	-74.842837	-0.200365
63919	9.493107	-0.284758	2.550918	0.004993	0.021516	0.021277	1.000000	0.000032	0.000015	0.000011	-6.847186	-74.842445	-0.201641
63920	9.504422	-0.302714	2.539052	0.017225	0.002148	0.029678	1.000000	0.000023	0.000012	0.000013	-6.846287	-74.842419	-0.202855
63921	9.534882	-0.290034	2.549081	0.017090	0.015892	0.061287	1.000000	0.000023	0.000012	0.000013	-6.845346	-74.842392	-0.201264
63922	9.534014	-0.309980	2.577647	-0.012836	-0.000377	0.068487	1.000000	0.000032	0.000013	0.000023	-6.847376	-74.842088	-0.198374
63923	9.504214	-0.303295	2.539758	0.016454	0.001709	0.029679	1.000000	0.000015	0.000008	0.000015	-6.848379	-74.842426	-0.198596
63924	9.503375	-0.323121	2.568223	-0.013474	-0.014557	0.036877	1.000000	0.000037	0.000006	0.000008	-6.843888	-74.843170	-0.201902
63925	9.549513	-0.294028	2.568951	0.001288	0.014193	0.080693	1.000000	0.000043	0.000013	0.000013	-6.840744	-74.843030	-0.206336
63926	9.473500	-0.316319	2.530635	0.015563	-0.012616	-0.001930	1.000000	0.000029	0.000019	0.000019	-6.841178	-74.842123	-0.205463
63927	9.518827	-0.307208	2.559700	0.000654	0.000012	0.049083	1.000000	0.000018	0.000003	0.000019	-6.843745	-74.843044	-0.203139
63928	9.503930	-0.303981	2.540739	0.015174	0.000979	0.029681	1.000000	0.000026	0.000006	0.000017	-6.844438	-74.843621	-0.202338
63929	9.515275	-0.321938	2.528762	0.027394	-0.018399	0.038082	1.000000	0.000026	0.000008	0.000006	-6.840240	-74.844115	-0.205871
63930	9.518689	-0.307652	2.560163	-0.000117	-0.000425	0.049083	1.000000	0.000032	0.000013	0.000023	-6.842266	-74.843811	-0.202983
63931	9.518593	-0.308060	2.560469	-0.000374	-0.000571	0.049083	1.000000	-0.000001	0.000018	0.000028	-6.850099	-74.842852	-0.196329
63932	9.503626	-0.304862	2.541771	0.014148	0.000395	0.029683	1.000000	0.000040	0.000018	0.000009	-6.845345	-74.842113	-0.199566
63933	9.533278	-0.311864	2.580141	-0.015669	-0.001971	0.068483	1.000000	0.000026	0.000006	0.000017	-6.846035	-74.842692	-0.200408
63934	9.507756	-0.270863	2.545182	0.016068	0.034333	0.033495	1.000000	0.000037	0.000024	0.000006	-6.839685	-74.841350	-0.205664
63935	9.503396	-0.305100	2.542602	0.013377	-0.000044	0.029684	1.000000	0.000018	0.000003	0.000019	-6.842238	-74.842290	-0.200365
63936	9.518203	-0.308828	2.561826	-0.001662	-0.001298	0.049083	1.000000	0.000032	0.000013	0.000023	-6.844262	-74.841986	-0.197479
63937	9.533790	-0.292845	2.552844	0.012984	0.013547	0.061297	1.000000	0.000021	0.000015	0.000021	-6.846564	-74.841438	-0.193428
63938	9.503186	-0.305904	2.543289	0.012607	-0.000482	0.029685	1.000000	0.000015	0.000008	0.000015	-6.847586	-74.841770	-0.193635
63939	9.502292	-0.325608	2.571912	-0.017341	-0.016726	0.036867	1.000000	0.000039	0.000021	-0.000002	-6.837949	-74.840971	-0.203378
63940	9.518741	-0.289718	2.534459	0.026995	0.014215	0.041901	1.000000	0.000013	-0.000007	0.000025	-6.844086	-74.842864	-0.198540
63941	9.517828	-0.309840	2.563098	-0.002955	-0.002028	0.049082	1.000000	0.000018	0.000038	0.000026	-6.847801	-74.839728	-0.194099
63942	9.502032	-0.326330	2.572783	-0.018118	-0.017160	0.036865	1.000000	0.000017	0.000005	0.000008	-6.845564	-74.840583	-0.197403
63943	9.502802	-0.306664	2.544632	0.011316	-0.001213	0.029686	1.000000	0.000043	0.000013	0.000013	-6.842347	-74.840446	-0.196493
63944	9.536757	-0.279583	2.585763	-0.016066	0.030658	0.072295	1.000000	0.000018	0.000003	0.000019	-6.844962	-74.841380	-0.194684
63945	9.487042	-0.323308	2.554164	-0.004104	-0.016488	0.017468	1.000000	0.000026	0.000006	0.000017	-6.845654	-74.841958	-0.195333
63946	9.517532	-0.310590	2.564106	-0.004242	-0.002753	0.049082	1.000000	0.000026	0.000008	0.000006	-6.841489	-74.842458	-0.199649
63947	9.517451	-0.310802	2.564378	-0.004498	-0.002900	0.049082	1.000000	0.000019	0.000019	0.000028	-6.847060	-74.841376	-0.195084
63948	9.502548	-0.307398	2.545495	0.010034	-0.001941	0.029688	1.000000	0.000042	-0.000002	-0.000007	-6.836048	-74.843170	-0.204584
63949	9.501679	-0.326961	2.574005	-0.019926	-0.018168	0.036860	1.000000	0.000020	0.000017	0.000009	-6.833563	-74.842570	-0.208382
63950	9.532939	-0.294600	2.555816	0.009635	0.011647	0.061303	1.000000	0.000029	0.000019	0.000019	-6.833986	-74.841663	-0.207518
63951	9.516338	-0.330722	2.593742	-0.035232	-0.019555	0.056251	1.000000	0.000023	0.000012	0.000013	-6.833089	-74.841637	-0.209402
63952	9.517103	-0.311265	2.565617	-0.005789	-0.003621	0.049081	1.000000	0.000024	0.000010	0.000025	-6.837034	-74.841689	-0.205510
63953	9.517870	-0.291810	2.537489	0.023663	0.012309	0.041912	1.000000	0.000023	0.000012	0.000013	-6.836106	-74.841633	-0.208628
63954	9.502131	-0.308223	2.546949	0.008494	-0.002812	0.029689	1.000000	0.000026	0.000006	0.000017	-6.836792	-74.842210	-0.207831
63955	9.520372	-0.297316	2.597457	-0.033792	0.014097	0.060069	1.000000	0.000028	0.000021	0.000007	-6.832347	-74.841231	-0.211428
63956	9.513374	-0.326338	2.535344	0.020421	-0.022355	0.038091	1.000000	0.000029	0.000000	0.000021	-6.834629	-74.842411	-0.208613
63957	9.532500	-0.295866	2.557307	0.007845	0.010625	0.061306	1.000000	0.000026	0.000006	0.000017	-6.835278	-74.842972	-0.207446
63958	9.501051	-0.328556	2.576118	-0.022240	-0.019461	0.036852	1.000000	0.000029	0.000019	0.000019	-6.835697	-74.842066	-0.206585
63959	9.501825	-0.309110	2.547985	0.007215	-0.003541	0.029690	1.000000	0.000018	0.000003	0.000019	-6.838266	-74.842979	-0.205383
63960	9.490413	-0.291443	2.560170	-0.005478	0.015570	0.021288	1.000000	0.000026	0.000006	0.000017	-6.838951	-74.843556	-0.204588
63961	9.513101	-0.327436	2.536225	0.019135	-0.023087	0.038092	1.000000	0.000041	0.000016	0.000021	-6.839070	-74.842905	-0.203353
63962	9.532177	-0.296901	2.558392	0.006563	0.009897	0.061307	1.000000	0.000023	0.000012	0.000013	-6.838157	-74.842880	-0.204577
63963	9.490195	-0.291929	2.560923	-0.006247	0.015138	0.021288	1.000000	0.000023	0.000012	0.000013	-6.837214	-74.842857	-0.204007
63964	9.501531	-0.310025	2.548967	0.005929	-0.004266	0.029690	1.000000	0.000029	0.000000	0.000021	-6.839495	-74.844036	-0.201193
63965	9.489279	-0.312020	2.589485	-0.036474	-0.001206	0.028444	1.000000	0.000026	0.000006	0.000017	-6.840185	-74.844613	-0.201606
63966	9.470866	-0.323186	2.539611	0.005296	-0.018425	-0.001928	1.000000	0.000023	0.000030	0.000011	-6.837406	-74.842502	-0.204788
63967	9.516150	-0.313906	2.568824	-0.009639	-0.005794	0.049077	1.000000	0.000017	0.000005	0.000008	-6.835137	-74.843345	-0.206410
63968	9.504739	-0.296123	2.581020	-0.022322	0.013324	0.040674	1.000000	0.000026	0.000006	0.000017	-6.835820	-74.843922	-0.205616
63969	9.501232	-0.310784	2.549992	0.004649	-0.004990	0.029691	1.000000	0.000026	0.000006	0.000017	-6.836539	-74.844489	-0.207786
63970	9.504643	-0.296477	2.581332	-0.022832	0.013040	0.040673	1.000000	0.000023	0.000012	0.000013	-6.835624	-74.844464	-0.209013
63971	9.543009	-0.316169	2.548182	0.016681	-0.010679	0.069712	1.000000	0.000020	0.000017	0.000009	-6.833093	-74.843806	-0.212740
63972	9.501047	-0.311147	2.550636	0.003883	-0.005425	0.029691	1.000000	0.000020	-0.000001	0.000012	-6.832447	-74.845264	-0.214030
63973	9.512401	-0.329214	2.538621	0.016046	-0.024837	0.038093	1.000000	0.000026	0.000006	0.000017	-6.833146	-74.845827	-0.214771
63974	9.501875	-0.291822	2.522337	0.033099	0.010326	0.022544	1.000000	0.000023	-0.000007	0.000016	-6.834097	-74.847887	-0.214041
63975	9.531482	-0.298897	2.560747	0.003233	0.008007	0.061311	1.000000	0.000032	0.000032	0.000021	-6.834255	-74.845506	-0.211901
63976	9.500836	-0.311899	2.551331	0.002856	-0.006003	0.029691	1.000000	0.000026	0.000006	0.000017	-6.834936	-74.846083	-0.211109
63977	9.531345	-0.299224	2.561218	0.002718	0.007716	0.061311	1.000000	0.000029	0.000002	0.000010	-6.832354	-74.847192	-0.212321
63978	9.485913	-0.308743	2.532529	0.017147	-0.005207	0.010309	1.000000	0.000021	0.000015	0.000021	-6.834693	-74.846641	-0.210455
63979	9.512015	-0.330199	2.539937	0.014496	-0.025710	0.038093	1.000000	0.000037	0.000024	0.000005	-6.828317	-74.845295	-0.216753
63980	9.497114	-0.326783	2.521093	0.029045	-0.024772	0.018712	1.000000	0.000020	-0.000001	0.000012	-6.827669	-74.846753	-0.218044
63981	9.504021	-0.297964	2.583451	-0.025646	0.011464	0.040668	1.000000	0.000026	0.000006	0.000017	-6.828377	-74.847341	-0.216670
63982	9.500491	-0.312800	2.552502	0.001313	-0.006871	0.029690	1.000000	0.000022	0.000013	0.000032	-6.835569	-74.846868	-0.209691
63983	9.530965	-0.300254	2.562511	0.001173	0.006848	0.061312	1.000000	0.000026	0.000008	0.000006	-6.831422	-74.847383	-0.213649
63984	9.503846	-0.298635	2.584016	-0.026417	0.011036	0.040667	1.000000	0.000026	0.000006	0.000017	-6.832100	-74.847960	-0.212858
63985	9.500319	-0.313250	2.553087	0.000540	-0.007303	0.029690	1.000000	0.000032	0.000015	0.000011	-6.829256	-74.847574	-0.214155
63986	9.526462	-0.334729	2.560330	-0.002126	-0.027807	0.057471	1.000000	0.000026	0.000006	0.000017	-6.829933	-74.848151	-0.213366
63987	9.515922	-0.297351	2.544141	0.014953	0.007350	0.041934	1.000000	0.000026	0.000006	0.000017	-6.830661	-74.848746	-0.214557
63988	9.514985	-0.317012	2.572758	-0.015046	-0.008814	0.049068	1.000000	0.000031	0.000017	-0.000000	-6.822956	-74.848288	-0.221916
63989	9.523728	-0.329873	2.501308	0.054048	-0.030423	0.039364	1.000000	0.000033	-0.000006	0.000025	-6.826872	-74.850062	-0.217889
63990	9.519294	-0.283208	2.575586	-0.013023	0.025118	0.052910	1.000000	0.000001	-0.000002	0.000012	-6.828483	-74.851629	-0.219176
63991	9.507832	-0.265292	2.587980	-0.025675	0.044255	0.044507	1.000000	0.000071	0.000036	0.000009	-6.819242	-74.848947	-0.221321
63992	9.541923	-0.400133	2.475194	0.075520	-0.103649	0.052328	1.000000	0.000035	0.000009	0.000015	-6.817988	-74.849168	-0.221546
63993	9.518118	-0.303198	2.605026	-0.043543	0.008677	0.060038	1.000000	-0.000021	0.000017	0.000028	-6.828168	-74.848329	-0.215976
63994	9.503188	-0.300238	2.586249	-0.028985	0.009611	0.040661	1.000000	0.000021	0.000015	0.000021	-6.830500	-74.847778	-0.214115
63995	9.500552	-0.295224	2.526921	0.027713	0.007269	0.022563	1.000000	0.000048	0.000003	0.000010	-6.825705	-74.848778	-0.215146
63996	9.533611	-0.287520	2.596469	-0.029380	0.023181	0.072284	1.000000	0.000040	0.000018	0.000009	-6.820921	-74.848042	-0.218406
63997	9.484708	-0.311475	2.536704	0.012263	-0.007952	0.010314	1.000000	0.000026	0.000006	0.000017	-6.821641	-74.848636	-0.216708
63998	9.522248	-0.350878	2.531781	0.021962	-0.047746	0.046495	1.000000	0.000040	-0.000000	0.000012	-6.818728	-74.849985	-0.218007
63999	9.499445	-0.315136	2.556108	-0.003067	-0.009313	0.029688	1.000000	0.000006	0.000024	0.000015	-6.819867	-74.848580	-0.219678
64000	9.518509	-0.284685	2.578321	-0.015590	0.023686	0.052910	1.000000	0.000021	0.000015	0.000021	-6.822197	-74.848030	-0.217819
64001	9.499260	-0.315713	2.556722	-0.003584	-0.009599	0.029688	1.000000	0.000035	0.000007	0.000027	-6.825850	-74.848343	-0.212645
64002	9.514917	-0.299744	2.547618	0.011097	0.005182	0.041941	1.000000	0.000023	0.000012	0.000013	-6.824924	-74.848317	-0.213880
64003	9.506056	-0.287023	2.619404	-0.058494	0.026554	0.051623	1.000000	0.000035	0.000009	0.000015	-6.823710	-74.848521	-0.215148
64004	9.511317	-0.314437	2.516991	0.037785	-0.013329	0.030974	1.000000	0.000040	0.000018	0.000009	-6.818922	-74.847785	-0.218411
64005	9.525177	-0.337557	2.564738	-0.007053	-0.030535	0.057461	1.000000	0.000026	0.000006	0.000017	-6.819677	-74.848364	-0.215709
64006	9.514599	-0.300208	2.548750	0.010073	0.004606	0.041942	1.000000	0.000032	0.000032	0.000021	-6.819798	-74.845975	-0.214809
64007	9.501337	-0.321736	2.617927	-0.062085	-0.008224	0.047766	1.000000	0.000018	0.000003	0.000019	-6.822437	-74.846914	-0.212613
64008	9.503111	-0.282782	2.561184	-0.002815	0.023612	0.033539	1.000000	0.000018	0.000003	0.000019	-6.825040	-74.847846	-0.210815
64009	9.497785	-0.336775	2.587079	-0.035402	-0.026733	0.036797	1.000000	0.000029	0.000019	0.000019	-6.825457	-74.846930	-0.209912
64010	9.513441	-0.320821	2.577991	-0.020719	-0.011959	0.049054	1.000000	0.000018	0.000003	0.000019	-6.828060	-74.847862	-0.208114
64011	9.498564	-0.317567	2.559078	-0.006153	-0.011033	0.029685	1.000000	0.000032	0.000015	0.000011	-6.825251	-74.847487	-0.209645
64012	9.486281	-0.319366	2.599554	-0.048546	-0.007861	0.028389	1.000000	0.000027	-0.000013	0.000020	-6.827800	-74.850148	-0.206894
64013	9.516867	-0.306794	2.609173	-0.048685	0.005849	0.060016	1.000000	0.000023	-0.000007	0.000016	-6.828843	-74.852205	-0.206310
64014	9.514321	-0.301991	2.549579	0.008020	0.003452	0.041945	1.000000	0.000010	-0.000001	0.000021	-6.833378	-74.853492	-0.203497
64015	9.525649	-0.320120	2.537652	0.020131	-0.015992	0.050349	1.000000	0.000014	0.000010	0.000004	-6.829590	-74.853726	-0.208577
64016	9.502880	-0.284306	2.561872	-0.004853	0.022466	0.033541	1.000000	0.000026	0.000006	0.000017	-6.830260	-74.854303	-0.207793
64017	9.510728	-0.317074	2.518887	0.034448	-0.015218	0.030983	1.000000	0.000024	0.000010	0.000025	-6.834254	-74.854325	-0.206375
64018	9.487041	-0.301041	2.571529	-0.020304	0.007272	0.021278	1.000000	0.000015	0.000008	0.000015	-6.835255	-74.854655	-0.206599
64019	9.525466	-0.320817	2.538251	0.019108	-0.016572	0.050350	1.000000	0.000031	-0.000001	0.000002	-6.829476	-74.856257	-0.212696
64020	9.529809	-0.286900	2.541037	0.021441	0.017495	0.054210	1.000000	0.000025	0.000008	0.000036	-6.838256	-74.856383	-0.203704
64021	9.510525	-0.317870	2.519551	0.033422	-0.015798	0.030986	1.000000	0.000037	0.000024	0.000005	-6.831949	-74.855050	-0.207958
64022	9.513894	-0.303612	2.550978	0.005979	0.002302	0.041946	1.000000	0.000005	0.000007	0.000036	-6.842991	-74.855284	-0.198961
64023	9.521729	-0.336521	2.508024	0.045261	-0.035397	0.039392	1.000000	0.000023	0.000012	0.000013	-6.842120	-74.855253	-0.200780
64024	9.524186	-0.341842	2.567848	-0.011964	-0.033257	0.057448	1.000000	0.000030	0.000017	0.000030	-6.847363	-74.854422	-0.194830
64025	9.510189	-0.319198	2.520653	0.032391	-0.016376	0.030988	1.000000	0.000021	0.000015	0.000021	-6.849805	-74.853881	-0.192522
64026	9.512628	-0.324482	2.580530	-0.024833	-0.014230	0.049041	1.000000	0.000029	0.000019	0.000019	-6.850191	-74.852975	-0.191688
64027	9.497721	-0.321359	2.561734	-0.010255	-0.013310	0.029679	1.000000	0.000013	0.000012	0.000023	-6.854554	-74.852769	-0.188912
64028	9.509885	-0.319852	2.521717	0.031620	-0.016811	0.030990	1.000000	0.000034	0.000030	0.000001	-6.846549	-74.850831	-0.196233
64029	9.513262	-0.305232	2.553139	0.004184	0.001304	0.041948	1.000000	0.000040	-0.000000	0.000012	-6.843738	-74.852174	-0.198444
64030	9.509722	-0.319847	2.522331	0.031106	-0.017100	0.030991	1.000000	0.000023	0.000030	0.000011	-6.840918	-74.850064	-0.201659
64031	9.509629	-0.320029	2.522657	0.030850	-0.017242	0.030992	1.000000	0.000018	0.000003	0.000019	-6.843613	-74.850982	-0.200441
64032	9.513019	-0.305708	2.553990	0.003415	0.000873	0.041948	1.000000	0.000029	0.000019	0.000019	-6.843997	-74.850076	-0.199609
64033	9.512919	-0.305957	2.554331	0.003159	0.000733	0.041948	1.000000	0.000021	0.000015	0.000021	-6.846437	-74.849522	-0.201145
64034	9.528554	-0.289998	2.545389	0.017858	0.015478	0.054221	1.000000	0.000038	0.000022	0.000017	-6.844887	-74.848261	-0.201329
64035	9.509254	-0.320827	2.523971	0.029820	-0.017820	0.030994	1.000000	0.000032	0.000015	0.000011	-6.842139	-74.847871	-0.205859
64036	9.496831	-0.322682	2.564865	-0.012568	-0.014585	0.029674	1.000000	0.000022	0.000032	0.000030	-6.847419	-74.845310	-0.200876
64037	9.528185	-0.290833	2.546673	0.017093	0.015048	0.054223	1.000000	0.000022	0.000013	0.000032	-6.854646	-74.844824	-0.193365
64038	9.496609	-0.323215	2.565617	-0.013081	-0.014870	0.029673	1.000000	0.000042	0.000017	-0.000010	-6.841741	-74.844542	-0.204838
64039	9.496519	-0.323278	2.565943	-0.013339	-0.015009	0.029672	1.000000	0.000010	0.000016	0.000030	-6.849341	-74.843822	-0.198478
64040	9.495491	-0.343171	2.594647	-0.043397	-0.031086	0.036752	1.000000	0.000023	0.000012	0.000013	-6.848404	-74.843797	-0.199722
64041	9.499822	-0.309150	2.597542	-0.041022	0.002985	0.040623	1.000000	0.000035	0.000009	0.000015	-6.847245	-74.844015	-0.200125
64042	9.499760	-0.309378	2.597741	-0.041279	0.002842	0.040622	1.000000	0.000024	0.000010	0.000025	-6.851159	-74.844064	-0.196258
64043	9.538135	-0.329500	2.564688	-0.001924	-0.021065	0.069709	1.000000	0.000021	0.000015	0.000021	-6.853622	-74.843502	-0.197045
64044	9.500578	-0.290119	2.569745	-0.011984	0.018491	0.033543	1.000000	0.000019	0.000003	-0.000011	-6.843266	-74.844811	-0.208560
64045	9.499571	-0.309624	2.598403	-0.042049	0.002429	0.040618	1.000000	0.000029	0.000019	0.000019	-6.843777	-74.843915	-0.206737
64046	9.499468	-0.309763	2.598763	-0.042305	0.002287	0.040617	1.000000	0.000020	0.000017	0.000009	-6.841236	-74.843289	-0.210006
64047	9.499404	-0.309883	2.598981	-0.042563	0.002151	0.040616	1.000000	0.000038	0.000004	0.000019	-6.841704	-74.844115	-0.208451
64048	9.500321	-0.290509	2.570651	-0.013009	0.017928	0.033543	1.000000	0.000026	0.000006	0.000017	-6.842367	-74.844692	-0.207673
64049	9.485479	-0.287194	2.551682	0.001577	0.018833	0.014190	1.000000	0.000026	0.000008	0.000006	-6.838308	-74.845222	-0.212187
64050	9.527323	-0.292600	2.549693	0.013755	0.013186	0.054231	1.000000	0.000013	0.000012	0.000023	-6.842551	-74.845024	-0.209331
64051	9.499211	-0.310526	2.599612	-0.043590	0.001595	0.040612	1.000000	0.000017	0.000005	0.000008	-6.840414	-74.845858	-0.213968
64052	9.512396	-0.289734	2.530995	0.028095	0.013941	0.034880	1.000000	0.000028	0.000020	0.000038	-6.848889	-74.844500	-0.204945
64053	9.496572	-0.306350	2.540519	0.012876	-0.001072	0.022596	1.000000	0.000010	-0.000001	0.000021	-6.853489	-74.845754	-0.201378
64054	9.495611	-0.326013	2.568956	-0.017198	-0.017126	0.029663	1.000000	0.000031	-0.000001	0.000002	-6.847653	-74.847385	-0.206774
64055	9.511343	-0.309861	2.559725	-0.002481	-0.002399	0.041948	1.000000	0.000035	0.000009	0.000015	-6.846447	-74.847574	-0.206870
64056	9.538379	-0.311791	2.538672	0.024537	-0.007015	0.062640	1.000000	0.000032	0.000015	0.000011	-6.843571	-74.847195	-0.209134
64057	9.525986	-0.313499	2.579385	-0.017844	-0.003721	0.061298	1.000000	0.000032	0.000013	0.000023	-6.845678	-74.846883	-0.205457
64058	9.507647	-0.324945	2.529490	0.023904	-0.021128	0.031004	1.000000	0.000029	0.000019	0.000019	-6.846050	-74.845977	-0.204634
64059	9.507577	-0.325029	2.529744	0.023649	-0.021269	0.031004	1.000000	0.000037	0.000006	0.000008	-6.841628	-74.846711	-0.206331
64060	9.480418	-0.323220	2.551230	-0.003881	-0.016937	0.010310	1.000000	0.000023	0.000012	0.000013	-6.840684	-74.846686	-0.207581
64061	9.523234	-0.309098	2.520782	0.038110	-0.006695	0.043294	1.000000	0.000026	0.000006	0.000017	-6.841442	-74.847235	-0.207360
64062	9.496073	-0.307452	2.542252	0.010582	-0.002360	0.022599	1.000000	0.000004	0.000011	0.000013	-6.842763	-74.847317	-0.208603
64063	9.495029	-0.327126	2.570963	-0.019499	-0.018395	0.029656	1.000000	0.000032	0.000015	0.000011	-6.839987	-74.846922	-0.212321
64064	9.523984	-0.289950	2.493114	0.067169	0.008761	0.036240	1.000000	0.000029	0.000021	0.000007	-6.835504	-74.845941	-0.216612
64065	9.499280	-0.293139	2.574197	-0.017336	0.015525	0.033540	1.000000	0.000018	0.000003	0.000019	-6.838196	-74.846882	-0.214615
64066	9.521918	-0.329307	2.550448	0.006994	-0.023311	0.050352	1.000000	0.000032	0.000015	0.000011	-6.835315	-74.846503	-0.216881
64067	9.510468	-0.311336	2.562794	-0.005555	-0.004104	0.041946	1.000000	0.000017	0.000023	0.000005	-6.831282	-74.845268	-0.221804
64068	9.506873	-0.326189	2.532242	0.021335	-0.022564	0.031006	1.000000	0.000022	0.000032	0.000030	-6.836541	-74.842706	-0.216839
64069	9.524981	-0.315307	2.582875	-0.020923	-0.005419	0.061291	1.000000	0.000004	0.000011	0.000013	-6.837973	-74.842768	-0.219857
64070	9.484024	-0.290646	2.556695	-0.003752	0.015848	0.014194	1.000000	0.000040	-0.000000	0.000012	-6.835053	-74.844120	-0.221158
64071	9.524867	-0.315579	2.583258	-0.021437	-0.005703	0.061290	1.000000	0.000035	0.000026	0.000024	-6.836814	-74.842325	-0.216793
64072	9.522285	-0.310811	2.524153	0.035286	-0.008288	0.043303	1.000000	0.000040	0.000018	0.000009	-6.831998	-74.841592	-0.220076
64073	9.494102	-0.328611	2.574196	-0.022074	-0.019805	0.029648	1.000000	0.000024	0.000010	0.000025	-6.836016	-74.841655	-0.216003
64074	9.494996	-0.309382	2.546038	0.007507	-0.004072	0.022601	1.000000	0.000018	0.000021	0.000017	-6.836711	-74.840502	-0.216195
64075	9.490474	-0.343703	2.543744	0.004555	-0.038412	0.018710	1.000000	0.000023	0.000012	0.000013	-6.835873	-74.840457	-0.217917
64076	9.513058	-0.298451	2.596818	-0.035005	0.012943	0.052880	1.000000	0.000023	0.000012	0.000013	-6.834926	-74.840432	-0.219169
64077	9.497213	-0.314658	2.606405	-0.050241	-0.002040	0.040580	1.000000	0.000043	0.000013	0.000013	-6.831833	-74.840297	-0.219632
64078	9.482338	-0.311392	2.587594	-0.035635	-0.001155	0.021237	1.000000	0.000029	0.000019	0.000019	-6.832196	-74.839391	-0.218816
64079	9.508433	-0.332795	2.594893	-0.038477	-0.021676	0.048984	1.000000	0.000025	-0.000009	-0.000003	-6.825167	-74.841894	-0.224952
64080	9.506034	-0.327836	2.535174	0.018248	-0.024282	0.031009	1.000000	0.000026	-0.000011	0.000008	-6.822867	-74.844481	-0.227308
64081	9.508505	-0.332773	2.594631	-0.038987	-0.021957	0.048981	1.000000	0.000020	-0.000001	0.000012	-6.822327	-74.845902	-0.226978
64082	9.525251	-0.297299	2.556880	0.005584	0.008606	0.054244	1.000000	0.000026	0.000006	0.000017	-6.822981	-74.846479	-0.226207
64083	9.495645	-0.290624	2.518761	0.035345	0.011757	0.015563	1.000000	0.000026	0.000008	0.000006	-6.846659	-74.845325	-0.200239
64084	9.494637	-0.310319	2.547262	0.005243	-0.004249	0.022603	1.000000	0.000013	-0.000006	0.000025	-6.852868	-74.847206	-0.195324
64085	9.483259	-0.292373	2.559334	-0.007282	0.014974	0.014194	1.000000	0.000051	0.000018	-0.000000	-6.843033	-74.846637	-0.202582
64086	9.525177	-0.297514	2.557134	0.004850	0.009290	0.054244	1.000000	0.000034	-0.000026	0.000008	-6.840775	-74.850950	-0.203886
64087	9.520739	-0.331664	2.554540	0.001877	-0.025046	0.050350	1.000000	0.000057	0.000023	0.000017	-6.837101	-74.849575	-0.203506
64088	9.548762	-0.314153	2.505113	0.058723	-0.013855	0.064027	1.000000	0.000035	0.000009	0.000015	-6.835892	-74.849793	-0.203673
64089	9.555561	-0.285012	2.567548	0.004204	0.022688	0.085886	1.000000	0.000029	0.000019	0.000019	-6.836388	-74.848859	-0.202649
64090	9.536254	-0.315952	2.546129	0.016094	-0.010633	0.062654	1.000000	0.000023	0.000012	0.000013	-6.835511	-74.848829	-0.203825
64091	9.509049	-0.314090	2.567718	-0.011410	-0.006241	0.041940	1.000000	0.000040	0.000018	0.000009	-6.830846	-74.848082	-0.208377
64092	9.508915	-0.314071	2.568216	-0.011666	-0.006382	0.041940	1.000000	0.000043	0.000031	0.000011	-6.825799	-74.845863	-0.211548
64093	9.504362	-0.348370	2.566026	-0.014650	-0.040717	0.038042	1.000000	0.000035	0.000007	0.000027	-6.829504	-74.846147	-0.206458
64094	9.492956	-0.330684	2.578156	-0.027166	-0.021491	0.029632	1.000000	0.000013	0.000012	0.000023	-6.833808	-74.845943	-0.203534
64095	9.509690	-0.295150	2.540520	0.017430	0.009048	0.034910	1.000000	0.000036	0.000008	-0.000004	-6.824602	-74.846594	-0.212935
64096	9.505193	-0.329230	2.538145	0.014440	-0.025291	0.031012	1.000000	0.000023	0.000012	0.000013	-6.823723	-74.846564	-0.214113
64097	9.508526	-0.314596	2.569593	-0.012936	-0.007074	0.041937	1.000000	0.000026	0.000027	0.000003	-6.817780	-74.844933	-0.222191
64098	9.512843	-0.280533	2.572635	-0.010453	0.026982	0.045837	1.000000	0.000018	0.000021	0.000017	-6.818541	-74.843774	-0.222312
64099	9.490061	-0.326059	2.520320	0.028548	-0.024696	0.011678	1.000000	0.000026	0.000027	0.000003	-6.812624	-74.842192	-0.228842
64100	9.522964	-0.318212	2.589945	-0.028580	-0.008502	0.061270	1.000000	0.000029	0.000000	0.000021	-6.814953	-74.843365	-0.225967
64101	9.501235	-0.262680	2.585528	-0.023465	0.045944	0.037427	1.000000	0.000028	0.000023	-0.000004	-6.805814	-74.842320	-0.236550
64102	9.538564	-0.301965	2.581300	-0.014103	0.006045	0.073579	1.000000	0.000037	0.000024	0.000005	-6.799456	-74.840982	-0.241788
64103	9.512377	-0.280653	2.574344	-0.011728	0.026292	0.045837	1.000000	0.000018	0.000003	0.000019	-6.802186	-74.841910	-0.239748
64104	9.526088	-0.303671	2.622118	-0.056730	0.009314	0.072188	1.000000	0.000035	0.000009	0.000015	-6.800973	-74.842128	-0.239917
64105	9.470403	-0.275722	2.576703	-0.024592	0.031583	0.005783	1.000000	0.000029	0.000000	0.000021	-6.803388	-74.843269	-0.237216
64106	9.496465	-0.297383	2.584079	-0.027482	0.011058	0.033523	1.000000	0.000032	0.000013	0.000023	-6.805419	-74.842959	-0.234304
64107	9.496374	-0.297501	2.584399	-0.027738	0.010921	0.033523	1.000000	0.000040	0.000018	0.000009	-6.800755	-74.842223	-0.234883
64108	9.497358	-0.278067	2.556038	0.001882	0.026604	0.026507	1.000000	0.000043	-0.000006	0.000016	-6.799504	-74.844172	-0.234085
64109	9.480548	-0.313830	2.593852	-0.043239	-0.004170	0.021206	1.000000	0.000010	-0.000001	0.000021	-6.804165	-74.845414	-0.230829
64110	9.492895	-0.312673	2.553460	-0.001381	-0.007869	0.022602	1.000000	0.000049	0.000001	0.000021	-6.804222	-74.846481	-0.227965
64111	9.520006	-0.314723	2.532251	0.025605	-0.012576	0.043328	1.000000	0.000029	0.000002	0.000010	-6.801764	-74.847525	-0.230405
64112	9.523409	-0.300145	2.563401	-0.001766	0.005657	0.054247	1.000000	0.000026	0.000006	0.000017	-6.802485	-74.848096	-0.229561
64113	9.519940	-0.314915	2.532476	0.025098	-0.012860	0.043329	1.000000	0.000037	0.000006	0.000008	-6.798094	-74.848804	-0.234172
64114	9.523302	-0.300301	2.563782	-0.002271	0.005378	0.054248	1.000000	0.000029	0.000019	0.000019	-6.798515	-74.847893	-0.233290
64115	9.523212	-0.300363	2.564108	-0.002525	0.005239	0.054248	1.000000	0.000023	0.000014	0.000002	-6.792836	-74.847774	-0.238913
64116	9.492570	-0.312975	2.554629	-0.002898	-0.008707	0.022601	1.000000	0.000031	0.000017	-0.000000	-6.785160	-74.847318	-0.246224
64117	9.507251	-0.316214	2.574110	-0.018029	-0.009848	0.041927	1.000000	0.000011	0.000016	-0.000000	-6.779801	-74.846918	-0.253379
64118	9.492457	-0.312918	2.555057	-0.003402	-0.008987	0.022600	1.000000	0.000024	-0.000007	0.000016	-6.780817	-74.848971	-0.252576
64119	9.495818	-0.298345	2.586345	-0.030763	0.009263	0.033515	1.000000	0.000023	0.000030	0.000011	-6.778112	-74.846837	-0.255453
64120	9.523865	-0.280995	2.537002	0.026096	0.020341	0.047244	1.000000	0.000012	0.000014	0.000011	-6.777557	-74.846559	-0.257646
64121	9.484286	-0.280546	2.598929	-0.043490	0.028376	0.025104	1.000000	0.000023	0.000012	0.000013	-6.776725	-74.846504	-0.258461
64122	9.507947	-0.297425	2.546771	0.010586	0.005257	0.034923	1.000000	0.000018	0.000003	0.000019	-6.779380	-74.847429	-0.256600
64123	9.534011	-0.319065	2.554127	0.007665	-0.015273	0.062658	1.000000	0.000026	0.000006	0.000017	-6.780158	-74.847983	-0.256294
64124	9.506830	-0.317399	2.575516	-0.019814	-0.010821	0.041923	1.000000	0.000016	0.000006	0.000027	-6.786059	-74.848380	-0.251350
64125	9.496492	-0.280214	2.559018	-0.002387	0.024228	0.026513	1.000000	0.000026	0.000006	0.000017	-6.786817	-74.848915	-0.250382
64126	9.522512	-0.301824	2.566535	-0.005315	0.003696	0.054247	1.000000	0.000029	0.000019	0.000019	-6.787235	-74.848004	-0.249502
64127	9.507736	-0.298619	2.547419	0.009320	0.004554	0.034924	1.000000	0.000029	-0.000016	0.000012	-6.786663	-74.851175	-0.250607
64128	9.523546	-0.282754	2.538005	0.024072	0.019206	0.047252	1.000000	0.000024	0.000010	0.000025	-6.790625	-74.851218	-0.246682
64129	9.534817	-0.301050	2.526315	0.036031	-0.000331	0.055663	1.000000	0.000035	0.000009	0.000015	-6.789470	-74.851414	-0.248949
64130	9.508665	-0.279761	2.519262	0.038458	0.019917	0.027932	1.000000	0.000023	0.000012	0.000013	-6.788579	-74.851384	-0.250135
64131	9.518884	-0.317491	2.536122	0.020511	-0.015408	0.043336	1.000000	0.000024	0.000010	0.000025	-6.792581	-74.851414	-0.247914
64132	9.518808	-0.317584	2.536394	0.020254	-0.015551	0.043337	1.000000	0.000031	0.000017	-0.000000	-6.784898	-74.850958	-0.255231
64133	9.489185	-0.310936	2.498476	0.049785	-0.013709	0.004696	1.000000	0.000007	0.000024	0.000015	-6.785997	-74.849536	-0.256843
64134	9.491409	-0.315866	2.558583	-0.007471	-0.011221	0.022596	1.000000	0.000032	0.000032	0.000020	-6.786110	-74.847143	-0.255930
64135	9.507139	-0.300002	2.549486	0.007289	0.003427	0.034927	1.000000	0.000012	-0.000004	0.000014	-6.787516	-74.848926	-0.257263
64136	9.521834	-0.303518	2.568850	-0.007861	0.002296	0.054246	1.000000	0.000026	0.000025	0.000015	-6.786323	-74.847414	-0.258415
64137	9.505933	-0.319649	2.578546	-0.023129	-0.012625	0.041913	1.000000	0.000026	0.000008	0.000006	-6.782265	-74.847903	-0.263059
64138	9.491122	-0.316359	2.559587	-0.008490	-0.011777	0.022594	1.000000	0.000023	0.000012	0.000013	-6.781372	-74.847873	-0.264247
64139	9.521616	-0.303881	2.569617	-0.008625	0.001879	0.054245	1.000000	0.000013	0.000012	0.000023	-6.785722	-74.847653	-0.261573
64140	9.494385	-0.302043	2.591170	-0.036090	0.006364	0.033500	1.000000	0.000040	0.000018	0.000009	-6.780951	-74.846917	-0.264798
64141	9.489872	-0.336022	2.588797	-0.039163	-0.027959	0.029575	1.000000	0.000045	-0.000008	-0.000003	-6.771656	-74.849288	-0.273011
64142	9.510185	-0.285839	2.581861	-0.021578	0.020867	0.045833	1.000000	0.000010	-0.000001	0.000021	-6.776247	-74.850565	-0.270135
64143	9.502221	-0.334880	2.548512	0.002427	-0.031881	0.031003	1.000000	0.000040	0.000018	0.000009	-6.771528	-74.849822	-0.274895
64144	9.463697	-0.314782	2.581825	-0.037223	-0.007978	0.001844	1.000000	0.000040	-0.000000	0.000012	-6.768663	-74.851170	-0.276130
64145	9.506636	-0.300826	2.551261	0.004745	0.002024	0.034929	1.000000	0.000038	0.000004	0.000019	-6.769087	-74.851988	-0.273584
64146	9.505549	-0.320328	2.579879	-0.025430	-0.013875	0.041906	1.000000	0.000029	0.000002	0.000010	-6.766553	-74.853088	-0.275830
64147	9.505529	-0.320588	2.579922	-0.025680	-0.014012	0.041905	1.000000	0.000019	0.000001	0.000031	-6.774114	-74.854051	-0.269342
64148	9.495207	-0.283337	2.563441	-0.008198	0.021015	0.026517	1.000000	0.000040	0.000018	0.000009	-6.769337	-74.853315	-0.272572
64149	9.516761	-0.338904	2.568373	-0.014007	-0.033703	0.050315	1.000000	0.000014	-0.000008	0.000006	-6.767515	-74.855608	-0.276767
64150	9.495171	-0.283243	2.563582	-0.008700	0.020737	0.026518	1.000000	0.000025	0.000010	-0.000006	-6.758519	-74.856034	-0.286155
64151	9.490636	-0.317362	2.561268	-0.011795	-0.013586	0.022588	1.000000	0.000026	0.000006	0.000017	-6.759280	-74.856595	-0.282476
64152	9.506397	-0.301358	2.552089	0.002970	0.001041	0.034929	1.000000	0.000023	0.000014	0.000002	-6.753528	-74.856492	-0.288781
64153	9.506326	-0.301274	2.552364	0.002717	0.000902	0.034929	1.000000	0.000023	0.000014	0.000002	-6.747826	-74.856374	-0.295311
64154	9.506235	-0.301228	2.552708	0.002461	0.000760	0.034930	1.000000	0.000029	0.000021	0.000007	-6.743380	-74.855390	-0.299551
64155	9.479022	-0.298994	2.574221	-0.024995	0.005275	0.014175	1.000000	0.000027	0.000006	-0.000013	-6.731197	-74.856365	-0.310570
64156	9.477870	-0.318253	2.603081	-0.055179	-0.010607	0.021141	1.000000	0.000026	0.000025	0.000015	-6.729997	-74.854853	-0.311726
64157	9.521851	-0.284795	2.544130	0.016720	0.015105	0.047274	1.000000	0.000022	-0.000003	-0.000007	-6.721381	-74.856730	-0.321438
64158	9.493620	-0.302108	2.593964	-0.040661	0.003883	0.033483	1.000000	0.000026	0.000006	0.000017	-6.722088	-74.857301	-0.320605
64159	11.118382	-0.717341	-5.985801	8.545697	-1.459951	-0.603867	1.000000	0.000014	-0.000862	-0.000028	-6.748405	-74.957180	-0.294279
64160	9.378906	-2.100446	16.715118	-13.738041	-0.077081	3.715971	0.999973	0.001062	0.007243	-0.000004	-6.281194	-74.134058	-0.655780
64161	6.136931	1.840848	-9.383548	10.820207	0.727170	-6.422696	0.999953	0.004753	-0.008422	-0.000490	-5.902957	-75.100872	-0.486268
64162	12.378022	1.859510	11.969844	-8.038920	3.182682	5.193783	0.999985	-0.003486	0.004178	-0.000137	-6.056885	-74.627794	-0.743697
64163	8.959890	-1.493973	-1.721155	3.827785	-1.705547	-1.571763	0.999987	-0.004172	-0.002397	0.001759	-7.383631	-74.878380	0.132960
64164	8.860897	-2.225306	3.495395	-1.291666	-1.774210	-0.280169	0.999998	0.001417	0.001489	-0.000746	-6.828264	-74.721150	-0.277296
64165	9.672349	0.667828	3.880127	-1.093653	1.117069	0.512608	0.999996	0.002666	-0.000473	-0.000327	-6.406491	-74.780733	-0.400904
64166	9.668990	0.772113	1.999671	0.710042	0.987883	0.016053	1.000000	-0.000852	-0.000167	0.000063	-6.535408	-74.800462	-0.371542
64167	8.987129	-1.417958	2.520421	-0.223774	-1.113360	-0.440284	0.999999	-0.001700	0.000087	0.000297	-6.847000	-74.788067	-0.253538
64168	9.466383	0.030451	2.367387	0.213422	0.305809	-0.061854	0.999998	0.001773	-0.000659	-0.000244	-6.570771	-74.867794	-0.332323
64169	9.628307	0.064081	2.368683	0.253006	0.336667	0.093962	1.000000	-0.000956	0.000162	0.000142	-6.728850	-74.848939	-0.285118
64170	9.424378	-0.552169	3.010373	-0.487257	-0.192768	0.082339	1.000000	0.000088	-0.000144	0.000059	-6.747747	-74.866011	-0.258124
64171	9.905413	-0.399260	1.671108	0.937646	-0.203797	0.194735	1.000000	-0.000199	-0.000026	0.000021	-6.777335	-74.870106	-0.254148
64172	9.448451	-0.112777	2.910914	-0.336434	0.232068	0.066195	1.000000	0.000229	-0.000027	-0.000034	-6.734793	-74.875180	-0.274051
64173	9.651265	-0.424875	1.766699	0.773658	-0.217404	-0.024794	1.000000	-0.000103	-0.000183	0.000069	-6.781647	-74.896552	-0.240810
64174	9.563286	-0.235220	2.955892	-0.365782	0.115066	0.192412	1.000000	0.000381	0.000266	-0.000055	-6.698567	-74.868492	-0.284701
64175	9.600140	-0.120761	2.265411	0.321235	0.143605	0.045585	1.000000	-0.000103	-0.000001	0.000068	-6.735939	-74.869200	-0.261254
64176	9.422291	-0.398815	2.573429	-0.051150	-0.094523	-0.037740	1.000000	0.000085	0.000213	-0.000009	-6.708738	-74.846543	-0.282439
64177	9.431799	-0.108467	2.897992	-0.322733	0.232419	0.046865	1.000000	0.000070	0.000091	0.000032	-6.706612	-74.837255	-0.279378
64178	9.414142	-0.342431	2.282212	0.236287	-0.074444	-0.122979	1.000000	-0.000001	0.000054	0.000035	-6.715477	-74.832176	-0.273299
64179	9.405067	-0.381870	3.091057	-0.544468	-0.014479	0.079688	1.000000	-0.000043	0.000074	0.000070	-6.743089	-74.824319	-0.252887
64180	9.469221	-0.376226	2.639620	-0.094052	-0.063790	0.024100	1.000000	0.000103	-0.000001	-0.000026	-6.717232	-74.826272	-0.270511
64181	9.470351	-0.236272	2.880406	-0.307997	0.104284	0.083492	1.000000	-0.000094	0.000021	0.000033	-6.737720	-74.824902	-0.263466
64182	9.514526	-0.405944	2.475321	0.070915	-0.113201	0.026030	1.000000	0.000102	-0.000074	0.000002	-6.727603	-74.834731	-0.264927
64183	9.565856	-0.223037	2.746188	-0.154917	0.101874	0.140328	1.000000	-0.000141	-0.000042	0.000054	-6.765193	-74.840227	-0.245727
64184	9.547905	-0.399093	2.542522	0.013499	-0.096937	0.075518	1.000000	0.000036	-0.000065	-0.000006	-6.758696	-74.849165	-0.251202
64185	9.506289	-0.394145	2.543454	0.000992	-0.091410	0.035444	1.000000	-0.000096	-0.000048	0.000039	-6.785279	-74.855505	-0.238155
64186	9.515500	-0.283236	2.430585	0.123481	0.005401	0.011641	1.000000	0.000037	-0.000048	0.000003	-6.781713	-74.862431	-0.240521
64187	9.516855	-0.388713	2.441695	0.099585	-0.098237	0.019094	1.000000	0.000044	-0.000043	-0.000010	-6.771337	-74.868903	-0.249035
64188	9.534989	-0.334071	2.374823	0.174291	-0.052272	0.017587	1.000000	-0.000007	0.000011	0.000023	-6.777889	-74.868799	-0.246123
64189	9.481850	-0.228780	2.464952	0.086338	0.063296	-0.013588	1.000000	0.000054	-0.000006	0.000006	-6.771457	-74.870910	-0.249418
64190	9.559746	-0.331661	2.294346	0.257963	-0.060092	0.020553	1.000000	0.000054	0.000031	0.000001	-6.761151	-74.868872	-0.256750
64191	9.583510	-0.227893	2.512130	0.068341	0.069182	0.096750	1.000000	0.000021	0.000053	0.000016	-6.759662	-74.864185	-0.258259
64192	9.593339	-0.347572	2.453826	0.113554	-0.056704	0.094790	1.000000	0.000036	0.000061	0.000031	-6.762350	-74.858298	-0.254246
64193	9.500228	-0.241512	2.606881	-0.043636	0.067378	0.041349	1.000000	0.000033	0.000085	0.000025	-6.761523	-74.849740	-0.254375
64194	9.532632	-0.272366	2.484624	0.079468	0.021757	0.041846	1.000000	0.000061	0.000052	0.000028	-6.760299	-74.844881	-0.251428
64195	9.496167	-0.257058	2.578190	-0.017094	0.048605	0.030466	1.000000	0.000003	0.000048	0.000039	-6.770746	-74.840411	-0.243294
64196	9.493666	-0.296335	2.636168	-0.077289	0.017108	0.044322	1.000000	0.000031	0.000033	0.000039	-6.778894	-74.837559	-0.234241
64197	9.453812	-0.334791	2.505425	0.033450	-0.036613	-0.026915	1.000000	0.000002	0.000031	0.000030	-6.786401	-74.835096	-0.229292
64198	9.450246	-0.311414	2.668040	-0.120008	0.006846	0.011167	1.000000	-0.000012	0.000037	0.000035	-6.797484	-74.831847	-0.222254
64199	9.492050	-0.356284	2.473177	0.072215	-0.061087	0.002282	1.000000	0.000024	-0.000027	0.000029	-6.805269	-74.836054	-0.214387
64200	9.492161	-0.274741	2.549110	0.008685	0.029401	0.019587	1.000000	-0.000002	0.000002	0.000019	-6.810185	-74.837079	-0.212528
64201	9.501187	-0.331653	2.594474	-0.039410	-0.021537	0.041846	1.000000	0.000034	-0.000007	0.000006	-6.806025	-74.839317	-0.215793
64202	9.521543	-0.363451	2.511268	0.041577	-0.063425	0.040870	1.000000	0.000029	0.000002	0.000010	-6.803486	-74.840419	-0.218040
64203	9.540851	-0.250614	2.609138	-0.033934	0.060296	0.081425	1.000000	0.000046	0.000009	0.000006	-6.797078	-74.840824	-0.222301
64204	9.543006	-0.293828	2.476047	0.089025	0.000840	0.050283	1.000000	0.000031	0.000017	-0.000000	-6.789372	-74.840373	-0.229634
64205	9.521440	-0.281383	2.588075	-0.022451	0.026794	0.058174	1.000000	0.000036	0.000007	0.000027	-6.792976	-74.840670	-0.224721
64206	9.510054	-0.263332	2.600141	-0.034812	0.046114	0.049760	1.000000	0.000060	0.000019	0.000009	-6.785896	-74.839837	-0.227982
64207	9.507623	-0.258935	2.541179	0.021955	0.043122	0.031966	1.000000	0.000035	0.000044	0.000022	-6.785626	-74.835966	-0.227100
64208	9.497220	-0.264620	2.641886	-0.077409	0.049637	0.048261	1.000000	0.000055	0.000029	0.000013	-6.780170	-74.834002	-0.229318
64209	9.475543	-0.291367	2.561245	-0.008653	0.013418	0.007217	1.000000	0.000025	0.000024	0.000045	-6.791832	-74.832103	-0.217252
64210	9.465205	-0.297549	2.661604	-0.108018	0.019945	0.023507	1.000000	0.000022	0.000014	0.000032	-6.798991	-74.831613	-0.210286
64211	9.500135	-0.333260	2.598120	-0.041985	-0.022929	0.041832	1.000000	0.000031	0.000033	0.000039	-6.807086	-74.828756	-0.201283
64212	9.502266	-0.338275	2.658041	-0.099265	-0.020202	0.059618	1.000000	-0.000001	-0.000000	0.000031	-6.816842	-74.829849	-0.194325
64213	9.498822	-0.353583	2.627140	-0.072487	-0.038859	0.048740	1.000000	0.000036	0.000007	0.000027	-6.820414	-74.830130	-0.189442
64214	9.506651	-0.386939	2.584589	-0.033616	-0.076984	0.046277	1.000000	0.000013	0.000012	0.000023	-6.824671	-74.829921	-0.186558
64215	9.498760	-0.354184	2.627283	-0.073002	-0.039133	0.048735	1.000000	0.000021	-0.000020	0.000014	-6.826014	-74.833442	-0.185766
64216	9.509040	-0.348709	2.527097	0.025851	-0.045971	0.032458	1.000000	0.000011	-0.000002	0.000002	-6.822520	-74.835177	-0.191071
64217	9.484121	-0.350815	2.607841	-0.058576	-0.038464	0.029443	1.000000	0.000022	-0.000003	-0.000007	-6.813862	-74.837075	-0.200458
64218	9.498915	-0.310929	2.510260	0.043242	-0.011143	0.017139	1.000000	0.000017	0.000007	-0.000004	-6.806809	-74.837858	-0.208820
64219	9.501130	-0.315118	2.569978	-0.014037	-0.008399	0.034916	1.000000	0.000008	0.000005	-0.000013	-6.796877	-74.838906	-0.221244
64220	9.490981	-0.277377	2.553214	0.003616	0.026572	0.019598	1.000000	0.000019	0.000003	-0.000011	-6.786587	-74.840219	-0.232681
64221	9.487506	-0.291826	2.522547	0.030393	0.007900	0.008728	1.000000	0.000036	0.000028	-0.000018	-6.770494	-74.838730	-0.248158
64222	9.494197	-0.262036	2.584934	-0.023915	0.044822	0.030470	1.000000	-0.000010	0.000017	0.000019	-6.775418	-74.838023	-0.247294
64223	9.522468	-0.245138	2.535393	0.032977	0.055539	0.044368	1.000000	0.000014	0.000010	0.000004	-6.771607	-74.838258	-0.252578
64224	9.508761	-0.265707	2.604626	-0.039362	0.043604	0.049754	1.000000	0.000013	0.000012	0.000023	-6.775865	-74.838049	-0.249694
64225	9.493992	-0.262699	2.585621	-0.024669	0.044403	0.030470	1.000000	0.000015	0.000008	0.000015	-6.776882	-74.838354	-0.249889
64226	9.507462	-0.285658	2.633638	-0.069870	0.027695	0.056651	1.000000	0.000013	0.000010	0.000034	-6.785984	-74.838215	-0.241901
64227	9.531239	-0.303267	2.581419	-0.015959	0.004231	0.066581	1.000000	0.000019	-0.000018	0.000033	-6.795383	-74.841269	-0.232957
64228	9.471234	-0.309614	2.533230	0.013560	-0.007788	-0.003653	1.000000	0.000040	0.000018	0.000009	-6.790571	-74.840538	-0.236212
64229	9.515318	-0.319712	2.590935	-0.031529	-0.010740	0.054193	1.000000	0.000016	-0.000012	0.000029	-6.798359	-74.842992	-0.229298
64230	9.497264	-0.331743	2.540494	0.010181	-0.028487	0.024043	1.000000	0.000039	-0.000017	0.000033	-6.805502	-74.845964	-0.220341
64231	9.501900	-0.297946	2.542596	0.012916	0.005537	0.028017	1.000000	0.000015	-0.000010	0.000018	-6.808452	-74.848348	-0.218523
64232	9.525719	-0.315150	2.490240	0.066815	-0.017947	0.037955	1.000000	0.000037	-0.000013	0.000010	-6.805900	-74.851181	-0.219778
64233	9.538225	-0.314112	2.449713	0.108644	-0.021956	0.039480	1.000000	0.000032	-0.000004	0.000014	-6.804959	-74.852866	-0.220006
64234	9.514446	-0.297062	2.501903	0.054235	0.001245	0.029543	1.000000	0.000037	0.000006	0.000008	-6.800466	-74.853617	-0.223283
64235	9.523504	-0.310929	2.430551	0.123080	-0.021318	0.020205	1.000000	0.000024	-0.000007	0.000016	-6.801474	-74.855661	-0.222483
64236	9.543789	-0.303723	2.540564	0.023827	-0.000909	0.068105	1.000000	0.000034	0.000030	0.000001	-6.793425	-74.853730	-0.229816
64237	9.545992	-0.265182	2.483885	0.083602	0.030172	0.054332	1.000000	0.000023	0.000030	0.000011	-6.790556	-74.851616	-0.233053
64238	9.498133	-0.313264	2.512927	0.038149	-0.014012	0.017156	1.000000	0.000013	0.000049	0.000018	-6.790932	-74.847242	-0.234210
64239	9.551098	-0.337233	2.499983	0.062134	-0.039382	0.065657	1.000000	0.000013	0.000031	0.000020	-6.793241	-74.844951	-0.233353
64240	9.502344	-0.279739	2.516617	0.040643	0.019866	0.021137	1.000000	0.000013	0.000031	0.000020	-6.795554	-74.842660	-0.232492
64241	9.487267	-0.319601	2.615027	-0.061732	-0.007607	0.033371	1.000000	0.000024	0.000047	0.000020	-6.795593	-74.838541	-0.232642
64242	9.510810	-0.336988	2.563746	-0.007850	-0.031118	0.043318	1.000000	0.000027	0.000041	0.000024	-6.797244	-74.835018	-0.230758
64243	9.502753	-0.304321	2.606993	-0.047176	0.006792	0.045764	1.000000	0.000022	0.000014	0.000032	-6.804397	-74.834528	-0.223796
64244	9.494670	-0.353521	2.574013	-0.023434	-0.046073	0.030920	1.000000	0.000031	0.000017	-0.000000	-6.796682	-74.834080	-0.231134
64245	9.495791	-0.334423	2.545642	0.006332	-0.030613	0.024040	1.000000	0.000045	0.000009	0.000036	-6.803175	-74.834087	-0.222146
64246	9.512624	-0.342375	2.624629	-0.065914	-0.028713	0.061053	1.000000	0.000027	0.000006	0.000017	-6.803861	-74.834658	-0.221327
64247	9.525066	-0.341307	2.584445	-0.024093	-0.032747	0.062589	1.000000	0.000054	0.000012	0.000004	-6.795497	-74.834706	-0.226626
64248	9.483150	-0.335698	2.586533	-0.036518	-0.027137	0.022500	1.000000	0.000040	-0.000000	0.000012	-6.792619	-74.836058	-0.227866
64249	9.526237	-0.321863	2.555946	0.005419	-0.017434	0.055712	1.000000	0.000062	-0.000003	0.000004	-6.784258	-74.837837	-0.232160
64250	9.499052	-0.319516	2.577110	-0.021958	-0.012747	0.034897	1.000000	0.000040	-0.000000	0.000012	-6.781377	-74.839189	-0.233403
64251	9.503640	-0.285348	2.579467	-0.019188	0.021276	0.038882	1.000000	0.000049	0.000003	0.000010	-6.776581	-74.840185	-0.235637
64252	9.498985	-0.319587	2.577345	-0.022470	-0.013026	0.034896	1.000000	0.000033	0.000013	0.000023	-6.778548	-74.839874	-0.232775
64253	9.514836	-0.303944	2.568045	-0.007652	0.001499	0.047297	1.000000	0.000010	-0.000001	0.000021	-6.783153	-74.841139	-0.229883
64254	9.488819	-0.282598	2.560666	-0.004991	0.021779	0.019610	1.000000	0.000034	0.000011	0.000004	-6.777043	-74.841291	-0.235195
64255	9.487514	-0.301839	2.589679	-0.035279	0.006056	0.026478	1.000000	0.000026	0.000025	0.000015	-6.775811	-74.839773	-0.236374
64256	9.499901	-0.301025	2.549691	0.006542	0.001998	0.028025	1.000000	0.000021	0.000016	0.000021	-6.778110	-74.839212	-0.234524
64257	9.509876	-0.338693	2.566985	-0.011710	-0.033223	0.043307	1.000000	0.000018	0.000021	0.000017	-6.778823	-74.838044	-0.234681
64258	9.472499	-0.299281	2.571570	-0.021081	0.006560	0.007205	1.000000	0.000021	0.000016	0.000021	-6.781121	-74.837483	-0.232832
64259	9.501772	-0.306012	2.610367	-0.051258	0.004583	0.045745	1.000000	0.000009	0.000020	0.000007	-6.778939	-74.836594	-0.237065
64260	9.502900	-0.286904	2.582018	-0.021474	0.020020	0.038880	1.000000	0.000023	0.000012	0.000013	-6.778006	-74.836564	-0.238285
64261	9.494822	-0.336216	2.549020	0.002227	-0.032866	0.024034	1.000000	0.000013	0.000012	0.000023	-6.782275	-74.836339	-0.235386
64262	9.514041	-0.305329	2.570825	-0.009948	0.000235	0.047295	1.000000	0.000042	0.000017	-0.000010	-6.769375	-74.836072	-0.246822
64263	9.502731	-0.287056	2.582622	-0.022233	0.019602	0.038879	1.000000	0.000015	-0.000010	0.000018	-6.772366	-74.838463	-0.244967
64264	9.488060	-0.283930	2.563331	-0.007523	0.020378	0.019611	1.000000	0.000029	0.000002	0.000010	-6.769815	-74.839566	-0.247223
64265	9.518654	-0.271365	2.573094	-0.007660	0.033974	0.051288	1.000000	0.000024	-0.000007	0.000016	-6.770850	-74.841606	-0.246397
64266	9.529930	-0.289759	2.561404	0.004112	0.014325	0.059703	1.000000	0.000015	0.000008	0.000015	-6.771863	-74.841926	-0.246594
64267	9.499340	-0.302544	2.551603	0.003745	0.000449	0.028027	1.000000	0.000026	-0.000011	0.000008	-6.769660	-74.844497	-0.248845
64268	9.531128	-0.271048	2.532771	0.033652	0.029604	0.052849	1.000000	0.000011	0.000014	0.000042	-6.781980	-74.843823	-0.237799
64269	9.513964	-0.306644	2.570954	-0.011731	-0.000747	0.047293	1.000000	0.000024	-0.000007	0.000016	-6.783005	-74.845861	-0.236983
64270	9.495841	-0.318668	2.520900	0.029971	-0.018574	0.017177	1.000000	-0.000001	0.000018	0.000028	-6.790811	-74.844869	-0.232054
64271	9.537617	-0.324623	2.519307	0.041851	-0.024496	0.057271	1.000000	0.000021	0.000016	0.000021	-6.793121	-74.844295	-0.230192
64272	9.521648	-0.340835	2.528932	0.026510	-0.039284	0.044858	1.000000	0.000018	0.000003	0.000019	-6.795749	-74.845216	-0.228354
64273	9.521601	-0.341036	2.529084	0.026254	-0.039425	0.044858	1.000000	0.000023	0.000012	0.000013	-6.794837	-74.845178	-0.229553
64274	9.509031	-0.342186	2.569650	-0.016076	-0.035606	0.043292	1.000000	0.000027	0.000006	0.000017	-6.795515	-74.845749	-0.228740
64275	9.513616	-0.308236	2.572050	-0.013262	-0.001588	0.047291	1.000000	0.000027	0.000006	0.000017	-6.796230	-74.846312	-0.227893
64276	9.552042	-0.328889	2.539379	0.025594	-0.026122	0.076538	1.000000	0.000023	0.000012	0.000013	-6.795292	-74.846283	-0.229116
64277	9.522668	-0.322276	2.500975	0.055281	-0.024446	0.038012	1.000000	0.000045	-0.000008	-0.000003	-6.785983	-74.848696	-0.236463
64278	9.510134	-0.323293	2.541415	0.012954	-0.020619	0.036443	1.000000	0.000013	0.000012	0.000023	-6.790223	-74.848485	-0.233594
64279	9.495369	-0.320245	2.522476	0.027671	-0.019851	0.017181	1.000000	0.000020	0.000017	0.000009	-6.787711	-74.847851	-0.236811
64280	9.509961	-0.323619	2.542020	0.012441	-0.020901	0.036443	1.000000	0.000012	0.000014	0.000011	-6.787104	-74.847572	-0.239048
64281	9.525803	-0.307835	2.532835	0.027273	-0.006406	0.048862	1.000000	0.000023	0.000012	0.000013	-6.786213	-74.847538	-0.240223
64282	9.509786	-0.323896	2.542640	0.011928	-0.021183	0.036443	1.000000	0.000026	0.000025	0.000015	-6.784938	-74.846028	-0.241440
64283	9.525553	-0.308312	2.533718	0.026760	-0.006690	0.048863	1.000000	0.000013	0.000029	0.000032	-6.792125	-74.843800	-0.235444
64284	9.524151	-0.327689	2.562970	-0.003562	-0.022370	0.055703	1.000000	0.000034	0.000030	0.000001	-6.784056	-74.841873	-0.242790
64285	9.498102	-0.306159	2.555775	-0.000844	-0.002080	0.028027	1.000000	0.000017	0.000005	0.000008	-6.781893	-74.842726	-0.246003
64286	9.509251	-0.324522	2.544563	0.010900	-0.021746	0.036443	1.000000	0.000035	0.000044	0.000022	-6.781563	-74.838853	-0.245171
64287	9.512487	-0.309851	2.576031	-0.016334	-0.003263	0.047286	1.000000	0.000024	0.000010	0.000025	-6.785527	-74.838893	-0.241236
64288	9.473913	-0.289598	2.609148	-0.055677	0.021021	0.018030	1.000000	0.000030	0.000019	0.000019	-6.785866	-74.837983	-0.240420
64289	9.497634	-0.307096	2.557402	-0.001867	-0.002640	0.028027	1.000000	0.000033	0.000013	0.000023	-6.787873	-74.837669	-0.237514
64290	9.512223	-0.310620	2.576912	-0.017102	-0.003682	0.047284	1.000000	0.000033	0.000013	0.000023	-6.789827	-74.837359	-0.234663
64291	9.500876	-0.292794	2.588796	-0.029351	0.015708	0.038868	1.000000	0.000036	0.000005	0.000038	-6.798292	-74.837712	-0.224622
64292	9.500801	-0.293045	2.589044	-0.029606	0.015569	0.038867	1.000000	0.000040	0.000018	0.000009	-6.793452	-74.836984	-0.227897
64293	9.499472	-0.312291	2.617984	-0.059935	-0.000090	0.045697	1.000000	0.000027	0.000006	0.000017	-6.794179	-74.837549	-0.227037
64294	9.482656	-0.304870	2.539185	0.011838	-0.002441	0.008770	1.000000	0.000031	-0.000002	0.000002	-6.788398	-74.839185	-0.232359
64295	9.527922	-0.295472	2.568212	-0.003285	0.010243	0.059709	1.000000	0.000021	-0.000001	0.000012	-6.787845	-74.840632	-0.233542
64296	9.513259	-0.292321	2.548941	0.011442	0.010999	0.040454	1.000000	0.000032	-0.000004	0.000014	-6.786907	-74.842335	-0.233762
64297	9.527919	-0.295760	2.568190	-0.003796	0.009962	0.059709	1.000000	0.000018	0.000003	0.000019	-6.789574	-74.843249	-0.231883
64298	9.482610	-0.305463	2.539285	0.010819	-0.003003	0.008771	1.000000	0.000024	0.000010	0.000025	-6.793474	-74.843288	-0.228009
64299	9.516523	-0.278029	2.580253	-0.016289	0.029216	0.051293	1.000000	0.000032	0.000015	0.000011	-6.790628	-74.842905	-0.230218
64300	9.527683	-0.296594	2.568972	-0.004562	0.009540	0.059709	1.000000	0.000005	0.000026	0.000034	-6.799697	-74.841028	-0.223262
64301	9.496996	-0.309577	2.559472	-0.004929	-0.004319	0.028025	1.000000	0.000017	0.000005	0.000008	-6.797516	-74.841872	-0.226490
64302	9.512869	-0.293950	2.550206	0.009914	0.010153	0.040456	1.000000	0.000022	0.000014	0.000032	-6.804641	-74.841378	-0.219552
64303	9.480899	-0.326114	2.569452	-0.020539	-0.019211	0.015593	1.000000	0.000018	0.000021	0.000017	-6.805344	-74.840210	-0.219714
64304	9.511390	-0.313719	2.579609	-0.020682	-0.005633	0.047277	1.000000	0.000021	0.000016	0.000021	-6.807624	-74.839649	-0.217880
64305	9.507934	-0.328833	2.548927	0.006025	-0.024418	0.036441	1.000000	0.000026	0.000008	0.000006	-6.803498	-74.840145	-0.222133
64306	9.511300	-0.313998	2.579909	-0.021194	-0.005911	0.047275	1.000000	0.000021	-0.000003	0.000023	-6.807737	-74.841665	-0.218261
64307	9.507895	-0.329128	2.549032	0.005513	-0.024699	0.036441	1.000000	0.000037	0.000006	0.000008	-6.803283	-74.842410	-0.221499
64308	9.496614	-0.311069	2.560710	-0.006716	-0.005299	0.028024	1.000000	0.000013	-0.000006	0.000025	-6.809473	-74.844278	-0.216602
64309	9.522543	-0.332795	2.568282	-0.009990	-0.025871	0.055690	1.000000	0.000017	0.000005	0.000008	-6.807299	-74.845122	-0.219822
64310	9.507872	-0.329726	2.549042	0.004743	-0.025122	0.036440	1.000000	0.000033	-0.000006	0.000025	-6.811207	-74.846892	-0.214938
64311	9.496625	-0.311657	2.560595	-0.007480	-0.005717	0.028023	1.000000	0.000014	-0.000008	0.000006	-6.809380	-74.849217	-0.218155
64312	9.509178	-0.310914	2.520181	0.034325	-0.009912	0.029628	1.000000	0.000018	0.000003	0.000019	-6.812001	-74.850138	-0.216321
64313	9.507855	-0.330257	2.549037	0.003974	-0.025542	0.036439	1.000000	0.000024	0.000012	0.000013	-6.811110	-74.850101	-0.217498
64314	9.523747	-0.314565	2.539730	0.018822	-0.011083	0.048877	1.000000	0.000018	0.000003	0.000019	-6.813731	-74.851021	-0.215664
64315	9.528351	-0.280665	2.542156	0.021710	0.022924	0.052900	1.000000	0.000030	0.000019	0.000019	-6.814119	-74.850104	-0.214800
64316	9.523609	-0.315050	2.540189	0.018309	-0.011365	0.048878	1.000000	0.000007	0.000005	0.000017	-6.817072	-74.850773	-0.213979
64317	9.523560	-0.315143	2.540358	0.018054	-0.011505	0.048878	1.000000	0.000034	0.000011	0.000004	-6.811003	-74.850921	-0.219247
64318	9.508857	-0.311870	2.521275	0.032792	-0.010763	0.029632	1.000000	0.000017	0.000005	0.000008	-6.808777	-74.851775	-0.222519
64319	9.523454	-0.315238	2.540745	0.017542	-0.011788	0.048879	1.000000	0.000041	0.000016	0.000021	-6.808834	-74.851104	-0.220634
64320	9.508725	-0.312072	2.521746	0.032281	-0.011046	0.029634	1.000000	0.000026	0.000008	0.000006	-6.804655	-74.851609	-0.224933
64321	9.507363	-0.331185	2.550749	0.001920	-0.026663	0.036437	1.000000	0.000029	0.000021	0.000007	-6.800201	-74.850635	-0.229172
64322	9.484728	-0.294695	2.574421	-0.022242	0.012303	0.019602	1.000000	0.000032	0.000015	0.000011	-6.797297	-74.850258	-0.231434
64323	9.497209	-0.293910	2.534321	0.019562	0.008085	0.021218	1.000000	0.000024	0.000012	0.000013	-6.796414	-74.850223	-0.232600
64324	9.511798	-0.297283	2.553812	0.004309	0.007061	0.040463	1.000000	0.000024	0.000012	0.000013	-6.795460	-74.850195	-0.233835
64325	9.499152	-0.298317	2.594488	-0.038003	0.011008	0.038844	1.000000	0.000030	0.000019	0.000019	-6.795841	-74.849280	-0.232971
64326	9.511597	-0.297720	2.554510	0.003799	0.006780	0.040463	1.000000	0.000039	0.000020	0.000028	-6.799056	-74.848087	-0.228092
64327	9.482203	-0.291509	2.516286	0.033544	0.008401	0.001978	1.000000	0.000015	0.000008	0.000015	-6.800118	-74.848402	-0.228240
64328	9.510130	-0.317328	2.583811	-0.026823	-0.008965	0.047259	1.000000	0.000018	0.000021	0.000017	-6.800770	-74.847241	-0.228452
64329	9.500054	-0.280201	2.567099	-0.008910	0.025920	0.032047	1.000000	0.000021	0.000016	0.000021	-6.803100	-74.846680	-0.226568
64330	9.495266	-0.314698	2.565260	-0.012335	-0.008364	0.028016	1.000000	0.000019	0.000019	0.000028	-6.808595	-74.845585	-0.221677
64331	9.499842	-0.280987	2.567799	-0.009418	0.025641	0.032047	1.000000	0.000030	0.000017	0.000030	-6.813816	-74.844740	-0.215722
64332	9.495025	-0.315255	2.566082	-0.012847	-0.008643	0.028015	1.000000	0.000034	0.000030	0.000001	-6.805717	-74.842816	-0.223092
64333	9.494954	-0.315333	2.566334	-0.013102	-0.008781	0.028015	1.000000	0.000033	-0.000005	0.000025	-6.809673	-74.844581	-0.218156
64334	9.510828	-0.299724	2.557138	0.001757	0.005658	0.040465	1.000000	0.000033	0.000032	0.000020	-6.809641	-74.842190	-0.217362
64335	9.520695	-0.337215	2.574548	-0.016682	-0.029498	0.055671	1.000000	0.000040	-0.000000	0.000012	-6.806811	-74.843539	-0.218553
64336	9.494771	-0.315733	2.566965	-0.013869	-0.009200	0.028013	1.000000	0.000029	0.000002	0.000010	-6.804251	-74.844643	-0.220813
64337	9.505980	-0.334161	2.555514	-0.002192	-0.028903	0.036431	1.000000	0.000021	0.000016	0.000021	-6.806581	-74.844076	-0.218930
64338	9.493324	-0.335198	2.596153	-0.044503	-0.024927	0.034798	1.000000	0.000024	0.000012	0.000013	-6.805624	-74.844048	-0.220169
64339	9.521822	-0.318622	2.546435	0.012412	-0.014608	0.048883	1.000000	0.000021	-0.000001	0.000012	-6.805077	-74.845492	-0.221335
64340	9.494556	-0.316190	2.567704	-0.014891	-0.009756	0.028011	1.000000	0.000031	0.000017	-0.000000	-6.797322	-74.845050	-0.228704
64341	9.465183	-0.309818	2.529468	0.014869	-0.008150	-0.010464	1.000000	0.000013	0.000012	0.000023	-6.801608	-74.844825	-0.225787
64342	9.505710	-0.334829	2.556428	-0.003476	-0.029603	0.036428	1.000000	0.000024	-0.000007	0.000016	-6.802620	-74.846877	-0.224981
64343	9.495716	-0.297657	2.539474	0.014472	0.005270	0.021229	1.000000	0.000018	0.000021	0.000017	-6.803331	-74.845705	-0.225128
64344	9.478348	-0.332947	2.577973	-0.031032	-0.024881	0.015553	1.000000	0.000004	0.000009	0.000024	-6.809502	-74.845840	-0.221251
64345	9.524857	-0.304676	2.578487	-0.016055	0.003251	0.059701	1.000000	0.000014	0.000010	0.000004	-6.805723	-74.846085	-0.226493
64346	9.505456	-0.335630	2.557268	-0.004502	-0.030161	0.036426	1.000000	0.000035	0.000009	0.000015	-6.804432	-74.846308	-0.226720
64347	9.494106	-0.317517	2.569202	-0.016676	-0.010726	0.028007	1.000000	0.000018	0.000021	0.000017	-6.805143	-74.845133	-0.226863
64348	9.482778	-0.299473	2.581046	-0.028850	0.008708	0.019589	1.000000	0.000030	0.000000	0.000021	-6.807425	-74.846304	-0.224022
64349	9.493990	-0.317843	2.569590	-0.017187	-0.011003	0.028006	1.000000	0.000011	0.000016	-0.000000	-6.802029	-74.845948	-0.231303
64350	9.509911	-0.301959	2.560284	-0.002320	0.003420	0.040466	1.000000	0.000040	-0.000000	0.000012	-6.799134	-74.847304	-0.232552
64351	9.521116	-0.320456	2.548843	0.009340	-0.016295	0.048884	1.000000	0.000030	0.000017	0.000030	-6.804362	-74.846451	-0.226582
64352	9.524422	-0.305600	2.579986	-0.017843	0.002275	0.059698	1.000000	0.000026	0.000008	0.000006	-6.800178	-74.846956	-0.230886
64353	9.483840	-0.280939	2.553215	0.000020	0.023446	0.012815	1.000000	0.000027	0.000006	0.000017	-6.800917	-74.847512	-0.230006
64354	9.506337	-0.317658	2.530039	0.023586	-0.015853	0.029652	1.000000	0.000021	-0.000001	0.000012	-6.800307	-74.848965	-0.231241
64355	9.511058	-0.283668	2.532119	0.026547	0.018145	0.033697	1.000000	0.000024	-0.000007	0.000016	-6.801390	-74.851015	-0.230366
64356	9.520967	-0.321185	2.549309	0.008057	-0.016998	0.048884	1.000000	0.000024	0.000012	0.000013	-6.800427	-74.850987	-0.231609
64357	9.496334	-0.280772	2.513132	0.041055	0.018725	0.014468	1.000000	0.000004	0.000011	0.000013	-6.801814	-74.851045	-0.232761
64358	9.509624	-0.303279	2.561195	-0.004359	0.002303	0.040465	1.000000	0.000024	-0.000007	0.000016	-6.802826	-74.853097	-0.231954
64359	9.525561	-0.287660	2.551814	0.010514	0.016719	0.052931	1.000000	0.000021	0.000016	0.000021	-6.805159	-74.852527	-0.230063
64360	9.510820	-0.284793	2.532886	0.025277	0.017437	0.033702	1.000000	0.000019	0.000019	0.000028	-6.810642	-74.851431	-0.225183
64361	9.520630	-0.322477	2.550401	0.006776	-0.017699	0.048883	1.000000	0.000030	0.000019	0.000019	-6.811008	-74.850514	-0.224326
64362	9.509287	-0.304352	2.562319	-0.005380	0.001744	0.040465	1.000000	0.000024	0.000012	0.000013	-6.810044	-74.850486	-0.225570
64363	9.497938	-0.286234	2.574255	-0.017532	0.021193	0.032046	1.000000	0.000018	0.000021	0.000017	-6.810751	-74.849317	-0.225728
64364	9.494482	-0.301389	2.543644	0.009130	0.002324	0.021237	1.000000	0.000037	0.000005	0.000008	-6.806231	-74.850075	-0.229020
64365	9.509011	-0.304866	2.563279	-0.006145	0.001327	0.040465	1.000000	0.000002	0.000031	0.000029	-6.813705	-74.847589	-0.224076
64366	9.524896	-0.289307	2.554109	0.008730	0.015732	0.052934	1.000000	0.000040	-0.000000	0.000012	-6.810809	-74.848946	-0.225325
64367	9.508870	-0.305296	2.563752	-0.006655	0.001047	0.040464	1.000000	0.000021	0.000016	0.000021	-6.813122	-74.848376	-0.223448
64368	9.478181	-0.318224	2.554211	-0.007022	-0.012782	0.008767	1.000000	0.000024	0.000010	0.000025	-6.817001	-74.848413	-0.219591
64369	9.523350	-0.309134	2.583518	-0.022189	-0.000087	0.059690	1.000000	0.000033	0.000013	0.000023	-6.818985	-74.848099	-0.216704
64370	9.492656	-0.321902	2.574009	-0.022556	-0.013915	0.027992	1.000000	0.000032	0.000015	0.000011	-6.816064	-74.847724	-0.218978
64371	9.508557	-0.306378	2.564783	-0.007676	0.000489	0.040464	1.000000	0.000014	0.000010	0.000034	-6.825179	-74.847557	-0.210964
64372	9.492522	-0.322477	2.574431	-0.023066	-0.014192	0.027990	1.000000	0.000037	0.000005	0.000008	-6.820659	-74.848315	-0.214256
64373	9.493837	-0.303492	2.545800	0.006839	0.001063	0.021239	1.000000	0.000027	0.000006	0.000017	-6.821383	-74.848876	-0.213395
64374	9.550228	-0.312539	2.563639	0.003551	-0.005840	0.080580	1.000000	0.000024	0.000030	0.000011	-6.818434	-74.846769	-0.216697
64375	9.477665	-0.319623	2.555949	-0.008806	-0.013754	0.008764	1.000000	0.000030	0.000000	0.000021	-6.820772	-74.847932	-0.213797
64376	9.508250	-0.307231	2.565822	-0.008952	-0.000210	0.040462	1.000000	0.000027	0.000006	0.000017	-6.821427	-74.848503	-0.213001
64377	9.508208	-0.307419	2.565952	-0.009208	-0.000348	0.040462	1.000000	0.000027	0.000006	0.000017	-6.822146	-74.849070	-0.212145
64378	9.480898	-0.305134	2.587281	-0.036479	0.004575	0.019566	1.000000	0.000030	0.000019	0.000019	-6.822442	-74.848160	-0.211363
64379	9.522695	-0.311174	2.585687	-0.024746	-0.001476	0.059684	1.000000	0.000019	0.000001	0.000031	-6.829965	-74.849131	-0.204371
64380	9.538621	-0.295572	2.576401	-0.009864	0.012915	0.072161	1.000000	0.000040	0.000018	0.000009	-6.825083	-74.848409	-0.207679
64381	9.507954	-0.308170	2.566803	-0.010229	-0.000906	0.040461	1.000000	0.000040	-0.000000	0.000012	-6.822245	-74.849761	-0.208876
64382	9.522532	-0.311641	2.586231	-0.025514	-0.001894	0.059682	1.000000	0.000022	0.000014	0.000032	-6.829339	-74.849263	-0.201964
64383	9.507828	-0.308737	2.567204	-0.010739	-0.001184	0.040461	1.000000	0.000024	0.000012	0.000013	-6.828436	-74.849226	-0.203149
64384	9.493136	-0.305649	2.548158	0.004036	-0.000478	0.021240	1.000000	0.000024	0.000012	0.000013	-6.827465	-74.849198	-0.204399
64385	9.493068	-0.305777	2.548395	0.003782	-0.000617	0.021241	1.000000	0.000024	0.000012	0.000013	-6.826564	-74.849163	-0.205589
64386	9.507624	-0.309226	2.567898	-0.011506	-0.001604	0.040460	1.000000	0.000024	0.000010	0.000025	-6.830436	-74.849199	-0.201737
64387	9.507529	-0.309293	2.568243	-0.011760	-0.001741	0.040459	1.000000	0.000017	0.000025	-0.000006	-6.821434	-74.847900	-0.212114
64388	9.507475	-0.309393	2.568432	-0.012016	-0.001882	0.040459	1.000000	0.000013	-0.000006	0.000025	-6.827624	-74.849764	-0.207217
64389	9.492781	-0.306425	2.549385	0.002764	-0.001176	0.021241	1.000000	0.000024	0.000030	0.000011	-6.824731	-74.847640	-0.210463
64390	9.510709	-0.294659	2.599771	-0.039421	0.016604	0.051256	1.000000	0.000024	-0.000007	0.000016	-6.825745	-74.849693	-0.209654
64391	9.519932	-0.309208	2.528616	0.029259	-0.006545	0.042145	1.000000	0.000024	0.000012	0.000013	-6.824813	-74.849655	-0.210854
64392	9.512000	-0.275898	2.571270	-0.009750	0.031689	0.044523	1.000000	0.000035	0.000009	0.000015	-6.823507	-74.849880	-0.211091
64393	9.503800	-0.325338	2.538580	0.013603	-0.021347	0.029660	1.000000	0.000021	0.000016	0.000021	-6.825799	-74.849311	-0.209238
64394	9.511861	-0.276327	2.571740	-0.010258	0.031409	0.044524	1.000000	0.000027	0.000006	0.000017	-6.826450	-74.849883	-0.208445
64395	9.492439	-0.307292	2.550555	0.001237	-0.002017	0.021241	1.000000	0.000034	0.000011	0.000004	-6.820352	-74.850027	-0.213725
64396	9.506978	-0.310813	2.570098	-0.014056	-0.002998	0.040456	1.000000	0.000011	0.000014	0.000041	-6.832616	-74.849339	-0.202730
64397	9.492333	-0.307822	2.550886	0.000729	-0.002298	0.021241	1.000000	0.000045	-0.000008	-0.000003	-6.823322	-74.851747	-0.210039
64398	9.522933	-0.295256	2.560739	0.000582	0.011236	0.052944	1.000000	0.000013	0.000012	0.000022	-6.827522	-74.851532	-0.207204
64399	9.503499	-0.326458	2.539564	0.012069	-0.022193	0.029660	1.000000	0.000027	0.000006	0.000017	-6.828219	-74.852094	-0.206366
64400	9.492204	-0.308396	2.551296	-0.000036	-0.002719	0.021241	1.000000	0.000024	0.000010	0.000025	-6.832087	-74.852130	-0.202517
64401	9.508139	-0.292826	2.542019	0.014858	0.011652	0.033731	1.000000	0.000024	0.000012	0.000013	-6.831160	-74.852095	-0.203720
64402	9.532541	-0.333501	2.578772	-0.018782	-0.024289	0.068086	1.000000	0.000024	0.000012	0.000013	-6.830183	-74.852068	-0.204974
64403	9.503247	-0.327206	2.540408	0.011045	-0.022756	0.029660	1.000000	0.000035	0.000009	0.000015	-6.828923	-74.852277	-0.205161
64404	9.506544	-0.312500	2.571499	-0.016097	-0.004115	0.040453	1.000000	0.000011	0.000014	0.000041	-6.841184	-74.851589	-0.194168
64405	9.507839	-0.293892	2.543019	0.013843	0.011088	0.033734	1.000000	0.000021	0.000017	0.000009	-6.838640	-74.850946	-0.197408
64406	9.503037	-0.328147	2.541072	0.010277	-0.023179	0.029660	1.000000	0.000024	-0.000007	0.000016	-6.839654	-74.852998	-0.196597
64407	9.502996	-0.328336	2.541204	0.010021	-0.023319	0.029660	1.000000	0.000030	0.000019	0.000019	-6.839997	-74.852084	-0.195775
64408	9.491670	-0.310165	2.553068	-0.002074	-0.003838	0.021240	1.000000	0.000024	0.000012	0.000013	-6.839018	-74.852057	-0.197031
64409	9.491588	-0.310262	2.553359	-0.002326	-0.003977	0.021240	1.000000	0.000021	0.000017	0.000009	-6.836462	-74.851408	-0.200264
