// Start Time: Unknown
// Update Rate: 100.0Hz
// Filter Profile: human (46.1)
// Firmware Version: 4.4.0
PacketCounter	Acc_X	Acc_Y	Acc_Z	FreeAcc_X	FreeAcc_Y	FreeAcc_Z	OriInc_q0	OriInc_q1	OriInc_q2	OriInc_q3	Roll	Pitch	Yaw
29684	9.567251	-0.283465	-2.246555	0.000000	-0.000000	0.018877	1.000000	0.000017	0.000020	0.000031	-172.817568	-76.683389	-154.606941
29685	9.579196	-0.249270	-2.286511	0.000000	0.000000	0.038773	1.000000	0.000007	0.000003	0.000045	-173.789445	-76.498404	-153.455498
29686	9.561093	-0.300497	-2.276463	0.028970	-0.022862	0.020202	1.000000	-0.000005	0.000003	0.000028	-173.303357	-76.590236	-154.035289
29687	9.575376	-0.263698	-2.239409	-0.024375	-0.012118	0.024567	1.000000	0.000037	0.000009	0.000046	-173.276579	-76.590644	-154.058451
29688	9.569241	-0.280091	-2.269300	0.009958	-0.008652	0.025929	1.000000	0.000008	0.000022	0.000031	-173.259443	-76.592787	-154.075201
29689	9.579335	-0.252223	-2.285605	0.006248	0.023193	0.038743	1.000000	0.000008	0.000022	0.000031	-173.242535	-76.594857	-154.091636
29690	9.594226	-0.283320	-2.292512	0.025280	-0.000118	0.055667	1.000000	0.000007	0.000003	0.000045	-173.220141	-76.594619	-154.113846
29691	9.546401	-0.273967	-2.268139	0.009936	0.000458	0.003279	1.000000	0.000015	0.000004	0.000034	-173.202004	-76.594566	-154.130716
29692	9.592323	-0.291334	-2.268796	0.009954	-0.017769	0.048578	1.000000	0.000017	0.000014	0.000035	-173.182166	-76.595582	-154.149092
29693	9.577524	-0.261731	-2.261354	-0.009083	0.005539	0.031655	1.000000	0.000008	0.000016	0.000036	-173.163414	-76.596886	-154.167467
29694	9.542228	-0.285305	-2.321130	0.059534	0.021560	0.011729	1.000000	-0.000002	0.000005	0.000045	-173.141636	-76.596769	-154.190133
29695	9.600537	-0.271698	-2.261306	-0.009084	-0.003568	0.054305	1.000000	0.000038	0.000021	0.000037	-173.118490	-76.598683	-154.209469
29696	9.546592	-0.277789	-2.266872	0.009844	0.000451	0.003279	1.000000	-0.000003	0.000013	0.000029	-173.103646	-76.599442	-154.225099
29697	9.571514	-0.280362	-2.290444	0.025169	0.008987	0.033017	1.000000	0.000019	0.000018	0.000042	-173.080549	-76.600966	-154.246643
29698	9.577769	-0.265581	-2.259869	-0.009243	0.005518	0.031655	1.000000	0.000017	0.000020	0.000031	-173.062109	-76.602344	-154.263513
29699	9.594596	-0.290242	-2.290095	0.025101	-0.000142	0.055667	1.000000	0.000019	0.000018	0.000042	-173.039003	-76.603863	-154.285067
29700	9.548761	-0.274385	-2.288940	0.024966	0.018061	0.010368	1.000000	0.000008	0.000016	0.000036	-173.019635	-76.604577	-154.304040
29701	9.571754	-0.283451	-2.289058	0.024983	0.008948	0.033018	1.000000	0.000017	0.000014	0.000035	-172.999912	-76.605682	-154.322305
29702	9.578009	-0.268668	-2.258483	-0.009498	0.005443	0.031655	1.000000	0.000019	0.000025	0.000037	-172.978126	-76.607014	-154.342426
29703	9.592887	-0.299737	-2.265315	0.009538	-0.017866	0.048579	1.000000	-0.000004	0.000007	0.000034	-172.961852	-76.607318	-154.359592
29704	9.571921	-0.285575	-2.288096	0.024679	0.008860	0.033018	1.000000	0.000008	0.000022	0.000031	-172.944048	-76.608496	-154.376902
29705	9.571965	-0.286332	-2.287817	0.024679	0.008860	0.033018	1.000000	0.000026	0.000006	0.000040	-172.921555	-76.608646	-154.396951
29706	9.609243	-0.257915	-2.251092	-0.028861	0.010434	0.060029	1.000000	0.000017	0.000014	0.000035	-172.900853	-76.608492	-154.416163
29707	9.596926	-0.289751	-2.311141	0.039792	0.017338	0.062758	1.000000	0.000017	0.000020	0.000031	-172.882929	-76.610351	-154.432532
29708	9.572109	-0.288646	-2.286925	0.024261	0.008711	0.033020	1.000000	-0.000000	0.000016	0.000046	-172.859668	-76.610148	-154.456539
29709	9.582205	-0.261019	-2.303418	0.020549	0.040556	0.045835	1.000000	0.000007	0.000010	0.000040	-172.839048	-76.610668	-154.476877
29710	9.580316	-0.268108	-2.279676	0.004969	0.022740	0.038745	1.000000	-0.000003	0.000019	0.000025	-172.827226	-76.610636	-154.489396
29711	9.605240	-0.270758	-2.303263	0.020291	0.031275	0.068485	1.000000	0.000037	0.000009	0.000046	-172.800390	-76.610999	-154.512613
29712	9.572296	-0.291848	-2.285733	0.023702	0.008308	0.033021	1.000000	0.000011	0.000031	0.000043	-172.778831	-76.611762	-154.533623
29713	9.565691	-0.240308	-2.271491	-0.014350	0.045815	0.021821	1.000000	0.000007	0.000010	0.000040	-172.758211	-76.612279	-154.553962
29714	9.580553	-0.271474	-2.278281	0.004393	0.022188	0.038747	1.000000	0.000019	0.000025	0.000037	-172.740911	-76.612219	-154.569685
29715	9.561963	-0.254677	-2.223717	-0.045253	0.010203	0.007636	1.000000	0.000008	0.000028	0.000026	-172.725713	-76.615025	-154.584313
29716	9.603679	-0.281212	-2.277713	0.004181	0.012723	0.061396	1.000000	0.000019	0.000018	0.000042	-172.708043	-76.614451	-154.600581
29717	9.557864	-0.265297	-2.276591	0.004156	0.030954	0.016099	1.000000	0.000008	0.000016	0.000036	-172.689220	-76.615724	-154.619026
29718	9.555963	-0.272378	-2.252850	-0.011341	0.012906	0.009005	1.000000	-0.000003	0.000013	0.000029	-172.681801	-76.614770	-154.627362
29719	9.572720	-0.296977	-2.283298	0.022999	0.007241	0.033024	1.000000	0.000034	0.000000	0.000034	-172.661777	-76.614311	-154.643954
29720	9.591012	-0.247218	-2.292976	-0.000011	0.052840	0.051570	1.000000	0.000001	0.000034	0.000033	-172.651089	-76.615144	-154.654941
29721	9.581002	-0.276307	-2.275812	0.003703	0.020997	0.038750	1.000000	0.000015	0.000010	0.000029	-172.634740	-76.615810	-154.669917
29722	9.581023	-0.277046	-2.275634	0.003491	0.020476	0.038751	1.000000	0.000017	0.000008	0.000040	-172.622714	-76.613708	-154.680600
29723	9.583023	-0.271423	-2.298811	0.018795	0.038121	0.045848	1.000000	-0.000000	0.000022	0.000042	-172.601436	-76.615553	-154.702470
29724	9.558181	-0.270322	-2.274669	0.003247	0.029023	0.016105	1.000000	0.000017	0.000008	0.000040	-172.590356	-76.613226	-154.712320
29725	9.589309	-0.257419	-2.268040	-0.015763	0.034096	0.044477	1.000000	0.000008	0.000022	0.000031	-172.573353	-76.615241	-154.728832
29726	9.583155	-0.273745	-2.297984	0.018341	0.036920	0.045853	1.000000	0.000007	0.000003	0.000045	-172.562788	-76.612242	-154.739471
29727	9.591368	-0.252620	-2.290897	-0.000682	0.051112	0.051579	1.000000	0.000031	0.000033	0.000038	-172.538877	-76.615450	-154.760442
29728	9.579402	-0.288267	-2.250147	-0.012460	0.000888	0.031653	1.000000	0.000008	0.000022	0.000031	-172.536614	-76.614651	-154.762285
29729	9.589578	-0.260700	-2.266527	-0.016177	0.032724	0.044481	1.000000	0.000029	0.000015	0.000052	-172.507330	-76.615560	-154.788912
29730	9.577548	-0.296579	-2.225968	-0.027843	-0.017451	0.024550	1.000000	0.000009	0.000020	0.000042	-172.499974	-76.615109	-154.796210
29731	9.612605	-0.270897	-2.266271	-0.016243	0.022905	0.067128	1.000000	0.000007	0.000010	0.000040	-172.479399	-76.615593	-154.816481
29732	9.581549	-0.285389	-2.272383	0.002559	0.017141	0.038757	1.000000	0.000009	0.000014	0.000046	-172.468870	-76.613649	-154.826722
29733	9.581605	-0.286189	-2.272049	0.002556	0.017139	0.038757	1.000000	0.000017	0.000020	0.000031	-172.450902	-76.615457	-154.843114
29734	9.583656	-0.280380	-2.295093	0.017788	0.034070	0.045865	1.000000	-0.000001	0.000024	0.000031	-172.450251	-76.615507	-154.844082
29735	9.581752	-0.287425	-2.271271	0.002480	0.016421	0.038759	1.000000	0.000035	0.000012	0.000025	-172.433852	-76.616526	-154.856826
29736	9.606696	-0.290222	-2.294805	0.017636	0.024262	0.068510	1.000000	0.000011	0.000018	0.000053	-172.419992	-76.615310	-154.870612
29737	9.593990	-0.254107	-2.310758	0.013904	0.065222	0.058705	1.000000	-0.000003	0.000025	0.000020	-172.409102	-76.617836	-154.882072
29738	9.581944	-0.289655	-2.270178	0.002180	0.015117	0.038761	1.000000	0.000018	0.000012	0.000046	-172.396834	-76.616268	-154.894478
29739	9.583921	-0.284089	-2.293530	0.017479	0.032758	0.045870	1.000000	0.000005	-0.000001	0.000039	-172.377798	-76.615544	-154.913404
29740	9.567194	-0.260821	-2.262880	-0.017005	0.037768	0.021851	1.000000	0.000015	0.000010	0.000029	-172.375039	-76.613754	-154.915873
29741	9.559063	-0.283497	-2.269351	0.002011	0.023576	0.016120	1.000000	0.000008	0.000016	0.000036	-172.356131	-76.614968	-154.934394
29742	9.592162	-0.264159	-2.286266	-0.001756	0.045415	0.051607	1.000000	0.000006	0.000005	0.000034	-172.357946	-76.612615	-154.931614
29743	9.606973	-0.295428	-2.292978	0.017269	0.022087	0.068516	1.000000	0.000022	0.000033	0.000049	-172.329708	-76.615607	-154.957982
29744	9.569441	-0.257457	-2.284870	-0.001804	0.053701	0.028971	1.000000	0.000001	0.000034	0.000033	-172.330889	-76.616717	-154.956670
29745	9.569495	-0.258173	-2.284566	-0.001807	0.053696	0.028971	1.000000	0.000015	-0.000003	0.000039	-172.311015	-76.615807	-154.975335
29746	9.569538	-0.259017	-2.284291	-0.001668	0.052918	0.028975	1.000000	0.000011	0.000031	0.000043	-172.306324	-76.617461	-154.980187
29747	9.598758	-0.252672	-2.253919	-0.035983	0.040324	0.050234	1.000000	0.000010	0.000026	0.000037	-172.285944	-76.619871	-154.999963
29748	9.567751	-0.266954	-2.259809	-0.016988	0.034342	0.021864	1.000000	0.000008	0.000022	0.000031	-172.289920	-76.619488	-154.995486
29749	9.569803	-0.261219	-2.282927	-0.001681	0.051977	0.028980	1.000000	0.000017	0.000014	0.000035	-172.270274	-76.620538	-155.013630
29750	9.582594	-0.298795	-2.266247	0.002124	0.010219	0.038767	1.000000	0.000008	0.000016	0.000036	-172.270154	-76.620268	-155.014861
29751	9.590811	-0.277682	-2.259280	-0.016892	0.024404	0.044504	1.000000	0.000037	0.000009	0.000046	-172.243412	-76.620591	-155.037956
29752	9.576132	-0.248108	-2.251896	-0.035892	0.046805	0.027608	1.000000	0.000008	0.000022	0.000031	-172.247860	-76.620474	-155.032825
29753	9.599126	-0.257242	-2.251835	-0.035877	0.037655	0.050245	1.000000	-0.000000	0.000022	0.000042	-172.226676	-76.622314	-155.054576
29754	9.584763	-0.295618	-2.288549	0.017546	0.025991	0.045890	1.000000	0.000015	-0.000003	0.000039	-172.228694	-76.619537	-155.051531
29755	9.592962	-0.274384	-2.281700	-0.001471	0.040170	0.051630	1.000000	0.000008	0.000016	0.000036	-172.210029	-76.620780	-155.069767
29756	9.591003	-0.281568	-2.257984	-0.016794	0.021649	0.044511	1.000000	0.000007	0.000010	0.000040	-172.209247	-76.618975	-155.070514
29757	9.578308	-0.245443	-2.274191	-0.020517	0.062615	0.034740	1.000000	0.000016	0.000010	0.000029	-172.193056	-76.619620	-155.085290
29758	9.591051	-0.283005	-2.257601	-0.016524	0.020677	0.044513	1.000000	0.000007	0.000010	0.000040	-172.197247	-76.619142	-155.079951
29759	9.595097	-0.271008	-2.304233	0.014091	0.055944	0.058761	1.000000	0.000038	0.000021	0.000037	-172.174195	-76.620988	-155.099127
29760	9.591176	-0.284601	-2.256868	-0.016254	0.019871	0.044516	1.000000	0.000008	0.000022	0.000031	-172.178028	-76.622439	-155.095912
29761	9.599456	-0.263237	-2.249730	-0.035265	0.034048	0.050261	1.000000	0.000008	0.000022	0.000031	-172.161211	-76.624472	-155.112199
29762	9.570427	-0.271115	-2.279157	-0.001174	0.045691	0.029011	1.000000	0.000009	0.000020	0.000042	-172.158428	-76.622525	-155.113741
29763	9.591394	-0.286831	-2.255660	-0.016463	0.018890	0.044517	1.000000	0.000019	0.000018	0.000042	-172.135431	-76.623959	-155.135116
29764	9.562341	-0.294791	-2.285173	0.018072	0.030727	0.023268	1.000000	0.000017	0.000014	0.000036	-172.135528	-76.624278	-155.134784
29765	9.593499	-0.281975	-2.278516	-0.000934	0.035744	0.051647	1.000000	0.000008	0.000016	0.000036	-172.116894	-76.625510	-155.152976
29766	9.595532	-0.276280	-2.301796	0.014578	0.052689	0.058778	1.000000	0.000015	0.000004	0.000034	-172.116613	-76.624798	-155.153585
29767	9.570655	-0.275052	-2.277727	-0.000730	0.044204	0.029018	1.000000	0.000038	0.000021	0.000037	-172.093501	-76.626644	-155.172836
29768	9.576913	-0.260186	-2.247208	-0.034845	0.039844	0.027643	1.000000	-0.000003	0.000013	0.000029	-172.101991	-76.626563	-155.164750
29769	9.560513	-0.304972	-2.260442	0.003209	0.011469	0.016141	1.000000	0.000018	0.000006	0.000051	-172.075485	-76.626487	-155.189833
29770	9.601869	-0.263852	-2.270661	-0.019803	0.047738	0.057406	1.000000	0.000006	0.000011	0.000029	-172.069830	-76.624394	-155.197465
29771	9.568756	-0.284459	-2.253408	-0.016093	0.025079	0.021893	1.000000	0.000015	0.000004	0.000034	-172.051771	-76.624267	-155.214231
29772	9.570775	-0.278727	-2.276776	-0.000399	0.041951	0.029028	1.000000	-0.000004	0.000007	0.000034	-172.057034	-76.624733	-155.210707
29773	9.593708	-0.287856	-2.276901	-0.000379	0.032783	0.051657	1.000000	0.000008	0.000016	0.000036	-172.038305	-76.625985	-155.229030
29774	9.572863	-0.273733	-2.299770	0.014952	0.058751	0.036166	1.000000	-0.000002	0.000011	0.000040	-172.037898	-76.624797	-155.229989
29775	9.593834	-0.289376	-2.276177	-0.000334	0.031947	0.051660	1.000000	0.000012	0.000037	0.000039	-172.015850	-76.628370	-155.251239
29776	9.571029	-0.281799	-2.275328	-0.000150	0.040341	0.029035	1.000000	0.000038	0.000015	0.000042	-172.010412	-76.628580	-155.253374
29777	9.583337	-0.247757	-2.315284	0.011446	0.089782	0.049061	1.000000	-0.000003	0.000013	0.000029	-171.996062	-76.629619	-155.268490
29778	9.571105	-0.283234	-2.274832	-0.000473	0.039572	0.029038	1.000000	0.000007	0.000010	0.000040	-171.989242	-76.626422	-155.275884
29779	9.579389	-0.262027	-2.267776	-0.019493	0.053749	0.034794	1.000000	0.000010	0.000026	0.000037	-171.968768	-76.628799	-155.295758
29780	9.569195	-0.291217	-2.250679	-0.016516	0.020996	0.021902	1.000000	0.000017	0.000008	0.000040	-171.960758	-76.622773	-155.301376
29781	9.587723	-0.241579	-2.260442	-0.039269	0.066981	0.040554	1.000000	0.000008	0.000022	0.000031	-171.943606	-76.624675	-155.318007
29782	9.573415	-0.279855	-2.296733	0.013963	0.055133	0.036188	1.000000	0.000031	0.000039	0.000034	-171.945740	-76.625256	-155.309885
29783	9.602588	-0.273584	-2.266463	-0.020369	0.042495	0.057428	1.000000	0.000007	0.000003	0.000045	-171.923369	-76.624814	-155.331988
29784	9.579731	-0.265874	-2.265885	-0.019903	0.050847	0.034809	1.000000	0.000008	0.000022	0.000031	-171.930053	-76.627353	-155.324629
29785	9.602734	-0.274976	-2.265677	-0.019902	0.041660	0.057433	1.000000	0.000001	0.000034	0.000032	-171.912311	-76.630603	-155.342697
29786	9.584012	-0.254244	-2.311783	0.010742	0.085184	0.049102	1.000000	-0.000003	0.000019	0.000025	-171.920958	-76.630424	-155.333894
29787	9.569735	-0.296040	-2.247753	-0.016153	0.018101	0.021908	1.000000	0.000017	0.000014	0.000036	-171.901289	-76.631346	-155.352003
29788	9.582069	-0.262059	-2.287770	-0.005096	0.066252	0.041966	1.000000	0.000017	0.000008	0.000040	-171.903688	-76.625666	-155.343371
29789	9.580067	-0.269240	-2.264065	-0.020419	0.048598	0.034819	1.000000	0.000008	0.000016	0.000036	-171.885018	-76.626703	-155.361505
29790	9.603006	-0.278354	-2.264114	-0.020053	0.038655	0.057445	1.000000	-0.000003	0.000013	0.000029	-171.891606	-76.627744	-155.356920
29791	9.580127	-0.270549	-2.263654	-0.020084	0.047815	0.034824	1.000000	0.000034	0.000000	0.000034	-171.871852	-76.627064	-155.373090
29792	9.603084	-0.279706	-2.263613	-0.020131	0.037706	0.057448	1.000000	-0.000018	0.000037	0.000033	-171.876325	-76.628209	-155.369871
29793	9.580270	-0.272024	-2.262873	-0.020165	0.046867	0.034828	1.000000	0.000018	0.000006	0.000051	-171.849817	-76.627908	-155.394845
29794	9.572082	-0.294973	-2.269220	-0.001446	0.031717	0.029066	1.000000	0.000011	0.000031	0.000043	-171.844931	-76.626648	-155.396837
29795	9.553345	-0.274555	-2.315468	0.029111	0.076139	0.020752	1.000000	0.000017	0.000008	0.000040	-171.823614	-76.626676	-155.416598
29796	9.582481	-0.268286	-2.285321	-0.005623	0.062607	0.041990	1.000000	0.000000	0.000022	0.000042	-171.817937	-76.624059	-155.421797
29797	9.603375	-0.284061	-2.261835	-0.020946	0.035760	0.057454	1.000000	0.000018	0.000012	0.000046	-171.793136	-76.624434	-155.444932
29798	9.584623	-0.263816	-2.308175	0.009916	0.079508	0.049150	1.000000	0.000020	0.000017	0.000053	-171.783569	-76.625255	-155.453131
29799	9.578507	-0.283862	-2.237526	-0.036011	0.026591	0.027683	1.000000	-0.000004	0.000007	0.000034	-171.767505	-76.625236	-155.469895
29800	9.580573	-0.278190	-2.260840	-0.020479	0.043365	0.034843	1.000000	0.000007	0.000010	0.000040	-171.768887	-76.624844	-155.467454
29801	9.555678	-0.276924	-2.236776	-0.035822	0.034899	0.005069	1.000000	0.000019	0.000018	0.000042	-171.745893	-76.626004	-155.488685
29802	9.580688	-0.279875	-2.260143	-0.020482	0.042265	0.034848	1.000000	0.000019	0.000025	0.000037	-171.749214	-76.625753	-155.479190
29803	9.582813	-0.274242	-2.283223	-0.005220	0.059863	0.042007	1.000000	0.000008	0.000016	0.000036	-171.730667	-76.626690	-155.497122
29804	9.582853	-0.274917	-2.282974	-0.004680	0.058663	0.042015	1.000000	0.000016	0.000010	0.000029	-171.747559	-76.627314	-155.473416
29805	9.557952	-0.273493	-2.258953	-0.020018	0.050190	0.012239	1.000000	0.000017	0.000014	0.000036	-171.728288	-76.628074	-155.490948
29806	9.582929	-0.276289	-2.282489	-0.003931	0.057636	0.042021	1.000000	0.000006	0.000011	0.000029	-171.743680	-76.630662	-155.472395
29807	9.597604	-0.307554	-2.289154	0.015097	0.034231	0.058859	1.000000	0.000011	0.000024	0.000048	-171.718630	-76.632435	-155.496570
29808	9.593399	-0.249511	-2.298463	-0.006675	0.088699	0.054966	1.000000	0.000008	0.000022	0.000031	-171.727780	-76.638174	-155.487141
29809	9.589348	-0.263127	-2.251125	-0.037270	0.053392	0.040645	1.000000	0.000011	0.000018	0.000053	-171.701083	-76.639239	-155.513065
29810	9.583190	-0.279621	-2.280984	-0.002881	0.056004	0.042031	1.000000	0.000017	0.000014	0.000036	-171.701611	-76.638516	-155.509695
29811	9.585307	-0.274060	-2.304138	0.012404	0.073590	0.049193	1.000000	0.000019	0.000018	0.000042	-171.679206	-76.639757	-155.530236
29812	9.568699	-0.250837	-2.273295	-0.023016	0.078607	0.025203	1.000000	0.000019	0.000018	0.000042	-171.660833	-76.633644	-155.547993
29813	9.556350	-0.286371	-2.232715	-0.034594	0.029143	0.005092	1.000000	0.000008	0.000016	0.000036	-171.642626	-76.634601	-155.565515
29814	9.560528	-0.274430	-2.279375	-0.004005	0.062851	0.019433	1.000000	0.000009	0.000014	0.000046	-171.654476	-76.631707	-155.544308
29815	9.581379	-0.290160	-2.255914	-0.019300	0.035954	0.034876	1.000000	0.000008	0.000016	0.000036	-171.636497	-76.632629	-155.561528
29816	9.560637	-0.276010	-2.278727	-0.003584	0.062225	0.019437	1.000000	0.000000	0.000022	0.000042	-171.632743	-76.635404	-155.568988
29817	9.583559	-0.285342	-2.278724	-0.003585	0.052961	0.042047	1.000000	0.000007	0.000010	0.000040	-171.613019	-76.635578	-155.588064
29818	9.558646	-0.283972	-2.254718	-0.018633	0.043253	0.012275	1.000000	0.000017	0.000014	0.000036	-171.625627	-76.634897	-155.566479
29819	9.583615	-0.286844	-2.278300	-0.003342	0.051611	0.042055	1.000000	0.000006	0.000005	0.000034	-171.609526	-76.634671	-155.581984
29820	9.569033	-0.257126	-2.271184	-0.022445	0.074144	0.025239	1.000000	0.000026	0.000006	0.000040	-171.605558	-76.632465	-155.581679
29821	9.604452	-0.303408	-2.254742	-0.018673	0.023868	0.057494	1.000000	0.000009	0.000020	0.000042	-171.584321	-76.633779	-155.602017
29822	9.569129	-0.258791	-2.270590	-0.022726	0.073551	0.025243	1.000000	0.000017	0.000014	0.000036	-171.573802	-76.632092	-155.613011
29823	9.558800	-0.287996	-2.253553	-0.019004	0.041711	0.012281	1.000000	0.000018	0.000012	0.000046	-171.549788	-76.632421	-155.635157
29824	9.596225	-0.256252	-2.317356	0.007586	0.098490	0.062209	1.000000	0.000016	0.000010	0.000029	-171.554732	-76.629151	-155.625275
29825	9.592128	-0.269886	-2.270043	-0.023016	0.063162	0.047857	1.000000	0.000022	0.000027	0.000054	-171.525616	-76.630997	-155.652201
29826	9.581848	-0.299169	-2.252744	-0.018951	0.030075	0.034896	1.000000	0.000010	0.000026	0.000037	-171.538349	-76.631893	-155.630903
29827	9.590189	-0.277944	-2.245755	-0.038018	0.044147	0.040687	1.000000	0.000015	0.000004	0.000034	-171.521458	-76.631399	-155.646047
29828	9.590217	-0.278746	-2.245536	-0.039333	0.043125	0.040687	1.000000	0.000019	0.000018	0.000042	-171.507766	-76.623278	-155.656041
29829	9.592366	-0.273241	-2.268635	-0.024098	0.060685	0.047870	1.000000	0.000009	0.000020	0.000042	-171.486564	-76.624428	-155.676253
29830	9.569561	-0.265469	-2.267999	-0.022934	0.069585	0.025271	1.000000	0.000008	0.000016	0.000036	-171.487367	-76.631163	-155.679095
29831	9.561312	-0.288146	-2.274390	-0.003929	0.055373	0.019478	1.000000	0.000008	0.000016	0.000036	-171.469640	-76.631995	-155.695965
29832	9.592517	-0.275417	-2.267732	-0.022668	0.059127	0.047882	1.000000	0.000016	0.000010	0.000029	-171.482772	-76.631315	-155.674989
29833	9.594604	-0.269771	-2.291132	-0.007420	0.076685	0.055066	1.000000	0.000015	-0.000003	0.000039	-171.464223	-76.630016	-155.691857
29834	9.563465	-0.283870	-2.297337	0.012281	0.070737	0.026675	1.000000	-0.000001	0.000024	0.000031	-171.479107	-76.633363	-155.672482
29835	9.580130	-0.240563	-2.283657	-0.025829	0.098931	0.038272	1.000000	-0.000004	0.000007	0.000034	-171.464307	-76.633244	-155.687642
29836	9.594718	-0.271763	-2.290419	-0.006211	0.074661	0.055082	1.000000	0.000008	0.000016	0.000036	-171.471756	-76.635208	-155.676681
29837	9.540725	-0.277354	-2.296300	0.012750	0.078914	0.004082	1.000000	0.000007	0.000010	0.000040	-171.452673	-76.635306	-155.694932
29838	9.592678	-0.279548	-2.266547	-0.021986	0.055417	0.047905	1.000000	0.000014	0.000005	0.000023	-171.469868	-76.629335	-155.668562
29839	9.594852	-0.273835	-2.289614	-0.006738	0.072962	0.055095	1.000000	0.000012	0.000037	0.000039	-171.449246	-76.632474	-155.687798
29840	9.597006	-0.268274	-2.312756	0.007702	0.089245	0.062297	1.000000	0.000015	-0.000003	0.000039	-171.451839	-76.623869	-155.676449
29841	9.572067	-0.266829	-2.288836	-0.007638	0.080751	0.032507	1.000000	0.000027	0.000018	0.000031	-171.434575	-76.625001	-155.690411
29842	9.572150	-0.267459	-2.288414	-0.007188	0.079908	0.032515	1.000000	-0.000011	0.000025	0.000031	-171.443268	-76.627727	-155.681996
29843	9.570137	-0.274429	-2.264501	-0.022494	0.062172	0.025322	1.000000	0.000018	0.000020	0.000031	-171.427000	-76.629066	-155.696037
29844	9.572287	-0.268806	-2.287687	-0.007267	0.079309	0.032519	1.000000	0.000007	0.000010	0.000040	-171.417196	-76.628007	-155.708326
29845	9.568109	-0.282225	-2.240529	-0.037846	0.043939	0.018130	1.000000	0.000006	0.000011	0.000029	-171.403498	-76.628373	-155.721090
29846	9.570256	-0.276518	-2.263743	-0.020245	0.061259	0.025332	1.000000	0.000008	0.000016	0.000036	-171.416046	-76.641277	-155.710486
29847	9.580724	-0.249049	-2.280253	-0.024031	0.092928	0.038335	1.000000	0.000018	0.000012	0.000046	-171.392914	-76.641587	-155.731541
29848	9.570352	-0.278163	-2.263135	-0.018827	0.060637	0.025339	1.000000	0.000008	0.000022	0.000031	-171.402747	-76.649930	-155.722786
29849	9.593257	-0.287463	-2.263103	-0.018786	0.051299	0.047934	1.000000	0.000007	0.000010	0.000040	-171.384090	-76.650119	-155.740565
29850	9.572587	-0.273258	-2.285901	-0.002553	0.077210	0.032538	1.000000	0.000010	0.000032	0.000032	-171.397964	-76.656262	-155.723083
29851	9.603856	-0.260672	-2.279017	-0.021546	0.081989	0.060951	1.000000	-0.000000	0.000016	0.000046	-171.376927	-76.657074	-155.744209
29852	9.593456	-0.289723	-2.261972	-0.017632	0.049344	0.047946	1.000000	0.000006	0.000011	0.000029	-171.383205	-76.656501	-155.735499
29853	9.572760	-0.275431	-2.284917	-0.002391	0.076136	0.032547	1.000000	0.000008	0.000016	0.000036	-171.366478	-76.657501	-155.751224
29854	9.593548	-0.291096	-2.261402	-0.018319	0.048343	0.047950	1.000000	0.000008	0.000016	0.000036	-171.360958	-76.652766	-155.756281
29855	9.570738	-0.283348	-2.260859	-0.018358	0.057500	0.025359	1.000000	0.000018	0.000012	0.000046	-171.338073	-76.653138	-155.777068
29856	9.597879	-0.279951	-2.307744	0.012840	0.082559	0.062349	1.000000	0.000016	0.000022	0.000020	-171.353515	-76.656280	-155.756141
29857	9.579176	-0.262872	-2.253554	-0.036787	0.070560	0.031188	1.000000	0.000018	0.000006	0.000051	-171.328997	-76.655897	-155.778644
29858	9.604177	-0.266071	-2.277038	-0.022132	0.078688	0.060976	1.000000	0.000010	0.000020	0.000042	-171.305247	-76.653271	-155.808500
29859	9.570915	-0.286596	-2.259698	-0.018399	0.056095	0.025367	1.000000	0.000007	0.000010	0.000040	-171.286677	-76.653433	-155.826167
29860	9.573068	-0.281026	-2.282943	-0.003019	0.073058	0.032570	1.000000	0.000017	0.000014	0.000036	-171.283264	-76.653359	-155.830110
29861	9.595962	-0.290370	-2.282914	-0.002977	0.063703	0.055161	1.000000	0.000008	0.000016	0.000036	-171.266423	-76.654294	-155.845953
29862	9.579380	-0.266926	-2.252207	-0.037217	0.069433	0.031194	1.000000	0.000027	0.000012	0.000035	-171.246985	-76.655638	-155.870059
29863	9.575356	-0.276934	-2.305460	0.012377	0.090486	0.039771	1.000000	0.000001	0.000028	0.000037	-171.229180	-76.657939	-155.887797
29864	9.583815	-0.255786	-2.298208	-0.007507	0.103956	0.045600	1.000000	0.000012	0.000031	0.000043	-171.211165	-76.654593	-155.905451
29865	9.571303	-0.291224	-2.257461	-0.019019	0.054483	0.025374	1.000000	0.000027	0.000018	0.000031	-171.193938	-76.655879	-155.919470
29866	9.573503	-0.285635	-2.280547	-0.002309	0.071569	0.032581	1.000000	0.000000	0.000022	0.000042	-171.199744	-76.664002	-155.916974
29867	9.584048	-0.258105	-2.296976	-0.006076	0.103234	0.045609	1.000000	0.000008	0.000016	0.000036	-171.182731	-76.664968	-155.933055
29868	9.573602	-0.287156	-2.279940	-0.002334	0.070510	0.032589	1.000000	0.000007	0.000010	0.000040	-171.184132	-76.662910	-155.927603
29869	9.602692	-0.281044	-2.249796	-0.036609	0.057642	0.053802	1.000000	0.000009	0.000014	0.000046	-171.161967	-76.663473	-155.948819
29870	9.559233	-0.258344	-2.272292	-0.020380	0.092933	0.015840	1.000000	0.000021	0.000035	0.000039	-171.169455	-76.670286	-155.937998
29871	9.575901	-0.283303	-2.302420	0.013996	0.087088	0.039799	1.000000	0.000004	-0.000005	0.000033	-171.156093	-76.668959	-155.950800
29872	9.582162	-0.268379	-2.272004	-0.020340	0.082470	0.038437	1.000000	0.000020	0.000031	0.000032	-171.161437	-76.669164	-155.940897
29873	9.580095	-0.275479	-2.248133	-0.035603	0.064742	0.031232	1.000000	0.000007	0.000010	0.000040	-171.142940	-76.669366	-155.958513
29874	9.607233	-0.272230	-2.295152	-0.005912	0.089493	0.068239	1.000000	0.000007	0.000010	0.000040	-171.141557	-76.662042	-155.952819
29875	9.553242	-0.277739	-2.301054	0.013046	0.093827	0.017238	1.000000	0.000010	0.000020	0.000042	-171.121340	-76.663343	-155.971923
29876	9.582354	-0.271656	-2.270804	-0.020635	0.080336	0.038454	1.000000	0.000009	0.000014	0.000046	-171.119257	-76.665638	-155.972143
29877	9.561703	-0.257530	-2.293763	-0.005409	0.107143	0.023080	1.000000	0.000017	0.000014	0.000036	-171.101623	-76.666383	-155.987687
29878	9.574099	-0.295199	-2.276824	-0.001355	0.065134	0.032626	1.000000	0.000010	0.000026	0.000037	-171.106063	-76.667566	-155.979176
29879	9.582531	-0.274125	-2.269761	-0.020400	0.079139	0.038464	1.000000	0.000019	0.000012	0.000046	-171.083300	-76.667918	-155.999832
29880	9.582560	-0.274929	-2.269543	-0.020286	0.077202	0.038479	1.000000	0.000016	0.000010	0.000029	-171.112881	-76.664595	-155.956130
29881	9.580450	-0.281770	-2.245840	-0.035543	0.059452	0.031266	1.000000	0.000005	0.000013	0.000019	-171.105164	-76.665514	-155.962851
29882	9.582661	-0.276025	-2.268984	-0.020315	0.075976	0.038489	1.000000	0.000000	0.000022	0.000042	-171.108877	-76.664444	-155.955157
29883	9.562024	-0.261872	-2.291934	-0.005102	0.102780	0.023127	1.000000	0.000017	0.000008	0.000040	-171.089914	-76.664372	-155.972017
29884	9.574354	-0.299506	-2.275189	0.015970	-0.020289	0.032808	1.000000	0.000006	0.000011	0.000029	-173.142617	-76.553609	-154.177902
29885	9.591116	-0.256397	-2.261688	-0.021871	0.007131	0.044794	1.000000	0.000016	0.000002	0.000045	-173.139204	-76.551921	-154.180855
29886	9.582747	-0.279097	-2.268241	-0.002670	-0.007796	0.038799	1.000000	0.000006	0.000011	0.000029	-173.144330	-76.551832	-154.175990
29887	9.584964	-0.273460	-2.291371	0.012817	0.008912	0.046139	1.000000	0.000019	0.000024	0.000037	-173.143002	-76.552836	-154.176451
29888	9.560070	-0.271770	-2.267200	-0.002433	0.000046	0.016300	1.000000	0.000016	0.000022	0.000020	-173.150534	-76.553722	-154.165196
29889	9.570681	-0.244262	-2.283606	-0.005943	0.030868	0.029643	1.000000	0.000011	0.000018	0.000053	-173.143130	-76.553813	-154.172916
29890	9.583014	-0.282108	-2.266741	-0.002089	-0.011057	0.038796	1.000000	0.000027	0.000012	0.000036	-173.142162	-76.553370	-154.173027
29891	9.560215	-0.274256	-2.266288	-0.002000	-0.002384	0.016300	1.000000	0.000007	0.000010	0.000040	-173.141526	-76.552638	-154.174181
29892	9.585215	-0.277327	-2.289857	0.013593	0.004840	0.046141	1.000000	0.000006	0.000005	0.000034	-173.144632	-76.551738	-154.172672
29893	9.583071	-0.284481	-2.266202	-0.001594	-0.013490	0.038793	1.000000	0.000019	0.000012	0.000046	-173.139656	-76.551222	-154.176984
29894	9.589331	-0.269658	-2.235807	-0.035785	-0.017703	0.037451	1.000000	0.000006	0.000011	0.000029	-173.144074	-76.550796	-154.173599
29895	9.585345	-0.279760	-2.289016	0.014035	0.002403	0.046141	1.000000	0.000023	0.000033	0.000049	-173.135975	-76.552623	-154.180627
29896	9.568836	-0.256204	-2.258173	-0.020167	0.007736	0.022308	1.000000	0.000005	0.000013	0.000019	-173.145045	-76.552929	-154.181374
29897	9.560478	-0.278726	-2.264634	-0.001026	-0.007189	0.016298	1.000000	0.000007	0.000010	0.000040	-173.144407	-76.552197	-154.182528
29898	9.571096	-0.251273	-2.281101	-0.004560	0.023623	0.029663	1.000000	0.000019	0.000024	0.000037	-173.142723	-76.553018	-154.182974
29899	9.571157	-0.251989	-2.280767	-0.004410	0.022811	0.029665	1.000000	0.000016	0.000010	0.000029	-173.146337	-76.552437	-154.178796
29900	9.583453	-0.289586	-2.263942	-0.000536	-0.019128	0.038784	1.000000	0.000008	0.000016	0.000036	-173.147699	-76.552518	-154.178156
29901	9.585682	-0.284047	-2.287076	0.014956	-0.002432	0.046140	1.000000	0.000010	0.000020	0.000042	-173.145500	-76.552957	-154.180668
29902	9.585718	-0.284809	-2.286829	0.015078	-0.003246	0.046139	1.000000	0.000006	0.000005	0.000034	-173.147959	-76.551664	-154.178550
29903	9.571376	-0.254944	-2.279520	-0.003826	0.019561	0.029673	1.000000	0.000012	0.000037	0.000039	-173.146022	-76.554034	-154.180494
29904	9.592119	-0.270527	-2.255780	-0.019007	-0.008280	0.044799	1.000000	0.000005	0.000013	0.000019	-173.155492	-76.553691	-154.170097
29905	9.563096	-0.278177	-2.285529	0.015412	0.003814	0.023653	1.000000	0.000018	0.000006	0.000051	-173.148686	-76.552415	-154.176340
29906	9.563145	-0.279085	-2.285213	0.015522	0.003006	0.023653	1.000000	0.000010	0.000026	0.000037	-173.147789	-76.553412	-154.179143
29907	9.571632	-0.257874	-2.278115	-0.003318	0.016305	0.029679	1.000000	-0.000001	0.000017	0.000036	-173.149930	-76.553635	-154.178496
29908	9.592333	-0.273570	-2.254502	-0.018418	-0.011535	0.044797	1.000000	0.000027	0.000018	0.000031	-173.151489	-76.554159	-154.174451
29909	9.569584	-0.265664	-2.253906	-0.018333	-0.002829	0.022315	1.000000	0.000010	0.000020	0.000042	-173.149287	-76.554597	-154.176965
29910	9.592436	-0.275112	-2.253876	-0.018122	-0.013145	0.044796	1.000000	0.000006	0.000005	0.000034	-173.151649	-76.553473	-154.179069
29911	9.586254	-0.291461	-2.283745	0.016361	-0.010567	0.046132	1.000000	0.000019	0.000024	0.000037	-173.150313	-76.554475	-154.179533
29912	9.584154	-0.298491	-2.259811	0.001160	-0.028864	0.038760	1.000000	0.000008	0.000022	0.000031	-173.152900	-76.555275	-154.180490
29913	9.594864	-0.270883	-2.276077	-0.002332	0.001931	0.052165	1.000000	0.000001	0.000034	0.000032	-173.155304	-76.557429	-154.179272
29914	9.572118	-0.262865	-2.275501	-0.002308	0.010642	0.029687	1.000000	0.000015	0.000003	0.000034	-173.156525	-76.555757	-154.175988
29915	9.594956	-0.272280	-2.275523	-0.002092	0.000299	0.052165	1.000000	0.000008	0.000016	0.000036	-173.157707	-76.555784	-154.175219
29916	9.580630	-0.242336	-2.268271	-0.021006	0.023132	0.035728	1.000000	0.000008	0.000022	0.000031	-173.160463	-76.556533	-154.173715
29917	9.592903	-0.280026	-2.251283	-0.017149	-0.018818	0.044788	1.000000	0.000019	0.000018	0.000042	-173.157300	-76.556775	-154.176108
29918	9.592977	-0.280868	-2.250862	-0.017021	-0.019631	0.044787	1.000000	0.000019	0.000024	0.000037	-173.155720	-76.557659	-154.176560
29919	9.572431	-0.266617	-2.273746	-0.001590	0.006588	0.029691	1.000000	0.000008	0.000016	0.000036	-173.156901	-76.557686	-154.175792
29920	9.580893	-0.245458	-2.266823	-0.020462	0.019906	0.035736	1.000000	0.000008	0.000010	0.000040	-173.155386	-76.556814	-154.182340
29921	9.595310	-0.276761	-2.273487	-0.001260	-0.004556	0.052164	1.000000	-0.000003	0.000013	0.000029	-173.160911	-76.556626	-154.178410
29922	9.564111	-0.290737	-2.279712	0.017831	-0.009940	0.023644	1.000000	0.000019	0.000012	0.000046	-173.156301	-76.556204	-154.180755
29923	9.583193	-0.241481	-2.289627	-0.004643	0.034953	0.043125	1.000000	0.000008	0.000010	0.000040	-173.155656	-76.555471	-154.181915
29924	9.595408	-0.279179	-2.272777	-0.000748	-0.006994	0.052162	1.000000	0.000008	0.000016	0.000036	-173.157060	-76.555731	-154.184009
29925	9.564203	-0.293169	-2.279017	0.018319	-0.012366	0.023641	1.000000	0.000017	0.000008	0.000040	-173.155456	-76.554802	-154.185047
29926	9.601701	-0.265156	-2.242167	-0.034760	-0.011996	0.050827	1.000000	0.000017	0.000014	0.000036	-173.155762	-76.554771	-154.185841
29927	9.574934	-0.266530	-2.295229	0.015008	0.017611	0.037081	1.000000	0.000019	0.000024	0.000037	-173.154421	-76.555771	-154.186307
29928	9.572776	-0.273763	-2.271443	-0.000154	-0.000668	0.029693	1.000000	0.000018	0.000006	0.000051	-173.147568	-76.554749	-154.198300
29929	9.581256	-0.252693	-2.264496	-0.018987	0.012628	0.035751	1.000000	0.000008	0.000022	0.000031	-173.150571	-76.555535	-154.195605
29930	9.587251	-0.305899	-2.277662	0.019161	-0.025960	0.046098	1.000000	-0.000001	0.000017	0.000036	-173.152408	-76.555570	-154.195169
29931	9.575145	-0.269765	-2.293972	0.015614	0.014376	0.037086	1.000000	0.000009	0.000014	0.000046	-173.148375	-76.555249	-154.199614
29932	9.581424	-0.254977	-2.263527	-0.018569	0.010188	0.035754	1.000000	0.000008	0.000016	0.000036	-173.149575	-76.555286	-154.199239
29933	9.573029	-0.277630	-2.269910	0.000562	-0.004731	0.029692	1.000000	0.000017	0.000014	0.000036	-173.149793	-76.555115	-154.198351
29934	9.604331	-0.265417	-2.263071	-0.018217	-0.001031	0.058219	1.000000	0.000013	0.000023	0.000059	-173.139381	-76.555461	-154.202274
29935	9.593716	-0.294455	-2.245971	-0.014437	-0.033430	0.044754	1.000000	0.000005	0.000007	0.000023	-173.147332	-76.554664	-154.194939
29936	9.581648	-0.258102	-2.262224	-0.017962	0.006916	0.035758	1.000000	0.000020	0.000031	0.000032	-173.147969	-76.556573	-154.194569
29937	9.573259	-0.280901	-2.268535	0.001171	-0.007999	0.029690	1.000000	0.000018	0.000006	0.000051	-173.141150	-76.555295	-154.200821
29938	9.573296	-0.281832	-2.268263	0.001316	-0.008802	0.029689	1.000000	0.000000	0.000022	0.000042	-173.139650	-76.555930	-154.205426
29939	9.604617	-0.269483	-2.261376	-0.017445	-0.005086	0.058219	1.000000	0.000010	0.000020	0.000042	-173.137438	-76.556368	-154.207944
29940	9.573446	-0.283477	-2.267425	0.001633	-0.010412	0.029687	1.000000	0.000019	0.000024	0.000037	-173.135968	-76.557503	-154.212375
29941	9.571265	-0.290616	-2.243666	-0.013573	-0.028700	0.022281	1.000000	0.000007	0.000003	0.000045	-173.133495	-76.556010	-154.215464
29942	9.575725	-0.278856	-2.290461	0.017330	0.005439	0.037092	1.000000	0.000017	0.000014	0.000036	-173.134178	-76.556055	-154.212345
29943	9.579832	-0.270310	-2.236329	-0.032211	-0.016222	0.028355	1.000000	0.000012	0.000037	0.000039	-173.132225	-76.558423	-154.214294
29944	9.559360	-0.255859	-2.259149	-0.016755	0.010010	0.013309	1.000000	0.000005	0.000013	0.000019	-173.142553	-76.558480	-154.198719
29945	9.607207	-0.267654	-2.282779	-0.001104	0.007503	0.065627	1.000000	0.000008	0.000010	0.000040	-173.141903	-76.557747	-154.199882
29946	9.561666	-0.251004	-2.282140	-0.001107	0.025868	0.020722	1.000000	0.000019	0.000018	0.000042	-173.138567	-76.557973	-154.202183
29947	9.576050	-0.282464	-2.288659	0.018099	0.001370	0.037092	1.000000	0.000008	0.000016	0.000036	-173.139741	-76.557999	-154.201417
29948	9.590812	-0.245722	-2.251487	-0.035042	0.011311	0.041849	1.000000	0.000010	0.000020	0.000042	-173.137169	-76.558636	-154.211677
29949	9.584622	-0.262165	-2.281353	-0.000556	0.013869	0.043179	1.000000	0.000008	0.000010	0.000040	-173.136517	-76.557903	-154.212839
29950	9.582409	-0.269281	-2.257695	-0.015749	-0.004432	0.035764	1.000000	0.000017	0.000008	0.000040	-173.135428	-76.557000	-154.208096
29951	9.582458	-0.270190	-2.257378	-0.015599	-0.005244	0.035763	1.000000	0.000011	0.000024	0.000048	-173.129824	-76.557848	-154.213902
29952	9.561971	-0.255819	-2.280323	-0.000126	0.021012	0.020734	1.000000	0.000005	0.000013	0.000019	-173.140070	-76.558036	-154.203899
29953	9.605366	-0.280259	-2.256883	-0.015181	-0.016470	0.058210	1.000000	0.000019	0.000018	0.000042	-173.136893	-76.558275	-154.206299
29954	9.553631	-0.279260	-2.286255	0.019174	0.005287	0.014643	1.000000	0.000002	0.000026	0.000048	-173.132663	-76.559414	-154.209156
29955	9.582704	-0.273380	-2.255947	-0.014935	-0.008503	0.035762	1.000000	0.000009	0.000008	0.000051	-173.126797	-76.558333	-154.215533
29956	9.591217	-0.252432	-2.249020	-0.033747	0.004772	0.041859	1.000000	0.000019	0.000018	0.000042	-173.123934	-76.558654	-154.215802
29957	9.578796	-0.284473	-2.308994	0.035075	0.010710	0.044511	1.000000	0.000008	0.000016	0.000036	-173.125105	-76.558680	-154.215037
29958	9.560077	-0.267209	-2.254795	-0.014536	-0.001333	0.013317	1.000000	0.000011	0.000024	0.000048	-173.119538	-76.559583	-154.221437
29959	9.585156	-0.270419	-2.278146	0.001048	0.005711	0.043187	1.000000	0.000005	0.000007	0.000023	-173.127488	-76.558787	-154.214101
29960	9.576733	-0.292740	-2.284504	0.020178	-0.009190	0.037084	1.000000	-0.000002	0.000025	0.000020	-173.136575	-76.560130	-154.207504
29961	9.585270	-0.271559	-2.277531	0.001349	0.004089	0.043187	1.000000	0.000018	0.000006	0.000051	-173.129745	-76.558850	-154.213764
29962	9.603609	-0.293786	-2.230397	-0.029132	-0.041273	0.050767	1.000000	0.000001	0.000028	0.000037	-173.130422	-76.560255	-154.213223
29963	9.599690	-0.303865	-2.283628	0.020711	-0.021250	0.059519	1.000000	0.000017	0.000014	0.000036	-173.130631	-76.560082	-154.212340
29964	9.556443	-0.280722	-2.306432	0.036072	0.014648	0.022073	1.000000	0.000008	0.000022	0.000031	-173.133557	-76.560961	-154.211308
29965	9.602077	-0.299024	-2.306355	0.036382	-0.005409	0.066949	1.000000	0.000010	0.000020	0.000042	-173.131336	-76.561398	-154.213831
29966	9.574855	-0.303493	-2.258870	0.005729	-0.031524	0.029641	1.000000	0.000016	0.000016	0.000025	-173.136734	-76.561526	-154.205686
29967	9.583420	-0.282269	-2.251809	-0.013099	-0.018247	0.035752	1.000000	0.000020	0.000024	0.000037	-173.135376	-76.562524	-154.206161
29968	9.575026	-0.305006	-2.257940	0.006026	-0.033139	0.029635	1.000000	0.000012	0.000031	0.000043	-173.131355	-76.564138	-154.210564
29969	9.579618	-0.293173	-2.304491	0.036892	0.000968	0.044510	1.000000	-0.000003	0.000013	0.000029	-173.136876	-76.563951	-154.206632
29970	9.585895	-0.278230	-2.274090	0.002712	-0.003214	0.043187	1.000000	0.000027	0.000012	0.000036	-173.136144	-76.563621	-154.203245
29971	9.565445	-0.263775	-2.297067	0.018138	0.023065	0.028196	1.000000	0.000007	0.000024	0.000020	-173.144354	-76.564753	-154.195335
29972	9.558738	-0.283161	-2.226230	-0.027777	-0.030118	0.005870	1.000000	0.000008	0.000016	0.000036	-173.145549	-76.564836	-154.193184
29973	9.586078	-0.280065	-2.273094	0.003172	-0.005650	0.043186	1.000000	0.000006	0.000011	0.000029	-173.150107	-76.564450	-154.189134
29974	9.586141	-0.280762	-2.272745	0.003332	-0.006438	0.043186	1.000000	0.000020	0.000024	0.000037	-173.148280	-76.565569	-154.195756
29975	9.571922	-0.250790	-2.265620	-0.015577	0.016477	0.026881	1.000000	-0.000004	0.000007	0.000034	-173.151974	-76.564623	-154.193755
29976	9.588446	-0.275935	-2.295881	0.018992	0.009407	0.050632	1.000000	0.000015	-0.000003	0.000039	-173.151506	-76.562561	-154.197009
29977	9.563414	-0.274085	-2.272138	0.003698	0.000786	0.020756	1.000000	-0.000003	0.000013	0.000029	-173.157025	-76.562374	-154.193078
29978	9.588523	-0.277271	-2.295399	0.019294	0.007776	0.050632	1.000000	0.000010	0.000026	0.000037	-173.156775	-76.563569	-154.188814
29979	9.574328	-0.247252	-2.288219	0.000383	0.030695	0.034337	1.000000	0.000006	0.000011	0.000029	-173.161332	-76.563183	-154.184766
29980	9.565864	-0.269798	-2.294622	0.019522	0.015802	0.028207	1.000000	0.000008	0.000016	0.000036	-173.162554	-76.563280	-154.183600
29981	9.603434	-0.241833	-2.257665	-0.033556	0.016053	0.055448	1.000000	0.000017	0.000014	0.000036	-173.162757	-76.563106	-154.182721
29982	9.561426	-0.283875	-2.247027	-0.010914	-0.020723	0.013300	1.000000	0.000010	0.000020	0.000042	-173.160370	-76.563471	-154.184267
29983	9.599556	-0.252864	-2.310739	0.016428	0.035243	0.064226	1.000000	0.000007	0.000003	0.000045	-173.157881	-76.561978	-154.187368
29984	9.563736	-0.279239	-2.270153	0.004744	-0.004899	0.020754	1.000000	0.000016	0.000010	0.000029	-173.161557	-76.561371	-154.180556
29985	9.588849	-0.282547	-2.293394	0.020341	0.002080	0.050633	1.000000	0.000012	0.000031	0.000043	-173.157766	-76.562978	-154.184437
29986	9.563885	-0.280819	-2.269328	0.005057	-0.006515	0.020753	1.000000	0.000017	0.000014	0.000036	-173.157958	-76.562891	-154.185521
29987	9.566218	-0.275293	-2.292494	0.020567	0.010122	0.028213	1.000000	0.000027	0.000018	0.000031	-173.159022	-76.563276	-154.182595
29988	9.597572	-0.263006	-2.285597	0.001837	0.013735	0.056776	1.000000	0.000010	0.000020	0.000042	-173.156615	-76.563773	-154.188837
29989	9.597629	-0.263811	-2.285264	0.001987	0.012921	0.056777	1.000000	0.000017	0.000014	0.000036	-173.156816	-76.563598	-154.187960
29990	9.572628	-0.262011	-2.261360	-0.013309	0.004339	0.026897	1.000000	0.000017	0.000014	0.000036	-173.156881	-76.563465	-154.190174
29991	9.564140	-0.284764	-2.267762	0.005814	-0.010553	0.020749	1.000000	0.000019	0.000012	0.000046	-173.151862	-76.562943	-154.194515
29992	9.595438	-0.272469	-2.261109	-0.012899	-0.006951	0.049314	1.000000	0.000004	0.000001	0.000028	-173.158114	-76.561519	-154.191265
29993	9.575013	-0.258103	-2.284153	0.002528	0.019351	0.034366	1.000000	0.000012	0.000031	0.000043	-173.154321	-76.563126	-154.195146
29994	9.564278	-0.287067	-2.266892	0.006292	-0.012984	0.020746	1.000000	0.000017	0.000014	0.000036	-173.154648	-76.562980	-154.193620
29995	9.575151	-0.259729	-2.283387	0.002834	0.017724	0.034369	1.000000	0.000010	0.000020	0.000042	-173.152419	-76.563416	-154.196147
29996	9.595692	-0.275663	-2.259645	-0.012283	-0.010214	0.049312	1.000000	0.000010	0.000020	0.000042	-173.150421	-76.563888	-154.196710
29997	9.566744	-0.283260	-2.289326	0.022115	0.002015	0.028214	1.000000	0.000017	0.000014	0.000036	-173.150619	-76.563713	-154.195833
29998	9.564470	-0.290341	-2.265664	0.006896	-0.016235	0.020741	1.000000	0.000007	0.000003	0.000045	-173.148098	-76.562200	-154.198660
29999	9.595804	-0.278144	-2.258863	-0.011837	-0.012655	0.049310	1.000000	0.000020	0.000024	0.000037	-173.146730	-76.563195	-154.199139
30000	9.589614	-0.294577	-2.288676	0.022639	-0.010109	0.050623	1.000000	0.000008	0.000010	0.000040	-173.145954	-76.562392	-154.199009
30001	9.564641	-0.292706	-2.264638	0.007333	-0.018670	0.020736	1.000000	0.000001	0.000034	0.000032	-173.148338	-76.564547	-154.197790
30002	9.573259	-0.271477	-2.257571	-0.011503	-0.005396	0.026899	1.000000	0.000025	0.000008	0.000029	-173.150605	-76.563717	-154.196187
30003	9.589828	-0.296668	-2.287511	0.023075	-0.012542	0.050619	1.000000	0.000010	0.000026	0.000037	-173.150199	-76.564912	-154.196783
30004	9.587610	-0.303721	-2.263573	0.007864	-0.030777	0.043137	1.000000	0.000010	0.000020	0.000042	-173.147745	-76.565421	-154.203815
30005	9.587676	-0.304567	-2.263183	0.008014	-0.031590	0.043134	1.000000	0.000010	0.000020	0.000042	-173.145511	-76.565858	-154.206344
30006	9.573515	-0.274579	-2.256109	-0.010899	-0.008622	0.026897	1.000000	0.000016	0.000010	0.000029	-173.148934	-76.565281	-154.202287
30007	9.604874	-0.262269	-2.249241	-0.029627	-0.005058	0.055472	1.000000	0.000020	0.000024	0.000037	-173.147562	-76.566276	-154.202768
30008	9.575916	-0.269725	-2.279015	0.004767	0.007194	0.034381	1.000000	0.000004	0.000001	0.000028	-173.153437	-76.564731	-154.198563
30009	9.573671	-0.276648	-2.255193	-0.010452	-0.011047	0.026895	1.000000	-0.000007	0.000034	0.000043	-173.151565	-76.566739	-154.202678
30010	9.601118	-0.273815	-2.301843	0.020521	0.013304	0.064272	1.000000	0.000027	0.000012	0.000036	-173.150428	-76.566351	-154.203833
30011	9.582346	-0.256355	-2.247827	-0.029130	0.001417	0.033071	1.000000	0.000017	0.000014	0.000036	-173.150621	-76.566176	-154.202959
30012	9.582380	-0.257138	-2.247595	-0.028974	0.000610	0.033071	1.000000	0.000008	0.000010	0.000040	-173.149891	-76.565488	-154.204152
30013	9.587065	-0.245519	-2.294199	0.001917	0.034650	0.048055	1.000000	0.000021	0.000029	0.000043	-173.145124	-76.566894	-154.207922
30014	9.576231	-0.274421	-2.277134	0.005663	0.002346	0.034383	1.000000	0.000004	-0.000005	0.000033	-173.149217	-76.564594	-154.206247
30015	9.584784	-0.253355	-2.270406	-0.013154	0.015607	0.040566	1.000000	0.000019	0.000012	0.000046	-173.144190	-76.564070	-154.210593
30016	9.584861	-0.254200	-2.269987	-0.013004	0.014790	0.040568	1.000000	0.000020	0.000030	0.000032	-173.144723	-76.565821	-154.206160
30017	9.562161	-0.246092	-2.269597	-0.012948	0.023696	0.018173	1.000000	0.000015	-0.000003	0.000039	-173.144654	-76.563716	-154.205863
30018	9.562208	-0.246917	-2.269310	-0.012798	0.022885	0.018175	1.000000	0.000003	0.000032	0.000043	-173.141818	-76.565525	-154.209149
30019	9.596914	-0.293596	-2.252181	-0.008863	-0.028864	0.049279	1.000000	0.000000	0.000022	0.000042	-173.140544	-76.566162	-154.211795
30020	9.564679	-0.242304	-2.291979	0.002875	0.038687	0.025679	1.000000	0.000008	0.000010	0.000040	-173.139850	-76.565448	-154.213222
30021	9.601600	-0.282694	-2.298755	0.022183	0.004353	0.064276	1.000000	-0.000004	0.000001	0.000039	-173.141711	-76.563744	-154.213156
30022	9.585118	-0.259014	-2.268357	-0.012096	0.009908	0.040575	1.000000	0.000009	0.000014	0.000047	-173.137866	-76.563437	-154.214794
30023	9.574262	-0.287990	-2.251262	-0.008350	-0.022393	0.026878	1.000000	0.000027	0.000012	0.000036	-173.137091	-76.563060	-154.213806
30024	9.553901	-0.273589	-2.274307	0.007086	0.003951	0.011990	1.000000	0.000009	0.000022	0.000031	-173.140091	-76.563916	-154.213444
30025	9.597156	-0.298348	-2.250528	-0.007944	-0.033745	0.049264	1.000000	0.000012	0.000031	0.000043	-173.136283	-76.565521	-154.217331
30026	9.556401	-0.268954	-2.296874	0.022757	0.019750	0.019498	1.000000	0.000027	0.000012	0.000036	-173.135434	-76.565145	-154.216702
30027	9.608174	-0.271854	-2.266667	-0.011238	-0.003885	0.062967	1.000000	0.000008	0.000016	0.000036	-173.136587	-76.565169	-154.215945
30028	9.574553	-0.291788	-2.249534	-0.007597	-0.026441	0.026868	1.000000	0.000015	0.000003	0.000034	-173.138246	-76.563807	-154.214107
30029	9.587846	-0.258261	-2.289530	0.004334	0.021644	0.048091	1.000000	0.000012	0.000031	0.000043	-173.134436	-76.565413	-154.217995
30030	9.554286	-0.278353	-2.272113	0.007983	-0.000911	0.011990	1.000000	0.000019	0.000018	0.000042	-173.131364	-76.565667	-154.218477
30031	9.574791	-0.294318	-2.248190	-0.007142	-0.028880	0.026862	1.000000	0.000012	0.000037	0.000039	-173.129378	-76.568031	-154.220434
30032	9.602307	-0.291469	-2.294705	0.023845	-0.004608	0.064272	1.000000	0.000009	0.000022	0.000031	-173.132222	-76.568781	-154.217279
30033	9.583584	-0.273923	-2.240467	-0.025816	-0.016437	0.033066	1.000000	0.000012	0.000031	0.000043	-173.128409	-76.570386	-154.221169
30034	9.590651	-0.256045	-2.310605	0.020469	0.034998	0.055616	1.000000	0.000015	0.000003	0.000034	-173.130020	-76.569127	-154.223435
30035	9.577423	-0.291063	-2.270041	0.008832	-0.014702	0.034370	1.000000	0.000018	0.000020	0.000031	-173.132032	-76.569709	-154.220632
30036	9.586091	-0.270022	-2.262957	-0.009997	-0.001451	0.040582	1.000000	0.000012	0.000024	0.000048	-173.126243	-76.570473	-154.224185
30037	9.588509	-0.264707	-2.286016	0.005528	0.015146	0.048103	1.000000	0.000010	0.000020	0.000042	-173.123997	-76.570909	-154.226719
30038	9.588570	-0.265490	-2.285669	0.005674	0.014332	0.048104	1.000000	0.000008	0.000016	0.000036	-173.125103	-76.570913	-154.224993
30039	9.577747	-0.294462	-2.268237	0.009413	-0.017952	0.034364	1.000000	0.000016	0.000045	0.000051	-173.116317	-76.574098	-154.233536
30040	9.588771	-0.267179	-2.284629	0.005982	0.012716	0.048106	1.000000	0.000004	0.000001	0.000028	-173.122278	-76.572610	-154.232791
30041	9.588793	-0.267988	-2.284442	0.006132	0.011902	0.048107	1.000000	0.000011	0.000018	0.000053	-173.114807	-76.572697	-154.240550
30042	9.582580	-0.284497	-2.314322	0.040617	0.014433	0.049412	1.000000	0.000025	0.000008	0.000029	-173.117354	-76.571882	-154.235947
30043	9.577097	-0.232625	-2.300661	0.002740	0.051509	0.039485	1.000000	0.000010	0.000020	0.000042	-173.115105	-76.572317	-154.238484
30044	9.572441	-0.245912	-2.253406	-0.027870	0.015878	0.024431	1.000000	0.000017	0.000008	0.000040	-173.113591	-76.571332	-154.236275
30045	9.568559	-0.256161	-2.306864	0.021996	0.035815	0.033266	1.000000	0.000008	0.000010	0.000040	-173.112913	-76.570598	-154.237453
30046	9.572505	-0.247395	-2.252971	-0.027572	0.014248	0.024434	1.000000	0.000007	0.000017	0.000025	-173.119417	-76.570947	-154.230234
30047	9.589026	-0.272698	-2.282905	0.007020	0.007007	0.048111	1.000000	0.000019	0.000012	0.000046	-173.114375	-76.570421	-154.234590
30048	9.591438	-0.267287	-2.306064	0.022543	0.023592	0.055645	1.000000	0.000009	0.000022	0.000031	-173.117402	-76.571173	-154.231849
30049	9.566400	-0.265426	-2.282216	0.007213	0.015154	0.025741	1.000000	0.000018	0.000006	0.000051	-173.110533	-76.569888	-154.238137
30050	9.597788	-0.253387	-2.275320	-0.011491	0.018612	0.054346	1.000000	0.000001	0.000028	0.000037	-173.111297	-76.571295	-154.238723
30051	9.586886	-0.282305	-2.258086	-0.007756	-0.013659	0.040575	1.000000	0.000019	0.000012	0.000047	-173.106254	-76.570769	-154.243080
30052	9.543858	-0.259032	-2.281086	0.007559	0.022486	0.003377	1.000000	0.000009	0.000022	0.000031	-173.109394	-76.571511	-154.238650
30053	9.597977	-0.255825	-2.274251	-0.011044	0.016161	0.054351	1.000000	0.000009	0.000014	0.000047	-173.105317	-76.571187	-154.243120
30054	9.566697	-0.269550	-2.280487	0.007969	0.011066	0.025746	1.000000	0.000018	0.000020	0.000031	-173.107695	-76.571766	-154.237747
30055	9.589527	-0.279222	-2.280013	0.008225	0.000465	0.048112	1.000000	0.000012	0.000037	0.000039	-173.105696	-76.574129	-154.239711
30056	9.591959	-0.273688	-2.303141	0.023747	0.017043	0.055656	1.000000	0.000004	0.000001	0.000028	-173.111918	-76.572530	-154.234203
30057	9.589653	-0.280577	-2.279314	0.008520	-0.001169	0.048112	1.000000	-0.000007	0.000034	0.000043	-173.110026	-76.574539	-154.238326
30058	9.573269	-0.256882	-2.248657	-0.025789	0.004461	0.024449	1.000000	0.000019	0.000012	0.000047	-173.105015	-76.573930	-154.242168
30059	9.589769	-0.282336	-2.278608	0.008808	-0.002803	0.048112	1.000000	0.000018	0.000014	0.000036	-173.105192	-76.573751	-154.241303
30060	9.573351	-0.258511	-2.248123	-0.025484	0.002831	0.024450	1.000000	0.000018	0.000014	0.000036	-173.105601	-76.573584	-154.241104
30061	9.564741	-0.281189	-2.254596	-0.006373	-0.012032	0.018201	1.000000	0.000007	0.000003	0.000045	-173.103093	-76.572090	-154.244218
30062	9.581237	-0.306714	-2.284530	0.028215	-0.019311	0.041859	1.000000	0.000012	0.000024	0.000048	-173.097527	-76.572857	-154.248206
30063	9.571922	-0.264309	-2.324614	0.040051	0.038517	0.040854	1.000000	0.000004	-0.000005	0.000033	-173.101817	-76.570542	-154.244735
30064	9.575844	-0.255549	-2.270737	-0.009523	0.016958	0.032005	1.000000	0.000020	0.000030	0.000032	-173.102413	-76.572240	-154.242275
30065	9.590015	-0.287153	-2.276971	0.009698	-0.007711	0.048108	1.000000	0.000019	0.000018	0.000042	-173.099189	-76.572471	-154.244702
30066	9.592418	-0.281843	-2.300248	0.025223	0.008863	0.055663	1.000000	0.000007	0.000003	0.000045	-173.096710	-76.570950	-154.249855
30067	9.567368	-0.279832	-2.276428	0.009884	0.000470	0.025751	1.000000	-0.000001	0.000024	0.000031	-173.100645	-76.571935	-154.247283
30068	9.578438	-0.252501	-2.292973	0.006446	0.031087	0.039568	1.000000	0.000017	0.000008	0.000040	-173.099139	-76.570939	-154.247248
30069	9.601197	-0.262204	-2.292747	0.006706	0.020459	0.061925	1.000000	0.000009	0.000022	0.000031	-173.102106	-76.571722	-154.244564
30070	9.567490	-0.282012	-2.275644	0.010329	-0.001987	0.025750	1.000000	0.000015	-0.000003	0.000039	-173.102332	-76.569596	-154.243731
30071	9.578572	-0.254770	-2.292163	0.006898	0.028636	0.039576	1.000000	0.000013	0.000037	0.000039	-173.100326	-76.571959	-154.245697
30072	9.601396	-0.264451	-2.291659	0.007143	0.017994	0.061929	1.000000	0.000009	0.000022	0.000031	-173.103324	-76.572631	-154.242373
30073	9.565378	-0.290445	-2.250720	-0.004618	-0.021817	0.018185	1.000000	-0.000007	0.000034	0.000043	-173.101427	-76.574641	-154.246498
30074	9.567817	-0.285135	-2.273882	0.010904	-0.005252	0.025748	1.000000	0.000026	-0.000000	0.000045	-173.097113	-76.572678	-154.249291
30075	9.590535	-0.294956	-2.273781	0.011166	-0.015890	0.048097	1.000000	0.000008	0.000016	0.000036	-173.098253	-76.572701	-154.248541
30076	9.570251	-0.280571	-2.296985	0.026581	0.010499	0.033315	1.000000	0.000017	0.000008	0.000040	-173.096805	-76.571723	-154.249212
30077	9.601635	-0.268510	-2.290183	0.007884	0.013900	0.061935	1.000000	0.000018	0.000014	0.000036	-173.096976	-76.571543	-154.248350
30078	9.567939	-0.288399	-2.272957	0.011508	-0.008521	0.025745	1.000000	0.000019	0.000018	0.000042	-173.094101	-76.571788	-154.251349
30079	9.553898	-0.258343	-2.266131	-0.007414	0.014544	0.009674	1.000000	0.000004	-0.000005	0.000033	-173.098389	-76.569474	-154.247881
30080	9.567958	-0.289842	-2.272693	0.011811	-0.010154	0.025743	1.000000	0.000027	0.000018	0.000031	-173.099676	-76.569844	-154.246049
30081	9.579110	-0.262481	-2.289039	0.008384	0.020457	0.039595	1.000000	0.000001	0.000034	0.000032	-173.102036	-76.571999	-154.244836
30082	9.570506	-0.285042	-2.295374	0.027493	0.005591	0.033316	1.000000	0.000015	-0.000003	0.000039	-173.102187	-76.569867	-154.244864
30083	9.568128	-0.291977	-2.271705	0.012260	-0.012600	0.025740	1.000000	0.000018	0.000020	0.000031	-173.104182	-76.570446	-154.242070
30084	9.590889	-0.301660	-2.271406	0.011406	-0.024683	0.048078	1.000000	0.000008	0.000016	0.000036	-173.125417	-76.560968	-154.220482
30085	9.579297	-0.265385	-2.287922	0.007862	0.015762	0.039604	1.000000	0.000018	0.000014	0.000036	-173.125668	-76.560749	-154.219533
30086	9.597242	-0.287494	-2.240691	-0.022644	-0.029658	0.046776	1.000000	0.000008	0.000016	0.000036	-173.126930	-76.560741	-154.221569
30087	9.568332	-0.294874	-2.270471	0.011730	-0.017291	0.025734	1.000000	0.000008	0.000016	0.000036	-173.128150	-76.560725	-154.220730
30088	9.579467	-0.267524	-2.286964	0.008288	0.013301	0.039607	1.000000	0.000009	0.000022	0.000031	-173.131155	-76.561391	-154.216632
30089	9.577106	-0.274474	-2.263194	-0.006950	-0.004892	0.032020	1.000000	0.000026	0.000006	0.000040	-173.128610	-76.560209	-154.217507
30090	9.591181	-0.306047	-2.269585	0.012252	-0.029610	0.048064	1.000000	-0.000001	0.000024	0.000031	-173.132578	-76.561064	-154.212842
30091	9.566177	-0.303804	-2.245552	-0.003099	-0.037943	0.018137	1.000000	0.000009	0.000028	0.000026	-173.137450	-76.562566	-154.208135
30092	9.577338	-0.276328	-2.261985	-0.006536	-0.007349	0.032019	1.000000	0.000016	0.000016	0.000025	-173.142793	-76.562665	-154.203970
30093	9.591423	-0.307691	-2.268340	0.012681	-0.032066	0.048056	1.000000	0.000007	0.000017	0.000025	-173.149236	-76.562997	-154.197908
30094	9.591468	-0.308262	-2.268075	0.012825	-0.032886	0.048053	1.000000	0.000016	0.000010	0.000029	-173.152885	-76.562361	-154.194139
30095	9.571257	-0.293584	-2.291162	0.028240	-0.006470	0.033313	1.000000	0.000017	0.000028	0.000015	-173.162013	-76.564005	-154.184096
30096	9.606573	-0.271696	-2.230454	-0.040193	-0.023822	0.053051	1.000000	0.000017	0.000022	0.000020	-173.169176	-76.564831	-154.175295
30097	9.609073	-0.265976	-2.253522	-0.024664	-0.007274	0.060647	1.000000	0.000017	0.000022	0.000020	-173.176478	-76.565716	-154.167186
30098	9.598082	-0.294495	-2.236179	-0.020941	-0.039493	0.046745	1.000000	0.000009	0.000028	0.000026	-173.181366	-76.567260	-154.164329
30099	9.595240	-0.236187	-2.245945	-0.043437	0.014998	0.044623	1.000000	0.000016	0.000016	0.000025	-173.186839	-76.567386	-154.158156
30100	9.595279	-0.236695	-2.245723	-0.043295	0.014184	0.044625	1.000000	0.000005	0.000007	0.000023	-173.194718	-76.566543	-154.151893
30101	9.570187	-0.234524	-2.222049	-0.058652	0.005878	0.014698	1.000000	0.000017	0.000008	0.000040	-173.193134	-76.565564	-154.152886
30102	9.563954	-0.250901	-2.251990	-0.024163	0.008401	0.015994	1.000000	0.000006	0.000011	0.000029	-173.197586	-76.565164	-154.152294
30103	9.554783	-0.208320	-2.292255	-0.012314	0.066224	0.015190	1.000000	0.000004	-0.000005	0.000033	-173.201934	-76.562809	-154.148760
30104	9.563889	-0.252245	-2.252116	-0.023866	0.006768	0.015996	1.000000	0.000022	-0.000015	0.000037	-173.202580	-76.559329	-154.148008
30105	9.562448	-0.256233	-2.329249	0.041398	0.043999	0.032505	1.000000	-0.000003	0.000013	0.000029	-173.208163	-76.559106	-154.143993
30106	9.568683	-0.241259	-2.299161	0.007208	0.039852	0.031214	1.000000	0.000003	-0.000017	0.000042	-173.208979	-76.555262	-154.144478
30107	9.591335	-0.251004	-2.299264	0.007470	0.029145	0.053539	1.000000	0.000016	0.000010	0.000029	-173.212616	-76.554630	-154.140249
30108	9.585099	-0.267299	-2.329202	0.041958	0.031644	0.054834	1.000000	0.000016	0.000010	0.000029	-173.216434	-76.553984	-154.133785
30109	9.602509	-0.224361	-2.315721	0.004197	0.058887	0.067474	1.000000	0.000027	0.000012	0.000036	-173.215706	-76.553559	-154.132733
30110	9.616528	-0.255896	-2.322221	0.023418	0.034139	0.083478	1.000000	0.000024	0.000003	0.000023	-173.221787	-76.552319	-154.128557
30111	9.619001	-0.250407	-2.345440	0.038954	0.050672	0.091094	1.000000	0.000020	0.000024	0.000037	-173.220468	-76.553268	-154.128958
30112	9.622919	-0.241853	-2.291400	-0.010629	0.029160	0.082190	1.000000	0.000011	0.000018	0.000053	-173.213332	-76.553307	-154.135848
30113	9.591620	-0.255676	-2.297558	0.008350	0.024207	0.053552	1.000000	0.000031	0.000027	0.000043	-173.207646	-76.554462	-154.139428
30114	9.555065	-0.216804	-2.290294	-0.010695	0.057209	0.015249	1.000000	0.000023	0.000033	0.000050	-173.199781	-76.556201	-154.145401
30115	9.538778	-0.193163	-2.259506	-0.045011	0.062973	-0.008353	1.000000	0.000023	0.000033	0.000050	-173.191669	-76.557973	-154.152376
30116	9.521466	-0.237808	-2.272306	-0.006972	0.034088	-0.021006	1.000000	0.000009	0.000014	0.000047	-173.187820	-76.557535	-154.155899
30117	9.564456	-0.262992	-2.248477	-0.021978	-0.003892	0.016002	1.000000	0.000012	0.000024	0.000048	-173.182243	-76.558342	-154.161636
30118	9.575638	-0.235915	-2.265061	-0.025392	0.026661	0.029957	1.000000	-0.000002	0.000005	0.000045	-173.181018	-76.556995	-154.166064
30119	9.580968	-0.289645	-2.277963	0.012775	-0.012124	0.039604	1.000000	0.000015	0.000033	0.000060	-173.168648	-76.558624	-154.178375
30120	9.583434	-0.284717	-2.301193	0.028297	0.004392	0.047228	1.000000	0.000017	-0.000006	0.000061	-173.158405	-76.555663	-154.183685
30121	9.606133	-0.294913	-2.300970	0.028564	-0.006342	0.069538	1.000000	0.000004	0.000031	0.000054	-173.150401	-76.557085	-154.192819
30122	9.606163	-0.295958	-2.300713	0.028714	-0.007178	0.069537	1.000000	0.000016	-0.000004	0.000050	-173.145500	-76.554572	-154.197894
30123	9.552089	-0.300748	-2.307212	0.047567	-0.002187	0.018580	1.000000	0.000001	0.000014	0.000057	-173.137238	-76.554066	-154.207612
30124	9.574815	-0.310861	-2.306870	0.047836	-0.012938	0.040886	1.000000	0.000021	0.000023	0.000048	-173.131004	-76.554643	-154.213284
30125	9.592662	-0.333184	-2.259484	0.017321	-0.058373	0.047928	1.000000	0.000019	0.000018	0.000042	-173.127846	-76.554832	-154.215629
30126	9.583698	-0.290861	-2.299322	0.029169	-0.000561	0.047226	1.000000	0.000022	0.000035	0.000039	-173.125065	-76.556893	-154.217841
30127	9.561107	-0.282798	-2.298853	0.029192	0.008545	0.024921	1.000000	0.000011	0.000012	0.000057	-173.115828	-76.556181	-154.227453
30128	9.583881	-0.292702	-2.298328	0.029459	-0.002209	0.047225	1.000000	0.000021	0.000043	0.000023	-173.120136	-76.559375	-154.223825
30129	9.590300	-0.277751	-2.267495	-0.004738	-0.006349	0.045936	1.000000	0.000012	0.000030	0.000043	-173.116374	-76.560938	-154.227635
30130	9.581688	-0.300562	-2.273514	0.014347	-0.021197	0.039586	1.000000	0.000033	0.000031	0.000050	-173.107303	-76.562438	-154.236420
30131	9.574132	-0.254917	-2.236161	-0.038923	-0.001378	0.022346	1.000000	0.000020	0.000030	0.000032	-173.107791	-76.564143	-154.234899
30132	9.608108	-0.236901	-2.252418	-0.042211	0.019230	0.058640	1.000000	0.000023	0.000033	0.000050	-173.099734	-76.565884	-154.244521
30133	9.574333	-0.256898	-2.235072	-0.038636	-0.003015	0.022347	1.000000	0.000030	0.000015	0.000053	-173.090370	-76.565517	-154.251990
30134	9.576804	-0.251878	-2.258404	-0.023102	0.013499	0.029990	1.000000	0.000008	0.000002	0.000056	-173.082812	-76.563584	-154.260720
30135	9.560460	-0.228301	-2.227947	-0.057423	0.019307	0.006406	1.000000	0.000015	0.000033	0.000060	-173.070415	-76.565208	-154.273053
30136	9.562968	-0.223258	-2.251150	-0.041885	0.035815	0.014053	1.000000	0.000007	-0.000003	0.000050	-173.066390	-76.562874	-154.276850
30137	9.594313	-0.211849	-2.244638	-0.060563	0.039076	0.042713	1.000000	0.000020	-0.000010	0.000082	-173.045483	-76.559328	-154.297377
30138	9.565298	-0.219913	-2.274948	-0.026205	0.051500	0.021708	1.000000	0.000008	-0.000010	0.000065	-173.034531	-76.555869	-154.305756
30139	9.585438	-0.236446	-2.251541	-0.041329	0.023399	0.036359	1.000000	0.000010	-0.000000	0.000067	-173.021653	-76.553635	-154.319225
30140	9.587852	-0.231781	-2.275112	-0.025795	0.039901	0.044011	1.000000	0.000011	-0.000008	0.000082	-173.001986	-76.550227	-154.337779
30141	9.579036	-0.255089	-2.281844	-0.006702	0.025064	0.037649	1.000000	-0.000000	-0.000004	0.000072	-172.988271	-76.547438	-154.353273
30142	9.604060	-0.259462	-2.305599	0.008969	0.031614	0.067596	1.000000	0.000007	-0.000023	0.000075	-172.973646	-76.542499	-154.370106
30143	9.578846	-0.257983	-2.282316	-0.006408	0.023416	0.037654	1.000000	0.000002	0.000000	0.000078	-172.956544	-76.540116	-154.388876
30144	9.603932	-0.262529	-2.305785	0.009262	0.029958	0.067601	1.000000	0.000013	0.000003	0.000084	-172.935413	-76.537903	-154.410865
30145	9.578753	-0.261146	-2.282345	-0.006116	0.021764	0.037658	1.000000	0.000028	-0.000010	0.000072	-172.918813	-76.534489	-154.426003
30146	9.590093	-0.299801	-2.265559	-0.002293	-0.020381	0.045918	1.000000	0.000003	-0.000002	0.000089	-172.896906	-76.531696	-154.448014
30147	9.564896	-0.298512	-2.242163	-0.017673	-0.028568	0.015970	1.000000	0.000020	-0.000010	0.000082	-172.876081	-76.528133	-154.468455
30148	9.569771	-0.287930	-2.289238	0.013279	0.005261	0.031287	1.000000	0.000022	0.000001	0.000084	-172.854149	-76.525772	-154.492014
30149	9.592333	-0.298785	-2.289367	0.013552	-0.005524	0.053574	1.000000	0.000019	-0.000016	0.000087	-172.831536	-76.521445	-154.514351
30150	9.558324	-0.319388	-2.272684	0.017125	-0.027734	0.017247	1.000000	0.000031	-0.000007	0.000089	-172.806805	-76.518078	-154.538168
30151	9.612262	-0.317650	-2.266388	-0.001418	-0.034478	0.068194	1.000000	0.000027	-0.000028	0.000086	-172.784846	-76.512372	-154.558988
30152	9.594440	-0.297937	-2.313714	0.029397	0.009315	0.061236	1.000000	0.000001	-0.000006	0.000082	-172.766267	-76.509206	-154.580966
30153	9.562863	-0.312568	-2.320648	0.048358	0.004455	0.032570	1.000000	0.000040	-0.000029	0.000114	-172.729580	-76.502981	-154.615321
30154	9.587825	-0.317772	-2.344475	0.064028	0.010974	0.062519	1.000000	0.000023	-0.000007	0.000099	-172.700477	-76.499402	-154.643384
30155	9.587716	-0.319917	-2.344628	0.064174	0.010153	0.062519	1.000000	0.000034	-0.000011	0.000110	-172.664994	-76.495303	-154.677283
30156	9.558622	-0.328450	-2.374973	0.098536	0.022608	0.041521	1.000000	0.000020	-0.000016	0.000087	-172.642750	-76.490945	-154.701618
30157	9.560996	-0.324086	-2.398652	0.114081	0.039110	0.049192	1.000000	0.000012	-0.000004	0.000089	-172.619606	-76.487971	-154.725339
30158	9.535874	-0.322707	-2.374976	0.098688	0.030939	0.019243	1.000000	0.000006	0.000021	0.000081	-172.599624	-76.487814	-154.746662
30159	9.551106	-0.286865	-2.337778	0.045545	0.040824	0.024354	1.000000	0.000018	0.000030	0.000082	-172.576844	-76.488691	-154.769360
30160	9.567481	-0.312970	-2.367356	0.080158	0.033312	0.047915	1.000000	-0.000026	0.000026	0.000053	-172.573551	-76.489475	-154.778148
30161	9.532540	-0.335573	-2.249229	0.003168	-0.044113	-0.012738	1.000000	-0.000000	0.000039	0.000078	-172.554478	-76.491528	-154.799187
30162	9.574064	-0.364753	-2.302089	0.053304	-0.044298	0.040767	1.000000	-0.000013	0.000039	0.000060	-172.545087	-76.493634	-154.811774
30163	9.605674	-0.353011	-2.294699	0.034638	-0.041100	0.069435	1.000000	-0.000025	0.000044	0.000039	-172.546899	-76.496780	-154.814203
30164	9.571882	-0.372512	-2.277033	0.038179	-0.063263	0.033079	1.000000	-0.000005	0.000038	0.000050	-172.541662	-76.499074	-154.824391
30165	9.569541	-0.379345	-2.252765	0.022921	-0.081397	0.025392	1.000000	-0.000007	0.000042	0.000028	-172.546736	-76.502165	-154.821401
30166	9.584881	-0.342407	-2.215246	-0.030233	-0.071519	0.030507	1.000000	-0.000007	0.000042	0.000028	-172.551917	-76.505177	-154.819401
30167	9.583700	-0.346391	-2.291606	0.035062	-0.034406	0.047147	1.000000	0.000021	0.000036	0.000028	-172.554099	-76.507642	-154.816062
30168	9.568832	-0.318757	-2.183941	-0.064433	-0.066461	0.006946	1.000000	0.000016	0.000009	0.000029	-172.557773	-76.506941	-154.812775
30169	9.587683	-0.338114	-2.237172	-0.014408	-0.056667	0.038176	1.000000	0.000047	0.000027	0.000022	-172.560468	-76.508378	-154.805795
30170	9.571491	-0.314084	-2.206558	-0.048753	-0.050787	0.014623	1.000000	0.000041	0.000025	0.000043	-172.553720	-76.509228	-154.809400
30171	9.587915	-0.274853	-2.270043	-0.021337	0.014336	0.044092	1.000000	0.000037	0.000016	0.000031	-172.553802	-76.509349	-154.806332
30172	9.581634	-0.291304	-2.299834	0.013147	0.016817	0.045372	1.000000	0.000046	0.000014	0.000031	-172.552891	-76.509224	-154.805188
30173	9.555466	-0.226741	-2.209187	-0.090009	0.026120	-0.002995	1.000000	0.000029	0.000022	0.000037	-172.550530	-76.509955	-154.805531
30174	9.590625	-0.271373	-2.292384	-0.005513	0.029178	0.051788	1.000000	0.000032	0.000025	0.000054	-172.539630	-76.510656	-154.812653
30175	9.571920	-0.253398	-2.238338	-0.055252	0.017765	0.020555	1.000000	-0.000021	0.000023	0.000025	-172.548910	-76.511627	-154.806978
30176	9.594562	-0.263276	-2.238120	-0.054984	0.006922	0.042821	1.000000	0.000007	-0.000003	0.000050	-172.544768	-76.509247	-154.810432
30177	9.588234	-0.279970	-2.268072	-0.020494	0.009404	0.044100	1.000000	0.000011	0.000018	0.000053	-172.537352	-76.509272	-154.818097
30178	9.583250	-0.293074	-2.220761	-0.051158	-0.026027	0.028708	1.000000	-0.000011	0.000013	0.000040	-172.538804	-76.508919	-154.822393
30179	9.593236	-0.334209	-2.280669	0.017811	-0.030270	0.053522	1.000000	-0.000022	0.000017	0.000029	-172.546293	-76.509128	-154.818617
30180	9.579534	-0.303699	-2.273785	-0.001118	-0.007068	0.037681	1.000000	-0.000022	0.000017	0.000029	-172.553948	-76.509316	-154.814334
30181	9.568173	-0.332111	-2.256767	0.002559	-0.039194	0.023557	1.000000	-0.000006	-0.000003	0.000033	-172.559334	-76.507179	-154.810833
30182	9.554385	-0.301817	-2.250233	-0.016375	-0.015982	0.007719	1.000000	0.000006	-0.000001	0.000039	-172.560365	-76.505204	-154.811072
30183	9.573150	-0.321159	-2.303840	0.033657	-0.006230	0.038955	1.000000	-0.000007	-0.000002	0.000022	-172.570942	-76.503427	-154.802381
30184	9.568057	-0.333973	-2.256988	0.002984	-0.041650	0.023546	1.000000	0.000022	-0.000015	0.000037	-172.571624	-76.499896	-154.802808
30185	9.604486	-0.310147	-2.297550	0.015144	-0.003900	0.067638	1.000000	0.000026	-0.000006	0.000050	-172.565512	-76.497174	-154.807452
30186	9.600615	-0.320676	-2.351221	0.065040	0.015869	0.076620	1.000000	0.000044	-0.000002	0.000034	-172.564527	-76.495128	-154.804114
30187	9.593200	-0.274841	-2.314501	0.011766	0.035791	0.059522	1.000000	0.000044	0.000004	0.000030	-172.565250	-76.493872	-154.799544
30188	9.589384	-0.285247	-2.367969	0.061660	0.055560	0.068509	1.000000	0.000046	0.000008	0.000036	-172.562552	-76.492980	-154.798890
30189	9.570626	-0.267333	-2.314193	0.011914	0.044189	0.037275	1.000000	0.000037	0.000010	0.000036	-172.560836	-76.492335	-154.797726
30190	9.566853	-0.277677	-2.367499	0.061797	0.063955	0.046264	1.000000	0.000018	0.000020	0.000031	-172.562896	-76.492780	-154.791969
30191	9.595936	-0.272091	-2.336728	0.027735	0.049794	0.067245	1.000000	0.000016	0.000045	0.000051	-172.554041	-76.495897	-154.800515
30192	9.582336	-0.241946	-2.329520	0.008795	0.073010	0.051438	1.000000	0.000009	0.000022	0.000031	-172.557115	-76.496570	-154.796989
30193	9.564698	-0.286158	-2.342205	0.046814	0.044193	0.038562	1.000000	0.000021	0.000030	0.000032	-172.557502	-76.498271	-154.795549
30194	9.582368	-0.308349	-2.294546	0.016272	-0.001273	0.045382	1.000000	0.000003	0.000032	0.000043	-172.554720	-76.499968	-154.800182
30195	9.568749	-0.278157	-2.287429	-0.002659	0.021959	0.029577	1.000000	0.000011	0.000026	0.000037	-172.554284	-76.501116	-154.800754
30196	9.591454	-0.288126	-2.286865	-0.002386	0.011078	0.051826	1.000000	0.000001	0.000028	0.000037	-172.554868	-76.502393	-154.801695
30197	9.557513	-0.307472	-2.269608	0.001145	-0.010974	0.015415	1.000000	-0.000011	0.000013	0.000040	-172.556194	-76.502034	-154.802998
30198	9.557552	-0.308278	-2.269334	0.001278	-0.011802	0.015414	1.000000	0.000000	0.000016	0.000047	-172.553269	-76.501773	-154.805749
30199	9.591595	-0.290638	-2.285955	-0.001963	0.008607	0.051829	1.000000	0.000038	0.000008	0.000047	-172.546356	-76.500766	-154.809781
30200	9.576395	-0.328885	-2.322437	0.051455	-0.002926	0.046651	1.000000	-0.000003	0.000013	0.000029	-172.552107	-76.500483	-154.804597
30201	9.573874	-0.335783	-2.298742	0.036190	-0.021035	0.038926	1.000000	0.000019	0.000006	0.000051	-172.545339	-76.499133	-154.810752
30202	9.553825	-0.321478	-2.322112	0.051594	0.005490	0.024407	1.000000	0.000019	0.000012	0.000047	-172.540486	-76.498473	-154.814910
30203	9.582802	-0.315918	-2.291703	0.017535	-0.008689	0.045376	1.000000	0.000018	0.000014	0.000036	-172.540699	-76.498247	-154.813976
30204	9.560258	-0.307309	-2.291446	0.017525	0.000556	0.023135	1.000000	0.000007	0.000017	0.000025	-172.547049	-76.498511	-154.809350
30205	9.556511	-0.317514	-2.344733	0.067427	0.020316	0.032136	1.000000	0.000008	0.000016	0.000036	-172.548227	-76.498494	-154.808529
30206	9.622118	-0.287211	-2.354470	0.045379	0.044614	0.097263	1.000000	0.000032	0.000033	0.000039	-172.544275	-76.500269	-154.808461
30207	9.594561	-0.290891	-2.306887	0.014560	0.019295	0.059564	1.000000	-0.000018	0.000032	0.000037	-172.546737	-76.502047	-154.809373
30208	9.592135	-0.297649	-2.282785	-0.000718	0.001183	0.051833	1.000000	0.000021	0.000030	0.000032	-172.547144	-76.503660	-154.808901
30209	9.567131	-0.295024	-2.258680	-0.016128	-0.006842	0.021862	1.000000	-0.000009	0.000038	0.000022	-172.555623	-76.506351	-154.802606
30210	9.569853	-0.289462	-2.281402	-0.000587	0.009613	0.029597	1.000000	0.000004	0.000044	0.000034	-172.556414	-76.509531	-154.801856
30211	9.564922	-0.302316	-2.233551	-0.031265	-0.025770	0.014124	1.000000	0.000013	0.000043	0.000034	-172.556143	-76.512605	-154.801926
30212	9.570187	-0.290823	-2.279825	-0.000312	0.007967	0.029599	1.000000	0.000002	0.000034	0.000032	-172.558511	-76.514625	-154.800060
30213	9.576643	-0.275843	-2.249143	-0.034513	0.003857	0.028330	1.000000	0.000011	0.000026	0.000037	-172.558068	-76.515772	-154.800635
30214	9.576723	-0.276582	-2.248710	-0.034381	0.003028	0.028330	1.000000	0.000028	0.000018	0.000031	-172.559212	-76.516005	-154.796758
30215	9.574246	-0.283379	-2.224756	-0.049648	-0.015069	0.020589	1.000000	0.000001	0.000028	0.000037	-172.559738	-76.517363	-154.797445
30216	9.571714	-0.290308	-2.201005	-0.064922	-0.033176	0.012845	1.000000	0.000007	-0.000003	0.000050	-172.555728	-76.514994	-154.802479
30217	9.593073	-0.303947	-2.278009	0.000538	-0.006239	0.051831	1.000000	0.000035	0.000006	0.000030	-172.557409	-76.513943	-154.798028
30218	9.583170	-0.264220	-2.217748	-0.068166	-0.003554	0.027064	1.000000	0.000019	0.000006	0.000051	-172.550690	-76.512513	-154.803532
30219	9.579376	-0.274763	-2.271315	-0.018263	0.016196	0.036080	1.000000	0.000015	-0.000003	0.000039	-172.550728	-76.510358	-154.803106
30220	9.599378	-0.290942	-2.247711	-0.033391	-0.012002	0.050560	1.000000	-0.000002	0.000005	0.000045	-172.549334	-76.508979	-154.807603
30221	9.581935	-0.270355	-2.294650	-0.002566	0.031830	0.043832	1.000000	0.000008	0.000010	0.000040	-172.548719	-76.508200	-154.808684
30222	9.593087	-0.308199	-2.277376	0.001238	-0.010357	0.051827	1.000000	0.000018	0.000020	0.000031	-172.550762	-76.508682	-154.806565
30223	9.570523	-0.299627	-2.277272	0.001236	-0.001072	0.029602	1.000000	-0.000023	-0.000001	0.000044	-172.552883	-76.506608	-154.808485
30224	9.573089	-0.294237	-2.300704	0.016792	0.015376	0.037355	1.000000	0.000016	0.000009	0.000030	-172.556588	-76.505948	-154.805897
30225	9.590581	-0.316383	-2.253314	-0.013746	-0.030094	0.044070	1.000000	0.000001	0.000022	0.000042	-172.555322	-76.506544	-154.808484
30226	9.570616	-0.301838	-2.276589	0.001664	-0.003538	0.029601	1.000000	0.000008	0.000010	0.000040	-172.554805	-76.505737	-154.811348
30227	9.598411	-0.299742	-2.323139	0.032788	0.020071	0.067335	1.000000	0.000021	0.000030	0.000033	-172.555179	-76.507434	-154.809913
30228	9.570765	-0.303341	-2.275765	0.001948	-0.005181	0.029600	1.000000	0.000018	0.000014	0.000036	-172.555491	-76.507160	-154.809641
30229	9.561868	-0.325898	-2.282141	0.021023	-0.019983	0.023108	1.000000	0.000017	0.000008	0.000040	-172.553905	-76.506169	-154.810613
30230	9.570843	-0.305062	-2.275205	0.002237	-0.006824	0.029599	1.000000	0.000031	0.000027	0.000043	-172.548262	-76.507279	-154.816430
30231	9.544597	-0.306232	-2.328357	0.051997	0.023025	0.016409	1.000000	0.000001	0.000028	0.000037	-172.548783	-76.508637	-154.817117
30232	9.570980	-0.306587	-2.274424	0.002513	-0.008467	0.029598	1.000000	0.000023	-0.000003	0.000028	-172.553055	-76.506544	-154.810378
30233	9.573574	-0.301289	-2.297772	0.018075	0.007979	0.037361	1.000000	0.000020	0.000018	0.000042	-172.549848	-76.506717	-154.812745
30234	9.576209	-0.296140	-2.320936	0.033628	0.024417	0.045126	1.000000	0.000029	0.000016	0.000042	-172.545743	-76.506612	-154.814496
30235	9.582596	-0.281245	-2.290580	-0.000574	0.020315	0.043863	1.000000	0.000016	0.000009	0.000030	-172.549354	-76.505982	-154.810272
30236	9.551144	-0.294330	-2.296946	0.018339	0.015637	0.015149	1.000000	0.000009	0.000022	0.000031	-172.552379	-76.506650	-154.806910
30237	9.573784	-0.304306	-2.296499	0.018634	0.004689	0.037362	1.000000	0.000008	0.000016	0.000036	-172.553549	-76.506632	-154.806092
30238	9.596418	-0.314306	-2.296065	0.018924	-0.006272	0.059574	1.000000	0.000018	0.000020	0.000031	-172.555698	-76.507114	-154.803763
30239	9.582795	-0.283922	-2.289416	-0.000010	0.017021	0.043869	1.000000	0.000004	-0.000005	0.000033	-172.560107	-76.504768	-154.800158
30240	9.551295	-0.296917	-2.295984	0.018907	0.012351	0.015152	1.000000	-0.000022	0.000017	0.000029	-172.567717	-76.504932	-154.797204
30241	9.576514	-0.300840	-2.319071	0.034621	0.018654	0.045136	1.000000	0.000020	0.000018	0.000042	-172.564508	-76.505105	-154.799572
30242	9.582950	-0.286048	-2.288500	0.000403	0.014543	0.043873	1.000000	0.000013	0.000030	0.000043	-172.560747	-76.506544	-154.800847
30243	9.580441	-0.292911	-2.264545	-0.014871	-0.003534	0.036098	1.000000	0.000008	0.000016	0.000036	-172.561916	-76.506526	-154.800031
30244	9.574153	-0.309295	-2.294293	0.019617	-0.001079	0.037361	1.000000	0.000018	0.000020	0.000031	-172.564010	-76.507021	-154.799023
30245	9.576808	-0.303939	-2.317453	0.035182	0.015358	0.045139	1.000000	0.000008	0.000016	0.000036	-172.565178	-76.507004	-154.798207
30246	9.574275	-0.310866	-2.293570	0.019891	-0.002725	0.037360	1.000000	0.000021	0.000022	0.000048	-172.558590	-76.507477	-154.802523
30247	9.580697	-0.295923	-2.263069	-0.014311	-0.006823	0.036097	1.000000	-0.000002	0.000019	0.000025	-172.565928	-76.508031	-154.796619
30248	9.580774	-0.296472	-2.262674	-0.014182	-0.007652	0.036097	1.000000	0.000009	0.000022	0.000031	-172.568927	-76.508667	-154.792047
30249	9.597059	-0.322239	-2.292283	0.020463	-0.015343	0.059561	1.000000	0.000020	0.000018	0.000042	-172.565714	-76.508839	-154.794418
30250	9.583532	-0.292052	-2.285302	0.001527	0.007960	0.043880	1.000000	0.000003	0.000032	0.000043	-172.562915	-76.510586	-154.801876
30251	9.583658	-0.292812	-2.284680	0.001672	0.007141	0.043881	1.000000	0.000011	0.000032	0.000032	-172.564252	-76.512494	-154.800552
30252	9.558593	-0.290194	-2.260750	-0.013764	-0.000776	0.013895	1.000000	0.000009	0.000022	0.000031	-172.567274	-76.513199	-154.799419
30253	9.603838	-0.309453	-2.259966	-0.013311	-0.021913	0.058293	1.000000	0.000012	0.000038	0.000028	-172.570403	-76.515869	-154.796190
30254	9.558807	-0.291392	-2.259691	-0.013487	-0.002417	0.013895	1.000000	0.000007	0.000011	0.000030	-172.575030	-76.515368	-154.791394
30255	9.575112	-0.317103	-2.289220	0.021160	-0.010122	0.037353	1.000000	0.000013	0.000037	0.000039	-172.572956	-76.517678	-154.793366
30256	9.590478	-0.280360	-2.252173	-0.031986	-0.000252	0.042622	1.000000	0.000004	0.000001	0.000028	-172.579128	-76.515986	-154.786152
30257	9.556389	-0.299577	-2.235084	-0.028493	-0.022122	0.006102	1.000000	0.000031	0.000027	0.000043	-172.573319	-76.517110	-154.789812
30258	9.590559	-0.282083	-2.251614	-0.031700	-0.001897	0.042623	1.000000	0.000017	0.000002	0.000045	-172.570045	-76.515316	-154.793122
30259	9.606763	-0.307918	-2.281528	0.002948	-0.009612	0.066077	1.000000	0.000006	0.000005	0.000034	-172.572831	-76.514134	-154.790914
30260	9.578981	-0.311442	-2.234489	-0.027913	-0.034758	0.028290	1.000000	0.000017	0.000008	0.000040	-172.571355	-76.513095	-154.791736
30261	9.581611	-0.306229	-2.257824	-0.012346	-0.018331	0.036085	1.000000	0.000008	0.000010	0.000040	-172.570729	-76.512315	-154.792825
30262	9.572674	-0.328748	-2.264178	0.006717	-0.033123	0.029544	1.000000	0.000018	0.000014	0.000036	-172.570947	-76.512044	-154.792799
30263	9.584300	-0.301803	-2.280814	0.003361	-0.002729	0.043883	1.000000	0.000000	0.000016	0.000047	-172.567881	-76.511879	-154.797293
30264	9.584315	-0.302528	-2.280653	0.003496	-0.003553	0.043883	1.000000	0.000004	0.000001	0.000028	-172.574059	-76.510234	-154.791493
30265	9.584290	-0.303214	-2.280665	0.003641	-0.004372	0.043882	1.000000	0.000015	-0.000003	0.000039	-172.574079	-76.508077	-154.791082
30266	9.575305	-0.325608	-2.287218	0.022698	-0.019165	0.037336	1.000000	0.000014	0.000005	0.000023	-172.581136	-76.506959	-154.781544
30267	9.577945	-0.320121	-2.310564	0.038267	-0.002744	0.045139	1.000000	0.000007	0.000011	0.000030	-172.585708	-76.506538	-154.777435
30268	9.575350	-0.326864	-2.286850	0.022978	-0.020811	0.037332	1.000000	0.000008	0.000010	0.000040	-172.585170	-76.505686	-154.777366
30269	9.584374	-0.305858	-2.279962	0.004199	-0.007665	0.043880	1.000000	0.000009	0.000022	0.000031	-172.588124	-76.506429	-154.774649
30270	9.578070	-0.322270	-2.309749	0.038691	-0.005211	0.045137	1.000000	0.000008	0.000010	0.000040	-172.587466	-76.505649	-154.778652
30271	9.561901	-0.297951	-2.279555	0.004328	0.000891	0.021695	1.000000	0.000035	0.000012	0.000025	-172.590912	-76.505351	-154.772318
30272	9.561942	-0.298545	-2.279306	0.004461	0.000066	0.021695	1.000000	-0.000003	0.000013	0.000029	-172.596505	-76.505062	-154.766667
30273	9.587121	-0.302548	-2.302596	0.020190	0.006287	0.051689	1.000000	0.000015	-0.000003	0.000039	-172.596520	-76.502905	-154.766262
30274	9.593507	-0.287646	-2.272274	-0.014021	0.002187	0.050433	1.000000	0.000011	0.000026	0.000037	-172.596147	-76.503989	-154.766355
30275	9.564668	-0.294764	-2.302108	0.020312	0.014840	0.029509	1.000000	0.000027	0.000012	0.000036	-172.595363	-76.503544	-154.765328
30276	9.609794	-0.314211	-2.301652	0.020771	-0.006389	0.073869	1.000000	0.000016	0.000009	0.000030	-172.598999	-76.502860	-154.761379
30277	9.562099	-0.302308	-2.278150	0.005168	-0.004034	0.021694	1.000000	0.000010	0.000014	0.000047	-172.594959	-76.502482	-154.765764
30278	9.598924	-0.278757	-2.318241	0.017399	0.033364	0.066071	1.000000	0.000008	0.000010	0.000040	-172.594361	-76.501668	-154.767721
30279	9.562191	-0.303858	-2.277558	0.005453	-0.005673	0.021693	1.000000	0.000010	0.000028	0.000026	-172.599104	-76.503172	-154.763099
30280	9.596414	-0.286279	-2.294035	0.002259	0.014485	0.058255	1.000000	0.000019	0.000006	0.000051	-172.592355	-76.501782	-154.770155
30281	9.573891	-0.277721	-2.293971	0.002242	0.023877	0.036081	1.000000	-0.000003	0.000013	0.000029	-172.597897	-76.501575	-154.766156
30282	9.564934	-0.300103	-2.300316	0.021299	0.009095	0.029514	1.000000	-0.000001	0.000011	0.000040	-172.598229	-76.500952	-154.767398
30283	9.573977	-0.279188	-2.293433	0.002523	0.022236	0.036085	1.000000	0.000010	0.000020	0.000042	-172.595979	-76.501335	-154.769880
30284	9.565037	-0.301781	-2.299668	0.021583	0.007450	0.029515	1.000000	0.000000	0.000016	0.000047	-172.593022	-76.501121	-154.774960
30285	9.596605	-0.290204	-2.292744	0.002970	0.010371	0.058260	1.000000	-0.000003	0.000007	0.000034	-172.596771	-76.500152	-154.772866
30286	9.539942	-0.299875	-2.275733	0.006276	-0.001194	-0.000484	1.000000	0.000001	0.000028	0.000037	-172.597298	-76.501477	-154.775139
30287	9.580562	-0.266535	-2.262025	-0.031257	0.015684	0.034838	1.000000	0.000008	0.000016	0.000036	-172.598455	-76.501458	-154.774328
30288	9.587755	-0.314266	-2.298382	0.022311	-0.006059	0.051685	1.000000	0.000037	0.000002	0.000051	-172.589794	-76.499611	-154.779735
30289	9.594098	-0.299431	-2.268251	-0.011893	-0.010146	0.050430	1.000000	0.000004	0.000001	0.000028	-172.595977	-76.498026	-154.774242
30290	9.562604	-0.312486	-2.274655	0.006996	-0.014702	0.021682	1.000000	0.000013	0.000030	0.000043	-172.592166	-76.499486	-154.776852
30291	9.574346	-0.285613	-2.291098	0.003649	0.015659	0.036097	1.000000	0.000010	0.000020	0.000042	-172.589913	-76.499869	-154.779334
30292	9.571753	-0.292444	-2.267256	-0.011646	-0.002387	0.028262	1.000000	0.000018	0.000014	0.000036	-172.590104	-76.499564	-154.777975
30293	9.585339	-0.324251	-2.273353	0.007583	-0.027394	0.043843	1.000000	0.000009	0.000022	0.000031	-172.593051	-76.500307	-154.775260
30294	9.594429	-0.303171	-2.266352	-0.011193	-0.014264	0.050426	1.000000	0.000009	0.000022	0.000031	-172.596104	-76.501035	-154.774595
30295	9.578366	-0.278802	-2.235835	-0.045562	-0.008110	0.027010	1.000000	0.000013	0.000037	0.000039	-172.594023	-76.503344	-154.776563
30296	9.546900	-0.291926	-2.242103	-0.026667	-0.012645	-0.001741	1.000000	0.000008	0.000010	0.000040	-172.593447	-76.502542	-154.779068
30297	9.563128	-0.317908	-2.271696	0.007992	-0.020439	0.021671	1.000000	0.000031	0.000027	0.000043	-172.587625	-76.503661	-154.782730
30298	9.572224	-0.296934	-2.264685	-0.010786	-0.007305	0.028261	1.000000	0.000007	0.000017	0.000025	-172.594002	-76.503976	-154.777907
30299	9.581275	-0.275816	-2.257888	-0.029559	0.005830	0.034854	1.000000	0.000006	0.000005	0.000034	-172.596775	-76.502794	-154.775708
30300	9.574942	-0.292215	-2.287772	0.004935	0.008271	0.036105	1.000000	0.000008	0.000016	0.000036	-172.597990	-76.502767	-154.776767
30301	9.572333	-0.298954	-2.263957	-0.010353	-0.009762	0.028259	1.000000	0.000008	0.000016	0.000036	-172.599145	-76.502748	-154.775957
30302	9.572367	-0.299550	-2.263737	-0.010219	-0.010585	0.028259	1.000000	0.000005	0.000007	0.000023	-172.607122	-76.501853	-154.767157
30303	9.578750	-0.284578	-2.233461	-0.044424	-0.014664	0.027008	1.000000	0.000019	0.000012	0.000047	-172.602099	-76.501260	-154.771442
30304	9.575074	-0.295154	-2.286845	0.005491	0.004983	0.036107	1.000000	0.000008	0.000010	0.000040	-172.601508	-76.500398	-154.770425
30305	9.588625	-0.326997	-2.292971	0.024720	-0.020042	0.051660	1.000000	0.000009	0.000022	0.000031	-172.604453	-76.501141	-154.767710
30306	9.586898	-0.268789	-2.303055	0.002291	0.034501	0.050563	1.000000	0.000009	0.000022	0.000031	-172.607476	-76.501842	-154.764998
30307	9.572600	-0.303225	-2.262260	-0.009513	-0.014689	0.028254	1.000000	0.000018	0.000014	0.000036	-172.607654	-76.501608	-154.764084
30308	9.577964	-0.291990	-2.309052	0.021484	0.018911	0.043963	1.000000	0.000008	0.000010	0.000040	-172.606898	-76.500752	-154.764113
30309	9.575343	-0.298746	-2.285252	0.006195	0.000883	0.036108	1.000000	0.000018	0.000020	0.000031	-172.608867	-76.501279	-154.761293
30310	9.587102	-0.271643	-2.301868	0.002850	0.031215	0.050574	1.000000	-0.000003	0.000013	0.000029	-172.614443	-76.501027	-154.757115
30311	9.572791	-0.306136	-2.261057	-0.008955	-0.017967	0.028249	1.000000	0.000012	0.000024	0.000048	-172.608775	-76.501812	-154.762894
30312	9.575497	-0.300893	-2.284323	0.006617	-0.001585	0.036108	1.000000	0.000004	0.000001	0.000028	-172.615035	-76.500176	-154.756879
30313	9.584591	-0.280080	-2.277390	-0.012155	0.011542	0.042720	1.000000	0.000035	0.000035	0.000056	-172.602388	-76.502097	-154.767131
30314	9.553099	-0.293318	-2.283718	0.006731	0.007046	0.013960	1.000000	0.000006	0.000005	0.000034	-172.605202	-76.500879	-154.765524
30315	9.584679	-0.281849	-2.276803	-0.011870	0.009900	0.042723	1.000000	0.000010	0.000014	0.000047	-172.601150	-76.500500	-154.769915
30316	9.573019	-0.310346	-2.259518	-0.008245	-0.022071	0.028241	1.000000	0.000009	0.000022	0.000031	-172.604159	-76.501231	-154.768472
30317	9.584800	-0.283337	-2.276109	-0.011581	0.008258	0.042724	1.000000	0.000018	0.000014	0.000036	-172.604333	-76.500997	-154.767559
30318	9.584836	-0.284104	-2.275863	-0.011439	0.007439	0.042725	1.000000	-0.000001	0.000011	0.000040	-172.604648	-76.500415	-154.769704
30319	9.533439	-0.281728	-2.306149	0.022714	0.030442	-0.000312	1.000000	0.000034	-0.000000	0.000034	-172.604489	-76.498587	-154.767197
30320	9.584886	-0.285747	-2.275448	-0.011160	0.005795	0.042727	1.000000	0.000013	0.000030	0.000043	-172.600604	-76.500063	-154.769988
30321	9.584967	-0.286383	-2.275026	-0.011015	0.004976	0.042727	1.000000	0.000005	0.000013	0.000019	-172.610366	-76.500000	-154.760687
30322	9.578667	-0.302763	-2.304747	0.023474	0.007406	0.043974	1.000000	0.000012	0.000024	0.000048	-172.604817	-76.500733	-154.765642
30323	9.590470	-0.275913	-2.321299	0.020140	0.037727	0.058475	1.000000	0.000009	0.000016	0.000036	-172.605966	-76.500714	-154.764835
30324	9.576100	-0.310252	-2.280540	0.008318	-0.011439	0.036100	1.000000	0.000017	0.000015	0.000025	-172.611428	-76.500770	-154.757567
30325	9.587902	-0.283254	-2.297133	0.004985	0.018880	0.050605	1.000000	0.000010	0.000020	0.000042	-172.609165	-76.501153	-154.760054
30326	9.582584	-0.295931	-2.249773	-0.025743	-0.016337	0.034852	1.000000	-0.000012	0.000015	0.000029	-172.615760	-76.501148	-154.757327
30327	9.573593	-0.318373	-2.255967	-0.006685	-0.031095	0.028218	1.000000	0.000012	0.000024	0.000048	-172.610086	-76.501933	-154.763108
30328	9.588083	-0.285573	-2.296090	0.005419	0.016414	0.050609	1.000000	0.000008	0.000010	0.000040	-172.609467	-76.501142	-154.765599
30329	9.579063	-0.308125	-2.302388	0.024477	0.001655	0.043974	1.000000	0.000020	0.000018	0.000042	-172.606227	-76.501309	-154.767983
30330	9.553924	-0.305456	-2.278670	0.009001	-0.006059	0.013959	1.000000	0.000018	0.000020	0.000031	-172.608191	-76.501780	-154.764629
30331	9.581884	-0.303619	-2.325178	0.040195	0.017205	0.051857	1.000000	0.000009	0.000016	0.000036	-172.609338	-76.501760	-154.763822
30332	9.554033	-0.306877	-2.278019	0.009282	-0.007696	0.013958	1.000000	0.000009	0.000016	0.000036	-172.610487	-76.501690	-154.762279
30333	9.576586	-0.317076	-2.277559	0.009602	-0.018822	0.036087	1.000000	0.000018	0.000014	0.000036	-172.610656	-76.501455	-154.761370
30334	9.585693	-0.296041	-2.270726	-0.009178	-0.005715	0.042729	1.000000	-0.000003	0.000013	0.000029	-172.616318	-76.501160	-154.755587
30335	9.576672	-0.318374	-2.277018	0.009880	-0.020470	0.036084	1.000000	0.000009	0.000016	0.000036	-172.617463	-76.501140	-154.754781
30336	9.585804	-0.297359	-2.270085	-0.008895	-0.007358	0.042728	1.000000	0.000009	0.000022	0.000031	-172.620430	-76.501837	-154.751826
30337	9.585922	-0.298077	-2.269492	-0.008750	-0.008177	0.042727	1.000000	0.000033	0.000039	0.000034	-172.618178	-76.504473	-154.751679
30338	9.566214	-0.283408	-2.292692	0.006650	0.018502	0.028492	1.000000	-0.000001	0.000011	0.000040	-172.618621	-76.503859	-154.752135
30339	9.586060	-0.299671	-2.268698	-0.008466	-0.009823	0.042726	1.000000	0.000010	0.000020	0.000042	-172.616354	-76.504241	-154.754623
30340	9.563615	-0.290991	-2.268530	-0.008507	-0.000324	0.020601	1.000000	0.000009	0.000016	0.000036	-172.617474	-76.504170	-154.753692
30341	9.566369	-0.285747	-2.291755	0.007076	0.016045	0.028496	1.000000	0.000018	0.000014	0.000036	-172.617640	-76.503934	-154.752784
30342	9.577127	-0.323662	-2.274356	0.010870	-0.026218	0.036069	1.000000	0.000018	0.000014	0.000036	-172.617828	-76.503687	-154.752898
30343	9.570116	-0.277539	-2.237598	-0.042426	-0.006031	0.019360	1.000000	0.000009	0.000016	0.000036	-172.618971	-76.503667	-154.752092
30344	9.591726	-0.291339	-2.314215	0.023119	0.020440	0.058519	1.000000	-0.000021	0.000017	0.000029	-172.626473	-76.503843	-154.747553
30345	9.566574	-0.288531	-2.290550	0.007646	0.012766	0.028501	1.000000	0.000020	0.000018	0.000042	-172.623227	-76.504009	-154.749941
30346	9.563892	-0.295475	-2.266781	-0.007656	-0.005240	0.020600	1.000000	0.000009	0.000008	0.000051	-172.617438	-76.502821	-154.755705
30347	9.586432	-0.305784	-2.266308	-0.007332	-0.016392	0.042718	1.000000	0.000009	0.000022	0.000031	-172.620374	-76.503561	-154.752992
30348	9.544203	-0.281562	-2.289889	0.007894	0.020639	0.006386	1.000000	0.000008	0.000010	0.000040	-172.619785	-76.502775	-154.755299
30349	9.569433	-0.285892	-2.313044	0.023658	0.026665	0.036409	1.000000	0.000017	0.000008	0.000040	-172.618156	-76.501777	-154.756302
30350	9.577414	-0.329861	-2.272255	0.012010	-0.032783	0.036048	1.000000	-0.000011	0.000007	0.000045	-172.617693	-76.500649	-154.760491
30351	9.569484	-0.287577	-2.312628	0.023946	0.025025	0.036412	1.000000	0.000039	0.000020	0.000037	-172.614282	-76.501143	-154.760769
30352	9.589316	-0.303770	-2.288594	0.008824	-0.003321	0.050620	1.000000	-0.000003	0.000013	0.000029	-172.619873	-76.500888	-154.756550
30353	9.589385	-0.304536	-2.288203	0.008968	-0.004141	0.050619	1.000000	0.000032	0.000027	0.000044	-172.614027	-76.502000	-154.760223
30354	9.583964	-0.317412	-2.240949	-0.021774	-0.039318	0.034797	1.000000	0.000024	-0.000005	0.000039	-172.613097	-76.499593	-154.760081
30355	9.598516	-0.284627	-2.281254	-0.009655	0.008141	0.057291	1.000000	0.000010	0.000020	0.000042	-172.610825	-76.499974	-154.762571
30356	9.601311	-0.279417	-2.304377	0.005927	0.024494	0.065205	1.000000	0.000019	0.000020	0.000031	-172.612756	-76.500467	-154.760106
30357	9.567058	-0.298283	-2.287275	0.009357	0.002926	0.028507	1.000000	0.000009	0.000016	0.000036	-172.613895	-76.500446	-154.759303
30358	9.589606	-0.308568	-2.286734	0.009679	-0.008252	0.050616	1.000000	0.000010	0.000020	0.000042	-172.611691	-76.500788	-154.761689
30359	9.560799	-0.315649	-2.316663	0.043992	0.004532	0.029745	1.000000	0.000000	0.000016	0.000047	-172.608603	-76.500625	-154.766189
30360	9.573591	-0.284872	-2.256227	-0.024574	-0.002787	0.027269	1.000000	0.000005	0.000013	0.000019	-172.618386	-76.500507	-154.756267
30361	9.576345	-0.279623	-2.279553	-0.008986	0.013567	0.035189	1.000000	0.000019	0.000006	0.000051	-172.611548	-76.499149	-154.762474
30362	9.581833	-0.268575	-2.326367	0.022038	0.047084	0.051031	1.000000	0.000009	0.000016	0.000036	-172.612726	-76.499084	-154.761451
30363	9.570033	-0.296909	-2.309171	0.025648	0.015172	0.036428	1.000000	0.000016	0.000009	0.000030	-172.616298	-76.498444	-154.757253
30364	9.592581	-0.307119	-2.308624	0.025976	0.003984	0.058533	1.000000	0.000011	0.000026	0.000037	-172.615852	-76.499575	-154.759209
30365	9.579284	-0.276761	-2.301829	0.007029	0.027453	0.043117	1.000000	0.000020	0.000018	0.000042	-172.612599	-76.499740	-154.761600
30366	9.580887	-0.336428	-2.290808	0.029718	-0.028749	0.043918	1.000000	0.000011	0.000026	0.000037	-172.612090	-76.500817	-154.761563
30367	9.567571	-0.305854	-2.284126	0.010771	-0.005277	0.028505	1.000000	0.000005	0.000007	0.000023	-172.620052	-76.499992	-154.754171
30368	9.590100	-0.316006	-2.283645	0.011092	-0.016468	0.050604	1.000000	0.000001	0.000022	0.000042	-172.618675	-76.500544	-154.756849
30369	9.576782	-0.285537	-2.276981	-0.007855	0.007006	0.035197	1.000000	0.000016	0.000009	0.000030	-172.622244	-76.499904	-154.752652
30370	9.602071	-0.289768	-2.299927	0.007911	0.012971	0.065226	1.000000	0.000002	0.000028	0.000037	-172.622750	-76.501206	-154.752644
30371	9.576937	-0.286916	-2.276156	-0.007575	0.005365	0.035198	1.000000	0.000019	0.000020	0.000031	-172.624700	-76.501729	-154.749832
30372	9.577011	-0.287660	-2.275751	-0.007437	0.004545	0.035198	1.000000	0.000001	0.000022	0.000042	-172.623356	-76.502287	-154.752685
30373	9.567949	-0.310121	-2.281968	0.011614	-0.010192	0.028500	1.000000	0.000018	0.000014	0.000036	-172.623512	-76.502049	-154.751783
30374	9.565228	-0.316789	-2.258250	-0.003695	-0.028175	0.020564	1.000000	-0.000003	0.000007	0.000034	-172.627239	-76.501032	-154.749335
30375	9.577144	-0.289960	-2.274898	-0.007011	0.002085	0.035200	1.000000	0.000012	0.000024	0.000048	-172.621547	-76.501815	-154.755123
30376	9.579959	-0.284676	-2.298049	0.008577	0.018422	0.043137	1.000000	0.000005	0.000013	0.000019	-172.631387	-76.501725	-154.746557
30377	9.574513	-0.297240	-2.250715	-0.022171	-0.016716	0.027261	1.000000	0.000020	0.000018	0.000042	-172.628129	-76.501889	-154.748951
30378	9.570949	-0.307860	-2.303934	0.027764	0.002863	0.036434	1.000000	0.000010	0.000020	0.000042	-172.625857	-76.502219	-154.751093
30379	9.583789	-0.277139	-2.243317	-0.040795	-0.004441	0.033967	1.000000	0.000010	0.000028	0.000026	-172.630579	-76.503719	-154.746472
30380	9.568345	-0.315222	-2.279609	0.012598	-0.015934	0.028491	1.000000	0.000017	0.000008	0.000040	-172.628895	-76.502667	-154.746948
30381	9.580292	-0.288464	-2.296188	0.009284	0.014319	0.043143	1.000000	0.000013	0.000030	0.000043	-172.624995	-76.504211	-154.750827
30382	9.580370	-0.289402	-2.295746	0.009422	0.013499	0.043144	1.000000	0.000039	0.000014	0.000042	-172.619718	-76.503902	-154.753266
30383	9.568523	-0.317881	-2.278492	0.013025	-0.018389	0.028486	1.000000	0.000009	0.000016	0.000036	-172.620851	-76.503881	-154.752466
30384	9.580482	-0.290936	-2.295083	0.009706	0.011854	0.043146	1.000000	0.000009	0.000022	0.000031	-172.623843	-76.504579	-154.749687
30385	9.593867	-0.322871	-2.301118	0.028945	-0.013281	0.058516	1.000000	0.000008	0.000010	0.000040	-172.623181	-76.503797	-154.750797
30386	9.552570	-0.294815	-2.247741	-0.021097	-0.013687	0.005164	1.000000	0.000018	0.000014	0.000036	-172.623309	-76.503511	-154.749877
30387	9.568703	-0.320839	-2.277320	0.013589	-0.021670	0.028479	1.000000	0.000018	0.000014	0.000036	-172.623461	-76.503272	-154.748978
30388	9.558187	-0.284503	-2.294185	0.010079	0.018980	0.021066	1.000000	0.000020	0.000018	0.000042	-172.620195	-76.503380	-154.750667
30389	9.577938	-0.300919	-2.270130	-0.005034	-0.009400	0.035196	1.000000	0.000010	0.000014	0.000047	-172.616118	-76.503000	-154.755074
30390	9.603225	-0.305329	-2.293088	0.010747	-0.003487	0.065231	1.000000	0.000019	0.000020	0.000031	-172.618161	-76.503492	-154.752707
30391	9.571134	-0.255494	-2.232931	-0.058195	0.010042	0.018609	1.000000	0.000002	0.000028	0.000037	-172.618651	-76.504852	-154.753391
30392	9.583659	-0.291469	-2.316068	0.026294	0.022433	0.051107	1.000000	0.000038	0.000002	0.000052	-172.609877	-76.503045	-154.760424
30393	9.564786	-0.273002	-2.262668	-0.023555	0.011646	0.019842	1.000000	0.000004	0.000001	0.000028	-172.616043	-76.501459	-154.754944
30394	9.561230	-0.283495	-2.315953	0.026387	0.031212	0.029033	1.000000	0.000013	0.000030	0.000043	-172.612110	-76.502972	-154.759176
30395	9.567686	-0.268692	-2.285451	-0.007821	0.027156	0.027805	1.000000	0.000010	0.000014	0.000047	-172.608031	-76.502592	-154.763582
30396	9.575481	-0.312660	-2.244499	-0.019487	-0.032292	0.027228	1.000000	-0.000001	0.000011	0.000040	-172.608445	-76.501979	-154.764351
30397	9.555816	-0.297941	-2.268045	-0.004085	-0.005539	0.013114	1.000000	0.000008	0.000010	0.000040	-172.607780	-76.501197	-154.765462
30398	9.581081	-0.302327	-2.291109	0.011696	0.000354	0.043151	1.000000	-0.000011	0.000013	0.000040	-172.609154	-76.500802	-154.766600
30399	9.564181	-0.281642	-2.338245	0.042548	0.044251	0.037008	1.000000	0.000034	-0.000001	0.000034	-172.608961	-76.498962	-154.764121
30400	9.555864	-0.300413	-2.267514	-0.003663	-0.008000	0.013112	1.000000	0.000012	0.000018	0.000053	-172.601517	-76.498950	-154.772343
30401	9.567851	-0.273619	-2.284172	-0.006970	0.022230	0.027818	1.000000	-0.000003	0.000013	0.000029	-172.607040	-76.498745	-154.768347
30402	9.572005	-0.327213	-2.296872	0.031165	-0.016839	0.036409	1.000000	-0.000002	0.000005	0.000045	-172.605628	-76.497371	-154.771247
30403	9.587575	-0.290628	-2.260040	-0.021944	-0.006990	0.041922	1.000000	0.000009	0.000016	0.000036	-172.606755	-76.497349	-154.770449
30404	9.567936	-0.275879	-2.283547	-0.006542	0.019770	0.027824	1.000000	0.000008	0.000010	0.000040	-172.606084	-76.496570	-154.773105
30405	9.582108	-0.303959	-2.212399	-0.052559	-0.042904	0.025976	1.000000	0.000010	0.000028	0.000026	-172.610796	-76.498070	-154.768488
30406	9.578575	-0.314392	-2.265609	-0.002623	-0.023356	0.035174	1.000000	-0.000001	0.000011	0.000040	-172.611110	-76.497415	-154.768052
30407	9.549805	-0.321186	-2.295543	0.031679	-0.010495	0.014333	1.000000	0.000010	0.000028	0.000026	-172.615822	-76.498915	-154.763435
30408	9.593415	-0.282243	-2.305491	0.009668	0.023179	0.057871	1.000000	0.000034	-0.000007	0.000039	-172.613872	-76.496301	-154.763215
30409	9.601117	-0.326088	-2.264700	-0.001995	-0.036263	0.057233	1.000000	-0.000003	0.000013	0.000029	-172.619392	-76.496096	-154.759221
30410	9.584265	-0.305334	-2.311770	0.028850	0.007634	0.051123	1.000000	0.000017	0.000008	0.000041	-172.617713	-76.495041	-154.759511
30411	9.584299	-0.306211	-2.311513	0.028995	0.006814	0.051123	1.000000	0.000020	0.000018	0.000042	-172.614442	-76.495202	-154.761911
30412	9.575195	-0.328717	-2.317651	0.048031	-0.007912	0.044368	1.000000	0.000020	0.000024	0.000037	-172.613019	-76.496062	-154.761840
30413	9.562007	-0.298197	-2.310894	0.029079	0.015623	0.029062	1.000000	0.000009	0.000022	0.000031	-172.615936	-76.496801	-154.759133
30414	9.590938	-0.292769	-2.280087	-0.004947	0.001110	0.049898	1.000000	0.000030	0.000028	0.000033	-172.615196	-76.498178	-154.756010
30415	9.587476	-0.303342	-2.333040	0.045004	0.020656	0.059108	1.000000	0.000013	0.000036	0.000039	-172.613077	-76.500481	-154.757982
30416	9.540677	-0.286989	-2.232388	-0.035969	-0.013874	-0.010190	1.000000	0.000028	0.000018	0.000031	-172.614002	-76.500720	-154.754682
30417	9.584884	-0.310719	-2.308483	0.029831	0.001881	0.051123	1.000000	0.000002	0.000034	0.000032	-172.616280	-76.502840	-154.753456
30418	9.591356	-0.295698	-2.277950	-0.004375	-0.002172	0.049898	1.000000	0.000018	0.000014	0.000036	-172.616411	-76.502618	-154.754174
30419	9.556946	-0.314404	-2.261050	-0.000983	-0.023550	0.013088	1.000000	0.000006	0.000005	0.000034	-172.619155	-76.501434	-154.751993
30420	9.591405	-0.297130	-2.277558	-0.004097	-0.003816	0.049897	1.000000	0.000009	0.000016	0.000036	-172.620255	-76.501340	-154.750431
30421	9.566222	-0.294136	-2.253933	-0.019605	-0.011293	0.019851	1.000000	0.000009	0.000022	0.000031	-172.623172	-76.502078	-154.747723
30422	9.594306	-0.292568	-2.300492	0.011644	0.011669	0.057890	1.000000	-0.000004	0.000001	0.000039	-172.625113	-76.500332	-154.747775
30423	9.569104	-0.289529	-2.276953	-0.003865	0.004197	0.027844	1.000000	0.000010	0.000028	0.000026	-172.629824	-76.501831	-154.743155
30424	9.581151	-0.262507	-2.293640	-0.007168	0.034396	0.042612	1.000000	0.000004	0.000001	0.000028	-172.635958	-76.500223	-154.738137
30425	9.549510	-0.275361	-2.300379	0.011675	0.030162	0.013791	1.000000	0.000019	0.000006	0.000051	-172.629092	-76.498862	-154.744364
30426	9.591610	-0.301402	-2.276132	-0.003244	-0.008742	0.049895	1.000000	0.000009	0.000016	0.000036	-172.630201	-76.498779	-154.742890
30427	9.552397	-0.271055	-2.323381	0.027409	0.045647	0.021794	1.000000	0.000009	0.000016	0.000036	-172.631321	-76.498757	-154.742095
30428	9.560100	-0.314882	-2.282218	0.015727	-0.013797	0.021067	1.000000	0.000002	0.000028	0.000037	-172.631797	-76.500015	-154.740945
30429	9.581394	-0.266454	-2.292170	-0.006471	0.030289	0.042626	1.000000	0.000011	0.000020	0.000042	-172.629502	-76.500394	-154.743446
30430	9.572282	-0.288992	-2.298249	0.012568	0.015581	0.035848	1.000000	0.000022	0.000028	0.000044	-172.624518	-76.501698	-154.747765
30431	9.594798	-0.299442	-2.297554	0.012916	0.004273	0.057894	1.000000	0.000009	0.000016	0.000036	-172.625637	-76.501675	-154.746971
30432	9.572443	-0.290630	-2.297372	0.012849	0.013942	0.035850	1.000000	0.000013	0.000030	0.000043	-172.621653	-76.503170	-154.750705
30433	9.592186	-0.306934	-2.272966	-0.002259	-0.014488	0.049888	1.000000	0.000002	0.000034	0.000032	-172.623928	-76.505291	-154.749478
30434	9.592301	-0.307633	-2.272386	-0.002119	-0.015315	0.049887	1.000000	0.000011	0.000026	0.000037	-172.623536	-76.506388	-154.750021
30435	9.589569	-0.314338	-2.248378	-0.017430	-0.033253	0.041877	1.000000	0.000020	0.000024	0.000037	-172.622048	-76.507307	-154.750516
30436	9.572842	-0.293750	-2.295310	0.013420	0.010659	0.035853	1.000000	0.000010	0.000014	0.000047	-172.617942	-76.506903	-154.755335
30437	9.567208	-0.306416	-2.248104	-0.017349	-0.024392	0.019832	1.000000	0.000016	0.000003	0.000034	-172.619699	-76.505498	-154.753062
30438	9.556834	-0.269955	-2.265156	-0.020851	0.016292	0.012595	1.000000	0.000009	0.000016	0.000036	-172.620820	-76.505460	-154.752707
30439	9.607381	-0.278288	-2.311405	0.010617	0.028698	0.072700	1.000000	0.000038	0.000008	0.000047	-172.613773	-76.504418	-154.756838
30440	9.567311	-0.308759	-2.247344	-0.016923	-0.026849	0.019826	1.000000	-0.000001	0.000025	0.000020	-172.622915	-76.505703	-154.749165
30441	9.604713	-0.285609	-2.287049	-0.004554	0.009937	0.064688	1.000000	0.000032	0.000027	0.000044	-172.617023	-76.506804	-154.752864
30442	9.579491	-0.282846	-2.263525	-0.020080	0.002510	0.034637	1.000000	0.000017	0.000002	0.000045	-172.613552	-76.504994	-154.755460
30443	9.579530	-0.283700	-2.263253	-0.019935	0.001692	0.034637	1.000000	0.000011	0.000026	0.000037	-172.613045	-76.506134	-154.756052
30444	9.602017	-0.294129	-2.262628	-0.019594	-0.009643	0.056671	1.000000	0.000008	0.000010	0.000040	-172.612331	-76.505290	-154.756410
30445	9.592814	-0.316580	-2.268987	-0.000554	-0.024346	0.049869	1.000000	0.000008	0.000010	0.000040	-172.611652	-76.504507	-154.757531
30446	9.570412	-0.307748	-2.269052	-0.000619	-0.014652	0.027835	1.000000	0.000027	0.000012	0.000036	-172.610808	-76.504021	-154.756925
30447	9.579667	-0.286794	-2.262286	-0.019370	-0.001588	0.034638	1.000000	-0.000022	0.000011	0.000034	-172.616499	-76.503499	-154.755033
30448	9.583618	-0.340356	-2.275108	0.018767	-0.040692	0.043056	1.000000	0.000003	-0.000011	0.000037	-172.619074	-76.500359	-154.753713
30449	9.557156	-0.278692	-2.262738	-0.019293	0.007294	0.012609	1.000000	0.000026	-0.000006	0.000050	-172.612837	-76.497614	-154.758469
30450	9.592684	-0.320512	-2.268984	0.000167	-0.028448	0.049858	1.000000	0.000001	-0.000022	0.000036	-172.617022	-76.493382	-154.757281
30451	9.582270	-0.284010	-2.286394	-0.003330	0.012244	0.042666	1.000000	0.000006	0.000005	0.000034	-172.619757	-76.492198	-154.755107
30452	9.570188	-0.312276	-2.269376	0.000236	-0.019564	0.027826	1.000000	0.000006	-0.000001	0.000039	-172.620655	-76.490177	-154.753438
30453	9.598267	-0.310875	-2.316104	0.031509	0.003297	0.065911	1.000000	0.000016	0.000003	0.000034	-172.622404	-76.488772	-154.751170
30454	9.573044	-0.307913	-2.292608	0.015976	-0.004102	0.035854	1.000000	0.000030	0.000022	0.000037	-172.619950	-76.489406	-154.750725
30455	9.585139	-0.281129	-2.309412	0.012687	0.026060	0.050702	1.000000	0.000004	-0.000005	0.000033	-172.624304	-76.487059	-154.747171
30456	9.573071	-0.309347	-2.292305	0.016250	-0.005747	0.035853	1.000000	0.000028	0.000018	0.000031	-172.625257	-76.487253	-154.742709
30457	9.575983	-0.304128	-2.315435	0.031855	0.010536	0.043887	1.000000	0.000009	0.000022	0.000031	-172.628162	-76.487990	-154.740007
30458	9.585309	-0.283050	-2.308471	0.013107	0.023591	0.050708	1.000000	0.000017	0.000021	0.000020	-172.635313	-76.488871	-154.733266
30459	9.582543	-0.289609	-2.284547	-0.002208	0.005671	0.042672	1.000000	0.000011	0.000020	0.000042	-172.633010	-76.489249	-154.735768
30460	9.576218	-0.306193	-2.314193	0.032282	0.008078	0.043888	1.000000	0.000030	0.000022	0.000037	-172.630394	-76.489905	-154.735616
30461	9.566686	-0.265869	-2.253887	-0.036493	0.011354	0.019439	1.000000	0.000011	0.000026	0.000037	-172.629884	-76.491044	-154.736207
30462	9.569635	-0.260651	-2.276902	-0.020887	0.027638	0.027482	1.000000	0.000019	0.000026	0.000026	-172.633540	-76.492323	-154.732511
30463	9.585700	-0.286802	-2.306384	0.013823	0.019495	0.050716	1.000000	0.000008	0.000003	0.000045	-172.631061	-76.490779	-154.735547
30464	9.580016	-0.299317	-2.259183	-0.016953	-0.015518	0.034631	1.000000	-0.000003	0.000013	0.000029	-172.636626	-76.490588	-154.732795
30465	9.563355	-0.278580	-2.306211	0.013905	0.028405	0.028703	1.000000	0.000020	0.000018	0.000042	-172.633335	-76.490745	-154.735205
30466	9.582955	-0.295003	-2.282126	-0.001204	-0.000062	0.042674	1.000000	0.000008	0.000010	0.000040	-172.632661	-76.489944	-154.736764
30467	9.560555	-0.286074	-2.282275	-0.001271	0.009673	0.020661	1.000000	0.000006	0.000005	0.000034	-172.635391	-76.488759	-154.734595
30468	9.588663	-0.284699	-2.328976	0.030012	0.032480	0.058770	1.000000	0.000006	-0.000001	0.000039	-172.636414	-76.486801	-154.734916
30469	9.560528	-0.287552	-2.282202	-0.000982	0.008034	0.020662	1.000000	0.000016	0.000003	0.000034	-172.638157	-76.485395	-154.732654
30470	9.573697	-0.319756	-2.288259	0.018256	-0.017220	0.035836	1.000000	-0.000008	0.000016	0.000057	-172.630822	-76.485029	-154.741773
30471	9.585872	-0.293266	-2.304852	0.014973	0.012922	0.050725	1.000000	0.000012	0.000024	0.000048	-172.625101	-76.485809	-154.747569
30472	9.583096	-0.299965	-2.280885	-0.000356	-0.004997	0.042673	1.000000	0.000009	0.000022	0.000031	-172.628102	-76.486470	-154.743785
30473	9.583165	-0.300732	-2.280496	-0.000211	-0.005816	0.042673	1.000000	0.000020	0.000018	0.000042	-172.624809	-76.486627	-154.746196
30474	9.586126	-0.295695	-2.303485	0.015388	0.010452	0.050727	1.000000	0.000014	0.000036	0.000039	-172.622606	-76.488874	-154.747751
30475	9.599407	-0.327837	-2.309030	0.034638	-0.014806	0.065890	1.000000	0.000023	0.000034	0.000039	-172.619482	-76.490953	-154.749633
30476	9.571416	-0.330804	-2.261559	0.003634	-0.039233	0.027767	1.000000	0.000015	0.000041	0.000045	-172.613909	-76.493616	-154.754946
30477	9.552020	-0.316027	-2.284679	0.019028	-0.012391	0.013818	1.000000	0.000012	0.000032	0.000033	-172.615185	-76.495514	-154.753628
30478	9.580951	-0.310750	-2.253665	-0.014971	-0.027003	0.034609	1.000000	0.000023	0.000034	0.000039	-172.612038	-76.497576	-154.755929
30479	9.603455	-0.321106	-2.252834	-0.014611	-0.038398	0.056610	1.000000	-0.000002	0.000019	0.000025	-172.619342	-76.498134	-154.750024
30480	9.593272	-0.284458	-2.269729	-0.018120	0.002306	0.049519	1.000000	0.000009	0.000022	0.000031	-172.622192	-76.498792	-154.746022
30481	9.581213	-0.312766	-2.252274	-0.014550	-0.029463	0.034603	1.000000	0.000032	0.000026	0.000044	-172.616282	-76.499887	-154.749729
30482	9.571013	-0.276482	-2.269228	-0.018054	0.011248	0.027520	1.000000	0.000018	0.000008	0.000041	-172.614532	-76.498837	-154.750361
30483	9.548637	-0.267502	-2.269355	-0.018126	0.021014	0.005522	1.000000	0.000007	0.000011	0.000030	-172.619055	-76.498412	-154.746278
30484	9.584186	-0.309237	-2.275060	0.001342	-0.014839	0.042663	1.000000	0.000008	0.000010	0.000040	-172.618418	-76.497628	-154.748235
30485	9.558973	-0.306086	-2.251492	-0.014196	-0.022152	0.012595	1.000000	0.000010	0.000028	0.000026	-172.623111	-76.499125	-154.743621
30486	9.593575	-0.288943	-2.267882	-0.017262	-0.002621	0.049521	1.000000	-0.000004	0.000001	0.000039	-172.625110	-76.497361	-154.743355
30487	9.561944	-0.301485	-2.274458	0.001554	-0.006712	0.020663	1.000000	0.000010	0.000028	0.000026	-172.629804	-76.498858	-154.738740
30488	9.600086	-0.274527	-2.237183	-0.051333	-0.007480	0.048312	1.000000	0.000008	0.000010	0.000040	-172.629120	-76.498040	-154.739628
30489	9.593679	-0.291081	-2.267170	-0.016833	-0.005083	0.049521	1.000000	0.000015	-0.000003	0.000039	-172.629063	-76.495872	-154.739283
30490	9.571303	-0.282285	-2.267291	-0.016917	0.004690	0.027527	1.000000	0.000022	0.000022	0.000048	-172.622327	-76.496364	-154.744094
30491	9.590208	-0.302745	-2.320320	0.033269	0.013566	0.058804	1.000000	-0.000004	0.000001	0.000039	-172.624245	-76.494641	-154.743932
30492	9.574206	-0.278016	-2.290538	-0.001164	0.020128	0.035605	1.000000	0.000016	0.000003	0.000034	-172.625989	-76.493211	-154.742084
30493	9.587312	-0.310143	-2.296640	0.018088	-0.005153	0.050727	1.000000	0.000018	0.000008	0.000041	-172.624309	-76.492204	-154.743120
30494	9.593737	-0.295240	-2.266386	-0.016133	-0.009193	0.049519	1.000000	0.000028	0.000012	0.000036	-172.623423	-76.491668	-154.741237
30495	9.584454	-0.317708	-2.272764	0.002900	-0.023871	0.042645	1.000000	0.000008	0.000003	0.000045	-172.620936	-76.490124	-154.744278
30496	9.574297	-0.281398	-2.289744	-0.000595	0.016846	0.035611	1.000000	0.000013	0.000030	0.000043	-172.617047	-76.491664	-154.748669
30497	9.567971	-0.297861	-2.319379	0.033906	0.019243	0.036820	1.000000	-0.000003	0.000013	0.000029	-172.622552	-76.491462	-154.744680
30498	9.587518	-0.314014	-2.295254	0.018793	-0.009263	0.050723	1.000000	0.000017	0.000015	0.000025	-172.627862	-76.491506	-154.737695
30499	9.570972	-0.293274	-2.342292	0.049652	0.034672	0.044907	1.000000	0.000020	0.000018	0.000042	-172.624557	-76.491661	-154.740114
30500	9.596949	-0.293965	-2.287958	0.000193	0.002946	0.057601	1.000000	0.000011	0.000026	0.000037	-172.624135	-76.492771	-154.740993
30501	9.574675	-0.284952	-2.287722	0.000116	0.012743	0.035618	1.000000	0.000012	0.000032	0.000033	-172.625406	-76.494668	-154.739675
30502	9.577682	-0.279830	-2.310697	0.015720	0.028987	0.043708	1.000000	0.000021	0.000024	0.000037	-172.623915	-76.495519	-154.739630
30503	9.597266	-0.296199	-2.286339	0.000618	0.000479	0.057601	1.000000	0.000002	0.000028	0.000037	-172.624379	-76.496879	-154.740318
30504	9.584296	-0.265661	-2.279575	-0.018354	0.024130	0.042507	1.000000	0.000013	0.000030	0.000043	-172.620452	-76.498368	-154.743692
30505	9.575077	-0.288161	-2.285636	0.000678	0.009458	0.035621	1.000000	0.000020	0.000018	0.000042	-172.617143	-76.498522	-154.746113
30506	9.575175	-0.288925	-2.285131	0.000819	0.008634	0.035622	1.000000	0.000002	0.000034	0.000032	-172.619475	-76.500608	-154.744776
30507	9.543594	-0.301589	-2.291439	0.019626	0.004592	0.006754	1.000000	0.000012	0.000024	0.000048	-172.613732	-76.501387	-154.750586
30508	9.575348	-0.290499	-2.284206	0.001111	0.007002	0.035623	1.000000	-0.000003	0.000013	0.000029	-172.619154	-76.501214	-154.747736
30509	9.588448	-0.322534	-2.290181	0.020366	-0.018300	0.050707	1.000000	0.000008	0.000010	0.000040	-172.618456	-76.500430	-154.748867
30510	9.575399	-0.291995	-2.283800	0.001400	0.005365	0.035624	1.000000	0.000008	0.000010	0.000040	-172.617723	-76.499645	-154.750619
30511	9.563178	-0.320311	-2.266683	0.004960	-0.026366	0.020629	1.000000	0.000008	0.000003	0.000045	-172.615230	-76.498101	-154.753665
30512	9.566092	-0.315309	-2.290075	0.020579	-0.010122	0.028727	1.000000	0.000008	0.000010	0.000040	-172.614566	-76.497341	-154.755884
30513	9.597817	-0.304148	-2.282981	0.002064	-0.007730	0.057598	1.000000	-0.000002	0.000013	0.000029	-172.620070	-76.497139	-154.751894
30514	9.566140	-0.316524	-2.289704	0.020862	-0.011760	0.028725	1.000000	-0.000005	0.000003	0.000028	-172.627164	-76.495741	-154.746509
30515	9.578377	-0.289754	-2.306589	0.017594	0.018329	0.043730	1.000000	0.000018	0.000008	0.000041	-172.625475	-76.494733	-154.747551
30516	9.575463	-0.296490	-2.282955	0.002252	0.000449	0.035626	1.000000	0.000008	0.000003	0.000045	-172.622887	-76.493105	-154.749295
30517	9.575493	-0.297281	-2.282725	0.002397	-0.000369	0.035626	1.000000	0.000019	0.000020	0.000031	-172.624787	-76.493617	-154.746508
30518	9.566242	-0.319474	-2.288868	0.021426	-0.015037	0.028719	1.000000	0.000027	0.000019	0.000020	-172.630968	-76.494261	-154.738917
30519	9.569223	-0.314239	-2.312043	0.037043	0.001200	0.036827	1.000000	0.000009	0.000016	0.000036	-172.632063	-76.494237	-154.738135
30520	9.575728	-0.299432	-2.281459	0.002825	-0.002824	0.035625	1.000000	0.000017	0.000039	0.000056	-172.621115	-76.496553	-154.749063
30521	9.575868	-0.300322	-2.280754	0.002970	-0.003643	0.035625	1.000000	0.000002	0.000034	0.000032	-172.623367	-76.498674	-154.747837
30522	9.550669	-0.296996	-2.257103	-0.012588	-0.010863	0.005547	1.000000	0.000017	0.000015	0.000025	-172.628743	-76.498763	-154.741952
30523	9.578964	-0.295725	-2.303391	0.018730	0.011769	0.043738	1.000000	0.000011	0.000026	0.000037	-172.628211	-76.499900	-154.742552
30524	9.550827	-0.298374	-2.256254	-0.012299	-0.012497	0.005545	1.000000	0.000019	0.000020	0.000031	-172.630162	-76.500412	-154.740563
30525	9.576209	-0.303108	-2.278950	0.003547	-0.006923	0.035623	1.000000	0.000023	0.000028	0.000044	-172.625219	-76.501726	-154.744371
30526	9.566186	-0.266699	-2.295850	0.000053	0.033820	0.028696	1.000000	-0.000001	0.000018	0.000036	-172.627161	-76.501930	-154.744136
30527	9.559848	-0.283235	-2.325531	0.034555	0.036208	0.029899	1.000000	0.000039	0.000020	0.000037	-172.623659	-76.502394	-154.744470
30528	9.602249	-0.305310	-2.223869	-0.045627	-0.040290	0.048260	1.000000	-0.000002	0.000013	0.000029	-172.629016	-76.502188	-154.740918
30529	9.578634	-0.241588	-2.311839	-0.002923	0.062260	0.043747	1.000000	0.000012	0.000018	0.000053	-172.621468	-76.502206	-154.748650
30530	9.579396	-0.301342	-2.300863	0.019735	0.006041	0.043741	1.000000	0.000015	-0.000003	0.000039	-172.621329	-76.500014	-154.748521
30531	9.588730	-0.280568	-2.294263	0.000999	0.019063	0.050666	1.000000	0.000008	0.000010	0.000041	-172.620624	-76.499230	-154.749656
30532	9.572813	-0.255718	-2.264327	-0.033446	0.025713	0.027513	1.000000	0.000017	0.000015	0.000025	-172.625892	-76.499322	-154.743594
30533	9.576534	-0.309432	-2.276735	0.004691	-0.013461	0.035616	1.000000	0.000010	0.000014	0.000047	-172.621765	-76.498939	-154.748028
30534	9.588862	-0.282899	-2.293426	0.001431	0.016604	0.050670	1.000000	-0.000009	0.000018	0.000047	-172.619623	-76.499008	-154.753301
30535	9.583016	-0.295544	-2.246126	-0.029376	-0.018302	0.034415	1.000000	0.000038	0.000008	0.000047	-172.612526	-76.497951	-154.757468
30536	9.588879	-0.284897	-2.293106	0.001716	0.014963	0.050673	1.000000	0.000007	-0.000003	0.000050	-172.608191	-76.495619	-154.762437
30537	9.592523	-0.338769	-2.305726	0.039853	-0.024217	0.058759	1.000000	0.000008	0.000010	0.000041	-172.607485	-76.494834	-154.763573
30538	9.554258	-0.304087	-2.276142	0.005176	-0.006873	0.013658	1.000000	0.000008	0.000017	0.000025	-172.613802	-76.495153	-154.757724
30539	9.596068	-0.330206	-2.251644	-0.009694	-0.046103	0.049424	1.000000	0.000018	0.000008	0.000041	-172.612106	-76.494143	-154.758772
30540	9.567320	-0.336968	-2.281843	0.024572	-0.033034	0.028668	1.000000	0.000018	0.000014	0.000036	-172.612198	-76.493866	-154.757723
30541	9.576721	-0.316130	-2.275029	0.005836	-0.020015	0.035604	1.000000	0.000009	0.000016	0.000036	-172.613285	-76.493841	-154.756945
30542	9.592694	-0.342391	-2.304479	0.040567	-0.028323	0.058745	1.000000	0.000026	0.000007	0.000030	-172.615749	-76.492952	-154.752753
30543	9.592065	-0.284290	-2.314973	0.018198	0.026258	0.058818	1.000000	0.000002	0.000028	0.000037	-172.616201	-76.494314	-154.753444
30544	9.560445	-0.296746	-2.321389	0.036988	0.022297	0.029931	1.000000	0.000009	0.000022	0.000031	-172.619076	-76.495037	-154.751354
30545	9.586335	-0.297318	-2.267059	-0.012469	-0.009455	0.042541	1.000000	0.000028	0.000018	0.000031	-172.619976	-76.495322	-154.748484
30546	9.569902	-0.276511	-2.314306	0.018399	0.034494	0.036880	1.000000	0.000014	-0.000001	0.000028	-172.625128	-76.493511	-154.743662
30547	9.586368	-0.298647	-2.266742	-0.012180	-0.011094	0.042540	1.000000	0.000009	0.000016	0.000036	-172.626214	-76.493486	-154.742884
30548	9.564104	-0.289536	-2.266652	-0.012286	-0.001215	0.020597	1.000000	0.000012	0.000032	0.000033	-172.627389	-76.495276	-154.740291
30549	9.586563	-0.299985	-2.265741	-0.011908	-0.012737	0.042538	1.000000	0.000000	0.000024	0.000031	-172.631261	-76.496236	-154.737684
30550	9.570173	-0.279239	-2.312859	0.018957	0.031210	0.036890	1.000000	0.000018	0.000008	0.000041	-172.629602	-76.495199	-154.738882
30551	9.589582	-0.295549	-2.288814	0.003857	0.002652	0.050683	1.000000	0.000005	0.000007	0.000023	-172.637528	-76.494372	-154.731513
30552	9.592605	-0.290405	-2.311975	0.019472	0.018858	0.058832	1.000000	0.000013	0.000030	0.000043	-172.633562	-76.495846	-154.734873
30553	9.599070	-0.275379	-2.281624	-0.014741	0.014838	0.057640	1.000000	0.000004	0.000001	0.000028	-172.639692	-76.494259	-154.729421
30554	9.567353	-0.287823	-2.288423	0.004049	0.010895	0.028747	1.000000	0.000008	0.000010	0.000041	-172.639128	-76.493469	-154.731383
30555	9.589728	-0.298352	-2.287840	0.004429	-0.000639	0.050684	1.000000	0.000007	0.000011	0.000030	-172.643633	-76.493042	-154.727311
30556	9.570341	-0.283412	-2.311656	0.019816	0.026285	0.036902	1.000000	0.000015	-0.000003	0.000039	-172.643553	-76.490858	-154.727357
30557	9.570349	-0.284184	-2.311528	0.019961	0.025466	0.036904	1.000000	0.000009	0.000016	0.000036	-172.644636	-76.490833	-154.726580
30558	9.570412	-0.284888	-2.311182	0.020112	0.024648	0.036906	1.000000	0.000019	0.000020	0.000031	-172.646558	-76.491372	-154.725083
30559	9.576872	-0.269796	-2.280875	-0.014101	0.020633	0.035715	1.000000	-0.000003	0.000007	0.000034	-172.650256	-76.490412	-154.723016
30560	9.599233	-0.280356	-2.280331	-0.013716	0.009087	0.057648	1.000000	0.000008	0.000010	0.000041	-172.649636	-76.489638	-154.724992
30561	9.612251	-0.312664	-2.286113	0.005542	-0.016288	0.072612	1.000000	0.000032	0.000026	0.000044	-172.643690	-76.490724	-154.728715
30562	9.570574	-0.288118	-2.310107	0.020683	0.021363	0.036912	1.000000	0.000008	0.000003	0.000045	-172.641192	-76.489101	-154.731143
30563	9.567654	-0.294856	-2.286270	0.005345	0.003523	0.028752	1.000000	0.000023	0.000028	0.000044	-172.636238	-76.490413	-154.734954
30564	9.548369	-0.280094	-2.309710	0.020729	0.030456	0.014988	1.000000	0.000011	0.000020	0.000042	-172.633877	-76.490752	-154.737479
30565	9.605473	-0.273263	-2.325567	0.017956	0.039016	0.073980	1.000000	0.000020	0.000018	0.000042	-172.630545	-76.490903	-154.739913
30566	9.596645	-0.291522	-2.254521	-0.028366	-0.012875	0.049487	1.000000	0.000021	0.000030	0.000033	-172.630838	-76.492442	-154.736786
30567	9.567972	-0.298159	-2.284509	0.005898	0.000238	0.028752	1.000000	0.000009	0.000016	0.000036	-172.631919	-76.492416	-154.736011
30568	9.561663	-0.314723	-2.313990	0.040388	0.002607	0.029943	1.000000	0.000006	0.000043	0.000045	-172.627357	-76.495256	-154.740315
30569	9.599879	-0.288097	-2.276646	-0.012461	0.001675	0.057654	1.000000	0.000015	-0.000003	0.000039	-172.627274	-76.493085	-154.739991
30570	9.590520	-0.310353	-2.282918	0.006546	-0.012975	0.050674	1.000000	0.000010	0.000028	0.000026	-172.631965	-76.494491	-154.734527
30571	9.568245	-0.301206	-2.282967	0.006451	-0.003050	0.028752	1.000000	0.000018	0.000008	0.000041	-172.630256	-76.493480	-154.735584
30572	9.590570	-0.311875	-2.282500	0.006830	-0.014621	0.050671	1.000000	0.000006	-0.000001	0.000039	-172.631234	-76.491484	-154.735189
30573	9.568247	-0.302771	-2.282751	0.006734	-0.004692	0.028751	1.000000	0.000009	0.000016	0.000036	-172.632313	-76.491459	-154.734414
30574	9.577687	-0.282059	-2.275962	-0.011998	0.008309	0.035736	1.000000	0.000020	0.000012	0.000047	-172.627171	-76.490839	-154.739090
30575	9.590635	-0.314298	-2.281894	0.007262	-0.017081	0.050667	1.000000	-0.000003	0.000007	0.000034	-172.630868	-76.489879	-154.737023
30576	9.587650	-0.320707	-2.258292	-0.008052	-0.034892	0.042488	1.000000	0.000004	0.000001	0.000028	-172.636785	-76.488482	-154.734611
