// Start Time: Unknown
// Update Rate: 100.0Hz
// Filter Profile: human (46.1)
// Firmware Version: 4.4.0
PacketCounter	Acc_X	Acc_Y	Acc_Z	FreeAcc_X	FreeAcc_Y	FreeAcc_Z	OriInc_q0	OriInc_q1	OriInc_q2	OriInc_q3	Roll	Pitch	Yaw
14280	9.548575	-0.892716	-2.340088	0.000000	0.000000	0.058900	1.000000	-0.000012	0.000014	0.000019	-159.122954	-75.302097	153.663753
14281	9.553127	-0.857695	-2.298450	-0.027254	0.027465	0.050337	1.000000	-0.000004	0.000022	0.000024	-159.237269	-75.385702	153.662178
14282	9.524410	-0.869344	-2.343184	0.021684	0.009488	0.034145	1.000000	-0.000001	0.000013	0.000035	-159.220985	-75.385732	153.645243
14283	9.545102	-0.875735	-2.354389	0.027871	0.005058	0.057380	1.000000	0.000004	0.000041	0.000029	-159.201721	-75.389657	153.626463
14284	9.528212	-0.888979	-2.326533	0.004001	-0.007198	0.035653	1.000000	0.000001	0.000026	0.000021	-159.189001	-75.391604	153.613450
14285	9.524669	-0.870835	-2.341580	0.021789	0.009448	0.034145	1.000000	0.000006	0.000019	0.000018	-159.178085	-75.392851	153.602884
14286	9.540874	-0.874973	-2.311029	-0.011578	0.010113	0.042995	1.000000	-0.000004	0.000010	0.000025	-159.166564	-75.392880	153.590515
14287	9.537320	-0.856891	-2.326104	0.006206	0.026750	0.041487	1.000000	-0.000004	0.000033	0.000024	-159.152408	-75.395449	153.575414
14288	9.561622	-0.881528	-2.321933	-0.005514	0.005714	0.066230	1.000000	-0.000002	0.000011	0.000012	-159.145914	-75.396107	153.568474
14289	9.545493	-0.878239	-2.351869	0.027841	0.005022	0.057380	1.000000	-0.000001	0.000025	0.000034	-159.128842	-75.397431	153.550686
14290	9.537495	-0.858197	-2.324906	0.006195	0.026723	0.041487	1.000000	-0.000004	0.000022	0.000024	-159.115850	-75.398745	153.536802
14291	9.528594	-0.891983	-2.323818	0.003934	-0.007286	0.035653	1.000000	-0.000004	0.000022	0.000024	-159.104282	-75.400000	153.524296
14292	9.537598	-0.859176	-2.324123	0.006158	0.026672	0.041487	1.000000	0.000004	0.000018	0.000031	-159.088242	-75.400647	153.508207
14293	9.542097	-0.861666	-2.365783	0.045555	0.021550	0.055872	1.000000	-0.000007	0.000018	0.000015	-159.081861	-75.401904	153.500676
14294	9.545784	-0.880598	-2.349803	0.027760	0.004904	0.057380	1.000000	0.000009	0.000034	0.000026	-159.064601	-75.404467	153.483923
14295	9.545843	-0.881144	-2.349361	0.027640	0.004811	0.057380	1.000000	-0.000014	0.000013	0.000032	-159.054229	-75.404141	153.471358
14296	9.525238	-0.875838	-2.337396	0.021565	0.009201	0.034145	1.000000	0.000001	0.000014	0.000022	-159.042957	-75.404790	153.459838
14297	9.525281	-0.876270	-2.337056	0.021393	0.009096	0.034146	1.000000	-0.000004	0.000022	0.000024	-159.033918	-75.405478	153.449779
14298	9.558512	-0.867690	-2.333631	0.011896	0.022016	0.064723	1.000000	0.000001	0.000014	0.000022	-159.022644	-75.406127	153.438258
14299	9.537891	-0.862327	-2.321750	0.005613	0.026265	0.041488	1.000000	0.000001	0.000003	0.000023	-159.017916	-75.404772	153.433159
14300	9.541513	-0.881414	-2.305939	-0.012182	0.009619	0.042995	1.000000	-0.000006	0.000032	0.000037	-158.998409	-75.406733	153.412315
14301	9.546022	-0.884040	-2.347543	0.027068	0.004378	0.057382	1.000000	-0.000004	0.000010	0.000025	-158.992682	-75.406238	153.405568
14302	9.534407	-0.845391	-2.336213	0.023217	0.042726	0.039984	1.000000	0.000019	0.000020	0.000021	-158.978872	-75.407474	153.393552
14303	9.521899	-0.860695	-2.350593	0.038537	0.025170	0.032643	1.000000	-0.000014	0.000024	0.000031	-158.971565	-75.408137	153.383909
14304	9.546138	-0.885519	-2.346513	0.026814	0.004131	0.057383	1.000000	-0.000004	0.000010	0.000025	-158.960040	-75.408155	153.371540
14305	9.542572	-0.867504	-2.361729	0.044261	0.020499	0.055880	1.000000	-0.000019	0.000020	0.000035	-158.954141	-75.407773	153.362570
14306	9.541739	-0.884487	-2.303825	-0.012975	0.008909	0.042994	1.000000	0.000024	0.000024	0.000017	-158.940583	-75.409633	153.351407
14307	9.530120	-0.883195	-2.375742	0.059454	0.002880	0.048541	1.000000	0.000011	0.000012	0.000015	-158.941572	-75.409083	153.352998
14308	9.538271	-0.866867	-2.318496	0.004442	0.025247	0.041492	1.000000	-0.000039	0.000037	0.000047	-158.920882	-75.411134	153.327041
14309	9.534740	-0.848842	-2.333602	0.021767	0.041554	0.039992	1.000000	0.000016	0.000004	0.000012	-158.925205	-75.409524	153.332642
14310	9.541884	-0.923874	-2.385662	0.062829	-0.035810	0.065938	1.000000	0.000045	0.000021	0.000027	-158.905824	-75.410670	153.317937
14311	9.525817	-0.883309	-2.332220	0.018957	0.007274	0.034152	1.000000	-0.000042	0.000022	0.000038	-158.904148	-75.409248	153.310312
14312	9.534903	-0.850422	-2.332360	0.021179	0.041230	0.039995	1.000000	-0.000022	0.000040	0.000023	-158.890703	-75.412529	153.293843
14313	9.538559	-0.869358	-2.316379	0.002790	0.024194	0.041495	1.000000	0.000024	0.000012	0.000018	-158.892823	-75.411038	153.298368
14314	9.526019	-0.884720	-2.330859	0.018363	0.006884	0.034154	1.000000	-0.000006	0.000021	0.000038	-158.874815	-75.411693	153.279072
14315	9.543107	-0.872621	-2.357680	0.041700	0.018732	0.055895	1.000000	-0.000019	0.000020	0.000035	-158.873286	-75.410722	153.273870
14316	9.501888	-0.861384	-2.334016	0.029567	0.027526	0.009423	1.000000	0.000031	0.000006	0.000002	-158.867952	-75.411270	153.272017
14317	9.534202	-0.906575	-2.356371	0.038690	-0.015699	0.050052	1.000000	-0.000017	0.000033	0.000021	-158.874285	-75.411040	153.276317
14318	9.518150	-0.865906	-2.302904	-0.004591	0.027712	0.018261	1.000000	-0.000011	0.000016	0.000041	-158.856058	-75.411058	153.256209
14319	9.564877	-0.826257	-2.342111	0.026946	0.069082	0.069092	1.000000	-0.000004	0.000022	0.000024	-158.858303	-75.410352	153.256647
14320	9.518218	-0.904541	-2.385420	0.071450	-0.016798	0.041221	1.000000	0.000012	0.000026	0.000037	-158.837760	-75.411590	153.236859
14321	9.538933	-0.873567	-2.313255	0.000125	0.022379	0.041500	1.000000	-0.000019	0.000032	0.000034	-158.839043	-75.411047	153.235561
14322	9.531895	-0.836992	-2.343733	0.035715	0.055672	0.038520	1.000000	-0.000004	0.000022	0.000024	-158.826076	-75.412339	153.221727
14323	9.510367	-0.885563	-2.357476	0.048211	0.003814	0.025334	1.000000	0.000019	0.000020	0.000021	-158.833546	-75.410645	153.230760
14324	9.559728	-0.880842	-2.323699	0.005317	0.017377	0.064738	1.000000	-0.000009	0.000017	0.000028	-158.820371	-75.411296	153.216122
14325	9.535568	-0.856967	-2.327240	0.016227	0.037861	0.040017	1.000000	-0.000004	0.000010	0.000025	-158.829059	-75.408511	153.223640
14326	9.552700	-0.844674	-2.354032	0.040079	0.050104	0.061770	1.000000	0.000029	0.000028	0.000013	-158.815778	-75.410995	153.213386
14327	9.551807	-0.899078	-2.379404	0.058594	-0.006240	0.071818	1.000000	-0.000019	0.000020	0.000035	-158.823942	-75.408786	153.218898
14328	9.551844	-0.862266	-2.295715	-0.018052	0.037835	0.048843	1.000000	-0.000006	0.000021	0.000038	-158.806026	-75.409426	153.199733
14329	9.519670	-0.855348	-2.355861	0.047686	0.035859	0.031208	1.000000	0.000014	0.000027	0.000024	-158.814624	-75.407773	153.208296
14330	9.543925	-0.880130	-2.351569	0.035936	0.014804	0.055924	1.000000	0.000011	0.000023	0.000014	-158.803955	-75.409633	153.198609
14331	9.543984	-0.880578	-2.351164	0.035160	0.014154	0.055928	1.000000	-0.000019	0.000020	0.000035	-158.810095	-75.408018	153.200707
14332	9.515332	-0.854741	-2.312618	0.007474	0.040273	0.016791	1.000000	0.000004	0.000018	0.000031	-158.794132	-75.408624	153.184715
14333	9.552084	-0.864867	-2.293737	-0.021144	0.035810	0.048844	1.000000	-0.000004	0.000010	0.000025	-158.810820	-75.403731	153.198865
14334	9.561153	-0.869489	-2.377412	0.057690	0.025678	0.077699	1.000000	-0.000014	0.000024	0.000031	-158.795997	-75.404974	153.181903
14335	9.540584	-0.864167	-2.365301	0.050778	0.029367	0.054468	1.000000	0.000019	0.000020	0.000021	-158.806056	-75.403587	153.193668
14336	9.531603	-0.898047	-2.364196	0.048543	-0.004586	0.048600	1.000000	-0.000001	0.000025	0.000034	-158.788501	-75.404769	153.175423
14337	9.544205	-0.883825	-2.349044	0.032099	0.012044	0.055941	1.000000	-0.000004	0.000010	0.000025	-158.799823	-75.402063	153.185058
14338	9.520078	-0.859907	-2.352552	0.043831	0.033105	0.031235	1.000000	-0.000004	0.000022	0.000024	-158.787050	-75.403249	153.171398
14339	9.547807	-0.903255	-2.332925	0.012837	-0.005328	0.057410	1.000000	0.000001	0.000014	0.000022	-158.805798	-75.398239	153.190448
14340	9.536283	-0.864594	-2.321481	0.008978	0.033037	0.040044	1.000000	-0.000019	0.000032	0.000034	-158.789444	-75.400055	153.171326
14341	9.540887	-0.867255	-2.362949	0.047797	0.027350	0.054488	1.000000	-0.000001	0.000025	0.000034	-158.790615	-75.399859	153.170521
14342	9.536387	-0.865687	-2.320646	0.008349	0.032418	0.040047	1.000000	-0.000017	0.000009	0.000022	-158.782216	-75.399759	153.159840
14343	9.557046	-0.871883	-2.332070	0.013427	0.027316	0.063290	1.000000	0.000006	0.000019	0.000018	-158.795296	-75.397868	153.174698
14344	9.544529	-0.887158	-2.346473	0.028985	0.010013	0.055953	1.000000	-0.000001	0.000025	0.000034	-158.777864	-75.399015	153.156604
14345	9.536531	-0.867153	-2.319507	0.006798	0.031126	0.040052	1.000000	0.000009	0.000022	0.000027	-158.780364	-75.398936	153.157703
14346	9.520484	-0.863905	-2.349444	0.040157	0.030473	0.031259	1.000000	-0.000009	0.000017	0.000028	-158.767396	-75.399486	153.143263
14347	9.524044	-0.882919	-2.333601	0.021656	0.013195	0.032718	1.000000	-0.000004	0.000022	0.000024	-158.774676	-75.398770	153.147874
14348	9.524115	-0.883342	-2.333151	0.021634	0.013194	0.032718	1.000000	0.000001	0.000026	0.000021	-158.762168	-75.400579	153.135085
14349	9.536790	-0.869127	-2.317704	0.005031	0.029843	0.040057	1.000000	-0.000011	0.000040	0.000039	-158.764994	-75.399595	153.136699
14350	9.519698	-0.882244	-2.290269	-0.018822	0.017614	0.018267	1.000000	0.000013	-0.000011	0.000004	-158.763993	-75.398142	153.137199
14351	9.574535	-0.825473	-2.272892	-0.042412	0.081166	0.062067	1.000000	-0.000068	0.000021	0.000032	-158.773849	-75.397087	153.136475
14352	9.519738	-0.920313	-2.373294	0.057113	-0.027057	0.041292	1.000000	0.000126	0.000001	-0.000003	-158.760746	-75.397210	153.137791
14353	9.507177	-0.935457	-2.387916	0.071967	-0.045016	0.033959	1.000000	-0.000141	0.000022	0.000047	-158.775478	-75.395574	153.137416
14354	9.588206	-0.758098	-2.231405	-0.078195	0.153469	0.059390	1.000000	0.000068	0.000019	0.000023	-158.755579	-75.396514	153.124902
14355	9.538022	-0.930175	-2.540302	0.213458	-0.048709	0.099139	1.000000	0.000050	0.000014	0.000024	-158.758031	-75.395999	153.133469
14356	9.517782	-0.955245	-2.256993	-0.058632	-0.051575	0.015262	1.000000	-0.000149	0.000038	0.000039	-158.753289	-75.398267	153.110930
14357	9.553816	-0.716906	-2.363631	0.062203	0.179197	0.053423	1.000000	0.000088	0.000025	0.000009	-158.754185	-75.397691	153.120699
14358	9.522542	-0.995592	-2.381246	0.056564	-0.101245	0.052752	1.000000	0.000019	0.000019	0.000021	-158.740728	-75.398770	153.109071
14359	9.555367	-0.806996	-2.315603	0.005679	0.094797	0.051859	1.000000	-0.000039	0.000026	0.000048	-158.741186	-75.396146	153.102199
14360	9.562445	-0.882110	-2.367544	0.046664	0.017396	0.077776	1.000000	-0.000004	0.000022	0.000024	-158.728548	-75.397279	153.088684
14361	9.520184	-0.887367	-2.286266	-0.023413	0.014064	0.018263	1.000000	0.000014	0.000027	0.000024	-158.734339	-75.396467	153.096196
14362	9.526933	-0.819334	-2.359416	0.053763	0.076235	0.035759	1.000000	-0.000015	0.000022	0.000008	-158.729526	-75.398274	153.089479
14363	9.547919	-0.931111	-2.266139	-0.053475	-0.024255	0.044374	1.000000	0.000025	0.000015	0.000040	-158.724472	-75.397385	153.085209
14364	9.509882	-0.833099	-2.331516	0.029464	0.063427	0.013959	1.000000	-0.000012	0.000025	0.000018	-158.714850	-75.399197	153.073875
14365	9.524930	-0.891036	-2.326888	0.014729	0.007773	0.032737	1.000000	-0.000020	-0.000006	0.000014	-158.733157	-75.395717	153.090533
14366	9.546597	-0.843423	-2.312535	0.001311	0.059013	0.045975	1.000000	0.000045	0.000021	0.000027	-158.714170	-75.396687	153.076254
14367	9.559280	-0.866666	-2.380582	0.061630	0.031534	0.076363	1.000000	-0.000027	0.000024	0.000028	-158.723151	-75.396230	153.084175
14368	9.553730	-0.918905	-2.364060	0.041596	-0.019069	0.071887	1.000000	0.000006	0.000019	0.000018	-158.712596	-75.397319	153.074034
14369	9.547865	-0.828281	-2.368794	0.057478	0.069441	0.059031	1.000000	-0.000027	0.000024	0.000028	-158.713127	-75.398324	153.067225
14370	9.542323	-0.880555	-2.352209	0.037445	0.018840	0.054553	1.000000	0.000024	0.000024	0.000017	-158.699938	-75.400016	153.056465
14371	9.530857	-0.841949	-2.340711	0.033221	0.056656	0.037222	1.000000	0.000022	0.000023	0.000030	-158.697300	-75.400585	153.055445
14372	9.536840	-0.933521	-2.335081	0.017003	-0.032327	0.050073	1.000000	-0.000032	0.000031	0.000031	-158.683723	-75.402475	153.037683
14373	9.526398	-0.840949	-2.297843	-0.006130	0.061254	0.022746	1.000000	0.000009	0.000011	0.000028	-158.678386	-75.404137	153.029898
14374	9.558646	-0.886576	-2.319937	0.003675	0.018431	0.063319	1.000000	-0.000001	0.000048	0.000032	-158.657839	-75.407902	153.008597
14375	9.533603	-0.916560	-2.348979	0.033623	-0.016542	0.048649	1.000000	0.000006	0.000019	0.000018	-158.667582	-75.403695	153.012295
14376	9.534683	-0.863042	-2.322851	0.014203	0.039140	0.038654	1.000000	-0.000027	0.000012	0.000029	-158.657167	-75.403621	152.998307
14377	9.541636	-0.900623	-2.291629	-0.022020	0.005496	0.041499	1.000000	0.000014	0.000015	0.000024	-158.656742	-75.401884	152.992877
14378	9.518710	-0.860240	-2.352517	0.046947	0.038145	0.029901	1.000000	0.000014	0.000027	0.000024	-158.641388	-75.403595	152.978579
14379	9.513121	-0.912532	-2.335982	0.026541	-0.012797	0.025409	1.000000	-0.000022	0.000016	0.000025	-158.642140	-75.403193	152.970800
14380	9.543931	-0.831601	-2.322258	0.015357	0.072397	0.044573	1.000000	0.000001	0.000003	0.000022	-158.632486	-75.402389	152.960795
14381	9.558930	-0.889802	-2.317531	0.000934	0.016842	0.063322	1.000000	-0.000014	0.000024	0.000031	-158.632559	-75.402962	152.958977
14382	9.539430	-0.867848	-2.363192	0.052108	0.032843	0.053151	1.000000	-0.000007	-0.000005	0.000017	-158.627424	-75.401556	152.952701
14383	9.522257	-0.880891	-2.335910	0.027081	0.020210	0.031330	1.000000	-0.000004	0.000022	0.000024	-158.636171	-75.397595	152.958681
14384	9.560140	-0.874573	-2.374226	0.056856	0.027974	0.076402	1.000000	0.000014	0.000027	0.000024	-158.620822	-75.399259	152.944330
14385	9.518956	-0.863410	-2.350361	0.043764	0.036356	0.029922	1.000000	-0.000006	0.000032	0.000037	-158.623306	-75.396862	152.946705
14386	9.555715	-0.873675	-2.331099	0.016327	0.032569	0.061911	1.000000	-0.000009	0.000029	0.000027	-158.608881	-75.398554	152.930602
14387	9.539726	-0.870390	-2.361062	0.048163	0.031423	0.053176	1.000000	0.000009	0.000011	0.000028	-158.621298	-75.391673	152.944463
14388	9.543222	-0.889568	-2.345161	0.030299	0.014784	0.054584	1.000000	-0.000006	0.000032	0.000037	-158.602310	-75.393260	152.923998
14389	9.535237	-0.869466	-2.318179	0.007325	0.035798	0.038675	1.000000	0.000006	0.000019	0.000018	-158.620996	-75.389247	152.952257
14390	9.519295	-0.866126	-2.347987	0.040648	0.035157	0.029940	1.000000	-0.000024	0.000039	0.000036	-158.603298	-75.391479	152.931072
14391	9.540006	-0.872665	-2.359087	0.045983	0.030110	0.053190	1.000000	0.000017	0.000019	0.000034	-158.603851	-75.390245	152.937744
14392	9.548018	-0.856448	-2.301857	-0.009082	0.052489	0.046007	1.000000	-0.000004	0.000022	0.000024	-158.591652	-75.391134	152.924622
14393	9.522857	-0.886477	-2.331348	0.021464	0.017240	0.031350	1.000000	-0.000001	0.000002	0.000036	-158.597617	-75.388228	152.936214
14394	9.540013	-0.874307	-2.358453	0.045175	0.029442	0.053196	1.000000	-0.000012	0.000002	0.000020	-158.591544	-75.387217	152.928513
14395	9.503357	-0.865095	-2.376959	0.072353	0.032775	0.021224	1.000000	-0.000006	0.000021	0.000037	-158.585853	-75.387959	152.921590
14396	9.560683	-0.881213	-2.369582	0.050862	0.024507	0.076444	1.000000	0.000011	0.000011	0.000015	-158.577422	-75.388178	152.914182
14397	9.527536	-0.890514	-2.372331	0.059164	0.011222	0.045877	1.000000	-0.000024	0.000039	0.000036	-158.582018	-75.385154	152.915535
14398	9.527654	-0.891018	-2.371669	0.059079	0.011219	0.045877	1.000000	-0.000004	0.000033	0.000023	-158.568483	-75.387287	152.901088
14399	9.552893	-0.861924	-2.341520	0.027388	0.045287	0.060539	1.000000	-0.000012	0.000014	0.000019	-158.575530	-75.386821	152.909132
14400	9.510579	-0.904432	-2.343729	0.034732	-0.001494	0.024028	1.000000	-0.000009	0.000029	0.000027	-158.561774	-75.388337	152.893880
14401	9.561110	-0.883389	-2.367046	0.048050	0.023154	0.076461	1.000000	-0.000004	0.000033	0.000023	-158.564156	-75.387541	152.894302
14402	9.569178	-0.867085	-2.309557	-0.007028	0.045520	0.069263	1.000000	0.000009	0.000034	0.000026	-158.547867	-75.389617	152.878551
14403	9.556721	-0.882372	-2.323688	0.007928	0.027601	0.061937	1.000000	0.000004	0.000041	0.000029	-158.548704	-75.391123	152.885324
14404	9.512102	-0.852609	-2.315350	0.013667	0.053159	0.014055	1.000000	0.000004	0.000018	0.000031	-158.533787	-75.391282	152.870435
14405	9.536207	-0.877690	-2.311077	0.000857	0.031423	0.038692	1.000000	-0.000001	0.000025	0.000034	-158.539486	-75.389012	152.880686
14406	9.520234	-0.874407	-2.341102	0.034163	0.030791	0.029979	1.000000	-0.000004	0.000010	0.000025	-158.529237	-75.388529	152.869713
14407	9.515638	-0.872770	-2.298783	-0.005764	0.035248	0.015447	1.000000	0.000001	0.000026	0.000021	-158.534990	-75.389282	152.880390
14408	9.561502	-0.849576	-2.280314	-0.031107	0.065340	0.053350	1.000000	-0.000012	0.000014	0.000019	-158.527833	-75.389473	152.871715
14409	9.531722	-0.877313	-2.267806	-0.039104	0.035431	0.024160	1.000000	0.000001	0.000014	0.000022	-158.523539	-75.392085	152.865545
14410	9.574246	-0.873168	-2.348262	0.029940	0.038092	0.083807	1.000000	-0.000001	0.000013	0.000035	-158.508544	-75.391621	152.850070
14411	9.532995	-0.861908	-2.324684	0.017219	0.046408	0.037317	1.000000	-0.000004	0.000022	0.000024	-158.515894	-75.390548	152.861727
14412	9.525101	-0.879164	-2.381173	0.072122	0.024044	0.044528	1.000000	-0.000009	0.000017	0.000028	-158.504003	-75.390742	152.848551
14413	9.528409	-0.860788	-2.282102	-0.023217	0.051038	0.022778	1.000000	-0.000004	0.000010	0.000025	-158.511434	-75.386878	152.855664
14414	9.541114	-0.883946	-2.350390	0.037656	0.024217	0.053242	1.000000	-0.000004	0.000010	0.000025	-158.501341	-75.386384	152.844922
14415	9.550310	-0.851339	-2.350694	0.038153	0.057611	0.059201	1.000000	-0.000003	0.000024	0.000047	-158.507641	-75.379741	152.854641
14416	9.533105	-0.864733	-2.323182	0.014276	0.045389	0.037326	1.000000	0.000004	0.000018	0.000031	-158.493215	-75.379781	152.840384
14417	9.533162	-0.865236	-2.322761	0.014198	0.044923	0.037329	1.000000	0.000001	0.000026	0.000021	-158.490805	-75.382534	152.837336
14418	9.541303	-0.886361	-2.348716	0.035677	0.023173	0.053251	1.000000	0.000004	0.000029	0.000030	-158.474835	-75.383877	152.821501
14419	9.533304	-0.866235	-2.321806	0.013804	0.044123	0.037333	1.000000	0.000001	0.000014	0.000022	-158.482707	-75.385185	152.839100
14420	9.520747	-0.881268	-2.336439	0.029315	0.026831	0.030006	1.000000	-0.000002	0.000011	0.000012	-158.477828	-75.385302	152.834075
14421	9.550650	-0.854428	-2.348189	0.037945	0.055935	0.059212	1.000000	0.000002	0.000040	0.000042	-158.456188	-75.391420	152.810348
14422	9.538121	-0.869704	-2.362620	0.053467	0.038643	0.051884	1.000000	0.000016	0.000004	0.000012	-158.450132	-75.390889	152.806217
14423	9.554117	-0.873858	-2.332084	0.019602	0.038866	0.060585	1.000000	-0.000012	0.000014	0.000019	-158.454249	-75.390184	152.805957
14424	9.533505	-0.868392	-2.320177	0.013530	0.043309	0.037337	1.000000	0.000004	0.000018	0.000031	-158.439738	-75.390309	152.791669
14425	9.530144	-0.850477	-2.335305	0.029577	0.059175	0.035979	1.000000	-0.000006	0.000021	0.000037	-158.456840	-75.384060	152.816900
14426	9.557609	-0.894187	-2.315505	-0.000139	0.021344	0.061955	1.000000	-0.000001	0.000025	0.000034	-158.440862	-75.384768	152.800574
14427	9.554279	-0.876206	-2.330538	0.017238	0.037254	0.060595	1.000000	-0.000014	0.000024	0.000031	-158.445847	-75.386054	152.814593
14428	9.550967	-0.858104	-2.345560	0.034901	0.053901	0.059234	1.000000	0.000001	0.000026	0.000021	-158.434910	-75.387423	152.803776
14429	9.551039	-0.858430	-2.345145	0.034363	0.053287	0.059239	1.000000	-0.000007	0.000018	0.000015	-158.444981	-75.387601	152.818132
14430	9.538511	-0.873525	-2.359635	0.049877	0.035996	0.051913	1.000000	-0.000014	0.000024	0.000031	-158.431924	-75.388367	152.803381
14431	9.537261	-0.890547	-2.301793	-0.008420	0.023801	0.038710	1.000000	0.000014	0.000015	0.000024	-158.441597	-75.384505	152.820036
14432	9.554580	-0.878473	-2.328452	0.015194	0.035983	0.060603	1.000000	0.000004	0.000029	0.000030	-158.426081	-75.385815	152.804887
14433	9.534006	-0.873120	-2.316341	0.007569	0.039868	0.037358	1.000000	0.000009	0.000022	0.000027	-158.439919	-75.379927	152.821431
14434	9.542117	-0.894356	-2.342366	0.029027	0.018110	0.053284	1.000000	-0.000001	0.000025	0.000034	-158.424375	-75.380537	152.805674
14435	9.537505	-0.892899	-2.299868	-0.012019	0.022518	0.038709	1.000000	0.000004	0.000029	0.000030	-158.437644	-75.375394	152.825417
14436	9.534216	-0.874829	-2.314828	0.005600	0.039166	0.037362	1.000000	0.000001	0.000026	0.000021	-158.427257	-75.376587	152.815254
14437	9.538945	-0.877197	-2.356519	0.044517	0.033433	0.051947	1.000000	0.000003	0.000004	0.000009	-158.441666	-75.376111	152.838566
14438	9.554959	-0.881428	-2.325778	0.010946	0.033960	0.060616	1.000000	0.000009	0.000034	0.000026	-158.426834	-75.377915	152.824807
14439	9.542455	-0.896664	-2.340107	0.025086	0.016263	0.053298	1.000000	-0.000014	0.000024	0.000031	-158.436993	-75.372548	152.831847
14440	9.564311	-0.849263	-2.325445	0.011394	0.067414	0.066600	1.000000	0.000004	0.000018	0.000031	-158.423595	-75.372378	152.818959
14441	9.539164	-0.879215	-2.354879	0.041261	0.032047	0.051966	1.000000	-0.000009	0.000017	0.000028	-158.443459	-75.367968	152.852328
14442	9.547089	-0.862896	-2.297731	-0.013940	0.054273	0.044692	1.000000	0.000001	0.000014	0.000022	-158.435018	-75.367777	152.844278
14443	9.534542	-0.878026	-2.312275	0.001461	0.036684	0.037373	1.000000	-0.000004	0.000022	0.000024	-158.431745	-75.368649	152.839084
14444	9.569187	-0.853199	-2.366005	0.048712	0.061084	0.081208	1.000000	0.000001	0.000026	0.000021	-158.421756	-75.369746	152.829432
14445	9.527969	-0.842025	-2.342256	0.035912	0.069584	0.034709	1.000000	0.000005	0.000032	0.000052	-158.413225	-75.367422	152.819886
14446	9.555385	-0.885741	-2.322386	0.006144	0.031683	0.060628	1.000000	-0.000007	0.000018	0.000015	-158.407820	-75.367883	152.814020
14447	9.504898	-0.907447	-2.298287	-0.008978	0.006127	0.008134	1.000000	0.000001	0.000014	0.000022	-158.420059	-75.364147	152.828072
14448	9.544047	-0.847283	-2.310825	0.000992	0.069485	0.043367	1.000000	0.000001	0.000014	0.000022	-158.411769	-75.363894	152.820179
14449	9.555484	-0.887005	-2.321498	0.005104	0.030326	0.060633	1.000000	0.000004	0.000018	0.000031	-158.408173	-75.367982	152.829254
14450	9.552163	-0.869085	-2.336628	0.022680	0.046976	0.059305	1.000000	-0.000006	0.000021	0.000037	-158.393196	-75.367778	152.813685
14451	9.531545	-0.863744	-2.324691	0.015866	0.050701	0.036058	1.000000	0.000014	0.000015	0.000024	-158.403751	-75.365875	152.837205
14452	9.522327	-0.897439	-2.323809	0.013586	0.016712	0.030063	1.000000	0.000011	0.000011	0.000015	-158.397534	-75.365624	152.832739
14453	9.557002	-0.872534	-2.377565	0.059686	0.040336	0.073932	1.000000	-0.000017	0.000032	0.000020	-158.416869	-75.363778	152.862467
14454	9.547666	-0.868797	-2.293106	-0.019242	0.050276	0.044704	1.000000	-0.000014	0.000024	0.000031	-158.405207	-75.364201	152.849494
14455	9.531803	-0.865535	-2.322968	0.012842	0.049609	0.036068	1.000000	0.000017	0.000030	0.000033	-158.402041	-75.359382	152.842010
14456	9.552508	-0.872089	-2.334097	0.018571	0.045081	0.059323	1.000000	-0.000009	0.000017	0.000028	-158.392149	-75.359093	152.831394
14457	9.514620	-0.879167	-2.294981	-0.011260	0.036740	0.014133	1.000000	0.000006	0.000030	0.000017	-158.393768	-75.362149	152.839765
14458	9.549316	-0.854403	-2.348673	0.035912	0.061150	0.058011	1.000000	-0.000019	0.000020	0.000034	-158.381947	-75.361900	152.826002
14459	9.532048	-0.867522	-2.321219	0.010469	0.048329	0.036077	1.000000	-0.000004	0.000021	0.000024	-158.399656	-75.355598	152.845671
14460	9.540149	-0.888694	-2.347319	0.031858	0.026569	0.052017	1.000000	0.000004	0.000018	0.000031	-158.387179	-75.355206	152.833959
14461	9.549453	-0.856062	-2.347512	0.033670	0.059962	0.058026	1.000000	-0.000001	0.000025	0.000034	-158.383422	-75.356567	152.832471
14462	9.552814	-0.875182	-2.331688	0.015701	0.043193	0.059336	1.000000	-0.000004	0.000010	0.000025	-158.375483	-75.355577	152.824518
14463	9.522929	-0.902928	-2.319213	0.008027	0.013396	0.030074	1.000000	-0.000004	0.000021	0.000024	-158.365938	-75.359469	152.814091
14464	9.511588	-0.864236	-2.307862	0.003955	0.051755	0.012827	1.000000	0.000004	0.000018	0.000031	-158.353400	-75.359115	152.802323
14465	9.540349	-0.891544	-2.345421	0.030354	0.024634	0.052027	1.000000	0.000007	0.000033	0.000039	-158.362684	-75.357579	152.825994
14466	9.519771	-0.886191	-2.333322	0.024206	0.029051	0.028772	1.000000	-0.000004	0.000021	0.000024	-158.353330	-75.357879	152.816655
14467	9.532406	-0.872093	-2.318035	0.008169	0.045924	0.036090	1.000000	0.000017	0.000018	0.000034	-158.345399	-75.357522	152.811550
14468	9.540490	-0.893351	-2.344161	0.029565	0.024164	0.052031	1.000000	-0.000009	0.000017	0.000028	-158.335818	-75.357194	152.801367
14469	9.516567	-0.869182	-2.347763	0.040341	0.044806	0.027479	1.000000	-0.000007	0.000018	0.000015	-158.350088	-75.354576	152.818651
14470	9.532563	-0.873470	-2.316873	0.006685	0.045240	0.036095	1.000000	0.000009	0.000034	0.000026	-158.336514	-75.356079	152.806500
14471	9.532619	-0.873972	-2.316452	0.005470	0.044575	0.036098	1.000000	-0.000004	0.000010	0.000025	-158.351579	-75.351537	152.826943
14472	9.553312	-0.880375	-2.327686	0.011161	0.040027	0.059356	1.000000	0.000001	0.000026	0.000021	-158.342655	-75.352402	152.818679
14473	9.532732	-0.874823	-2.315665	0.004412	0.043736	0.036103	1.000000	-0.000004	0.000021	0.000024	-158.354279	-75.351471	152.838499
14474	9.550130	-0.862729	-2.342312	0.027834	0.055910	0.058068	1.000000	0.000009	0.000022	0.000027	-158.342476	-75.351645	152.828249
14475	9.532815	-0.875702	-2.314989	0.004278	0.042859	0.036107	1.000000	0.000003	0.000003	0.000009	-158.353149	-75.354398	152.854154
14476	9.529551	-0.857810	-2.330060	0.021778	0.059517	0.034817	1.000000	0.000013	0.000040	0.000058	-158.325464	-75.355188	152.828029
14477	9.513723	-0.854682	-2.359885	0.054040	0.058785	0.026219	1.000000	0.000006	0.000019	0.000018	-158.332080	-75.350936	152.826912
14478	9.541038	-0.898173	-2.340086	0.024249	0.020771	0.052053	1.000000	0.000006	0.000019	0.000018	-158.325088	-75.351124	152.821308
14479	9.529737	-0.859390	-2.328716	-0.003756	0.014169	0.035010	1.000000	-0.000014	0.000024	0.000031	-159.494790	-75.344216	153.899448
14480	9.529782	-0.859954	-2.328324	-0.004199	0.013718	0.035010	1.000000	0.000004	0.000018	0.000031	-159.492727	-75.343720	153.897934
14481	9.534556	-0.862573	-2.370028	0.034736	0.008191	0.049744	1.000000	-0.000004	0.000010	0.000025	-159.494735	-75.342978	153.900213
14482	9.553777	-0.885498	-2.323834	-0.016916	-0.008516	0.059425	1.000000	-0.000004	0.000021	0.000024	-159.495719	-75.343150	153.900911
14483	9.550539	-0.867371	-2.338930	0.000460	0.007740	0.058263	1.000000	-0.000004	0.000021	0.000024	-159.496262	-75.343713	153.901739
14484	9.529930	-0.861911	-2.326994	-0.005837	0.011889	0.035012	1.000000	0.000004	0.000018	0.000031	-159.494202	-75.343217	153.900228
14485	9.538058	-0.883279	-2.352902	0.015353	-0.010346	0.050909	1.000000	0.000002	0.000040	0.000042	-159.483517	-75.345061	153.882395
14486	9.538114	-0.883840	-2.352463	0.014909	-0.010797	0.050909	1.000000	0.000016	0.000004	0.000012	-159.489798	-75.343857	153.890912
14487	9.517518	-0.878256	-2.340520	0.008639	-0.006651	0.027658	1.000000	-0.000014	0.000036	0.000030	-159.487327	-75.345501	153.886041
14488	9.533473	-0.882618	-2.309646	-0.025262	-0.006638	0.036166	1.000000	0.000001	0.000014	0.000021	-159.489993	-75.345007	153.889060
14489	9.538286	-0.885193	-2.351255	0.013654	-0.012166	0.050909	1.000000	0.000009	0.000022	0.000027	-159.487849	-75.345424	153.889186
14490	9.514406	-0.861032	-2.354815	0.025115	0.008712	0.026507	1.000000	-0.000007	0.000018	0.000015	-159.493562	-75.345597	153.894416
14491	9.530345	-0.865478	-2.323969	-0.008776	0.008713	0.035013	1.000000	0.000002	0.000028	0.000043	-159.485144	-75.345848	153.886567
14492	9.551070	-0.872087	-2.335002	-0.003374	0.003652	0.058264	1.000000	0.000001	0.000026	0.000021	-159.486394	-75.346642	153.888136
14493	9.517890	-0.881081	-2.337944	0.006094	-0.009382	0.027658	1.000000	-0.000007	0.000018	0.000015	-159.491917	-75.347088	153.895893
14494	9.533823	-0.885376	-2.307149	-0.027809	-0.009378	0.036157	1.000000	-0.000014	0.000024	0.000031	-159.490971	-75.347304	153.893417
14495	9.527343	-0.848782	-2.337648	0.007302	0.023619	0.033870	1.000000	0.000004	0.000029	0.000030	-159.486951	-75.348382	153.886669
14496	9.530675	-0.867859	-2.321726	-0.010891	0.006444	0.035013	1.000000	0.000001	0.000014	0.000021	-159.489621	-75.347887	153.889692
14497	9.551374	-0.874327	-2.332920	-0.005434	0.001365	0.058264	1.000000	-0.000014	0.000024	0.000031	-159.488371	-75.348447	153.889155
14498	9.572088	-0.880812	-2.344048	-0.000038	-0.003702	0.081516	1.000000	-0.000004	0.000021	0.000024	-159.489365	-75.348619	153.889862
14499	9.535668	-0.871442	-2.362298	0.027182	0.000012	0.049771	1.000000	-0.000006	0.000044	0.000035	-159.482038	-75.350951	153.875456
14500	9.542285	-0.909146	-2.330745	-0.008761	-0.033887	0.052042	1.000000	0.000024	0.000012	0.000018	-159.483860	-75.350366	153.880315
14501	9.535796	-0.872347	-2.361447	0.026382	-0.000891	0.049773	1.000000	-0.000007	0.000018	0.000015	-159.488708	-75.350992	153.882032
14502	9.572372	-0.882907	-2.342100	-0.001690	-0.005510	0.081515	1.000000	0.000005	0.000032	0.000052	-159.475532	-75.351159	153.869160
14503	9.518504	-0.886213	-2.333498	0.001915	-0.013896	0.027654	1.000000	-0.000012	0.000014	0.000019	-159.480904	-75.350741	153.870115
14504	9.531119	-0.872031	-2.318339	-0.014241	0.002829	0.035010	1.000000	-0.000001	0.000013	0.000035	-159.478596	-75.349621	153.867752
14505	9.527905	-0.854017	-2.333449	0.003083	0.019107	0.033882	1.000000	-0.000009	0.000029	0.000027	-159.477661	-75.350533	153.865044
14506	9.559934	-0.899715	-2.355545	0.012268	-0.024491	0.074156	1.000000	0.000001	0.000014	0.000021	-159.480336	-75.350038	153.868072
14507	9.543890	-0.858745	-2.302195	-0.031272	0.018657	0.042365	1.000000	-0.000017	0.000032	0.000020	-159.482699	-75.351525	153.868300
14508	9.523540	-0.890765	-2.373583	0.039012	-0.021217	0.042423	1.000000	0.000020	0.000010	0.000044	-159.474561	-75.349691	153.862382
14509	9.548754	-0.862049	-2.343466	0.007135	0.012673	0.057138	1.000000	-0.000007	0.000018	0.000015	-159.480411	-75.349878	153.871840
14510	9.544034	-0.860376	-2.300990	-0.032604	0.017293	0.042363	1.000000	-0.000024	0.000039	0.000036	-159.476123	-75.351427	153.864745
14511	9.552164	-0.881638	-2.326926	-0.011484	-0.004963	0.058258	1.000000	0.000004	0.000018	0.000031	-159.474013	-75.351038	153.863401
14512	9.528289	-0.857649	-2.330547	-0.000006	0.015942	0.033888	1.000000	0.000004	0.000018	0.000031	-159.471969	-75.350540	153.861907
14513	9.569636	-0.870234	-2.353291	0.011215	0.006226	0.080393	1.000000	-0.000009	0.000017	0.000028	-159.472681	-75.350173	153.862940
14514	9.519034	-0.891981	-2.329137	-0.002905	-0.018862	0.027645	1.000000	-0.000001	0.000037	0.000033	-159.467542	-75.351631	153.857679
14515	9.528451	-0.859388	-2.329243	-0.001302	0.014585	0.033890	1.000000	-0.000001	0.000013	0.000035	-159.465038	-75.350613	153.852187
14516	9.544334	-0.863845	-2.298444	-0.035214	0.014573	0.042359	1.000000	0.000001	0.000026	0.000021	-159.466298	-75.351407	153.853768
14517	9.515966	-0.875076	-2.343310	0.013548	-0.003489	0.026533	1.000000	-0.000001	0.000025	0.000034	-159.462544	-75.351664	153.848571
14518	9.511199	-0.873678	-2.300861	-0.026184	0.001134	0.011746	1.000000	0.000012	0.000026	0.000036	-159.456040	-75.351786	153.843418
14519	9.549326	-0.867635	-2.339069	0.002750	0.008133	0.057145	1.000000	-0.000002	0.000011	0.000012	-159.463689	-75.351265	153.853982
14520	9.528710	-0.861942	-2.327238	-0.003513	0.012318	0.033893	1.000000	-0.000004	0.000021	0.000024	-159.464694	-75.351436	153.854703
14521	9.549442	-0.868524	-2.338263	0.001879	0.007227	0.057146	1.000000	-0.000006	0.000032	0.000036	-159.459171	-75.352366	153.844269
14522	9.536899	-0.883708	-2.352751	0.017160	-0.010389	0.049788	1.000000	0.000001	0.000014	0.000021	-159.461854	-75.351870	153.847305
14523	9.528884	-0.863618	-2.325907	-0.004793	0.010959	0.033894	1.000000	0.000012	0.000026	0.000036	-159.455151	-75.352165	153.839184
14524	9.549644	-0.870195	-2.336818	0.000578	0.005867	0.057147	1.000000	-0.000022	0.000040	0.000023	-159.455851	-75.354339	153.837487
14525	9.529084	-0.864517	-2.324750	-0.005686	0.010049	0.033894	1.000000	0.000006	0.000019	0.000018	-159.459038	-75.354457	153.841941
14526	9.540421	-0.904274	-2.335279	-0.002336	-0.028939	0.050884	1.000000	-0.000001	0.000025	0.000034	-159.455326	-75.354625	153.838141
14527	9.529199	-0.865557	-2.323893	-0.006528	0.009143	0.033894	1.000000	-0.000004	0.000021	0.000024	-159.455985	-75.355037	153.836650
14528	9.537316	-0.886675	-2.349943	0.014567	-0.013116	0.049789	1.000000	-0.000004	0.000021	0.000024	-159.456996	-75.355208	153.837375
14529	9.545146	-0.870365	-2.292607	-0.040893	0.008657	0.042344	1.000000	0.000001	0.000026	0.000021	-159.458525	-75.356005	153.845109
14530	9.537458	-0.887574	-2.349028	0.013677	-0.014027	0.049789	1.000000	0.000009	0.000022	0.000027	-159.456748	-75.356129	153.844487
14531	9.546904	-0.854855	-2.349180	0.015287	0.019409	0.056061	1.000000	-0.000004	0.000021	0.000024	-159.457466	-75.356522	153.843822
14532	9.516924	-0.882456	-2.336641	0.007023	-0.010286	0.026535	1.000000	0.000001	0.000026	0.000021	-159.458735	-75.357316	153.845412
14533	9.550259	-0.874375	-2.332740	-0.003333	0.001771	0.057148	1.000000	-0.000001	0.000025	0.000034	-159.454917	-75.357550	153.838426
14534	9.550317	-0.875012	-2.332266	-0.003777	0.001319	0.057148	1.000000	-0.000001	0.000025	0.000034	-159.451210	-75.357718	153.834630
14535	9.529725	-0.869582	-2.320231	-0.010020	0.005514	0.033894	1.000000	0.000004	0.000029	0.000030	-159.447815	-75.358550	153.833746
14536	9.529796	-0.870098	-2.319746	-0.010463	0.005063	0.033894	1.000000	-0.000004	0.000021	0.000024	-159.448830	-75.358721	153.834476
14537	9.550544	-0.876578	-2.330745	-0.005094	-0.000051	0.057147	1.000000	-0.000004	0.000033	0.000023	-159.448513	-75.360251	153.835968
14538	9.534814	-0.873084	-2.360720	0.027939	-0.000921	0.048711	1.000000	-0.000009	0.000017	0.000028	-159.449273	-75.359800	153.835838
14539	9.555508	-0.879738	-2.371886	0.033321	-0.006033	0.071966	1.000000	0.000017	0.000018	0.000034	-159.444291	-75.359391	153.830983
14540	9.530037	-0.872097	-2.318003	-0.012201	0.003246	0.033893	1.000000	-0.000012	0.000025	0.000018	-159.448353	-75.360232	153.833926
14541	9.530081	-0.872468	-2.317684	-0.012641	0.002790	0.033892	1.000000	-0.000004	0.000010	0.000025	-159.450868	-75.359144	153.834858
14542	9.534977	-0.875110	-2.359310	0.026193	-0.002735	0.048715	1.000000	-0.000001	0.000025	0.000034	-159.447166	-75.359312	153.831068
14543	9.560228	-0.846281	-2.329094	-0.005709	0.031111	0.063437	1.000000	-0.000002	0.000011	0.000012	-159.454521	-75.358931	153.839968
14544	9.530182	-0.873896	-2.316729	-0.013951	0.001431	0.033891	1.000000	-0.000006	0.000020	0.000037	-159.450565	-75.358476	153.835318
14545	9.547685	-0.862065	-2.343362	0.009180	0.013048	0.056079	1.000000	0.000017	0.000018	0.000034	-159.445540	-75.358149	153.828777
14546	9.517647	-0.889807	-2.330900	0.000940	-0.016629	0.026529	1.000000	-0.000004	0.000021	0.000024	-159.446560	-75.358319	153.829513
14547	9.530337	-0.875748	-2.315392	-0.015232	0.000065	0.033889	1.000000	-0.000011	0.000039	0.000039	-159.439530	-75.359888	153.818453
14548	9.547918	-0.863764	-2.341788	0.007858	0.011687	0.056082	1.000000	0.000001	0.000026	0.000020	-159.440806	-75.360681	153.820051
14549	9.551142	-0.882703	-2.325980	-0.010303	-0.005511	0.057142	1.000000	0.000016	0.000004	0.000012	-159.447032	-75.359620	153.828097
14550	9.530504	-0.877251	-2.314135	-0.016537	-0.001296	0.033887	1.000000	-0.000008	0.000031	0.000049	-159.436686	-75.359829	153.816617
14551	9.539974	-0.844699	-2.314271	-0.015006	0.032127	0.040191	1.000000	0.000001	0.000014	0.000021	-159.439865	-75.359243	153.825501
14552	9.517971	-0.892984	-2.328362	-0.001702	-0.019358	0.026524	1.000000	-0.000009	0.000017	0.000028	-159.440634	-75.358792	153.825380
14553	9.560728	-0.851657	-2.325076	-0.010096	0.026542	0.063447	1.000000	0.000001	0.000026	0.000020	-159.442020	-75.359683	153.832807
14554	9.518070	-0.893853	-2.327624	-0.002571	-0.020271	0.026522	1.000000	-0.000004	0.000010	0.000025	-159.444465	-75.358565	153.834999
14555	9.530732	-0.879771	-2.312241	-0.018741	-0.003580	0.033882	1.000000	-0.000001	0.000037	0.000033	-159.439239	-75.360132	153.824478
14556	9.511853	-0.857751	-2.357720	0.032038	0.012310	0.024424	1.000000	0.000024	0.000012	0.000018	-159.441078	-75.359542	153.829355
14557	9.556121	-0.940658	-2.234370	-0.106306	-0.054315	0.045428	1.000000	-0.000021	0.000031	0.000046	-159.433458	-75.359918	153.818050
14558	9.562729	-0.837801	-2.380443	0.044728	0.035940	0.077252	1.000000	0.000026	0.000013	0.000005	-159.440270	-75.359954	153.828310
14559	9.532708	-0.954343	-2.321029	-0.018686	-0.077849	0.044496	1.000000	-0.000001	0.000013	0.000034	-159.438235	-75.358845	153.831085
14560	9.561045	-0.855258	-2.322451	-0.013171	0.023356	0.063451	1.000000	0.000001	0.000014	0.000021	-159.440936	-75.358348	153.834140
14561	9.553364	-0.872451	-2.379058	0.041432	0.000690	0.070942	1.000000	0.000014	0.000015	0.000024	-159.440600	-75.357967	153.834964
14562	9.518396	-0.898026	-2.324683	-0.006042	-0.023898	0.026512	1.000000	0.000009	0.000022	0.000027	-159.438840	-75.358088	153.834360
14563	9.542235	-0.834260	-2.367362	0.036765	0.038349	0.054016	1.000000	-0.000042	0.000022	0.000038	-159.438380	-75.357863	153.828919
14564	9.524733	-0.847368	-2.340129	0.012808	0.025832	0.031800	1.000000	0.000027	0.000004	0.000028	-159.436924	-75.355980	153.830729
14565	9.537705	-0.870545	-2.408329	0.073166	-0.001513	0.062552	1.000000	0.000013	0.000012	0.000002	-159.446573	-75.356119	153.842985
14566	9.532895	-0.868795	-2.365884	0.033458	0.003107	0.047696	1.000000	-0.000056	0.000044	0.000046	-159.441266	-75.357808	153.830949
14567	9.546974	-0.800821	-2.324547	-0.002282	0.075492	0.045499	1.000000	0.000024	0.000012	0.000018	-159.443137	-75.357223	153.830876
14568	9.541072	-0.890526	-2.391466	0.054098	-0.019620	0.063591	1.000000	0.000009	0.000022	0.000027	-159.441379	-75.357344	153.830275
14569	9.523627	-0.903647	-2.363950	0.030140	-0.032142	0.041366	1.000000	-0.000006	0.000032	0.000036	-159.436343	-75.358155	153.828325
14570	9.531412	-0.798670	-2.353583	0.029859	0.073741	0.037120	1.000000	0.000012	0.000026	0.000036	-159.429872	-75.358271	153.823206
14571	9.521999	-0.921508	-2.305401	-0.027749	-0.044730	0.027523	1.000000	0.000004	0.000029	0.000030	-159.426760	-75.359036	153.819963
14572	9.536431	-0.891068	-2.347432	0.013045	-0.016371	0.048728	1.000000	0.000017	0.000018	0.000034	-159.421963	-75.358485	153.817156
14573	9.544193	-0.874868	-2.290047	-0.042400	0.005375	0.041221	1.000000	-0.000017	0.000032	0.000020	-159.424374	-75.360096	153.816816
14574	9.531639	-0.889978	-2.304583	-0.027085	-0.012209	0.033856	1.000000	0.000022	0.000011	0.000031	-159.421252	-75.358879	153.816321
14575	9.554130	-0.880263	-2.373094	0.035228	-0.005680	0.070964	1.000000	-0.000006	0.000032	0.000036	-159.416057	-75.359716	153.811543
14576	9.541235	-0.858122	-2.304111	-0.025999	0.020762	0.040199	1.000000	-0.000006	0.000032	0.000036	-159.410706	-75.360549	153.805467
14577	9.533650	-0.875343	-2.360418	0.028562	-0.001899	0.047712	1.000000	0.000006	0.000030	0.000017	-159.412553	-75.361916	153.810216
14578	9.519303	-0.906932	-2.317498	-0.013108	-0.031160	0.026485	1.000000	-0.000001	0.000013	0.000034	-159.410296	-75.360793	153.807903
14579	9.536884	-0.895092	-2.344060	0.009948	-0.019558	0.048726	1.000000	-0.000006	0.000032	0.000036	-159.405001	-75.361663	153.801041
14580	9.552650	-0.899684	-2.313245	-0.023988	-0.019634	0.057100	1.000000	0.000014	0.000003	0.000025	-159.406345	-75.359828	153.804210
14581	9.516309	-0.890233	-2.331724	0.003285	-0.015767	0.025470	1.000000	0.000012	0.000049	0.000034	-159.397278	-75.362438	153.798552
14582	9.542000	-0.898777	-2.384664	0.047857	-0.025984	0.063609	1.000000	-0.000023	0.000002	0.000003	-159.411958	-75.361380	153.811147
14583	9.549718	-0.882300	-2.327494	-0.007603	-0.004239	0.056088	1.000000	0.000014	0.000026	0.000023	-159.410402	-75.362133	153.809462
14584	9.546649	-0.864231	-2.342590	0.009683	0.012063	0.055083	1.000000	0.000014	0.000015	0.000024	-159.410327	-75.361586	153.811180
14585	9.532277	-0.895775	-2.299691	-0.031974	-0.017195	0.033834	1.000000	0.000001	0.000026	0.000020	-159.411560	-75.362391	153.811662
14586	9.538687	-0.844477	-2.315405	-0.012723	0.032986	0.039193	1.000000	0.000009	0.000010	0.000028	-159.411233	-75.361222	153.812522
14587	9.516613	-0.892838	-2.329487	0.000608	-0.018469	0.025466	1.000000	0.000009	0.000022	0.000027	-159.409833	-75.361187	153.813629
14588	9.538787	-0.845522	-2.314615	-0.013642	0.032081	0.039195	1.000000	0.000001	0.000026	0.000020	-159.411128	-75.361979	153.815249
14589	9.550007	-0.885246	-2.325190	-0.010296	-0.006954	0.056084	1.000000	-0.000004	0.000010	0.000025	-159.413672	-75.360846	153.818467
14590	9.546949	-0.867156	-2.340286	0.006988	0.009350	0.055088	1.000000	0.000009	0.000034	0.000026	-159.410508	-75.362254	153.816429
14591	9.538960	-0.846907	-2.313392	-0.014963	0.030723	0.039197	1.000000	-0.000022	0.000016	0.000025	-159.413989	-75.361931	153.817348
14592	9.526395	-0.861817	-2.328053	0.000364	0.013151	0.031834	1.000000	-0.000007	0.000018	0.000015	-159.419747	-75.362106	153.822628
14593	9.534501	-0.882988	-2.354125	0.021435	-0.009130	0.047726	1.000000	-0.000006	0.000020	0.000037	-159.415951	-75.361623	153.816595
14594	9.547156	-0.868915	-2.338788	0.005220	0.007538	0.055091	1.000000	0.000006	0.000019	0.000018	-159.418920	-75.361747	153.820525
14595	9.550305	-0.887897	-2.322954	-0.012948	-0.009675	0.056078	1.000000	0.000001	0.000014	0.000021	-159.421691	-75.361274	153.823139
14596	9.526555	-0.863703	-2.326701	-0.001410	0.011342	0.031836	1.000000	0.000004	0.000018	0.000031	-159.419696	-75.360772	153.821694
14597	9.550403	-0.888865	-2.322179	-0.013826	-0.010583	0.056076	1.000000	-0.000017	0.000032	0.000020	-159.422110	-75.362340	153.821881
14598	9.529817	-0.883165	-2.310206	-0.020014	-0.006323	0.032819	1.000000	-0.000014	0.000024	0.000031	-159.421235	-75.362555	153.819480
14599	9.534834	-0.885875	-2.351693	0.018787	-0.011847	0.047728	1.000000	0.000022	0.000023	0.000030	-159.416758	-75.362623	153.817853
14600	9.503042	-0.841002	-2.328957	0.008810	0.031006	0.007602	1.000000	0.000001	0.000014	0.000021	-159.419478	-75.362125	153.820927
14601	9.514216	-0.880835	-2.339605	0.012147	-0.008040	0.024473	1.000000	-0.000001	0.000013	0.000034	-159.417525	-75.360955	153.825403
14602	9.547545	-0.872980	-2.335684	0.001667	0.003906	0.055094	1.000000	0.000004	0.000029	0.000030	-159.414116	-75.361741	153.822514
14603	9.544537	-0.854687	-2.350741	0.018959	0.020212	0.054120	1.000000	-0.000005	0.000019	0.000002	-159.424816	-75.362618	153.833633
14604	9.544652	-0.855111	-2.350116	0.018515	0.019761	0.054122	1.000000	-0.000003	0.000047	0.000045	-159.413355	-75.364733	153.821616
14605	9.544755	-0.855847	-2.349431	0.018072	0.019306	0.054123	1.000000	-0.000001	0.000025	0.000033	-159.409737	-75.364903	153.814671
14606	9.544840	-0.856302	-2.348920	0.017628	0.018855	0.054125	1.000000	0.000016	0.000027	0.000010	-159.413215	-75.366268	153.820326
14607	9.557552	-0.842182	-2.333370	0.001398	0.035506	0.061492	1.000000	-0.000006	0.000032	0.000036	-159.408084	-75.367088	153.814265
14608	9.527449	-0.869975	-2.320693	-0.006723	0.005903	0.031838	1.000000	0.000002	0.000040	0.000042	-159.398294	-75.368535	153.804555
14609	9.524467	-0.852078	-2.335546	0.010557	0.022208	0.030873	1.000000	0.000004	0.000029	0.000030	-159.395054	-75.369341	153.800822
14610	9.551401	-0.895996	-2.315325	-0.019598	-0.016494	0.056058	1.000000	-0.000001	0.000036	0.000032	-159.389977	-75.370793	153.795630
14611	9.532763	-0.873927	-2.360613	0.031181	-0.000535	0.046767	1.000000	-0.000009	0.000040	0.000026	-159.388172	-75.372916	153.792751
14612	9.548534	-0.878525	-2.329552	-0.002768	-0.000643	0.055095	1.000000	0.000017	0.000018	0.000034	-159.383397	-75.372360	153.789966
14613	9.548548	-0.879116	-2.329273	-0.003222	-0.001106	0.055094	1.000000	-0.000004	0.000010	0.000025	-159.386204	-75.371214	153.795553
14614	9.551648	-0.898392	-2.313374	-0.021386	-0.018324	0.056051	1.000000	-0.000008	0.000031	0.000049	-159.375916	-75.371417	153.784131
14615	9.510334	-0.886838	-2.290052	-0.033296	-0.009328	0.009536	1.000000	0.000014	0.000015	0.000024	-159.376113	-75.370837	153.787446
14616	9.569311	-0.887048	-2.339681	0.001165	-0.007199	0.078350	1.000000	-0.000007	0.000006	0.000016	-159.383306	-75.369724	153.794189
14617	9.548677	-0.881340	-2.327905	-0.005013	-0.002931	0.055093	1.000000	0.000004	0.000029	0.000030	-159.380154	-75.370494	153.794554
14618	9.730815	-1.225013	3.648575	-5.870955	0.189782	-1.152587	0.999997	-0.002446	-0.000049	0.000221	-159.590915	-75.355174	153.722865
14619	8.441501	-1.518754	-12.489259	10.017472	-1.591747	1.441726	0.999982	0.006066	0.000126	-0.000097	-158.928099	-75.372718	153.767822
14620	11.406590	2.413326	4.763057	-6.967184	4.032315	-0.126622	0.999999	-0.000944	-0.001357	-0.000135	-159.316443	-75.231830	154.057574
14621	7.727135	-2.857969	-5.651551	3.401473	-2.439980	-0.741149	0.999983	-0.005665	0.001432	0.000400	-159.598057	-75.369128	153.684302
14622	10.989458	-2.389019	-3.092430	0.226053	-1.398533	1.764517	0.999996	0.002410	-0.001217	0.000333	-159.385676	-75.224030	153.750340
14623	9.541179	0.549620	-0.313010	-1.816948	1.585547	-0.559641	0.999998	0.001725	0.000546	-0.000896	-159.483353	-75.317037	154.061467
14624	8.889517	-0.691390	-4.042099	1.815901	-0.026779	-0.192818	1.000000	-0.000083	0.000186	0.000099	-159.437582	-75.331814	154.004488
14625	9.443383	-1.266628	-1.118626	-1.201634	-0.294705	-0.299414	0.999999	-0.001513	-0.000058	0.000464	-159.444687	-75.305568	153.840874
14626	9.771187	-1.069719	-3.861661	1.399235	-0.287364	0.651173	0.999999	0.001419	0.000042	-0.000123	-159.339604	-75.313814	153.900478
14627	9.274526	-0.308001	-1.313273	-0.870932	0.621527	-0.501857	1.000000	-0.000848	0.000238	0.000047	-159.395301	-75.335922	153.867862
14628	9.643575	-1.810298	-3.222855	0.735415	-0.985458	0.441607	1.000000	-0.000285	0.000108	0.000019	-159.417380	-75.345654	153.857109
14629	9.722084	-0.129224	-1.222543	-1.038587	0.853769	-0.105852	1.000000	0.000608	-0.000009	-0.000055	-159.385791	-75.345423	153.904680
14630	9.590508	-1.315420	-2.386188	-0.009122	-0.431452	0.148027	1.000000	-0.000595	-0.000019	0.000141	-159.412835	-75.336571	153.862316
14631	9.207587	-0.941577	-2.706430	0.427647	-0.129905	-0.179867	1.000000	0.000612	0.000053	-0.000051	-159.369497	-75.343026	153.900067
14632	9.503852	-0.616288	-1.720213	-0.559097	0.307017	-0.155809	1.000000	-0.000352	0.000041	0.000103	-159.375119	-75.342147	153.864358
14633	9.538685	-1.254526	-2.721210	0.333747	-0.403631	0.171852	1.000000	0.000244	-0.000056	-0.000042	-159.387083	-75.336707	153.915546
14634	9.452792	-0.579890	-2.510802	0.219956	0.272462	-0.021209	1.000000	0.000110	-0.000036	0.000011	-159.389467	-75.331225	153.931182
14635	9.672481	-1.305675	-2.348124	-0.064910	-0.408841	0.217467	1.000000	-0.000318	0.000023	0.000059	-159.412518	-75.330043	153.923354
14636	9.589418	-0.476419	-2.528364	0.215825	0.388368	0.105938	1.000000	0.000502	-0.000015	-0.000066	-159.397994	-75.329926	153.967976
14637	9.589841	-1.028866	-2.229749	-0.131977	-0.134488	0.084782	1.000000	-0.000498	0.000021	0.000097	-159.426026	-75.326962	153.940517
14638	9.542092	-0.679933	-2.608226	0.282152	0.174248	0.097242	1.000000	0.000309	0.000050	-0.000058	-159.420517	-75.333475	153.971544
14639	9.627463	-0.735064	-2.267193	-0.072535	0.156799	0.103899	1.000000	-0.000166	0.000059	0.000059	-159.420596	-75.336063	153.960641
14640	9.582951	-0.997283	-2.571050	0.204450	-0.132820	0.156184	1.000000	0.000052	0.000026	0.000010	-159.420424	-75.337272	153.966771
14641	9.500811	-0.806529	-2.248140	-0.068370	0.072988	-0.016768	1.000000	-0.000112	0.000130	0.000030	-159.415400	-75.348692	153.953889
14642	9.567411	-0.878716	-2.191794	-0.143964	0.012882	0.040767	1.000000	-0.000051	0.000104	0.000015	-159.413015	-75.358084	153.945465
14643	9.535494	-0.835612	-2.324037	-0.002814	0.040518	0.037358	1.000000	0.000052	0.000081	-0.000017	-159.416118	-75.366214	153.962527
14644	9.503987	-1.003363	-2.133330	-0.197206	-0.113789	-0.023317	1.000000	-0.000071	0.000042	0.000056	-159.408728	-75.367340	153.946561
14645	9.471284	-0.797251	-2.147221	-0.154411	0.085840	-0.069989	1.000000	-0.000008	0.000031	0.000049	-159.399251	-75.367339	153.951585
14646	9.480400	-0.853860	-2.100118	-0.207881	0.034944	-0.067272	1.000000	0.000091	0.000016	0.000020	-159.392133	-75.367098	153.955116
14647	9.554517	-0.987298	-2.311543	-0.034078	-0.106060	0.066299	1.000000	-0.000075	0.000015	0.000048	-159.392843	-75.365642	153.956582
14648	9.542922	-0.784709	-2.181232	-0.136806	0.104066	0.006242	1.000000	0.000064	-0.000020	0.000017	-159.395554	-75.361643	153.967144
14649	9.573465	-0.922223	-2.313141	-0.031298	-0.039251	0.079220	1.000000	-0.000025	-0.000031	0.000042	-159.400079	-75.355532	153.974073
14650	9.548053	-0.951833	-2.343620	-0.000043	-0.073797	0.064479	1.000000	0.000026	-0.000022	0.000008	-159.411145	-75.351693	153.988671
14651	9.568217	-0.794551	-2.235870	-0.093237	0.092926	0.044486	1.000000	0.000019	-0.000016	0.000024	-159.416013	-75.347850	154.006685
14652	9.565958	-0.977754	-2.454419	0.099084	-0.106442	0.110346	1.000000	-0.000022	-0.000007	0.000027	-159.422453	-75.344874	154.010851
14653	9.575052	-0.780947	-2.335924	0.001970	0.098901	0.073579	1.000000	0.000032	-0.000040	-0.000007	-159.441800	-75.339674	154.042945
14654	9.538503	-0.897416	-2.391659	0.051186	-0.025149	0.061784	1.000000	-0.000037	-0.000008	0.000037	-159.446071	-75.336126	154.043090
14655	9.525868	-0.912380	-2.406527	0.066591	-0.042640	0.054416	1.000000	-0.000012	0.000025	0.000017	-159.450752	-75.336904	154.060249
14656	9.510957	-0.779755	-2.244113	-0.073402	0.099896	-0.010290	1.000000	-0.000025	0.000025	0.000014	-159.457652	-75.337798	154.064596
14657	9.521477	-0.948191	-2.446997	0.103141	-0.082358	0.062937	1.000000	-0.000032	0.000031	0.000030	-159.458581	-75.338709	154.076431
14658	9.491867	-0.846889	-2.242174	-0.077901	0.031220	-0.023252	1.000000	0.000032	0.000008	0.000025	-159.457409	-75.337432	154.079127
14659	9.522619	-0.857938	-2.337237	0.005801	0.016117	0.030011	1.000000	-0.000014	0.000013	0.000031	-159.458383	-75.336357	154.084758
14660	9.529119	-0.933208	-2.389199	0.046722	-0.061757	0.055305	1.000000	0.000017	0.000018	0.000034	-159.453642	-75.335797	154.082007
14661	9.516170	-0.784699	-2.284337	-0.036466	0.092614	0.004722	1.000000	0.000002	0.000017	0.000044	-159.447166	-75.334657	154.083888
14662	9.529560	-0.972066	-2.472046	0.122513	-0.106400	0.078830	1.000000	0.000006	-0.000005	0.000020	-159.452975	-75.332199	154.090715
14663	9.519517	-0.842015	-2.352173	0.021668	0.031134	0.029135	1.000000	0.000029	-0.000016	0.000039	-159.449819	-75.327711	154.095752
14664	9.554609	-0.944240	-2.442387	0.089879	-0.073263	0.093571	1.000000	-0.000050	0.000003	0.000033	-159.455469	-75.325506	154.095810
14665	9.507219	-0.895193	-2.450538	0.113326	-0.030508	0.045302	1.000000	0.000055	0.000006	0.000021	-159.453897	-75.324064	154.107842
14666	9.545099	-0.852049	-2.405449	0.065240	0.020086	0.067415	1.000000	-0.000022	0.000005	0.000026	-159.458920	-75.322376	154.110564
14667	9.546972	-0.962282	-2.498962	0.143641	-0.096545	0.101218	1.000000	-0.000025	0.000013	0.000015	-159.467906	-75.321862	154.132329
14668	9.540720	-0.761360	-2.410360	0.079770	0.108521	0.056290	1.000000	0.000018	0.000005	-0.000001	-159.479147	-75.321267	154.146218
14669	9.540652	-0.887781	-2.446126	0.101312	-0.020061	0.075945	1.000000	-0.000032	0.000040	0.000007	-159.488382	-75.323992	154.156688
14670	9.512139	-0.861080	-2.407413	0.073592	0.006013	0.036802	1.000000	0.000010	0.000057	0.000024	-159.482465	-75.327970	154.151850
14671	9.542215	-0.797000	-2.334992	0.003862	0.078336	0.043027	1.000000	-0.000029	0.000055	0.000015	-159.485435	-75.331985	154.154340
14672	9.541382	-0.888643	-2.442961	0.099956	-0.021426	0.075956	1.000000	0.000015	0.000073	0.000019	-159.478361	-75.337870	154.148928
14673	9.529625	-0.774952	-2.264230	-0.057883	0.104076	0.012121	1.000000	0.000018	0.000053	0.000031	-159.470263	-75.341008	154.149670
14674	9.549968	-0.910519	-2.466875	0.120617	-0.044106	0.091852	1.000000	-0.000018	0.000078	0.000029	-159.462153	-75.347044	154.139295
14675	9.489647	-0.798937	-2.165923	-0.144709	0.083819	-0.047701	1.000000	-0.000004	0.000058	0.000056	-159.445329	-75.349601	154.136843
14676	9.556087	-0.785239	-2.313932	-0.014377	0.093026	0.050417	1.000000	-0.000001	0.000057	0.000008	-159.447139	-75.354257	154.138707
14677	9.552418	-0.982452	-2.317502	-0.029726	-0.103153	0.065227	1.000000	0.000058	0.000044	0.000028	-159.436725	-75.356598	154.143537
14678	9.533619	-0.797009	-2.243218	-0.077845	0.084884	0.012987	1.000000	-0.000035	0.000043	0.000077	-159.416080	-75.356939	154.118224
14679	9.522991	-0.922437	-2.351151	0.016561	-0.048707	0.039395	1.000000	0.000009	0.000034	0.000026	-159.413677	-75.358256	154.119392
14680	9.517481	-0.883327	-2.225273	-0.099820	-0.000644	0.000803	1.000000	0.000019	0.000031	0.000020	-159.412482	-75.359605	154.120575
14681	9.561042	-0.879753	-2.305038	-0.032070	0.001333	0.061504	1.000000	-0.000032	0.000019	0.000031	-159.414858	-75.359161	154.126952
14682	9.566990	-0.917446	-2.273726	-0.067759	-0.032871	0.063200	1.000000	0.000042	0.000005	0.000018	-159.415612	-75.357831	154.132817
14683	9.561080	-0.880777	-2.304489	-0.032990	0.000382	0.061501	1.000000	-0.000014	0.000024	0.000030	-159.415786	-75.357939	154.150187
14684	9.559471	-0.935080	-2.330232	-0.013529	-0.055684	0.070862	1.000000	-0.000035	-0.000008	0.000024	-159.425036	-75.355019	154.155721
14685	9.544963	-0.840069	-2.251389	-0.077111	0.042939	0.029721	1.000000	0.000042	0.000028	0.000016	-159.423519	-75.356178	154.169710
14686	9.527799	-0.890381	-2.307499	-0.024102	-0.013214	0.030866	1.000000	-0.000027	0.000000	0.000029	-159.428320	-75.353871	154.171599
14687	9.543347	-0.894871	-2.276956	-0.058088	-0.013587	0.039076	1.000000	0.000001	0.000002	0.000022	-159.432898	-75.352074	154.171016
14688	9.529327	-0.837406	-2.281615	-0.044903	0.041474	0.021506	1.000000	-0.000014	0.000001	0.000032	-159.434910	-75.349712	154.171555
14689	9.551308	-0.916596	-2.303368	-0.037378	-0.036266	0.054958	1.000000	0.000006	-0.000005	0.000020	-159.441282	-75.347247	154.178934
14690	9.546932	-0.826113	-2.308632	-0.022503	0.052658	0.043929	1.000000	0.000007	-0.000002	0.000042	-159.437471	-75.344155	154.175921
14691	9.499322	-0.903480	-2.353110	0.023125	-0.032599	0.015279	1.000000	-0.000022	0.000005	0.000026	-159.443148	-75.342436	154.189168
14692	9.560792	-0.885430	-2.303900	-0.037028	-0.003800	0.061486	1.000000	0.000055	-0.000003	0.000044	-159.432887	-75.339128	154.185267
14693	9.524478	-0.875871	-2.322968	-0.009618	0.000428	0.030021	1.000000	-0.000017	0.000009	0.000022	-159.438457	-75.338042	154.194128
14694	9.510220	-0.944897	-2.363598	0.025800	-0.072598	0.031995	1.000000	0.000002	0.000017	0.000044	-159.431586	-75.336905	154.187394
14695	9.551863	-0.831568	-2.350064	0.014422	0.045481	0.058996	1.000000	0.000006	-0.000005	0.000020	-159.438038	-75.334376	154.216860
14696	9.540550	-0.919024	-2.375231	0.032268	-0.044429	0.061796	1.000000	-0.000004	0.000021	0.000024	-159.439140	-75.334540	154.217683
14697	9.544378	-0.849016	-2.406531	0.068662	0.022757	0.066692	1.000000	-0.000002	0.000011	0.000012	-159.447410	-75.333979	154.235034
14698	9.529611	-0.880235	-2.363925	0.027348	-0.006725	0.045083	1.000000	-0.000007	0.000006	0.000016	-159.454609	-75.332862	154.241783
14699	9.522080	-0.897099	-2.420782	0.082046	-0.028978	0.052778	1.000000	-0.000010	0.000003	0.000006	-159.467218	-75.331687	154.262782
14700	9.518632	-0.841189	-2.352882	0.022419	0.030985	0.028377	1.000000	-0.000002	0.000011	0.000012	-159.474664	-75.331188	154.270387
14701	9.547381	-0.868457	-2.390477	0.049253	0.004020	0.067527	1.000000	-0.000017	0.000009	0.000022	-159.480334	-75.330048	154.283827
14702	9.523758	-0.844025	-2.394470	0.060729	0.025253	0.043453	1.000000	-0.000004	0.000010	0.000025	-159.482842	-75.328923	154.286081
14703	9.542298	-0.867133	-2.348169	0.009118	0.007908	0.052460	1.000000	0.000001	0.000014	0.000021	-159.486469	-75.328304	154.309828
14704	9.544475	-0.851182	-2.405383	0.065477	0.019563	0.066721	1.000000	0.000009	0.000010	0.000028	-159.486193	-75.327124	154.310737
14705	9.515792	-0.824711	-2.367247	0.037711	0.045605	0.027577	1.000000	-0.000009	0.000029	0.000027	-159.485992	-75.327882	154.314427
14706	9.526869	-0.864698	-2.377518	0.041318	0.006514	0.044279	1.000000	0.000007	0.000033	0.000039	-159.477975	-75.328653	154.307131
14707	9.516015	-0.826017	-2.365893	0.036820	0.044674	0.027585	1.000000	-0.000000	0.000048	0.000031	-159.472160	-75.331345	154.291130
14708	9.550721	-0.890763	-2.371971	0.028503	-0.016119	0.068351	1.000000	-0.000009	0.000017	0.000028	-159.473020	-75.330889	154.291101
14709	9.524244	-0.847832	-2.391186	0.057527	0.022034	0.043480	1.000000	0.000009	0.000034	0.000026	-159.470711	-75.332172	154.303436
14710	9.522171	-0.864873	-2.333058	0.000293	0.009460	0.029204	1.000000	0.000022	0.000034	0.000029	-159.464845	-75.333511	154.300145
14711	9.535470	-0.888353	-2.400641	0.060666	-0.017529	0.060177	1.000000	-0.000008	0.000040	0.000026	-159.463655	-75.335522	154.304421
14712	9.558713	-0.876184	-2.312293	-0.028498	0.003756	0.060639	1.000000	-0.000008	0.000052	0.000025	-159.460303	-75.338930	154.300106
14713	9.510005	-0.880890	-2.345613	0.014874	-0.008875	0.021832	1.000000	0.000004	0.000041	0.000029	-159.456389	-75.340864	154.311067
14714	9.543465	-0.873174	-2.341177	0.004128	0.002814	0.052466	1.000000	0.000004	0.000041	0.000029	-159.451656	-75.342927	154.306835
14715	9.546554	-0.892145	-2.324813	-0.013913	-0.014588	0.053262	1.000000	-0.000001	0.000046	0.000009	-159.455502	-75.346166	154.328340
14716	9.526007	-0.886256	-2.312735	-0.020018	-0.010258	0.030000	1.000000	-0.000019	0.000031	0.000033	-159.453060	-75.347048	154.323742
14717	9.541651	-0.890879	-2.281567	-0.054033	-0.010749	0.038165	1.000000	0.000009	0.000034	0.000026	-159.450811	-75.348364	154.318307
14718	9.518130	-0.866612	-2.285182	-0.042567	0.010518	0.014110	1.000000	-0.000001	0.000025	0.000033	-159.447238	-75.348520	154.314650
14719	9.538860	-0.873476	-2.296134	-0.037368	0.005256	0.037369	1.000000	0.000004	0.000018	0.000031	-159.445884	-75.347930	154.317298
14720	9.538872	-0.874064	-2.295857	-0.037808	0.004801	0.037368	1.000000	0.000009	0.000010	0.000028	-159.445622	-75.346748	154.318220
14721	9.543991	-0.876908	-2.337637	0.000942	-0.000446	0.052467	1.000000	0.000012	0.000002	0.000038	-159.442604	-75.344221	154.315730
14722	9.513548	-0.904497	-2.325609	-0.006743	-0.029964	0.022618	1.000000	-0.000001	0.000013	0.000034	-159.440442	-75.343089	154.313509
14723	9.538758	-0.876184	-2.295524	-0.039174	0.003394	0.037363	1.000000	0.000012	-0.000010	0.000039	-159.438940	-75.339230	154.323549
14724	9.535814	-0.858164	-2.311006	-0.022051	0.019878	0.036580	1.000000	-0.000022	0.000016	0.000025	-159.442600	-75.338830	154.324881
14725	9.559420	-0.883365	-2.306634	-0.034411	-0.002324	0.060620	1.000000	0.000016	0.000004	0.000012	-159.449281	-75.337563	154.337202
14726	9.526125	-0.892170	-2.309976	-0.024519	-0.014898	0.029984	1.000000	-0.000021	0.000030	0.000046	-159.441917	-75.337818	154.327266
14727	9.543942	-0.880344	-2.336543	-0.001761	-0.003224	0.052466	1.000000	-0.000007	0.000006	0.000016	-159.449691	-75.336646	154.339310
14728	9.531295	-0.895281	-2.351452	0.013790	-0.020590	0.045092	1.000000	-0.000019	0.000008	0.000035	-159.450073	-75.334952	154.337584
14729	9.531311	-0.895789	-2.351192	0.013338	-0.021053	0.045092	1.000000	-0.000004	0.000021	0.000024	-159.451526	-75.335065	154.343627
14730	9.552043	-0.902416	-2.362227	0.018551	-0.026305	0.068352	1.000000	-0.000012	0.000014	0.000018	-159.457086	-75.334614	154.348103
14731	9.531413	-0.896403	-2.350545	0.012441	-0.021975	0.045091	1.000000	-0.000002	0.000022	0.000011	-159.463585	-75.335339	154.358548
14732	9.520496	-0.857396	-2.339452	0.007909	0.016223	0.028435	1.000000	0.000014	0.000003	0.000025	-159.464977	-75.333486	154.361759
14733	9.528562	-0.878698	-2.365570	0.029097	-0.005946	0.044323	1.000000	-0.000014	0.000024	0.000030	-159.464714	-75.333626	154.368252
14734	9.549310	-0.885342	-2.376538	0.034307	-0.011201	0.067585	1.000000	-0.000007	0.000018	0.000015	-159.470522	-75.333794	154.373587
14735	9.525761	-0.860748	-2.380508	0.045739	0.010097	0.043561	1.000000	0.000016	0.000004	0.000012	-159.477378	-75.332457	154.400359
14736	9.528662	-0.879775	-2.364767	0.027751	-0.007314	0.044326	1.000000	0.000014	0.000015	0.000024	-159.477367	-75.331892	154.402143
14737	9.535554	-0.828616	-2.380494	0.046381	0.043028	0.050179	1.000000	0.000004	0.000018	0.000031	-159.475895	-75.331314	154.399963
14738	9.551097	-0.833245	-2.349669	0.012385	0.042510	0.058317	1.000000	-0.000004	0.000010	0.000025	-159.478423	-75.330187	154.402237
14739	9.517814	-0.841873	-2.353032	0.022268	0.029943	0.027684	1.000000	0.000011	0.000023	0.000014	-159.482504	-75.330811	154.417389
14740	9.543726	-0.850772	-2.405895	0.066677	0.019953	0.066078	1.000000	0.000004	0.000018	0.000031	-159.480598	-75.330296	154.416034
14741	9.559325	-0.855460	-2.374807	0.032654	0.019422	0.074212	1.000000	-0.000024	0.000039	0.000036	-159.476944	-75.331753	154.419350
14742	9.538727	-0.849598	-2.362948	0.026567	0.023771	0.050952	1.000000	-0.000007	0.000018	0.000015	-159.482755	-75.331920	154.424687
14743	9.538816	-0.849932	-2.362472	0.026087	0.023305	0.050955	1.000000	-0.000004	0.000033	0.000023	-159.483191	-75.333251	154.442669
14744	9.518258	-0.844190	-2.350408	0.020001	0.027654	0.027696	1.000000	-0.000005	0.000044	0.000035	-159.476588	-75.335362	154.435326
14745	9.547132	-0.871808	-2.387382	0.046843	0.000708	0.066846	1.000000	-0.000014	0.000036	0.000029	-159.475012	-75.336744	154.448905
14746	9.544967	-0.888798	-2.329144	-0.010329	-0.012023	0.052454	1.000000	-0.000000	0.000048	0.000031	-159.468655	-75.339473	154.442419
14747	9.521549	-0.864551	-2.332523	0.001085	0.009285	0.028447	1.000000	-0.000011	0.000039	0.000039	-159.462505	-75.340859	154.444532
14748	9.550393	-0.892264	-2.369587	0.027965	-0.017652	0.067596	1.000000	0.000027	0.000027	0.000026	-159.458311	-75.341521	154.443548
14749	9.545302	-0.890696	-2.327047	-0.011705	-0.013435	0.052451	1.000000	-0.000024	0.000039	0.000036	-159.454961	-75.342970	154.442485
14750	9.527584	-0.903581	-2.299499	-0.035310	-0.026066	0.029928	1.000000	0.000009	0.000034	0.000026	-159.451905	-75.344360	154.440566
14751	9.524803	-0.885478	-2.314513	-0.018251	-0.009559	0.029187	1.000000	0.000019	0.000019	0.000021	-159.452804	-75.344321	154.447271
14752	9.542733	-0.873578	-2.340828	0.004472	0.002161	0.051711	1.000000	0.000001	0.000037	0.000019	-159.452784	-75.346387	154.447560
14753	9.534761	-0.853285	-2.313932	-0.017671	0.023364	0.035824	1.000000	0.000004	0.000017	0.000031	-159.451438	-75.345785	154.449744
14754	9.545742	-0.893248	-2.324261	-0.013953	-0.015753	0.052445	1.000000	0.000009	0.000034	0.000026	-159.448385	-75.347174	154.447828
14755	9.534874	-0.854375	-2.313064	-0.018571	0.022444	0.035825	1.000000	-0.000009	0.000005	0.000029	-159.450977	-75.345349	154.456391
14756	9.555599	-0.861052	-2.324118	-0.013374	0.017176	0.059087	1.000000	-0.000012	0.000025	0.000017	-159.455151	-75.346185	154.459458
14757	9.522339	-0.869580	-2.327422	-0.003431	0.004659	0.028450	1.000000	0.000006	0.000018	0.000018	-159.458702	-75.346205	154.475191
14758	9.547699	-0.841059	-2.296808	-0.035966	0.037914	0.043201	1.000000	-0.000024	0.000039	0.000036	-159.454648	-75.347755	154.468349
14759	9.527697	-0.872729	-2.368365	0.034867	-0.000939	0.043610	1.000000	-0.000004	0.000010	0.000025	-159.457723	-75.346555	154.477425
14760	9.563891	-0.883611	-2.348862	0.006499	-0.006352	0.074974	1.000000	-0.000009	0.000017	0.000028	-159.458619	-75.346096	154.477433
14761	9.543213	-0.877925	-2.337242	0.000402	-0.002007	0.051712	1.000000	-0.000011	0.000016	0.000041	-159.455089	-75.344922	154.487195
14762	9.530606	-0.892995	-2.351946	0.016019	-0.019311	0.044336	1.000000	-0.000004	0.000021	0.000024	-159.456233	-75.345081	154.488061
14763	9.530607	-0.893452	-2.351768	0.015567	-0.019772	0.044335	1.000000	-0.000004	-0.000002	0.000026	-159.460400	-75.342616	154.488617
14764	9.530595	-0.893873	-2.351654	0.015127	-0.020228	0.044335	1.000000	-0.000022	0.000016	0.000025	-159.464086	-75.342216	154.489976
14765	9.530610	-0.894534	-2.351342	0.014667	-0.020702	0.044335	1.000000	0.000015	0.000017	0.000047	-159.455000	-75.340957	154.474692
14766	9.522553	-0.874382	-2.324746	-0.007458	0.000510	0.028449	1.000000	0.000016	0.000004	0.000012	-159.461335	-75.339726	154.483259
14767	9.519760	-0.856059	-2.340006	0.009597	0.017041	0.027735	1.000000	-0.000012	0.000025	0.000017	-159.465944	-75.340502	154.479935
14768	9.555958	-0.866897	-2.320467	-0.018782	0.011613	0.059086	1.000000	0.000014	0.000003	0.000025	-159.467352	-75.338645	154.483159
14769	9.553125	-0.848761	-2.335831	-0.001735	0.028133	0.058376	1.000000	0.000001	0.000014	0.000021	-159.470844	-75.338061	154.483124
14770	9.540527	-0.863635	-2.350563	0.013879	0.010828	0.051001	1.000000	0.000006	0.000018	0.000018	-159.473883	-75.338168	154.487130
14771	9.537728	-0.845467	-2.365814	0.030921	0.027358	0.050296	1.000000	-0.000014	0.000013	0.000031	-159.475120	-75.337000	154.495692
14772	9.527962	-0.879028	-2.364969	0.029032	-0.006943	0.043627	1.000000	0.000001	0.000026	0.000020	-159.476513	-75.337776	154.497418
14773	9.545902	-0.867036	-2.391415	0.051701	0.004775	0.066187	1.000000	-0.000007	0.000018	0.000015	-159.482701	-75.337860	154.511115
14774	9.525269	-0.861110	-2.379717	0.045639	0.009146	0.042927	1.000000	-0.000014	0.000024	0.000030	-159.481959	-75.338071	154.508851
14775	9.558651	-0.853395	-2.375626	0.034725	0.020692	0.073569	1.000000	0.000001	0.000014	0.000021	-159.485369	-75.337456	154.521467
14776	9.525347	-0.862113	-2.379040	0.044730	0.008226	0.042932	1.000000	-0.000006	0.000020	0.000037	-159.481595	-75.336989	154.516999
14777	9.546102	-0.869050	-2.389883	0.049886	0.002941	0.066197	1.000000	0.000004	0.000029	0.000030	-159.478727	-75.337659	154.523931
14778	9.540984	-0.867396	-2.347321	0.010257	0.007136	0.051009	1.000000	-0.000008	0.000040	0.000026	-159.476833	-75.339774	154.521104
14779	9.528430	-0.882628	-2.361740	0.025861	-0.010166	0.043633	1.000000	0.000000	0.000027	0.000055	-159.464337	-75.339182	154.516055
14780	9.549212	-0.889560	-2.372469	0.031040	-0.015453	0.066896	1.000000	-0.000001	0.000034	0.000010	-159.469013	-75.341253	154.520847
14781	9.528614	-0.883772	-2.360570	0.024957	-0.011091	0.043634	1.000000	0.000025	0.000026	0.000039	-159.460449	-75.341185	154.515985
14782	9.562064	-0.876148	-2.356165	0.014058	0.000449	0.074275	1.000000	-0.000006	0.000041	0.000013	-159.463480	-75.343926	154.518499
14783	9.585683	-0.901599	-2.351269	0.001710	-0.021873	0.098225	1.000000	0.000002	0.000028	0.000043	-159.455849	-75.343967	154.509505
14784	9.541525	-0.870966	-2.343797	0.007535	0.004353	0.051013	1.000000	0.000001	0.000014	0.000021	-159.458652	-75.343455	154.512664
14785	9.544413	-0.890072	-2.327728	-0.010425	-0.013132	0.051698	1.000000	0.000004	0.000041	0.000029	-159.454493	-75.345408	154.509356
14786	9.523826	-0.884327	-2.315753	-0.016476	-0.008752	0.028434	1.000000	0.000004	0.000029	0.000030	-159.451216	-75.346175	154.506607
14787	9.521068	-0.866324	-2.330892	0.000547	0.007800	0.027752	1.000000	-0.000001	0.000013	0.000034	-159.449557	-75.344908	154.523825
14788	9.557250	-0.877253	-2.311235	-0.027853	0.002305	0.059071	1.000000	-0.000012	0.000025	0.000017	-159.453749	-75.345743	154.526912
14789	9.533851	-0.852586	-2.314976	-0.016444	0.023694	0.035130	1.000000	0.000016	0.000027	0.000010	-159.457796	-75.346979	154.539196
14790	9.526857	-0.904791	-2.298535	-0.035767	-0.027629	0.029105	1.000000	-0.000011	0.000016	0.000041	-159.453788	-75.345893	154.533884
14791	9.554680	-0.859992	-2.325338	-0.011747	0.017925	0.058393	1.000000	-0.000008	0.000040	0.000026	-159.452473	-75.347893	154.544320
14792	9.534039	-0.854297	-2.313573	-0.017796	0.022307	0.035131	1.000000	0.000007	0.000009	0.000041	-159.447325	-75.346077	154.539939
14793	9.544900	-0.894336	-2.324093	-0.014042	-0.016853	0.051687	1.000000	-0.000004	0.000021	0.000024	-159.449213	-75.346129	154.547998
14794	9.508814	-0.884413	-2.343018	0.013486	-0.012246	0.020376	1.000000	-0.000006	0.000020	0.000037	-159.445453	-75.345660	154.543546
14795	9.542172	-0.876973	-2.338917	0.002529	-0.000754	0.051017	1.000000	-0.000011	0.000016	0.000041	-159.442138	-75.344472	154.543745
14796	9.521518	-0.871140	-2.327253	-0.003517	0.003631	0.027754	1.000000	-0.000012	0.000025	0.000017	-159.446334	-75.345307	154.546837
14797	9.557714	-0.881947	-2.307526	-0.031954	-0.001919	0.059059	1.000000	0.000006	0.000018	0.000018	-159.449946	-75.345303	154.564633
14798	9.537013	-0.876321	-2.295971	-0.037999	0.002466	0.035794	1.000000	0.000005	0.000008	0.000054	-159.439883	-75.342860	154.554922
14799	9.521577	-0.872738	-2.326414	-0.004880	0.002240	0.027753	1.000000	-0.000015	0.000010	0.000009	-159.450512	-75.342339	154.568799
14800	9.542320	-0.879343	-2.337421	0.000286	-0.003061	0.051016	1.000000	-0.000004	0.000021	0.000024	-159.451678	-75.342496	154.569688
14801	9.542363	-0.879767	-2.337086	-0.000170	-0.003528	0.051016	1.000000	0.000001	0.000014	0.000021	-159.454853	-75.341922	154.567479
14802	9.547657	-0.882377	-2.378762	0.038569	-0.008590	0.066245	1.000000	-0.000004	0.000010	0.000025	-159.457421	-75.340792	154.569791
14803	9.536816	-0.843399	-2.367835	0.033862	0.029618	0.049706	1.000000	0.000001	0.000002	0.000022	-159.462395	-75.338894	154.576809
14804	9.542393	-0.881054	-2.336480	-0.001518	-0.004922	0.051016	1.000000	0.000001	0.000026	0.000020	-159.463806	-75.339667	154.578554
14805	9.552309	-0.848588	-2.336549	-0.000626	0.028449	0.057742	1.000000	0.000002	0.000016	0.000043	-159.457450	-75.338422	154.584529
14806	9.536923	-0.845026	-2.366821	0.032513	0.028246	0.049714	1.000000	0.000006	0.000018	0.000018	-159.460506	-75.338526	154.588552
14807	9.524336	-0.859885	-2.381511	0.048151	0.010992	0.042339	1.000000	-0.000004	0.000021	0.000024	-159.462413	-75.338562	154.606956
14808	9.534276	-0.827243	-2.381585	0.049053	0.044374	0.049073	1.000000	-0.000004	0.000021	0.000024	-159.463583	-75.338718	154.607850
14809	9.560568	-0.871270	-2.361382	0.019271	0.004953	0.073631	1.000000	-0.000004	0.000021	0.000024	-159.465138	-75.338799	154.607693
14810	9.519240	-0.859092	-2.338336	0.007638	0.014198	0.027106	1.000000	0.000004	0.000029	0.000030	-159.461878	-75.339563	154.604964
14811	9.557949	-0.853634	-2.375981	0.035820	0.021078	0.072991	1.000000	0.000006	0.000018	0.000018	-159.465533	-75.339563	154.618255
14812	9.563515	-0.891496	-2.344488	0.000464	-0.013490	0.074275	1.000000	-0.000003	0.000024	0.000046	-159.457114	-75.339085	154.609339
14813	9.542857	-0.885897	-2.332749	-0.005590	-0.009105	0.051011	1.000000	-0.000001	0.000025	0.000033	-159.454044	-75.339150	154.607424
14814	9.542914	-0.886526	-2.332280	-0.006030	-0.009563	0.051010	1.000000	-0.000001	0.000025	0.000033	-159.450544	-75.339296	154.603843
14815	9.540230	-0.868413	-2.347343	0.010964	0.007031	0.050374	1.000000	0.000001	0.000026	0.000020	-159.452335	-75.339975	154.616598
14816	9.527655	-0.883375	-2.361938	0.026655	-0.010202	0.042996	1.000000	-0.000001	0.000025	0.000033	-159.448836	-75.340121	154.613018
14817	9.543138	-0.888072	-2.330773	-0.007389	-0.010955	0.051008	1.000000	-0.000004	0.000033	0.000023	-159.449045	-75.341455	154.627091
14818	9.527842	-0.884341	-2.360819	0.025755	-0.011118	0.042997	1.000000	-0.000009	0.000029	0.000027	-159.448578	-75.342280	154.625717
14819	9.540575	-0.870224	-2.345267	0.009160	0.005179	0.050377	1.000000	-0.000002	0.000022	0.000011	-159.455183	-75.342989	154.621161
14820	9.558770	-0.893426	-2.298719	-0.042314	-0.012632	0.059012	1.000000	0.000004	0.000017	0.000031	-159.453329	-75.342466	154.619858
14821	9.530774	-0.904255	-2.344033	0.006944	-0.029582	0.043625	1.000000	-0.000014	0.000024	0.000030	-159.453088	-75.342587	154.618368
14822	9.520033	-0.865261	-2.332828	0.002234	0.008656	0.027115	1.000000	0.000006	0.000018	0.000018	-159.456152	-75.342689	154.622399
14823	9.553453	-0.857588	-2.328573	-0.008778	0.020096	0.057758	1.000000	-0.000009	0.000029	0.000027	-159.456157	-75.343425	154.622386
14824	9.535575	-0.870379	-2.301214	-0.032252	0.007437	0.035116	1.000000	0.000004	0.000029	0.000030	-159.452906	-75.344187	154.619665
14825	9.520260	-0.866803	-2.331325	0.000856	0.007255	0.027116	1.000000	-0.000001	0.000025	0.000033	-159.450210	-75.344194	154.640146
14826	9.541035	-0.873675	-2.342112	0.006002	0.001935	0.050380	1.000000	0.000001	0.000026	0.000020	-159.451634	-75.344965	154.641905
14827	9.541078	-0.874099	-2.341778	0.005539	0.001461	0.050381	1.000000	-0.000004	0.000010	0.000025	-159.454798	-75.343750	154.642244
14828	9.541092	-0.874495	-2.341573	0.005100	0.001003	0.050381	1.000000	0.000011	0.000011	0.000015	-159.459505	-75.343181	154.648551
14829	9.543839	-0.893783	-2.325716	-0.012800	-0.016535	0.050995	1.000000	-0.000018	0.000022	0.000056	-159.449361	-75.342069	154.630472
14830	9.538541	-0.892276	-2.283447	-0.052406	-0.012435	0.035721	1.000000	0.000006	0.000018	0.000018	-159.452428	-75.342170	154.634506
14831	9.559156	-0.863864	-2.367412	0.026767	0.011812	0.073035	1.000000	-0.000002	0.000011	0.000012	-159.460343	-75.341587	154.642122
14832	9.543922	-0.895182	-2.324836	-0.014137	-0.017919	0.050990	1.000000	-0.000001	0.000013	0.000034	-159.458255	-75.340445	154.639973
14833	9.533142	-0.856297	-2.313821	-0.018875	0.020318	0.034497	1.000000	-0.000004	0.000010	0.000025	-159.461131	-75.339238	154.645519
14834	9.541225	-0.877517	-2.339899	0.002410	-0.001769	0.050382	1.000000	0.000006	0.000018	0.000018	-159.464198	-75.339338	154.649554
14835	9.517884	-0.852814	-2.343727	0.013808	0.019704	0.026514	1.000000	-0.000007	0.000029	0.000014	-159.469274	-75.340693	154.658513
14836	9.538660	-0.859600	-2.354543	0.018945	0.014374	0.049780	1.000000	0.000004	0.000017	0.000031	-159.467430	-75.340167	154.657219
14837	9.541398	-0.879021	-2.338632	0.001046	-0.003168	0.050382	1.000000	-0.000018	0.000022	0.000056	-159.457313	-75.339040	154.650172
14838	9.541400	-0.879609	-2.338402	0.000607	-0.003625	0.050382	1.000000	0.000003	0.000003	0.000009	-159.466450	-75.337862	154.660102
14839	9.526047	-0.875812	-2.368830	0.033748	-0.003753	0.042404	1.000000	0.000004	0.000017	0.000030	-159.464703	-75.337275	154.664733
14840	9.538727	-0.861977	-2.353403	0.017152	0.012540	0.049785	1.000000	0.000004	0.000017	0.000030	-159.462861	-75.336749	154.663442
14841	9.538756	-0.862483	-2.353099	0.016684	0.012075	0.049787	1.000000	0.000001	0.000014	0.000021	-159.466186	-75.336129	154.681250
14842	9.520793	-0.875237	-2.325992	-0.006756	-0.000591	0.027116	1.000000	0.000004	0.000017	0.000030	-159.464346	-75.335603	154.679961
14843	9.538843	-0.863580	-2.352344	0.015785	0.011157	0.049789	1.000000	0.000004	0.000029	0.000029	-159.461410	-75.336281	154.687579
14844	9.546953	-0.884986	-2.378238	0.037082	-0.010918	0.065675	1.000000	0.000004	0.000017	0.000030	-159.459572	-75.335755	154.686291
14845	9.541679	-0.883443	-2.335814	-0.002543	-0.006858	0.050380	1.000000	-0.000011	0.000039	0.000038	-159.453280	-75.337122	154.703471
14846	9.539063	-0.865411	-2.350778	0.014437	0.009781	0.049793	1.000000	-0.000014	0.000024	0.000030	-159.452593	-75.337329	154.701264
14847	9.526457	-0.880300	-2.365518	0.030152	-0.007410	0.042414	1.000000	0.000001	0.000014	0.000021	-159.455843	-75.336716	154.717761
14848	9.541867	-0.884938	-2.334481	-0.003880	-0.008242	0.050378	1.000000	-0.000009	0.000028	0.000026	-159.455397	-75.337539	154.716409
14849	9.523945	-0.897704	-2.307141	-0.027321	-0.020943	0.027695	1.000000	0.000004	0.000029	0.000029	-159.452673	-75.338192	154.728551
14850	9.529385	-0.900413	-2.348486	0.011404	-0.025894	0.042997	1.000000	-0.000009	0.000028	0.000026	-159.452229	-75.339016	154.727200
14851	9.560131	-0.874232	-2.359657	0.017741	0.002586	0.073062	1.000000	0.000014	0.000026	0.000023	-159.451212	-75.339659	154.720883
14852	9.539510	-0.868425	-2.347850	0.011735	0.007008	0.049799	1.000000	-0.000006	0.000032	0.000036	-159.446101	-75.340472	154.715060
14853	9.547636	-0.889620	-2.373764	0.033023	-0.015066	0.065684	1.000000	0.000013	0.000012	0.000002	-159.456232	-75.340436	154.728368
14854	9.518932	-0.862715	-2.335834	0.005269	0.010962	0.026536	1.000000	-0.000014	0.000024	0.000030	-159.455550	-75.340643	154.726167
14855	9.555065	-0.873970	-2.315835	-0.023230	0.005218	0.057754	1.000000	0.000002	0.000040	0.000041	-159.446589	-75.341952	154.723644
14856	9.542497	-0.889109	-2.330318	-0.007480	-0.011959	0.050372	1.000000	-0.000001	0.000025	0.000033	-159.443120	-75.342094	154.720094
14857	9.539870	-0.871010	-2.345432	0.009463	0.004681	0.049803	1.000000	-0.000004	0.000021	0.000024	-159.444814	-75.342147	154.729818
14858	9.521902	-0.883681	-2.318246	-0.013941	-0.008004	0.027106	1.000000	-0.000004	0.000021	0.000024	-159.446015	-75.342299	154.730743
14859	9.519265	-0.865509	-2.333442	0.003013	0.008654	0.026539	1.000000	-0.000009	0.000017	0.000027	-159.447042	-75.341769	154.736761
14860	9.540001	-0.872317	-2.344411	0.008135	0.003310	0.049804	1.000000	0.000011	0.000011	0.000015	-159.451759	-75.341198	154.743078
14861	9.542695	-0.891418	-2.328623	-0.009730	-0.014277	0.050367	1.000000	-0.000024	0.000015	0.000037	-159.451137	-75.340094	154.728560
14862	9.519372	-0.866836	-2.332513	0.001679	0.007267	0.026540	1.000000	-0.000016	0.000032	0.000020	-159.453731	-75.341597	154.729422
14863	9.542798	-0.892331	-2.327851	-0.010631	-0.015206	0.050365	1.000000	0.000004	0.000006	0.000031	-159.453824	-75.339704	154.720150
14864	9.552778	-0.859927	-2.328047	-0.009855	0.018159	0.057187	1.000000	-0.000006	0.000020	0.000037	-159.450121	-75.339230	154.715755
14865	9.527487	-0.889418	-2.357944	0.022078	-0.015720	0.042425	1.000000	-0.000001	0.000013	0.000034	-159.448295	-75.337988	154.736916
14866	9.537458	-0.856906	-2.358239	0.022839	0.017646	0.049252	1.000000	0.000001	0.000002	0.000022	-159.452533	-75.336183	154.741528
14867	9.532118	-0.855238	-2.315985	-0.016793	0.021651	0.033923	1.000000	-0.000001	0.000036	0.000032	-159.448189	-75.337483	154.763245
14868	9.552871	-0.862047	-2.326882	-0.011676	0.016301	0.057188	1.000000	-0.000025	0.000001	0.000016	-159.458007	-75.335807	154.770560
14869	9.548256	-0.897854	-2.368162	0.025837	-0.022452	0.065691	1.000000	0.000015	0.000017	0.000046	-159.449055	-75.334477	154.779915
14870	9.537596	-0.858953	-2.356938	0.021014	0.015805	0.049259	1.000000	0.000003	0.000027	0.000007	-159.455403	-75.335871	154.787019
14871	9.527674	-0.892281	-2.356107	0.019387	-0.018487	0.042426	1.000000	0.000001	0.000014	0.000021	-159.458632	-75.335275	154.788317
14872	9.553042	-0.863992	-2.325459	-0.013483	0.014438	0.057189	1.000000	-0.000006	0.000032	0.000036	-159.453539	-75.336087	154.782513
14873	9.537784	-0.860263	-2.355699	0.019666	0.014413	0.049264	1.000000	0.000011	0.000011	0.000015	-159.458522	-75.335445	154.783866
14874	9.519748	-0.872974	-2.328684	-0.003709	0.001721	0.026542	1.000000	-0.000001	0.000013	0.000034	-159.456463	-75.334300	154.781745
14875	9.527773	-0.894452	-2.354886	0.017600	-0.020332	0.042426	1.000000	-0.000001	0.000001	0.000035	-159.456177	-75.331781	154.787871
14876	9.525133	-0.876475	-2.370122	0.034547	-0.003656	0.041887	1.000000	-0.000006	0.000032	0.000036	-159.451089	-75.332593	154.782072
14877	9.540515	-0.881213	-2.338987	0.000481	-0.004571	0.049807	1.000000	0.000006	0.000018	0.000018	-159.454642	-75.332583	154.802649
14878	9.519836	-0.875335	-2.327438	-0.005505	-0.000131	0.026542	1.000000	-0.000011	0.000016	0.000040	-159.450713	-75.331492	154.797415
14879	9.553231	-0.868023	-2.323178	-0.016645	0.011178	0.057188	1.000000	-0.000001	0.000025	0.000033	-159.447890	-75.331545	154.785928
14880	9.540644	-0.882937	-2.337809	-0.000860	-0.005965	0.049806	1.000000	0.000001	0.000026	0.000020	-159.449340	-75.332311	154.787716
14881	9.558777	-0.871233	-2.364100	0.021604	0.005800	0.072541	1.000000	-0.000001	0.000025	0.000033	-159.446350	-75.332363	154.785850
14882	9.546177	-0.886228	-2.378762	0.037390	-0.011341	0.065160	1.000000	0.000009	0.000022	0.000027	-159.444774	-75.332449	154.785438
14883	9.504789	-0.873977	-2.355980	0.025839	-0.001997	0.018631	1.000000	-0.000001	0.000013	0.000034	-159.443254	-75.331185	154.798932
14884	9.540841	-0.885097	-2.336189	-0.002661	-0.007824	0.049805	1.000000	-0.000012	0.000025	0.000017	-159.447494	-75.332016	154.802073
14885	9.540939	-0.885370	-2.335687	-0.003116	-0.008289	0.049804	1.000000	0.000016	0.000027	0.000010	-159.451342	-75.333279	154.798542
14886	9.520312	-0.879391	-2.323961	-0.009094	-0.003841	0.026538	1.000000	-0.000001	0.000025	0.000033	-159.447896	-75.333419	154.795017
14887	9.520411	-0.879927	-2.323353	-0.009544	-0.004299	0.026538	1.000000	-0.000008	0.000040	0.000025	-159.446217	-75.335467	154.785978
14888	9.528575	-0.901270	-2.349032	0.011785	-0.026344	0.042420	1.000000	0.000004	0.000029	0.000029	-159.443010	-75.336222	154.783305
14889	9.517961	-0.862405	-2.337735	0.006936	0.011929	0.026019	1.000000	-0.000001	0.000025	0.000033	-159.439744	-75.336264	154.802262
14890	9.562082	-0.894609	-2.344065	0.000203	-0.015495	0.073067	1.000000	0.000007	0.000032	0.000039	-159.431876	-75.337008	154.795122
14891	9.505416	-0.878076	-2.351922	0.022280	-0.005665	0.018638	1.000000	0.000006	0.000007	0.000019	-159.436712	-75.335735	154.800030
14892	9.548860	-0.837407	-2.348148	0.012273	0.039454	0.056156	1.000000	-0.000012	0.000025	0.000017	-159.440958	-75.336566	154.803177
14893	9.533501	-0.868726	-2.305246	-0.028468	0.009597	0.033916	1.000000	-0.000011	0.000039	0.000038	-159.434659	-75.337939	154.808411
14894	9.539016	-0.871442	-2.346581	0.010238	0.004713	0.049288	1.000000	0.000006	0.000018	0.000018	-159.437752	-75.338035	154.812473
14895	9.554339	-0.876109	-2.315577	-0.023838	0.003748	0.057179	1.000000	-0.000009	0.000017	0.000027	-159.439256	-75.337452	154.828057
14896	9.551789	-0.857884	-2.330681	-0.006916	0.020446	0.056672	1.000000	0.000006	0.000030	0.000017	-159.440952	-75.338833	154.830706
14897	9.549256	-0.839732	-2.345705	0.009990	0.037141	0.056168	1.000000	-0.000001	0.000025	0.000033	-159.437737	-75.338898	154.829082
14898	9.523792	-0.904191	-2.302523	-0.031811	-0.026538	0.027032	1.000000	0.000009	0.000022	0.000027	-159.436170	-75.338982	154.828680
14899	9.533918	-0.871587	-2.302442	-0.031164	0.006802	0.033910	1.000000	-0.000016	0.000032	0.000020	-159.439213	-75.340384	154.844871
14900	9.560114	-0.880839	-2.355120	0.013072	-0.002975	0.072557	1.000000	0.000020	0.000010	0.000044	-159.431357	-75.338489	154.839216
14901	9.541999	-0.893798	-2.328132	-0.010265	-0.015688	0.049790	1.000000	-0.000024	0.000015	0.000037	-159.430457	-75.337386	154.846547
14902	9.524152	-0.871389	-2.374050	0.040260	0.001540	0.041412	1.000000	0.000006	0.000018	0.000018	-159.433553	-75.337481	154.850612
14903	9.539477	-0.875945	-2.343031	0.006198	0.000564	0.049293	1.000000	-0.000007	0.000018	0.000015	-159.439523	-75.337569	154.869383
14904	9.536942	-0.857718	-2.358136	0.023106	0.017278	0.048799	1.000000	0.000004	0.000029	0.000029	-159.436326	-75.338323	154.866721
14905	9.539591	-0.876876	-2.342218	0.005303	-0.000363	0.049293	1.000000	-0.000004	0.000010	0.000025	-159.439323	-75.337111	154.868655
14906	9.539605	-0.877403	-2.341961	0.004865	-0.000823	0.049293	1.000000	0.000004	0.000017	0.000030	-159.437524	-75.336578	154.867407
14907	9.506233	-0.885946	-2.345662	0.015138	-0.013026	0.018645	1.000000	0.000004	0.000006	0.000031	-159.437832	-75.334663	154.859075
14908	9.573007	-0.870525	-2.337518	-0.006779	0.009958	0.079942	1.000000	-0.000012	0.000025	0.000017	-159.442086	-75.335494	154.862231
14909	9.537108	-0.860266	-2.356534	0.020852	0.014944	0.048808	1.000000	-0.000001	0.000025	0.000033	-159.438975	-75.335548	154.862013
14910	9.539733	-0.879565	-2.340630	0.003067	-0.002687	0.049294	1.000000	0.000022	0.000011	0.000031	-159.436022	-75.334278	154.861679
14911	9.560472	-0.886489	-2.351541	0.008124	-0.008092	0.072560	1.000000	-0.000007	0.000018	0.000015	-159.442542	-75.334355	154.852260
14912	9.537223	-0.861733	-2.355532	0.019516	0.013543	0.048813	1.000000	-0.000004	0.000021	0.000024	-159.443773	-75.334504	154.853217
14913	9.527242	-0.895278	-2.354568	0.017966	-0.020743	0.041910	1.000000	-0.000001	0.000036	0.000032	-159.439520	-75.335829	154.847128
14914	9.550030	-0.848500	-2.339390	0.002350	0.029253	0.056199	1.000000	-0.000001	0.000013	0.000034	-159.437490	-75.334680	154.845036
14915	9.539975	-0.882181	-2.338660	0.000807	-0.005019	0.049293	1.000000	-0.000006	0.000020	0.000037	-159.434051	-75.334096	154.869449
14916	9.540033	-0.882654	-2.338243	0.000370	-0.005478	0.049293	1.000000	-0.000012	0.000025	0.000017	-159.438310	-75.334927	154.872610
14917	9.558204	-0.871088	-2.364582	0.022778	0.006316	0.072086	1.000000	0.000015	0.000017	0.000046	-159.428931	-75.333633	154.871977
14918	9.519418	-0.877429	-2.326183	-0.006034	-0.001466	0.026026	1.000000	-0.000016	0.000032	0.000020	-159.431558	-75.335135	154.872877
14919	9.552879	-0.869848	-2.321765	-0.017258	0.009763	0.056676	1.000000	0.000006	0.000018	0.000018	-159.435086	-75.335130	154.884028
14920	9.540272	-0.884720	-2.336485	-0.001415	-0.007325	0.049292	1.000000	-0.000001	0.000025	0.000033	-159.431665	-75.335267	154.880528
14921	9.537736	-0.866785	-2.351598	0.015452	0.009396	0.048825	1.000000	0.000007	0.000021	0.000040	-159.425708	-75.334601	154.898467
14922	9.548420	-0.907053	-2.361849	0.019490	-0.029805	0.065173	1.000000	0.000007	0.000032	0.000039	-159.417868	-75.335341	154.891356
14923	9.532429	-0.865878	-2.308554	-0.024585	0.012818	0.033408	1.000000	-0.000011	0.000037	0.000016	-159.421541	-75.337348	154.878243
14924	9.573914	-0.879352	-2.330488	-0.013997	0.002491	0.079940	1.000000	0.000007	0.000009	0.000041	-159.416495	-75.335516	154.873959
14925	9.537981	-0.869518	-2.349598	0.013656	0.007528	0.048829	1.000000	0.000005	0.000031	0.000052	-159.403978	-75.335558	154.864768
14926	9.517323	-0.863728	-2.337933	0.007707	0.012004	0.025564	1.000000	0.000006	0.000018	0.000018	-159.407084	-75.335651	154.868845
14927	9.540658	-0.889305	-2.333166	-0.004558	-0.010577	0.049288	1.000000	0.000009	0.000022	0.000027	-159.405550	-75.335686	154.867499
14928	9.532662	-0.868951	-2.306434	-0.026794	0.010520	0.033405	1.000000	-0.000004	0.000021	0.000024	-159.406791	-75.335834	154.868468
14929	9.538207	-0.871687	-2.347873	0.011886	0.005696	0.048832	1.000000	-0.000001	0.000025	0.000033	-159.403460	-75.335910	154.873182
14930	9.538251	-0.872204	-2.347505	0.011448	0.005236	0.048833	1.000000	0.000001	0.000014	0.000021	-159.406334	-75.335387	154.876413
14931	9.553545	-0.876797	-2.316402	-0.022636	0.004185	0.056669	1.000000	-0.000006	0.000029	0.000013	-159.411361	-75.336732	154.882254
14932	9.517649	-0.866616	-2.335536	0.005041	0.009245	0.025568	1.000000	0.000020	0.000010	0.000044	-159.403533	-75.334831	154.876626
14933	9.530353	-0.852787	-2.320031	-0.011692	0.025404	0.032953	1.000000	0.000004	0.000027	0.000007	-159.409912	-75.336186	154.874039
14934	9.541044	-0.892672	-2.330303	-0.007663	-0.013805	0.049282	1.000000	-0.000001	0.000025	0.000033	-159.406501	-75.336321	154.870551
14935	9.551212	-0.860229	-2.330264	-0.007085	0.019534	0.056221	1.000000	-0.000014	0.000024	0.000030	-159.406193	-75.336446	154.874448
14936	9.525928	-0.889419	-2.360197	0.025068	-0.014151	0.041453	1.000000	0.000001	0.000014	0.000021	-159.409069	-75.335923	154.877682
14937	9.536100	-0.856808	-2.360229	0.025649	0.019179	0.048396	1.000000	0.000001	0.000026	0.000020	-159.410931	-75.336622	154.866370
14938	9.553932	-0.880241	-2.313498	-0.025743	0.000955	0.056662	1.000000	-0.000001	0.000025	0.000033	-159.407523	-75.336757	154.862885
14939	9.515502	-0.851475	-2.348160	0.019244	0.023196	0.025134	1.000000	-0.000006	0.000020	0.000037	-159.404510	-75.336162	154.864862
14940	9.538819	-0.877068	-2.343380	0.006975	0.000596	0.048839	1.000000	0.000021	0.000020	0.000008	-159.409721	-75.336813	154.872901
14941	9.572270	-0.869764	-2.338908	-0.004292	0.011790	0.079490	1.000000	-0.000008	0.000031	0.000049	-159.400103	-75.336882	154.893149
14942	9.536433	-0.859511	-2.357898	0.023396	0.016878	0.048406	1.000000	0.000004	0.000027	0.000007	-159.406473	-75.338272	154.900282
14943	9.518354	-0.872125	-2.330607	0.000137	0.004168	0.025573	1.000000	0.000007	0.000032	0.000039	-159.398658	-75.338973	154.891356
14944	9.539155	-0.879199	-2.341212	0.005196	-0.001242	0.048840	1.000000	0.000001	0.000026	0.000020	-159.400142	-75.339735	154.893182
14945	9.536676	-0.860953	-2.356389	0.022064	0.015485	0.048412	1.000000	0.000001	0.000014	0.000021	-159.403420	-75.339148	154.881687
14946	9.539239	-0.880101	-2.340530	0.004303	-0.002173	0.048840	1.000000	0.000004	0.000017	0.000030	-159.401649	-75.338612	154.880466
14947	9.536763	-0.861855	-2.355708	0.021182	0.014580	0.048415	1.000000	-0.000002	0.000022	0.000011	-159.407632	-75.339352	154.901048
14948	9.518608	-0.874387	-2.328720	-0.002066	0.001872	0.025574	1.000000	-0.000019	0.000008	0.000035	-159.408184	-75.337654	154.899485
14949	9.536839	-0.862662	-2.355104	0.020305	0.013652	0.048418	1.000000	0.000016	0.000027	0.000010	-159.411879	-75.338949	154.885431
14950	9.557643	-0.869744	-2.365704	0.025355	0.008234	0.071686	1.000000	-0.000008	0.000031	0.000049	-159.401962	-75.339127	154.874388
14951	9.542021	-0.901183	-2.323012	-0.015227	-0.021665	0.049259	1.000000	0.000001	0.000014	0.000021	-159.404962	-75.338553	154.876161
14952	9.526888	-0.897327	-2.353322	0.017964	-0.021528	0.041455	1.000000	-0.000009	0.000028	0.000026	-159.404587	-75.339371	154.874886
14953	9.539596	-0.883430	-2.337819	0.001201	-0.005396	0.048840	1.000000	-0.000004	0.000010	0.000025	-159.407626	-75.338161	154.863708
14954	9.531585	-0.863088	-2.311143	-0.021023	0.015714	0.032958	1.000000	0.000004	0.000029	0.000029	-159.404462	-75.338909	154.861082
14955	9.557879	-0.872478	-2.363745	0.023115	0.005910	0.071693	1.000000	0.000012	0.000013	0.000037	-159.399974	-75.337609	154.862065
14956	9.539720	-0.885325	-2.336596	-0.000130	-0.006781	0.048839	1.000000	-0.000006	0.000032	0.000036	-159.394949	-75.338413	154.856334
14957	9.549942	-0.852966	-2.336468	0.000421	0.026548	0.055814	1.000000	-0.000001	0.000025	0.000033	-159.392042	-75.338438	154.861107
14958	9.558023	-0.874296	-2.362490	0.021772	0.004521	0.071697	1.000000	0.000016	0.000004	0.000012	-159.398421	-75.337187	154.869715
14959	9.539845	-0.886744	-2.335547	-0.001481	-0.008173	0.048838	1.000000	-0.000017	0.000021	0.000021	-159.402650	-75.337335	154.879562
14960	9.531836	-0.866245	-2.308924	-0.023709	0.012931	0.032956	1.000000	0.000001	0.000014	0.000021	-159.405538	-75.336811	154.882808
14961	9.539931	-0.887719	-2.334829	-0.002379	-0.009104	0.048837	1.000000	0.000002	0.000028	0.000042	-159.397943	-75.336845	154.868288
14962	9.537479	-0.869697	-2.349919	0.014504	0.007638	0.048435	1.000000	-0.000004	0.000021	0.000024	-159.399203	-75.336991	154.869278
14963	9.537539	-0.870168	-2.349503	0.014049	0.007168	0.048436	1.000000	-0.000014	0.000024	0.000030	-159.398960	-75.337119	154.860418
14964	9.537554	-0.870694	-2.349247	0.013611	0.006709	0.048437	1.000000	0.000014	0.000003	0.000025	-159.400456	-75.335239	154.863723
14965	9.522426	-0.866813	-2.379629	0.046787	0.006856	0.040656	1.000000	-0.000016	0.000032	0.000020	-159.403384	-75.336659	154.874508
14966	9.558378	-0.878141	-2.359625	0.018189	0.000813	0.071705	1.000000	-0.000011	0.000016	0.000040	-159.399532	-75.335563	154.869350
14967	9.519469	-0.884327	-2.321437	-0.010536	-0.006909	0.025566	1.000000	-0.000004	0.000021	0.000024	-159.401275	-75.335624	154.851631
14968	9.550428	-0.858362	-2.332501	-0.004491	0.021449	0.055826	1.000000	0.000004	0.000029	0.000029	-159.398121	-75.336371	154.849015
14969	9.552982	-0.877542	-2.316511	-0.022284	0.003771	0.056217	1.000000	-0.000009	0.000017	0.000027	-159.399679	-75.335771	154.871971
14970	9.517127	-0.867251	-2.335765	0.005442	0.008905	0.025175	1.000000	0.000004	0.000017	0.000030	-159.397922	-75.335233	154.870766
14971	9.537863	-0.874300	-2.346652	0.010455	0.003466	0.048442	1.000000	-0.000004	0.000010	0.000025	-159.400839	-75.334008	154.891412
14972	9.535441	-0.856026	-2.361784	0.027327	0.020219	0.048057	1.000000	0.000012	0.000034	0.000013	-159.402800	-75.335997	154.894948
14973	9.538005	-0.875124	-2.345765	0.009566	0.002542	0.048443	1.000000	-0.000024	0.000015	0.000037	-159.401975	-75.334910	154.887669
14974	9.558756	-0.882323	-2.356530	0.014594	-0.002899	0.071711	1.000000	0.000012	0.000025	0.000036	-159.395803	-75.334971	154.882858
14975	9.538092	-0.876289	-2.344977	0.008675	0.001632	0.048444	1.000000	-0.000007	0.000018	0.000014	-159.401787	-75.335051	154.928152
14976	9.538122	-0.876732	-2.344691	0.008238	0.001172	0.048445	1.000000	-0.000001	0.000013	0.000034	-159.399802	-75.333898	154.926104
14977	9.538136	-0.877353	-2.344400	0.007778	0.000706	0.048445	1.000000	0.000004	0.000017	0.000030	-159.398424	-75.333262	154.937489
14978	9.538193	-0.877883	-2.343968	0.007341	0.000246	0.048446	1.000000	-0.000009	0.000028	0.000026	-159.398067	-75.334078	154.936233
14979	9.543850	-0.880525	-2.385319	0.045985	-0.004528	0.063953	1.000000	0.000001	0.000026	0.000020	-159.399956	-75.334739	154.952577
14980	9.538310	-0.878789	-2.343155	0.006443	-0.000681	0.048446	1.000000	-0.000019	0.000008	0.000035	-159.400533	-75.333041	154.951037
14981	9.517606	-0.872851	-2.331728	0.000523	0.003844	0.025179	1.000000	-0.000001	0.000025	0.000033	-159.397258	-75.333089	154.984101
14982	9.538353	-0.880044	-2.342509	0.005555	-0.001595	0.048447	1.000000	0.000022	0.000011	0.000031	-159.394344	-75.331808	154.983805
14983	9.559114	-0.887121	-2.353277	0.010572	-0.007037	0.071714	1.000000	0.000001	0.000026	0.000020	-159.396030	-75.332498	154.993532
14984	9.556713	-0.868882	-2.368391	0.027408	0.009750	0.071348	1.000000	-0.000004	0.000021	0.000024	-159.397302	-75.332643	154.994534
14985	9.538535	-0.881443	-2.341240	0.004215	-0.002985	0.048447	1.000000	-0.000009	0.000028	0.000026	-159.397233	-75.333394	154.991443
14986	9.553732	-0.886295	-2.310080	-0.029861	-0.004149	0.056197	1.000000	0.000004	0.000017	0.000030	-159.395485	-75.332854	154.990248
14987	9.536196	-0.863827	-2.355888	0.020599	0.013330	0.048085	1.000000	-0.000003	0.000033	0.000023	-159.395740	-75.334209	154.980902
14988	9.536239	-0.864307	-2.355540	0.020162	0.012870	0.048087	1.000000	0.000014	0.000003	0.000025	-159.397244	-75.332326	154.984215
14989	9.517996	-0.876941	-2.328598	-0.003023	0.000147	0.025180	1.000000	-0.000014	0.000024	0.000030	-159.396846	-75.332482	154.969192
14990	9.551475	-0.869488	-2.324080	-0.014361	0.011247	0.055833	1.000000	0.000004	0.000027	0.000007	-159.403229	-75.333869	154.976340
14991	9.523755	-0.879973	-2.369460	0.035189	-0.005070	0.040705	1.000000	0.000002	0.000028	0.000042	-159.395422	-75.333922	154.969209
14992	9.554073	-0.889251	-2.307530	-0.032529	-0.006922	0.056187	1.000000	-0.000004	0.000021	0.000024	-159.396699	-75.334066	154.970215
14993	9.549202	-0.852403	-2.338295	0.001589	0.027101	0.055480	1.000000	-0.000009	0.000017	0.000027	-159.397897	-75.333555	154.955237
14994	9.557313	-0.873843	-2.364142	0.022963	0.005096	0.071362	1.000000	-0.000006	0.000032	0.000036	-159.392905	-75.334357	154.949541
14995	9.508160	-0.912940	-2.325507	-0.006589	-0.036397	0.018141	1.000000	-0.000009	0.000017	0.000027	-159.393803	-75.333884	154.944779
14996	9.536709	-0.868424	-2.352119	0.016637	0.009175	0.048098	1.000000	-0.000006	0.000032	0.000036	-159.388812	-75.334685	154.939083
14997	9.551900	-0.873191	-2.320943	-0.017453	0.008024	0.055831	1.000000	0.000026	0.000013	0.000005	-159.395814	-75.334607	154.944209
14998	9.536863	-0.869248	-2.351190	0.015752	0.008251	0.048100	1.000000	-0.000023	0.000039	0.000035	-159.391991	-75.336151	154.937615
14999	9.536922	-0.869908	-2.350705	0.015308	0.007795	0.048101	1.000000	0.000012	0.000013	0.000037	-159.387246	-75.334887	154.941225
15000	9.531344	-0.868285	-2.308514	-0.024221	0.011642	0.032563	1.000000	-0.000004	0.000021	0.000024	-159.388527	-75.335032	154.942235
15001	9.537009	-0.871035	-2.349937	0.014410	0.006868	0.048103	1.000000	-0.000001	0.000024	0.000033	-159.385568	-75.335064	154.944422
15002	9.549740	-0.857246	-2.334326	-0.002392	0.022952	0.055491	1.000000	-0.000004	0.000021	0.000024	-159.386850	-75.335208	154.945434
15003	9.518853	-0.883977	-2.322424	-0.009199	-0.006294	0.025174	1.000000	-0.000002	0.000022	0.000011	-159.393088	-75.335929	154.966474
15004	9.529143	-0.851402	-2.322424	-0.008728	0.027033	0.032225	1.000000	0.000004	0.000017	0.000030	-159.391351	-75.335387	154.965289
15005	9.557937	-0.879628	-2.359469	0.018080	0.000021	0.071374	1.000000	-0.000018	0.000022	0.000056	-159.381273	-75.334273	154.946387
15006	9.537242	-0.873605	-2.348036	0.012199	0.004565	0.048107	1.000000	0.000013	0.000012	0.000002	-159.390908	-75.334317	154.958044
15007	9.549986	-0.859570	-2.332464	-0.004642	0.020629	0.055495	1.000000	-0.000009	0.000028	0.000026	-159.391154	-75.335004	154.966554
15008	9.524711	-0.888646	-2.362368	0.027665	-0.012903	0.040722	1.000000	-0.000004	0.000021	0.000024	-159.392440	-75.335148	154.967569
15009	9.537428	-0.874848	-2.346818	0.010825	0.003146	0.048109	1.000000	0.000004	0.000017	0.000030	-159.391448	-75.334488	154.936954
15010	9.531847	-0.873236	-2.304565	-0.028697	0.006998	0.032555	1.000000	-0.000001	0.000024	0.000033	-159.388092	-75.334617	154.933522
15011	9.537542	-0.875775	-2.346009	0.009932	0.002218	0.048111	1.000000	-0.000005	0.000019	0.000002	-159.399222	-75.335325	154.942092
15012	9.550298	-0.861912	-2.330318	-0.006871	0.018300	0.055498	1.000000	0.000020	0.000033	0.000042	-159.388662	-75.335981	154.933703
15013	9.537639	-0.876938	-2.345179	0.009022	0.001284	0.048112	1.000000	-0.000014	0.000001	0.000032	-159.391545	-75.333468	154.945501
15014	9.522572	-0.873130	-2.375605	0.042233	0.001532	0.040406	1.000000	0.000009	0.000033	0.000026	-159.388650	-75.334824	154.943762
15015	9.540158	-0.896640	-2.328822	-0.009139	-0.016881	0.048430	1.000000	-0.000009	0.000017	0.000027	-159.389781	-75.334323	154.937333
15016	9.548040	-0.845474	-2.344403	0.008614	0.033685	0.055185	1.000000	-0.000004	0.000021	0.000024	-159.391071	-75.334466	154.938353
15017	9.537854	-0.878851	-2.343588	0.007248	-0.000565	0.048113	1.000000	0.000001	0.000026	0.000020	-159.392922	-75.335144	154.937381
15018	9.537910	-0.879249	-2.343210	0.006810	-0.001025	0.048114	1.000000	0.000001	0.000014	0.000021	-159.395836	-75.334615	154.940653
15019	9.537981	-0.879660	-2.342767	0.006359	-0.001487	0.048114	1.000000	-0.000003	0.000033	0.000023	-159.395924	-75.335979	154.949406
15020	9.558778	-0.886744	-2.353389	0.011350	-0.006967	0.071381	1.000000	0.000004	0.000017	0.000030	-159.394197	-75.335436	154.948231
15021	9.514959	-0.855482	-2.346366	0.017316	0.019854	0.024539	1.000000	-0.000014	0.000024	0.000030	-159.393961	-75.335558	154.943498
15022	9.538181	-0.881048	-2.341432	0.005028	-0.002875	0.048114	1.000000	0.000004	0.000027	0.000007	-159.400355	-75.336942	154.950661
15023	9.548517	-0.848555	-2.341341	0.005514	0.030431	0.055198	1.000000	0.000007	0.000021	0.000040	-159.394265	-75.336356	154.888028
15024	9.525603	-0.896419	-2.355829	0.020499	-0.020357	0.040727	1.000000	0.000001	0.000014	0.000021	-159.397182	-75.335828	154.891303
15025	9.548591	-0.849669	-2.340638	0.004604	0.029499	0.055201	1.000000	-0.000001	0.000024	0.000033	-159.394404	-75.335821	154.890759
15026	9.538375	-0.883124	-2.339858	0.003233	-0.004740	0.048114	1.000000	0.000006	0.000018	0.000017	-159.397551	-75.335906	154.894880
15027	9.517690	-0.876960	-2.328433	-0.002641	-0.000174	0.024847	1.000000	-0.000009	0.000017	0.000027	-159.398974	-75.335348	154.888499
15028	9.559203	-0.890695	-2.350169	0.007751	-0.010702	0.071382	1.000000	-0.000006	0.000032	0.000035	-159.394009	-75.336147	154.882831
15029	9.538546	-0.884746	-2.338546	0.001875	-0.006135	0.048114	1.000000	-0.000001	0.000024	0.000033	-159.391065	-75.336173	154.879606
15030	9.559357	-0.891913	-2.349079	0.006850	-0.011632	0.071381	1.000000	0.000009	0.000033	0.000026	-159.388180	-75.337527	154.877878
15031	9.538683	-0.885877	-2.337560	0.000984	-0.007059	0.048113	1.000000	0.000009	0.000010	0.000028	-159.388311	-75.336245	154.875697
15032	9.528280	-0.846903	-2.326455	-0.003932	0.031296	0.031943	1.000000	0.000004	0.000029	0.000029	-159.385199	-75.336986	154.873126
15033	9.536390	-0.868321	-2.352309	0.017377	0.009239	0.047824	1.000000	-0.000009	0.000017	0.000027	-159.386735	-75.336404	154.864832
15034	9.530770	-0.866641	-2.310078	-0.022125	0.013140	0.032233	1.000000	-0.000001	0.000024	0.000033	-159.383397	-75.336530	154.861418
15035	9.551568	-0.873837	-2.320652	-0.017160	0.007641	0.055500	1.000000	0.000004	0.000029	0.000029	-159.380394	-75.337241	154.841761
15036	9.536535	-0.869975	-2.351111	0.016058	0.007854	0.047828	1.000000	0.000001	0.000002	0.000022	-159.384711	-75.335426	154.846447
15037	9.538932	-0.889349	-2.335225	-0.001692	-0.009832	0.048111	1.000000	0.000005	0.000031	0.000051	-159.372272	-75.335461	154.842159
15038	9.536576	-0.871345	-2.350436	0.015167	0.006935	0.047830	1.000000	0.000016	0.000004	0.000012	-159.378666	-75.334202	154.850782
15039	9.549281	-0.857518	-2.334954	-0.001653	0.023018	0.055219	1.000000	-0.000001	0.000024	0.000033	-159.375586	-75.334248	154.857332
15040	9.536661	-0.872435	-2.349688	0.014272	0.006015	0.047832	1.000000	-0.000001	0.000024	0.000033	-159.372252	-75.334374	154.853923
15041	9.515990	-0.866456	-2.338142	0.008423	0.010601	0.024565	1.000000	-0.000001	0.000024	0.000033	-159.369077	-75.334452	154.846253
15042	9.557518	-0.880168	-2.359825	0.018785	0.000042	0.071101	1.000000	0.000001	0.000025	0.000020	-159.370610	-75.335207	154.848133
15043	9.516132	-0.867465	-2.337191	0.007508	0.009670	0.024567	1.000000	-0.000001	0.000024	0.000033	-159.367979	-75.335162	154.850720
15044	9.544983	-0.895471	-2.374072	0.034234	-0.017432	0.063714	1.000000	0.000001	0.000025	0.000020	-159.369514	-75.335916	154.852603
15045	9.537004	-0.875212	-2.347262	0.011998	0.003689	0.047836	1.000000	-0.000008	0.000031	0.000048	-159.360253	-75.335943	154.845236
15046	9.537033	-0.875750	-2.346942	0.011560	0.003230	0.047837	1.000000	0.000003	0.000003	0.000009	-159.369441	-75.334757	154.855216
15047	9.532329	-0.838799	-2.377822	0.045682	0.037225	0.047305	1.000000	0.000009	0.000022	0.000027	-159.368369	-75.334720	154.849800
15048	9.539480	-0.895274	-2.330718	-0.006633	-0.014932	0.048102	1.000000	-0.000004	0.000021	0.000024	-159.369679	-75.334861	154.850842
15049	9.529095	-0.856158	-2.319718	-0.011576	0.023424	0.031959	1.000000	-0.000004	0.000010	0.000025	-159.373010	-75.333561	154.848922
15050	9.555544	-0.865544	-2.372313	0.032431	0.013542	0.070845	1.000000	-0.000001	0.000024	0.000033	-159.369685	-75.333686	154.845521
15051	9.516488	-0.871589	-2.334204	0.003899	0.005960	0.024572	1.000000	0.000004	0.000017	0.000030	-159.368314	-75.333054	154.837084
15052	9.534918	-0.859975	-2.360444	0.026145	0.017671	0.047582	1.000000	-0.000012	0.000025	0.000017	-159.372644	-75.333881	154.840325
15053	9.524668	-0.893366	-2.359626	0.024761	-0.016564	0.040452	1.000000	-0.000001	0.000024	0.000033	-159.369626	-75.333923	154.835258
15054	9.522398	-0.875092	-2.374702	0.041617	0.000207	0.040197	1.000000	0.000004	0.000026	0.000007	-159.376030	-75.335305	154.842433
15055	9.539839	-0.898494	-2.328007	-0.009795	-0.018180	0.048094	1.000000	0.000009	0.000010	0.000028	-159.376229	-75.334003	154.847092
15056	9.550208	-0.866160	-2.327962	-0.009311	0.015129	0.055230	1.000000	-0.000006	0.000032	0.000035	-159.371288	-75.334798	154.841450
15057	9.501839	-0.870042	-2.362368	0.034865	0.003897	0.016935	1.000000	0.000009	0.000022	0.000027	-159.370352	-75.334710	154.860842
15058	9.516923	-0.874914	-2.331183	0.000764	0.002730	0.024574	1.000000	-0.000004	0.000021	0.000024	-159.371669	-75.334850	154.861890
15059	9.532007	-0.879764	-2.299993	-0.033349	0.001559	0.032210	1.000000	-0.000014	0.000024	0.000030	-159.371278	-75.334998	154.861874
15060	9.548090	-0.849482	-2.341855	0.006168	0.030512	0.054985	1.000000	0.000011	0.000011	0.000015	-159.376059	-75.334407	154.868257
15061	9.537797	-0.882713	-2.341223	0.004792	-0.003727	0.047842	1.000000	-0.000007	0.000018	0.000014	-159.382545	-75.334430	154.865278
15062	9.550564	-0.868835	-2.325500	-0.012024	0.012342	0.055231	1.000000	-0.000023	0.000038	0.000035	-159.378783	-75.335972	154.858750
15063	9.552964	-0.888100	-2.309467	-0.029762	-0.005362	0.055471	1.000000	-0.000001	0.000013	0.000034	-159.377038	-75.334750	154.864903
15064	9.535663	-0.865577	-2.355379	0.020749	0.012133	0.047603	1.000000	-0.000003	0.000033	0.000023	-159.376966	-75.336173	154.864552
15065	9.550751	-0.870471	-2.324123	-0.013369	0.010954	0.055231	1.000000	0.000004	0.000017	0.000030	-159.375521	-75.335559	154.854689
15066	9.515020	-0.860013	-2.343570	0.014482	0.016279	0.024338	1.000000	-0.000014	0.000012	0.000031	-159.376390	-75.334473	154.854056
15067	9.535754	-0.867188	-2.354419	0.019398	0.010744	0.047607	1.000000	0.000009	0.000010	0.000028	-159.376633	-75.333160	154.864682
15068	9.556557	-0.874325	-2.365000	0.024335	0.005209	0.070877	1.000000	-0.000008	0.000040	0.000025	-159.374945	-75.335255	154.862090
15069	9.538227	-0.886673	-2.337971	0.001222	-0.007422	0.047841	1.000000	0.000003	0.000003	0.000009	-159.384391	-75.333989	154.881421
15070	9.523247	-0.882627	-2.368501	0.034451	-0.007155	0.040222	1.000000	-0.000014	0.000024	0.000030	-159.383871	-75.334188	154.879389
15071	9.569414	-0.861355	-2.348591	0.006593	0.020343	0.078270	1.000000	0.000007	0.000032	0.000038	-159.376379	-75.334836	154.875939
15072	9.523377	-0.883884	-2.367509	0.033561	-0.008075	0.040225	1.000000	-0.000009	0.000017	0.000027	-159.377478	-75.334362	154.876152
15073	9.538425	-0.888794	-2.336360	-0.000569	-0.009272	0.047840	1.000000	0.000009	0.000022	0.000027	-159.376383	-75.334320	154.881388
15074	9.528092	-0.849702	-2.325305	-0.005495	0.029111	0.031737	1.000000	0.000001	0.000014	0.000021	-159.379325	-75.333787	154.884689
15075	9.536159	-0.871036	-2.351357	0.015831	0.007059	0.047617	1.000000	-0.000004	0.000010	0.000025	-159.382008	-75.332640	154.884435
15076	9.559255	-0.896701	-2.346528	0.003486	-0.015731	0.071106	1.000000	-0.000012	0.000025	0.000017	-159.386351	-75.333467	154.887690
15077	9.551275	-0.876242	-2.319794	-0.018732	0.005402	0.055227	1.000000	-0.000001	0.000024	0.000033	-159.383338	-75.333514	154.871609
15078	9.523653	-0.886541	-2.365406	0.030891	-0.010845	0.040231	1.000000	-0.000007	0.000018	0.000014	-159.389299	-75.333668	154.877108
15079	9.551401	-0.877182	-2.318921	-0.022599	0.001177	0.055220	1.000000	0.000007	0.000032	0.000038	-159.479388	-75.326781	154.970539
15080	9.536477	-0.873380	-2.349197	0.010630	0.001448	0.047626	1.000000	-0.000004	0.000021	0.000024	-159.480919	-75.326903	154.971767
15081	9.510032	-0.864843	-2.296065	-0.034218	0.010433	0.008682	1.000000	-0.000007	0.000006	0.000015	-159.488706	-75.325675	154.971551
15082	9.551499	-0.878642	-2.317967	-0.023951	-0.000226	0.055217	1.000000	0.000012	0.000013	0.000037	-159.484197	-75.324423	154.968378
15083	9.515829	-0.868083	-2.337299	0.003904	0.005141	0.024360	1.000000	-0.000006	0.000029	0.000013	-159.489179	-75.325750	154.991127
15084	9.551623	-0.879545	-2.317113	-0.024859	-0.001169	0.055215	1.000000	0.000004	0.000017	0.000030	-159.487690	-75.325185	154.990156
15085	9.536677	-0.875559	-2.347571	0.008353	-0.000889	0.047629	1.000000	-0.000007	0.000018	0.000014	-159.494086	-75.325234	155.008703
15086	9.518306	-0.887951	-2.320584	-0.014714	-0.013515	0.024554	1.000000	-0.000014	0.000024	0.000030	-159.493781	-75.325417	155.006852
15087	9.549448	-0.862304	-2.331610	-0.008962	0.014674	0.055020	1.000000	0.000012	0.000013	0.000037	-159.489424	-75.324092	155.019851
15088	9.528729	-0.856367	-2.320245	-0.014760	0.019305	0.031752	1.000000	-0.000006	0.000020	0.000036	-159.486100	-75.323588	155.015802
15089	9.536780	-0.878013	-2.346237	0.006556	-0.002752	0.047630	1.000000	0.000007	0.000009	0.000041	-159.481402	-75.321688	155.018458
15090	9.518356	-0.890610	-2.319361	-0.016501	-0.015384	0.024548	1.000000	0.000006	0.000018	0.000017	-159.484773	-75.321749	155.022771
15091	9.547253	-0.846176	-2.345827	0.006491	0.030061	0.054836	1.000000	-0.000006	0.000032	0.000035	-159.480477	-75.322439	155.013845
15092	9.536891	-0.879697	-2.345155	0.005201	-0.004162	0.047630	1.000000	0.000014	0.000003	0.000025	-159.482211	-75.320528	155.017349
15093	9.547298	-0.847297	-2.345237	0.005601	0.029118	0.054839	1.000000	-0.000014	0.000024	0.000030	-159.482149	-75.320664	154.992524
15094	9.547385	-0.847625	-2.344764	0.005155	0.028651	0.054841	1.000000	0.000004	0.000026	0.000007	-159.488770	-75.322024	154.999885
15095	9.518614	-0.893026	-2.317370	-0.018762	-0.017726	0.024540	1.000000	0.000007	0.000021	0.000039	-159.482711	-75.321390	155.013407
15096	9.534815	-0.862958	-2.359137	0.020663	0.011231	0.047453	1.000000	-0.000004	0.000021	0.000024	-159.484249	-75.321512	155.014644
15097	9.529123	-0.861122	-2.316864	-0.018821	0.015090	0.031752	1.000000	0.000001	0.000025	0.000020	-159.486340	-75.322170	155.011937
15098	9.537230	-0.882469	-2.342734	0.002495	-0.006975	0.047630	1.000000	-0.000009	0.000017	0.000027	-159.487652	-75.321680	155.012330
15099	9.570693	-0.875432	-2.338149	-0.009035	0.003936	0.078288	1.000000	-0.000001	0.000024	0.000033	-159.484737	-75.321741	155.001435
15100	9.535090	-0.864809	-2.357348	0.018859	0.009350	0.047459	1.000000	0.000012	0.000034	0.000013	-159.486961	-75.323698	155.005212
15101	9.535189	-0.865079	-2.356849	0.018403	0.008884	0.047460	1.000000	-0.000007	0.000018	0.000014	-159.493252	-75.323780	155.015549
15102	9.537526	-0.884121	-2.340902	0.000696	-0.008846	0.047628	1.000000	-0.000014	0.000024	0.000030	-159.492958	-75.323963	155.013711
15103	9.535294	-0.866001	-2.356084	0.017499	0.007943	0.047462	1.000000	0.000004	0.000017	0.000030	-159.491749	-75.323330	155.003025
15104	9.522651	-0.880823	-2.370940	0.033471	-0.009013	0.040073	1.000000	0.000009	0.000022	0.000027	-159.490500	-75.323376	155.002912
15105	9.537651	-0.885723	-2.339791	-0.000672	-0.010255	0.047627	1.000000	0.000001	0.000014	0.000021	-159.493894	-75.322732	155.015026
15106	9.535408	-0.867494	-2.355072	0.016145	0.006543	0.047466	1.000000	-0.000009	0.000017	0.000027	-159.495210	-75.322242	155.015422
15107	9.535453	-0.868044	-2.354688	0.015681	0.006079	0.047467	1.000000	-0.000001	0.000024	0.000033	-159.492333	-75.322262	155.029912
15108	9.537823	-0.887186	-2.338532	-0.002018	-0.011658	0.047625	1.000000	-0.000021	0.000039	0.000022	-159.493685	-75.324418	155.028892
15109	9.533393	-0.850315	-2.369074	0.032038	0.022422	0.047313	1.000000	-0.000001	0.000024	0.000033	-159.490641	-75.324487	155.032742
15110	9.525264	-0.902366	-2.352900	0.013518	-0.029067	0.040233	1.000000	0.000016	0.000004	0.000012	-159.497234	-75.323199	155.041528
15111	9.533478	-0.851141	-2.368436	0.031129	0.021494	0.047318	1.000000	-0.000003	0.000033	0.000023	-159.497570	-75.324532	155.052779
15112	9.535814	-0.870257	-2.352408	0.013436	0.003751	0.047471	1.000000	-0.000009	0.000017	0.000027	-159.498890	-75.324042	155.053179
15113	9.548543	-0.856529	-2.336802	-0.003437	0.019760	0.054863	1.000000	0.000009	0.000022	0.000027	-159.497500	-75.324094	155.045315
15114	9.515190	-0.864656	-2.340534	0.007222	0.007943	0.024205	1.000000	0.000004	0.000029	0.000029	-159.494650	-75.324811	155.042976
15115	9.523355	-0.885954	-2.366197	0.028533	-0.014128	0.040082	1.000000	-0.000001	0.000034	0.000010	-159.499752	-75.326824	155.031938
15116	9.536154	-0.872316	-2.350269	0.011659	0.001882	0.047474	1.000000	0.000000	0.000038	0.000054	-159.485818	-75.327573	155.017657
15117	9.515488	-0.866268	-2.338726	0.005886	0.006541	0.024207	1.000000	-0.000007	0.000018	0.000014	-159.492051	-75.327688	155.012604
15118	9.551218	-0.878006	-2.318464	-0.022920	0.000155	0.055008	1.000000	0.000005	0.000031	0.000051	-159.479725	-75.327763	155.000557
15119	9.526025	-0.834681	-2.338153	0.005781	0.039352	0.031459	1.000000	0.000001	0.000014	0.000021	-159.483299	-75.327069	155.026578
15120	9.536368	-0.874789	-2.348478	0.009846	0.000010	0.047476	1.000000	-0.000001	0.000024	0.000033	-159.480226	-75.327175	155.023397
15121	9.551342	-0.879775	-2.317281	-0.024294	-0.001270	0.055005	1.000000	-0.000009	0.000017	0.000027	-159.481620	-75.326630	155.042872
15122	9.536455	-0.875757	-2.347764	0.008948	-0.000919	0.047477	1.000000	0.000006	0.000018	0.000017	-159.485006	-75.326689	155.047201
15123	9.515760	-0.869581	-2.336389	0.003166	0.003746	0.024210	1.000000	-0.000006	0.000020	0.000036	-159.481855	-75.326104	155.060631
15124	9.549243	-0.862504	-2.331736	-0.008404	0.014607	0.054869	1.000000	-0.000012	0.000025	0.000017	-159.486428	-75.326913	155.064085
15125	9.536654	-0.877197	-2.346417	0.007587	-0.002321	0.047478	1.000000	0.000022	0.000033	0.000029	-159.481243	-75.328097	155.065315
15126	9.528685	-0.856848	-2.319606	-0.014630	0.018798	0.031602	1.000000	-0.000014	0.000024	0.000030	-159.480966	-75.328279	155.063494
15127	9.547234	-0.845323	-2.345830	0.007460	0.030480	0.054743	1.000000	0.000001	0.000014	0.000021	-159.484544	-75.327623	155.064407
15128	9.551744	-0.883184	-2.314328	-0.027458	-0.004567	0.054995	1.000000	-0.000001	0.000024	0.000033	-159.481476	-75.327728	155.061233
15129	9.513911	-0.853898	-2.349282	0.017692	0.018216	0.024087	1.000000	-0.000004	0.000021	0.000024	-159.483328	-75.327779	155.051291
15130	9.528886	-0.858678	-2.318101	-0.016441	0.016920	0.031602	1.000000	-0.000007	0.000018	0.000014	-159.489511	-75.327914	155.056980
15131	9.534769	-0.861363	-2.359529	0.022104	0.012142	0.047358	1.000000	-0.000001	0.000024	0.000033	-159.486689	-75.327950	155.053780
15132	9.545090	-0.901632	-2.369800	0.026186	-0.027207	0.063355	1.000000	0.000017	0.000018	0.000033	-159.482437	-75.327304	155.051483
15133	9.529026	-0.860065	-2.317015	-0.017797	0.015513	0.031602	1.000000	-0.000013	0.000011	-0.000004	-159.497894	-75.327434	155.078660
15134	9.516398	-0.874664	-2.331889	-0.001785	-0.001404	0.024210	1.000000	-0.000008	0.000031	0.000048	-159.488376	-75.327586	155.067985
15135	9.553494	-0.851409	-2.384522	0.042830	0.022428	0.070518	1.000000	-0.000014	0.000024	0.000030	-159.488615	-75.327627	155.073674
15136	9.503813	-0.890033	-2.346295	0.013757	-0.018794	0.016818	1.000000	0.000001	0.000014	0.000021	-159.491780	-75.327073	155.077164
15137	9.549998	-0.868791	-2.326306	-0.014315	0.008484	0.054870	1.000000	-0.000000	0.000036	0.000032	-159.487616	-75.328370	155.080962
15138	9.535164	-0.864939	-2.356621	0.018931	0.008871	0.047368	1.000000	0.000004	0.000017	0.000030	-159.486160	-75.327801	155.080024
15139	9.537407	-0.884209	-2.340719	0.001235	-0.008901	0.047477	1.000000	0.000004	0.000017	0.000030	-159.485102	-75.327110	155.095578
15140	9.550122	-0.870392	-2.325196	-0.015677	0.007069	0.054869	1.000000	-0.000002	0.000011	0.000012	-159.492891	-75.326571	155.103499
15141	9.537477	-0.885033	-2.340122	0.000330	-0.009841	0.047476	1.000000	-0.000001	0.000024	0.000033	-159.490126	-75.326593	155.105986
15142	9.522634	-0.881070	-2.370539	0.033579	-0.009438	0.039981	1.000000	0.000006	0.000018	0.000017	-159.493520	-75.326650	155.110324
15143	9.556133	-0.874027	-2.365816	0.021958	0.001375	0.070642	1.000000	0.000004	0.000029	0.000029	-159.490901	-75.327307	155.095333
15144	9.514752	-0.861135	-2.343228	0.010902	0.011203	0.024107	1.000000	-0.000013	0.000036	0.000029	-159.489260	-75.328774	155.092143
15145	9.537786	-0.886980	-2.338126	-0.001481	-0.011721	0.047474	1.000000	-0.000004	0.000021	0.000024	-159.491138	-75.328815	155.078134
15146	9.548328	-0.854647	-2.337985	-0.001163	0.021550	0.054769	1.000000	-0.000011	0.000027	0.000039	-159.486253	-75.328981	155.071900
15147	9.520838	-0.865017	-2.383503	0.048550	0.005497	0.039892	1.000000	0.000010	0.000033	0.000026	-159.483678	-75.330288	155.065149
15148	9.535798	-0.869981	-2.352197	0.014411	0.004174	0.047379	1.000000	-0.000009	0.000017	0.000027	-159.485021	-75.329796	155.065573
15149	9.523154	-0.884745	-2.367077	0.030422	-0.012731	0.039988	1.000000	-0.000001	0.000024	0.000033	-159.482103	-75.329839	155.067167
15150	9.550810	-0.875377	-2.320494	-0.020185	0.002379	0.054863	1.000000	0.000004	0.000026	0.000007	-159.488746	-75.331195	155.074555
15151	9.535997	-0.871289	-2.350904	0.013054	0.002773	0.047382	1.000000	0.000004	0.000017	0.000030	-159.487443	-75.330567	155.077410
15152	9.527972	-0.850890	-2.324338	-0.009158	0.023898	0.031506	1.000000	-0.000009	0.000017	0.000027	-159.488788	-75.330075	155.077836
15153	9.523383	-0.886586	-2.365468	0.028627	-0.014592	0.039991	1.000000	-0.000001	0.000024	0.000033	-159.485857	-75.330121	155.084233
15154	9.530262	-0.870831	-2.307888	-0.027283	0.005658	0.031591	1.000000	0.000002	0.000028	0.000042	-159.478186	-75.330207	155.076649
15155	9.536197	-0.873651	-2.349215	0.011252	0.000896	0.047384	1.000000	0.000011	0.000023	0.000014	-159.482074	-75.330818	155.063229
15156	9.530383	-0.871847	-2.307007	-0.028182	0.004727	0.031589	1.000000	0.000004	0.000017	0.000030	-159.480628	-75.330247	155.062301
15157	9.548958	-0.860489	-2.333264	-0.006120	0.016394	0.054777	1.000000	-0.000024	0.000015	0.000037	-159.480029	-75.329163	155.071177
15158	9.536302	-0.875116	-2.348244	0.009910	-0.000504	0.047386	1.000000	-0.000007	0.000018	0.000014	-159.486224	-75.329297	155.076879
15159	9.534164	-0.856855	-2.363482	0.026682	0.016325	0.047311	1.000000	0.000004	0.000017	0.000030	-159.484924	-75.328689	155.066390
15160	9.528334	-0.855110	-2.321303	-0.012749	0.020155	0.031511	1.000000	-0.000004	0.000021	0.000024	-159.486499	-75.328808	155.067666
15161	9.536445	-0.876573	-2.347120	0.008557	-0.001915	0.047387	1.000000	-0.000001	0.000024	0.000033	-159.483649	-75.328860	155.061430
15162	9.546987	-0.844282	-2.347085	0.008864	0.031351	0.054709	1.000000	0.000009	0.000010	0.000028	-159.483809	-75.327615	155.062732
15163	9.515727	-0.871098	-2.335574	0.002363	0.002315	0.024119	1.000000	0.000012	0.000013	0.000037	-159.479651	-75.326262	155.061997
15164	9.515794	-0.871624	-2.335103	0.001920	0.001849	0.024120	1.000000	0.000012	0.000034	0.000013	-159.481902	-75.328211	155.065806
15165	9.549325	-0.864422	-2.330307	-0.009739	0.012637	0.054780	1.000000	-0.000007	0.000018	0.000014	-159.488328	-75.328249	155.085081
15166	9.534525	-0.860320	-2.360768	0.023516	0.013051	0.047324	1.000000	-0.000014	0.000024	0.000030	-159.488080	-75.328430	155.083290
15167	9.518163	-0.891395	-2.318308	-0.016668	-0.016867	0.024182	1.000000	0.000001	0.000014	0.000021	-159.491568	-75.327764	155.101711
15168	9.513872	-0.854489	-2.349100	0.017318	0.017290	0.024059	1.000000	-0.000014	0.000024	0.000030	-159.491321	-75.327945	155.099922
15169	9.539019	-0.899124	-2.328436	-0.012284	-0.022977	0.047447	1.000000	0.000004	0.000029	0.000029	-159.488710	-75.328583	155.103913
15170	9.526707	-0.841232	-2.332892	-0.000075	0.032774	0.031455	1.000000	-0.000007	0.000018	0.000014	-159.494909	-75.328716	155.109620
15171	9.539158	-0.899847	-2.327589	-0.013194	-0.023918	0.047443	1.000000	0.000001	0.000025	0.000020	-159.497057	-75.329350	155.108421
15172	9.537052	-0.881787	-2.342696	0.003574	-0.007072	0.047387	1.000000	-0.000003	0.000023	0.000046	-159.489177	-75.328825	155.100008
15173	9.520114	-0.859000	-2.388691	0.054024	0.010676	0.039889	1.000000	0.000011	0.000020	-0.000008	-159.502554	-75.330041	155.122486
15174	9.522358	-0.878066	-2.372635	0.036370	-0.007107	0.039943	1.000000	-0.000008	0.000031	0.000048	-159.493074	-75.330190	155.111849
15175	9.537235	-0.883117	-2.341450	0.002202	-0.008483	0.047387	1.000000	-0.000007	0.000006	0.000015	-159.500975	-75.328926	155.133920
15176	9.549968	-0.869243	-2.325875	-0.014740	0.007457	0.054779	1.000000	0.000001	0.000025	0.000020	-159.502784	-75.329653	155.136049
15177	9.516616	-0.877080	-2.329705	-0.003974	-0.004242	0.024118	1.000000	0.000001	0.000025	0.000020	-159.504767	-75.330328	155.136028
