// Start Time: Unknown
// Update Rate: 100.0Hz
// Filter Profile: human (46.1)
// Firmware Version: 4.4.0
PacketCounter	Acc_X	Acc_Y	Acc_Z	FreeAcc_X	FreeAcc_Y	FreeAcc_Z	OriInc_q0	OriInc_q1	OriInc_q2	OriInc_q3	Roll	Pitch	Yaw
25699	9.583550	-0.520169	2.350691	-0.000000	-0.000000	0.068646	1.000000	0.000023	0.000008	0.000021	-12.474605	-75.898826	5.101822
25700	9.578079	-0.491445	2.332954	0.000000	0.000000	0.057662	1.000000	0.000023	0.000008	0.000021	-11.892649	-76.022826	4.504034
25701	9.546662	-0.488679	2.347294	-0.011544	0.016693	0.030429	1.000000	0.000022	0.000010	0.000003	-12.179781	-75.960475	4.802639
25702	9.537169	-0.501721	2.329102	0.002203	0.001143	0.017573	1.000000	0.000027	0.000000	0.000006	-12.179234	-75.960280	4.805269
25703	9.524143	-0.515067	2.345268	-0.018085	-0.009946	0.009454	1.000000	-0.000001	0.000012	0.000030	-12.192576	-75.958881	4.818541
25704	9.524084	-0.515535	2.345408	-0.018085	-0.009946	0.009454	1.000000	0.000020	0.000001	0.000024	-12.200702	-75.958161	4.829332
25705	9.546518	-0.489498	2.347709	-0.011659	0.016722	0.030429	1.000000	0.000025	-0.000002	-0.000002	-12.197228	-75.958361	4.828740
25706	9.551900	-0.518577	2.365714	-0.031142	-0.009581	0.041411	1.000000	0.000023	0.000008	0.000021	-12.203150	-75.956958	4.837532
25707	9.555385	-0.518836	2.331431	0.002796	-0.014016	0.036675	1.000000	0.000026	-0.000004	0.000016	-12.207787	-75.956845	4.845435
25708	9.570242	-0.534986	2.367669	-0.030435	-0.024770	0.060512	1.000000	0.000011	0.000002	0.000016	-12.213354	-75.956261	4.852480
25709	9.551833	-0.519216	2.365844	-0.031074	-0.009557	0.041411	1.000000	0.000029	0.000003	0.000013	-12.216300	-75.955363	4.858882
25710	9.564805	-0.506145	2.349846	-0.010910	0.001558	0.049530	1.000000	0.000025	-0.000002	-0.000002	-12.212744	-75.955617	4.858212
25711	9.502077	-0.500283	2.378149	-0.052528	0.009737	-0.004911	1.000000	-0.000008	0.000003	-0.000000	-12.213748	-75.954870	4.858307
25712	9.546443	-0.490240	2.347859	-0.011518	0.016777	0.030429	1.000000	0.000039	-0.000016	0.000020	-12.219719	-75.956217	4.869119
25713	9.564846	-0.506244	2.349657	-0.010709	0.001592	0.049530	1.000000	0.000010	0.000004	-0.000003	-12.216921	-75.955102	4.867425
25714	9.546451	-0.490351	2.347805	-0.011390	0.016782	0.030429	1.000000	0.000019	-0.000001	0.000016	-12.222036	-75.954829	4.874912
25715	9.546446	-0.490553	2.347780	-0.011243	0.016767	0.030429	1.000000	0.000026	-0.000004	0.000016	-12.226064	-75.954021	4.882222
25716	9.546439	-0.490811	2.347755	-0.011243	0.016767	0.030429	1.000000	0.000028	-0.000002	0.000024	-12.233736	-75.953611	4.893452
25717	9.568868	-0.465020	2.350046	-0.004656	0.043379	0.051404	1.000000	0.000020	0.000001	0.000024	-12.240268	-75.951938	4.902694
25718	9.568252	-0.507498	2.315484	0.023519	-0.002910	0.044793	1.000000	0.000007	0.000014	0.000020	-12.247080	-75.949909	4.910592
25719	9.549821	-0.491723	2.313763	0.022977	0.012178	0.025691	1.000000	0.000019	0.000003	0.000005	-12.244258	-75.948636	4.910141
25720	9.549825	-0.491858	2.313715	0.022977	0.012178	0.025691	1.000000	0.000024	-0.000011	0.000019	-12.251127	-75.949356	4.920067
25721	9.558705	-0.521142	2.297371	0.037478	-0.018689	0.031935	1.000000	0.000025	0.000015	0.000018	-12.251625	-75.946914	4.923716
25722	9.546251	-0.492195	2.348232	-0.010861	0.016486	0.030430	1.000000	0.000025	-0.000006	0.000009	-12.253285	-75.947401	4.928345
25723	9.540307	-0.505389	2.295508	0.036831	-0.003625	0.012834	1.000000	0.000017	-0.000003	0.000008	-12.252305	-75.947437	4.929584
25724	9.549783	-0.492438	2.313765	0.023085	0.011924	0.025691	1.000000	0.000026	-0.000004	0.000016	-12.256966	-75.947475	4.937510
25725	9.546251	-0.492562	2.348153	-0.010876	0.016232	0.030430	1.000000	0.000021	0.000006	0.000013	-12.256938	-75.946869	4.940133
25726	9.568663	-0.466602	2.350567	-0.004457	0.042895	0.051406	1.000000	0.000013	0.000009	0.000013	-12.260289	-75.945597	4.945170
25727	9.568069	-0.508925	2.315926	0.023689	-0.003611	0.044792	1.000000	0.000026	-0.000004	0.000016	-12.259832	-75.945909	4.948166
25728	9.590534	-0.482935	2.318137	0.030109	0.023052	0.065768	1.000000	0.000017	-0.000003	0.000008	-12.261935	-75.946079	4.952349
25729	9.568023	-0.509126	2.316075	0.023569	-0.003854	0.044792	1.000000	0.000018	0.000022	0.000007	-12.255306	-75.944272	4.948131
25730	9.546078	-0.493347	2.348693	-0.011024	0.015772	0.030431	1.000000	0.000018	-0.000005	0.000027	-12.265615	-75.944228	4.960905
25731	9.540079	-0.506761	2.296155	0.036507	-0.004453	0.012835	1.000000	0.000016	0.000015	0.000010	-12.261248	-75.943132	4.958643
25732	9.549506	-0.493839	2.314610	0.022761	0.011095	0.025693	1.000000	0.000019	-0.000001	0.000016	-12.266343	-75.942855	4.966118
25733	9.536506	-0.507090	2.330655	0.002380	-0.000248	0.017573	1.000000	0.000019	-0.000001	0.000016	-12.266423	-75.943954	4.968643
25734	9.569716	-0.539192	2.368841	-0.030167	-0.026199	0.060509	1.000000	0.000011	0.000002	0.000016	-12.271971	-75.943362	4.975675
25735	9.536437	-0.507387	2.330873	0.002234	-0.000434	0.017573	1.000000	0.000024	0.000017	-0.000000	-12.263327	-75.942437	4.970073
25736	9.567745	-0.510442	2.316931	0.023081	-0.004514	0.044793	1.000000	0.000020	0.000001	0.000024	-12.271418	-75.941707	4.980841
25737	9.554725	-0.523712	2.333043	0.002677	-0.015776	0.036672	1.000000	0.000029	0.000003	0.000013	-12.270839	-75.942535	4.983670
25738	9.558225	-0.523832	2.298757	0.036588	-0.020211	0.031935	1.000000	0.000027	0.000000	0.000006	-12.270280	-75.942345	4.986297
25739	9.536322	-0.507799	2.331252	0.001665	-0.000696	0.017573	1.000000	0.000019	0.000003	0.000005	-12.268165	-75.943830	4.987087
25740	9.532773	-0.507813	2.365705	-0.032250	0.003737	0.022309	1.000000	0.000021	0.000006	0.000013	-12.271043	-75.942895	4.992565
25741	9.554628	-0.523986	2.333379	0.002100	-0.015997	0.036672	1.000000	0.000029	0.000003	0.000013	-12.271461	-75.943718	4.997038
25742	9.523239	-0.521228	2.347580	-0.018748	-0.011918	0.009451	1.000000	0.000011	0.000002	0.000016	-12.276982	-75.943160	5.004067
25743	9.567597	-0.511339	2.317347	0.022101	-0.004941	0.044795	1.000000	0.000042	-0.000010	0.000017	-12.279739	-75.944767	5.012501
25744	9.536242	-0.508295	2.331472	0.001252	-0.000863	0.017573	1.000000	0.000018	0.000005	-0.000013	-12.271369	-75.944512	5.006079
25745	9.549215	-0.495288	2.315503	0.021338	0.010253	0.025697	1.000000	0.000020	0.000001	0.000024	-12.279727	-75.944224	5.016754
25746	9.545696	-0.495242	2.349844	-0.012578	0.014684	0.030431	1.000000	0.000024	-0.000004	-0.000010	-12.273126	-75.944950	5.012780
25747	9.567578	-0.511220	2.317452	0.021844	-0.004992	0.044796	1.000000	0.000021	0.000006	0.000013	-12.275227	-75.945004	5.017353
25748	9.549193	-0.495369	2.315574	0.021161	0.010200	0.025697	1.000000	0.000017	-0.000003	0.000008	-12.277294	-75.945203	5.021530
25749	9.545683	-0.495366	2.349873	-0.012800	0.014544	0.030431	1.000000	0.000017	-0.000003	0.000008	-12.277354	-75.945679	5.024462
25750	9.555138	-0.482278	2.368248	-0.026549	0.030087	0.043288	1.000000	0.000022	0.000010	0.000003	-12.274968	-75.944491	5.024616
25751	9.549145	-0.495446	2.315757	0.021019	0.009982	0.025698	1.000000	0.000019	0.000003	0.000005	-12.272039	-75.944589	5.024200
25752	9.551558	-0.482472	2.402788	-0.060554	0.034390	0.048021	1.000000	0.000012	-0.000000	0.000034	-12.285727	-75.943781	5.039798
25753	9.558549	-0.483026	2.334204	0.007302	0.025364	0.038556	1.000000	0.000040	0.000009	0.000019	-12.284634	-75.942205	5.043435
25754	9.536051	-0.509209	2.332053	0.000891	-0.001299	0.017573	1.000000	0.000008	-0.000003	0.000000	-12.284105	-75.942502	5.043844
25755	9.545506	-0.496236	2.350408	-0.012795	0.013923	0.030432	1.000000	0.000023	0.000008	0.000021	-12.282054	-75.940878	5.047605
25756	9.576826	-0.499404	2.336405	0.008053	0.009835	0.057654	1.000000	0.000029	0.000003	0.000013	-12.284338	-75.940204	5.053457
25757	9.545430	-0.496579	2.350643	-0.013025	0.013686	0.030432	1.000000	0.000021	0.000006	0.000013	-12.282265	-75.940754	5.054504
25758	9.517534	-0.493831	2.330621	0.000047	0.013330	-0.001523	1.000000	0.000023	0.000012	0.000010	-12.282790	-75.939109	5.057915
25759	9.545341	-0.496952	2.350925	-0.012938	0.013454	0.030432	1.000000	0.000018	-0.000005	0.000027	-12.287545	-75.938672	5.065416
25760	9.548837	-0.497237	2.316643	0.020979	0.009017	0.025699	1.000000	0.000022	0.000010	0.000003	-12.285059	-75.937463	5.065525
25761	9.526902	-0.481227	2.349254	-0.013787	0.028461	0.011336	1.000000	0.000013	0.000009	0.000013	-12.284460	-75.937312	5.065705
25762	9.548777	-0.497405	2.316855	0.020806	0.008828	0.025699	1.000000	0.000032	-0.000009	0.000009	-12.285540	-75.938106	5.070731
25763	9.548797	-0.497456	2.316760	0.020702	0.008572	0.025700	1.000000	0.000017	-0.000003	0.000008	-12.281748	-75.939027	5.069145
25764	9.563600	-0.513422	2.353169	-0.012531	-0.002200	0.049528	1.000000	0.000016	0.000015	0.000010	-12.282753	-75.937079	5.072125
25765	9.567076	-0.513697	2.318977	0.021181	-0.006878	0.044796	1.000000	0.000019	-0.000001	0.000016	-12.282391	-75.938106	5.074400
25766	9.558184	-0.484832	2.335327	0.006748	0.023857	0.038560	1.000000	0.000019	-0.000001	0.000016	-12.287376	-75.937853	5.081837
25767	9.544564	-0.540142	2.316796	0.014509	-0.033740	0.023809	1.000000	0.000019	0.000003	0.000005	-12.283074	-75.938965	5.079111
25768	9.563518	-0.513969	2.353382	-0.013000	-0.002658	0.049527	1.000000	0.000017	-0.000003	0.000008	-12.285090	-75.939183	5.083272
25769	9.567018	-0.514213	2.319101	0.020793	-0.007231	0.044796	1.000000	0.000013	0.000009	0.000013	-12.285339	-75.938688	5.084617
25770	9.517261	-0.495512	2.331381	-0.000733	0.012049	-0.001522	1.000000	0.000028	-0.000002	0.000024	-12.292932	-75.938323	5.095824
25771	9.522594	-0.524771	2.349404	-0.019891	-0.014334	0.009445	1.000000	0.000011	0.000002	0.000016	-12.296065	-75.935828	5.098586
25772	9.544456	-0.541098	2.317019	0.014700	-0.033966	0.023808	1.000000	0.000019	-0.000001	0.000016	-12.301123	-75.935551	5.106046
25773	9.553928	-0.528088	2.335319	0.000769	-0.018642	0.036667	1.000000	0.000027	0.000000	0.000006	-12.295690	-75.936533	5.106538
25774	9.545028	-0.499182	2.351726	-0.013662	0.012095	0.030433	1.000000	0.000013	0.000004	0.000023	-12.304140	-75.935505	5.116826
25775	9.561526	-0.486395	2.301420	0.040229	0.018669	0.033831	1.000000	0.000028	0.000005	-0.000005	-12.296203	-75.936212	5.112702
25776	9.566814	-0.515281	2.319706	0.020742	-0.007646	0.044796	1.000000	0.000018	0.000022	0.000007	-12.295021	-75.933605	5.113691
25777	9.535371	-0.512292	2.334157	-0.000180	-0.003528	0.017573	1.000000	0.000022	0.000010	0.000003	-12.293717	-75.932875	5.112307
25778	9.538907	-0.512538	2.299741	0.033730	-0.007962	0.012843	1.000000	0.000029	-0.000020	0.000022	-12.302305	-75.934607	5.124673
25779	9.589290	-0.489401	2.321923	0.027159	0.019071	0.065785	1.000000	0.000023	-0.000009	0.000001	-12.301653	-75.934970	5.124464
25780	9.579797	-0.502621	2.303663	0.040911	0.003527	0.052925	1.000000	0.000023	0.000008	0.000021	-12.307535	-75.933556	5.133227
25781	9.526492	-0.483705	2.350408	-0.014633	0.027164	0.011339	1.000000	0.000023	0.000012	0.000010	-12.306493	-75.932625	5.135001
25782	9.525846	-0.526058	2.315906	0.013546	-0.019122	0.004713	1.000000	0.000026	-0.000004	0.000016	-12.311139	-75.932648	5.142920
25783	9.557784	-0.486874	2.336536	0.006433	0.023108	0.038562	1.000000	0.000024	0.000017	-0.000000	-12.306961	-75.929421	5.138823
25784	9.535255	-0.513073	2.334461	0.000029	-0.003544	0.017573	1.000000	0.000009	-0.000005	0.000019	-12.314738	-75.929457	5.147847
25785	9.539342	-0.471172	2.334894	0.005406	0.038370	0.019468	1.000000	0.000018	0.000022	0.000007	-12.316008	-75.928918	5.147864
25786	9.566497	-0.516342	2.320777	0.020510	-0.007568	0.044797	1.000000	0.000029	0.000003	0.000013	-12.318553	-75.928239	5.153816
25787	9.557618	-0.487342	2.337119	0.006175	0.023056	0.038562	1.000000	0.000017	-0.000003	0.000008	-12.317592	-75.927938	5.155066
25788	9.548118	-0.500579	2.318886	0.019933	0.007515	0.025702	1.000000	0.000021	0.000006	0.000013	-12.320564	-75.926920	5.160556
25789	9.557556	-0.487625	2.337313	0.006082	0.023132	0.038562	1.000000	0.000013	0.000009	0.000013	-12.325925	-75.926209	5.163212
25790	9.544485	-0.500620	2.353621	-0.014071	0.012032	0.030432	1.000000	0.000032	0.000014	0.000000	-12.321115	-75.924585	5.161884
25791	9.529618	-0.484833	2.317494	0.019377	0.022934	0.006608	1.000000	0.000011	0.000002	0.000016	-12.329778	-75.922679	5.165373
25792	9.553915	-0.487826	2.372046	-0.027591	0.027739	0.043292	1.000000	0.000009	-0.000005	0.000019	-12.337794	-75.922662	5.174477
25793	9.547935	-0.501345	2.319475	0.019521	0.007887	0.025703	1.000000	0.000013	0.000009	0.000013	-12.345821	-75.924521	5.177673
25794	9.544374	-0.501395	2.353908	-0.014379	0.012352	0.030432	1.000000	0.000019	-0.000001	0.000016	-12.351321	-75.924174	5.185288
25795	9.547892	-0.501764	2.319562	0.019308	0.007859	0.025703	1.000000	0.000019	-0.000001	0.000016	-12.355887	-75.925227	5.189422
25796	9.557373	-0.488844	2.337808	0.005573	0.023428	0.038562	1.000000	0.000026	-0.000004	0.000016	-12.360993	-75.925200	5.197509
25797	9.557389	-0.489067	2.337694	0.005107	0.023243	0.038562	1.000000	0.000024	-0.000011	0.000019	-12.364475	-75.928743	5.204675
25798	9.557390	-0.489373	2.337627	0.005110	0.023262	0.038562	1.000000	0.000020	0.000001	0.000024	-12.373022	-75.927984	5.215611
25799	9.562667	-0.518448	2.355857	-0.014516	-0.003134	0.049525	1.000000	0.000024	0.000017	-0.000000	-12.366496	-75.926905	5.209819
25800	9.547776	-0.502877	2.319795	0.018731	0.007635	0.025705	1.000000	0.000024	0.000006	0.000039	-12.381066	-75.925243	5.227344
25801	9.547758	-0.503322	2.319775	0.018287	0.007526	0.025706	1.000000	0.000024	-0.000011	0.000019	-12.386363	-75.928624	5.234415
25802	9.534714	-0.516472	2.335918	-0.001882	-0.003553	0.017573	1.000000	0.000016	0.000015	0.000010	-12.387993	-75.926675	5.237629
25803	9.553008	-0.532526	2.338076	-0.002113	-0.018675	0.036667	1.000000	0.000019	0.000003	0.000005	-12.391785	-75.931376	5.238763
25804	9.557140	-0.490529	2.338408	0.003633	0.023199	0.038563	1.000000	0.000021	0.000006	0.000013	-12.395298	-75.930486	5.244497
25805	9.562431	-0.519618	2.356557	-0.015405	-0.003620	0.049524	1.000000	0.000029	0.000003	0.000013	-12.384206	-75.927374	5.245014
25806	9.534551	-0.516862	2.336499	-0.002330	-0.003951	0.017573	1.000000	0.000023	0.000012	0.000010	-12.385349	-75.925758	5.248666
25807	9.557032	-0.490801	2.338791	0.004002	0.022857	0.038564	1.000000	0.000008	-0.000003	0.000000	-12.388979	-75.926511	5.246290
25808	9.575403	-0.506795	2.340644	0.004659	0.007681	0.057658	1.000000	0.000005	-0.000010	0.000003	-12.391321	-75.927525	5.248975
25809	9.516197	-0.501004	2.334546	-0.004058	0.011472	-0.001522	1.000000	0.000040	0.000009	0.000019	-12.397328	-75.931741	5.256347
25810	9.538047	-0.517238	2.302250	0.030495	-0.008157	0.012853	1.000000	0.000008	-0.000003	0.000000	-12.397542	-75.932149	5.257078
25811	9.557037	-0.491001	2.338730	0.002206	0.023118	0.038564	1.000000	0.000017	-0.000003	0.000008	-12.405617	-75.936936	5.260745
25812	9.557027	-0.491102	2.338747	0.002177	0.023148	0.038564	1.000000	0.000029	0.000003	0.000013	-12.408852	-75.936442	5.267017
25813	9.534489	-0.517313	2.336650	-0.003990	-0.003460	0.017572	1.000000	0.000029	0.000003	0.000013	-12.411753	-75.934253	5.268469
25814	9.566465	-0.478215	2.357172	-0.011329	0.038777	0.051418	1.000000	0.000029	0.000003	0.000013	-12.415039	-75.933728	5.274753
25815	9.556939	-0.491330	2.339059	0.001677	0.023066	0.038564	1.000000	0.000012	0.000011	-0.000005	-12.408086	-75.937079	5.269963
25816	9.556884	-0.491566	2.339235	0.001643	0.023098	0.038564	1.000000	0.000024	0.000006	0.000039	-12.423027	-75.935618	5.287689
25817	9.547382	-0.504921	2.320974	0.015891	0.007481	0.025710	1.000000	0.000014	-0.000008	-0.000007	-12.416624	-75.933757	5.279721
25818	9.547375	-0.504968	2.320992	0.015865	0.007515	0.025710	1.000000	0.000023	0.000008	0.000021	-12.423369	-75.932474	5.288850
25819	9.562126	-0.521011	2.357488	-0.017851	-0.003286	0.049520	1.000000	0.000013	0.000009	0.000013	-12.426162	-75.933925	5.291440
25820	9.534255	-0.518305	2.337385	-0.004793	-0.003609	0.017572	1.000000	0.000029	0.000003	0.000013	-12.429508	-75.933436	5.297755
25821	9.584583	-0.495249	2.359831	-0.012061	0.023499	0.070511	1.000000	0.000019	-0.000001	0.000016	-12.438454	-75.936667	5.303923
25822	9.519406	-0.502920	2.301152	0.027822	0.007260	-0.006235	1.000000	0.000003	0.000005	0.000015	-12.445423	-75.935959	5.310930
25823	9.569750	-0.479899	2.323531	0.022171	0.034182	0.046702	1.000000	0.000042	-0.000010	0.000017	-12.445006	-75.930742	5.312483
25824	9.547249	-0.506089	2.321267	0.015715	0.007574	0.025710	1.000000	0.000017	-0.000003	0.000008	-12.448090	-75.931028	5.317084
25825	9.556719	-0.493081	2.339588	0.002011	0.023197	0.038564	1.000000	0.000013	0.000009	0.000013	-12.452938	-75.929521	5.318133
25826	9.552529	-0.535206	2.339418	-0.003796	-0.018608	0.036667	1.000000	0.000023	-0.000009	0.000001	-12.452651	-75.930562	5.319923
25827	9.550752	-0.506501	2.286999	0.048375	0.003095	0.021001	1.000000	0.000021	0.000006	0.000013	-12.455804	-75.937064	5.326633
25828	9.560186	-0.493495	2.305472	0.034600	0.018696	0.033853	1.000000	0.000016	0.000015	0.000010	-12.457973	-75.935304	5.330098
25829	9.528763	-0.490572	2.319800	0.012089	0.022980	0.006619	1.000000	0.000021	0.000006	0.000013	-12.468883	-75.944211	5.338258
25830	9.569559	-0.480741	2.324145	0.019106	0.034471	0.046707	1.000000	0.000007	0.000014	0.000020	-12.476836	-75.942479	5.346650
25831	9.533954	-0.519940	2.338249	-0.007873	-0.003233	0.017570	1.000000	0.000019	0.000003	0.000005	-12.478218	-75.944152	5.345530
25832	9.559960	-0.494186	2.306263	0.032411	0.018977	0.033859	1.000000	0.000025	0.000015	0.000018	-12.483126	-75.942381	5.352845
25833	9.574710	-0.510359	2.342703	-0.001256	0.008262	0.057658	1.000000	0.000028	-0.000006	0.000035	-12.496999	-75.944492	5.367352
25834	9.533830	-0.520724	2.338580	-0.008392	-0.003136	0.017570	1.000000	0.000012	0.000006	0.000005	-12.498622	-75.944015	5.369669
25835	9.556310	-0.494814	2.340893	-0.002778	0.023605	0.038562	1.000000	0.000023	0.000008	0.000021	-12.508710	-75.947360	5.377403
25836	9.556261	-0.495035	2.341046	-0.002850	0.023655	0.038562	1.000000	0.000021	0.000006	0.000013	-12.512971	-75.946789	5.383510
25837	9.546711	-0.508416	2.322971	0.010910	0.008328	0.025716	1.000000	0.000015	0.000011	0.000020	-12.525102	-75.944794	5.387793
25838	9.546627	-0.508587	2.323279	0.010839	0.008383	0.025716	1.000000	0.000026	0.000019	0.000007	-12.525016	-75.942854	5.389902
25839	9.533532	-0.521650	2.339591	-0.009280	-0.002591	0.017569	1.000000	0.000011	0.000002	0.000016	-12.532897	-75.941867	5.392914
25840	9.543018	-0.508667	2.357841	-0.023081	0.013037	0.030414	1.000000	0.000017	-0.000003	0.000008	-12.536552	-75.942402	5.397806
25841	9.533515	-0.521798	2.339628	-0.009539	-0.002434	0.017569	1.000000	0.000037	0.000004	0.000003	-12.536191	-75.942900	5.395750
25842	9.556034	-0.495764	2.341818	-0.003163	0.024269	0.038561	1.000000	0.000026	-0.000004	0.000016	-12.542466	-75.943298	5.404414
25843	9.556036	-0.495954	2.341770	-0.004979	0.024457	0.038559	1.000000	0.000026	-0.000004	0.000016	-12.555847	-75.953862	5.416043
25844	9.543012	-0.508997	2.357795	-0.025244	0.013451	0.030408	1.000000	0.000025	-0.000006	0.000009	-12.559255	-75.954829	5.421501
25845	9.533499	-0.522262	2.339589	-0.010528	-0.002200	0.017568	1.000000	0.000013	0.000009	0.000013	-12.558481	-75.947815	5.418860
25846	9.542963	-0.509312	2.357924	-0.024335	0.013440	0.030411	1.000000	0.000019	-0.000001	0.000016	-12.565299	-75.947941	5.427118
25847	9.542971	-0.509485	2.357853	-0.024774	0.013674	0.030409	1.000000	0.000042	-0.000010	0.000017	-12.575724	-75.951042	5.433258
25848	9.555996	-0.496722	2.341772	-0.004675	0.024806	0.038559	1.000000	0.000013	0.000009	0.000013	-12.580844	-75.950198	5.439078
25849	9.546458	-0.510026	2.323657	0.008892	0.008646	0.025718	1.000000	0.000029	0.000003	0.000014	-12.569605	-75.950802	5.443278
25850	9.555963	-0.496893	2.341871	-0.004921	0.024283	0.038560	1.000000	0.000023	-0.000009	0.000001	-12.569971	-75.952182	5.445417
25851	9.542925	-0.509841	2.357966	-0.025631	0.013357	0.030407	1.000000	0.000021	0.000006	0.000013	-12.577462	-75.954264	5.449111
25852	9.555932	-0.497008	2.341971	-0.005540	0.024487	0.038559	1.000000	0.000019	0.000003	0.000005	-12.579099	-75.954226	5.452092
25853	9.555911	-0.497022	2.342054	-0.004952	0.024891	0.038558	1.000000	0.000019	0.000003	0.000005	-12.587407	-75.950081	5.447835
25854	9.574207	-0.512996	2.344180	-0.004416	0.009765	0.057656	1.000000	0.000029	0.000007	0.000003	-12.586502	-75.949633	5.449289
25855	9.559404	-0.497404	2.307875	0.028666	0.020576	0.033868	1.000000	0.000018	-0.000005	0.000027	-12.600692	-75.950725	5.459323
25856	9.528015	-0.494493	2.322039	0.007789	0.024787	0.006619	1.000000	0.000022	0.000010	0.000003	-12.600284	-75.949973	5.460342
25857	9.555789	-0.497293	2.342496	-0.004813	0.025307	0.038557	1.000000	0.000022	0.000010	0.000003	-12.600013	-75.945751	5.455142
25858	9.542727	-0.510216	2.358683	-0.025073	0.014328	0.030407	1.000000	0.000017	-0.000003	0.000008	-12.604116	-75.946316	5.460214
25859	9.565275	-0.484229	2.360770	-0.019383	0.041207	0.051395	1.000000	0.000017	-0.000003	0.000008	-12.613720	-75.950914	5.462277
25860	9.555764	-0.497332	2.342590	-0.005747	0.025697	0.038556	1.000000	0.000020	0.000008	-0.000005	-12.610466	-75.950622	5.460067
25861	9.537419	-0.481337	2.340666	-0.007206	0.040254	0.019459	1.000000	0.000019	-0.000001	0.000016	-12.602152	-75.955625	5.467840
25862	9.574740	-0.471113	2.379142	-0.034134	0.056300	0.064234	1.000000	0.000035	-0.000002	0.000006	-12.603139	-75.956230	5.471830
25863	9.555742	-0.497623	2.342618	-0.007662	0.025122	0.038556	1.000000	0.000018	-0.000005	0.000027	-12.615566	-75.961874	5.484383
25864	9.537364	-0.481849	2.340786	-0.008368	0.040392	0.019457	1.000000	0.000018	0.000022	0.000007	-12.616421	-75.959786	5.486255
25865	9.555667	-0.497756	2.342896	-0.006751	0.025158	0.038557	1.000000	0.000029	-0.000014	-0.000006	-12.608466	-75.955602	5.477201
25866	9.540902	-0.481956	2.306488	0.026459	0.035894	0.014774	1.000000	0.000021	0.000006	0.000013	-12.613356	-75.955117	5.483568
25867	9.546146	-0.511123	2.324696	0.007184	0.010194	0.025718	1.000000	0.000020	0.000001	0.000024	-12.634091	-75.952306	5.487504
25868	9.555641	-0.498281	2.342888	-0.006618	0.025868	0.038555	1.000000	0.000016	-0.000008	0.000019	-12.643605	-75.953149	5.497973
25869	9.546148	-0.511682	2.324565	0.007096	0.010333	0.025717	1.000000	0.000026	-0.000004	0.000016	-12.649736	-75.953151	5.500535
25870	9.555673	-0.498632	2.342685	-0.006702	0.026012	0.038554	1.000000	0.000005	-0.000010	0.000003	-12.653740	-75.954590	5.503985
25871	9.577554	-0.515026	2.310241	0.028921	0.006170	0.052967	1.000000	0.000026	-0.000004	0.000016	-12.653636	-75.948117	5.503185
25872	9.511220	-0.508674	2.373023	-0.046638	0.019117	0.003155	1.000000	0.000003	0.000028	0.000006	-12.655526	-75.945242	5.504144
25873	9.550348	-0.470094	2.324688	0.014464	0.052258	0.027605	1.000000	0.000016	-0.000029	0.000010	-12.660219	-75.945157	5.503575
25874	9.559223	-0.499267	2.308221	0.028702	0.021550	0.033866	1.000000	0.000018	0.000001	-0.000002	-12.659328	-75.945453	5.503407
25875	9.599396	-0.531559	2.277925	0.064032	-0.013779	0.067373	1.000000	0.000009	-0.000001	0.000008	-12.652171	-75.944173	5.502610
25876	9.537324	-0.483252	2.340662	-0.005635	0.041006	0.019457	1.000000	-0.000003	0.000010	0.000023	-12.663701	-75.942823	5.512892
25877	9.567979	-0.528898	2.292141	0.043531	-0.009805	0.040124	1.000000	0.000023	-0.000009	0.000001	-12.655244	-75.941815	5.507990
25878	9.559848	-0.457316	2.342860	0.001146	0.067459	0.040447	1.000000	0.000014	0.000013	0.000002	-12.655426	-75.940627	5.508559
25879	9.544321	-0.483943	2.272291	0.061875	0.031501	0.010080	1.000000	0.000031	0.000010	0.000011	-12.652002	-75.942855	5.510517
25880	9.524139	-0.496402	2.357286	-0.026187	0.029656	0.011307	1.000000	0.000013	0.000009	0.000013	-12.657394	-75.941915	5.516394
25881	9.559034	-0.499906	2.308864	0.028490	0.021159	0.033867	1.000000	0.000032	-0.000009	0.000009	-12.664101	-75.942695	5.516076
25882	9.558995	-0.500060	2.308994	0.028425	0.021242	0.033867	1.000000	0.000010	0.000021	0.000017	-12.670748	-75.940302	5.522769
25883	9.558919	-0.500279	2.309260	0.028115	0.021060	0.033868	1.000000	0.000021	0.000006	0.000013	-12.669975	-75.941246	5.525974
25884	9.586705	-0.503382	2.329597	0.014936	0.021546	0.065806	1.000000	0.000020	0.000001	0.000024	-12.680221	-75.940843	5.537646
25885	9.540524	-0.484687	2.307479	0.027355	0.036250	0.014770	1.000000	0.000014	0.000013	0.000002	-12.676456	-75.939975	5.532634
25886	9.562351	-0.501191	2.275246	0.061782	0.016569	0.029182	1.000000	0.000018	-0.000005	0.000027	-12.688941	-75.940248	5.546331
25887	9.555234	-0.500860	2.343997	-0.006205	0.025803	0.038555	1.000000	0.000031	0.000010	0.000011	-12.691990	-75.939959	5.546197
25888	9.555162	-0.501117	2.344239	-0.006273	0.025888	0.038555	1.000000	0.000017	0.000013	0.000028	-12.703464	-75.938110	5.558670
25889	9.545597	-0.514580	2.326190	0.007547	0.010244	0.025717	1.000000	0.000029	0.000003	0.000014	-12.704684	-75.936801	5.560227
25890	9.576936	-0.517789	2.312182	0.028268	0.006163	0.052968	1.000000	0.000019	0.000003	0.000005	-12.706783	-75.936625	5.563325
25891	9.527231	-0.498714	2.324352	0.006189	0.025491	0.006618	1.000000	0.000021	0.000006	0.000013	-12.710491	-75.939791	5.567256
25892	9.558555	-0.502008	2.310391	0.026904	0.021409	0.033871	1.000000	0.000021	0.000006	0.000013	-12.715601	-75.939187	5.573651
25893	9.564459	-0.488712	2.363152	-0.021415	0.041406	0.051390	1.000000	0.000033	0.000012	0.000018	-12.716064	-75.941668	5.579798
25894	9.563700	-0.531140	2.328950	0.006502	-0.004913	0.044818	1.000000	0.000029	0.000007	0.000003	-12.715518	-75.941189	5.581355
25895	9.527035	-0.499087	2.325076	0.005018	0.025971	0.006618	1.000000	0.000031	0.000010	0.000011	-12.728409	-75.941447	5.582397
25896	9.573119	-0.518043	2.347512	-0.007598	0.011281	0.057652	1.000000	0.000029	0.000003	0.000014	-12.733215	-75.941193	5.589313
25897	9.541710	-0.515038	2.361747	-0.028622	0.015756	0.030396	1.000000	0.000041	0.000009	0.000019	-12.743758	-75.940982	5.593534
25898	9.569468	-0.518054	2.382199	-0.041821	0.016270	0.062329	1.000000	0.000013	0.000009	0.000013	-12.749499	-75.940107	5.599545
25899	9.545156	-0.515686	2.327754	0.003058	-0.014786	0.025714	1.000000	0.000021	0.000006	0.000013	-12.129885	-75.965400	4.752068
25900	9.554601	-0.502578	2.346210	-0.010670	0.000726	0.038585	1.000000	0.000033	0.000016	0.000008	-12.125124	-75.964017	4.748673
25901	9.541497	-0.515433	2.362523	-0.031047	-0.010296	0.030395	1.000000	0.000027	0.000000	0.000006	-12.122087	-75.964630	4.743889
25902	9.541449	-0.515537	2.362695	-0.031144	-0.010421	0.030395	1.000000	0.000025	0.000015	0.000018	-12.122987	-75.963164	4.745347
25903	9.526612	-0.499883	2.326636	0.002126	-0.000044	0.006653	1.000000	0.000024	0.000017	-0.000000	-12.115410	-75.961978	4.741819
25904	9.523035	-0.499632	2.361061	-0.031848	0.004565	0.011334	1.000000	0.000024	-0.000011	0.000019	-12.119500	-75.963319	4.746438
25905	9.559654	-0.531760	2.365100	-0.030945	-0.026080	0.049453	1.000000	0.000010	0.000004	-0.000003	-12.113605	-75.963629	4.747404
25906	9.563899	-0.489805	2.365189	-0.024928	0.015589	0.051456	1.000000	0.000028	-0.000002	0.000024	-12.118494	-75.963839	4.753326
25907	9.544880	-0.516378	2.328732	0.002242	-0.015816	0.025712	1.000000	0.000017	-0.000003	0.000008	-12.117770	-75.964605	4.752843
25908	9.572704	-0.519401	2.348904	-0.010983	-0.015552	0.057643	1.000000	0.000016	-0.000008	0.000019	-12.122300	-75.965632	4.757009
25909	9.541347	-0.516378	2.362920	-0.031805	-0.011335	0.030392	1.000000	0.000000	0.000000	0.000000	-12.122213	-75.965492	4.760760
25910	9.549164	-0.474571	2.328638	0.008191	0.025724	0.027718	1.000000	0.000018	0.000001	-0.000002	-12.116296	-75.966057	4.754308
25911	9.554424	-0.503467	2.346740	-0.011626	-0.000564	0.038584	1.000000	0.000015	-0.000010	0.000011	-12.117609	-75.967383	4.759313
25912	9.526606	-0.500559	2.326516	0.001407	-0.001078	0.006653	1.000000	0.000030	0.000011	-0.000008	-12.106827	-75.966900	4.749308
25913	9.544949	-0.516498	2.328421	0.001809	-0.016445	0.025712	1.000000	0.000016	-0.000029	0.000010	-12.109562	-75.970513	4.750853
25914	9.567550	-0.490498	2.330367	0.008333	0.009971	0.046777	1.000000	0.000014	0.000013	0.000002	-12.104878	-75.969633	4.745245
25915	9.558050	-0.503713	2.312108	0.021880	-0.005788	0.033905	1.000000	0.000011	-0.000019	0.000007	-12.105776	-75.972154	4.745160
25916	9.549288	-0.474544	2.328135	0.007659	0.024977	0.027720	1.000000	0.000019	0.000003	0.000005	-12.102868	-75.972269	4.742011
25917	9.571101	-0.491174	2.295952	0.041951	0.004867	0.042100	1.000000	0.000015	0.000007	0.000031	-12.111951	-75.971323	4.747255
25918	9.543260	-0.488641	2.275739	0.054986	0.004348	0.010170	1.000000	0.000017	-0.000003	0.000008	-12.111257	-75.972119	4.746112
25919	9.571038	-0.491579	2.296128	0.041733	0.004622	0.042101	1.000000	0.000016	0.000015	0.000010	-12.109981	-75.970933	4.739778
25920	9.552635	-0.475862	2.294432	0.041146	0.019746	0.023044	1.000000	0.000029	0.000019	0.000033	-12.116906	-75.968568	4.747850
25921	9.557802	-0.505062	2.312839	0.021229	-0.006527	0.033906	1.000000	0.000002	0.000002	0.000008	-12.117163	-75.969073	4.748234
25922	9.548982	-0.476043	2.329084	0.007020	0.024243	0.027722	1.000000	0.000031	0.000005	0.000021	-12.119842	-75.968603	4.752155
25923	9.557728	-0.505472	2.313057	0.021028	-0.006776	0.033906	1.000000	0.000021	0.000006	0.000013	-12.120133	-75.968313	4.747723
25924	9.539378	-0.489782	2.311138	0.020444	0.008350	0.014850	1.000000	0.000015	0.000007	0.000031	-12.128911	-75.967445	4.756041
25925	9.548822	-0.477067	2.329528	0.006693	0.023877	0.027724	1.000000	0.000025	0.000010	0.000028	-12.135288	-75.966425	4.758018
25926	9.552335	-0.477623	2.295314	0.040473	0.018986	0.023049	1.000000	0.000027	0.000000	0.000006	-12.131946	-75.966855	4.755330
25927	9.557543	-0.506727	2.313546	0.020576	-0.007278	0.033907	1.000000	0.000030	0.000001	0.000032	-12.139979	-75.966770	4.760241
25928	9.561094	-0.507443	2.279138	0.054354	-0.012176	0.029232	1.000000	0.000024	-0.000011	0.000019	-12.144079	-75.968111	4.764871
25929	9.553980	-0.507155	2.347755	-0.013536	-0.002762	0.038581	1.000000	0.000039	0.000000	0.000040	-12.154602	-75.967992	4.777106
25930	9.601169	-0.540640	2.249028	0.088948	-0.047720	0.062670	1.000000	0.000016	0.000015	0.000010	-12.152925	-75.966663	4.774800
25931	9.570450	-0.495260	2.297785	0.040364	0.003091	0.042107	1.000000	0.000027	0.000017	0.000026	-12.157006	-75.964989	4.778218
25932	9.588630	-0.511457	2.300285	0.040745	-0.012293	0.061162	1.000000	0.000028	0.000026	0.000004	-12.150464	-75.962614	4.772359
25933	9.540504	-0.520856	2.365341	-0.034283	-0.014124	0.030380	1.000000	0.000029	0.000024	0.000023	-12.152479	-75.960342	4.772344
25934	9.534397	-0.534734	2.313347	0.013103	-0.034687	0.012834	1.000000	0.000041	0.000030	0.000028	-12.154526	-75.956928	4.776852
25935	9.540195	-0.521330	2.366483	-0.034530	-0.014358	0.030379	1.000000	0.000021	0.000029	0.000004	-12.148862	-75.954535	4.767778
25936	9.508681	-0.518149	2.381135	-0.055363	-0.010095	0.003123	1.000000	0.000057	0.000029	0.000018	-12.144819	-75.951520	4.767898
25937	9.523222	-0.533945	2.418245	-0.088910	-0.020670	0.026847	1.000000	0.000026	0.000040	0.000017	-12.142932	-75.947527	4.764919
25938	9.523085	-0.534119	2.418748	-0.089007	-0.020792	0.026846	1.000000	0.000041	0.000009	0.000019	-12.142961	-75.946690	4.767294
25939	9.544864	-0.550663	2.386765	-0.054790	-0.040968	0.041227	1.000000	0.000043	0.000016	0.000016	-12.140855	-75.945341	4.772692
25940	9.541244	-0.550415	2.421274	-0.088760	-0.036300	0.045896	1.000000	0.000054	-0.000003	0.000022	-12.142227	-75.945812	4.777990
25941	9.563121	-0.566917	2.388919	-0.054502	-0.056453	0.060278	1.000000	0.000040	-0.000012	0.000010	-12.140665	-75.947443	4.777384
25942	9.563908	-0.524517	2.423028	-0.082279	-0.010001	0.066971	1.000000	0.000022	-0.000013	0.000012	-12.141760	-75.949234	4.778714
25943	9.531872	-0.563703	2.402503	-0.075431	-0.052288	0.033019	1.000000	0.000054	-0.000020	0.000003	-12.136395	-75.952047	4.779706
25944	9.561720	-0.538501	2.335380	-0.001125	-0.035482	0.044757	1.000000	0.000023	-0.000036	0.000021	-12.143701	-75.956192	4.787512
25945	9.548735	-0.551364	2.351125	-0.021475	-0.046439	0.036552	1.000000	0.000014	-0.000008	-0.000007	-12.137726	-75.957789	4.780902
25946	9.553098	-0.509087	2.350924	-0.015374	-0.004784	0.038578	1.000000	0.000021	-0.000011	-0.000007	-12.130590	-75.959801	4.773622
25947	9.519395	-0.519695	2.277929	0.045159	-0.025732	-0.010891	1.000000	0.000031	-0.000012	0.000001	-12.126995	-75.961568	4.769979
25948	9.543677	-0.521925	2.332420	-0.001949	-0.020654	0.025704	1.000000	0.000024	-0.000004	-0.000009	-12.117641	-75.962899	4.760690
25949	9.556750	-0.508885	2.316348	0.018235	-0.009882	0.033909	1.000000	0.000012	0.000011	-0.000005	-12.110896	-75.962378	4.752459
25950	9.566202	-0.495492	2.334841	0.004538	0.005653	0.046783	1.000000	0.000007	0.000020	-0.000009	-12.101426	-75.960955	4.741086
25951	9.560918	-0.466370	2.316974	0.024270	0.031683	0.035938	1.000000	0.000005	0.000018	-0.000016	-12.089878	-75.959856	4.728472
25952	9.552947	-0.507803	2.351814	-0.015906	-0.005414	0.038577	1.000000	0.000011	0.000029	-0.000004	-12.081208	-75.957301	4.718405
25953	9.562388	-0.494359	2.370349	-0.029577	0.010164	0.051451	1.000000	0.000018	0.000005	-0.000013	-12.070935	-75.957479	4.704658
25954	9.538833	-0.449274	2.350301	-0.010314	0.051412	0.021556	1.000000	0.000009	0.000022	-0.000001	-12.064483	-75.955604	4.696597
25955	9.540381	-0.477576	2.403268	-0.064076	0.030020	0.037066	1.000000	0.000015	0.000017	-0.000008	-12.055268	-75.954380	4.686068
25956	9.543912	-0.477920	2.369099	-0.030302	0.025080	0.032400	1.000000	0.000009	-0.000001	0.000008	-12.055016	-75.954861	4.684472
25957	9.543931	-0.477876	2.369028	-0.030361	0.024988	0.032400	1.000000	0.000014	-0.000008	-0.000007	-12.048955	-75.956347	4.672664
25958	9.557044	-0.465109	2.352741	-0.010182	0.035709	0.040608	1.000000	0.000016	-0.000008	0.000019	-12.053488	-75.957374	4.676833
25959	9.544053	-0.477918	2.368528	-0.030515	0.024766	0.032400	1.000000	0.000030	-0.000033	-0.000008	-12.047419	-75.961615	4.667379
25960	9.579090	-0.481429	2.319742	0.023982	0.015393	0.054993	1.000000	0.000005	-0.000010	0.000003	-12.046366	-75.963226	4.664479
25961	9.582729	-0.481594	2.285147	0.057767	0.010451	0.050329	1.000000	0.000026	-0.000019	-0.000021	-12.033149	-75.966368	4.648611
25962	9.582814	-0.481437	2.284826	0.057671	0.010322	0.050329	1.000000	0.000012	-0.000017	0.000014	-12.036883	-75.968525	4.651476
25963	9.569763	-0.494348	2.300842	0.037339	-0.000638	0.042120	1.000000	0.000027	0.000000	0.000006	-12.033632	-75.968714	4.648769
25964	9.569758	-0.494280	2.300877	0.037243	-0.000766	0.042120	1.000000	0.000018	0.000001	-0.000002	-12.027716	-75.969277	4.642318
25965	9.591594	-0.510578	2.268730	0.071471	-0.020984	0.056505	1.000000	0.000020	0.000008	-0.000005	-12.019818	-75.969076	4.634679
25966	9.568957	-0.536325	2.266951	0.064683	-0.047622	0.035419	1.000000	0.000040	0.000015	-0.000010	-12.006394	-75.968224	4.623138
25967	9.565286	-0.535505	2.301827	0.030698	-0.042896	0.040083	1.000000	0.000022	0.000037	-0.000017	-11.990284	-75.965174	4.605782
25968	9.559921	-0.506293	2.284310	0.050439	-0.016926	0.029246	1.000000	0.000031	0.000037	-0.000009	-11.976334	-75.961881	4.592642
25969	9.574525	-0.521634	2.321288	0.016918	-0.027458	0.052958	1.000000	0.000015	0.000017	-0.000008	-11.966887	-75.960744	4.579965
25970	9.570117	-0.563202	2.321919	0.010563	-0.069356	0.050918	1.000000	0.000021	0.000039	-0.000035	-11.942139	-75.957800	4.554459
25971	9.494874	-0.526386	2.401173	-0.078866	-0.024790	-0.005113	1.000000	0.000020	0.000035	-0.000025	-11.923334	-75.955098	4.533359
25972	9.574161	-0.519979	2.323160	0.016621	-0.027810	0.052958	1.000000	0.000008	0.000024	-0.000019	-11.908669	-75.953432	4.516708
25973	9.562583	-0.560776	2.392517	-0.057466	-0.059969	0.060241	1.000000	0.000022	0.000037	-0.000017	-11.892929	-75.950200	4.496655
25974	9.492877	-0.496531	2.350348	-0.025434	-0.003883	-0.020612	1.000000	0.000024	0.000023	-0.000029	-11.872181	-75.948926	4.475624
25975	9.533708	-0.485848	2.354812	-0.018382	0.007260	0.019524	1.000000	0.000044	0.000008	-0.000025	-11.853042	-75.949195	4.459284
25976	9.571020	-0.474729	2.393346	-0.045204	0.023228	0.064322	1.000000	0.000030	-0.000005	-0.000027	-11.835008	-75.951041	4.441829
25977	9.533778	-0.484627	2.354781	-0.018562	0.007035	0.019524	1.000000	0.000022	-0.000007	-0.000017	-11.823228	-75.952736	4.431939
25978	9.526645	-0.483410	2.423397	-0.086385	0.016629	0.028846	1.000000	0.000016	-0.000001	-0.000010	-11.814297	-75.953741	4.422179
25979	9.531528	-0.498069	2.267717	0.062571	-0.018589	-0.002673	1.000000	0.000027	-0.000016	-0.000014	-11.804411	-75.956378	4.409080
25980	9.526812	-0.482820	2.422858	-0.086554	0.016423	0.028844	1.000000	0.000024	-0.000027	-0.000000	-11.801198	-75.960059	4.406195
25981	9.576873	-0.445515	2.271064	0.075826	0.034177	0.039511	1.000000	0.000031	-0.000007	-0.000009	-11.791968	-75.961532	4.396338
25982	9.547199	-0.470493	2.337506	0.001294	0.017286	0.027740	1.000000	0.000028	-0.000018	0.000004	-11.789569	-75.964084	4.394772
25983	9.545643	-0.441990	2.284564	0.054942	0.038395	0.012250	1.000000	0.000054	-0.000020	0.000003	-11.784194	-75.966788	4.391835
25984	9.529011	-0.454100	2.335019	0.000698	0.032326	0.008694	1.000000	0.000030	0.000011	-0.000008	-11.773429	-75.966293	4.381851
25985	9.547313	-0.470083	2.337120	0.001033	0.016943	0.027740	1.000000	0.000039	-0.000016	0.000020	-11.776896	-75.968226	4.389159
25986	9.573505	-0.444461	2.304646	0.041516	0.038439	0.044175	1.000000	0.000016	-0.000001	-0.000010	-11.767951	-75.969229	4.379386
25987	9.556848	-0.456617	2.355200	-0.012721	0.032390	0.040617	1.000000	0.000037	0.000004	0.000003	-11.762266	-75.969238	4.373668
25988	9.560394	-0.456916	2.321018	0.021047	0.027386	0.035959	1.000000	0.000047	0.000008	0.000001	-11.753641	-75.968925	4.367906
25989	9.573436	-0.443866	2.305048	0.041244	0.038077	0.044177	1.000000	0.000038	0.000009	-0.000007	-11.742693	-75.968733	4.358713
25990	9.542017	-0.440623	2.319280	0.020440	0.042413	0.016915	1.000000	0.000023	0.000008	0.000021	-11.745830	-75.967950	4.362201
25991	9.551451	-0.427456	2.337706	0.006763	0.057976	0.029792	1.000000	0.000024	0.000017	-0.000000	-11.738587	-75.966768	4.356573
25992	9.560182	-0.456767	2.321919	0.020657	0.026891	0.035961	1.000000	0.000013	0.000009	0.000013	-11.739144	-75.966116	4.356292
25993	9.568936	-0.486318	2.305986	0.034544	-0.004201	0.042129	1.000000	0.000020	0.000001	0.000024	-11.744291	-75.966043	4.365616
25994	9.569576	-0.444048	2.340422	0.006894	0.042318	0.048839	1.000000	0.000000	0.000021	0.000009	-11.743529	-75.964079	4.362437
25995	9.546875	-0.470386	2.338848	0.000065	0.015698	0.027742	1.000000	0.000012	0.000023	0.000025	-11.748359	-75.961611	4.364488
25996	9.565769	-0.444261	2.375546	-0.027165	0.046951	0.053496	1.000000	0.000007	0.000014	0.000020	-11.752375	-75.960199	4.367067
25997	9.550268	-0.471588	2.305143	0.033737	0.010546	0.023087	1.000000	0.000007	0.000014	0.000020	-11.756144	-75.958785	4.368270
25998	9.557004	-0.529225	2.376351	-0.039982	-0.036832	0.049386	1.000000	-0.000009	0.000015	0.000030	-11.766254	-75.956980	4.375240
25999	9.546484	-0.472099	2.340100	-0.000314	0.015185	0.027743	1.000000	0.000019	0.000020	0.000025	-11.770684	-75.954771	4.373372
26000	9.529024	-0.527322	2.356620	-0.027029	-0.037495	0.017465	1.000000	0.000020	0.000001	0.000024	-11.776018	-75.954671	4.378847
26001	9.538465	-0.514357	2.374967	-0.040682	-0.021931	0.030341	1.000000	0.000025	0.000015	0.000018	-11.776794	-75.953165	4.378049
26002	9.556723	-0.530472	2.377206	-0.040372	-0.037328	0.049383	1.000000	0.000015	-0.000006	0.000001	-11.773079	-75.954405	4.373590
26003	9.551542	-0.501828	2.358792	-0.020579	-0.011395	0.038563	1.000000	0.000026	-0.000008	0.000027	-11.780066	-75.955313	4.386559
26004	9.566273	-0.517640	2.395085	-0.054127	-0.021892	0.062259	1.000000	0.000022	-0.000013	0.000012	-11.781130	-75.957103	4.387858
26005	9.560405	-0.531493	2.342357	-0.006791	-0.042621	0.044727	1.000000	0.000022	-0.000013	0.000012	-11.782011	-75.958839	4.394299
26006	9.532639	-0.528871	2.321923	0.006268	-0.043167	0.012807	1.000000	0.000026	-0.000004	0.000016	-11.783892	-75.959500	4.396920
26007	9.550954	-0.545164	2.323882	0.006577	-0.058560	0.031848	1.000000	0.000022	-0.000017	0.000022	-11.790342	-75.961499	4.401647
26008	9.573580	-0.519336	2.325696	0.013217	-0.032203	0.052949	1.000000	0.000017	-0.000003	0.000008	-11.789644	-75.962292	4.400500
26009	9.529171	-0.528855	2.355684	-0.027872	-0.038619	0.017458	1.000000	0.000009	-0.000022	-0.000001	-11.787568	-75.965296	4.397301
26010	9.564188	-0.532601	2.307060	0.026589	-0.048141	0.040071	1.000000	0.000025	-0.000006	0.000009	-11.786432	-75.966404	4.396610
26011	9.568521	-0.490534	2.306817	0.032843	-0.006495	0.042134	1.000000	0.000015	-0.000006	0.000001	-11.783147	-75.967562	4.387973
26012	9.560646	-0.532123	2.341233	-0.007455	-0.043464	0.044722	1.000000	0.000017	-0.000003	0.000008	-11.782448	-75.968355	4.386825
26013	9.577317	-0.519823	2.290714	0.046608	-0.037708	0.048296	1.000000	0.000018	0.000001	-0.000002	-11.776881	-75.968893	4.382259
26014	9.564929	-0.489845	2.341241	-0.001299	-0.001945	0.046786	1.000000	0.000022	0.000014	-0.000008	-11.766554	-75.968085	4.371820
26015	9.577977	-0.476955	2.325253	0.018918	0.008730	0.055013	1.000000	0.000019	0.000003	0.000006	-11.764199	-75.968127	4.362211
26016	9.537065	-0.486700	2.321314	0.011678	-0.002598	0.014868	1.000000	0.000038	0.000013	-0.000018	-11.747776	-75.967712	4.347379
26017	9.531765	-0.457598	2.303484	0.031498	0.023346	0.004056	1.000000	0.000023	0.000035	0.000001	-11.739921	-75.964292	4.340482
26018	9.587247	-0.462937	2.344533	0.005085	0.024068	0.067892	1.000000	0.000038	0.000009	-0.000007	-11.728723	-75.964112	4.330960
26019	9.531647	-0.457238	2.304045	0.031303	0.023106	0.004057	1.000000	0.000027	0.000000	0.000006	-11.725758	-75.964570	4.328825
26020	9.547041	-0.430167	2.374817	-0.029748	0.059314	0.034464	1.000000	0.000022	0.000010	0.000003	-11.720657	-75.963997	4.323697
26021	9.550609	-0.430631	2.340562	0.004006	0.054273	0.029815	1.000000	0.000008	-0.000003	0.000000	-11.717738	-75.964976	4.317210
26022	9.559370	-0.459948	2.324632	0.017850	0.023164	0.035976	1.000000	0.000031	0.000009	0.000011	-11.715219	-75.964271	4.315853
26023	9.524411	-0.456359	2.372952	-0.036791	0.032484	0.013357	1.000000	0.000022	-0.000017	0.000022	-11.721568	-75.966289	4.322688
26024	9.550656	-0.431222	2.340263	0.003728	0.053897	0.029817	1.000000	0.000004	-0.000018	0.000024	-11.730929	-75.968369	4.330369
26025	9.572531	-0.448083	2.307990	0.037879	0.033554	0.044207	1.000000	0.000013	0.000009	0.000013	-11.731529	-75.967701	4.326872
26026	9.546304	-0.473927	2.340464	-0.002831	0.011895	0.027747	1.000000	0.000030	0.000001	0.000032	-11.739453	-75.967469	4.336126
26027	9.549881	-0.474817	2.306085	0.030923	0.006827	0.023099	1.000000	0.000016	-0.000008	0.000019	-11.743976	-75.968525	4.340981
26028	9.546288	-0.474680	2.340378	-0.003025	0.011643	0.027747	1.000000	0.000030	0.000001	0.000032	-11.751900	-75.968293	4.350235
26029	9.536737	-0.488433	2.322296	0.010421	-0.004194	0.014869	1.000000	0.000022	0.000004	0.000031	-11.760182	-75.967767	4.361134
26030	9.569672	-0.520422	2.361004	-0.022766	-0.029935	0.057590	1.000000	0.000021	0.000001	0.000024	-11.765524	-75.967666	4.366617
26031	9.538223	-0.517389	2.375280	-0.043564	-0.025540	0.030320	1.000000	0.000028	0.000021	0.000015	-11.764320	-75.965581	4.366566
26032	9.554862	-0.505367	2.324890	0.010502	-0.019852	0.033906	1.000000	0.000024	-0.000011	0.000019	-11.768409	-75.966924	4.371185
26033	9.532970	-0.489043	2.357137	-0.023824	0.000252	0.019515	1.000000	0.000025	0.000015	0.000018	-11.769315	-75.965449	4.371766
26034	9.554757	-0.505827	2.325221	0.010311	-0.020106	0.033905	1.000000	0.000006	0.000011	0.000012	-11.770308	-75.964483	4.371027
26035	9.559866	-0.534883	2.343788	-0.009715	-0.046272	0.044708	1.000000	0.000015	0.000011	0.000020	-11.773868	-75.963361	4.375167
26036	9.569320	-0.521845	2.362116	-0.023354	-0.030687	0.057586	1.000000	0.000021	0.000006	0.000013	-11.773987	-75.963025	4.375344
26037	9.551021	-0.505932	2.360024	-0.023823	-0.015523	0.038550	1.000000	0.000009	-0.000000	0.000008	-11.773872	-75.963481	4.371282
26038	9.569268	-0.522005	2.362288	-0.023546	-0.030930	0.057585	1.000000	0.000022	0.000010	0.000003	-11.768770	-75.962909	4.366153
26039	9.528364	-0.531939	2.358252	-0.030782	-0.042227	0.017435	1.000000	0.000008	-0.000003	0.000000	-11.765682	-75.963766	4.358144
26040	9.550955	-0.505996	2.360278	-0.024102	-0.015888	0.038549	1.000000	0.000013	0.000009	0.000013	-11.766238	-75.963115	4.357863
26041	9.541390	-0.519452	2.342308	-0.010662	-0.031714	0.025669	1.000000	0.000013	0.000009	0.000013	-11.767096	-75.962450	4.356683
26042	9.550855	-0.506343	2.360610	-0.024294	-0.016125	0.038548	1.000000	0.000021	0.000006	0.000013	-11.767216	-75.962113	4.356860
26043	9.536178	-0.490852	2.324084	0.009109	-0.005926	0.014869	1.000000	0.000031	-0.000012	0.000002	-11.762807	-75.963881	4.352658
26044	9.519509	-0.502991	2.374531	-0.045153	-0.011827	0.011276	1.000000	0.000027	0.000000	0.000006	-11.759473	-75.964306	4.349980
26045	9.563968	-0.493612	2.344372	-0.004243	-0.005734	0.046783	1.000000	0.000029	0.000003	0.000014	-11.759455	-75.964243	4.351277
26046	9.532576	-0.490358	2.358457	-0.025021	-0.001318	0.019512	1.000000	0.000027	0.000000	0.000006	-11.756121	-75.964668	4.348599
26047	9.577080	-0.480969	2.328119	0.015898	0.004768	0.055021	1.000000	0.000030	-0.000016	0.000012	-11.757002	-75.966678	4.349085
26048	9.545729	-0.477657	2.342051	-0.004879	0.009185	0.027749	1.000000	0.000010	0.000004	-0.000003	-11.751519	-75.966921	4.342175
26049	9.527436	-0.461625	2.339967	-0.005330	0.024360	0.008716	1.000000	0.000029	0.000003	0.000014	-11.751573	-75.966866	4.340058
26050	9.558817	-0.464957	2.325908	0.015256	0.019687	0.035988	1.000000	0.000023	-0.000009	0.000001	-11.747421	-75.968420	4.336057
26051	9.558841	-0.464956	2.325811	0.015174	0.019570	0.035988	1.000000	0.000017	-0.000003	0.000008	-11.746960	-75.969138	4.333150
26052	9.540575	-0.449046	2.323595	0.014721	0.034729	0.016955	1.000000	0.000026	-0.000004	0.000016	-11.748848	-75.969798	4.335779
26053	9.577114	-0.481346	2.327904	0.015335	0.004040	0.055022	1.000000	0.000019	-0.000001	0.000016	-11.751385	-75.970176	4.341703
26054	9.571952	-0.452590	2.309508	0.035203	0.029933	0.044229	1.000000	0.000033	-0.000005	-0.000001	-11.744594	-75.971363	4.336168
26055	9.558836	-0.465382	2.325745	0.014790	0.019078	0.035990	1.000000	-0.000004	0.000008	0.000015	-11.748371	-75.970748	4.336578
26056	9.558797	-0.465714	2.325839	0.014696	0.018952	0.035990	1.000000	0.000021	0.000001	0.000024	-11.753716	-75.970646	4.342065
26057	9.545701	-0.478524	2.341987	-0.005724	0.008099	0.027750	1.000000	0.000014	-0.000008	-0.000007	-11.747110	-75.972347	4.335166
26058	9.558799	-0.465845	2.325806	0.014503	0.018703	0.035991	1.000000	0.000023	0.000008	0.000021	-11.750251	-75.971563	4.338660
26059	9.577004	-0.482200	2.328178	0.014764	0.003292	0.055023	1.000000	0.000015	0.000011	0.000020	-11.753912	-75.970448	4.339782
26060	9.555076	-0.465910	2.360565	-0.019530	0.023450	0.040631	1.000000	0.000015	0.000011	0.000020	-11.757488	-75.969349	4.342817
26061	9.573274	-0.482162	2.362980	-0.019277	0.008038	0.059662	1.000000	0.000024	0.000012	0.000010	-11.755451	-75.968350	4.343191
26062	9.545452	-0.479435	2.342816	-0.006200	0.007476	0.027750	1.000000	0.000027	0.000000	0.000006	-11.752118	-75.968775	4.340515
26063	9.545448	-0.479640	2.342791	-0.006284	0.007348	0.027750	1.000000	0.000018	-0.000005	0.000027	-11.759591	-75.969287	4.347824
26064	9.545408	-0.479971	2.342885	-0.006379	0.007222	0.027750	1.000000	-0.000002	0.000014	0.000012	-11.761016	-75.968005	4.346624
26065	9.546931	-0.508561	2.395690	-0.060304	-0.013919	0.043175	1.000000	0.000028	-0.000006	0.000035	-11.771161	-75.968502	4.363946
26066	9.532243	-0.493350	2.359178	-0.026903	-0.003754	0.019506	1.000000	0.000019	0.000003	0.000006	-11.768263	-75.968613	4.360811
26067	9.572360	-0.526178	2.329174	0.007547	-0.039460	0.052929	1.000000	0.000016	-0.000008	0.000019	-11.772817	-75.969619	4.366172
26068	9.535849	-0.494357	2.324689	0.006756	-0.009006	0.014869	1.000000	0.000016	-0.000008	0.000019	-11.777350	-75.970646	4.370341
26069	9.581898	-0.513431	2.347113	-0.006157	-0.023990	0.065810	1.000000	0.000019	-0.000001	0.000016	-11.779598	-75.970938	4.376980
26070	9.550526	-0.510281	2.361090	-0.026925	-0.019547	0.038535	1.000000	0.000034	-0.000007	0.000017	-11.781058	-75.971914	4.380076
26071	9.527933	-0.536410	2.358979	-0.033820	-0.046116	0.017407	1.000000	0.000030	-0.000016	0.000012	-11.781783	-75.973981	4.383281
26072	9.567240	-0.498344	2.310450	0.027060	-0.014080	0.042143	1.000000	0.000018	0.000022	0.000007	-11.777924	-75.971966	4.379007
26073	9.532239	-0.494571	2.358938	-0.027538	-0.004618	0.019504	1.000000	0.000024	-0.000011	0.000019	-11.782184	-75.973222	4.380417
26074	9.567212	-0.498623	2.310508	0.026881	-0.014329	0.042143	1.000000	0.000027	0.000000	0.000006	-11.778852	-75.973649	4.377743
26075	9.563599	-0.498108	2.344925	-0.007052	-0.009437	0.046779	1.000000	0.000021	0.000006	0.000013	-11.779116	-75.973261	4.378395
26076	9.548890	-0.482675	2.308555	0.026356	0.000715	0.023115	1.000000	0.000029	0.000007	0.000003	-11.773577	-75.973006	4.373725
26077	9.540898	-0.524113	2.343276	-0.014050	-0.036130	0.025649	1.000000	0.000019	0.000003	0.000006	-11.770756	-75.973095	4.375717
26078	9.567862	-0.456220	2.345085	-0.000866	0.031923	0.048880	1.000000	0.000015	0.000011	0.000020	-11.774331	-75.971995	4.378751
26079	9.545192	-0.482476	2.343253	-0.007753	0.005361	0.027750	1.000000	0.000026	-0.000004	0.000017	-11.776329	-75.972547	4.379233
26080	9.545187	-0.482407	2.343287	-0.007848	0.005235	0.027750	1.000000	0.000018	0.000005	-0.000013	-11.765184	-75.972872	4.367472
26081	9.545138	-0.482355	2.343498	-0.007933	0.005120	0.027750	1.000000	0.000025	0.000015	0.000018	-11.766339	-75.971344	4.365217
26082	9.554611	-0.469004	2.361835	-0.021541	0.020726	0.040633	1.000000	0.000018	0.000005	-0.000013	-11.755196	-75.971668	4.353457
26083	9.548669	-0.482845	2.309434	0.025736	-0.000152	0.023117	1.000000	0.000019	-0.000001	0.000016	-11.757630	-75.971917	4.352842
26084	9.571267	-0.457000	2.311478	0.032462	0.026159	0.044249	1.000000	0.000024	0.000012	0.000010	-11.755546	-75.970899	4.351027
26085	9.541421	-0.481869	2.378312	-0.042131	0.009657	0.032383	1.000000	0.000025	-0.000006	0.000009	-11.754505	-75.971952	4.349761
26086	9.558136	-0.469791	2.327736	0.011949	0.015205	0.036000	1.000000	0.000027	0.000000	0.000006	-11.751173	-75.972378	4.347088
26087	9.549398	-0.440636	2.343640	-0.001973	0.046112	0.029857	1.000000	0.000018	-0.000005	0.000027	-11.758805	-75.972896	4.353001
26088	9.554484	-0.469629	2.362221	-0.022072	0.019990	0.040633	1.000000	0.000018	0.000022	0.000007	-11.754946	-75.970880	4.348730
26089	9.544922	-0.483083	2.344228	-0.008650	0.004128	0.027750	1.000000	0.000024	-0.000011	0.000019	-11.759011	-75.972170	4.355291
26090	9.558044	-0.470525	2.327967	0.011589	0.014701	0.036001	1.000000	0.000019	0.000003	0.000006	-11.756113	-75.972281	4.352157
26091	9.571140	-0.457847	2.311835	0.031836	0.025274	0.044253	1.000000	0.000019	0.000003	0.000006	-11.753293	-75.972358	4.346634
26092	9.567518	-0.457321	2.346273	-0.002100	0.030188	0.048885	1.000000	0.000021	0.000006	0.000013	-11.753416	-75.972021	4.346815
26093	9.548458	-0.484150	2.310032	0.024834	-0.001417	0.023119	1.000000	0.000016	-0.000008	0.000019	-11.757873	-75.972941	4.347196
26094	9.544863	-0.483687	2.344342	-0.009102	0.003502	0.027750	1.000000	0.000019	0.000003	0.000006	-11.754976	-75.973052	4.344062
26095	9.544834	-0.484044	2.344388	-0.009189	0.003371	0.027750	1.000000	0.000022	-0.000000	0.000042	-11.768437	-75.972688	4.360950
26096	9.566636	-0.501050	2.312366	0.024877	-0.017100	0.042144	1.000000	0.000022	0.000010	0.000003	-11.763332	-75.972117	4.355820
26097	9.553463	-0.513919	2.328759	0.004453	-0.027921	0.033891	1.000000	0.000005	0.000007	0.000023	-11.769436	-75.971337	4.363049
26098	9.562955	-0.500931	2.346948	-0.009146	-0.012308	0.046774	1.000000	0.000019	-0.000001	0.000016	-11.771765	-75.971681	4.365226
26099	9.566501	-0.501775	2.312769	0.024606	-0.017485	0.042144	1.000000	0.000025	0.000015	0.000018	-11.772662	-75.970163	4.366685
26100	9.566431	-0.501979	2.313012	0.024510	-0.017613	0.042144	1.000000	0.000013	0.000009	0.000013	-11.773216	-75.969511	4.366404
26101	9.540125	-0.527480	2.345664	-0.016261	-0.039115	0.025634	1.000000	0.000024	0.000012	0.000010	-11.771126	-75.968480	4.366674
26102	9.556801	-0.515474	2.295286	0.037821	-0.033608	0.029260	1.000000	0.000019	0.000003	0.000006	-11.768230	-75.968591	4.363542
26103	9.536462	-0.526918	2.380252	-0.050295	-0.034305	0.030262	1.000000	0.000019	0.000003	0.000006	-11.765461	-75.968702	4.360649
26104	9.562685	-0.501625	2.347900	-0.009712	-0.013059	0.046773	1.000000	0.000029	0.000003	0.000014	-11.765152	-75.968681	4.361294
26105	9.549521	-0.514457	2.364248	-0.030155	-0.023866	0.038516	1.000000	0.000013	0.000009	0.000013	-11.765845	-75.968072	4.365695
26106	9.534867	-0.499171	2.327684	0.003273	-0.013748	0.014865	1.000000	0.000022	-0.000013	0.000012	-11.766933	-75.969861	4.367019
26107	9.553127	-0.515361	2.329821	0.003484	-0.029164	0.033887	1.000000	0.000029	0.000003	0.000014	-11.766875	-75.969882	4.369389
26108	9.562621	-0.502189	2.348041	-0.010112	-0.013548	0.046772	1.000000	0.000021	0.000006	0.000013	-11.766998	-75.969545	4.369571
26109	9.547947	-0.486828	2.311580	0.023320	-0.003425	0.023122	1.000000	0.000027	0.000000	0.000006	-11.763914	-75.969961	4.365750
26110	9.557438	-0.473553	2.329838	0.009727	0.012192	0.036007	1.000000	0.000024	0.000012	0.000010	-11.761830	-75.968943	4.363937
26111	9.544309	-0.486315	2.346052	-0.010702	0.001394	0.027749	1.000000	0.000030	-0.000016	0.000012	-11.762657	-75.971000	4.363797
26112	9.547925	-0.487066	2.311623	0.023041	-0.003799	0.023123	1.000000	0.000029	0.000003	0.000014	-11.762350	-75.970978	4.364444
26113	9.562542	-0.502418	2.348317	-0.010573	-0.014155	0.046770	1.000000	0.000003	0.000011	-0.000014	-11.752141	-75.970606	4.352260
26114	9.561008	-0.474269	2.295605	0.043204	0.006627	0.031382	1.000000	0.000034	-0.000007	0.000017	-11.753610	-75.971581	4.355367
26115	9.544281	-0.486383	2.346154	-0.011065	0.000903	0.027749	1.000000	0.000019	0.000003	0.000006	-11.750861	-75.971647	4.350046
26116	9.575633	-0.489798	2.332227	0.009490	-0.003852	0.055029	1.000000	0.000019	0.000003	0.000006	-11.747965	-75.971758	4.346914
26117	9.557373	-0.473730	2.330068	0.009089	0.011331	0.036009	1.000000	0.000027	0.000000	0.000006	-11.744835	-75.972187	4.343862
26118	9.566887	-0.460530	2.348215	-0.004497	0.026953	0.048894	1.000000	0.000011	0.000002	0.000016	-11.747598	-75.972216	4.345578
26119	9.557335	-0.473980	2.330173	0.008897	0.011083	0.036009	1.000000	0.000019	0.000003	0.000006	-11.744818	-75.972331	4.344187
26120	9.575557	-0.490120	2.332472	0.009104	-0.004346	0.055029	1.000000	0.000029	0.000003	0.000014	-11.744511	-75.972310	4.344834
26121	9.539029	-0.458133	2.328163	0.008400	0.026142	0.016990	1.000000	0.000013	0.000009	0.000013	-11.745287	-75.971693	4.344776
26122	9.534612	-0.500338	2.328480	0.001748	-0.015704	0.014862	1.000000	0.000022	-0.000013	0.000012	-11.746376	-75.973482	4.346101
26123	9.553662	-0.473917	2.364689	-0.025315	0.015678	0.040633	1.000000	0.000015	0.000011	0.000020	-11.750082	-75.972325	4.345845
26124	9.544076	-0.487473	2.346761	-0.011923	-0.000199	0.027748	1.000000	0.000021	0.000006	0.000013	-11.750206	-75.971988	4.346029
26125	9.530913	-0.500333	2.363078	-0.032369	-0.010983	0.019485	1.000000	0.000011	0.000002	0.000016	-11.753083	-75.972026	4.349623
26126	9.557142	-0.475331	2.330692	0.008233	0.010217	0.036011	1.000000	0.000013	0.000004	0.000023	-11.758866	-75.971607	4.354655
26127	9.575363	-0.491695	2.332938	0.008431	-0.005209	0.055030	1.000000	0.000026	-0.000004	0.000017	-11.760904	-75.972280	4.359042
26128	9.552672	-0.517861	2.331129	0.001471	-0.031749	0.033880	1.000000	0.000013	0.000009	0.000013	-11.761459	-75.971627	4.358762
26129	9.547553	-0.489351	2.312675	0.021434	-0.005905	0.023125	1.000000	0.000024	-0.000011	0.000019	-11.765683	-75.972947	4.363757
26130	9.575324	-0.492255	2.332978	0.008147	-0.005584	0.055030	1.000000	0.000012	0.000006	0.000005	-11.763218	-75.972744	4.360162
26131	9.543910	-0.488830	2.347154	-0.012595	-0.001056	0.027747	1.000000	0.000022	0.000010	0.000003	-11.758290	-75.972189	4.355816
26132	9.534339	-0.502190	2.329199	0.000793	-0.016936	0.014860	1.000000	0.000029	0.000003	0.000014	-11.757985	-75.972168	4.356466
26133	9.566523	-0.462944	2.349226	-0.005917	0.025112	0.048898	1.000000	0.000027	0.000000	0.000006	-11.754847	-75.972589	4.353114
26134	9.537919	-0.503010	2.294920	0.034435	-0.022280	0.010240	1.000000	0.000026	-0.000004	0.000017	-11.756752	-75.973249	4.355762
26135	9.549787	-0.475315	2.399715	-0.060296	0.019315	0.045253	1.000000	0.000018	-0.000005	0.000027	-11.764492	-75.973849	4.363756
26136	9.562076	-0.505669	2.349514	-0.012789	-0.016976	0.046763	1.000000	0.000029	0.000003	0.000014	-11.764188	-75.973828	4.364407
26137	9.575198	-0.493119	2.333315	0.007471	-0.006443	0.055030	1.000000	0.000044	-0.000003	0.000014	-11.763176	-75.974419	4.365375
26138	9.552528	-0.519285	2.331406	0.000500	-0.032977	0.033876	1.000000	0.000009	-0.000005	0.000019	-11.768150	-75.975128	4.369092
26139	9.530680	-0.502742	2.363506	-0.033716	-0.012679	0.019478	1.000000	0.000029	0.000003	0.000014	-11.768053	-75.975111	4.369602
26140	9.543795	-0.490325	2.347310	-0.013457	-0.002155	0.027745	1.000000	0.000028	-0.000001	0.000024	-11.772979	-75.975323	4.375568
26141	9.543790	-0.490530	2.347285	-0.013545	-0.002272	0.027745	1.000000	0.000017	-0.000003	0.000008	-11.772458	-75.976068	4.370106
26142	9.547388	-0.491370	2.312930	0.020191	-0.007513	0.023127	1.000000	0.000019	-0.000001	0.000016	-11.774794	-75.976412	4.372291
26143	9.534251	-0.504107	2.329144	-0.000259	-0.018277	0.014858	1.000000	0.000008	-0.000003	0.000000	-11.771677	-75.977322	4.368679
26144	9.560479	-0.478837	2.296862	0.040359	0.002883	0.031396	1.000000	0.000018	0.000022	0.000007	-11.767809	-75.975308	4.364400
26145	9.575021	-0.494253	2.333802	0.006713	-0.007427	0.055029	1.000000	0.000006	0.000016	0.000002	-11.763731	-75.974090	4.359927
26146	9.515814	-0.488154	2.327715	-0.000823	-0.003337	-0.004158	1.000000	0.000013	0.000009	0.000013	-11.764285	-75.973437	4.359647
26147	9.543547	-0.491001	2.348175	-0.014116	-0.003001	0.027744	1.000000	0.000019	0.000003	0.000006	-11.761621	-75.973557	4.355130
26148	9.556636	-0.478429	2.332131	0.006147	0.007512	0.036015	1.000000	0.000016	0.000015	0.000010	-11.759965	-75.972223	4.352852
26149	9.556584	-0.478610	2.332308	0.006058	0.007392	0.036015	1.000000	0.000011	0.000002	0.000016	-11.762876	-75.972212	4.353661
26150	9.530277	-0.504068	2.364850	-0.034756	-0.014007	0.019473	1.000000	0.000029	0.000003	0.000014	-11.762574	-75.972191	4.354314
26151	9.534670	-0.462136	2.364655	-0.028230	0.027586	0.021617	1.000000	0.000016	0.000015	0.000010	-11.761047	-75.970823	4.351702
26152	9.552847	-0.478336	2.367091	-0.028052	0.012150	0.040631	1.000000	0.000029	0.000003	0.000014	-11.760745	-75.970802	4.352356
26153	9.543319	-0.491635	2.348969	-0.014674	-0.003734	0.027743	1.000000	0.000014	-0.000008	-0.000007	-11.754180	-75.972465	4.344021
26154	9.530212	-0.504353	2.365050	-0.035131	-0.014491	0.019471	1.000000	0.000034	-0.000011	0.000028	-11.760890	-75.973673	4.352453
26155	9.534691	-0.462615	2.364475	-0.028599	0.027100	0.021617	1.000000	0.000024	-0.000011	0.000019	-11.765147	-75.974995	4.356825
26156	9.552971	-0.478818	2.366492	-0.028425	0.011663	0.040630	1.000000	0.000021	-0.000015	0.000004	-11.763229	-75.977233	4.354847
26157	9.543504	-0.492239	2.348091	-0.015049	-0.004224	0.027742	1.000000	0.000020	-0.000020	0.000015	-11.766650	-75.979676	4.359165
26158	9.538495	-0.463715	2.329245	0.004951	0.021591	0.017003	1.000000	0.000020	-0.000020	0.000015	-11.769964	-75.982146	4.362504
26159	9.561900	-0.508512	2.349618	-0.014967	-0.019783	0.046755	1.000000	0.000027	-0.000021	-0.000003	-11.764693	-75.985101	4.357103
26160	9.556906	-0.479907	2.330723	0.005036	0.006030	0.036016	1.000000	0.000019	-0.000024	0.000025	-11.773244	-75.987803	4.365763
26161	9.570124	-0.467471	2.314118	0.025311	0.016533	0.044291	1.000000	0.000021	-0.000015	0.000004	-11.771442	-75.989999	4.363962
26162	9.557023	-0.480285	2.330164	0.004852	0.005782	0.036016	1.000000	0.000026	-0.000008	0.000027	-11.778590	-75.990890	4.371939
26163	9.560647	-0.481264	2.295653	0.038596	0.000511	0.031404	1.000000	0.000022	-0.000013	0.000012	-11.779789	-75.992609	4.370276
26164	9.570227	-0.468129	2.313555	0.025039	0.016154	0.044292	1.000000	0.000016	-0.000008	0.000019	-11.784345	-75.993634	4.374468
26165	9.584834	-0.483800	2.350180	-0.008614	0.005870	0.067917	1.000000	0.000015	0.000011	0.000020	-11.788033	-75.992480	4.373066
26166	9.547478	-0.494712	2.311844	0.017951	-0.010487	0.023128	1.000000	0.000009	-0.000005	0.000019	-11.793015	-75.993188	4.376791
26167	9.557005	-0.481565	2.329972	0.004415	0.005162	0.036017	1.000000	0.000004	0.000009	0.000005	-11.791011	-75.992562	4.367651
26168	9.556939	-0.481713	2.330214	0.004320	0.005035	0.036017	1.000000	0.000025	0.000015	0.000018	-11.791942	-75.991096	4.369151
26169	9.540160	-0.493874	2.380909	-0.049963	-0.000535	0.032351	1.000000	0.000009	-0.000005	0.000019	-11.797003	-75.991754	4.373062
26170	9.547350	-0.495422	2.312223	0.017592	-0.010990	0.023128	1.000000	0.000018	0.000001	-0.000002	-11.791083	-75.992316	4.366612
26171	9.535712	-0.536035	2.381219	-0.056808	-0.042480	0.030194	1.000000	-0.000012	-0.000010	0.000005	-11.793156	-75.993908	4.363927
26172	9.548307	-0.452842	2.345759	-0.009747	0.035631	0.029896	1.000000	0.000020	-0.000020	0.000015	-11.796482	-75.996378	4.367277
26173	9.574381	-0.541310	2.298002	0.031288	-0.057780	0.048260	1.000000	0.000015	-0.000010	0.000011	-11.798007	-75.997687	4.360933
26174	9.583331	-0.457299	2.297104	0.044542	0.025492	0.052575	1.000000	0.000019	0.000003	0.000006	-11.795107	-75.997799	4.357800
26175	9.554646	-0.497258	2.243020	0.084802	-0.021973	0.013908	1.000000	0.000012	0.000010	-0.000005	-11.787474	-75.997332	4.349192
26176	9.611654	-0.530913	2.336574	0.004346	-0.041916	0.093046	1.000000	0.000028	-0.000006	0.000035	-11.797652	-75.997773	4.360495
26177	9.567681	-0.485067	2.227136	0.104993	-0.011629	0.022189	1.000000	0.000023	0.000035	0.000001	-11.789420	-75.994342	4.351497
26178	9.591715	-0.487188	2.282388	0.057870	-0.006114	0.058698	1.000000	0.000029	0.000024	0.000023	-11.791156	-75.991745	4.354311
26179	9.547071	-0.496556	2.313130	0.016791	-0.012117	0.023129	1.000000	0.000020	0.000024	0.000015	-11.790383	-75.989218	4.352667
26180	9.578305	-0.500182	2.299657	0.037313	-0.016965	0.050418	1.000000	0.000030	0.000028	0.000012	-11.786882	-75.986391	4.350161
26181	9.565862	-0.470142	2.350485	-0.010297	0.019201	0.048908	1.000000	0.000026	0.000040	0.000016	-11.784744	-75.982138	4.349609
26182	9.546622	-0.496928	2.314902	0.016500	-0.012492	0.023129	1.000000	0.000034	0.000016	0.000008	-11.780015	-75.980756	4.346261
26183	9.539290	-0.495452	2.384063	-0.051247	-0.002230	0.032345	1.000000	0.000005	0.000034	0.000003	-11.774972	-75.977464	4.337443
26184	9.524576	-0.480293	2.347841	-0.017758	0.007774	0.008728	1.000000	0.000048	0.000002	0.000030	-11.779859	-75.977176	4.345669
26185	9.552286	-0.483094	2.368391	-0.031070	0.008123	0.040626	1.000000	0.000015	0.000017	-0.000008	-11.770194	-75.976117	4.335993
26186	9.511354	-0.493011	2.364348	-0.038337	-0.003058	0.000445	1.000000	0.000014	-0.000014	0.000022	-11.776961	-75.977820	4.342186
26187	9.552309	-0.483304	2.368253	-0.031244	0.007881	0.040626	1.000000	0.000015	-0.000006	0.000001	-11.773353	-75.978968	4.333086
26188	9.565480	-0.470717	2.351924	-0.010959	0.018344	0.048909	1.000000	0.000017	-0.000003	0.000008	-11.772674	-75.979760	4.331961
26189	9.559556	-0.484994	2.299408	0.036203	-0.002769	0.031412	1.000000	0.000024	-0.000011	0.000019	-11.776836	-75.981118	4.340784
26190	9.552346	-0.483731	2.368018	-0.031533	0.007506	0.040625	1.000000	0.000038	0.000002	0.000022	-11.779131	-75.980964	4.345228
26191	9.555941	-0.484591	2.333705	0.002197	0.002184	0.036019	1.000000	0.000008	-0.000003	0.000000	-11.775991	-75.981857	4.338206
26192	9.550916	-0.455988	2.315015	0.022253	0.027963	0.025297	1.000000	0.000040	-0.000016	0.000020	-11.779272	-75.983829	4.343810
26193	9.575092	-0.458251	2.369567	-0.024859	0.033517	0.061800	1.000000	0.000021	0.000001	0.000024	-11.784745	-75.983669	4.345559
26194	9.546352	-0.498540	2.315669	0.015356	-0.013980	0.023128	1.000000	0.000030	0.000028	0.000012	-11.781245	-75.980842	4.343054
26195	9.570402	-0.500661	2.370751	-0.031759	-0.008419	0.059630	1.000000	0.000033	0.000012	0.000018	-11.781849	-75.979633	4.342656
26196	9.555713	-0.485595	2.334432	0.001738	0.001563	0.036019	1.000000	0.000035	0.000014	0.000026	-11.785373	-75.978032	4.347943
26197	9.552001	-0.485070	2.369133	-0.032168	0.006659	0.040623	1.000000	0.000028	0.000021	0.000015	-11.784178	-75.975844	4.344126
26198	9.548284	-0.484321	2.403891	-0.066081	0.011755	0.045227	1.000000	0.000044	0.000020	0.000005	-11.776813	-75.974098	4.339251
26199	9.547303	-0.527141	2.370404	-0.039095	-0.035278	0.038450	1.000000	0.000016	0.000015	0.000010	-11.775224	-75.972785	4.337195
26200	9.542227	-0.498643	2.351926	-0.019026	-0.009507	0.027732	1.000000	0.000024	-0.000011	0.000019	-11.779355	-75.974123	4.341859
26201	9.551767	-0.485502	2.369991	-0.032558	0.006168	0.040623	1.000000	0.000014	0.000009	0.000013	-11.780049	-75.973500	4.342672
26202	9.520380	-0.482161	2.383998	-0.053260	0.010797	0.013330	1.000000	0.000007	-0.000007	0.000011	-11.782012	-75.974656	4.343082
26203	9.532681	-0.512510	2.333732	-0.005876	-0.025670	0.014840	1.000000	0.000005	-0.000010	0.000003	-11.780989	-75.976168	4.336381
26204	9.551817	-0.485897	2.369706	-0.032828	0.005799	0.040622	1.000000	0.000007	-0.000007	0.000011	-11.782952	-75.977324	4.336791
26205	9.555447	-0.486910	2.335247	0.000898	0.000444	0.036019	1.000000	0.000016	-0.000008	0.000019	-11.787542	-75.978319	4.342440
26206	9.560515	-0.515707	2.353681	-0.019372	-0.025572	0.046734	1.000000	0.000015	-0.000006	0.000001	-11.783847	-75.979561	4.338003
26207	9.555475	-0.487011	2.335110	0.000700	0.000200	0.036019	1.000000	-0.000008	0.000003	-0.000000	-11.781651	-75.979891	4.333933
26208	9.555484	-0.487155	2.335045	0.000604	0.000074	0.036019	1.000000	0.000024	-0.000011	0.000019	-11.785786	-75.981230	4.338601
26209	9.555444	-0.487309	2.335174	0.000512	-0.000044	0.036019	1.000000	0.000018	0.000022	0.000007	-11.782085	-75.979192	4.331823
26210	9.568552	-0.474970	2.319084	0.020808	0.010390	0.044310	1.000000	0.000018	-0.000005	0.000027	-11.789663	-75.979765	4.339335
26211	9.523992	-0.484320	2.349383	-0.020277	0.004475	0.008725	1.000000	0.000014	0.000009	0.000013	-11.790342	-75.979089	4.340540
26212	9.578035	-0.462080	2.337345	0.007197	0.025942	0.057202	1.000000	0.000021	0.000006	0.000013	-11.790470	-75.978752	4.340731
26213	9.528940	-0.513331	2.368241	-0.040639	-0.021653	0.019436	1.000000	0.000014	0.000009	0.000013	-11.791087	-75.978027	4.337142
26214	9.573457	-0.504525	2.338015	0.000257	-0.015993	0.055022	1.000000	0.000016	-0.000008	0.000019	-11.795648	-75.979050	4.341341
26215	9.537046	-0.472465	2.333418	-0.000253	0.014540	0.017017	1.000000	0.000019	0.000003	0.000006	-11.792866	-75.979165	4.339903
26216	9.569819	-0.504071	2.372384	-0.033751	-0.010992	0.059621	1.000000	0.000021	0.000001	0.000024	-11.798228	-75.979058	4.345413
26217	9.542108	-0.501449	2.351813	-0.020635	-0.011589	0.027726	1.000000	0.000024	-0.000027	-0.000000	-11.795202	-75.982759	4.342101
26218	9.573557	-0.505059	2.337491	-0.000133	-0.016490	0.055021	1.000000	0.000024	-0.000011	0.000019	-11.799341	-75.984098	4.346774
26219	9.514475	-0.498899	2.330906	-0.007611	-0.012311	-0.004168	1.000000	0.000021	-0.000015	0.000004	-11.797539	-75.986341	4.348617
26220	9.577240	-0.506083	2.302800	0.033488	-0.021991	0.050422	1.000000	0.000019	-0.000001	0.000016	-11.799884	-75.986684	4.350813
26221	9.551843	-0.488544	2.369056	-0.034430	0.003723	0.040617	1.000000	0.000022	-0.000013	0.000012	-11.801104	-75.988425	4.351612
26222	9.577288	-0.506304	2.302550	0.033302	-0.022243	0.050422	1.000000	0.000008	-0.000003	0.000000	-11.797831	-75.989352	4.346703
26223	9.572259	-0.477715	2.283939	0.053404	0.003513	0.039716	1.000000	0.000027	-0.000004	0.000017	-11.799860	-75.989991	4.351432
26224	9.559055	-0.490495	2.300326	0.032912	-0.007163	0.031422	1.000000	-0.000002	0.000014	0.000012	-11.801254	-75.988706	4.350204
26225	9.568592	-0.477377	2.318427	0.019395	0.008521	0.044315	1.000000	0.000024	-0.000011	0.000020	-11.805551	-75.990069	4.355817
26226	9.559017	-0.490748	2.300431	0.032716	-0.007412	0.031422	1.000000	0.000023	0.000014	-0.000008	-11.795199	-75.989274	4.345361
26227	9.555355	-0.489902	2.334995	-0.001189	-0.002274	0.036019	1.000000	0.000014	0.000009	0.000013	-11.795832	-75.988599	4.347719
26228	9.550248	-0.461333	2.316709	0.018915	0.023474	0.025316	1.000000	0.000026	0.000019	0.000007	-11.791523	-75.986903	4.343899
26229	9.564759	-0.476684	2.353654	-0.014789	0.013288	0.048912	1.000000	0.000024	0.000012	0.000010	-11.789598	-75.985849	4.341752
26230	9.568303	-0.477528	2.319585	0.018927	0.007897	0.044316	1.000000	0.000014	0.000013	0.000002	-11.784911	-75.984967	4.336149
26231	9.545523	-0.503797	2.317947	0.011845	-0.018570	0.023126	1.000000	0.000022	-0.000000	0.000042	-11.798768	-75.984644	4.348790
26232	9.536841	-0.474639	2.333813	-0.001857	0.012443	0.017020	1.000000	0.000022	0.000010	0.000003	-11.793659	-75.984078	4.343661
26233	9.547738	-0.489113	2.405090	-0.069390	0.007531	0.045209	1.000000	0.000018	0.000022	0.000007	-11.789971	-75.982108	4.342525
26234	9.563564	-0.520374	2.320789	0.011742	-0.034273	0.042124	1.000000	0.000032	-0.000013	0.000020	-11.793692	-75.983763	4.347675
26235	9.554932	-0.491026	2.336492	-0.001969	-0.003250	0.036019	1.000000	0.000012	0.000006	0.000005	-11.791451	-75.983620	4.344249
26236	9.551305	-0.490321	2.370860	-0.035876	0.001897	0.040613	1.000000	0.000027	-0.000004	0.000017	-11.793377	-75.984280	4.346921
26237	9.551321	-0.490545	2.370746	-0.035958	0.001772	0.040612	1.000000	0.000024	-0.000011	0.000020	-11.797495	-75.985540	4.353324
26238	9.545385	-0.504972	2.318258	0.011167	-0.019439	0.023125	1.000000	0.000027	-0.000004	0.000017	-11.799421	-75.986200	4.355997
26239	9.541796	-0.504199	2.352490	-0.022748	-0.014280	0.027718	1.000000	0.000023	-0.000009	0.000001	-11.795543	-75.987805	4.353569
26240	9.558620	-0.492341	2.301738	0.031367	-0.009149	0.031425	1.000000	0.000014	-0.000008	-0.000007	-11.788830	-75.989499	4.345819
26241	9.551471	-0.490664	2.370119	-0.036350	0.001290	0.040611	1.000000	0.000028	-0.000023	0.000015	-11.791964	-75.992285	4.350250
26242	9.568256	-0.479087	2.319460	0.017766	0.006417	0.044319	1.000000	0.000016	0.000015	0.000010	-11.790295	-75.990953	4.347962
26243	9.564588	-0.478388	2.354005	-0.016141	0.011574	0.048912	1.000000	0.000021	0.000006	0.000013	-11.790511	-75.990621	4.349561
26244	9.554984	-0.491920	2.336091	-0.002829	-0.004364	0.036018	1.000000	0.000021	0.000006	0.000013	-11.790641	-75.990286	4.349754
26245	9.595856	-0.482247	2.340374	0.004267	0.006521	0.076210	1.000000	0.000016	0.000015	0.000010	-11.789047	-75.988883	4.345610
26246	9.559399	-0.450219	2.336003	0.003806	0.037064	0.038218	1.000000	0.000023	0.000008	0.000021	-11.792197	-75.988097	4.349120
26247	9.549778	-0.463892	2.318136	0.017117	0.021127	0.025324	1.000000	0.000023	0.000008	0.000021	-11.795416	-75.987313	4.353180
26248	9.555679	-0.449789	2.370698	-0.030191	0.042103	0.042810	1.000000	0.000022	0.000010	0.000003	-11.790307	-75.986748	4.348051
26249	9.549687	-0.464166	2.318458	0.016944	0.020875	0.025325	1.000000	0.000021	0.000001	0.000024	-11.795726	-75.986552	4.351123
26250	9.546020	-0.463559	2.352961	-0.016959	0.026042	0.029916	1.000000	0.000016	0.000015	0.000010	-11.794057	-75.985220	4.348836
26251	9.540013	-0.478023	2.300769	0.030157	0.004809	0.012432	1.000000	0.000021	0.000001	0.000024	-11.799496	-75.985111	4.356092
26252	9.545931	-0.464050	2.353224	-0.017149	0.025794	0.029917	1.000000	0.000021	0.000006	0.000013	-11.799627	-75.984775	4.356286
26253	9.571318	-0.481951	2.286989	0.050547	-0.000259	0.039732	1.000000	0.000019	0.000003	0.000006	-11.796824	-75.984896	4.352446
26254	9.554510	-0.493754	2.337643	-0.003764	-0.005607	0.036017	1.000000	0.000019	-0.000001	0.000016	-11.799174	-75.985240	4.354648
26255	9.526737	-0.491252	2.317313	0.009393	-0.006218	0.004128	1.000000	0.000011	0.000002	0.000016	-11.801805	-75.985115	4.355620
26256	9.599031	-0.485211	2.307405	0.037059	-0.000168	0.071622	1.000000	0.000017	-0.000003	0.000008	-11.801137	-75.985909	4.354506
26257	9.536244	-0.478098	2.335545	-0.004191	0.009351	0.017023	1.000000	0.000018	0.000022	0.000007	-11.797280	-75.983858	4.350978
26258	9.585738	-0.497999	2.324107	0.016465	-0.010936	0.063317	1.000000	0.000028	-0.000001	0.000024	-11.802229	-75.984067	4.356971
26259	9.554341	-0.494650	2.338143	-0.004204	-0.006242	0.036016	1.000000	0.000021	0.000006	0.000013	-11.802276	-75.983698	4.357867
26260	9.557893	-0.495698	2.304036	0.029506	-0.011675	0.031428	1.000000	0.000025	0.000015	0.000018	-11.803205	-75.982232	4.359370
26261	9.559179	-0.523678	2.357344	-0.024639	-0.032340	0.046702	1.000000	0.000028	0.000021	0.000015	-11.802027	-75.980099	4.359438
26262	9.585445	-0.498819	2.325138	0.016083	-0.011444	0.063317	1.000000	0.000025	0.000015	0.000018	-11.802955	-75.978633	4.360941
26263	9.544438	-0.508750	2.321330	0.008809	-0.022562	0.023120	1.000000	0.000031	0.000009	0.000011	-11.800450	-75.977915	4.361083
26264	9.553934	-0.495503	2.339625	-0.004683	-0.006867	0.036016	1.000000	0.000025	0.000015	0.000018	-11.801379	-75.976449	4.362586
26265	9.544328	-0.509046	2.321720	0.008619	-0.022812	0.023120	1.000000	0.000017	-0.000003	0.000009	-11.800771	-75.977216	4.360087
26266	9.540695	-0.508336	2.356062	-0.025282	-0.017622	0.027707	1.000000	0.000038	0.000002	0.000022	-11.803081	-75.977062	4.364548
26267	9.572042	-0.512108	2.342156	-0.004805	-0.022577	0.055008	1.000000	0.000037	-0.000000	0.000014	-11.802490	-75.977369	4.366514
26268	9.540661	-0.508542	2.356155	-0.025477	-0.017868	0.027706	1.000000	0.000027	0.000000	0.000006	-11.799185	-75.977800	4.363873
26269	9.553839	-0.496129	2.339879	-0.005157	-0.007487	0.036015	1.000000	0.000019	-0.000001	0.000016	-11.801578	-75.978119	4.366710
26270	9.537017	-0.508040	2.390498	-0.059470	-0.012794	0.032290	1.000000	0.000028	-0.000001	0.000024	-11.806528	-75.978328	4.372704
26271	9.566985	-0.483859	2.323706	0.015067	0.002768	0.044325	1.000000	0.000021	0.000012	-0.000016	-11.793309	-75.977966	4.356114
26272	9.553792	-0.496304	2.340035	-0.005443	-0.007858	0.036015	1.000000	0.000024	-0.000011	0.000020	-11.797461	-75.979305	4.360800
26273	9.535619	-0.480260	2.337655	-0.005699	0.007363	0.017023	1.000000	0.000010	0.000004	-0.000003	-11.792108	-75.979562	4.355642
26274	9.558365	-0.454299	2.339444	0.001231	0.033561	0.038231	1.000000	0.000027	0.000000	0.000006	-11.788803	-75.979994	4.353001
26275	9.522395	-0.492786	2.354089	-0.026321	-0.003383	0.008712	1.000000	0.000021	0.000006	0.000013	-11.789095	-75.979756	4.358897
26276	9.558304	-0.454523	2.339651	0.001022	0.033314	0.038232	1.000000	0.000021	0.000006	0.000013	-11.789227	-75.979420	4.359095
26277	9.550083	-0.495682	2.374662	-0.039740	-0.003144	0.040598	1.000000	0.000018	0.000001	-0.000002	-11.783415	-75.979956	4.352110
26278	9.576464	-0.470762	2.342042	0.000994	0.017723	0.057223	1.000000	0.000009	-0.000005	0.000019	-11.788407	-75.980661	4.355845
26279	9.545038	-0.467495	2.356164	-0.019672	0.022447	0.029920	1.000000	0.000019	0.000020	0.000025	-11.792836	-75.978429	4.361846
26280	9.539996	-0.439096	2.337704	0.000495	0.048160	0.019244	1.000000	0.000017	-0.000003	0.000009	-11.792171	-75.979223	4.360737
26281	9.563139	-0.483991	2.358742	-0.019700	0.006852	0.048910	1.000000	0.000014	0.000009	0.000013	-11.792691	-75.978521	4.362213
26282	9.563120	-0.484163	2.358783	-0.019795	0.006727	0.048910	1.000000	0.000034	-0.000007	0.000017	-11.794207	-75.979498	4.365372
26283	9.548583	-0.469040	2.322021	0.013766	0.016609	0.025338	1.000000	0.000025	-0.000006	0.000009	-11.793105	-75.980571	4.365182
26284	9.544976	-0.468210	2.356273	-0.020131	0.021820	0.029921	1.000000	0.000017	-0.000003	0.000009	-11.792441	-75.981365	4.364073
26285	9.548605	-0.469193	2.321899	0.013577	0.016361	0.025339	1.000000	0.000017	-0.000003	0.000009	-11.791908	-75.982155	4.362553
26286	9.581356	-0.500724	2.360792	-0.020022	-0.009114	0.067898	1.000000	0.000024	-0.000011	0.000020	-11.796064	-75.983493	4.367245
26287	9.558221	-0.455962	2.339710	0.000037	0.031940	0.038237	1.000000	0.000016	-0.000002	-0.000010	-11.787134	-75.984331	4.353092
26288	9.545051	-0.468577	2.355899	-0.020477	0.021329	0.029921	1.000000	0.000016	-0.000012	0.000030	-11.796950	-75.985581	4.362630
26289	9.540516	-0.511052	2.356199	-0.027452	-0.020456	0.027695	1.000000	0.000019	-0.000024	0.000025	-11.805577	-75.988201	4.371600
26290	9.571968	-0.514925	2.341840	-0.006984	-0.025444	0.054999	1.000000	0.000011	-0.000019	0.000007	-11.806339	-75.990803	4.371195
26291	9.575673	-0.515898	2.307135	0.026723	-0.030919	0.050419	1.000000	0.000018	-0.000022	0.000007	-11.806736	-75.993696	4.369317
26292	9.552588	-0.471287	2.285815	0.046763	0.010126	0.020761	1.000000	0.000005	-0.000014	0.000014	-11.810937	-75.995531	4.371751
26293	9.592562	-0.504712	2.256065	0.080756	-0.026049	0.054156	1.000000	0.000011	0.000002	0.000016	-11.813748	-75.995517	4.372763
26294	9.547964	-0.513898	2.286435	0.039674	-0.031788	0.018533	1.000000	0.000005	0.000007	0.000023	-11.819958	-75.994774	4.377331
26295	9.552497	-0.472017	2.286046	0.046477	0.009748	0.020763	1.000000	0.000024	0.000017	-0.000000	-11.812715	-75.993571	4.372110
26296	9.585148	-0.503311	2.325398	0.012860	-0.015716	0.063316	1.000000	0.000034	0.000016	0.000008	-11.807982	-75.992195	4.368765
26297	9.557283	-0.500740	2.305474	0.026008	-0.016334	0.031431	1.000000	0.000022	0.000027	0.000022	-11.810072	-75.989245	4.369905
26298	9.563087	-0.486535	2.358430	-0.021263	0.004738	0.048908	1.000000	0.000023	0.000035	0.000001	-11.801729	-75.985878	4.361586
26299	9.571523	-0.516195	2.343378	-0.007848	-0.026572	0.054996	1.000000	0.000022	0.000027	0.000022	-11.803879	-75.982966	4.363944
26300	9.544630	-0.470701	2.357180	-0.021590	0.019836	0.029922	1.000000	0.000018	0.000022	0.000007	-11.799985	-75.980956	4.359647
26301	9.512194	-0.510013	2.337801	-0.015356	-0.022434	-0.004195	1.000000	0.000014	0.000013	0.000002	-11.795290	-75.980032	4.351149
26302	9.549479	-0.499313	2.376332	-0.042064	-0.006230	0.040586	1.000000	0.000027	0.000000	0.000006	-11.791989	-75.980464	4.348513
26303	9.580832	-0.503082	2.362418	-0.021594	-0.011234	0.067892	1.000000	0.000011	0.000002	0.000016	-11.794780	-75.980441	4.350297
26304	9.534928	-0.484245	2.339648	-0.008581	0.003499	0.017024	1.000000	0.000014	-0.000008	-0.000007	-11.788082	-75.982137	4.342561
26305	9.539937	-0.512781	2.358167	-0.028956	-0.022441	0.027687	1.000000	0.000032	-0.000009	0.000009	-11.786567	-75.983461	4.342472
26306	9.551848	-0.472599	2.288637	0.045470	0.008337	0.020769	1.000000	0.000028	-0.000018	0.000005	-11.784273	-75.986018	4.341015
26307	9.526508	-0.454574	2.354630	-0.022331	0.034319	0.010938	1.000000	0.000021	-0.000015	0.000004	-11.782477	-75.988172	4.336723
26308	9.576090	-0.474385	2.342842	-0.001743	0.013956	0.057229	1.000000	0.000025	-0.000006	0.000009	-11.781397	-75.989283	4.336094
26309	9.548371	-0.471703	2.322354	0.011418	0.013339	0.025346	1.000000	0.000032	-0.000009	0.000009	-11.779927	-75.990625	4.334479
26310	9.557938	-0.458449	2.340379	-0.002043	0.029056	0.038245	1.000000	0.000023	0.000008	0.000021	-11.783080	-75.989837	4.337995
26311	9.597887	-0.491649	2.310802	0.031905	-0.007157	0.071638	1.000000	0.000031	-0.000007	-0.000009	-11.773312	-75.991494	4.330984
26312	9.548402	-0.471796	2.322207	0.011132	0.012959	0.025347	1.000000	0.000040	-0.000016	0.000020	-11.776641	-75.993466	4.336640
26313	9.579754	-0.475676	2.308265	0.031582	0.007942	0.052655	1.000000	0.000025	0.000015	0.000018	-11.777659	-75.992042	4.340045
26314	9.581028	-0.503541	2.361525	-0.022617	-0.012606	0.067888	1.000000	0.000041	0.000009	0.000019	-11.777757	-75.991211	4.342510
26315	9.566427	-0.488407	2.325052	0.010950	-0.002767	0.044331	1.000000	0.000022	0.000010	0.000003	-11.772717	-75.990707	4.338046
26316	9.494047	-0.494459	2.335231	-0.016886	-0.008943	-0.023184	1.000000	0.000034	0.000016	0.000008	-11.767989	-75.989331	4.334706
26317	9.531319	-0.483876	2.373799	-0.043590	0.007274	0.021597	1.000000	0.000011	0.000002	0.000016	-11.770839	-75.989368	4.337084
26318	9.539867	-0.513533	2.358288	-0.030204	-0.024049	0.027679	1.000000	0.000022	0.000010	0.000003	-11.765731	-75.988804	4.331959
26319	9.549396	-0.500238	2.376470	-0.043641	-0.008334	0.040578	1.000000	-0.000004	0.000008	0.000015	-11.769141	-75.988072	4.332948
26320	9.575748	-0.475663	2.343978	-0.002872	0.012443	0.057231	1.000000	0.000005	0.000007	0.000023	-11.775350	-75.987329	4.337516
26321	9.547982	-0.473075	2.323672	0.010277	0.011826	0.025349	1.000000	0.000025	-0.000002	-0.000002	-11.769107	-75.988218	4.332209
26322	9.572120	-0.474853	2.378292	-0.036857	0.017592	0.061804	1.000000	0.000007	-0.000007	0.000011	-11.771083	-75.989373	4.332633
26323	9.562555	-0.488405	2.360199	-0.023577	0.001618	0.048904	1.000000	0.000017	-0.000003	0.000009	-11.770353	-75.990076	4.331174
26324	9.544393	-0.472359	2.357807	-0.023786	0.016847	0.029922	1.000000	0.000009	-0.000000	0.000008	-11.770106	-75.990553	4.329588
26325	9.539429	-0.443864	2.339119	-0.003549	0.042521	0.019270	1.000000	0.000009	-0.000000	0.000008	-11.769843	-75.990968	4.327969
26326	9.544394	-0.472668	2.357742	-0.023966	0.016597	0.029922	1.000000	0.000016	-0.000008	0.000019	-11.774424	-75.991989	4.332189
26327	9.575759	-0.476499	2.343764	-0.003509	0.011565	0.057232	1.000000	0.000020	0.000003	0.000006	-11.771645	-75.992074	4.328246
26328	9.534785	-0.486428	2.339779	-0.010794	0.000501	0.017022	1.000000	0.000021	0.000001	0.000024	-11.777023	-75.991965	4.333775
26329	9.575737	-0.476881	2.343779	-0.003693	0.011311	0.057232	1.000000	0.000033	-0.000009	0.000009	-11.775485	-75.993358	4.330223
26330	9.552950	-0.502957	2.342053	-0.010871	-0.015106	0.036002	1.000000	0.000021	0.000001	0.000024	-11.780863	-75.993249	4.335752
26331	9.538388	-0.488126	2.305383	0.022730	-0.005289	0.012451	1.000000	0.000028	-0.000001	0.000024	-11.785869	-75.993384	4.339683
26332	9.580662	-0.506285	2.362424	-0.024300	-0.014857	0.067881	1.000000	0.000027	-0.000004	0.000017	-11.787813	-75.994043	4.342376
26333	9.556534	-0.504743	2.307707	0.022644	-0.020897	0.031431	1.000000	0.000019	-0.000001	0.000016	-11.790218	-75.994372	4.343393
26334	9.569755	-0.492360	2.291310	0.042987	-0.010591	0.039762	1.000000	0.000023	-0.000009	0.000001	-11.786122	-75.995935	4.339452
26335	9.566152	-0.491560	2.325519	0.009106	-0.005295	0.044332	1.000000	0.000018	-0.000005	0.000027	-11.793764	-75.996470	4.346342
26336	9.542022	-0.489866	2.270843	0.056049	-0.011345	0.007883	1.000000	0.000018	0.000005	-0.000013	-11.782610	-75.996810	4.334577
26337	9.534747	-0.487957	2.339617	-0.011620	-0.000624	0.017021	1.000000	0.000005	0.000007	0.000023	-11.788736	-75.996028	4.338780
26338	9.579291	-0.479349	2.309427	0.029266	0.004750	0.052664	1.000000	0.000018	0.000001	-0.000002	-11.782828	-75.996594	4.332346
26339	9.569673	-0.492705	2.291578	0.042539	-0.011233	0.039763	1.000000	0.000014	0.000013	0.000002	-11.778151	-75.995593	4.324765
26340	9.547829	-0.475610	2.323782	0.008557	0.009428	0.025354	1.000000	0.000024	0.000012	0.000010	-11.776060	-75.994578	4.322955
26341	9.592338	-0.466948	2.293763	0.049448	0.014795	0.060999	1.000000	0.000024	0.000012	0.000010	-11.774012	-75.993539	4.320499
26342	9.565833	-0.491856	2.326767	0.008465	-0.006181	0.044332	1.000000	0.000009	0.000022	-0.000001	-11.767506	-75.991663	4.312400
26343	9.578947	-0.479545	2.310812	0.028809	0.004115	0.052666	1.000000	0.000035	0.000014	0.000026	-11.771021	-75.990086	4.320364
26344	9.547482	-0.475919	2.325146	0.008176	0.008924	0.025355	1.000000	0.000027	0.000023	-0.000003	-11.761464	-75.988166	4.311220
26345	9.552329	-0.504530	2.344246	-0.012265	-0.016985	0.035997	1.000000	0.000025	0.000015	0.000018	-11.762347	-75.986666	4.310605
26346	9.543657	-0.475138	2.360225	-0.025796	0.014110	0.029921	1.000000	0.000028	0.000021	0.000015	-11.761055	-75.984521	4.310105
26347	9.571303	-0.477974	2.380952	-0.039117	0.014489	0.061800	1.000000	0.000024	0.000012	0.000010	-11.758968	-75.983362	4.305979
26348	9.539873	-0.474335	2.395127	-0.059748	0.019308	0.034488	1.000000	0.000031	0.000009	0.000011	-11.756467	-75.982664	4.304655
26349	9.523014	-0.485934	2.445793	-0.114046	0.014222	0.030717	1.000000	0.000024	-0.000011	0.000020	-11.760606	-75.983823	4.306750
26350	9.530333	-0.488033	2.376901	-0.046567	0.003202	0.021585	1.000000	0.000028	-0.000018	0.000005	-11.758322	-75.986380	4.305303
26351	9.552218	-0.505157	2.344560	-0.012794	-0.017733	0.035995	1.000000	0.000034	-0.000028	0.000008	-11.757899	-75.989965	4.310705
26352	9.595614	-0.468793	2.260739	0.082239	0.007931	0.056440	1.000000	0.000024	-0.000027	-0.000000	-11.754819	-75.993651	4.307951
26353	9.580153	-0.507793	2.364164	-0.026239	-0.017479	0.067872	1.000000	0.000017	-0.000003	0.000009	-11.754203	-75.994433	4.304836
26354	9.564358	-0.465248	2.274179	0.061518	0.012620	0.029129	1.000000	0.000037	-0.000023	0.000023	-11.759772	-75.997083	4.312519
26355	9.578916	-0.480478	2.310744	0.027734	0.002580	0.052669	1.000000	0.000037	0.000004	0.000003	-11.753707	-75.997074	4.305814
26356	9.529633	-0.531217	2.341983	-0.020376	-0.044636	0.014753	1.000000	0.000016	0.000015	0.000010	-11.752030	-75.995741	4.303523
26357	9.547421	-0.476760	2.325223	0.007013	0.007284	0.025357	1.000000	0.000024	0.000017	-0.000000	-11.744783	-75.994491	4.298363
26358	9.534124	-0.489242	2.341883	-0.013532	-0.003248	0.017018	1.000000	0.000025	0.000015	0.000018	-11.745715	-75.993025	4.299874
26359	9.574997	-0.479574	2.346248	-0.006435	0.007536	0.057234	1.000000	0.000024	0.000017	-0.000000	-11.738404	-75.991800	4.294366
26360	9.565344	-0.493048	2.328524	0.006803	-0.008457	0.044331	1.000000	0.000014	0.000009	0.000013	-11.738954	-75.991145	4.294088
26361	9.558016	-0.491216	2.397408	-0.060862	0.002346	0.053457	1.000000	0.000025	0.000015	0.000018	-11.739902	-75.989676	4.294560
26362	9.551978	-0.505736	2.345413	-0.013840	-0.019112	0.035991	1.000000	-0.000003	0.000016	-0.000006	-11.733016	-75.988611	4.284674
26363	9.543341	-0.476143	2.361302	-0.027347	0.011997	0.029920	1.000000	0.000016	0.000015	0.000010	-11.731411	-75.987289	4.283068
26364	9.533687	-0.489734	2.343562	-0.014110	-0.003996	0.017017	1.000000	0.000014	0.000009	0.000013	-11.731962	-75.986635	4.282791
26365	9.530036	-0.488947	2.377905	-0.047992	0.001348	0.021579	1.000000	0.000016	-0.000008	0.000019	-11.736568	-75.987669	4.288638
26366	9.537350	-0.491175	2.309023	0.019481	-0.009717	0.012455	1.000000	0.000011	-0.000019	0.000007	-11.737336	-75.990269	4.288238
26367	9.571087	-0.479550	2.381505	-0.041005	0.011998	0.061796	1.000000	0.000027	-0.000004	0.000017	-11.739233	-75.991032	4.293943
26368	9.551915	-0.506463	2.345513	-0.014439	-0.019866	0.035989	1.000000	0.000025	-0.000002	-0.000002	-11.732915	-75.991915	4.287995
26369	9.556615	-0.464475	2.344588	-0.007466	0.021642	0.038262	1.000000	0.000012	-0.000017	0.000014	-11.736706	-75.993966	4.290455
26370	9.533866	-0.490554	2.342659	-0.014686	-0.004751	0.017016	1.000000	0.000040	-0.000016	0.000020	-11.740053	-75.995938	4.296130
26371	9.578502	-0.482093	2.312126	0.026203	0.000540	0.052674	1.000000	0.000032	-0.000013	0.000020	-11.743640	-75.997565	4.300612
26372	9.547154	-0.478466	2.325969	0.005583	0.005385	0.025359	1.000000	0.000027	0.000000	0.000006	-11.740341	-75.997997	4.297981
26373	9.574890	-0.481263	2.346341	-0.007771	0.005761	0.057234	1.000000	0.000027	-0.000004	0.000017	-11.742214	-75.998655	4.302317
26374	9.569956	-0.452798	2.327605	0.012522	0.031394	0.046607	1.000000	0.000020	0.000003	0.000006	-11.739328	-75.998770	4.299203
26375	9.538807	-0.519798	2.361203	-0.035544	-0.031143	0.027641	1.000000	0.000023	0.000008	0.000021	-11.742569	-75.997964	4.304443
26376	9.533827	-0.491465	2.342628	-0.015251	-0.005510	0.017014	1.000000	0.000014	0.000009	0.000013	-11.743118	-75.997310	4.304165
26377	9.568790	-0.496612	2.294418	0.038959	-0.016094	0.039771	1.000000	0.000028	-0.000006	0.000035	-11.753438	-75.997735	4.314425
26378	9.543356	-0.478626	2.360737	-0.028766	0.010118	0.029918	1.000000	0.000014	0.000013	0.000002	-11.748739	-75.996855	4.308816
26379	9.568717	-0.496812	2.294678	0.038771	-0.016358	0.039772	1.000000	0.000010	0.000004	-0.000003	-11.743067	-75.997075	4.300437
26380	9.551862	-0.508171	2.345361	-0.015565	-0.021381	0.035984	1.000000	0.000017	-0.000003	0.000009	-11.742408	-75.997868	4.299335
26381	9.578292	-0.483474	2.312707	0.025248	-0.000736	0.052676	1.000000	0.000021	0.000006	0.000013	-11.742593	-75.997573	4.301338
26382	9.546869	-0.479740	2.326878	0.004633	0.004121	0.025360	1.000000	0.000024	0.000017	-0.000000	-11.735256	-75.996332	4.294201
26383	9.555377	-0.509508	2.311449	0.017940	-0.027253	0.031425	1.000000	0.000018	-0.000005	0.000027	-11.742772	-75.996781	4.299806
26384	9.546805	-0.480082	2.327071	0.004463	0.003866	0.025360	1.000000	0.000022	0.000010	0.000003	-11.737661	-75.996218	4.294682
26385	9.546737	-0.480168	2.327329	0.004342	0.003741	0.025360	1.000000	0.000025	0.000015	0.000018	-11.738667	-75.994905	4.299284
26386	9.559894	-0.467969	2.311221	0.024706	0.013994	0.033709	1.000000	0.000014	0.000009	0.000013	-11.739216	-75.994251	4.299007
26387	9.515221	-0.476726	2.341809	-0.016361	0.008487	-0.001957	1.000000	0.000018	0.000022	0.000007	-11.735501	-75.992211	4.293114
26388	9.561019	-0.495689	2.364897	-0.029664	-0.006499	0.048885	1.000000	0.000021	0.000006	0.000013	-11.735639	-75.991874	4.293321
26389	9.556031	-0.467283	2.346411	-0.009350	0.019123	0.038266	1.000000	0.000028	0.000021	0.000015	-11.734360	-75.989716	4.291090
26390	9.542737	-0.479925	2.362978	-0.029907	0.008623	0.029916	1.000000	0.000028	-0.000001	0.000024	-11.739331	-75.989924	4.297110
26391	9.555948	-0.467700	2.346667	-0.009521	0.018877	0.038266	1.000000	0.000020	0.000003	0.000006	-11.736540	-75.989933	4.291791
26392	9.551237	-0.509789	2.347554	-0.016713	-0.022872	0.035979	1.000000	0.000029	0.000003	0.000014	-11.736266	-75.989914	4.292484
26393	9.519810	-0.506312	2.361660	-0.037325	-0.017998	0.008660	1.000000	0.000017	0.000013	0.000028	-11.742877	-75.988367	4.300395
26394	9.560765	-0.496882	2.365675	-0.030222	-0.007241	0.048883	1.000000	0.000038	-0.000019	0.000013	-11.743213	-75.990791	4.302764
26395	9.533052	-0.494289	2.345188	-0.017054	-0.007876	0.017010	1.000000	0.000021	0.000006	0.000013	-11.743378	-75.990462	4.304498
26396	9.546258	-0.482085	2.328899	0.003315	0.002367	0.025361	1.000000	0.000019	-0.000001	0.000016	-11.745742	-75.990804	4.306718
26397	9.546253	-0.482293	2.328875	0.003233	0.002241	0.025361	1.000000	0.000027	-0.000004	0.000017	-11.747671	-75.991383	4.308612
26398	9.533030	-0.494923	2.345140	-0.017328	-0.008252	0.017009	1.000000	0.000016	-0.000008	0.000019	-11.752263	-75.992402	4.312844
26399	9.541583	-0.524565	2.329533	-0.004060	-0.039632	0.023070	1.000000	0.000016	-0.000002	-0.000010	-11.743341	-75.993381	4.302605
26400	9.569104	-0.456747	2.330335	0.010109	0.028111	0.046620	1.000000	0.000021	0.000001	0.000024	-11.748727	-75.993270	4.308144
26401	9.532999	-0.495254	2.345198	-0.017590	-0.008623	0.017008	1.000000	0.000014	0.000009	0.000013	-11.749332	-75.992509	4.307281
26402	9.587114	-0.473416	2.333167	0.009981	0.012488	0.065587	1.000000	0.000010	0.000021	0.000017	-11.751084	-75.990408	4.307823
26403	9.564178	-0.499477	2.331941	0.002737	-0.013880	0.044327	1.000000	0.000008	0.000018	0.000009	-11.749946	-75.988695	4.304812
26404	9.583271	-0.472820	2.368229	-0.023975	0.017766	0.070139	1.000000	-0.000008	0.000020	0.000019	-11.754746	-75.986635	4.306395
26405	9.545831	-0.483763	2.330301	0.002538	0.001238	0.025362	1.000000	0.000001	0.000025	-0.000002	-11.748504	-75.984252	4.296015
26406	9.560211	-0.498862	2.367495	-0.031294	-0.008732	0.048878	1.000000	-0.000009	0.000022	0.000001	-11.745043	-75.982418	4.288956
26407	9.561195	-0.455948	2.401264	-0.058039	0.038309	0.055726	1.000000	-0.000004	0.000008	0.000015	-11.748943	-75.981803	4.287572
26408	9.523809	-0.466860	2.363129	-0.031559	0.021782	0.010948	1.000000	0.000007	0.000016	0.000002	-11.744662	-75.980605	4.281485
26409	9.561023	-0.456153	2.401911	-0.058243	0.038065	0.055725	1.000000	0.000003	0.000028	0.000006	-11.741742	-75.978048	4.278284
26410	9.551377	-0.469679	2.384140	-0.045034	0.022052	0.042819	1.000000	0.000033	-0.000009	0.000009	-11.740269	-75.979477	4.278160
26411	9.533297	-0.453569	2.381493	-0.045156	0.037297	0.023855	1.000000	0.000030	-0.000016	0.000012	-11.740894	-75.981546	4.281373
26412	9.546651	-0.441308	2.364659	-0.024779	0.047524	0.032211	1.000000	0.000048	-0.000038	0.000020	-11.744866	-75.985961	4.288740
26413	9.514375	-0.480704	2.344432	-0.018737	0.005275	-0.001959	1.000000	0.000066	-0.000037	0.000018	-11.745961	-75.990320	4.297394
26414	9.514552	-0.480864	2.343683	-0.018832	0.005150	-0.001959	1.000000	0.000063	-0.000048	0.000031	-11.754371	-75.995596	4.311074
26415	9.563011	-0.473640	2.278108	0.055821	0.004802	0.029170	1.000000	0.000067	-0.000060	0.000027	-11.761475	-76.002325	4.327005
26416	9.554920	-0.514587	2.312210	0.014813	-0.031401	0.031418	1.000000	0.000066	-0.000058	0.000009	-11.760427	-76.009275	4.331231
26417	9.575598	-0.504626	2.226367	0.102749	-0.032263	0.030678	1.000000	0.000069	-0.000037	0.000044	-11.772721	-76.012893	4.350020
26418	9.581734	-0.490412	2.277912	0.055577	-0.010958	0.048135	1.000000	0.000046	-0.000045	0.000023	-11.778959	-76.017985	4.359440
26419	9.584388	-0.534954	2.209512	0.115876	-0.063798	0.036735	1.000000	0.000054	-0.000026	0.000032	-11.786712	-76.020866	4.371234
26420	9.621791	-0.524388	2.247564	0.089205	-0.047523	0.081512	1.000000	0.000025	-0.000006	0.000009	-11.785651	-76.021977	4.370628
26421	9.571172	-0.547737	2.225707	0.095202	-0.074410	0.028376	1.000000	0.000008	0.000014	0.000020	-11.789467	-76.020582	4.374257
26422	9.598815	-0.550532	2.246470	0.081830	-0.074026	0.060245	1.000000	-0.000008	0.000026	-0.000010	-11.780717	-76.018526	4.361826
26423	9.562354	-0.518274	2.242486	0.081684	-0.043393	0.022321	1.000000	-0.000033	0.000070	0.000010	-11.779541	-76.011018	4.354939
26424	9.548806	-0.530884	2.260117	0.061112	-0.053864	0.013961	1.000000	-0.000027	0.000065	0.000003	-11.774806	-76.004300	4.344474
26425	9.544871	-0.529615	2.295741	0.027243	-0.048436	0.018508	1.000000	-0.000017	0.000075	-0.000029	-11.753982	-75.997228	4.320853
26426	9.540895	-0.528179	2.331534	-0.006627	-0.043009	0.023054	1.000000	-0.000021	0.000082	-0.000014	-11.739568	-75.988930	4.301056
26427	9.551190	-0.471374	2.384553	-0.046632	0.019929	0.042816	1.000000	-0.000019	0.000089	-0.000017	-11.722951	-75.979923	4.278286
26428	9.525354	-0.452797	2.452412	-0.114292	0.046300	0.032947	1.000000	-0.000009	0.000088	-0.000009	-11.708965	-75.970810	4.260327
26429	9.533511	-0.482294	2.438387	-0.101084	0.014901	0.038999	1.000000	-0.000000	0.000067	-0.000010	-11.695659	-75.964217	4.246568
26430	9.516169	-0.422749	2.470523	-0.127810	0.077330	0.026893	1.000000	0.000011	0.000052	-0.000013	-11.680699	-75.959311	4.229980
26431	9.512281	-0.421281	2.505761	-0.161662	0.082776	0.031439	1.000000	0.000034	0.000043	-0.000012	-11.664569	-75.955296	4.214248
26432	9.530240	-0.437262	2.508879	-0.161735	0.067277	0.050398	1.000000	0.000046	0.000022	0.000013	-11.660253	-75.953110	4.212736
26433	9.492955	-0.448193	2.470420	-0.135261	0.050742	0.005621	1.000000	0.000050	-0.000036	0.000027	-11.667187	-75.957085	4.224193
26434	9.502714	-0.434899	2.487694	-0.148647	0.066520	0.018529	1.000000	0.000056	-0.000041	0.000020	-11.670733	-75.961820	4.232029
26435	9.506619	-0.436203	2.452410	-0.114954	0.060831	0.013984	1.000000	0.000064	-0.000067	0.000030	-11.680028	-75.969142	4.246988
26436	9.528718	-0.453845	2.419242	-0.081261	0.039761	0.028399	1.000000	0.000052	-0.000077	0.000035	-11.694292	-75.977584	4.265367
26437	9.506238	-0.480172	2.416116	-0.088530	0.013411	0.007125	1.000000	0.000047	-0.000090	0.000041	-11.712973	-75.987306	4.286675
26438	9.567049	-0.504258	2.300002	0.033191	-0.023861	0.039777	1.000000	0.000046	-0.000095	0.000052	-11.736992	-75.997324	4.314462
26439	9.549309	-0.488598	2.295861	0.033087	-0.008603	0.020818	1.000000	0.000038	-0.000086	0.000023	-11.748002	-76.006993	4.327486
26440	9.579925	-0.536017	2.246905	0.080072	-0.060971	0.041283	1.000000	0.000039	-0.000087	0.000041	-11.767237	-76.016465	4.349510
26441	9.611586	-0.540215	2.231601	0.100471	-0.066162	0.068608	1.000000	0.000030	-0.000060	0.000013	-11.772386	-76.023439	4.352759
26442	9.605790	-0.555110	2.178419	0.147428	-0.087774	0.051156	1.000000	0.000013	-0.000040	0.000024	-11.782510	-76.027935	4.362264
26443	9.602256	-0.554135	2.212315	0.113564	-0.082323	0.055699	1.000000	0.000015	-0.000006	0.000001	-11.778902	-76.029160	4.358259
26444	9.628715	-0.529377	2.179649	0.154429	-0.061814	0.072433	1.000000	-0.000003	0.000016	-0.000006	-11.771970	-76.028099	4.348328
26445	9.597221	-0.525385	2.194224	0.133843	-0.056879	0.045109	1.000000	-0.000007	0.000051	-0.000011	-11.759987	-76.023235	4.333754
26446	9.589733	-0.522712	2.263978	0.066209	-0.045843	0.054192	1.000000	0.000006	0.000066	-0.000028	-11.737831	-76.017116	4.309207
26447	9.571293	-0.506237	2.262954	0.066135	-0.030586	0.035235	1.000000	-0.000019	0.000085	-0.000006	-11.726465	-76.008187	4.290413
26448	9.591213	-0.435941	2.333972	0.012903	0.048287	0.067917	1.000000	-0.000024	0.000099	-0.000020	-11.707981	-75.998215	4.266081
26449	9.563091	-0.432897	2.315275	0.026097	0.047645	0.036051	1.000000	-0.000005	0.000081	-0.000024	-11.687645	-75.990284	4.240676
26450	9.510812	-0.439088	2.415673	-0.082501	0.053462	0.009439	1.000000	-0.000021	0.000076	0.000015	-11.686767	-75.981981	4.234880
26451	9.533339	-0.413493	2.418492	-0.075370	0.079559	0.030718	1.000000	-0.000003	0.000056	0.000004	-11.680827	-75.976108	4.225646
26452	9.516195	-0.424938	2.470047	-0.129715	0.074721	0.026889	1.000000	-0.000001	0.000036	0.000021	-11.684197	-75.972240	4.226526
26453	9.501596	-0.410331	2.433736	-0.096035	0.084392	0.003393	1.000000	0.000017	0.000013	0.000028	-11.690830	-75.970657	4.233144
26454	9.496824	-0.452812	2.434664	-0.103337	0.042668	0.001068	1.000000	0.000016	-0.000012	0.000030	-11.700663	-75.971901	4.242700
26455	9.511336	-0.468329	2.471142	-0.137204	0.032764	0.024563	1.000000	0.000056	-0.000024	0.000040	-11.711467	-75.974311	4.256840
26456	9.509237	-0.484384	2.383768	-0.056489	0.005531	0.002573	1.000000	0.000045	-0.000066	0.000014	-11.715693	-75.981982	4.264116
26457	9.555288	-0.503422	2.405733	-0.069866	-0.009450	0.053393	1.000000	0.000050	-0.000036	0.000027	-11.722825	-75.985903	4.274247
26458	9.554297	-0.476401	2.351632	-0.015701	0.010512	0.038270	1.000000	0.000047	-0.000068	0.000032	-11.735334	-75.993345	4.290189
26459	9.581174	-0.522459	2.337518	-0.002516	-0.036296	0.063270	1.000000	0.000067	-0.000056	0.000016	-11.737341	-75.999715	4.293905
26460	9.579052	-0.538401	2.250055	0.078188	-0.063556	0.041282	1.000000	0.000046	-0.000045	0.000023	-11.743586	-76.004807	4.303331
26461	9.563473	-0.506532	2.333310	-0.002684	-0.021160	0.044314	1.000000	0.000044	-0.000047	0.000015	-11.746816	-76.010253	4.309302
26462	9.605894	-0.514015	2.215770	0.118990	-0.043218	0.058027	1.000000	0.000043	-0.000028	0.000016	-11.749011	-76.013673	4.314211
26463	9.580624	-0.495448	2.281491	0.051411	-0.016738	0.048149	1.000000	0.000027	-0.000021	-0.000003	-11.743525	-76.016491	4.308077
26464	9.556549	-0.493944	2.226683	0.098362	-0.023010	0.011747	1.000000	0.000014	0.000009	0.000013	-11.744072	-76.015836	4.307799
26465	9.580565	-0.495683	2.281686	0.051230	-0.016991	0.048150	1.000000	0.000010	0.000021	0.000017	-11.745859	-76.013668	4.310445
26466	9.570768	-0.509355	2.264475	0.064404	-0.033034	0.035239	1.000000	0.000004	0.000053	0.000004	-11.739479	-76.008221	4.301924
26467	9.581299	-0.452785	2.316640	0.024506	0.029976	0.055019	1.000000	0.000007	0.000037	0.000011	-11.737327	-76.004476	4.300534
26468	9.570322	-0.509626	2.266297	0.064206	-0.033283	0.035239	1.000000	0.000008	0.000062	0.000009	-11.731747	-75.997899	4.293326
26469	9.544637	-0.491153	2.333641	-0.003409	-0.006781	0.025359	1.000000	-0.000001	0.000063	0.000001	-11.723507	-75.991510	4.283361
26470	9.563592	-0.464297	2.370563	-0.030042	0.024923	0.051181	1.000000	0.000004	0.000049	0.000015	-11.722398	-75.986287	4.280194
26471	9.540478	-0.490425	2.369932	-0.037365	-0.001408	0.029894	1.000000	0.000021	0.000045	0.000023	-11.723524	-75.981261	4.281883
26472	9.518532	-0.473160	2.402484	-0.071203	0.019484	0.015477	1.000000	0.000011	0.000029	-0.000004	-11.714783	-75.978709	4.271767
26473	9.518366	-0.473075	2.403160	-0.071297	0.019363	0.015477	1.000000	0.000008	0.000041	0.000000	-11.707254	-75.974707	4.261676
26474	9.508631	-0.486702	2.385714	-0.058125	0.003324	0.002565	1.000000	0.000023	0.000008	0.000021	-11.710416	-75.973918	4.265208
26475	9.514554	-0.472197	2.438018	-0.105230	0.024757	0.020011	1.000000	0.000017	-0.000003	0.000009	-11.709838	-75.974615	4.261929
26476	9.545939	-0.476138	2.424053	-0.084851	0.019529	0.047339	1.000000	0.000025	-0.000006	0.000009	-11.708787	-75.975727	4.261334
26477	9.527912	-0.460034	2.421246	-0.084923	0.034798	0.028387	1.000000	0.000016	-0.000029	0.000010	-11.711412	-75.979325	4.264065
26478	9.563072	-0.465208	2.372481	-0.030784	0.023930	0.051182	1.000000	0.000024	-0.000032	0.000011	-11.713620	-75.983238	4.266682
26479	9.563193	-0.465163	2.372003	-0.030874	0.023812	0.051182	1.000000	0.000027	-0.000021	-0.000003	-11.708511	-75.986220	4.262721
26480	9.545216	-0.449032	2.368993	-0.030943	0.039079	0.032231	1.000000	0.000023	-0.000036	0.000021	-11.715969	-75.990358	4.270670
26481	9.567118	-0.466719	2.336507	0.002725	0.017922	0.046648	1.000000	0.000023	-0.000036	0.000021	-11.723379	-75.994334	4.276078
26482	9.557658	-0.480396	2.317912	0.015891	0.001874	0.033737	1.000000	0.000039	-0.000038	0.000012	-11.724784	-75.998883	4.279684
26483	9.589154	-0.484372	2.303442	0.036284	-0.003370	0.061066	1.000000	0.000035	-0.000026	0.000016	-11.727361	-76.001875	4.282586
26484	9.530157	-0.478023	2.296533	0.029008	0.001091	0.001875	1.000000	0.000029	-0.000020	0.000023	-11.733392	-76.004206	4.289836
26485	9.553124	-0.523031	2.317732	0.008345	-0.040097	0.031394	1.000000	0.000028	-0.000001	0.000024	-11.738381	-76.004433	4.295247
26486	9.535012	-0.507157	2.315218	0.008281	-0.024830	0.012444	1.000000	0.000036	-0.000004	0.000025	-11.742970	-76.004956	4.301784
26487	9.551943	-0.496271	2.264347	0.062441	-0.020339	0.016293	1.000000	0.000030	-0.000016	0.000012	-11.743751	-76.007077	4.302340
26488	9.584504	-0.527590	2.303597	0.028517	-0.045601	0.058723	1.000000	0.000014	0.000009	0.000013	-11.744299	-76.006422	4.302063
26489	9.553062	-0.523807	2.317811	0.007964	-0.040609	0.031392	1.000000	0.000018	0.000022	0.000007	-11.740230	-76.004349	4.297350
26490	9.566231	-0.511591	2.301786	0.028369	-0.030468	0.039774	1.000000	0.000016	0.000015	0.000010	-11.738545	-76.003017	4.295055
26491	9.575754	-0.498117	2.320097	0.014992	-0.014666	0.052686	1.000000	0.000001	0.000025	-0.000002	-11.732530	-76.000978	4.289429
26492	9.556403	-0.525206	2.284713	0.041405	-0.046645	0.026861	1.000000	0.000001	0.000021	0.000009	-11.731656	-75.999010	4.286152
26493	9.544199	-0.494360	2.334758	-0.005649	-0.009789	0.025355	1.000000	-0.000013	0.000013	-0.000004	-11.727406	-75.998212	4.276998
26494	9.557389	-0.481969	2.318693	0.014759	0.000350	0.033738	1.000000	-0.000000	0.000023	-0.000009	-11.718261	-75.996472	4.265069
26495	9.548810	-0.452141	2.334546	0.001468	0.031546	0.027704	1.000000	0.000009	0.000022	-0.000001	-11.711701	-75.994505	4.256176
26496	9.531800	-0.463307	2.385609	-0.052887	0.026823	0.023850	1.000000	-0.000002	0.000014	0.000012	-11.713062	-75.993213	4.254919
26497	9.544978	-0.451041	2.369569	-0.032474	0.036956	0.032234	1.000000	-0.000000	0.000023	-0.000009	-11.703810	-75.991463	4.242990
26498	9.531640	-0.463324	2.386245	-0.053073	0.026571	0.023850	1.000000	0.000021	0.000006	0.000013	-11.703956	-75.991127	4.243208
26499	9.561800	-0.440091	2.319247	0.021593	0.041301	0.036091	1.000000	0.000029	0.000003	0.000014	-11.703836	-75.991148	4.243202
26500	9.535240	-0.464908	2.352077	-0.019513	0.020658	0.019321	1.000000	0.000028	-0.000001	0.000024	-11.708827	-75.991354	4.249244
26501	9.553335	-0.481353	2.354530	-0.019657	0.005138	0.038268	1.000000	0.000034	-0.000007	0.000017	-11.710460	-75.992348	4.253709
26502	9.562985	-0.467921	2.372297	-0.033001	0.020943	0.051181	1.000000	0.000040	-0.000012	0.000010	-11.708603	-75.994097	4.254101
26503	9.530555	-0.507467	2.352508	-0.027085	-0.021305	0.016967	1.000000	0.000044	-0.000030	0.000035	-11.718875	-75.997159	4.268173
26504	9.525844	-0.479263	2.333086	-0.006625	0.004222	0.006407	1.000000	0.000043	-0.000028	0.000016	-11.721080	-76.000579	4.273093
26505	9.562161	-0.511744	2.337549	-0.006814	-0.026702	0.044299	1.000000	0.000059	-0.000034	0.000017	-11.722413	-76.004616	4.281454
26506	9.557432	-0.483292	2.318242	0.013647	-0.001177	0.033740	1.000000	0.000040	-0.000012	0.000010	-11.720558	-76.006365	4.281849
26507	9.575585	-0.499528	2.320491	0.013484	-0.016705	0.052685	1.000000	0.000038	-0.000019	0.000013	-11.720886	-76.008894	4.286841
26508	9.566021	-0.513149	2.302312	0.026633	-0.032764	0.039771	1.000000	0.000022	-0.000013	0.000012	-11.722073	-76.010682	4.288269
26509	9.580505	-0.528196	2.338971	-0.007267	-0.042610	0.063242	1.000000	0.000025	-0.000006	0.000009	-11.721024	-76.011778	4.286831
26510	9.561231	-0.484802	2.283226	0.047003	-0.007371	0.029215	1.000000	0.000020	0.000003	0.000006	-11.718144	-76.011895	4.283727
26511	9.597381	-0.517247	2.288374	0.046811	-0.038304	0.067104	1.000000	0.000004	0.000009	0.000005	-11.715932	-76.011314	4.279282
26512	9.557495	-0.483636	2.317909	0.013069	-0.001946	0.033741	1.000000	0.000007	0.000016	0.000002	-11.711625	-76.010117	4.273172
26513	9.557368	-0.483508	2.318459	0.012967	-0.002072	0.033741	1.000000	-0.000011	0.000042	-0.000016	-11.698852	-76.006427	4.256297
26514	9.575300	-0.499684	2.321634	0.012815	-0.017599	0.052685	1.000000	0.000012	0.000027	0.000014	-11.698362	-76.003647	4.254816
26515	9.535323	-0.466143	2.351493	-0.020900	0.018763	0.019322	1.000000	0.000013	0.000031	0.000003	-11.692511	-76.000532	4.246671
26516	9.539978	-0.494534	2.371092	-0.041565	-0.007006	0.029875	1.000000	0.000006	0.000039	-0.000008	-11.681923	-75.996986	4.234030
26517	9.534988	-0.466042	2.352871	-0.021076	0.018521	0.019322	1.000000	0.000015	0.000034	0.000011	-11.679373	-75.993448	4.230900
26518	9.554117	-0.439152	2.389099	-0.047649	0.050268	0.045152	1.000000	0.000014	0.000009	0.000013	-11.679924	-75.992793	4.230628
26519	9.521515	-0.478761	2.369985	-0.041733	0.008030	0.010931	1.000000	0.000019	0.000020	0.000025	-11.684137	-75.990294	4.232092
26520	9.535844	-0.493895	2.407186	-0.075641	-0.001796	0.034397	1.000000	0.000034	0.000016	0.000008	-11.679420	-75.988923	4.228777
26521	9.562387	-0.469449	2.374405	-0.034710	0.018552	0.051180	1.000000	0.000040	-0.000016	0.000021	-11.682775	-75.990907	4.235776
26522	9.531052	-0.465715	2.388127	-0.055256	0.023594	0.023845	1.000000	0.000027	-0.000004	0.000017	-11.684749	-75.991566	4.238505
26523	9.511863	-0.492935	2.352074	-0.028864	-0.008411	-0.001986	1.000000	0.000035	-0.000026	0.000016	-11.687257	-75.994583	4.243667
26524	9.545649	-0.480895	2.424255	-0.089246	0.013645	0.047310	1.000000	0.000026	-0.000025	0.000008	-11.687250	-75.997820	4.244284
26525	9.556740	-0.484852	2.320768	0.011896	-0.003588	0.033742	1.000000	0.000023	-0.000036	0.000021	-11.694962	-76.002032	4.251159
26526	9.574947	-0.501234	2.322757	0.011733	-0.019118	0.052683	1.000000	0.000018	-0.000022	0.000007	-11.695360	-76.004949	4.251284
26527	9.547312	-0.498639	2.301999	0.024940	-0.019782	0.020826	1.000000	0.000030	-0.000016	0.000012	-11.696147	-76.007046	4.253034
26528	9.557045	-0.485191	2.319441	0.011611	-0.003968	0.033742	1.000000	0.000031	-0.000035	0.000011	-11.697975	-76.011278	4.256167
26529	9.570398	-0.473007	2.302685	0.032012	0.006139	0.042137	1.000000	0.000017	-0.000003	0.000009	-11.697484	-76.012185	4.257383
26530	9.561952	-0.513906	2.337928	-0.009188	-0.029849	0.044288	1.000000	0.000024	-0.000011	0.000020	-11.701698	-76.013520	4.262135
26531	9.570410	-0.473449	2.302545	0.031814	0.005890	0.042137	1.000000	0.000031	0.000005	0.000021	-11.704588	-76.013088	4.269823
26532	9.575152	-0.502000	2.321747	0.011130	-0.019870	0.052682	1.000000	0.000017	0.000019	-0.000001	-11.697643	-76.011534	4.262187
26533	9.553351	-0.484442	2.353830	-0.022618	0.001118	0.038263	1.000000	0.000022	0.000010	0.000003	-11.692348	-76.010831	4.258002
26534	9.556904	-0.485802	2.319892	0.011035	-0.004724	0.033742	1.000000	0.000012	0.000027	0.000014	-11.691854	-76.008051	4.256518
26535	9.561612	-0.514398	2.339212	-0.009657	-0.030480	0.044285	1.000000	0.000031	0.000009	0.000011	-11.689392	-76.007386	4.254683
26536	9.525303	-0.482134	2.334701	-0.009605	0.000205	0.006406	1.000000	0.000011	0.000046	0.000015	-11.687856	-76.002481	4.251991
26537	9.548071	-0.456554	2.336706	-0.002412	0.026250	0.027719	1.000000	0.000014	0.000009	0.000013	-11.688505	-76.001836	4.252734
26538	9.552815	-0.485091	2.355874	-0.023102	0.000496	0.038261	1.000000	0.000014	0.000013	0.000002	-11.683800	-76.000958	4.247124
26539	9.552752	-0.485066	2.356133	-0.023172	0.000378	0.038261	1.000000	0.000014	0.000013	0.000002	-11.679218	-75.999923	4.240351
26540	9.552711	-0.485060	2.356302	-0.023267	0.000253	0.038261	1.000000	0.000020	0.000003	0.000006	-11.676344	-76.000040	4.237253
26541	9.535745	-0.496050	2.407134	-0.077633	-0.004364	0.034381	1.000000	0.000012	0.000006	0.000005	-11.673909	-75.999853	4.235379
26542	9.534580	-0.469013	2.353936	-0.023381	0.015410	0.019322	1.000000	0.000019	-0.000001	0.000016	-11.676290	-76.000193	4.237618
26543	9.570798	-0.501539	2.358757	-0.023621	-0.015524	0.057199	1.000000	0.000034	-0.000028	0.000008	-11.675985	-76.003654	4.239127
26544	9.521408	-0.481322	2.369894	-0.044076	0.004950	0.010923	1.000000	0.000010	0.000004	-0.000003	-11.670490	-76.003904	4.232212
26545	9.584144	-0.489211	2.342094	-0.003282	-0.005563	0.065597	1.000000	0.000033	-0.000009	0.000010	-11.668973	-76.005283	4.232943
26546	9.548023	-0.456927	2.336831	-0.003213	0.025127	0.027722	1.000000	0.000032	-0.000013	0.000020	-11.672784	-76.006938	4.238190
26547	9.552853	-0.485526	2.355629	-0.023921	-0.000611	0.038259	1.000000	0.000025	-0.000006	0.000009	-11.671973	-76.008089	4.237515
26548	9.548080	-0.457289	2.336529	-0.003409	0.024884	0.027723	1.000000	0.000034	-0.000011	0.000028	-11.678810	-76.009290	4.246087
26549	9.560198	-0.488618	2.286737	0.043405	-0.012335	0.029226	1.000000	0.000034	-0.000007	0.000017	-11.680396	-76.010121	4.250014
26550	9.546929	-0.501028	2.303066	0.022785	-0.022673	0.020825	1.000000	0.000034	-0.000007	0.000017	-11.681976	-76.011099	4.253246
26551	9.569813	-0.475386	2.304627	0.030009	0.003368	0.042144	1.000000	0.000016	0.000015	0.000010	-11.680517	-76.009662	4.250596
26552	9.546841	-0.501408	2.303350	0.022609	-0.022917	0.020825	1.000000	0.000021	0.000001	0.000024	-11.685924	-76.009549	4.256160
26553	9.556446	-0.488106	2.321296	0.009304	-0.007089	0.033743	1.000000	0.000029	0.000003	0.000014	-11.685748	-76.009469	4.259624
26554	9.556377	-0.488310	2.321538	0.009208	-0.007216	0.033743	1.000000	0.000010	0.000021	0.000017	-11.687486	-76.007365	4.260157
26555	9.574346	-0.504788	2.324464	0.009036	-0.022756	0.052678	1.000000	0.000018	0.000018	0.000018	-11.688715	-76.005496	4.259733
26556	9.564632	-0.518450	2.306892	0.022158	-0.038835	0.039760	1.000000	0.000014	0.000013	0.000002	-11.684009	-76.004617	4.254121
26557	9.552462	-0.487534	2.356800	-0.024804	-0.001850	0.038257	1.000000	0.000008	0.000014	0.000020	-11.688008	-76.003161	4.258468
26558	9.593390	-0.478115	2.361043	-0.017683	0.008768	0.078514	1.000000	0.000022	0.000010	0.000003	-11.682901	-76.002601	4.253353
26559	9.539027	-0.499968	2.373776	-0.045508	-0.012295	0.029853	1.000000	0.000001	0.000021	0.000009	-11.682113	-76.000546	4.247959
26560	9.537880	-0.472919	2.320557	0.008762	0.007438	0.014808	1.000000	0.000021	-0.000015	0.000004	-11.680287	-76.002788	4.246075
26561	9.552262	-0.487857	2.357543	-0.025160	-0.002361	0.038256	1.000000	0.000003	0.000028	0.000006	-11.676754	-76.000082	4.241193
26562	9.520801	-0.484066	2.371774	-0.045688	0.002728	0.010916	1.000000	0.000023	0.000008	0.000021	-11.679925	-75.999292	4.244737
26563	9.583495	-0.492179	2.344128	-0.004917	-0.007832	0.065595	1.000000	0.000027	0.000000	0.000006	-11.676528	-75.999712	4.242096
26564	9.543683	-0.458530	2.373345	-0.038560	0.028625	0.032240	1.000000	0.000019	-0.000001	0.000016	-11.678911	-76.000052	4.244338
26565	9.565409	-0.476278	2.341566	-0.004991	0.007336	0.046661	1.000000	0.000027	-0.000004	0.000017	-11.681053	-76.000594	4.246233
26566	9.520745	-0.484616	2.371886	-0.046046	0.002236	0.010915	1.000000	0.000020	0.000003	0.000006	-11.678182	-76.000711	4.243138
26567	9.565393	-0.476372	2.341613	-0.005190	0.007093	0.046661	1.000000	0.000035	-0.000003	0.000007	-11.674759	-76.001512	4.240974
26568	9.524394	-0.486298	2.337547	-0.012503	-0.003767	0.006402	1.000000	0.000019	-0.000007	0.000045	-11.690677	-76.001844	4.257215
26569	9.552129	-0.489224	2.357801	-0.025912	-0.003342	0.038254	1.000000	0.000029	-0.000014	-0.000006	-11.683357	-76.004182	4.250761
26570	9.560603	-0.519073	2.342298	-0.012902	-0.034839	0.044267	1.000000	0.000026	-0.000008	0.000027	-11.690599	-76.005063	4.258842
26571	9.555857	-0.490900	2.323130	0.007651	-0.009369	0.033742	1.000000	0.000022	-0.000013	0.000012	-11.691632	-76.006772	4.259432
26572	9.564328	-0.520752	2.307630	0.020658	-0.040868	0.039755	1.000000	0.000033	-0.000009	0.000010	-11.690196	-76.008203	4.259350
26573	9.524565	-0.487019	2.336700	-0.012962	-0.004387	0.006401	1.000000	0.000025	-0.000006	0.000009	-11.689299	-76.009285	4.257358
26574	9.552245	-0.489868	2.357194	-0.026372	-0.003967	0.038252	1.000000	0.000015	0.000011	0.000020	-11.692871	-76.008176	4.260406
26575	9.569178	-0.479117	2.306491	0.027850	0.000311	0.042151	1.000000	0.000023	-0.000009	0.000001	-11.688690	-76.009490	4.254209
26576	9.587225	-0.495415	2.309116	0.027644	-0.015232	0.061083	1.000000	-0.000002	0.000014	0.000012	-11.690038	-76.008196	4.252940
26577	9.547373	-0.461722	2.338544	-0.005988	0.021258	0.027730	1.000000	0.000022	0.000010	0.000003	-11.685094	-76.007743	4.248720
26578	9.560545	-0.519962	2.342339	-0.013638	-0.035840	0.044263	1.000000	0.000009	-0.000000	0.000008	-11.684857	-76.008217	4.247146
26579	9.565360	-0.478153	2.341387	-0.006279	0.005594	0.046662	1.000000	0.000018	0.000018	0.000017	-11.686256	-76.006366	4.247714
26580	9.537564	-0.475790	2.321270	0.006942	0.004921	0.014811	1.000000	0.000008	0.000014	0.000020	-11.690227	-76.004938	4.250264
26581	9.551892	-0.490995	2.358391	-0.026979	-0.004835	0.038250	1.000000	0.000015	0.000011	0.000020	-11.693747	-76.003671	4.253592
26582	9.561480	-0.477499	2.376453	-0.040276	0.011004	0.051170	1.000000	0.000020	0.000007	-0.000005	-11.685619	-76.003566	4.245158
26583	9.533736	-0.474893	2.356172	-0.027062	0.010334	0.019319	1.000000	-0.000004	0.000008	0.000015	-11.689252	-76.002991	4.246003
26584	9.573454	-0.508953	2.327226	0.006347	-0.026417	0.052671	1.000000	0.000025	0.000015	0.000018	-11.690188	-76.001525	4.247529
26585	9.533639	-0.475398	2.356462	-0.027235	0.010090	0.019319	1.000000	0.000024	-0.000011	0.000020	-11.694536	-76.002763	4.252726
26586	9.551704	-0.491815	2.358981	-0.027449	-0.005452	0.038249	1.000000	0.000029	0.000003	0.000014	-11.694289	-76.002746	4.253450
26587	9.555355	-0.493277	2.324692	0.006190	-0.011365	0.033741	1.000000	0.000017	-0.000003	0.000009	-11.693840	-76.003549	4.253298
26588	9.542080	-0.505640	2.340994	-0.014445	-0.021661	0.025327	1.000000	0.000032	-0.000013	0.000020	-11.697667	-76.005203	4.258562
26589	9.565060	-0.480071	2.342217	-0.007195	0.004346	0.046662	1.000000	0.000015	-0.000010	0.000012	-11.699208	-76.006648	4.258879
26590	9.542158	-0.506028	2.340592	-0.014634	-0.021914	0.025327	1.000000	0.000032	-0.000013	0.000020	-11.703037	-76.008301	4.264146
26591	9.573529	-0.510181	2.326648	0.005675	-0.027287	0.052669	1.000000	0.000020	0.000003	0.000006	-11.700324	-76.008488	4.262794
26592	9.565136	-0.480393	2.341843	-0.007494	0.003973	0.046661	1.000000	0.000021	-0.000015	0.000004	-11.698508	-76.010730	4.260920
26593	9.537465	-0.477879	2.321247	0.005743	0.003302	0.014812	1.000000	0.000036	-0.000004	0.000025	-11.703186	-76.011177	4.267013
26594	9.573555	-0.510576	2.326456	0.005397	-0.027663	0.052668	1.000000	0.000014	0.000009	0.000013	-11.703735	-76.010521	4.266739
26595	9.522982	-0.463388	2.284625	0.039438	0.012655	-0.008621	1.000000	0.000031	0.000009	0.000011	-11.701064	-76.009697	4.264888
26596	9.528816	-0.518928	2.357049	-0.035730	-0.032825	0.016908	1.000000	0.000017	-0.000003	0.000009	-11.700431	-76.010490	4.263815
26597	9.565018	-0.481143	2.342172	-0.007916	0.003350	0.046661	1.000000	0.000018	0.000018	0.000017	-11.701964	-76.008593	4.264646
26598	9.537246	-0.478685	2.321979	0.005309	0.002674	0.014813	1.000000	0.000021	0.000006	0.000013	-11.702115	-76.008256	4.264872
26599	9.541968	-0.507306	2.341090	-0.015450	-0.023017	0.025323	1.000000	0.000011	0.000002	0.000016	-11.705196	-76.008213	4.266030
26600	9.551562	-0.493863	2.359127	-0.028737	-0.007171	0.038244	1.000000	0.000007	0.000016	0.000002	-11.700883	-76.007016	4.259914
26601	9.551481	-0.493976	2.359434	-0.028835	-0.007294	0.038244	1.000000	0.000025	0.000015	0.000018	-11.701881	-76.005564	4.263022
26602	9.536991	-0.479205	2.322921	0.004936	0.002185	0.014813	1.000000	0.000009	0.000022	-0.000001	-11.695332	-76.003693	4.254888
26603	9.569378	-0.510257	2.362645	-0.029156	-0.022967	0.057169	1.000000	0.000020	0.000003	0.000006	-11.692406	-76.003787	4.251128
26604	9.533237	-0.477883	2.357587	-0.028984	0.007751	0.019316	1.000000	0.000021	0.000006	0.000013	-11.692558	-76.003450	4.251356
26605	9.564540	-0.481942	2.343957	-0.008647	0.002350	0.046661	1.000000	0.000024	0.000016	-0.000000	-11.685043	-76.002095	4.244252
26606	9.541562	-0.507666	2.342668	-0.016102	-0.023900	0.025320	1.000000	0.000025	-0.000006	0.000009	-11.684014	-76.003208	4.243681
26607	9.533132	-0.478038	2.357980	-0.029248	0.007379	0.019316	1.000000	0.000023	0.000008	0.000021	-11.687383	-76.002417	4.247522
26608	9.551191	-0.494407	2.360517	-0.029481	-0.008168	0.038241	1.000000	0.000021	-0.000015	0.000004	-11.685571	-76.004659	4.245651
26609	9.560869	-0.480980	2.378210	-0.042749	0.007694	0.051163	1.000000	0.000036	-0.000004	0.000025	-11.690401	-76.005102	4.251125
26610	9.551209	-0.494830	2.360355	-0.029660	-0.008407	0.038240	1.000000	0.000011	0.000002	0.000016	-11.693189	-76.005121	4.252874
26611	9.550116	-0.468035	2.307015	0.024650	0.011206	0.023234	1.000000	0.000027	-0.000004	0.000017	-11.695265	-76.005865	4.255389
26612	9.554868	-0.496629	2.325980	0.003865	-0.014488	0.033738	1.000000	0.000034	-0.000007	0.000017	-11.696863	-76.006843	4.258640
26613	9.554865	-0.496722	2.325972	0.003761	-0.014612	0.033738	1.000000	0.000020	0.000003	0.000006	-11.694058	-76.007003	4.255639
26614	9.564508	-0.483355	2.343799	-0.009517	0.001239	0.046660	1.000000	0.000026	-0.000008	0.000027	-11.701314	-76.007882	4.263734
26615	9.541556	-0.509404	2.342312	-0.016990	-0.024997	0.025316	1.000000	0.000027	-0.000004	0.000017	-11.703530	-76.008588	4.266527
26616	9.564519	-0.483794	2.343661	-0.009717	0.000996	0.046660	1.000000	0.000017	-0.000003	0.000009	-11.702901	-76.009382	4.265458
26617	9.545171	-0.511013	2.308156	0.016579	-0.031089	0.020814	1.000000	0.000018	0.000022	0.000007	-11.698919	-76.007192	4.260860
26618	9.551080	-0.496184	2.360591	-0.030427	-0.009393	0.038237	1.000000	0.000031	0.000005	0.000021	-11.701697	-76.006720	4.264910
26619	9.554670	-0.497850	2.326531	0.003187	-0.015362	0.033737	1.000000	0.000018	0.000018	0.000017	-11.703070	-76.005048	4.266876
26620	9.546220	-0.468101	2.341978	-0.009938	0.015918	0.027737	1.000000	0.000018	0.000001	-0.000002	-11.697182	-76.005621	4.260466
26621	9.572630	-0.514250	2.329451	0.002864	-0.031035	0.052660	1.000000	0.000015	0.000011	0.000020	-11.700826	-76.004398	4.263949
26622	9.564185	-0.484602	2.344856	-0.010259	0.000245	0.046660	1.000000	0.000020	0.000003	0.000006	-11.697959	-76.004516	4.260859
