// Start Time: Unknown
// Update Rate: 100.0Hz
// Filter Profile: human (46.1)
// Firmware Version: 4.4.0
PacketCounter	Acc_X	Acc_Y	Acc_Z	FreeAcc_X	FreeAcc_Y	FreeAcc_Z	OriInc_q0	OriInc_q1	OriInc_q2	OriInc_q3	Roll	Pitch	Yaw
53702	9.548838	-0.387108	2.449621	0.000000	-0.000000	0.052950	1.000000	0.000012	0.000007	0.000020	-8.976698	-75.441427	1.563262
53703	9.540462	-0.365392	2.424637	0.023472	0.006599	0.037805	1.000000	0.000041	0.000027	0.000019	-8.714246	-75.447365	1.121632
53704	9.538925	-0.366966	2.400707	0.046270	0.001914	0.030432	1.000000	0.000036	0.000012	0.000013	-8.714836	-75.445798	1.126506
53705	9.571959	-0.380845	2.448816	0.006812	-0.005185	0.074884	1.000000	0.000028	0.000010	0.000020	-8.719352	-75.444854	1.134612
53706	9.523720	-0.396023	2.428117	0.012715	-0.023030	0.023630	1.000000	0.000023	-0.000005	0.000014	-8.722986	-75.445209	1.141111
53707	9.533389	-0.342515	2.424452	0.025602	0.029634	0.030039	1.000000	0.000020	0.000018	0.000006	-8.722166	-75.443161	1.142616
53708	9.547020	-0.389356	2.426680	0.021156	-0.016444	0.045571	1.000000	0.000023	0.000003	0.000006	-8.722203	-75.442717	1.145318
53709	9.563495	-0.359309	2.424166	0.031801	0.013177	0.059745	1.000000	0.000025	0.000024	0.000019	-8.725920	-75.439780	1.152138
53710	9.516613	-0.373063	2.428076	0.014906	0.000016	0.015864	1.000000	0.000028	0.000010	0.000020	-8.730619	-75.438332	1.160274
53711	9.539964	-0.366564	2.426416	0.023301	0.006589	0.037805	1.000000	0.000021	0.000001	0.000020	-8.736698	-75.438153	1.169087
53712	9.541317	-0.365218	2.451022	0.000503	0.011274	0.045177	1.000000	0.000026	0.000026	0.000005	-8.734201	-75.435107	1.169630
53713	9.516382	-0.373483	2.428915	0.014784	-0.000012	0.015865	1.000000	0.000027	0.000018	0.000012	-8.734861	-75.433265	1.173544
53714	9.541108	-0.365445	2.451801	0.000433	0.011253	0.045177	1.000000	0.000019	0.000016	0.000019	-8.740069	-75.431138	1.181145
53715	9.539574	-0.367129	2.427866	0.023150	0.006539	0.037805	1.000000	0.000018	0.000024	0.000012	-8.741026	-75.428689	1.184317
53716	9.542338	-0.364309	2.476836	-0.022446	0.015908	0.052550	1.000000	0.000052	0.000006	0.000020	-8.743168	-75.427635	1.192701
53717	9.517438	-0.372489	2.454612	-0.008175	0.004591	0.023237	1.000000	0.000012	0.000025	-0.000008	-8.735355	-75.425384	1.186148
53718	9.540736	-0.365708	2.453212	0.000272	0.011171	0.045178	1.000000	0.000043	0.000012	0.000019	-8.738010	-75.423652	1.193999
53719	9.535261	-0.341049	2.476721	-0.020371	0.038826	0.044784	1.000000	0.000012	0.000007	0.000020	-8.743177	-75.422892	1.200898
53720	9.539195	-0.367571	2.429285	0.023002	0.006417	0.037806	1.000000	0.000029	0.000012	0.000006	-8.741688	-75.421485	1.202787
53721	9.502058	-0.327483	2.429304	0.018932	0.045792	0.000335	1.000000	0.000020	0.000018	0.000006	-8.737892	-75.419820	1.201411
53722	9.558409	-0.334602	2.475851	-0.011995	0.045282	0.066725	1.000000	0.000032	0.000025	0.000026	-8.743640	-75.416567	1.211173
53723	9.516933	-0.373235	2.456454	-0.008387	0.004157	0.023237	1.000000	0.000021	0.000009	0.000013	-8.740710	-75.415742	1.210942
53724	9.555388	-0.337808	2.427871	0.033527	0.035671	0.051983	1.000000	0.000051	0.000023	0.000005	-8.735664	-75.413089	1.211742
53725	9.540156	-0.366396	2.455363	-0.000046	0.010446	0.045178	1.000000	0.000029	0.000012	0.000006	-8.727525	-75.412328	1.207214
53726	9.509832	-0.349830	2.456465	-0.006269	0.026907	0.015473	1.000000	0.000025	0.000024	0.000019	-8.731201	-75.409237	1.213995
53727	9.541395	-0.365179	2.480337	-0.022943	0.014800	0.052550	1.000000	0.000030	0.000003	0.000013	-8.725734	-75.409242	1.212305
53728	9.533102	-0.343339	2.455141	0.002079	0.033156	0.037416	1.000000	0.000036	0.000012	0.000013	-8.726318	-75.407670	1.217176
53729	9.517886	-0.372023	2.482531	-0.031452	0.007830	0.030608	1.000000	0.000029	0.000012	0.000006	-8.715823	-75.406681	1.210360
53730	9.510999	-0.348663	2.481706	-0.029229	0.030871	0.022846	1.000000	0.000021	0.000009	0.000013	-8.718440	-75.405395	1.215508
53731	9.514983	-0.375124	2.434137	0.014200	-0.001979	0.015865	1.000000	0.000009	-0.000006	0.000000	-8.707654	-75.405802	1.206334
53732	9.539801	-0.366871	2.456670	-0.000152	0.009280	0.045179	1.000000	0.000023	0.000003	0.000006	-8.707676	-75.405357	1.209031
53733	9.546622	-0.390547	2.457700	-0.002386	-0.014177	0.052940	1.000000	0.000029	-0.000007	0.000034	-8.709978	-75.405619	1.215417
53734	9.539774	-0.367408	2.456694	-0.000163	0.008864	0.045180	1.000000	0.000014	0.000009	0.000006	-8.710519	-75.404499	1.217583
53735	9.534335	-0.342696	2.480055	-0.020760	0.036205	0.044793	1.000000	0.000006	-0.000001	0.000020	-8.709931	-75.404478	1.218226
53736	9.561735	-0.362579	2.430613	0.031057	0.010372	0.059751	1.000000	0.000016	-0.000006	0.000007	-8.711485	-75.405007	1.221738
53737	9.539736	-0.367918	2.456766	-0.000225	0.008050	0.045181	1.000000	0.000021	0.000009	0.000013	-8.704197	-75.403994	1.217242
53738	9.521726	-0.399722	2.435322	0.011901	-0.026247	0.023623	1.000000	0.000023	-0.000005	0.000014	-8.707829	-75.404365	1.223737
53739	9.509471	-0.351443	2.457630	-0.006468	0.024147	0.015480	1.000000	0.000029	0.000012	0.000006	-8.697757	-75.403105	1.217349
53740	9.560179	-0.364479	2.406780	0.053794	0.004886	0.052380	1.000000	0.000034	0.000018	0.000019	-8.700925	-75.400712	1.224669
53741	9.529877	-0.347886	2.407813	0.047428	0.020952	0.022680	1.000000	0.000029	0.000012	0.000006	-8.690202	-75.400197	1.217772
53742	9.544866	-0.393414	2.434486	0.020177	-0.020450	0.045565	1.000000	0.000042	0.000011	0.000033	-8.699021	-75.398448	1.231856
53743	9.539387	-0.368599	2.458018	-0.000598	0.006916	0.045181	1.000000	0.000037	0.000014	-0.000001	-8.685278	-75.398127	1.222557
53744	9.553071	-0.341448	2.406806	0.055663	0.027165	0.044626	1.000000	0.000043	0.000012	0.000019	-8.687927	-75.396421	1.230410
53745	9.536418	-0.371762	2.409911	0.044727	-0.002886	0.030439	1.000000	0.000043	0.000012	0.000019	-8.680551	-75.396298	1.229495
53746	9.555755	-0.338648	2.455977	0.009792	0.036087	0.059372	1.000000	0.000029	0.000012	0.000006	-8.679032	-75.394919	1.231379
53747	9.514282	-0.377217	2.436554	0.013107	-0.005151	0.015866	1.000000	0.000026	0.000016	0.000026	-8.677855	-75.394838	1.233254
53748	9.554165	-0.340621	2.432287	0.032213	0.031029	0.052003	1.000000	0.000034	0.000018	0.000019	-8.681014	-75.392454	1.240573
53749	9.537541	-0.370896	2.435270	0.021098	0.000993	0.037812	1.000000	0.000016	-0.000006	0.000007	-8.673000	-75.395635	1.235005
53750	9.562296	-0.362659	2.458032	0.006734	0.012241	0.067128	1.000000	0.000026	0.000026	0.000005	-8.670504	-75.392624	1.235562
53751	9.535987	-0.372575	2.411489	0.043434	-0.004103	0.030444	1.000000	0.000012	0.000007	0.000020	-8.667850	-75.394181	1.235220
53752	9.529138	-0.349322	2.410529	0.045650	0.018940	0.022693	1.000000	0.000023	0.000003	0.000006	-8.667868	-75.393787	1.237922
53753	9.537306	-0.371232	2.436137	0.020162	0.000194	0.037814	1.000000	0.000020	0.000018	0.000006	-8.658332	-75.394436	1.231038
53754	9.553822	-0.341164	2.433561	0.030819	0.029804	0.052011	1.000000	0.000021	0.000009	0.000013	-8.660929	-75.393196	1.236183
53755	9.537198	-0.371609	2.436503	0.019575	-0.000273	0.037815	1.000000	0.000013	-0.000001	0.000027	-8.660714	-75.396265	1.239781
53756	9.528927	-0.349946	2.411274	0.044590	0.018090	0.022699	1.000000	0.000020	0.000018	0.000006	-8.659675	-75.394241	1.241124
53757	9.552255	-0.343215	2.409794	0.052356	0.024287	0.044652	1.000000	0.000029	0.000012	0.000006	-8.650073	-75.396800	1.234787
53758	9.535646	-0.373242	2.412735	0.041680	-0.005325	0.030451	1.000000	0.000017	-0.000004	-0.000007	-8.645408	-75.397433	1.232053
53759	9.553564	-0.341609	2.434510	0.028937	0.028603	0.052021	1.000000	0.000039	0.000033	0.000025	-8.641654	-75.396766	1.233085
53760	9.536833	-0.371950	2.437878	0.018262	-0.001008	0.037818	1.000000	0.000027	0.000018	0.000012	-8.642708	-75.394588	1.237419
53761	9.558716	-0.366843	2.412227	0.048836	0.000461	0.052407	1.000000	0.000034	0.000027	0.000012	-8.632995	-75.395285	1.233053
53762	9.528384	-0.350278	2.413369	0.042615	0.016940	0.022710	1.000000	0.000034	0.000018	0.000019	-8.636091	-75.392948	1.240357
53763	9.566690	-0.389168	2.438501	0.022979	-0.018331	0.067517	1.000000	0.000017	0.000022	0.000026	-8.634582	-75.394768	1.242892
53764	9.529556	-0.349350	2.438507	0.018985	0.021194	0.030076	1.000000	0.000034	0.000018	0.000019	-8.637648	-75.392441	1.250185
53765	9.537643	-0.371450	2.464350	-0.006567	0.002416	0.045181	1.000000	0.000025	0.000024	0.000019	-8.632118	-75.392416	1.250304
53766	9.514104	-0.378271	2.466622	-0.015010	-0.004154	0.023229	1.000000	0.000026	0.000026	0.000005	-8.629466	-75.389436	1.250809
53767	9.513991	-0.378393	2.467039	-0.015861	-0.004446	0.023227	1.000000	0.000019	0.000016	0.000019	-8.628370	-75.392330	1.251929
53768	9.513913	-0.378648	2.467301	-0.015879	-0.004453	0.023227	1.000000	0.000028	0.000010	0.000020	-8.632909	-75.390980	1.260012
53769	9.535860	-0.373579	2.441432	0.014699	-0.002835	0.037823	1.000000	0.000029	0.000012	0.000006	-8.625605	-75.393439	1.256338
53770	9.513792	-0.378810	2.467744	-0.016555	-0.004727	0.023226	1.000000	0.000021	0.000009	0.000013	-8.628077	-75.392274	1.261443
53771	9.537147	-0.372279	2.466141	-0.008319	0.001567	0.045180	1.000000	0.000005	0.000007	0.000013	-8.626660	-75.392380	1.262478
53772	9.528914	-0.350348	2.440869	0.016698	0.019931	0.030082	1.000000	0.000039	0.000007	-0.000007	-8.618321	-75.391777	1.258623
53773	9.560470	-0.365463	2.464711	-0.000924	0.007761	0.067135	1.000000	0.000028	0.000010	0.000020	-8.615264	-75.396324	1.262336
53774	9.530237	-0.348860	2.465466	-0.007148	0.024238	0.037439	1.000000	0.000032	-0.000003	0.000007	-8.614566	-75.396705	1.265504
53775	9.505410	-0.357228	2.442995	0.006694	0.012808	0.008130	1.000000	0.000028	0.000010	0.000020	-8.615014	-75.398444	1.268575
53776	9.545380	-0.320554	2.438500	0.025739	0.048965	0.044303	1.000000	0.000030	0.000003	0.000013	-8.616936	-75.397993	1.274206
53777	9.535527	-0.374282	2.442625	0.012062	-0.003919	0.037827	1.000000	0.000028	0.000010	0.000020	-8.616801	-75.401266	1.276149
53778	9.553489	-0.342723	2.464215	-0.000131	0.030353	0.059396	1.000000	0.000023	0.000003	0.000006	-8.616700	-75.401025	1.278820
53779	9.528630	-0.351178	2.441860	0.013729	0.018922	0.030089	1.000000	0.000026	0.000016	0.000026	-8.619708	-75.401840	1.283094
53780	9.528530	-0.351329	2.442229	0.013690	0.018917	0.030089	1.000000	0.000035	0.000020	0.000006	-8.616626	-75.399692	1.284181
53781	9.535321	-0.374746	2.443358	0.010964	-0.004433	0.037828	1.000000	0.000019	-0.000020	0.000008	-8.612469	-75.404787	1.282949
53782	9.543720	-0.322991	2.415111	0.046608	0.043541	0.036963	1.000000	0.000039	0.000025	0.000032	-8.620213	-75.401606	1.295702
53783	9.527004	-0.353320	2.418367	0.035441	0.013628	0.022744	1.000000	0.000029	0.000012	0.000006	-8.611883	-75.403272	1.291333
53784	9.558515	-0.368563	2.442347	0.018776	0.001804	0.059787	1.000000	0.000034	0.000018	0.000019	-8.614971	-75.401110	1.298656
53785	9.528230	-0.352063	2.443292	0.012053	0.017996	0.030093	1.000000	0.000028	0.000010	0.000020	-8.613037	-75.402825	1.300919
53786	9.528183	-0.352282	2.443445	0.012007	0.017991	0.030093	1.000000	0.000037	0.000004	0.000020	-8.617131	-75.402316	1.309584
53787	9.528108	-0.352441	2.443712	0.011786	0.017612	0.030094	1.000000	0.000050	0.000021	0.000019	-8.609607	-75.400926	1.310559
53788	9.534837	-0.375970	2.445059	0.009513	-0.005444	0.037829	1.000000	0.000007	0.000000	0.000007	-8.611530	-75.401017	1.313499
53789	9.534767	-0.376135	2.445309	0.008771	-0.005651	0.037829	1.000000	0.000025	0.000024	0.000019	-8.610891	-75.402302	1.314332
53790	9.551319	-0.346209	2.442655	0.019365	0.023947	0.052056	1.000000	0.000046	-0.000002	0.000020	-8.614470	-75.402495	1.323535
53791	9.555324	-0.372953	2.395142	0.061672	-0.008550	0.045108	1.000000	0.000014	0.000001	0.000013	-8.616996	-75.408533	1.323854
53792	9.527866	-0.353248	2.444542	0.009811	0.017290	0.030097	1.000000	0.000021	0.000009	0.000013	-8.619615	-75.407604	1.329041
53793	9.526441	-0.355034	2.420335	0.032217	0.012553	0.022756	1.000000	0.000021	0.000001	0.000020	-8.624719	-75.409477	1.332182
53794	9.551204	-0.347062	2.442985	0.017756	0.023782	0.052060	1.000000	0.000012	0.000007	0.000020	-8.631525	-75.408669	1.340654
53795	9.526329	-0.355592	2.420692	0.032157	0.012292	0.022757	1.000000	0.000034	0.000018	0.000019	-8.628635	-75.406228	1.342334
53796	9.527660	-0.354294	2.445194	0.009292	0.016968	0.030098	1.000000	0.000006	-0.000001	0.000020	-8.636946	-75.406340	1.351600
53797	9.526239	-0.356037	2.420981	0.031633	0.012324	0.022758	1.000000	0.000029	0.000012	0.000006	-8.636664	-75.407666	1.347481
53798	9.550941	-0.347738	2.443916	0.017178	0.023560	0.052061	1.000000	0.000026	0.000026	0.000005	-8.634371	-75.404938	1.348147
53799	9.519234	-0.332642	2.420718	0.033538	0.035229	0.015028	1.000000	0.000018	0.000024	0.000012	-8.632729	-75.403647	1.345952
53800	9.550701	-0.347919	2.444829	0.016843	0.023418	0.052062	1.000000	0.000027	0.000018	0.000012	-8.634070	-75.401710	1.350424
53801	9.531208	-0.381306	2.399449	0.051184	-0.015807	0.023156	1.000000	0.000027	0.000018	0.000012	-8.629333	-75.403171	1.349186
53802	9.533871	-0.378292	2.448467	0.005505	-0.006441	0.037831	1.000000	0.000034	0.000018	0.000019	-8.632751	-75.401090	1.356646
53803	9.550418	-0.348308	2.445878	0.015504	0.023088	0.052065	1.000000	0.000036	0.000012	0.000013	-8.632187	-75.403323	1.356440
53804	9.525509	-0.356887	2.423726	0.029845	0.011870	0.022765	1.000000	0.000015	0.000029	0.000032	-8.642854	-75.399863	1.369079
53805	9.534896	-0.377394	2.474057	-0.019601	-0.001805	0.045164	1.000000	0.000026	0.000026	0.000005	-8.641622	-75.406098	1.365674
53806	9.521286	-0.330685	2.471961	-0.015189	0.044308	0.029703	1.000000	0.000015	-0.000007	0.000021	-8.649777	-75.407031	1.375633
53807	9.528024	-0.354323	2.473224	-0.017827	0.020886	0.037433	1.000000	0.000027	0.000018	0.000012	-8.642445	-75.407108	1.375114
53808	9.534698	-0.377899	2.474743	-0.020154	-0.002150	0.045163	1.000000	0.000034	0.000018	0.000019	-8.645987	-75.405157	1.382636
53809	9.501690	-0.364491	2.426941	0.018653	0.004744	0.000806	1.000000	0.000030	0.000003	0.000013	-8.642803	-75.408459	1.383699
53810	9.534571	-0.378240	2.475179	-0.020905	-0.002383	0.045161	1.000000	0.000019	0.000016	0.000019	-8.648366	-75.406832	1.391486
53811	9.509730	-0.386701	2.452783	-0.006786	-0.013716	0.015864	1.000000	0.000007	0.000000	0.000007	-8.648231	-75.408382	1.389422
53812	9.526318	-0.356603	2.450080	0.003774	0.015896	0.030103	1.000000	0.000035	0.000020	0.000006	-8.645635	-75.406511	1.390725
53813	9.548276	-0.351869	2.424272	0.034928	0.017939	0.044743	1.000000	0.000025	0.000007	0.000047	-8.667118	-75.405279	1.405552
53814	9.502759	-0.364176	2.452264	-0.004771	0.009554	0.008135	1.000000	0.000012	0.000007	0.000020	-8.674375	-75.404591	1.414208
53815	9.549552	-0.350944	2.448882	0.011259	0.022639	0.052072	1.000000	0.000038	0.000006	0.000006	-8.672764	-75.408390	1.412645
53816	9.517946	-0.335881	2.425332	0.027834	0.034477	0.015048	1.000000	0.000028	0.000010	0.000020	-8.678068	-75.407453	1.421072
53817	9.532811	-0.381310	2.452122	-0.000316	-0.007201	0.037832	1.000000	0.000030	0.000003	0.000013	-8.674431	-75.411746	1.423293
53818	9.546670	-0.354583	2.400702	0.055864	0.013041	0.037426	1.000000	0.000028	0.000010	0.000020	-8.679716	-75.410854	1.431717
53819	9.525954	-0.358359	2.451241	0.001325	0.015691	0.030104	1.000000	0.000028	0.000002	0.000027	-8.684175	-75.413223	1.439648
53820	9.556069	-0.375532	2.450843	0.007366	-0.000791	0.059803	1.000000	0.000033	0.000017	0.000033	-8.694118	-75.411337	1.453506
53821	9.532568	-0.382290	2.452916	-0.002118	-0.007584	0.037832	1.000000	0.000030	0.000013	-0.000008	-8.681354	-75.416392	1.446572
53822	9.557289	-0.373942	2.475750	-0.016652	0.003668	0.067123	1.000000	0.000043	0.000012	0.000019	-8.684604	-75.415293	1.454740
53823	9.531067	-0.383939	2.429094	0.020293	-0.012357	0.030512	1.000000	0.000014	0.000009	0.000006	-8.682867	-75.415869	1.452956
53824	9.518836	-0.335594	2.451354	0.001878	0.038450	0.022378	1.000000	0.000034	0.000018	0.000019	-8.686635	-75.414096	1.460583
53825	9.547568	-0.354137	2.426728	0.031225	0.017308	0.044756	1.000000	0.000021	0.000009	0.000013	-8.690334	-75.410451	1.460277
53826	9.514171	-0.414509	2.432884	0.009815	-0.041850	0.016267	1.000000	0.000034	0.000019	0.000019	-8.694166	-75.408623	1.467922
53827	9.542003	-0.329457	2.450502	0.009619	0.045324	0.044349	1.000000	0.000012	0.000015	0.000013	-8.703849	-75.412209	1.469501
53828	9.555461	-0.376643	2.453041	0.004980	-0.000741	0.059804	1.000000	0.000036	0.000002	0.000034	-8.715017	-75.412025	1.484801
53829	9.517110	-0.338154	2.428295	0.023023	0.034365	0.015061	1.000000	0.000030	0.000013	-0.000008	-8.713815	-75.415970	1.477207
53830	9.553979	-0.378283	2.429165	0.026758	-0.005153	0.052490	1.000000	0.000043	0.000012	0.000019	-8.717413	-75.414917	1.485515
53831	9.548519	-0.353433	2.452546	0.005981	0.022252	0.052078	1.000000	0.000028	0.000010	0.000020	-8.714322	-75.414832	1.490733
53832	9.545747	-0.356804	2.404044	0.051489	0.012893	0.037450	1.000000	0.000023	0.000003	0.000007	-8.715225	-75.415075	1.493846
53833	9.547093	-0.355196	2.428439	0.028045	0.017971	0.044765	1.000000	0.000023	0.000003	0.000007	-8.724796	-75.418268	1.492279
53834	9.548418	-0.353700	2.452902	0.005106	0.022713	0.052077	1.000000	0.000028	0.000010	0.000020	-8.730520	-75.417522	1.500890
53835	9.540215	-0.332113	2.427687	0.029969	0.040922	0.037039	1.000000	0.000034	0.000019	0.000019	-8.730693	-75.416412	1.504318
53836	9.546880	-0.355556	2.429225	0.027572	0.017915	0.044766	1.000000	0.000006	0.000017	-0.000008	-8.726578	-75.415368	1.500154
53837	9.523424	-0.362385	2.431095	0.019513	0.011494	0.022791	1.000000	0.000029	-0.000006	0.000034	-8.741187	-75.413507	1.510120
53838	9.540031	-0.332532	2.428355	0.030066	0.041124	0.037037	1.000000	0.000027	0.000026	0.000005	-8.739780	-75.411118	1.511151
53839	9.538575	-0.334354	2.404373	0.053290	0.036624	0.029723	1.000000	0.000019	0.000008	0.000027	-8.753448	-75.407333	1.515958
53840	9.547972	-0.354697	2.454495	0.005278	0.023049	0.052076	1.000000	0.000036	0.000020	0.000006	-8.751653	-75.405568	1.517577
53841	9.524448	-0.361506	2.456624	-0.003720	0.016227	0.030103	1.000000	0.000026	0.000016	0.000026	-8.752705	-75.406829	1.524719
53842	9.546412	-0.356720	2.430893	0.027374	0.018102	0.044766	1.000000	0.000027	0.000018	0.000012	-8.754973	-75.405204	1.529573
53843	9.546330	-0.356807	2.431203	0.026143	0.018589	0.044769	1.000000	0.000036	0.000012	0.000013	-8.767924	-75.410780	1.530502
53844	9.522826	-0.363636	2.433247	0.017631	0.012108	0.022794	1.000000	0.000019	0.000016	0.000019	-8.774481	-75.409331	1.538685
53845	9.524102	-0.362083	2.457878	-0.004499	0.016935	0.030101	1.000000	0.000045	0.000014	0.000006	-8.773154	-75.403583	1.533566
53846	9.524042	-0.361923	2.458136	-0.004609	0.016994	0.030101	1.000000	0.000015	0.000011	-0.000007	-8.768962	-75.403131	1.530108
53847	9.529396	-0.387162	2.435131	0.015602	-0.011052	0.030522	1.000000	0.000020	-0.000000	0.000034	-8.775028	-75.404410	1.541530
53848	9.547374	-0.355714	2.456672	0.003365	0.023306	0.052076	1.000000	0.000020	0.000018	0.000006	-8.775445	-75.402946	1.543479
53849	9.529263	-0.387652	2.435570	0.013961	-0.010920	0.030525	1.000000	0.000020	0.000008	0.000027	-8.787001	-75.410565	1.553795
53850	9.523816	-0.362768	2.458887	-0.006680	0.016906	0.030100	1.000000	0.000029	0.000012	0.000006	-8.786991	-75.409860	1.556334
53851	9.523735	-0.362939	2.459174	-0.007189	0.016993	0.030099	1.000000	0.000026	0.000016	0.000026	-8.796643	-75.410516	1.564094
53852	9.552488	-0.381561	2.434511	0.021586	-0.004179	0.052503	1.000000	0.000023	0.000003	0.000007	-8.798226	-75.410790	1.567474
53853	9.523635	-0.363124	2.459535	-0.007933	0.017227	0.030099	1.000000	0.000029	0.000012	0.000006	-8.801156	-75.412967	1.565630
53854	9.545651	-0.358136	2.433672	0.023136	0.019098	0.044775	1.000000	0.000014	0.000009	0.000006	-8.803308	-75.412586	1.568485
53855	9.522131	-0.364976	2.435768	0.013872	0.012801	0.022799	1.000000	0.000032	0.000025	0.000026	-8.815201	-75.414417	1.576142
53856	9.553548	-0.380396	2.459905	-0.002998	0.001092	0.059805	1.000000	0.000028	0.000010	0.000020	-8.821608	-75.413735	1.585021
53857	9.521964	-0.365413	2.436356	0.013186	0.012840	0.022800	1.000000	0.000036	0.000012	0.000013	-8.821887	-75.415367	1.588295
53858	9.529985	-0.387260	2.462152	-0.012076	-0.005399	0.037826	1.000000	0.000036	0.000012	0.000013	-8.824220	-75.414587	1.593936
53859	9.545240	-0.358922	2.435169	0.021416	0.019126	0.044779	1.000000	0.000027	0.000018	0.000012	-8.817922	-75.412426	1.593956
53860	9.523134	-0.363931	2.461354	-0.009919	0.017394	0.030096	1.000000	0.000041	-0.000009	0.000007	-8.818677	-75.414116	1.598519
53861	9.545163	-0.359033	2.435452	0.020511	0.019741	0.044780	1.000000	0.000025	0.000025	0.000019	-8.835754	-75.415429	1.601775
53862	9.545066	-0.359139	2.435817	0.020368	0.019816	0.044780	1.000000	0.000029	0.000012	0.000006	-8.836119	-75.414832	1.604469
53863	9.545043	-0.359201	2.435898	0.018916	0.020212	0.044782	1.000000	0.000023	-0.000005	0.000014	-8.850098	-75.423633	1.609062
53864	9.522963	-0.364262	2.461968	-0.012435	0.018508	0.030092	1.000000	0.000023	0.000003	0.000007	-8.852129	-75.424070	1.612634
53865	9.539615	-0.334312	2.459127	-0.002696	0.048133	0.044340	1.000000	0.000028	0.000010	0.000020	-8.858755	-75.428261	1.618345
53866	9.539534	-0.334617	2.459397	-0.002859	0.048216	0.044340	1.000000	0.000026	0.000016	0.000026	-8.868040	-75.426875	1.629792
53867	9.551591	-0.383478	2.437727	0.016309	-0.002929	0.052514	1.000000	0.000021	0.000001	0.000020	-8.866253	-75.420500	1.632606
53868	9.536718	-0.338382	2.411169	0.043619	0.038486	0.029763	1.000000	0.000036	0.000020	0.000006	-8.865198	-75.418977	1.634526
53869	9.547409	-0.356899	2.485672	-0.028068	0.030290	0.059357	1.000000	0.000028	0.000010	0.000020	-8.884439	-75.422866	1.639852
53870	9.522534	-0.365309	2.463470	-0.013796	0.019096	0.030089	1.000000	0.000027	0.000026	0.000005	-8.884039	-75.420706	1.641276
53871	9.562550	-0.328858	2.459130	0.004988	0.054941	0.066320	1.000000	0.000018	0.000014	0.000033	-8.889791	-75.420335	1.652859
53872	9.544444	-0.360927	2.437989	0.016929	0.020706	0.044785	1.000000	0.000030	0.000003	0.000013	-8.894033	-75.420611	1.659473
53873	9.551112	-0.384556	2.439433	0.013934	-0.002430	0.052517	1.000000	0.000019	0.000016	0.000019	-8.897444	-75.422348	1.664514
53874	9.519516	-0.369618	2.415966	0.030538	0.009413	0.015521	1.000000	0.000027	0.000018	0.000012	-8.900636	-75.421009	1.669744
53875	9.537499	-0.337896	2.437541	0.017779	0.043813	0.037056	1.000000	0.000038	0.000006	0.000006	-8.901008	-75.424122	1.669256
53876	9.566251	-0.356619	2.412924	0.046467	0.022633	0.059489	1.000000	0.000018	0.000014	0.000033	-8.914528	-75.422865	1.683998
53877	9.545469	-0.360328	2.463394	-0.006585	0.025982	0.052068	1.000000	0.000015	-0.000007	0.000021	-8.930096	-75.417706	1.685708
53878	9.520666	-0.368876	2.440899	0.007689	0.014785	0.022803	1.000000	0.000043	0.000013	0.000020	-8.935033	-75.416824	1.694546
53879	9.545339	-0.360719	2.463839	-0.006189	0.026445	0.052067	1.000000	0.000018	0.000024	0.000012	-8.944801	-75.410607	1.691215
53880	9.513731	-0.345847	2.440423	0.010438	0.038285	0.015068	1.000000	0.000026	0.000016	0.000026	-8.954416	-75.409119	1.702760
53881	9.567218	-0.356270	2.438523	0.024008	0.028210	0.066767	1.000000	0.000027	0.000018	0.000012	-8.954074	-75.411813	1.705632
53882	9.520273	-0.369693	2.442310	0.007091	0.015259	0.022803	1.000000	0.000028	0.000010	0.000020	-8.961141	-75.411206	1.714762
53883	9.542292	-0.364966	2.416500	0.038492	0.016847	0.037503	1.000000	0.000012	0.000016	0.000013	-8.960275	-75.408005	1.714026
53884	9.520109	-0.370135	2.442880	0.007152	0.015192	0.022803	1.000000	0.000019	0.000016	0.000019	-8.967802	-75.406696	1.722573
53885	9.511942	-0.348508	2.417723	0.032145	0.033458	0.007788	1.000000	0.000027	0.000026	0.000005	-8.965499	-75.404622	1.717788
53886	9.526609	-0.393895	2.444937	0.004480	-0.007742	0.030537	1.000000	0.000042	0.000011	0.000033	-8.976724	-75.403636	1.732892
53887	9.536523	-0.340664	2.440973	0.017571	0.045100	0.037050	1.000000	0.000027	0.000018	0.000012	-8.983614	-75.401356	1.732686
53888	9.566575	-0.357588	2.440852	0.023451	0.028688	0.066767	1.000000	0.000027	0.000018	0.000012	-8.987136	-75.399912	1.738015
53889	9.518291	-0.372692	2.420315	0.028557	0.010635	0.015525	1.000000	0.000028	0.000010	0.000020	-8.987109	-75.403944	1.746103
53890	9.519563	-0.371105	2.444861	0.005597	0.015513	0.022803	1.000000	0.000029	0.000012	0.000006	-8.988054	-75.403386	1.749008
53891	9.541582	-0.366270	2.419107	0.035710	0.017298	0.037513	1.000000	0.000034	0.000019	0.000019	-8.992998	-75.407234	1.753274
53892	9.542851	-0.364947	2.443621	0.012742	0.022180	0.044788	1.000000	0.000020	-0.000000	0.000034	-9.007871	-75.407562	1.769498
53893	9.519331	-0.371782	2.445663	0.003790	0.015972	0.022803	1.000000	0.000042	0.000029	0.000005	-9.011059	-75.407525	1.767248
53894	9.544038	-0.363308	2.468494	-0.010803	0.027385	0.052061	1.000000	0.000017	-0.000004	-0.000007	-9.009038	-75.409012	1.765623
53895	9.541340	-0.366876	2.419970	0.034585	0.018018	0.037515	1.000000	0.000018	0.000014	0.000033	-9.025492	-75.408103	1.774047
53896	9.542596	-0.365520	2.444531	0.011616	0.022916	0.044788	1.000000	0.000021	0.000010	0.000013	-9.030714	-75.407714	1.780270
53897	9.534466	-0.343927	2.419274	0.037215	0.041567	0.029777	1.000000	0.000018	0.000024	0.000012	-9.041701	-75.402277	1.777716
53898	9.520341	-0.370719	2.471127	-0.019313	0.021724	0.030074	1.000000	0.000023	-0.000005	0.000014	-9.048099	-75.403492	1.785377
53899	9.542420	-0.366053	2.445137	0.010761	0.023488	0.044787	1.000000	0.000035	0.000010	0.000026	-9.056726	-75.408341	1.793953
53900	9.539681	-0.369638	2.396789	0.056212	0.014000	0.030249	1.000000	0.000020	0.000018	0.000006	-9.058450	-75.407169	1.796398
53901	9.540899	-0.368057	2.421528	0.032436	0.019089	0.037521	1.000000	0.000025	0.000025	0.000019	-9.069607	-75.409672	1.801621
53902	9.540836	-0.368298	2.421739	0.032267	0.019205	0.037521	1.000000	0.000030	-0.000005	0.000021	-9.078197	-75.410787	1.812329
53903	9.518702	-0.373259	2.447883	-0.000013	0.017535	0.022801	1.000000	0.000022	0.000011	-0.000001	-9.076439	-75.415954	1.808666
53904	9.540734	-0.368402	2.422126	0.030994	0.019363	0.037525	1.000000	0.000034	0.000019	0.000019	-9.082425	-75.414505	1.817142
53905	9.518538	-0.373517	2.448483	-0.002430	0.017789	0.022801	1.000000	0.000028	0.000010	0.000020	-9.091967	-75.426138	1.827361
53906	9.541914	-0.367018	2.446968	0.005748	0.024426	0.044789	1.000000	0.000029	0.000012	0.000006	-9.093375	-75.425810	1.830460
53907	9.523798	-0.398878	2.425871	0.016121	-0.009852	0.023284	1.000000	0.000005	0.000007	0.000013	-9.101154	-75.434562	1.835929
53908	9.535123	-0.343624	2.446021	0.006269	0.047658	0.037052	1.000000	0.000039	0.000007	-0.000007	-9.095944	-75.435039	1.833383
53909	9.525031	-0.397159	2.450548	-0.005932	-0.005330	0.030537	1.000000	0.000042	0.000011	0.000033	-9.094552	-75.427621	1.840096
53910	9.541707	-0.367354	2.447725	0.004639	0.024335	0.044790	1.000000	0.000014	0.000009	0.000006	-9.097945	-75.427590	1.843433
53911	9.533670	-0.345687	2.422160	0.029394	0.042499	0.029799	1.000000	0.000016	-0.000006	0.000007	-9.098595	-75.430733	1.845770
53912	9.540310	-0.369189	2.423673	0.026801	0.019584	0.037537	1.000000	0.000034	0.000027	0.000012	-9.100966	-75.428607	1.850431
53913	9.540207	-0.369257	2.424070	0.027382	0.019968	0.037534	1.000000	0.000036	0.000012	0.000013	-9.110241	-75.423546	1.848261
53914	9.563585	-0.362765	2.422555	0.035563	0.026604	0.059524	1.000000	0.000021	0.000010	0.000013	-9.115801	-75.423307	1.854618
53915	9.541433	-0.367675	2.448744	0.003781	0.024771	0.044789	1.000000	0.000015	0.000003	-0.000000	-9.111064	-75.426568	1.851344
53916	9.534677	-0.344294	2.447665	0.005996	0.047922	0.037051	1.000000	0.000034	0.000019	0.000019	-9.117140	-75.425204	1.859856
53917	9.539934	-0.369547	2.425098	0.025984	0.020405	0.037537	1.000000	0.000027	0.000026	0.000005	-9.122800	-75.424513	1.853267
53918	9.557902	-0.337885	2.446737	0.013767	0.054898	0.059039	1.000000	0.000028	0.000010	0.000020	-9.130504	-75.424117	1.862641
53919	9.509650	-0.352946	2.426082	0.017404	0.037402	0.007811	1.000000	0.000045	0.000006	0.000013	-9.140899	-75.437418	1.871931
53920	9.556486	-0.339842	2.422772	0.033925	0.050555	0.051796	1.000000	0.000021	0.000010	0.000013	-9.146612	-75.437295	1.878358
53921	9.540997	-0.368341	2.450342	-0.000852	0.026102	0.044786	1.000000	0.000028	0.000010	0.000020	-9.158238	-75.442701	1.884394
53922	9.539594	-0.370296	2.426321	0.021741	0.021397	0.037545	1.000000	0.000034	0.000019	0.000019	-9.164542	-75.441477	1.893007
53923	9.531530	-0.348736	2.400892	0.046873	0.039764	0.022564	1.000000	0.000007	0.000000	0.000007	-9.170986	-75.441882	1.889924
53924	9.535390	-0.343672	2.474177	-0.021765	0.054413	0.044284	1.000000	0.000032	0.000033	0.000018	-9.176233	-75.439010	1.897117
53925	9.539293	-0.370806	2.427429	0.019796	0.022138	0.037548	1.000000	0.000025	0.000025	0.000019	-9.191232	-75.445331	1.902207
53926	9.532550	-0.347512	2.426303	0.022007	0.045298	0.029806	1.000000	0.000015	-0.000006	0.000007	-9.196340	-75.447219	1.907244
53927	9.539198	-0.371218	2.427741	0.019483	0.022427	0.037548	1.000000	0.000034	0.000017	0.000033	-9.209345	-75.445134	1.914414
53928	9.516970	-0.376407	2.454129	-0.011909	0.020905	0.022788	1.000000	0.000032	0.000015	0.000019	-9.216508	-75.444369	1.923459
53929	9.539020	-0.371735	2.428358	0.018630	0.022575	0.037549	1.000000	0.000023	0.000013	0.000013	-9.219340	-75.446370	1.924882
53930	9.538924	-0.371926	2.428706	0.018404	0.022712	0.037549	1.000000	0.000023	0.000022	0.000019	-9.226800	-75.444836	1.933245
53931	9.538855	-0.372245	2.428931	0.017323	0.022897	0.037551	1.000000	0.000027	-0.000000	0.000027	-9.240763	-75.450664	1.942689
53932	9.532082	-0.348832	2.427951	0.019540	0.046060	0.029808	1.000000	0.000032	0.000034	-0.000009	-9.234279	-75.448313	1.937695
53933	9.546683	-0.393998	2.455214	-0.008292	0.005202	0.052523	1.000000	0.000004	-0.000004	0.000021	-9.250878	-75.449044	1.940327
53934	9.533255	-0.347118	2.452800	-0.003611	0.051391	0.037034	1.000000	0.000041	0.000027	-0.000008	-9.244181	-75.447469	1.936042
53935	9.545188	-0.395702	2.431626	0.014342	0.000577	0.045294	1.000000	0.000023	0.000022	0.000019	-9.250543	-75.444272	1.934782
53936	9.534333	-0.345626	2.477975	-0.026576	0.056503	0.044260	1.000000	0.000025	0.000015	0.000026	-9.261496	-75.443352	1.946874
53937	9.561761	-0.366245	2.429223	0.024000	0.030549	0.059548	1.000000	0.000023	0.000013	0.000013	-9.271396	-75.447095	1.946547
53938	9.561690	-0.366378	2.429484	0.023767	0.030695	0.059548	1.000000	0.000023	0.000013	0.000013	-9.276985	-75.446739	1.952824
53939	9.539436	-0.371296	2.455965	-0.007133	0.029560	0.044774	1.000000	0.000036	0.000030	0.000012	-9.287120	-75.441531	1.948403
53940	9.538061	-0.373369	2.431874	0.015442	0.024826	0.037549	1.000000	0.000014	-0.000008	0.000034	-9.304718	-75.443141	1.965932
53941	9.532630	-0.348480	2.455036	-0.004654	0.052343	0.037029	1.000000	0.000013	0.000026	0.000005	-9.294456	-75.438754	1.962926
53942	9.514457	-0.380265	2.434172	0.007090	0.018085	0.015553	1.000000	0.000030	0.000012	0.000006	-9.296441	-75.438534	1.966204
53943	9.540457	-0.370167	2.481287	-0.030174	0.034571	0.051998	1.000000	0.000046	0.000007	0.000013	-9.301344	-75.437527	1.969486
53944	9.515633	-0.378518	2.458983	-0.015955	0.023333	0.022776	1.000000	0.000021	0.000019	0.000006	-9.303649	-75.436514	1.972082
53945	9.555787	-0.342005	2.454414	0.002249	0.059154	0.059024	1.000000	0.000017	0.000004	0.000013	-9.303296	-75.441643	1.975324
53946	9.538964	-0.372179	2.457665	-0.008817	0.029781	0.044772	1.000000	0.000023	0.000013	0.000013	-9.308939	-75.441262	1.981603
53947	9.530912	-0.350592	2.432287	0.017390	0.047438	0.029805	1.000000	0.000038	0.000014	0.000013	-9.297288	-75.434065	1.977309
53948	9.538836	-0.372307	2.458142	-0.008112	0.029450	0.044774	1.000000	0.000023	0.000004	0.000007	-9.300788	-75.434779	1.981402
53949	9.532146	-0.348980	2.456844	-0.005626	0.052386	0.037028	1.000000	0.000033	-0.000001	0.000020	-9.303934	-75.434480	1.983037
53950	9.562199	-0.365786	2.456736	0.000036	0.036013	0.066771	1.000000	0.000041	0.000027	-0.000008	-9.297305	-75.432836	1.978742
53951	9.562122	-0.365880	2.457018	-0.000915	0.036091	0.066770	1.000000	0.000020	0.000000	0.000034	-9.312246	-75.437708	1.994953
53952	9.507229	-0.357630	2.434870	0.007433	0.041364	0.007808	1.000000	0.000023	0.000004	0.000007	-9.315766	-75.438437	1.999050
53953	9.537319	-0.374560	2.434599	0.012777	0.024618	0.037554	1.000000	0.000031	0.000006	0.000013	-9.312635	-75.440673	2.000682
53954	9.562016	-0.366250	2.457377	-0.001894	0.036154	0.066770	1.000000	0.000030	0.000012	0.000006	-9.314563	-75.440451	2.003918
53955	9.529236	-0.353084	2.409344	0.036947	0.042452	0.022595	1.000000	0.000033	0.000008	0.000027	-9.312094	-75.444293	2.017767
53956	9.531755	-0.349707	2.458256	-0.008892	0.052368	0.037026	1.000000	0.000021	0.000019	0.000006	-9.314236	-75.443314	2.020284
53957	9.537044	-0.374918	2.435619	0.011326	0.024256	0.037556	1.000000	0.000030	0.000012	0.000006	-9.307959	-75.442457	2.017091
53958	9.536995	-0.375141	2.435778	0.011099	0.024397	0.037556	1.000000	0.000035	0.000002	0.000034	-9.321960	-75.442919	2.033517
53959	9.523616	-0.328391	2.433210	0.013655	0.070649	0.022069	1.000000	0.000036	0.000012	-0.000001	-9.323720	-75.455725	2.032880
53960	9.560352	-0.368673	2.434395	0.016784	0.031253	0.059560	1.000000	0.000031	0.000006	0.000013	-9.328986	-75.456206	2.039807
53961	9.528935	-0.353761	2.410436	0.032618	0.042763	0.022609	1.000000	0.000027	-0.000009	0.000021	-9.333867	-75.463414	2.049518
53962	9.553662	-0.345495	2.433085	0.017909	0.054296	0.051818	1.000000	0.000044	0.000014	0.000006	-9.333926	-75.463147	2.052597
53963	9.528872	-0.353840	2.410675	0.032307	0.042382	0.022612	1.000000	0.000008	0.000002	0.000007	-9.323482	-75.463231	2.052164
53964	9.534170	-0.379208	2.387990	0.052382	0.014611	0.023151	1.000000	0.000038	0.000023	0.000019	-9.329173	-75.461632	2.060357
53965	9.529990	-0.352383	2.435637	0.008509	0.047810	0.029815	1.000000	0.000032	0.000015	0.000020	-9.343040	-75.463917	2.065049
53966	9.534030	-0.379548	2.388494	0.051382	0.015142	0.023156	1.000000	0.000017	-0.000005	0.000007	-9.348076	-75.465761	2.069978
53967	9.560024	-0.369477	2.435564	0.013996	0.031257	0.059565	1.000000	0.000030	0.000021	0.000012	-9.344569	-75.463803	2.069591
53968	9.535199	-0.378008	2.413266	0.028214	0.020003	0.030359	1.000000	0.000025	0.000006	0.000020	-9.353453	-75.464138	2.079501
53969	9.536413	-0.376389	2.437863	0.006275	0.025196	0.037558	1.000000	0.000030	0.000021	0.000012	-9.360136	-75.456377	2.074033
53970	9.536333	-0.376565	2.438147	0.006035	0.025340	0.037558	1.000000	0.000025	0.000006	0.000020	-9.369064	-75.456669	2.083946
53971	9.536246	-0.376783	2.438454	0.004270	0.024846	0.037560	1.000000	0.000038	0.000023	0.000019	-9.361286	-75.464057	2.091089
53972	9.536148	-0.376788	2.438837	0.004021	0.024986	0.037560	1.000000	0.000005	0.000015	-0.000008	-9.359812	-75.463920	2.087887
53973	9.537403	-0.375055	2.463280	-0.017431	0.029650	0.044761	1.000000	0.000019	-0.000002	0.000020	-9.360110	-75.455918	2.088099
53974	9.552825	-0.347105	2.436140	0.015983	0.054402	0.051821	1.000000	0.000030	0.000030	0.000019	-9.366067	-75.453499	2.095558
53975	9.559377	-0.370601	2.437930	0.012023	0.031104	0.059568	1.000000	0.000021	0.000010	-0.000001	-9.357360	-75.460900	2.094639
53976	9.553973	-0.345300	2.461006	-0.008530	0.059161	0.059021	1.000000	0.000023	0.000004	0.000007	-9.360732	-75.461771	2.098657
53977	9.505709	-0.360266	2.440408	-0.003075	0.040824	0.007812	1.000000	0.000030	0.000021	0.000012	-9.351450	-75.463135	2.102065
53978	9.529092	-0.353843	2.438938	0.005014	0.047456	0.029819	1.000000	0.000017	0.000004	0.000013	-9.358403	-75.463838	2.109058
53979	9.559124	-0.370762	2.438897	0.010105	0.030575	0.059572	1.000000	0.000019	0.000026	-0.000001	-9.345961	-75.465357	2.102450
53980	9.505434	-0.360449	2.441452	-0.004314	0.040734	0.007812	1.000000	0.000038	0.000023	0.000019	-9.351537	-75.463795	2.110572
53981	9.553521	-0.345732	2.462700	-0.010858	0.058620	0.059022	1.000000	0.000032	0.000015	0.000020	-9.355606	-75.464121	2.112874
53982	9.553470	-0.346151	2.462841	-0.011110	0.058754	0.059020	1.000000	0.000006	-0.000001	0.000034	-9.373168	-75.465081	2.129545
53983	9.552103	-0.348217	2.438813	0.011618	0.053377	0.051832	1.000000	0.000043	0.000029	0.000005	-9.357357	-75.462201	2.126197
53984	9.528552	-0.354842	2.440903	0.003035	0.047012	0.029822	1.000000	0.000025	0.000006	0.000020	-9.366018	-75.462559	2.135993
53985	9.528473	-0.355018	2.441185	0.004010	0.046909	0.029823	1.000000	0.000030	0.000021	0.000012	-9.363269	-75.454234	2.134427
53986	9.527116	-0.356928	2.417152	0.026578	0.042140	0.022630	1.000000	0.000031	0.000006	0.000013	-9.368282	-75.454731	2.141210
53987	9.529617	-0.353456	2.465996	-0.017320	0.051898	0.037017	1.000000	0.000032	0.000015	0.000020	-9.369616	-75.442657	2.138862
53988	9.545049	-0.325351	2.438918	0.016102	0.076639	0.044087	1.000000	0.000036	0.000021	0.000006	-9.369681	-75.441524	2.141074
53989	9.512656	-0.383639	2.469684	-0.029023	0.022556	0.022748	1.000000	0.000019	-0.000002	0.000020	-9.378025	-75.445075	2.146210
53990	9.552878	-0.347357	2.464966	-0.010072	0.058692	0.059022	1.000000	0.000032	0.000015	0.000020	-9.385104	-75.444372	2.155114
53991	9.528096	-0.355982	2.442515	0.002821	0.048001	0.029818	1.000000	0.000019	-0.000002	0.000020	-9.410023	-75.453423	2.161210
53992	9.521407	-0.332791	2.441243	0.005100	0.071153	0.022073	1.000000	0.000032	0.000015	0.000020	-9.417216	-75.452762	2.170158
53993	9.526707	-0.358304	2.418560	0.025058	0.043004	0.022630	1.000000	0.000025	0.000006	0.000020	-9.417871	-75.453662	2.172456
53994	9.526649	-0.358501	2.418758	0.024817	0.043138	0.022631	1.000000	0.000023	0.000013	0.000013	-9.423241	-75.453363	2.178542
53995	9.551341	-0.350395	2.441482	0.012152	0.054752	0.051824	1.000000	0.000027	-0.000000	0.000027	-9.435301	-75.442360	2.177672
53996	9.557966	-0.374084	2.442925	0.009394	0.031874	0.059568	1.000000	0.000008	0.000002	0.000007	-9.440467	-75.443312	2.181755
53997	9.526534	-0.359116	2.419120	0.024677	0.043461	0.022629	1.000000	0.000046	0.000016	0.000019	-9.443726	-75.451121	2.186261
53998	9.551223	-0.350973	2.441864	0.009970	0.055013	0.051825	1.000000	0.000019	-0.000002	0.000021	-9.454083	-75.452360	2.196906
53999	9.527726	-0.357610	2.443721	0.002243	0.048352	0.029816	1.000000	0.000044	0.000014	0.000006	-9.446097	-75.447158	2.192420
54000	9.549829	-0.352967	2.417983	0.033155	0.050047	0.044638	1.000000	0.000031	0.000015	0.000020	-9.453286	-75.446448	2.201332
54001	9.534198	-0.381339	2.445746	-0.001503	0.025481	0.037560	1.000000	0.000031	0.000015	0.000020	-9.458176	-75.450139	2.205380
54002	9.531579	-0.385251	2.397345	0.043872	0.015754	0.023191	1.000000	0.000025	0.000006	0.000020	-9.466954	-75.450412	2.215152
54003	9.549629	-0.353583	2.418684	0.032211	0.049693	0.044643	1.000000	0.000015	0.000011	0.000006	-9.455359	-75.447575	2.211970
54004	9.533987	-0.381843	2.446489	-0.001700	0.025254	0.037560	1.000000	0.000038	0.000023	0.000019	-9.460927	-75.445911	2.219997
54005	9.572867	-0.347238	2.417816	0.038725	0.055766	0.066663	1.000000	0.000028	0.000028	0.000005	-9.446542	-75.451977	2.221637
54006	9.541657	-0.403493	2.473145	-0.028861	0.006741	0.052483	1.000000	0.000030	0.000012	0.000006	-9.448198	-75.451860	2.224664
54007	9.508952	-0.390344	2.425053	0.010798	0.013586	0.008368	1.000000	0.000008	0.000011	0.000013	-9.456204	-75.451262	2.223596
54008	9.532325	-0.383962	2.423655	0.018889	0.020205	0.030381	1.000000	0.000030	0.000021	0.000012	-9.459943	-75.449997	2.228759
54009	9.503431	-0.365329	2.448515	-0.010013	0.041710	0.007804	1.000000	0.000017	0.000004	0.000013	-9.464917	-75.451048	2.230299
54010	9.534748	-0.380479	2.472710	-0.027271	0.030249	0.044737	1.000000	0.000030	0.000012	0.000006	-9.466614	-75.450927	2.233327
54011	9.503348	-0.365350	2.448834	-0.010443	0.042320	0.007801	1.000000	0.000015	0.000002	-0.000000	-9.476034	-75.451825	2.226164
54012	9.526776	-0.358842	2.447241	-0.002350	0.048940	0.029813	1.000000	0.000054	0.000009	0.000020	-9.481156	-75.451765	2.235627
54013	9.503293	-0.365453	2.449031	-0.010770	0.042583	0.007799	1.000000	0.000017	-0.000005	0.000007	-9.485745	-75.452711	2.232302
54014	9.526710	-0.358615	2.447532	-0.002676	0.049204	0.029812	1.000000	0.000053	0.000026	-0.000022	-9.471693	-75.451579	2.221812
54015	9.501939	-0.366793	2.425129	0.012056	0.037903	0.000622	1.000000	0.000027	-0.000009	0.000021	-9.481272	-75.450723	2.224749
54016	9.543523	-0.328558	2.444450	0.008244	0.078967	0.044078	1.000000	0.000031	-0.000003	0.000007	-9.484405	-75.452320	2.229369
54017	9.550140	-0.352052	2.445938	0.005884	0.056253	0.051822	1.000000	0.000031	0.000006	0.000013	-9.492967	-75.450259	2.227897
54018	9.550103	-0.352152	2.446069	0.005651	0.056393	0.051821	1.000000	0.000031	0.000006	0.000013	-9.498195	-75.450697	2.234653
54019	9.547478	-0.355903	2.397789	0.049970	0.046256	0.037478	1.000000	0.000028	0.000028	0.000005	-9.491209	-75.454998	2.236414
54020	9.542038	-0.330582	2.420968	0.029493	0.074360	0.036905	1.000000	0.000023	0.000004	0.000007	-9.494618	-75.455828	2.240314
54021	9.547345	-0.356014	2.398302	0.049819	0.046298	0.037479	1.000000	0.000031	0.000015	0.000020	-9.496308	-75.453319	2.239417
54022	9.519666	-0.335576	2.447644	-0.001789	0.072885	0.022062	1.000000	0.000030	0.000030	0.000019	-9.502236	-75.450891	2.246705
54023	9.548402	-0.354403	2.423405	0.024885	0.051283	0.044656	1.000000	0.000029	0.000003	-0.000000	-9.497723	-75.461607	2.246367
54024	9.524858	-0.360915	2.425444	0.016312	0.044940	0.022640	1.000000	0.000021	0.000028	0.000012	-9.501848	-75.459589	2.250805
54025	9.519381	-0.335767	2.448726	-0.004105	0.073179	0.022059	1.000000	0.000031	0.000015	0.000020	-9.512113	-75.458649	2.251798
54026	9.549408	-0.352860	2.448680	0.001402	0.056789	0.051820	1.000000	0.000031	0.000006	0.000013	-9.517363	-75.459154	2.258546
54027	9.525910	-0.359516	2.450511	-0.009857	0.050312	0.029802	1.000000	0.000017	0.000004	0.000013	-9.523713	-75.475567	2.264788
54028	9.550596	-0.351306	2.473234	-0.024599	0.061900	0.058977	1.000000	0.000040	0.000008	0.000020	-9.530799	-75.475791	2.274410
54029	9.519185	-0.336286	2.449417	-0.007555	0.073967	0.022051	1.000000	0.000044	0.000014	0.000006	-9.539198	-75.474288	2.266316
54030	9.526993	-0.357960	2.475468	-0.033207	0.056082	0.036953	1.000000	0.000017	0.000013	0.000020	-9.548411	-75.473894	2.275360
54031	9.541281	-0.331877	2.423774	0.023893	0.075974	0.036908	1.000000	0.000031	-0.000003	0.000007	-9.556351	-75.470816	2.269869
54032	9.524427	-0.361926	2.426985	0.012715	0.046637	0.022638	1.000000	0.000017	0.000004	0.000013	-9.563561	-75.471541	2.276787
54033	9.546615	-0.357526	2.400984	0.043178	0.047854	0.037503	1.000000	0.000018	-0.000002	0.000021	-9.564895	-75.475374	2.279033
54034	9.549100	-0.353988	2.449716	-0.002683	0.057973	0.051813	1.000000	0.000023	0.000013	0.000013	-9.570502	-75.475153	2.285073
54035	9.554390	-0.379375	2.427134	0.018070	0.030196	0.052404	1.000000	0.000030	0.000012	0.000006	-9.573553	-75.470422	2.278543
54036	9.524256	-0.362588	2.427559	0.012098	0.046872	0.022637	1.000000	0.000010	0.000005	0.000020	-9.584398	-75.470948	2.288434
54037	9.547675	-0.356265	2.425993	0.020252	0.053119	0.044657	1.000000	0.000015	0.000011	0.000006	-9.579548	-75.470689	2.285077
54038	9.548898	-0.354718	2.450398	-0.002800	0.058259	0.051811	1.000000	0.000006	-0.000001	0.000034	-9.597393	-75.471621	2.301662
54039	9.547564	-0.356813	2.426351	0.019751	0.052910	0.044659	1.000000	0.000034	0.000027	-0.000001	-9.582823	-75.470091	2.295284
54040	9.524009	-0.363357	2.428410	0.011175	0.046580	0.022640	1.000000	0.000025	0.000006	0.000020	-9.591794	-75.470439	2.305003
54041	9.530544	-0.386989	2.430169	0.008279	0.023818	0.030387	1.000000	0.000030	0.000021	0.000012	-9.598201	-75.469444	2.303203
54042	9.525117	-0.361664	2.453276	-0.012158	0.051966	0.029790	1.000000	0.000038	0.000005	0.000007	-9.599952	-75.470167	2.306946
54043	9.522556	-0.365398	2.404848	0.032197	0.041745	0.015492	1.000000	0.000030	0.000012	0.000006	-9.594402	-75.476017	2.305454
54044	9.525000	-0.361824	2.453705	-0.013662	0.051889	0.029789	1.000000	0.000042	0.000010	0.000033	-9.607021	-75.475670	2.320883
54045	9.556266	-0.377084	2.478019	-0.030517	0.040263	0.066707	1.000000	0.000030	0.000012	0.000006	-9.602966	-75.472813	2.315370
54046	9.523622	-0.363770	2.429865	0.009128	0.046933	0.022640	1.000000	0.000028	0.000010	-0.000007	-9.599494	-75.473314	2.312514
54047	9.531437	-0.385368	2.455852	-0.016127	0.028857	0.037537	1.000000	0.000033	0.000008	0.000027	-9.604765	-75.470926	2.317468
54048	9.553576	-0.380855	2.430105	0.014747	0.030462	0.052409	1.000000	0.000028	0.000019	-0.000001	-9.603334	-75.470270	2.316722
54049	9.507811	-0.391957	2.458168	-0.025710	0.022487	0.015513	1.000000	0.000023	0.000013	0.000013	-9.605235	-75.474497	2.318238
54050	9.516761	-0.340514	2.429333	0.010410	0.070094	0.014892	1.000000	0.000023	0.000004	0.000007	-9.608783	-75.475415	2.322077
54051	9.553438	-0.381000	2.430622	0.013513	0.030412	0.052411	1.000000	0.000025	-0.000003	0.000014	-9.608819	-75.475334	2.319423
54052	9.524567	-0.362221	2.455328	-0.015234	0.052102	0.029785	1.000000	0.000021	0.000019	0.000006	-9.611006	-75.474503	2.321646
54053	9.547959	-0.355744	2.453907	-0.008201	0.058897	0.051804	1.000000	0.000015	0.000011	0.000006	-9.620051	-75.480699	2.318217
54054	9.523252	-0.364167	2.431255	0.006022	0.047557	0.022640	1.000000	0.000033	-0.000019	0.000008	-9.624757	-75.484162	2.324391
54055	9.564821	-0.325927	2.450675	0.002361	0.088818	0.066075	1.000000	0.000023	0.000022	0.000019	-9.636216	-75.482204	2.322568
54056	9.523144	-0.364402	2.431644	0.005617	0.048010	0.022638	1.000000	0.000030	0.000012	0.000006	-9.638257	-75.482181	2.325537
54057	9.524353	-0.362490	2.456120	-0.018067	0.053078	0.029775	1.000000	0.000023	0.000004	0.000007	-9.640005	-75.486837	2.323022
54058	9.563406	-0.328000	2.426983	0.023762	0.084119	0.058935	1.000000	0.000031	0.000006	0.000013	-9.645458	-75.487426	2.329717
54059	9.539894	-0.334495	2.428869	0.015658	0.077707	0.036911	1.000000	0.000021	0.000010	-0.000001	-9.643140	-75.485130	2.315308
54060	9.522978	-0.364487	2.432282	0.004424	0.048394	0.022636	1.000000	0.000040	0.000008	0.000020	-9.650416	-75.485344	2.324851
54061	9.541068	-0.332867	2.453437	-0.007011	0.082707	0.044048	1.000000	0.000018	-0.000002	0.000021	-9.652816	-75.483056	2.324217
54062	9.546357	-0.358210	2.430889	0.012874	0.054815	0.044660	1.000000	0.000041	0.000027	-0.000008	-9.646248	-75.481656	2.319566
54063	9.547498	-0.356308	2.455619	-0.012218	0.059750	0.051795	1.000000	0.000025	0.000015	0.000026	-9.653431	-75.492831	2.328993
54064	9.547429	-0.356629	2.455842	-0.012481	0.059896	0.051794	1.000000	0.000025	0.000006	0.000020	-9.662513	-75.493254	2.338652
54065	9.548632	-0.354972	2.480284	-0.035337	0.064660	0.058927	1.000000	0.000025	0.000006	0.000020	-9.661538	-75.492567	2.340819
54066	11.115876	-0.260019	-4.849115	7.401941	-0.765429	-0.233043	1.000000	0.000338	-0.000654	0.000020	-9.683872	-75.567534	2.401180
54067	8.964643	-2.595956	16.228191	-13.582221	-0.410870	3.063877	0.999972	0.000133	0.007517	0.000184	-9.214774	-74.726761	1.929843
54068	7.349070	2.006484	-7.801050	9.590310	1.089165	-4.740558	0.999943	0.004160	-0.009751	-0.001436	-8.788227	-75.857661	1.979048
54069	11.413070	0.965414	7.240577	-4.019347	1.952026	2.979847	0.999985	-0.003082	0.004269	0.001322	-9.429933	-75.374554	2.271161
54070	9.376022	-1.593459	1.085819	1.123539	-1.339952	-0.401522	0.999995	-0.003068	-0.000633	0.000597	-10.091293	-75.436064	2.588564
54071	9.358820	-1.249969	1.810805	0.452670	-0.901044	-0.251718	0.999999	0.001650	-0.000098	-0.000448	-9.720200	-75.481584	2.392594
54072	9.371462	0.101927	3.621838	-1.114789	0.661556	0.150845	0.999999	0.000913	0.000442	-0.000055	-9.562711	-75.434437	2.335225
54073	9.528436	0.422949	2.776528	-0.229590	0.871256	0.080101	1.000000	-0.000296	-0.000711	-0.000027	-9.637891	-75.526433	2.367333
54074	9.518016	-1.237481	1.215713	1.063631	-0.970669	-0.245638	0.999999	-0.000803	0.000552	0.000262	-9.806611	-75.460812	2.443865
54075	9.371634	-0.228869	5.932469	-3.375990	0.630680	0.736198	0.999999	0.001262	0.000284	-0.000294	-9.514376	-75.457378	2.291607
54076	9.421157	0.258851	-0.738950	3.094154	0.260848	-0.883557	0.999999	-0.000146	-0.001217	0.000214	-9.718676	-75.592679	2.482640
54077	9.814479	-0.737420	3.681576	-1.184508	-0.155111	0.627363	0.999999	-0.000836	0.000712	-0.000026	-9.753092	-75.537202	2.417171
54078	9.472617	-0.272126	1.797716	0.596792	0.062015	-0.185835	1.000000	0.000354	-0.000704	-0.000004	-9.767553	-75.618746	2.471257
54079	9.624205	-0.430460	2.215584	0.206930	-0.039396	0.070382	1.000000	-0.000130	0.000275	0.000010	-9.773430	-75.602585	2.450081
54080	9.443725	-0.298365	2.680974	-0.268490	0.149789	0.003934	1.000000	0.000180	-0.000192	0.000026	-9.782458	-75.625759	2.477937
54081	9.669810	-0.378927	1.644891	0.769812	-0.061199	-0.027079	1.000000	0.000012	0.000079	-0.000011	-9.768380	-75.632480	2.462489
54082	9.437814	-0.208086	3.288094	-0.844648	0.316011	0.142909	1.000000	0.000110	0.000118	-0.000027	-9.738769	-75.621782	2.442198
54083	9.593071	-0.339096	1.796117	0.610974	-0.004113	-0.066164	1.000000	-0.000042	0.000025	0.000032	-9.759226	-75.631414	2.447960
54084	9.483878	-0.297168	2.903112	-0.473841	0.179142	0.097091	1.000000	0.000077	0.000111	0.000041	-9.763956	-75.620251	2.459207
54085	9.597797	-0.335432	2.239231	0.186828	0.057224	0.046633	1.000000	-0.000049	-0.000002	0.000061	-9.782764	-75.631902	2.482443
54086	9.577684	-0.407806	2.394095	0.024895	0.005896	0.068070	1.000000	0.000083	0.000101	0.000028	-9.781725	-75.622126	2.488522
54087	9.498032	-0.481580	2.773148	-0.369015	-0.019322	0.086723	1.000000	0.000042	0.000028	0.000046	-9.795474	-75.631137	2.500878
54088	9.668820	-0.245013	2.181975	0.270599	0.142020	0.097597	1.000000	0.000010	0.000032	0.000039	-9.812701	-75.629025	2.517163
54089	9.498391	-0.447915	2.918509	-0.505916	0.034213	0.121125	1.000000	0.000008	0.000019	0.000060	-9.835899	-75.639150	2.533173
54090	9.540950	-0.332359	2.195657	0.213003	0.057295	-0.019198	1.000000	0.000053	-0.000037	0.000030	-9.849430	-75.645038	2.550687
54091	9.473048	-0.421890	2.672078	-0.275438	0.029508	0.035149	1.000000	-0.000017	0.000022	0.000046	-9.870602	-75.657788	2.564335
54092	9.518059	-0.446874	2.499836	-0.102373	-0.016013	0.037774	1.000000	0.000048	-0.000052	0.000037	-9.889249	-75.665280	2.586568
54093	9.448321	-0.429207	2.304955	0.067290	-0.023809	-0.078073	1.000000	0.000026	-0.000028	0.000049	-9.906985	-75.678778	2.602717
54094	9.420310	-0.446343	2.552406	-0.180537	-0.008706	-0.044188	1.000000	0.000035	-0.000035	0.000009	-9.913408	-75.684900	2.610707
54095	9.596101	-0.343525	2.216008	0.197243	0.051808	0.039838	1.000000	0.000041	-0.000008	0.000021	-9.911549	-75.692392	2.610580
54096	9.522636	-0.475590	2.450755	-0.063428	-0.049457	0.031423	1.000000	0.000028	-0.000034	0.000016	-9.921624	-75.698342	2.621591
54097	9.618547	-0.339145	2.189138	0.224105	0.053272	0.054974	1.000000	0.000060	-0.000019	-0.000005	-9.917577	-75.722500	2.621511
54098	9.582947	-0.438343	2.370759	0.028248	-0.022270	0.068822	1.000000	0.000005	0.000024	-0.000001	-9.918262	-75.722309	2.620039
54099	9.634837	-0.346299	2.385687	0.036682	0.070952	0.118835	1.000000	0.000039	0.000024	-0.000022	-9.900126	-75.729599	2.602871
54100	9.589337	-0.390352	2.294251	0.108360	0.014844	0.054398	1.000000	0.000034	0.000054	0.000017	-9.903368	-75.725658	2.607543
54101	9.534673	-0.313243	2.537036	-0.130347	0.121487	0.057110	1.000000	-0.000005	0.000056	0.000003	-9.895143	-75.732653	2.601947
54102	9.573268	-0.347661	2.244538	0.156796	0.050424	0.024953	1.000000	0.000028	0.000046	0.000018	-9.899981	-75.729714	2.607513
54103	9.459563	-0.305364	2.591163	-0.199540	0.135481	-0.002869	1.000000	-0.000015	0.000060	-0.000010	-9.892775	-75.730490	2.584896
54104	9.518868	-0.303723	2.368015	0.030075	0.109065	0.000354	1.000000	0.000030	0.000012	0.000006	-9.894922	-75.731605	2.587856
54105	9.501214	-0.371362	2.570970	-0.179052	0.067908	0.035368	1.000000	0.000000	0.000027	0.000019	-9.900494	-75.738793	2.586719
54106	9.522353	-0.298244	2.441529	-0.040660	0.124393	0.021340	1.000000	0.000010	-0.000004	0.000014	-9.909547	-75.741657	2.594503
54107	9.540851	-0.370956	2.421769	-0.027879	0.049998	0.037547	1.000000	0.000014	-0.000017	0.000028	-9.916098	-75.753309	2.601461
54108	9.546948	-0.361428	2.543192	-0.142488	0.075650	0.072486	1.000000	0.000025	0.000006	0.000020	-9.925399	-75.754890	2.611258
54109	9.572290	-0.315681	2.366440	0.036143	0.098396	0.052273	1.000000	0.000050	-0.000015	0.000022	-9.924591	-75.774336	2.620308
54110	9.553504	-0.385128	2.544741	-0.148854	0.052399	0.080167	1.000000	0.000044	0.000014	0.000006	-9.924904	-75.775418	2.623130
54111	9.557025	-0.377163	2.274145	0.111286	0.025652	0.017759	1.000000	0.000043	-0.000014	0.000028	-9.935158	-75.788047	2.629623
54112	9.569642	-0.390952	2.397319	-0.006139	0.028326	0.060366	1.000000	0.000015	0.000020	0.000012	-9.941154	-75.788358	2.634825
54113	9.558818	-0.340219	2.443321	-0.047258	0.084101	0.058851	1.000000	0.000036	0.000039	0.000018	-9.933290	-75.789630	2.632558
54114	9.472602	-0.316749	2.397482	-0.021054	0.100693	-0.036806	1.000000	0.000043	0.000047	0.000018	-9.936281	-75.786734	2.637955
54115	9.536099	-0.344974	2.471021	-0.080958	0.082773	0.043718	1.000000	0.000036	0.000039	0.000018	-9.936290	-75.794929	2.635423
54116	9.537608	-0.376651	2.376133	0.007100	0.039473	0.023584	1.000000	0.000007	0.000036	0.000018	-9.944504	-75.793367	2.641957
54117	9.498310	-0.342477	2.670604	-0.282182	0.110633	0.055212	1.000000	-0.000005	0.000074	0.000016	-9.941182	-75.794709	2.638326
54118	9.502905	-0.332802	2.425262	-0.043356	0.089075	-0.000040	1.000000	0.000015	0.000029	0.000019	-9.949199	-75.793964	2.645633
54119	9.556090	-0.414491	2.503264	-0.116662	0.018544	0.073820	1.000000	0.000008	0.000011	0.000013	-9.946878	-75.803035	2.641860
54120	9.539995	-0.338400	2.571593	-0.177293	0.102989	0.071495	1.000000	0.000002	0.000012	0.000020	-9.958116	-75.804228	2.650962
54121	9.524727	-0.400011	2.479432	-0.101730	0.029862	0.037022	1.000000	0.000017	0.000004	0.000013	-9.957733	-75.815404	2.647392
54122	9.477247	-0.379685	2.602611	-0.229955	0.065709	0.019848	1.000000	0.000020	-0.000018	0.000022	-9.970052	-75.819942	2.659759
54123	9.540594	-0.372629	2.451262	-0.069530	0.053943	0.044428	1.000000	0.000037	-0.000032	0.000023	-9.971139	-75.829578	2.662613
54124	9.517239	-0.379205	2.452413	-0.078202	0.047643	0.022330	1.000000	0.000026	-0.000028	0.000009	-9.977688	-75.835476	2.669784
54125	9.514892	-0.383211	2.403535	-0.034491	0.036963	0.008435	1.000000	0.000031	-0.000004	0.000007	-9.969244	-75.847343	2.664881
54126	9.518609	-0.377243	2.476083	-0.103529	0.052449	0.029251	1.000000	0.000020	-0.000036	0.000009	-9.977397	-75.854231	2.672954
54127	9.583178	-0.368195	2.348849	0.034150	0.045680	0.060848	1.000000	0.000030	-0.000031	0.000029	-9.979861	-75.863056	2.678570
54128	9.549075	-0.323837	2.395728	-0.014587	0.095597	0.037179	1.000000	0.000052	0.000006	0.000007	-9.979862	-75.865197	2.682083
54129	9.592143	-0.387843	2.399023	-0.015917	0.032652	0.082443	1.000000	0.000040	0.000008	0.000020	-9.975326	-75.870173	2.676205
54130	9.553054	-0.351401	2.349279	0.026719	0.062079	0.031035	1.000000	0.000042	0.000029	0.000005	-9.974020	-75.869809	2.677206
54131	9.547354	-0.396728	2.451919	-0.080531	0.029825	0.052093	1.000000	0.000030	0.000021	0.000013	-9.968458	-75.879549	2.671520
54132	9.552779	-0.351542	2.350379	0.024089	0.061842	0.031044	1.000000	0.000036	0.000039	0.000018	-9.972912	-75.877881	2.677719
54133	9.512820	-0.352516	2.500410	-0.130649	0.079213	0.028386	1.000000	0.000028	0.000046	0.000018	-9.962575	-75.880658	2.670246
54134	9.531278	-0.354437	2.402297	-0.031668	0.065246	0.022792	1.000000	0.000046	0.000034	0.000032	-9.972426	-75.879241	2.683226
54135	9.527011	-0.327059	2.449805	-0.074748	0.098129	0.028920	1.000000	0.000028	0.000019	-0.000001	-9.958780	-75.878575	2.667029
54136	9.517685	-0.378334	2.479466	-0.111913	0.050982	0.029167	1.000000	0.000044	0.000023	0.000013	-9.960921	-75.878862	2.671832
54137	9.526826	-0.327135	2.450516	-0.076168	0.098193	0.028908	1.000000	0.000025	0.000006	0.000020	-9.965994	-75.883077	2.669587
54138	9.518771	-0.376778	2.504140	-0.136190	0.056191	0.036067	1.000000	0.000027	-0.000000	0.000027	-9.978626	-75.885673	2.683111
54139	9.530956	-0.355244	2.403453	-0.035642	0.064815	0.022781	1.000000	0.000027	-0.000019	0.000015	-9.979998	-75.898046	2.682639
54140	9.555722	-0.346928	2.425764	-0.050894	0.076489	0.051798	1.000000	0.000010	-0.000014	0.000008	-9.986738	-75.902547	2.688117
54141	9.557029	-0.345117	2.449626	-0.075515	0.081473	0.058697	1.000000	0.000022	-0.000034	0.000023	-9.995113	-75.916317	2.692389
54142	9.552294	-0.353403	2.352070	0.015318	0.061019	0.031066	1.000000	0.000017	-0.000005	0.000007	-10.000231	-75.919898	2.696952
54143	9.562437	-0.370836	2.426602	-0.056048	0.053142	0.059503	1.000000	0.000023	0.000004	0.000007	-9.992474	-75.919435	2.681831
54144	9.575761	-0.347125	2.350456	0.022915	0.067215	0.053178	1.000000	0.000017	0.000004	0.000013	-9.999648	-75.921860	2.688522
54145	9.553420	-0.351755	2.376632	-0.009389	0.065855	0.037973	1.000000	0.000017	0.000013	0.000020	-10.004764	-75.927839	2.685257
54146	9.546819	-0.328504	2.375257	-0.007083	0.088957	0.030257	1.000000	0.000023	0.000013	0.000013	-10.010313	-75.929334	2.691024
54147	9.533331	-0.352495	2.451981	-0.087307	0.074653	0.036560	1.000000	0.000021	0.000037	0.000018	-10.004980	-75.929045	2.683477
54148	9.531935	-0.354768	2.428406	-0.065011	0.069613	0.029656	1.000000	0.000021	0.000037	0.000018	-10.011117	-75.927663	2.689660
54149	9.548691	-0.325109	2.425879	-0.055296	0.098734	0.044051	1.000000	0.000028	0.000046	0.000018	-10.006979	-75.929680	2.681833
54150	9.540407	-0.374637	2.480327	-0.115388	0.056788	0.051145	1.000000	0.000013	0.000044	0.000018	-10.013266	-75.927533	2.687198
54151	9.527159	-0.328021	2.477771	-0.111125	0.102378	0.035708	1.000000	0.000023	0.000031	0.000025	-10.011786	-75.932284	2.681643
54152	9.510002	-0.358207	2.481767	-0.122668	0.073102	0.021295	1.000000	0.000021	0.000037	0.000018	-10.017886	-75.930946	2.687793
54153	9.541035	-0.373377	2.506679	-0.141200	0.061487	0.058000	1.000000	0.000036	0.000030	0.000012	-10.012584	-75.932915	2.677522
54154	9.516224	-0.381957	2.484514	-0.127030	0.050031	0.028988	1.000000	0.000031	0.000015	0.000020	-10.019982	-75.934111	2.686175
54155	9.539634	-0.375769	2.483128	-0.120841	0.056351	0.051083	1.000000	0.000031	0.000015	0.000020	-10.023853	-75.943352	2.685522
54156	9.491431	-0.390745	2.462251	-0.114782	0.038489	-0.000044	1.000000	0.000025	-0.000012	0.000008	-10.028730	-75.947828	2.690777
54157	9.531904	-0.354461	2.457242	-0.097811	0.074543	0.036462	1.000000	0.000029	0.000012	0.000006	-10.035364	-75.958832	2.684915
54158	9.514890	-0.384476	2.460692	-0.109381	0.045274	0.022044	1.000000	0.000018	-0.000002	0.000021	-10.046085	-75.962000	2.695404
54159	9.537201	-0.380258	2.434665	-0.079371	0.046035	0.037286	1.000000	0.000031	-0.000004	0.000007	-10.035982	-75.967888	2.686882
54160	9.537196	-0.380259	2.434686	-0.079945	0.046148	0.037281	1.000000	0.000023	0.000003	0.000007	-10.039397	-75.970679	2.690397
54161	9.537161	-0.380212	2.434831	-0.081648	0.046369	0.037266	1.000000	0.000021	0.000010	-0.000000	-10.042664	-75.979513	2.678912
54162	9.561786	-0.371853	2.457675	-0.096974	0.058071	0.066250	1.000000	0.000017	0.000013	0.000020	-10.051918	-75.980985	2.687658
54163	9.506983	-0.363323	2.435478	-0.088346	0.062704	0.007422	1.000000	0.000019	0.000026	-0.000001	-10.039142	-75.983635	2.674373
54164	9.560426	-0.373970	2.434032	-0.075636	0.052627	0.059375	1.000000	0.000008	0.000002	0.000007	-10.044356	-75.986632	2.677971
54165	9.529145	-0.358944	2.410077	-0.058921	0.063681	0.022677	1.000000	0.000042	0.000029	0.000005	-10.032216	-75.988908	2.660608
54166	9.556127	-0.346455	2.481579	-0.119949	0.085776	0.065374	1.000000	0.000033	-0.000001	0.000021	-10.041118	-75.991976	2.670935
54167	9.531401	-0.355091	2.459099	-0.106219	0.073945	0.036379	1.000000	0.000023	0.000013	0.000013	-10.038306	-75.996387	2.661934
54168	9.531361	-0.355275	2.459230	-0.106804	0.074057	0.036372	1.000000	0.000033	-0.000001	0.000021	-10.047203	-75.999468	2.672249
54169	9.531320	-0.355342	2.459376	-0.107645	0.073707	0.036366	1.000000	0.000044	0.000013	0.000006	-10.035881	-76.002914	2.654056
54170	9.523570	-0.333932	2.433616	-0.082457	0.091592	0.021802	1.000000	0.000031	0.000006	0.000013	-10.041186	-76.005419	2.660458
54171	9.531232	-0.355636	2.459675	-0.109742	0.073546	0.036344	1.000000	0.000035	0.000002	0.000034	-10.047556	-76.013450	2.669579
54172	9.531243	-0.355889	2.459597	-0.110333	0.073656	0.036336	1.000000	0.000025	-0.000012	0.000008	-10.052402	-76.018077	2.674731
54173	9.523529	-0.334568	2.433688	-0.085277	0.090771	0.021786	1.000000	0.000046	0.000016	0.000020	-10.039697	-76.020273	2.667448
54174	9.553450	-0.351831	2.433992	-0.080714	0.074284	0.051615	1.000000	0.000031	0.000015	0.000020	-10.047040	-76.021661	2.675982
54175	9.529908	-0.358411	2.435812	-0.090254	0.067576	0.029471	1.000000	0.000025	-0.000003	0.000014	-10.044321	-76.030352	2.667522
54176	9.529889	-0.358616	2.435859	-0.090849	0.067682	0.029465	1.000000	0.000025	0.000006	0.000020	-10.053291	-76.032712	2.676966
54177	9.552165	-0.354475	2.410002	-0.060376	0.068609	0.044760	1.000000	0.000031	0.000006	0.000013	-10.049845	-76.034610	2.669450
54178	9.554495	-0.350525	2.458727	-0.106671	0.079150	0.058429	1.000000	0.000025	0.000006	0.000020	-10.058804	-76.036973	2.678874
54179	9.527386	-0.363245	2.387717	-0.048257	0.057137	0.015773	1.000000	0.000029	0.000012	0.000006	-10.059991	-76.047548	2.671700
54180	9.551960	-0.354808	2.410767	-0.063631	0.068845	0.044738	1.000000	0.000005	0.000033	0.000005	-10.062093	-76.047201	2.671671
54181	9.553059	-0.352924	2.435366	-0.086515	0.073788	0.051570	1.000000	0.000018	-0.000002	0.000021	-10.062493	-76.047407	2.664587
54182	9.553004	-0.353313	2.435525	-0.087116	0.073894	0.051564	1.000000	0.000033	0.000017	0.000033	-10.075499	-76.048285	2.679134
54183	9.551721	-0.355627	2.411593	-0.064538	0.068372	0.044735	1.000000	0.000021	0.000019	0.000006	-10.067102	-76.047756	2.662256
54184	9.526978	-0.364102	2.389214	-0.050366	0.056866	0.015764	1.000000	0.000023	0.000003	0.000007	-10.070367	-76.050706	2.665553
54185	9.529301	-0.359985	2.437955	-0.096277	0.067031	0.029418	1.000000	0.000015	0.000011	0.000006	-10.063080	-76.050815	2.647376
54186	9.552755	-0.353754	2.436440	-0.088801	0.073508	0.051552	1.000000	0.000025	0.000006	0.000020	-10.072009	-76.053201	2.656723
54187	9.521509	-0.338990	2.412355	-0.071364	0.084455	0.014890	1.000000	0.000031	0.000015	0.000020	-10.065967	-76.053202	2.638210
54188	9.574951	-0.349940	2.410890	-0.058789	0.074320	0.066865	1.000000	0.000025	0.000006	0.000020	-10.074867	-76.055587	2.647530
54189	9.529061	-0.360908	2.438759	-0.098786	0.066748	0.029395	1.000000	0.000017	0.000013	0.000020	-10.079776	-76.059610	2.647211
54190	9.557812	-0.380215	2.414727	-0.071451	0.044992	0.052408	1.000000	0.000029	0.000012	0.000006	-10.081356	-76.061620	2.649514
54191	9.528895	-0.361238	2.439356	-0.099770	0.066503	0.029386	1.000000	0.000017	0.000022	0.000026	-10.081207	-76.060957	2.646377
54192	9.558792	-0.378570	2.439733	-0.095287	0.049995	0.059219	1.000000	0.000038	0.000014	0.000013	-10.084716	-76.062605	2.651644
54193	9.505176	-0.367952	2.441828	-0.107994	0.059947	0.007242	1.000000	0.000021	0.000028	0.000012	-10.077552	-76.056694	2.638951
54194	9.553233	-0.353217	2.463241	-0.115291	0.078037	0.058341	1.000000	0.000030	0.000021	0.000013	-10.081181	-76.057540	2.643365
54195	9.504931	-0.368235	2.442738	-0.109589	0.059805	0.007226	1.000000	0.000023	0.000022	0.000019	-10.080594	-76.060637	2.642259
54196	9.537192	-0.381412	2.491633	-0.150808	0.053816	0.050684	1.000000	0.000025	0.000006	0.000020	-10.089449	-76.063031	2.651495
54197	9.529409	-0.360013	2.466093	-0.125715	0.071170	0.036170	1.000000	0.000024	0.000040	-0.000009	-10.070892	-76.063189	2.625919
54198	9.534642	-0.385460	2.443856	-0.106473	0.043030	0.037044	1.000000	0.000016	-0.000005	0.000007	-10.075674	-76.067103	2.629973
54199	9.522804	-0.336597	2.464825	-0.124281	0.093568	0.028463	1.000000	0.000017	0.000013	0.000020	-10.066037	-76.071095	2.617529
54200	9.529225	-0.360241	2.466770	-0.127890	0.070691	0.036146	1.000000	0.000015	0.000011	0.000006	-10.069271	-76.073287	2.619809
54201	9.520346	-0.341109	2.416640	-0.079209	0.082757	0.014844	1.000000	0.000025	0.000006	0.000020	-10.065931	-76.072452	2.613612
54202	9.529138	-0.360615	2.467053	-0.128512	0.070422	0.036139	1.000000	0.000017	0.000004	0.000013	-10.072738	-76.075223	2.619782
54203	9.527946	-0.362727	2.442840	-0.105530	0.064747	0.029338	1.000000	0.000029	0.000003	0.000000	-10.058736	-76.074284	2.597505
54204	9.529098	-0.360568	2.467215	-0.128975	0.070120	0.036136	1.000000	0.000023	0.000003	0.000007	-10.061774	-76.077246	2.600549
54205	9.521429	-0.339351	2.441229	-0.104361	0.087451	0.021632	1.000000	0.000018	-0.000002	0.000021	-10.061412	-76.084567	2.593672
54206	9.551342	-0.356713	2.441543	-0.099924	0.070924	0.051464	1.000000	0.000030	0.000030	0.000019	-10.066989	-76.084300	2.600115
54207	9.544796	-0.333404	2.440039	-0.097614	0.093525	0.043773	1.000000	0.000033	-0.000010	0.000015	-10.062041	-76.089480	2.590800
54208	9.527736	-0.363354	2.443565	-0.109308	0.064295	0.029300	1.000000	0.000030	0.000021	0.000013	-10.065497	-76.090369	2.595049
54209	9.521166	-0.339916	2.442180	-0.106741	0.087071	0.021610	1.000000	0.000029	0.000012	0.000006	-10.058813	-76.091838	2.570622
54210	9.549953	-0.359231	2.418051	-0.079480	0.065242	0.044648	1.000000	0.000033	-0.000001	0.000021	-10.067366	-76.095050	2.580521
54211	9.527582	-0.363709	2.444115	-0.110253	0.063619	0.029294	1.000000	0.000040	0.000007	0.000020	-10.057024	-76.093238	2.566556
54212	9.521026	-0.340334	2.442664	-0.107812	0.086683	0.021602	1.000000	0.000021	0.000019	0.000006	-10.058464	-76.094483	2.567749
54213	9.535059	-0.385255	2.470769	-0.137457	0.045667	0.043757	1.000000	0.000046	0.000016	0.000020	-10.052189	-76.096580	2.558142
54214	9.526169	-0.366065	2.420746	-0.089328	0.058122	0.022482	1.000000	0.000029	0.000012	0.000006	-10.053469	-76.098618	2.560137
54215	9.558424	-0.379196	2.469601	-0.130624	0.051722	0.065898	1.000000	0.000027	0.000009	0.000034	-10.056000	-76.100730	2.554853
54216	9.527207	-0.364630	2.445438	-0.113391	0.063137	0.029261	1.000000	0.000033	0.000008	0.000027	-10.066574	-76.102796	2.566852
54217	9.557133	-0.381908	2.445704	-0.108552	0.046260	0.059100	1.000000	0.000029	0.000012	0.000006	-10.058862	-76.102385	2.550598
54218	9.519477	-0.343497	2.419726	-0.088249	0.080640	0.014785	1.000000	0.000025	-0.000003	0.000014	-10.065356	-76.105959	2.557396
54219	9.532419	-0.390531	2.423219	-0.095096	0.034401	0.030142	1.000000	0.000023	0.000003	0.000007	-10.058783	-76.109736	2.545854
54220	9.527072	-0.365043	2.445904	-0.115476	0.062779	0.029239	1.000000	0.000039	0.000007	0.000020	-10.065590	-76.112006	2.554711
54221	9.549339	-0.360795	2.420242	-0.085172	0.063258	0.044613	1.000000	0.000011	0.000023	-0.000008	-10.046084	-76.113172	2.528446
54222	9.525769	-0.367168	2.422152	-0.093834	0.057014	0.022447	1.000000	0.000033	-0.000001	0.000021	-10.054497	-76.116395	2.538203
54223	9.555747	-0.384556	2.422198	-0.088877	0.039880	0.052288	1.000000	0.000018	-0.000002	0.000021	-10.049615	-76.116570	2.523335
54224	9.519253	-0.344184	2.420507	-0.091379	0.079576	0.014765	1.000000	0.000023	0.000013	0.000013	-10.054518	-76.118415	2.528301
54225	9.555635	-0.384996	2.422570	-0.090601	0.039741	0.052273	1.000000	0.000017	0.000013	0.000020	-10.055878	-76.123144	2.519507
54226	9.526736	-0.365932	2.447079	-0.119016	0.061805	0.029203	1.000000	0.000038	0.000014	0.000013	-10.059001	-76.124841	2.524361
54227	9.550191	-0.359777	2.445592	-0.111395	0.067828	0.051363	1.000000	0.000010	0.000005	0.000020	-10.059543	-76.126549	2.520149
54228	9.526596	-0.366391	2.447553	-0.120055	0.061590	0.029192	1.000000	0.000038	0.000023	0.000019	-10.064755	-76.127100	2.527157
54229	9.550007	-0.360277	2.446238	-0.112428	0.067539	0.051353	1.000000	0.000017	0.000013	0.000020	-10.061921	-76.127825	2.520953
54230	9.526374	-0.366884	2.448345	-0.121087	0.061301	0.029181	1.000000	0.000030	0.000030	0.000019	-10.067243	-76.127591	2.527105
54231	9.549775	-0.360628	2.447088	-0.113501	0.067054	0.051345	1.000000	0.000029	0.000012	0.000006	-10.051840	-76.129062	2.501770
54232	9.526182	-0.366971	2.449080	-0.122160	0.060818	0.029171	1.000000	0.000021	0.000019	0.000006	-10.053042	-76.130340	2.502706
54233	9.549591	-0.360672	2.447802	-0.115119	0.066828	0.051327	1.000000	0.000029	0.000021	0.000013	-10.046605	-76.133773	2.485103
54234	9.520655	-0.341505	2.472437	-0.143505	0.088917	0.028245	1.000000	0.000029	0.000021	0.000013	-10.049768	-76.134701	2.489029
54235	9.542917	-0.337451	2.446826	-0.113512	0.089527	0.043640	1.000000	0.000031	0.000015	0.000020	-10.046274	-76.137997	2.484941
54236	9.549330	-0.361085	2.448756	-0.117240	0.066640	0.051304	1.000000	0.000008	0.000002	0.000007	-10.050724	-76.141193	2.487684
54237	9.525736	-0.367425	2.450745	-0.126066	0.059873	0.029127	1.000000	0.000042	0.000029	0.000005	-10.035295	-76.142558	2.468072
54238	9.519210	-0.343925	2.449232	-0.123557	0.082919	0.021449	1.000000	0.000016	-0.000005	0.000007	-10.039585	-76.146548	2.471622
54239	9.550342	-0.359139	2.473574	-0.142191	0.071161	0.058042	1.000000	0.000027	-0.000000	0.000027	-10.037895	-76.150422	2.461457
54240	9.495653	-0.350760	2.451001	-0.132923	0.076224	-0.000736	1.000000	0.000023	0.000012	0.000013	-10.042627	-76.152322	2.466240
54241	9.549094	-0.361703	2.449586	-0.120162	0.065525	0.051276	1.000000	0.000017	0.000004	0.000014	-10.037582	-76.152915	2.448499
54242	9.524400	-0.370290	2.427055	-0.105982	0.053923	0.022341	1.000000	0.000023	0.000003	0.000007	-10.040181	-76.155961	2.451073
54243	9.524371	-0.370352	2.427159	-0.105790	0.053310	0.022346	1.000000	0.000031	0.000005	0.000014	-10.026356	-76.154222	2.421473
54244	9.550166	-0.359813	2.474153	-0.144029	0.070452	0.058020	1.000000	0.000008	0.000002	0.000007	-10.030678	-76.157419	2.424100
54245	9.518990	-0.344982	2.449939	-0.126146	0.081550	0.021427	1.000000	0.000031	0.000014	0.000020	-10.030122	-76.155822	2.418861
54246	9.547776	-0.364373	2.425867	-0.099029	0.059572	0.044506	1.000000	0.000031	-0.000004	0.000007	-10.032539	-76.159640	2.422208
54247	9.526513	-0.366455	2.476314	-0.153285	0.063698	0.035831	1.000000	0.000029	0.000021	0.000013	-10.023734	-76.160438	2.393932
54248	9.548804	-0.362366	2.450620	-0.123021	0.064670	0.051246	1.000000	0.000031	0.000005	0.000014	-10.028241	-76.163112	2.399437
54249	9.548763	-0.362552	2.450750	-0.123464	0.064125	0.051244	1.000000	0.000025	0.000006	0.000020	-10.020839	-76.164814	2.384621
54250	9.548706	-0.362753	2.450944	-0.124077	0.064199	0.051236	1.000000	0.000023	0.000012	0.000013	-10.025439	-76.166703	2.389263
54251	9.517514	-0.347905	2.426805	-0.106382	0.075000	0.014650	1.000000	0.000023	0.000012	0.000013	-10.016367	-76.166735	2.377383
54252	9.548563	-0.363179	2.451437	-0.124957	0.063804	0.051228	1.000000	0.000041	0.000010	0.000034	-10.028544	-76.168488	2.391991
54253	9.548536	-0.363430	2.451506	-0.124249	0.063317	0.051240	1.000000	0.000016	-0.000005	0.000007	-10.016728	-76.165053	2.361072
54254	9.523799	-0.372061	2.429145	-0.110072	0.051689	0.022308	1.000000	0.000030	0.000030	0.000019	-10.021737	-76.164828	2.366910
54255	9.553673	-0.389288	2.429611	-0.105938	0.034709	0.052139	1.000000	0.000038	0.000005	0.000007	-10.013177	-76.168479	2.354109
54256	9.548330	-0.363833	2.452247	-0.126191	0.063159	0.051216	1.000000	0.000018	0.000007	0.000027	-10.025084	-76.170741	2.365725
54257	9.523599	-0.372575	2.429847	-0.111537	0.051031	0.022295	1.000000	0.000038	0.000014	0.000013	-10.014595	-76.169882	2.343458
54258	9.548178	-0.364116	2.452798	-0.126932	0.062805	0.051209	1.000000	0.000021	0.000019	0.000006	-10.015457	-76.171169	2.344036
54259	9.549270	-0.362070	2.477280	-0.149900	0.067485	0.057953	1.000000	0.000033	-0.000001	0.000021	-10.001515	-76.172069	2.306503
54260	9.553372	-0.390006	2.430681	-0.108067	0.033717	0.052120	1.000000	0.000021	0.000019	0.000006	-10.002324	-76.173354	2.307045
54261	9.548021	-0.364515	2.453351	-0.127571	0.061819	0.051207	1.000000	0.000018	-0.000002	0.000021	-10.001596	-76.172761	2.289841
54262	9.571504	-0.358293	2.451803	-0.120134	0.068154	0.073380	1.000000	0.000044	0.000013	0.000006	-10.000497	-76.174665	2.291106
54263	9.517979	-0.347656	2.453486	-0.133640	0.078196	0.021356	1.000000	0.000012	-0.000002	0.000027	-10.002535	-76.178219	2.282612
54264	9.554322	-0.388648	2.455604	-0.132653	0.038613	0.058839	1.000000	0.000023	0.000022	0.000019	-10.009052	-76.178940	2.289240
54265	9.545500	-0.369632	2.405565	-0.084155	0.050448	0.037709	1.000000	0.000029	0.000012	0.000006	-10.002113	-76.179804	2.267556
54266	9.563656	-0.337711	2.426634	-0.096306	0.085193	0.058968	1.000000	0.000023	0.000012	0.000013	-10.006503	-76.181673	2.271972
54267	9.522993	-0.373935	2.432013	-0.116024	0.049304	0.022251	1.000000	0.000015	0.000010	0.000006	-9.996629	-76.182828	2.250490
54268	9.539982	-0.344247	2.428876	-0.105345	0.078584	0.036776	1.000000	0.000038	0.000023	0.000019	-10.001350	-76.183391	2.256985
54269	9.546333	-0.367845	2.431016	-0.107855	0.054968	0.044441	1.000000	0.000015	0.000010	0.000006	-9.983810	-76.178106	2.217253
54270	9.516338	-0.350831	2.430992	-0.113254	0.071731	0.014597	1.000000	0.000033	-0.000001	0.000021	-9.991638	-76.181333	2.226392
54271	9.539776	-0.344734	2.429617	-0.105141	0.077645	0.036786	1.000000	0.000030	0.000030	0.000019	-9.984715	-76.177523	2.191185
54272	9.546117	-0.368377	2.431783	-0.109011	0.054753	0.044429	1.000000	0.000031	0.000005	0.000014	-9.988887	-76.180157	2.196340
54273	9.523667	-0.372572	2.457996	-0.139990	0.053579	0.028975	1.000000	0.000021	0.000019	0.000006	-9.976603	-76.178745	2.171288
54274	9.544822	-0.370737	2.408084	-0.086913	0.048888	0.037693	1.000000	0.000031	0.000014	0.000020	-9.982867	-76.180228	2.178604
54275	9.523480	-0.372882	2.458674	-0.140409	0.053181	0.028972	1.000000	0.000015	0.000020	0.000013	-9.972696	-76.176922	2.149620
54276	9.516973	-0.349652	2.457101	-0.137725	0.076193	0.021315	1.000000	0.000010	0.000005	0.000020	-9.982326	-76.179502	2.157907
54277	9.522210	-0.375600	2.434821	-0.118804	0.047275	0.022228	1.000000	0.000031	0.000014	0.000020	-9.975333	-76.181186	2.141354
54278	9.545652	-0.369545	2.433432	-0.111355	0.053571	0.044409	1.000000	0.000017	0.000013	0.000020	-9.983301	-76.182824	2.148697
54279	9.522071	-0.376063	2.435295	-0.120150	0.046939	0.022214	1.000000	0.000031	0.000005	0.000014	-9.975449	-76.186490	2.122471
54280	9.523153	-0.373994	2.459774	-0.143564	0.052521	0.028930	1.000000	0.000023	0.000012	0.000013	-9.979638	-76.188336	2.126679
54281	9.537898	-0.348763	2.407985	-0.087698	0.070319	0.030020	1.000000	0.000031	0.000014	0.000020	-9.976487	-76.192909	2.119712
54282	9.545406	-0.370255	2.434287	-0.114423	0.052953	0.044378	1.000000	0.000017	0.000004	0.000014	-9.982299	-76.195714	2.124826
54283	9.545340	-0.370428	2.434523	-0.113912	0.052574	0.044385	1.000000	0.000015	0.000020	0.000013	-9.973493	-76.190550	2.085102
54284	9.546384	-0.368538	2.459114	-0.137323	0.058173	0.051098	1.000000	0.000041	0.000010	0.000034	-9.985281	-76.192262	2.099282
54285	9.545186	-0.370981	2.435041	-0.115538	0.052408	0.044367	1.000000	0.000015	0.000010	0.000006	-9.980233	-76.197062	2.077819
54286	9.546286	-0.368926	2.459437	-0.138950	0.058014	0.051076	1.000000	0.000033	-0.000001	0.000021	-9.987895	-76.200293	2.086761
54287	9.522695	-0.375480	2.461320	-0.147038	0.051283	0.028885	1.000000	0.000023	0.000022	0.000019	-9.978606	-76.197928	2.058784
54288	9.521460	-0.377920	2.437395	-0.124837	0.045780	0.022161	1.000000	0.000031	0.000014	0.000020	-9.984716	-76.199420	2.065930
54289	9.546077	-0.369598	2.460145	-0.140464	0.057310	0.051059	1.000000	0.000025	-0.000003	0.000014	-9.981634	-76.204807	2.036766
54290	9.538475	-0.348550	2.434177	-0.114910	0.074737	0.036699	1.000000	0.000039	0.000016	0.000027	-9.989739	-76.205948	2.046932
54291	9.544806	-0.372304	2.436329	-0.118408	0.051260	0.044339	1.000000	0.000031	0.000014	0.000020	-9.979574	-76.205029	2.008316
54292	9.547001	-0.368138	2.485120	-0.164613	0.062485	0.057752	1.000000	0.000025	0.000006	0.000020	-9.987278	-76.207473	2.016335
54293	9.521190	-0.379140	2.438261	-0.126887	0.044646	0.022140	1.000000	0.000018	-0.000002	0.000021	-9.982425	-76.206481	1.994695
54294	9.545825	-0.370649	2.460963	-0.142234	0.056494	0.051038	1.000000	0.000028	0.000009	-0.000007	-9.976926	-76.209093	1.989448
54295	9.539336	-0.347187	2.459395	-0.139109	0.079020	0.043402	1.000000	0.000039	0.000016	0.000027	-9.972372	-76.208439	1.972412
54296	9.544567	-0.373237	2.437122	-0.120306	0.050531	0.044320	1.000000	0.000027	-0.000000	0.000028	-9.983670	-76.211461	1.984337
54297	9.568062	-0.367081	2.435562	-0.111895	0.056062	0.066526	1.000000	0.000021	0.000010	-0.000000	-9.962033	-76.208634	1.928865
54298	9.515657	-0.353995	2.461570	-0.148000	0.072288	0.021195	1.000000	0.000023	0.000012	0.000013	-9.965993	-76.210473	1.932825
54299	9.566815	-0.369479	2.411716	-0.089472	0.049993	0.059817	1.000000	0.000039	0.000007	0.000020	-9.955779	-76.208271	1.872489
54300	9.515564	-0.354301	2.461887	-0.148344	0.071896	0.021193	1.000000	0.000008	0.000002	0.000007	-9.959332	-76.211406	1.874290
54301	9.566733	-0.369784	2.411995	-0.090337	0.049404	0.059812	1.000000	0.000031	0.000014	0.000020	-9.947685	-76.211129	1.848620
54302	9.515478	-0.354563	2.462181	-0.149197	0.071329	0.021184	1.000000	0.000031	-0.000004	0.000007	-9.949329	-76.214894	1.851161
54303	9.538968	-0.348454	2.460641	-0.141060	0.077104	0.043389	1.000000	0.000025	0.000015	0.000027	-9.945652	-76.212590	1.817498
54304	9.536634	-0.353158	2.412347	-0.096092	0.065828	0.029973	1.000000	0.000023	0.000012	0.000013	-9.949512	-76.214414	1.821360
54305	9.537687	-0.351153	2.436890	-0.118642	0.070941	0.036683	1.000000	0.000017	0.000013	0.000020	-9.940961	-76.211454	1.793333
54306	9.561161	-0.345064	2.435416	-0.111170	0.077152	0.058878	1.000000	0.000031	0.000005	0.000014	-9.944670	-76.214058	1.798007
54307	9.543976	-0.375087	2.439151	-0.122433	0.047676	0.044308	1.000000	0.000025	0.000015	0.000027	-9.941496	-76.210519	1.762138
54308	9.536337	-0.354150	2.413376	-0.096772	0.064964	0.029972	1.000000	0.000023	0.000022	0.000019	-9.947422	-76.211179	1.768129
54309	9.543820	-0.375567	2.439689	-0.123233	0.047221	0.044300	1.000000	0.000016	-0.000005	0.000007	-9.935840	-76.213018	1.731933
54310	9.537379	-0.352225	2.437938	-0.120335	0.070194	0.036668	1.000000	0.000031	0.000014	0.000020	-9.941621	-76.214465	1.738742
54311	9.543705	-0.375972	2.440076	-0.124000	0.046880	0.044292	1.000000	0.000017	0.000013	0.000020	-9.936653	-76.213843	1.701306
54312	9.537225	-0.352704	2.438474	-0.121086	0.069850	0.036661	1.000000	0.000023	0.000012	0.000013	-9.940397	-76.215646	1.705042
54313	9.573489	-0.393571	2.440807	-0.119553	0.029667	0.074120	1.000000	0.000031	0.000014	0.000020	-9.931167	-76.211045	1.667342
54314	9.537063	-0.353113	2.439046	-0.121180	0.069418	0.036663	1.000000	0.000031	0.000014	0.000020	-9.936893	-76.212477	1.674085
54315	9.542263	-0.378905	2.416939	-0.102531	0.040238	0.037582	1.000000	0.000013	0.000017	-0.000001	-9.919696	-76.214285	1.625620
54316	9.520946	-0.380819	2.467259	-0.156734	0.045625	0.028763	1.000000	0.000026	-0.000010	0.000021	-9.928545	-76.218401	1.635022
54317	9.544413	-0.374782	2.465810	-0.148654	0.051181	0.050973	1.000000	0.000030	0.000030	0.000019	-9.915874	-76.214867	1.603728
54318	9.514366	-0.357674	2.466026	-0.153779	0.068014	0.021137	1.000000	0.000029	0.000012	0.000006	-9.915756	-76.216858	1.604252
54319	9.543115	-0.377173	2.442196	-0.126573	0.044985	0.044269	1.000000	0.000023	0.000012	0.000013	-9.905898	-76.215827	1.590162
54320	9.545315	-0.372917	2.490877	-0.172690	0.056533	0.057650	1.000000	0.000018	-0.000002	0.000021	-9.914797	-76.219146	1.598658
54321	9.513132	-0.360353	2.442122	-0.132326	0.061445	0.014429	1.000000	0.000023	0.000003	0.000007	-9.906984	-76.222315	1.604976
54322	9.543015	-0.377718	2.442502	-0.128390	0.044690	0.044246	1.000000	0.000017	0.000013	0.000020	-9.914350	-76.223904	1.611694
54323	9.518289	-0.386456	2.420137	-0.113190	0.032199	0.015353	1.000000	0.000023	0.000012	0.000013	-9.899768	-76.219458	1.567095
54324	9.537600	-0.352373	2.465381	-0.147653	0.072806	0.043325	1.000000	0.000039	0.000007	0.000020	-9.905233	-76.221668	1.574553
54325	9.543981	-0.375987	2.467299	-0.150519	0.049202	0.050954	1.000000	0.000016	-0.000005	0.000007	-9.888233	-76.218271	1.533013
54326	9.511746	-0.363405	2.418768	-0.110098	0.054491	0.007736	1.000000	0.000030	0.000030	0.000019	-9.892250	-76.217943	1.537820
54327	9.512789	-0.361261	2.443323	-0.131859	0.059645	0.014446	1.000000	0.000031	-0.000004	0.000007	-9.873983	-76.212780	1.478453
54328	9.535167	-0.357234	2.417539	-0.101599	0.059992	0.029955	1.000000	0.000021	0.000019	0.000006	-9.873807	-76.213936	1.477962
54329	9.566129	-0.372271	2.442358	-0.120593	0.048877	0.066462	1.000000	0.000023	0.000012	0.000013	-9.871528	-76.216843	1.425324
54330	9.559679	-0.348988	2.440668	-0.117559	0.071825	0.058844	1.000000	0.000025	0.000006	0.000020	-9.878642	-76.219181	1.432740
54331	9.534952	-0.357696	2.418321	-0.102935	0.059204	0.029946	1.000000	0.000029	0.000021	0.000013	-9.859708	-76.217208	1.361046
54332	9.529583	-0.332228	2.441037	-0.122615	0.087986	0.029020	1.000000	0.000041	0.000010	0.000034	-9.870814	-76.218829	1.374528
54333	9.541187	-0.381704	2.420742	-0.107395	0.036111	0.037546	1.000000	0.000015	0.000010	0.000006	-9.864941	-76.219006	1.345797
54334	9.535878	-0.356105	2.443243	-0.127063	0.064902	0.036620	1.000000	0.000033	-0.000001	0.000021	-9.871886	-76.222130	1.354003
54335	9.503663	-0.343649	2.394659	-0.086367	0.069546	-0.006577	1.000000	0.000023	0.000021	0.000019	-9.864981	-76.221356	1.354203
54336	9.535736	-0.356535	2.443731	-0.127988	0.064450	0.036611	1.000000	0.000031	0.000005	0.000014	-9.868253	-76.223891	1.358424
54337	9.512146	-0.362925	2.445580	-0.135985	0.057948	0.014400	1.000000	0.000023	0.000012	0.000013	-9.857834	-76.221979	1.307392
54338	9.559151	-0.350530	2.442512	-0.120366	0.070132	0.058822	1.000000	0.000023	0.000012	0.000013	-9.861191	-76.223719	1.310732
54339	9.558028	-0.352957	2.418251	-0.097462	0.063591	0.052143	1.000000	0.000018	-0.000012	0.000015	-9.848041	-76.224203	1.247365
54340	9.560211	-0.348620	2.466945	-0.143505	0.075399	0.065506	1.000000	0.000038	0.000023	0.000019	-9.851750	-76.224637	1.252810
54341	9.540746	-0.383018	2.422274	-0.110175	0.034537	0.037521	1.000000	0.000015	0.000010	0.000006	-9.846991	-76.225463	1.195243
54342	9.534292	-0.359669	2.420628	-0.107035	0.057466	0.029912	1.000000	0.000031	0.000014	0.000020	-9.852321	-76.226841	1.201575
54343	9.541731	-0.381015	2.447001	-0.134380	0.040284	0.044186	1.000000	0.000023	0.000003	0.000007	-9.847677	-76.231623	1.189021
54344	9.535307	-0.357526	2.445262	-0.131235	0.063213	0.036576	1.000000	0.000029	0.000012	0.000006	-9.847212	-76.233568	1.189167
54345	9.534145	-0.359919	2.421167	-0.107993	0.056766	0.029906	1.000000	0.000025	0.000006	0.000020	-9.838171	-76.229787	1.142558
54346	9.565131	-0.375145	2.445827	-0.126928	0.045880	0.066397	1.000000	0.000025	0.000006	0.000020	-9.845091	-76.232106	1.149753
54347	9.540433	-0.383835	2.423375	-0.112684	0.033436	0.037497	1.000000	0.000015	0.000010	0.000006	-9.832728	-76.233106	1.105525
54348	9.557503	-0.354207	2.420145	-0.101391	0.062399	0.052111	1.000000	0.000038	0.000023	0.000019	-9.836366	-76.233538	1.110873
54349	9.516672	-0.390291	2.425874	-0.121187	0.026796	0.015274	1.000000	0.000028	0.000027	0.000005	-9.814497	-76.229500	1.023888
54350	9.558420	-0.352026	2.445157	-0.124446	0.067749	0.058788	1.000000	0.000016	-0.000005	0.000007	-9.817179	-76.233315	1.025748
54351	9.517694	-0.388317	2.450434	-0.144444	0.032616	0.021945	1.000000	0.000027	0.000009	0.000034	-9.825218	-76.231479	1.048224
54352	9.557224	-0.354921	2.421140	-0.102288	0.061623	0.052107	1.000000	0.000023	0.000012	0.000013	-9.828410	-76.233199	1.051364
54353	9.534719	-0.359036	2.447334	-0.132357	0.061102	0.036574	1.000000	0.000023	0.000012	0.000013	-9.815998	-76.227515	0.986061
54354	9.541024	-0.382663	2.449502	-0.136743	0.038240	0.044161	1.000000	0.000023	0.000012	0.000013	-9.819157	-76.229219	0.989157
54355	9.542057	-0.380520	2.474038	-0.159826	0.043928	0.050833	1.000000	0.000023	0.000012	0.000013	-9.811748	-76.229965	0.948475
54356	9.532275	-0.364039	2.399632	-0.088471	0.048807	0.023207	1.000000	0.000038	0.000023	0.000019	-9.815291	-76.230371	0.953698
54357	9.534349	-0.359551	2.448698	-0.133197	0.060200	0.036569	1.000000	0.000028	0.000027	0.000005	-9.794784	-76.223510	0.902110
54358	9.533170	-0.362133	2.424676	-0.111072	0.054199	0.029886	1.000000	0.000005	-0.000001	0.000034	-9.810684	-76.226331	0.916248
54359	9.509574	-0.368621	2.426505	-0.119274	0.047824	0.007664	1.000000	0.000028	0.000018	-0.000001	-9.796337	-76.224779	0.897990
54360	9.557694	-0.353895	2.447725	-0.126283	0.065887	0.058778	1.000000	0.000025	0.000006	0.000020	-9.803070	-76.227055	0.904963
54361	9.534094	-0.360347	2.449572	-0.134029	0.059175	0.036564	1.000000	0.000023	0.000012	0.000013	-9.784440	-76.223622	0.826234
54362	9.532929	-0.362695	2.425539	-0.111909	0.053143	0.029882	1.000000	0.000029	0.000012	0.000006	-9.783711	-76.225503	0.826081
54363	9.556393	-0.356442	2.424195	-0.103757	0.058717	0.052109	1.000000	0.000021	0.000019	0.000006	-9.770897	-76.223379	0.785874
54364	9.533864	-0.360627	2.450427	-0.135153	0.058817	0.036550	1.000000	0.000041	0.000010	0.000034	-9.781616	-76.224932	0.798896
54365	9.558479	-0.352341	2.473120	-0.150263	0.070498	0.065442	1.000000	0.000016	-0.000005	0.000007	-9.772325	-76.228918	0.756838
54366	9.539048	-0.386678	2.428371	-0.117510	0.029498	0.037453	1.000000	0.000028	0.000027	0.000005	-9.770039	-76.229064	0.754881
54367	9.534773	-0.358840	2.475362	-0.158646	0.064003	0.043216	1.000000	0.000027	0.000009	0.000034	-9.764969	-76.225941	0.698063
54368	9.533646	-0.361468	2.451151	-0.136537	0.057920	0.036537	1.000000	0.000025	-0.000003	0.000014	-9.769431	-76.229345	0.702695
54369	9.508965	-0.370196	2.428651	-0.121423	0.045182	0.007650	1.000000	0.000031	0.000014	0.000020	-9.753831	-76.224320	0.620321
54370	9.533533	-0.361759	2.451549	-0.136506	0.057295	0.036541	1.000000	0.000029	0.000012	0.000006	-9.752976	-76.226180	0.620035
54371	9.533467	-0.361818	2.451797	-0.136912	0.057073	0.036536	1.000000	0.000023	0.000012	0.000013	-9.748456	-76.227072	0.590386
54372	9.525979	-0.340962	2.425646	-0.110842	0.073811	0.022279	1.000000	0.000028	-0.000007	0.000035	-9.762309	-76.230500	0.605100
54373	9.533380	-0.362239	2.452073	-0.138130	0.056953	0.036520	1.000000	0.000040	0.000026	-0.000008	-9.747923	-76.231602	0.581601
54374	9.532234	-0.364399	2.428012	-0.116031	0.050820	0.029847	1.000000	0.000016	-0.000005	0.000007	-9.750290	-76.235355	0.583090
54375	9.556831	-0.356124	2.450769	-0.130106	0.062449	0.058750	1.000000	0.000033	0.000017	0.000033	-9.746822	-76.230497	0.547564
54376	9.538486	-0.388408	2.430302	-0.120160	0.027493	0.037427	1.000000	0.000023	0.000003	0.000007	-9.747541	-76.233296	0.548114
54377	9.532095	-0.365062	2.428461	-0.115841	0.049870	0.029854	1.000000	0.000025	0.000006	0.000020	-9.741790	-76.230344	0.547872
54378	9.533156	-0.362897	2.452847	-0.139067	0.056054	0.036512	1.000000	0.000023	0.000003	0.000007	-9.742485	-76.233134	0.548391
54379	9.525653	-0.341840	2.426805	-0.112213	0.072167	0.022276	1.000000	0.000031	0.000014	0.000020	-9.731720	-76.230147	0.522153
54380	9.515847	-0.392992	2.456852	-0.151598	0.026697	0.021855	1.000000	0.000025	0.000006	0.000020	-9.738181	-76.232374	0.528825
54381	9.555443	-0.359506	2.427484	-0.108926	0.054976	0.052075	1.000000	0.000015	0.000010	0.000006	-9.729223	-76.233173	0.467842
54382	9.539273	-0.387055	2.455623	-0.144332	0.032402	0.044074	1.000000	0.000031	0.000014	0.000020	-9.734049	-76.234458	0.473589
54383	9.548981	-0.336345	2.425909	-0.105368	0.077454	0.044498	1.000000	0.000025	-0.000003	0.000014	-9.726283	-76.234368	0.423044
54384	9.556407	-0.357731	2.452187	-0.132626	0.060832	0.058727	1.000000	0.000025	0.000006	0.000020	-9.732706	-76.236592	0.429663
54385	9.508143	-0.372691	2.431489	-0.125829	0.042142	0.007608	1.000000	0.000029	0.000021	0.000013	-9.715399	-76.231449	0.367171
54386	9.555149	-0.360352	2.428518	-0.110048	0.053982	0.052068	1.000000	0.000023	0.000012	0.000013	-9.718127	-76.233072	0.369780
54387	9.531537	-0.366830	2.430384	-0.118305	0.047598	0.029836	1.000000	0.000033	0.000008	0.000027	-9.711867	-76.232456	0.311187
54388	9.548700	-0.337335	2.426879	-0.106598	0.076361	0.044493	1.000000	0.000008	0.000002	0.000007	-9.714146	-76.235374	0.311600
54389	9.507943	-0.373479	2.432150	-0.126681	0.041128	0.007601	1.000000	0.000018	-0.000003	0.000021	-9.707090	-76.233216	0.298165
54390	9.531430	-0.367234	2.430742	-0.119063	0.047040	0.029829	1.000000	0.000040	0.000026	-0.000008	-9.696962	-76.233698	0.289608
54391	9.532421	-0.365073	2.455378	-0.141648	0.053002	0.036492	1.000000	0.000020	0.000009	0.000041	-9.702291	-76.231852	0.249765
54392	9.531236	-0.367864	2.431406	-0.119574	0.046729	0.029825	1.000000	0.000023	0.000021	0.000019	-9.707088	-76.232315	0.254502
54393	9.525901	-0.342228	2.453991	-0.137765	0.075420	0.028924	1.000000	0.000031	0.000005	0.000014	-9.698828	-76.229554	0.253263
54394	9.531086	-0.368153	2.431951	-0.119805	0.046302	0.029824	1.000000	0.000029	0.000021	0.000013	-9.699843	-76.230209	0.254854
54395	9.533147	-0.363592	2.480925	-0.164391	0.058205	0.043157	1.000000	0.000029	0.000021	0.000013	-9.680645	-76.223990	0.187872
54396	9.525641	-0.342612	2.454948	-0.138179	0.074751	0.028924	1.000000	0.000025	0.000006	0.000020	-9.686884	-76.226166	0.194283
54397	9.530835	-0.368685	2.432856	-0.119872	0.045123	0.029828	1.000000	0.000031	0.000014	0.000020	-9.678127	-76.225348	0.160640
54398	9.532895	-0.364151	2.481812	-0.165670	0.057768	0.043139	1.000000	0.000013	0.000026	0.000005	-9.677146	-76.225551	0.158245
54399	9.531748	-0.366578	2.457764	-0.143348	0.051082	0.036478	1.000000	0.000025	-0.000003	0.000014	-9.668694	-76.227684	0.097158
54400	9.531702	-0.366657	2.457930	-0.143901	0.051091	0.036470	1.000000	0.000021	0.000019	0.000006	-9.667579	-76.228679	0.095589
54401	9.508085	-0.372933	2.459827	-0.151774	0.044654	0.014238	1.000000	0.000031	0.000005	0.000014	-9.650889	-76.226321	0.005985
54402	9.554053	-0.362962	2.432439	-0.113321	0.049996	0.052052	1.000000	0.000023	0.000012	0.000013	-9.653386	-76.227899	0.008341
54403	9.523028	-0.348149	2.408017	-0.095162	0.060422	0.015593	1.000000	0.000031	0.000005	0.000014	-9.651343	-76.229730	0.009233
54404	9.530408	-0.369493	2.434402	-0.122532	0.043972	0.029801	1.000000	0.000025	0.000006	0.000020	-9.657488	-76.231899	0.015545
54405	9.530356	-0.369618	2.434590	-0.122667	0.043480	0.029801	1.000000	0.000029	0.000012	0.000006	-9.641825	-76.231433	-0.040325
54406	9.553846	-0.363385	2.433186	-0.115020	0.049330	0.052036	1.000000	0.000029	0.000012	0.000006	-9.640526	-76.233211	-0.041124
54407	9.531301	-0.367358	2.459382	-0.146152	0.049478	0.036445	1.000000	0.000031	0.000014	0.000020	-9.632607	-76.233341	-0.086971
54408	9.531236	-0.367606	2.459595	-0.146704	0.049485	0.036436	1.000000	0.000025	0.000006	0.000020	-9.638701	-76.235510	-0.080707
54409	9.524858	-0.344380	2.457735	-0.142623	0.071911	0.028881	1.000000	0.000025	0.000006	0.000020	-9.633234	-76.235646	-0.113186
54410	9.530036	-0.370405	2.435722	-0.124839	0.042673	0.029778	1.000000	0.000029	0.000021	0.000013	-9.634043	-76.236279	-0.111805
54411	9.529945	-0.370525	2.436057	-0.124798	0.042191	0.029780	1.000000	0.000023	0.000012	0.000013	-9.622933	-76.234521	-0.152724
54412	9.554521	-0.362170	2.458878	-0.139735	0.054455	0.058666	1.000000	0.000025	0.000006	0.000020	-9.628980	-76.236683	-0.146509
54413	9.507359	-0.374709	2.462359	-0.156352	0.042550	0.014176	1.000000	0.000029	0.000012	0.000006	-9.620170	-76.236508	-0.169591
54414	9.530840	-0.368605	2.460982	-0.148696	0.048376	0.036412	1.000000	0.000031	0.000014	0.000020	-9.624596	-76.237726	-0.164288
54415	9.530787	-0.368728	2.461170	-0.149016	0.047981	0.036409	1.000000	0.000023	0.000003	0.000007	-9.612541	-76.239285	-0.215587
54416	9.523348	-0.347734	2.434998	-0.122675	0.064339	0.022205	1.000000	0.000025	0.000006	0.000020	-9.618555	-76.241447	-0.209411
54417	9.529634	-0.371498	2.437128	-0.126279	0.040783	0.029767	1.000000	0.000025	0.000006	0.000020	-9.602807	-76.236563	-0.290931
54418	9.530632	-0.369323	2.461678	-0.149405	0.047274	0.036407	1.000000	0.000029	0.000021	0.000013	-9.603511	-76.237179	-0.289663
54419	9.530521	-0.369421	2.462095	-0.149725	0.046941	0.036403	1.000000	0.000029	0.000021	0.000013	-9.593386	-76.236648	-0.339874
54420	9.554002	-0.363437	2.460706	-0.142054	0.052737	0.058642	1.000000	0.000010	0.000005	0.000020	-9.601049	-76.238948	-0.333727
54421	9.523023	-0.348794	2.436117	-0.123280	0.062745	0.022208	1.000000	0.000033	-0.000001	0.000021	-9.592324	-76.238582	-0.386114
54422	9.529324	-0.372276	2.438220	-0.128200	0.039943	0.029746	1.000000	0.000028	0.000009	-0.000007	-9.585011	-76.240890	-0.393319
54423	9.553905	-0.363757	2.461033	-0.142336	0.051713	0.058644	1.000000	0.000033	0.000008	0.000027	-9.573205	-76.238813	-0.512055
54424	9.553820	-0.363986	2.461329	-0.142883	0.051714	0.058636	1.000000	0.000029	0.000021	0.000013	-9.573822	-76.239421	-0.510875
54425	9.547400	-0.340654	2.459673	-0.138524	0.074136	0.051095	1.000000	0.000031	0.000014	0.000020	-9.565376	-76.238234	-0.580040
54426	9.529053	-0.372905	2.439182	-0.129208	0.038994	0.029736	1.000000	0.000025	-0.000003	0.000014	-9.569072	-76.241517	-0.576260
54427	9.551526	-0.369244	2.413283	-0.098988	0.037967	0.045339	1.000000	0.000016	0.000004	0.000014	-9.567383	-76.244201	-0.603019
54428	9.522652	-0.349600	2.437453	-0.125859	0.061613	0.022182	1.000000	0.000050	0.000021	0.000006	-9.562491	-76.244861	-0.605034
54429	9.527804	-0.375520	2.415566	-0.107905	0.031777	0.023083	1.000000	0.000031	0.000014	0.000020	-9.554044	-76.243742	-0.656822
54430	9.528802	-0.373251	2.440110	-0.130991	0.038405	0.029715	1.000000	0.000029	0.000012	0.000007	-9.552446	-76.245493	-0.657935
54431	9.545972	-0.343702	2.436696	-0.118332	0.066534	0.044430	1.000000	0.000016	0.000013	0.000020	-9.545632	-76.244432	-0.727883
54432	9.529727	-0.371232	2.464892	-0.154167	0.044678	0.036345	1.000000	0.000023	0.000012	0.000013	-9.547774	-76.245980	-0.725906
54433	9.529661	-0.371291	2.465140	-0.154554	0.044440	0.036340	1.000000	0.000029	0.000012	0.000007	-9.539741	-76.246830	-0.742738
54434	9.552098	-0.367603	2.439409	-0.124323	0.043506	0.051950	1.000000	0.000025	0.000006	0.000020	-9.545531	-76.248970	-0.736803
54435	9.528442	-0.373959	2.441409	-0.133008	0.037431	0.029692	1.000000	0.000036	0.000029	0.000012	-9.531889	-76.248242	-0.820738
54436	9.550825	-0.370440	2.415874	-0.102780	0.036452	0.045306	1.000000	0.000026	0.000008	0.000034	-9.543477	-76.249833	-0.808620
54437	9.503645	-0.383102	2.419354	-0.119420	0.024591	0.000796	1.000000	0.000015	0.000010	0.000006	-9.530833	-76.249400	-0.866550
54438	9.552845	-0.366387	2.464755	-0.148487	0.049424	0.058565	1.000000	0.000022	0.000003	0.000048	-9.549823	-76.251381	-0.847362
54439	9.521840	-0.351790	2.440308	-0.129620	0.059345	0.022147	1.000000	0.000028	0.000018	-0.000001	-9.532437	-76.249284	-0.895291
54440	9.529154	-0.372881	2.466858	-0.157261	0.043301	0.036303	1.000000	0.000031	0.000005	0.000014	-9.534394	-76.251622	-0.892545
54441	9.526984	-0.377846	2.418437	-0.112161	0.029197	0.023043	1.000000	0.000025	0.000006	0.000020	-9.521504	-76.250255	-0.965217
54442	9.522728	-0.349756	2.465221	-0.153107	0.065456	0.028769	1.000000	0.000029	0.000021	0.000013	-9.521929	-76.250854	-0.964241
54443	9.521594	-0.352285	2.441198	-0.130549	0.058218	0.022142	1.000000	0.000016	0.000004	0.000014	-9.512288	-76.249981	-1.003687
54444	9.527836	-0.375842	2.443484	-0.135716	0.035454	0.029662	1.000000	0.000036	0.000020	0.000006	-9.508922	-76.250776	-1.005857
54445	9.546048	-0.343979	2.464453	-0.145469	0.070440	0.051022	1.000000	0.000033	0.000017	0.000033	-9.511704	-76.249273	-1.033150
54446	9.526613	-0.378839	2.419744	-0.113925	0.028445	0.023025	1.000000	0.000018	-0.000003	0.000021	-9.518955	-76.252341	-1.026480
54447	9.527650	-0.376545	2.444100	-0.135990	0.034541	0.029662	1.000000	0.000021	0.000010	-0.000000	-9.494925	-76.248883	-1.118653
54448	9.544856	-0.346839	2.440619	-0.123588	0.062950	0.044389	1.000000	0.000015	0.000010	0.000006	-9.494814	-76.250759	-1.119969
54449	9.545848	-0.344581	2.465143	-0.146055	0.069289	0.051022	1.000000	0.000031	0.000014	0.000020	-9.487064	-76.248676	-1.137381
54450	9.527461	-0.376870	2.444786	-0.137061	0.034059	0.029649	1.000000	0.000039	0.000007	0.000021	-9.490944	-76.250641	-1.131694
54451	9.521099	-0.353542	2.442946	-0.132843	0.056849	0.022119	1.000000	0.000023	0.000012	0.000013	-9.489188	-76.252164	-1.218125
54452	9.543545	-0.349973	2.417223	-0.102624	0.055641	0.037748	1.000000	0.000025	0.000006	0.000020	-9.494771	-76.254281	-1.212421
54453	9.526257	-0.379903	2.420979	-0.115036	0.026500	0.023018	1.000000	0.000033	-0.000001	0.000021	-9.479849	-76.250665	-1.280462
54454	9.550848	-0.371471	2.443715	-0.129758	0.039000	0.051899	1.000000	0.000015	0.000010	0.000006	-9.479670	-76.252528	-1.281864
54455	9.527207	-0.377829	2.445629	-0.137767	0.032571	0.029644	1.000000	0.000039	0.000016	0.000027	-9.462166	-76.248698	-1.375363
54456	9.526076	-0.380531	2.421591	-0.115846	0.025658	0.023010	1.000000	0.000025	0.000006	0.000020	-9.467659	-76.250799	-1.369746
54457	9.520768	-0.354765	2.444058	-0.133623	0.054767	0.022120	1.000000	0.000021	0.000019	0.000006	-9.450007	-76.249321	-1.444997
54458	9.551634	-0.369809	2.468933	-0.153110	0.044570	0.058517	1.000000	0.000033	-0.000001	0.000021	-9.455362	-76.252214	-1.438555
54459	9.544251	-0.349056	2.442671	-0.125533	0.059617	0.044386	1.000000	0.000018	0.000007	0.000027	-9.448438	-76.248808	-1.417957
54460	9.526903	-0.378907	2.446644	-0.139156	0.031264	0.029628	1.000000	0.000036	0.000020	0.000006	-9.444851	-76.249564	-1.420364
54461	9.543039	-0.351649	2.418979	-0.103777	0.052459	0.037753	1.000000	0.000015	0.000010	0.000006	-9.438197	-76.249349	-1.457771
54462	9.526832	-0.379088	2.446892	-0.139868	0.031048	0.029619	1.000000	0.000020	-0.000018	0.000022	-9.446703	-76.254113	-1.449619
54463	9.545119	-0.347278	2.467589	-0.149697	0.066182	0.050988	1.000000	0.000029	0.000030	0.000019	-9.443515	-76.253430	-1.491358
54464	9.521462	-0.353562	2.469561	-0.158536	0.060573	0.028714	1.000000	0.000023	0.000003	0.000007	-9.443100	-76.256070	-1.492037
54465	9.549158	-0.375889	2.421614	-0.110124	0.028928	0.045252	1.000000	0.000016	0.000013	0.000020	-9.432274	-76.254030	-1.543144
54466	9.520312	-0.356218	2.445622	-0.136569	0.053014	0.022090	1.000000	0.000029	0.000003	0.000000	-9.428060	-76.256866	-1.546972
54467	9.550095	-0.373659	2.446320	-0.133230	0.035375	0.051866	1.000000	0.000031	0.000023	0.000026	-9.418949	-76.254575	-1.609995
54468	9.550029	-0.373720	2.446568	-0.133767	0.035363	0.051859	1.000000	0.000021	0.000001	-0.000007	-9.412638	-76.257757	-1.616944
54469	9.520141	-0.356227	2.446288	-0.137012	0.051933	0.022089	1.000000	0.000044	0.000013	0.000007	-9.394190	-76.255058	-1.659928
54470	9.544674	-0.347836	2.469230	-0.151666	0.064499	0.050969	1.000000	0.000033	0.000017	0.000034	-9.403754	-76.255649	-1.649140
54471	9.543544	-0.350445	2.445232	-0.128412	0.056537	0.044367	1.000000	0.000021	0.000010	-0.000000	-9.372650	-76.250082	-1.765894
54472	9.531453	-0.406111	2.426917	-0.124676	-0.001490	0.030478	1.000000	0.000025	0.000006	0.000020	-9.377917	-76.252151	-1.760502
54473	9.549733	-0.374151	2.447659	-0.133650	0.033241	0.051868	1.000000	0.000029	0.000012	0.000007	-9.360058	-76.249530	-1.822306
54474	9.518782	-0.359321	2.423113	-0.115160	0.043320	0.015469	1.000000	0.000016	0.000004	0.000014	-9.363227	-76.251940	-1.820042
54475	9.548573	-0.376757	2.423785	-0.111758	0.025697	0.045242	1.000000	0.000021	0.000019	0.000006	-9.349351	-76.249610	-1.857868
54476	9.519688	-0.357216	2.447905	-0.138081	0.049908	0.022085	1.000000	0.000041	0.000010	0.000034	-9.358700	-76.250975	-1.846340
54477	9.526917	-0.378492	2.474634	-0.165623	0.033758	0.036203	1.000000	0.000028	0.000027	0.000005	-9.345759	-76.248668	-1.818669
54478	9.542041	-0.353685	2.422616	-0.108067	0.047879	0.037731	1.000000	0.000031	-0.000004	0.000008	-9.345015	-76.252065	-1.818710
54479	9.542013	-0.353753	2.422715	-0.107529	0.047083	0.037740	1.000000	0.000023	0.000012	0.000013	-9.327088	-76.247276	-1.863246
54480	9.542993	-0.351457	2.447235	-0.130469	0.054133	0.044353	1.000000	0.000023	0.000012	0.000013	-9.328591	-76.248729	-1.861928
54481	9.548161	-0.377456	2.425301	-0.113037	0.024061	0.045232	1.000000	0.000029	0.000012	0.000007	-9.321164	-76.247363	-1.841891
54482	9.541832	-0.354005	2.423393	-0.108627	0.046744	0.037730	1.000000	0.000031	0.000005	0.000014	-9.322550	-76.249605	-1.839739
54483	9.524487	-0.383751	2.427324	-0.122040	0.018070	0.022952	1.000000	0.000037	0.000014	0.000013	-9.308925	-76.248732	-1.922014
54484	9.520197	-0.355690	2.474132	-0.162409	0.054929	0.028684	1.000000	0.000010	0.000023	0.000033	-9.320102	-76.248639	-1.912247
54485	9.542625	-0.352294	2.448551	-0.131447	0.052768	0.044348	1.000000	0.000015	0.000010	0.000006	-9.302669	-76.246193	-1.987285
54486	9.525300	-0.382090	2.452385	-0.145303	0.024535	0.029559	1.000000	0.000033	-0.000001	0.000021	-9.307652	-76.249023	-1.981222
54487	9.541521	-0.355142	2.424448	-0.109903	0.045369	0.037722	1.000000	0.000025	0.000006	0.000020	-9.305331	-76.249987	-2.018094
54488	9.524207	-0.385003	2.428224	-0.123778	0.017145	0.022932	1.000000	0.000025	-0.000003	0.000014	-9.308233	-76.253163	-2.015140
54489	9.542501	-0.352955	2.448940	-0.133117	0.052327	0.044328	1.000000	0.000036	0.000020	0.000006	-9.297925	-76.252766	-2.082869
54490	9.542419	-0.352916	2.449264	-0.133645	0.052306	0.044321	1.000000	0.000029	0.000012	0.000007	-9.295574	-76.254407	-2.084767
54491	9.525032	-0.382570	2.453349	-0.146993	0.023626	0.029536	1.000000	0.000044	0.000022	0.000013	-9.276930	-76.251575	-2.190138
54492	9.518693	-0.359130	2.451491	-0.142444	0.046282	0.022040	1.000000	0.000008	0.000002	0.000007	-9.277820	-76.254300	-2.191184
54493	9.523899	-0.385373	2.429375	-0.125470	0.016049	0.022913	1.000000	0.000035	0.000001	0.000035	-9.278779	-76.255355	-2.217766
54494	9.541155	-0.356000	2.425763	-0.112558	0.044181	0.037698	1.000000	0.000015	0.000010	0.000006	-9.278068	-76.257140	-2.219692
54495	9.541086	-0.356142	2.426013	-0.112359	0.043716	0.037702	1.000000	0.000031	0.000014	0.000020	-9.268349	-76.254153	-2.290027
54496	9.518473	-0.360058	2.452208	-0.143601	0.045455	0.022027	1.000000	0.000031	0.000014	0.000020	-9.271763	-76.255242	-2.285779
54497	9.549297	-0.375130	2.477160	-0.162192	0.034829	0.058411	1.000000	0.000031	0.000005	0.000014	-9.252708	-76.251380	-2.384871
54498	9.540905	-0.356739	2.426637	-0.112864	0.042937	0.037700	1.000000	0.000025	0.000006	0.000021	-9.257663	-76.253401	-2.379802
54499	9.541867	-0.354430	2.451193	-0.135571	0.050146	0.044305	1.000000	0.000044	0.000022	0.000013	-9.252752	-76.252929	-2.421322
54500	9.547028	-0.380455	2.429288	-0.118922	0.020184	0.045171	1.000000	0.000008	0.000002	0.000007	-9.253552	-76.255641	-2.422469
54501	9.517142	-0.363287	2.428956	-0.122444	0.037151	0.015407	1.000000	0.000016	0.000013	0.000020	-9.251773	-76.255784	-2.456806
54502	9.517070	-0.363394	2.429223	-0.122968	0.037128	0.015400	1.000000	0.000044	0.000013	0.000007	-9.247603	-76.257264	-2.458860
54503	9.540609	-0.357371	2.427710	-0.114612	0.042191	0.037683	1.000000	0.000018	-0.000003	0.000021	-9.245913	-76.257151	-2.462536
54504	9.546812	-0.381158	2.430025	-0.120328	0.019514	0.045156	1.000000	0.000023	0.000021	0.000019	-9.249368	-76.257434	-2.459217
54505	9.540439	-0.357758	2.428318	-0.115449	0.041850	0.037674	1.000000	0.000036	0.000020	0.000006	-9.235108	-76.257049	-2.536521
54506	9.546637	-0.381321	2.430689	-0.121193	0.019178	0.045146	1.000000	0.000016	0.000004	0.000014	-9.237939	-76.259413	-2.534611
54507	9.534064	-0.334480	2.426607	-0.110779	0.064006	0.030194	1.000000	0.000023	0.000012	0.000013	-9.229994	-76.257692	-2.520524
54508	9.547568	-0.379218	2.455315	-0.144063	0.026004	0.051743	1.000000	0.000025	0.000006	0.000021	-9.234889	-76.259707	-2.515525
54509	9.541243	-0.355967	2.453399	-0.139188	0.048428	0.044264	1.000000	0.000031	0.000014	0.000020	-9.234860	-76.259558	-2.492253
54510	9.541159	-0.356198	2.453691	-0.139712	0.048403	0.044256	1.000000	0.000031	0.000014	0.000020	-9.238173	-76.260632	-2.488119
54511	9.534849	-0.332822	2.451745	-0.134146	0.070482	0.036790	1.000000	0.000023	0.000003	0.000007	-9.223453	-76.258073	-2.524772
54512	9.522709	-0.388513	2.433537	-0.131137	0.012408	0.022844	1.000000	0.000023	0.000012	0.000013	-9.224661	-76.259484	-2.523775
54513	9.541010	-0.356531	2.454225	-0.139750	0.047356	0.044261	1.000000	0.000031	0.000005	0.000014	-9.217972	-76.257621	-2.497661
54514	9.564534	-0.350530	2.452778	-0.131908	0.052758	0.066539	1.000000	0.000023	0.000012	0.000013	-9.219167	-76.259026	-2.496682
54515	9.522550	-0.388894	2.434096	-0.131331	0.011361	0.022843	1.000000	0.000031	0.000005	0.000014	-9.205772	-76.257041	-2.540963
54516	9.564457	-0.350759	2.453044	-0.132228	0.052153	0.066538	1.000000	0.000008	0.000002	0.000007	-9.206436	-76.259724	-2.542258
54517	9.539797	-0.359529	2.430578	-0.117932	0.038906	0.037657	1.000000	0.000031	0.000014	0.000020	-9.197071	-76.255849	-2.590506
54518	9.518207	-0.360952	2.481015	-0.171475	0.048156	0.028566	1.000000	0.000016	0.000013	0.000020	-9.201980	-76.257042	-2.586463
54519	9.515034	-0.368624	2.408473	-0.104331	0.025650	0.008767	1.000000	0.000023	0.000012	0.000013	-9.191504	-76.254422	-2.632678
54520	9.563152	-0.354033	2.429728	-0.110425	0.043793	0.059936	1.000000	0.000023	0.000012	0.000013	-9.192628	-76.255809	-2.631778
54521	9.538491	-0.362771	2.407278	-0.096650	0.030721	0.031048	1.000000	0.000031	0.000005	0.000014	-9.184580	-76.256089	-2.704329
54522	9.541534	-0.355435	2.480258	-0.164108	0.052860	0.050839	1.000000	0.000023	0.000012	0.000013	-9.185687	-76.257475	-2.703448
54523	9.562976	-0.354511	2.430352	-0.111447	0.043316	0.059926	1.000000	0.000016	0.000013	0.000020	-9.187815	-76.257595	-2.698488
54524	9.523024	-0.388141	2.460260	-0.156323	0.017255	0.029405	1.000000	0.000041	0.000010	0.000034	-9.196744	-76.258890	-2.687423
54525	9.539220	-0.361221	2.432593	-0.120144	0.037158	0.037637	1.000000	0.000028	0.000027	0.000006	-9.174119	-76.254503	-2.748918
54526	9.533944	-0.335242	2.454932	-0.137661	0.067167	0.036765	1.000000	0.000016	-0.000005	0.000007	-9.174573	-76.257963	-2.749473
54527	9.538101	-0.363880	2.408656	-0.098359	0.029401	0.031035	1.000000	0.000031	0.000014	0.000020	-9.170564	-76.255988	-2.770182
54528	9.540096	-0.359142	2.457395	-0.143487	0.044203	0.044222	1.000000	0.000025	0.000006	0.000021	-9.175280	-76.257962	-2.765382
54529	9.538991	-0.361825	2.433402	-0.121186	0.036436	0.037627	1.000000	0.000029	0.000021	0.000013	-9.167615	-76.255325	-2.771226
54530	9.538922	-0.361966	2.433652	-0.121702	0.036404	0.037621	1.000000	0.000016	0.000004	0.000014	-9.170235	-76.257638	-2.769552
54531	9.540923	-0.357209	2.482352	-0.166467	0.051070	0.050809	1.000000	0.000016	0.000013	0.000020	-9.168491	-76.256889	-2.820630
54532	9.538808	-0.362493	2.434017	-0.122386	0.036161	0.037613	1.000000	0.000025	0.000006	0.000021	-9.173186	-76.258858	-2.815860
54533	9.545987	-0.383617	2.460772	-0.149848	0.020422	0.051670	1.000000	0.000028	0.000027	0.000006	-9.157307	-76.254486	-2.826691
54534	9.532420	-0.339128	2.432414	-0.117379	0.058200	0.030153	1.000000	0.000016	-0.000005	0.000007	-9.157704	-76.257930	-2.827316
54535	9.538647	-0.362765	2.434611	-0.123060	0.035455	0.037607	1.000000	0.000039	0.000007	0.000021	-9.153724	-76.258976	-2.923926
54536	9.539630	-0.360420	2.459015	-0.145861	0.042902	0.044193	1.000000	0.000031	0.000005	0.000014	-9.154621	-76.261139	-2.922310
54537	9.537534	-0.365513	2.410652	-0.101089	0.027290	0.031013	1.000000	0.000015	0.000010	0.000006	-9.140383	-76.258440	-2.911078
54538	9.539515	-0.360641	2.459428	-0.146180	0.042197	0.044191	1.000000	0.000031	0.000014	0.000020	-9.143449	-76.259458	-2.907218
54539	9.539447	-0.360972	2.459643	-0.146511	0.042041	0.044187	1.000000	0.000018	0.000006	0.000027	-9.148360	-76.260156	-2.913737
54540	9.560953	-0.359951	2.409587	-0.094064	0.032406	0.053295	1.000000	0.000036	0.000002	-0.000006	-9.139612	-76.263054	-2.921498
54541	9.539338	-0.361001	2.460064	-0.147051	0.041873	0.044179	1.000000	0.000029	0.000030	0.000019	-9.139902	-76.259431	-2.911255
54542	9.530975	-0.342786	2.409643	-0.097605	0.049506	0.023541	1.000000	0.000018	-0.000003	0.000021	-9.146108	-76.262324	-2.905702
54543	9.539238	-0.361478	2.460381	-0.148368	0.041921	0.044160	1.000000	0.000031	0.000005	0.000014	-9.152920	-76.266011	-2.843381
54544	9.544393	-0.387703	2.438481	-0.131952	0.011810	0.045019	1.000000	0.000016	0.000013	0.000020	-9.157676	-76.267173	-2.839520
54545	9.539100	-0.361949	2.460845	-0.148537	0.041311	0.044160	1.000000	0.000031	0.000014	0.000020	-9.149553	-76.262981	-2.829551
54546	9.536997	-0.367155	2.412526	-0.104457	0.026374	0.030981	1.000000	0.000031	0.000005	0.000014	-9.150421	-76.265130	-2.827978
54547	9.537983	-0.364864	2.436895	-0.126555	0.033343	0.037570	1.000000	0.000010	0.000005	0.000020	-9.147566	-76.262912	-2.814558
54548	9.561486	-0.359030	2.435545	-0.118692	0.038667	0.059861	1.000000	0.000037	0.000023	0.000020	-9.149040	-76.262978	-2.811593
54549	9.538819	-0.362822	2.461807	-0.149499	0.040453	0.044149	1.000000	0.000031	0.000014	0.000020	-9.145320	-76.261747	-2.824794
54550	9.543952	-0.388922	2.440011	-0.133077	0.010342	0.045006	1.000000	0.000044	0.000013	0.000007	-9.140827	-76.263149	-2.827222
54551	9.515110	-0.369039	2.463896	-0.158525	0.034545	0.021842	1.000000	0.000016	0.000004	0.000014	-9.134815	-76.263014	-2.791938
54552	9.562243	-0.357071	2.460752	-0.142294	0.045231	0.066432	1.000000	0.000025	0.000006	0.000021	-9.139409	-76.264953	-2.787282
54553	9.530325	-0.344855	2.411918	-0.100350	0.047119	0.023525	1.000000	0.000021	0.000019	0.000006	-9.123228	-76.260801	-2.875712
54554	9.537492	-0.365831	2.438672	-0.128530	0.031930	0.037550	1.000000	0.000029	0.000012	0.000007	-9.120370	-76.262337	-2.878172
54555	9.537430	-0.365927	2.438900	-0.128344	0.031483	0.037553	1.000000	0.000008	0.000011	0.000013	-9.110714	-76.259789	-2.944287
54556	9.536320	-0.368657	2.414975	-0.106569	0.023952	0.030964	1.000000	0.000037	0.000023	0.000020	-9.112121	-76.259839	-2.941386
54557	9.531068	-0.342592	2.437221	-0.123416	0.053689	0.030105	1.000000	0.000029	-0.000007	-0.000006	-9.096025	-76.260523	-2.981770
54558	9.536241	-0.368744	2.415271	-0.107060	0.023534	0.030960	1.000000	0.000033	0.000017	0.000034	-9.104842	-76.260969	-2.971797
54559	9.514586	-0.370017	2.465773	-0.160308	0.033018	0.021819	1.000000	0.000021	0.000019	0.000006	-9.096894	-76.260521	-3.002851
54560	9.560657	-0.360409	2.438594	-0.121769	0.036120	0.059834	1.000000	0.000037	0.000013	0.000013	-9.096084	-76.261707	-3.002239
54561	9.560594	-0.360662	2.438804	-0.121411	0.035534	0.059840	1.000000	0.000018	0.000006	0.000027	-9.093123	-76.258177	-2.985813
54562	9.530740	-0.343599	2.438360	-0.124879	0.052778	0.030091	1.000000	0.000025	0.000006	0.000021	-9.097626	-76.260094	-2.981252
54563	9.536908	-0.367233	2.440743	-0.130283	0.029860	0.037533	1.000000	0.000029	0.000012	0.000007	-9.086577	-76.258565	-3.031759
54564	9.530592	-0.344006	2.438882	-0.125347	0.052428	0.030087	1.000000	0.000010	0.000023	0.000033	-9.097129	-76.258345	-3.022683
54565	9.536787	-0.367805	2.441129	-0.130944	0.029640	0.037525	1.000000	0.000033	-0.000020	0.000009	-9.093398	-76.261266	-3.037993
54566	9.554164	-0.338367	2.437258	-0.117613	0.057523	0.052384	1.000000	0.000016	0.000013	0.000020	-9.097986	-76.262382	-3.034309
54567	9.537703	-0.365473	2.465737	-0.153565	0.036931	0.044100	1.000000	0.000034	0.000026	-0.000001	-9.082629	-76.258635	-3.108824
54568	9.513021	-0.374064	2.443421	-0.140200	0.024027	0.015210	1.000000	0.000031	0.000005	0.000014	-9.083337	-76.260742	-3.107426
54569	9.536574	-0.368093	2.441919	-0.131472	0.028811	0.037520	1.000000	0.000031	0.000005	0.000014	-9.071179	-76.257886	-3.156847
54570	9.552881	-0.341257	2.414017	-0.095829	0.049088	0.045805	1.000000	0.000016	0.000013	0.000020	-9.075730	-76.258990	-3.153208
54571	9.512836	-0.374583	2.444065	-0.140272	0.023238	0.015211	1.000000	0.000029	0.000021	0.000013	-9.064020	-76.255954	-3.278441
54572	9.535323	-0.371329	2.418497	-0.110129	0.020854	0.030932	1.000000	0.000041	0.000010	0.000034	-9.072637	-76.257171	-3.267734
54573	9.536270	-0.369031	2.442967	-0.132826	0.028448	0.037503	1.000000	0.000015	0.000010	0.000006	-9.071956	-76.258530	-3.264350
54574	9.559798	-0.362935	2.441587	-0.124927	0.033687	0.059803	1.000000	0.000044	0.000013	0.000007	-9.067298	-76.259890	-3.266964
54575	9.536165	-0.368985	2.443383	-0.133174	0.028059	0.037500	1.000000	0.000023	0.000003	0.000007	-9.057689	-76.258436	-3.303069
54576	9.529910	-0.345560	2.441328	-0.128120	0.050601	0.030061	1.000000	0.000023	0.000012	0.000013	-9.058446	-76.259732	-3.302592
54577	9.558645	-0.365753	2.417855	-0.102858	0.025103	0.053228	1.000000	0.000025	0.000006	0.000021	-9.051186	-76.257516	-3.312861
54578	9.537032	-0.366910	2.468117	-0.156241	0.035069	0.044065	1.000000	0.000031	0.000005	0.000014	-9.051821	-76.259605	-3.311547
54579	9.529768	-0.346010	2.441816	-0.128771	0.049974	0.030056	1.000000	0.000029	0.000011	0.000007	-9.047622	-76.260207	-3.342724
54580	9.560536	-0.360918	2.466818	-0.148672	0.040272	0.066360	1.000000	0.000008	0.000002	0.000007	-9.047823	-76.262777	-3.344548
54581	9.534908	-0.372408	2.419967	-0.112606	0.019439	0.030907	1.000000	0.000034	0.000001	0.000035	-9.054108	-76.261857	-3.319403
54582	9.529615	-0.346697	2.442317	-0.129772	0.049623	0.030045	1.000000	0.000029	0.000030	0.000019	-9.055475	-76.261068	-3.317535
54583	9.534721	-0.372968	2.420620	-0.113056	0.019022	0.030902	1.000000	0.000016	0.000004	0.000014	-9.052138	-76.259917	-3.286735
54584	9.529474	-0.347059	2.442818	-0.130236	0.049198	0.030041	1.000000	0.000023	0.000012	0.000013	-9.052862	-76.261200	-3.286299
54585	9.530419	-0.344780	2.467268	-0.152148	0.056201	0.036620	1.000000	0.000018	0.000006	0.000027	-9.050137	-76.257696	-3.251997
54586	9.552964	-0.341547	2.441516	-0.122005	0.053807	0.052351	1.000000	0.000031	0.000005	0.000014	-9.050744	-76.259769	-3.250722
54587	9.535485	-0.371134	2.445710	-0.135934	0.025644	0.037469	1.000000	0.000042	0.000028	0.000006	-9.039145	-76.256272	-3.255726
54588	9.557984	-0.367757	2.420165	-0.105793	0.023248	0.053202	1.000000	0.000010	0.000005	0.000020	-9.045167	-76.258281	-3.251357
54589	9.529221	-0.347923	2.443680	-0.131033	0.047972	0.030036	1.000000	0.000033	-0.000020	0.000009	-9.040105	-76.261223	-3.276681
54590	9.535389	-0.371579	2.446016	-0.137090	0.025345	0.037453	1.000000	0.000015	0.000028	0.000019	-9.043096	-76.260558	-3.274865
54591	9.551646	-0.344738	2.418403	-0.100700	0.045089	0.045776	1.000000	0.000044	0.000022	0.000013	-9.031476	-76.256563	-3.275953
54592	9.535157	-0.371907	2.446869	-0.137394	0.024826	0.037450	1.000000	0.000016	0.000013	0.000020	-9.035913	-76.257628	-3.272452
54593	9.528880	-0.348665	2.444903	-0.131820	0.047275	0.030029	1.000000	0.000031	0.000014	0.000020	-9.034132	-76.255763	-3.326069
54594	9.535013	-0.372426	2.447353	-0.137899	0.024651	0.037444	1.000000	0.000025	0.000006	0.000021	-9.038463	-76.257622	-3.321727
54595	9.552365	-0.343207	2.443625	-0.124365	0.052417	0.052329	1.000000	0.000018	0.000006	0.000027	-9.043530	-76.259219	-3.362950
54596	9.533897	-0.375386	2.423490	-0.116644	0.016874	0.030865	1.000000	0.000049	0.000018	-0.000007	-9.031349	-76.260144	-3.372772
54597	9.552243	-0.343332	2.444084	-0.125158	0.052258	0.052320	1.000000	0.000020	-0.000000	0.000035	-9.041942	-76.261195	-3.358093
54598	9.533799	-0.375756	2.423819	-0.117436	0.016716	0.030855	1.000000	0.000029	0.000011	0.000007	-9.038845	-76.262657	-3.360845
54599	9.535700	-0.370757	2.472684	-0.161721	0.031758	0.043987	1.000000	0.000031	0.000023	0.000026	-9.036630	-76.258531	-3.384442
54600	9.534624	-0.373528	2.448698	-0.139995	0.024027	0.037416	1.000000	0.000023	0.000003	0.000007	-9.035084	-76.260926	-3.386364
54601	9.550963	-0.346690	2.420823	-0.104035	0.043852	0.045747	1.000000	0.000023	0.000021	0.000019	-9.030214	-76.259882	-3.430492
54602	9.534461	-0.373871	2.449283	-0.140791	0.023708	0.037405	1.000000	0.000023	0.000012	0.000013	-9.030855	-76.261140	-3.430152
54603	9.534395	-0.373934	2.449527	-0.141395	0.023789	0.037396	1.000000	0.000029	0.000011	0.000007	-9.030747	-76.263264	-3.428146
54604	9.534317	-0.373931	2.449833	-0.141892	0.023745	0.037389	1.000000	0.000021	0.000019	0.000006	-9.027730	-76.263927	-3.431776
54605	9.527994	-0.350695	2.448063	-0.136065	0.045873	0.029978	1.000000	0.000016	0.000031	0.000032	-9.029856	-76.258467	-3.397199
54606	9.527877	-0.350955	2.448484	-0.136560	0.045828	0.029971	1.000000	0.000029	0.000011	0.000007	-9.026734	-76.259922	-3.399982
54607	9.527801	-0.351142	2.448753	-0.137010	0.045718	0.029965	1.000000	0.000025	0.000015	0.000027	-9.029215	-76.260517	-3.438946
54608	9.527734	-0.351474	2.448965	-0.137505	0.045673	0.029959	1.000000	0.000024	0.000006	0.000021	-9.033513	-76.262371	-3.434647
54609	9.527678	-0.351681	2.449152	-0.137492	0.045440	0.029960	1.000000	0.000023	0.000012	0.000013	-9.028296	-76.260732	-3.473388
54610	9.551220	-0.345838	2.447726	-0.129581	0.050618	0.052272	1.000000	0.000024	0.000006	0.000021	-9.032586	-76.262583	-3.469101
54611	9.551148	-0.345947	2.447991	-0.130190	0.050755	0.052263	1.000000	0.000036	0.000020	0.000006	-9.029353	-76.264045	-3.521349
54612	9.533633	-0.375483	2.452256	-0.144781	0.022940	0.037349	1.000000	0.000021	0.000019	0.000006	-9.026316	-76.264704	-3.525010
54613	9.528421	-0.349667	2.474289	-0.161733	0.053242	0.036484	1.000000	0.000021	-0.000016	0.000036	-9.037363	-76.268555	-3.558882
54614	9.532564	-0.378775	2.428199	-0.123541	0.015106	0.030783	1.000000	0.000029	0.000030	0.000019	-9.038629	-76.267741	-3.557146
54615	9.557043	-0.370230	2.451256	-0.137923	0.027933	0.059648	1.000000	0.000029	0.000011	0.000007	-9.032078	-76.269752	-3.574538
54616	9.532390	-0.378942	2.428857	-0.124635	0.014907	0.030770	1.000000	0.000023	0.000012	0.000013	-9.032699	-76.271014	-3.574230
54617	9.526157	-0.355640	2.426772	-0.119039	0.037215	0.023359	1.000000	0.000024	0.000006	0.000021	-9.033122	-76.270582	-3.566462
54618	9.504462	-0.356694	2.477145	-0.172336	0.047520	0.014128	1.000000	0.000015	0.000019	0.000013	-9.033833	-76.271044	-3.567022
54619	9.550596	-0.347401	2.449937	-0.133588	0.049913	0.052222	1.000000	0.000039	0.000007	0.000021	-9.034136	-76.271209	-3.530916
54620	9.532152	-0.379710	2.429671	-0.125992	0.014342	0.030753	1.000000	0.000008	0.000002	0.000007	-9.034203	-76.273743	-3.532907
54621	9.534040	-0.374649	2.478493	-0.171134	0.029984	0.043834	1.000000	0.000029	0.000030	0.000019	-9.036542	-76.274458	-3.561185
54622	9.526758	-0.353973	2.452398	-0.143714	0.044710	0.029874	1.000000	0.000031	0.000014	0.000020	-9.039271	-76.275382	-3.557750
54623	9.531861	-0.380329	2.430715	-0.127178	0.014059	0.030738	1.000000	0.000031	0.000014	0.000020	-9.037124	-76.272950	-3.540099
54624	9.525607	-0.357052	2.428724	-0.121960	0.036564	0.023326	1.000000	0.000031	0.000014	0.000020	-9.039847	-76.273869	-3.536673
54625	9.501943	-0.363343	2.430541	-0.130662	0.031341	0.000998	1.000000	0.000024	0.000006	0.000021	-9.043073	-76.274681	-3.568012
54626	9.526453	-0.354879	2.453454	-0.144946	0.044283	0.029858	1.000000	0.000029	0.000020	0.000013	-9.042125	-76.275003	-3.568570
54627	9.549977	-0.349144	2.452103	-0.135872	0.048883	0.052196	1.000000	0.000003	0.000005	0.000027	-9.041262	-76.269753	-3.552631
54628	9.531475	-0.381653	2.432023	-0.128302	0.013307	0.030725	1.000000	0.000037	0.000022	0.000020	-9.042409	-76.269727	-3.550073
54629	9.555929	-0.373084	2.455164	-0.142518	0.026147	0.059587	1.000000	0.000028	0.000027	0.000006	-9.034631	-76.269022	-3.572477
54630	9.525122	-0.358243	2.430450	-0.123489	0.035661	0.023310	1.000000	0.000016	-0.000005	0.000008	-9.034581	-76.272345	-3.573644
54631	9.525104	-0.358458	2.430490	-0.123732	0.035388	0.023308	1.000000	0.000033	0.000008	0.000028	-9.036989	-76.272246	-3.547756
54632	9.525045	-0.358634	2.430693	-0.124226	0.035341	0.023302	1.000000	0.000029	0.000011	0.000007	-9.033815	-76.273695	-3.550611
54633	9.525974	-0.356139	2.455129	-0.146346	0.042753	0.029844	1.000000	0.000024	0.000006	0.000021	-9.032878	-76.272004	-3.519793
