// Start Time: Unknown
// Update Rate: 100.0Hz
// Filter Profile: human (46.1)
// Firmware Version: 4.4.0
PacketCounter	Acc_X	Acc_Y	Acc_Z	FreeAcc_X	FreeAcc_Y	FreeAcc_Z	OriInc_q0	OriInc_q1	OriInc_q2	OriInc_q3	Roll	Pitch	Yaw
33187	1.574613	0.305517	9.681296	-0.000000	0.000000	0.000581	1.000000	-0.000055	0.000033	0.000013	1.810782	-9.235312	42.462497
33188	1.570415	0.300992	9.639456	-0.000000	0.000000	-0.041510	1.000000	-0.000037	0.000047	0.000018	1.790813	-9.251307	42.482886
33189	1.573154	0.303730	9.681590	-0.001872	-0.002746	0.000581	1.000000	-0.000045	0.000026	0.000013	1.798715	-9.242271	42.438003
33190	1.581292	0.283852	9.654232	0.020048	-0.007227	-0.025716	1.000000	-0.000043	0.000040	0.000024	1.793299	-9.237795	42.440908
33191	1.580640	0.282953	9.654366	0.020101	-0.007253	-0.025716	1.000000	-0.000043	0.000029	0.000020	1.788341	-9.234418	42.443286
33192	1.596443	0.316533	9.636043	0.010580	0.031309	-0.040224	1.000000	-0.000029	0.000036	0.000011	1.784770	-9.230299	42.444732
33193	1.570377	0.300435	9.682143	-0.001826	-0.002777	0.000581	1.000000	-0.000046	0.000055	-0.000000	1.779510	-9.224070	42.444877
33194	1.559721	0.280623	9.670510	0.004941	-0.021752	-0.013211	1.000000	-0.000041	0.000022	0.000022	1.774436	-9.221669	42.447561
33195	1.596619	0.279796	9.639191	0.035237	0.007240	-0.038221	1.000000	-0.000035	0.000029	0.000017	1.770058	-9.218426	42.449634
33196	1.574981	0.313399	9.652313	-0.004589	0.016815	-0.027718	1.000000	-0.000039	0.000044	0.000012	1.765313	-9.213466	42.451130
33197	1.562042	0.327946	9.637958	-0.022522	0.021900	-0.043512	1.000000	-0.000045	0.000036	0.000017	1.759752	-9.209516	42.453255
33198	1.585774	0.296227	9.667101	0.013291	0.011712	-0.011924	1.000000	-0.000043	0.000029	0.000020	1.754468	-9.206265	42.455654
33199	1.573028	0.310867	9.652713	-0.004634	0.016772	-0.027718	1.000000	-0.000027	0.000032	0.000040	1.750682	-9.202941	42.460346
33200	1.594358	0.313451	9.679165	0.006505	0.030653	0.001868	1.000000	-0.000065	0.000048	-0.000008	1.743339	-9.197431	42.459586
33201	1.571495	0.308955	9.653024	-0.004655	0.016697	-0.027718	1.000000	-0.000033	0.000032	0.000024	1.739352	-9.194178	42.462394
33202	1.561891	0.327138	9.680680	-0.026574	0.021177	-0.001421	1.000000	-0.000040	0.000054	0.000016	1.734482	-9.187993	42.464388
33203	1.582039	0.292006	9.667841	0.013264	0.011491	-0.011924	1.000000	-0.000035	0.000029	0.000017	1.730702	-9.185122	42.466363
33204	1.575826	0.322027	9.623256	-0.007396	0.036173	-0.056017	1.000000	-0.000041	0.000032	0.000026	1.725504	-9.181494	42.469545
33205	1.590756	0.309308	9.679891	0.006502	0.030302	0.001869	1.000000	-0.000039	0.000033	0.000008	1.721624	-9.178382	42.470417
33206	1.586776	0.304925	9.638013	0.010516	0.030916	-0.040222	1.000000	-0.000049	0.000029	0.000004	1.715964	-9.175034	42.470957
33207	1.577336	0.322851	9.665656	-0.011423	0.035161	-0.013924	1.000000	-0.000051	0.000040	0.000027	1.710546	-9.171573	42.474033
33208	1.578853	0.287667	9.668492	0.013251	0.011093	-0.011924	1.000000	-0.000029	0.000036	0.000011	1.706980	-9.167454	42.475473
33209	1.606741	0.305878	9.664756	0.021622	0.044268	-0.010633	1.000000	-0.000041	0.000040	0.000005	1.703376	-9.164086	42.475994
33210	1.555311	0.282600	9.642461	0.002098	-0.003078	-0.041510	1.000000	-0.000045	0.000036	0.000017	1.697886	-9.159986	42.478103
33211	1.574496	0.319546	9.666229	-0.011472	0.034541	-0.013922	1.000000	-0.000041	0.000032	0.000026	1.693985	-9.157798	42.481098
33212	1.576081	0.284297	9.669044	0.013203	0.010473	-0.011923	1.000000	-0.000045	0.000036	0.000017	1.688498	-9.153693	42.483206
33213	1.595296	0.321228	9.692817	-0.000424	0.048018	0.015667	1.000000	-0.000043	0.000029	0.000020	1.684593	-9.152424	42.485314
33214	1.572567	0.316810	9.666633	-0.011564	0.034141	-0.013921	1.000000	-0.000049	0.000040	0.000008	1.678807	-9.147857	42.486352
33215	1.561910	0.296915	9.654957	-0.004801	0.014671	-0.027715	1.000000	-0.000051	0.000037	0.000001	1.675102	-9.145649	42.486319
33216	1.579860	0.295973	9.639428	0.010352	0.029166	-0.040217	1.000000	-0.000041	0.000043	0.000030	1.669786	-9.140799	42.489997
33217	1.589128	0.313908	9.651398	0.003557	0.047650	-0.026419	1.000000	-0.000053	0.000025	0.000016	1.665486	-9.139973	42.491570
33218	1.569826	0.312997	9.667202	-0.011595	0.033153	-0.013918	1.000000	-0.000037	0.000036	0.000014	1.660963	-9.135862	42.493340
33219	1.569165	0.312229	9.667335	-0.011657	0.032535	-0.013916	1.000000	-0.000039	0.000033	0.000008	1.658796	-9.134844	42.493812
33220	1.568504	0.311380	9.667469	-0.011659	0.032535	-0.013916	1.000000	-0.000045	0.000036	0.000017	1.653305	-9.130750	42.495918
33221	1.574320	0.325886	9.637453	-0.014348	0.051443	-0.042205	1.000000	-0.000047	0.000044	0.000014	1.650891	-9.128248	42.497302
33222	1.567051	0.309435	9.667767	-0.011594	0.031843	-0.013913	1.000000	-0.000051	0.000029	0.000023	1.644659	-9.125010	42.500027
33223	1.587301	0.274243	9.654882	0.028351	0.021524	-0.024418	1.000000	-0.000031	0.000044	0.000009	1.644634	-9.122481	42.500675
33224	1.572222	0.323213	9.637885	-0.014228	0.050694	-0.042201	1.000000	-0.000049	0.000032	0.000029	1.638491	-9.118854	42.504182
33225	1.574757	0.325647	9.680063	-0.018219	0.049128	-0.000105	1.000000	-0.000049	0.000051	0.000012	1.636752	-9.116652	42.505095
33226	1.554196	0.286978	9.656502	-0.004682	0.011192	-0.027710	1.000000	-0.000037	0.000025	0.000010	1.632376	-9.113773	42.506363
33227	1.582245	0.305134	9.652810	0.003723	0.043737	-0.026400	1.000000	-0.000037	0.000036	0.000014	1.631954	-9.113226	42.507411
33228	1.552884	0.285315	9.656763	-0.004662	0.010268	-0.027709	1.000000	-0.000051	0.000040	0.000027	1.625601	-9.108764	42.510633
33229	1.580802	0.303304	9.653104	0.003869	0.042900	-0.026397	1.000000	-0.000037	0.000036	0.000014	1.625311	-9.107306	42.511921
33230	1.561382	0.302456	9.668905	-0.011281	0.028398	-0.013902	1.000000	-0.000045	0.000036	0.000017	1.619832	-9.103187	42.514020
33231	1.598118	0.301638	9.637727	0.019085	0.056406	-0.038886	1.000000	-0.000035	0.000040	0.000021	1.620019	-9.102405	42.515830
33232	1.566402	0.316063	9.639070	-0.013972	0.047007	-0.042182	1.000000	-0.000065	0.000051	0.000018	1.612207	-9.096622	42.518027
33233	1.577732	0.299586	9.653722	0.004199	0.040981	-0.026389	1.000000	-0.000033	0.000032	0.000024	1.613078	-9.095457	42.520506
33234	1.589231	0.283296	9.668339	0.022114	0.035871	-0.010600	1.000000	-0.000047	0.000033	0.000010	1.607550	-9.091705	42.521816
33235	1.573191	0.294338	9.611963	0.008193	0.040498	-0.068475	1.000000	-0.000055	0.000033	0.000013	1.605898	-9.092618	42.522666
33236	1.557093	0.296724	9.669775	-0.010964	0.025331	-0.013894	1.000000	-0.000045	0.000036	0.000017	1.600455	-9.088497	42.524762
33237	1.566281	0.314694	9.681800	-0.017808	0.042918	-0.000075	1.000000	-0.000043	0.000040	0.000024	1.600739	-9.089803	42.526814
33238	1.584192	0.313862	9.666311	-0.002652	0.057420	-0.012563	1.000000	-0.000037	0.000047	0.000018	1.596143	-9.084479	42.529079
33239	1.576840	0.297538	9.696593	0.000553	0.036595	0.015717	1.000000	-0.000043	0.000029	0.000020	1.597972	-9.084022	42.531619
33240	1.572900	0.293135	9.654709	0.004576	0.037249	-0.026374	1.000000	-0.000057	0.000040	0.000011	1.591352	-9.079456	42.532977
33241	1.560039	0.307707	9.640372	-0.013369	0.040787	-0.042153	1.000000	-0.000029	0.000039	0.000037	1.594067	-9.081507	42.536646
33242	1.559318	0.306876	9.640515	-0.013357	0.040767	-0.042153	1.000000	-0.000051	0.000037	0.000001	1.588343	-9.077343	42.536889
33243	1.580674	0.309425	9.667029	-0.002478	0.053360	-0.012540	1.000000	-0.000033	0.000032	0.000024	1.588470	-9.079796	42.538005
33244	1.577830	0.343049	9.664571	-0.027149	0.077409	-0.014502	1.000000	-0.000037	0.000036	0.000014	1.584061	-9.075757	42.539777
33245	1.588166	0.288991	9.639759	0.019349	0.047179	-0.038837	1.000000	-0.000045	0.000036	0.000017	1.585741	-9.078942	42.540794
33246	1.556630	0.303620	9.641053	-0.013712	0.037755	-0.042141	1.000000	-0.000037	0.000036	0.000014	1.581344	-9.074955	42.542571
33247	1.586818	0.287225	9.640034	0.019430	0.045839	-0.038831	1.000000	-0.000055	0.000033	0.000013	1.580906	-9.076105	42.543231
33248	1.573920	0.301834	9.625708	0.001520	0.050928	-0.054614	1.000000	-0.000034	0.000051	0.000006	1.577078	-9.070437	42.544107
33249	1.585183	0.285551	9.640353	0.019445	0.043941	-0.038822	1.000000	-0.000045	0.000036	0.000017	1.579871	-9.073702	42.545665
33250	1.594401	0.303580	9.652402	0.012674	0.062838	-0.024989	1.000000	-0.000037	0.000036	0.000014	1.575551	-9.069797	42.547452
33251	1.574989	0.302629	9.668172	-0.002660	0.046931	-0.012508	1.000000	-0.000055	0.000033	0.000013	1.574352	-9.072399	42.547551
33252	1.574227	0.301689	9.668326	-0.002667	0.046876	-0.012507	1.000000	-0.000037	0.000047	0.000018	1.569918	-9.067313	42.549843
33253	1.580099	0.316361	9.638371	-0.005014	0.065127	-0.040752	1.000000	-0.000045	0.000036	0.000017	1.572282	-9.066988	42.552359
33254	1.559597	0.277796	9.614670	0.008521	0.027184	-0.068429	1.000000	-0.000037	0.000036	0.000014	1.568038	-9.063120	42.554148
33255	1.571979	0.298976	9.668776	-0.002081	0.043391	-0.012491	1.000000	-0.000063	0.000044	0.000020	1.570014	-9.065455	42.556976
33256	1.589976	0.298064	9.653304	0.013073	0.057843	-0.024959	1.000000	-0.000029	0.000036	0.000011	1.566806	-9.061622	42.558437
33257	1.558463	0.312824	9.654580	-0.019903	0.047564	-0.028265	1.000000	-0.000045	0.000033	-0.000008	1.566019	-9.060922	42.556607
33258	1.598584	0.315270	9.665498	0.006394	0.075821	-0.011109	1.000000	-0.000049	0.000032	0.000029	1.560217	-9.057569	42.560134
33259	1.576023	0.310960	9.639214	-0.004932	0.060850	-0.040724	1.000000	-0.000043	0.000029	0.000020	1.559293	-9.059761	42.561194
33260	1.568720	0.294598	9.669440	-0.002172	0.041113	-0.012481	1.000000	-0.000037	0.000036	0.000014	1.555086	-9.055915	42.562984
33261	1.564812	0.290446	9.627544	0.001503	0.039965	-0.054563	1.000000	-0.000045	0.000036	0.000017	1.556507	-9.060795	42.564035
33262	1.586206	0.292878	9.654083	0.012637	0.053681	-0.024935	1.000000	-0.000045	0.000025	0.000013	1.551461	-9.058240	42.565665
33263	1.595452	0.310801	9.666161	0.006236	0.070313	-0.011068	1.000000	-0.000047	0.000044	0.000014	1.557407	-9.060848	42.568833
33264	1.566019	0.290978	9.669987	-0.002144	0.036752	-0.012464	1.000000	-0.000045	0.000036	0.000017	1.552354	-9.057123	42.570969
33265	1.575438	0.308925	9.682039	-0.008771	0.054519	0.001398	1.000000	-0.000044	0.000015	0.000009	1.552773	-9.059450	42.571417
33266	1.562851	0.323629	9.667674	-0.026676	0.059566	-0.014376	1.000000	-0.000035	0.000040	0.000021	1.548790	-9.055337	42.574004
33267	1.583065	0.288466	9.654731	0.013084	0.048864	-0.024910	1.000000	-0.000045	0.000036	0.000017	1.548155	-9.056182	42.574390
33268	1.582376	0.287464	9.654874	0.013086	0.048762	-0.024910	1.000000	-0.000053	0.000036	0.000020	1.542175	-9.052486	42.576860
33269	1.560680	0.320774	9.668120	-0.026477	0.056815	-0.014359	1.000000	-0.000047	0.000044	0.000014	1.544043	-9.052245	42.578981
33270	1.570879	0.266730	9.643233	0.020126	0.028257	-0.038766	1.000000	-0.000039	0.000044	0.000012	1.539817	-9.047681	42.580499
33271	1.589992	0.303571	9.667290	0.007343	0.064750	-0.011030	1.000000	-0.000043	0.000029	0.000020	1.543552	-9.046470	42.584762
33272	1.608005	0.302834	9.651836	0.022511	0.079185	-0.023482	1.000000	-0.000033	0.000051	0.000006	1.540149	-9.041004	42.585654
33273	1.557515	0.317547	9.668737	-0.025454	0.053736	-0.014339	1.000000	-0.000041	0.000040	0.000005	1.542939	-9.041362	42.586466
33274	1.596500	0.282398	9.640186	0.029544	0.058644	-0.037339	1.000000	-0.000045	0.000036	0.000017	1.538080	-9.037620	42.588593
33275	1.578080	0.319137	9.695458	-0.013863	0.065321	0.015315	1.000000	-0.000039	0.000033	0.000008	1.544242	-9.040222	42.590725
33276	1.586261	0.299473	9.668031	0.008084	0.060825	-0.011006	1.000000	-0.000049	0.000040	0.000008	1.539188	-9.036038	42.591784
33277	1.561495	0.329698	9.639224	-0.028219	0.069801	-0.042532	1.000000	-0.000035	0.000029	0.000017	1.538769	-9.040186	42.591938
33278	1.587972	0.301105	9.710362	0.003626	0.058552	0.031092	1.000000	-0.000040	0.000054	0.000016	1.534603	-9.034426	42.593955
33279	1.571923	0.312439	9.654015	-0.009849	0.062684	-0.026751	1.000000	-0.000055	0.000033	0.000013	1.537881	-9.036076	42.596777
33280	1.564672	0.295877	9.684192	-0.007049	0.042824	0.001457	1.000000	-0.000040	0.000022	0.000022	1.533579	-9.034107	42.599482
33281	1.570906	0.310523	9.654243	-0.009179	0.060878	-0.026739	1.000000	-0.000049	0.000032	0.000029	1.537348	-9.034308	42.604722
33282	1.563650	0.294037	9.684413	-0.006366	0.041005	0.001465	1.000000	-0.000038	0.000022	0.000003	1.533705	-9.032219	42.605235
33283	1.547894	0.305516	9.628017	-0.019562	0.045418	-0.056378	1.000000	-0.000045	0.000036	0.000017	1.538081	-9.031217	42.608502
33284	1.596830	0.289151	9.611447	0.028688	0.069217	-0.065495	1.000000	-0.000045	0.000036	0.000017	1.533527	-9.027531	42.610630
33285	1.563748	0.257055	9.687296	0.019253	0.013789	0.003346	1.000000	-0.000037	0.000047	0.000018	1.535708	-9.027131	42.611677
33286	1.589395	0.309436	9.681404	0.002995	0.071152	0.002935	1.000000	-0.000045	0.000047	0.000021	1.531076	-9.022244	42.614308
33287	1.595596	0.324040	9.651478	0.000176	0.088867	-0.025244	1.000000	-0.000054	0.000011	0.000005	1.533479	-9.029195	42.615440
33288	1.554419	0.319736	9.640703	-0.026057	0.060393	-0.042463	1.000000	-0.000045	0.000036	0.000017	1.529010	-9.025577	42.617575
33289	1.596701	0.287688	9.654176	0.023962	0.062077	-0.023362	1.000000	-0.000052	0.000025	0.000016	1.529989	-9.037061	42.615964
33290	1.575077	0.321167	9.667437	-0.015826	0.071374	-0.012789	1.000000	-0.000029	0.000047	0.000015	1.527352	-9.032353	42.617956
33291	1.586243	0.304821	9.682067	0.001332	0.064551	0.002981	1.000000	-0.000047	0.000044	0.000014	1.525779	-9.037249	42.617478
33292	1.575544	0.285126	9.670217	0.008130	0.045454	-0.010922	1.000000	-0.000041	0.000040	0.000005	1.521981	-9.033370	42.618240
33293	1.588356	0.315421	9.610288	0.003413	0.082392	-0.067268	1.000000	-0.000053	0.000036	0.000020	1.530287	-9.035938	42.623690
33294	1.565322	0.301859	9.698079	-0.012912	0.046956	0.015421	1.000000	-0.000052	0.000025	0.000016	1.525134	-9.033818	42.625688
33295	1.580201	0.297852	9.640613	0.006286	0.059948	-0.039073	1.000000	-0.000036	0.000058	0.000003	1.532034	-9.036716	42.627207
33296	1.572559	0.281359	9.670813	0.009100	0.039935	-0.010899	1.000000	-0.000049	0.000032	0.000029	1.527132	-9.033918	42.630785
33297	1.551182	0.314716	9.684045	-0.030333	0.047698	-0.000310	1.000000	-0.000044	0.000015	0.000009	1.531054	-9.037393	42.632548
33298	1.597149	0.295178	9.625432	0.021899	0.072315	-0.051476	1.000000	-0.000047	0.000044	0.000014	1.526681	-9.033282	42.634439
33299	1.565636	0.309771	9.626683	-0.010318	0.060695	-0.054797	1.000000	-0.000043	0.000029	0.000020	1.534655	-9.035250	42.639698
33300	1.577000	0.293191	9.641280	0.007656	0.055231	-0.039046	1.000000	-0.000057	0.000040	0.000011	1.529360	-9.031543	42.641135
33301	1.614898	0.329825	9.649924	0.009329	0.104637	-0.023577	1.000000	-0.000047	0.000033	0.000010	1.537074	-9.039175	42.643240
33302	1.578912	0.294387	9.683588	0.003808	0.051083	0.003059	1.000000	-0.000048	0.000019	-0.000000	1.533104	-9.038005	42.643355
33303	1.553311	0.287237	9.615162	-0.004072	0.034665	-0.068694	1.000000	-0.000031	0.000044	0.000009	1.542560	-9.050934	42.643679
33304	1.615152	0.292920	9.652740	0.033394	0.076261	-0.021724	1.000000	-0.000045	0.000039	0.000043	1.538234	-9.047705	42.648866
33305	1.542964	0.304178	9.643046	-0.026664	0.036662	-0.042347	1.000000	-0.000048	0.000029	0.000004	1.538140	-9.055295	42.645175
33306	1.595033	0.290947	9.668574	0.017566	0.059369	-0.009307	1.000000	-0.000043	0.000040	0.000024	1.534417	-9.052054	42.648185
33307	1.541548	0.302320	9.643331	-0.025910	0.035274	-0.042340	1.000000	-0.000049	0.000040	0.000008	1.536138	-9.048468	42.651281
33308	1.571643	0.285942	9.642372	0.007188	0.044326	-0.038990	1.000000	-0.000037	0.000036	0.000014	1.533331	-9.045551	42.653168
33309	1.574064	0.288226	9.684563	0.003318	0.041303	0.003105	1.000000	-0.000047	0.000033	0.000010	1.537344	-9.049534	42.655737
33310	1.570258	0.284156	9.642651	0.007356	0.041904	-0.038980	1.000000	-0.000047	0.000044	0.000014	1.533427	-9.045822	42.657674
33311	1.579313	0.302152	9.654865	0.001204	0.059221	-0.025020	1.000000	-0.000031	0.000044	0.000009	1.538966	-9.044243	42.661830
33312	1.576439	0.335756	9.652620	-0.023439	0.082917	-0.026803	1.000000	-0.000045	0.000036	0.000017	1.535312	-9.041367	42.664050
33313	1.589861	0.285025	9.669602	0.019042	0.050813	-0.009261	1.000000	-0.000029	0.000036	0.000011	1.543650	-9.049155	42.665871
33314	1.577139	0.299951	9.655289	0.001174	0.055639	-0.024999	1.000000	-0.000035	0.000040	0.000021	1.541130	-9.045993	42.668558
33315	1.574278	0.333587	9.653047	-0.024132	0.077935	-0.026764	1.000000	-0.000035	0.000040	0.000021	1.541963	-9.051224	42.668025
33316	1.587693	0.282689	9.670027	0.018528	0.048257	-0.009247	1.000000	-0.000055	0.000033	0.000013	1.537361	-9.048904	42.669809
33317	1.563048	0.312964	9.641261	-0.017455	0.055886	-0.040709	1.000000	-0.000037	0.000036	0.000014	1.544621	-9.056668	42.672156
33318	1.603169	0.315390	9.652362	0.008858	0.083709	-0.023376	1.000000	-0.000044	0.000025	0.000013	1.541272	-9.055282	42.673905
33319	1.543161	0.311274	9.657026	-0.031080	0.038487	-0.028315	1.000000	-0.000031	0.000025	0.000026	1.553580	-9.055484	42.684534
33320	1.602120	0.313804	9.652588	0.010376	0.080923	-0.023354	1.000000	-0.000045	0.000036	0.000017	1.550250	-9.052862	42.686782
33321	1.550801	0.290761	9.629677	-0.008910	0.031804	-0.054659	1.000000	-0.000057	0.000040	0.000011	1.553361	-9.055611	42.688449
33322	1.588649	0.327372	9.638453	-0.007284	0.083652	-0.039065	1.000000	-0.000043	0.000040	0.000024	1.550180	-9.052660	42.691488
33323	1.552323	0.291893	9.672044	-0.012938	0.028018	-0.012565	1.000000	-0.000049	0.000040	0.000008	1.554109	-9.057763	42.691595
33324	1.609002	0.328658	9.665297	0.003812	0.094482	-0.009324	1.000000	-0.000043	0.000040	0.000024	1.550989	-9.054883	42.694643
33325	1.567613	0.324421	9.654444	-0.022758	0.064703	-0.026664	1.000000	-0.000055	0.000033	0.000013	1.550010	-9.058665	42.694127
33326	1.538277	0.304589	9.658018	-0.031049	0.030770	-0.028288	1.000000	-0.000041	0.000032	0.000026	1.547107	-9.056676	42.697463
33327	1.597260	0.307070	9.653610	0.010828	0.072324	-0.023287	1.000000	-0.000042	0.000026	-0.000006	1.550069	-9.056822	42.698649
33328	1.555967	0.302820	9.642731	-0.015380	0.043625	-0.040643	1.000000	-0.000061	0.000036	0.000023	1.544986	-9.054369	42.701573
33329	1.577181	0.304987	9.669405	-0.004349	0.054829	-0.010907	1.000000	-0.000033	0.000032	0.000024	1.550737	-9.060712	42.704931
33330	1.583358	0.319939	9.639573	-0.007091	0.074230	-0.038989	1.000000	-0.000041	0.000040	0.000005	1.548299	-9.057818	42.705802
33331	1.594635	0.303366	9.654161	0.011413	0.066559	-0.023247	1.000000	-0.000055	0.000033	0.000013	1.554828	-9.061298	42.709370
33332	1.587107	0.286644	9.684266	0.014280	0.046160	0.004835	1.000000	-0.000045	0.000036	0.000017	1.551818	-9.058934	42.711646
33333	1.593291	0.301440	9.654443	0.010756	0.063681	-0.023227	1.000000	-0.000045	0.000036	0.000017	1.553818	-9.067470	42.711336
33334	1.551906	0.297467	9.643552	-0.015454	0.034949	-0.040608	1.000000	-0.000029	0.000036	0.000011	1.552753	-9.065178	42.712963
33335	1.572954	0.299713	9.670259	-0.004133	0.046430	-0.010864	1.000000	-0.000059	0.000047	0.000008	1.555658	-9.067268	42.715336
33336	1.584119	0.283039	9.684861	0.013849	0.040649	0.004860	1.000000	-0.000045	0.000036	0.000017	1.552726	-9.065036	42.717628
33337	1.571505	0.297857	9.670552	-0.004408	0.044342	-0.010854	1.000000	-0.000033	0.000032	0.000024	1.553966	-9.069063	42.718170
33338	1.589706	0.297136	9.655167	0.010767	0.058471	-0.023194	1.000000	-0.000045	0.000036	0.000017	1.551041	-9.066874	42.720466
33339	1.580048	0.314871	9.682943	-0.011441	0.061585	0.003175	1.000000	-0.000045	0.000036	0.000017	1.548793	-9.068141	42.720434
33340	1.559597	0.276456	9.658839	0.002177	0.023455	-0.024869	1.000000	-0.000045	0.000036	0.000017	1.545849	-9.065966	42.722731
33341	1.588478	0.331758	9.695365	-0.018741	0.076867	0.017225	1.000000	-0.000047	0.000043	0.000014	1.550920	-9.075346	42.722491
33342	1.579847	0.277864	9.685709	0.012795	0.033461	0.004888	1.000000	-0.000025	0.000043	0.000025	1.550129	-9.072518	42.725718
33343	1.567210	0.292781	9.671404	-0.005814	0.035301	-0.010818	1.000000	-0.000043	0.000029	0.000020	1.557085	-9.085928	42.727627
33344	1.573521	0.307502	9.641588	-0.008579	0.054665	-0.038861	1.000000	-0.000060	0.000033	-0.000003	1.552866	-9.084279	42.727639
33345	1.584850	0.290762	9.656160	0.009005	0.045732	-0.023125	1.000000	-0.000049	0.000032	0.000029	1.561441	-9.096802	42.732332
33346	1.584265	0.289854	9.656283	0.009034	0.045126	-0.023122	1.000000	-0.000040	0.000029	0.000001	1.559532	-9.095734	42.732771
33347	1.564747	0.288909	9.671919	-0.005075	0.028247	-0.010795	1.000000	-0.000043	0.000040	0.000024	1.567889	-9.095604	42.744294
33348	1.570973	0.303743	9.642123	-0.007842	0.047593	-0.038823	1.000000	-0.000047	0.000033	0.000010	1.565189	-9.094172	42.745849
33349	1.583228	0.324631	9.696465	-0.017240	0.062073	0.017332	1.000000	-0.000035	0.000029	0.000017	1.580072	-9.097257	42.757488
33350	1.591594	0.305177	9.668949	0.004721	0.057361	-0.009037	1.000000	-0.000045	0.000036	0.000017	1.577602	-9.095477	42.759832
33351	1.572072	0.304228	9.684581	-0.010739	0.041902	0.003280	1.000000	-0.000039	0.000033	0.000007	1.574909	-9.096271	42.758549
33352	1.578379	0.319087	9.654782	-0.013503	0.061243	-0.024737	1.000000	-0.000049	0.000032	0.000029	1.571735	-9.094985	42.762294
33353	1.599613	0.321167	9.681494	-0.001608	0.073512	0.005043	1.000000	-0.000048	0.000029	0.000004	1.574499	-9.093174	42.764307
33354	1.589037	0.301569	9.669483	0.005241	0.054110	-0.009019	1.000000	-0.000039	0.000043	0.000012	1.572795	-9.090522	42.766036
33355	1.598184	0.319352	9.681790	-0.001149	0.070824	0.005062	1.000000	-0.000054	0.000033	0.000013	1.576878	-9.093227	42.768183
33356	1.568750	0.299598	9.685264	-0.009408	0.036710	0.003302	1.000000	-0.000035	0.000040	0.000021	1.575525	-9.091083	42.770987
33357	1.575069	0.314551	9.655471	-0.010189	0.054651	-0.024694	1.000000	-0.000044	0.000025	0.000013	1.587478	-9.087499	42.783223
33358	1.584318	0.332423	9.667766	-0.016906	0.072745	-0.010612	1.000000	-0.000041	0.000040	0.000005	1.585879	-9.085206	42.784161
33359	1.573744	0.312914	9.655740	-0.010157	0.051722	-0.024678	1.000000	-0.000039	0.000033	0.000007	1.591037	-9.090769	42.783743
33360	1.575142	0.277679	9.658133	0.014652	0.027012	-0.023062	1.000000	-0.000045	0.000036	0.000017	1.588816	-9.089021	42.786087
33361	1.584368	0.295585	9.670433	0.008595	0.042668	-0.008965	1.000000	-0.000033	0.000032	0.000024	1.601146	-9.094544	42.794064
33362	1.583711	0.294659	9.670569	0.008679	0.041976	-0.008962	1.000000	-0.000058	0.000037	0.000004	1.597706	-9.092750	42.794883
33363	1.564169	0.293507	9.686192	-0.005359	0.025023	0.003342	1.000000	-0.000047	0.000033	0.000010	1.606206	-9.093313	42.801797
33364	1.601234	0.292897	9.655367	0.024932	0.053777	-0.021245	1.000000	-0.000035	0.000040	0.000021	1.605228	-9.091237	42.804605
33365	1.559912	0.288934	9.644374	-0.001932	0.023953	-0.038734	1.000000	-0.000043	0.000029	0.000020	1.604656	-9.097339	42.800955
33366	1.600763	0.328637	9.695480	-0.004300	0.074146	0.019263	1.000000	-0.000031	0.000043	0.000009	1.604353	-9.094829	42.802370
33367	1.580329	0.290293	9.671255	0.009646	0.034002	-0.008932	1.000000	-0.000058	0.000029	0.000025	1.610299	-9.100782	42.809211
33368	1.567653	0.304879	9.656988	-0.008204	0.038582	-0.024615	1.000000	-0.000049	0.000051	0.000012	1.607943	-9.097491	42.811006
33369	1.566781	0.303985	9.657158	-0.008573	0.036726	-0.024609	1.000000	-0.000041	0.000040	0.000005	1.609755	-9.101943	42.808609
33370	1.578079	0.287478	9.671706	0.009453	0.030687	-0.008921	1.000000	-0.000039	0.000025	0.000029	1.608320	-9.101727	42.812327
33371	1.556503	0.320939	9.685080	-0.030920	0.037642	0.001797	1.000000	-0.000039	0.000043	0.000012	1.611632	-9.108422	42.812123
33372	1.583716	0.301718	9.642080	0.006159	0.047665	-0.036871	1.000000	-0.000035	0.000029	0.000017	1.610896	-9.107783	42.814450
33373	1.597935	0.288010	9.698713	0.020480	0.038442	0.020902	1.000000	-0.000054	0.000033	0.000013	1.616997	-9.112847	42.820525
33374	1.563517	0.299750	9.657819	-0.008516	0.029602	-0.024584	1.000000	-0.000039	0.000043	0.000012	1.615915	-9.110550	42.822293
33375	1.581680	0.298931	9.642501	0.006437	0.042373	-0.036847	1.000000	-0.000054	0.000033	0.000013	1.617481	-9.115386	42.824174
33376	1.550127	0.313410	9.643703	-0.026519	0.032177	-0.040257	1.000000	-0.000053	0.000047	0.000024	1.614587	-9.112782	42.827391
33377	1.594960	0.284109	9.699318	0.019726	0.032975	0.020924	1.000000	-0.000033	0.000032	0.000024	1.615723	-9.120286	42.826608
33378	1.551633	0.314531	9.686071	-0.031176	0.028094	0.001828	1.000000	-0.000052	0.000033	-0.000006	1.613463	-9.119214	42.826350
33379	1.576854	0.329609	9.640870	-0.019549	0.061523	-0.038368	1.000000	-0.000037	0.000036	0.000014	1.612543	-9.123495	42.824129
33380	1.581071	0.297240	9.685303	0.001296	0.035335	0.005254	1.000000	-0.000045	0.000036	0.000017	1.610721	-9.122201	42.826524
33381	1.568454	0.311951	9.671034	-0.016193	0.038097	-0.010415	1.000000	-0.000051	0.000039	0.000027	1.617419	-9.126050	42.833820
33382	1.598635	0.295309	9.670128	0.016913	0.046743	-0.006988	1.000000	-0.000052	0.000025	0.000016	1.614830	-9.126024	42.836040
33383	1.567040	0.310010	9.671326	-0.017040	0.035641	-0.010407	1.000000	-0.000035	0.000058	0.000003	1.614217	-9.130010	42.831820
33384	1.585036	0.309334	9.656046	-0.001880	0.049616	-0.022652	1.000000	-0.000045	0.000036	0.000017	1.612450	-9.128810	42.834225
33385	1.584493	0.308450	9.656163	-0.001187	0.046878	-0.022639	1.000000	-0.000040	0.000021	0.000022	1.622209	-9.134348	42.844059
33386	1.574115	0.288875	9.644045	0.005688	0.027386	-0.036793	1.000000	-0.000047	0.000033	0.000010	1.620441	-9.133549	42.845679
33387	1.564350	0.306486	9.671874	-0.012780	-0.007550	-0.010338	1.000000	-0.000047	0.000043	0.000014	1.799380	-9.269556	42.443182
33388	1.582425	0.305668	9.656591	0.002496	0.006048	-0.022529	1.000000	-0.000047	0.000043	0.000014	1.798999	-9.268698	42.443107
33389	1.559948	0.301685	9.630092	-0.008695	-0.008106	-0.052412	1.000000	-0.000054	0.000033	0.000013	1.797049	-9.268799	42.439604
33390	1.581011	0.303810	9.656881	0.002626	0.003918	-0.022528	1.000000	-0.000027	0.000040	0.000018	1.798874	-9.268398	42.439943
33391	1.688686	0.171032	9.672673	0.169110	-0.023650	0.006292	1.000000	-0.000121	0.000026	0.000022	1.790429	-9.270069	42.444250
33392	1.536922	0.240575	9.295986	0.047814	-0.023078	-0.387586	1.000000	-0.000070	0.000087	0.000020	1.787268	-9.264252	42.445016
33393	1.612100	0.579053	9.933952	-0.188412	0.192138	0.264274	1.000000	0.000009	0.000087	-0.000008	1.793165	-9.258027	42.440156
33394	1.491894	0.208877	9.669498	0.002022	-0.125007	-0.027344	1.000000	-0.000018	0.000062	0.000004	1.796300	-9.255051	42.439003
33395	1.596565	0.220062	9.760930	0.062280	-0.058989	0.080030	1.000000	-0.000052	0.000061	0.000035	1.795634	-9.252488	42.444849
33396	1.555646	0.443738	9.791303	-0.122212	0.074259	0.110321	1.000000	-0.000056	0.000029	0.000006	1.794340	-9.253229	42.443798
33397	1.508776	0.178998	9.500555	0.051303	-0.112856	-0.192208	1.000000	-0.000074	0.000036	0.000009	1.791244	-9.252975	42.443604
33398	1.564409	0.351253	9.726147	-0.046978	0.021256	0.044595	1.000000	-0.000031	0.000054	0.000013	1.792663	-9.250876	42.443385
33399	1.650011	0.324919	9.792998	0.026605	0.050121	0.123494	1.000000	-0.000050	-0.000001	0.000036	1.791111	-9.254642	42.442742
33400	1.551476	0.219370	9.594163	0.045499	-0.067270	-0.091753	1.000000	-0.000025	0.000021	0.000017	1.793265	-9.256310	42.442849
33401	1.582198	0.349259	9.710981	-0.031472	0.032780	0.032434	1.000000	-0.000021	0.000025	0.000004	1.795969	-9.257081	42.439932
33402	1.581752	0.348707	9.711073	-0.031381	0.031648	0.032438	1.000000	-0.000032	0.000021	0.000019	1.797163	-9.258763	42.440365
33403	1.597896	0.236468	9.575839	0.069460	-0.022365	-0.101840	1.000000	-0.000048	0.000021	0.000025	1.795972	-9.260369	42.439239
33404	1.554264	0.375607	9.640383	-0.063111	0.042213	-0.040890	1.000000	-0.000043	0.000039	0.000024	1.795879	-9.259997	42.440232
33405	1.600226	0.274462	9.658175	0.037197	-0.003739	-0.019067	1.000000	-0.000054	0.000033	0.000013	1.795028	-9.260359	42.441509
33406	1.556108	0.267646	9.604948	0.014805	-0.031044	-0.078883	1.000000	-0.000043	0.000039	0.000024	1.794935	-9.259988	42.442503
33407	1.553973	0.338095	9.642992	-0.038241	0.014630	-0.039522	1.000000	-0.000067	0.000058	0.000015	1.791977	-9.257404	42.441186
33408	1.559064	0.233757	9.649527	0.035590	-0.059120	-0.035472	1.000000	-0.000045	0.000036	0.000017	1.791805	-9.257399	42.441388
33409	1.582784	0.320618	9.642365	-0.004969	0.021484	-0.036046	1.000000	-0.000030	0.000076	0.000002	1.793894	-9.253088	42.443091
33410	1.543707	0.319482	9.673414	-0.035260	-0.009139	-0.011733	1.000000	-0.000051	0.000050	0.000031	1.792717	-9.251514	42.444922
33411	1.568472	0.252474	9.704511	0.025217	-0.045599	0.020861	1.000000	-0.000053	0.000047	0.000024	1.791338	-9.250309	42.445023
33412	1.555763	0.267123	9.690277	0.007394	-0.041159	0.005229	1.000000	-0.000055	0.000043	0.000017	1.790003	-9.249468	42.445272
33413	1.541172	0.316191	9.673926	-0.035013	-0.012468	-0.011736	1.000000	-0.000053	0.000036	0.000020	1.788699	-9.249363	42.445187
33414	1.566228	0.249362	9.704954	0.025477	-0.048960	0.020844	1.000000	-0.000035	0.000029	0.000017	1.789691	-9.250196	42.445341
33415	1.557112	0.349084	9.656641	-0.044267	0.024237	-0.025214	1.000000	-0.000038	0.000014	0.000025	1.789981	-9.252965	42.447411
33416	1.570570	0.297977	9.673227	-0.001688	-0.006681	-0.008262	1.000000	-0.000052	0.000025	0.000016	1.788974	-9.254191	42.447427
33417	1.579276	0.278686	9.645602	0.020264	-0.011794	-0.034708	1.000000	-0.000028	0.000015	0.000003	1.791487	-9.257023	42.450880
33418	1.607878	0.296733	9.642563	0.028877	0.020469	-0.032550	1.000000	-0.000044	0.000007	0.000030	1.791168	-9.260434	42.452523
33419	1.597767	0.277200	9.630322	0.035616	0.000751	-0.046853	1.000000	-0.000040	0.000021	0.000022	1.791186	-9.262071	42.452946
33420	1.586272	0.329325	9.656046	-0.010730	0.027704	-0.021719	1.000000	-0.000031	0.000025	0.000026	1.792462	-9.263389	42.454169
33421	1.587778	0.294133	9.658231	0.013894	0.002287	-0.020406	1.000000	-0.000044	0.000025	0.000013	1.792586	-9.265096	42.457183
33422	1.596283	0.274752	9.630638	0.035841	-0.002697	-0.046854	1.000000	-0.000045	0.000036	0.000017	1.792417	-9.265092	42.457384
33423	1.574463	0.308036	9.644137	-0.003846	0.005610	-0.036024	1.000000	-0.000051	0.000058	0.000009	1.791685	-9.262632	42.457259
33424	1.573564	0.307072	9.644315	-0.003756	0.004485	-0.036023	1.000000	-0.000045	0.000036	0.000017	1.791516	-9.262629	42.457460
33425	1.586577	0.255879	9.660936	0.038821	-0.026344	-0.019108	1.000000	-0.000053	0.000047	0.000024	1.789783	-9.260992	42.454609
33426	1.541044	0.320655	9.645663	-0.036682	-0.006823	-0.039507	1.000000	-0.000047	0.000054	0.000018	1.789288	-9.258924	42.455044
33427	1.582742	0.288287	9.659233	0.014411	-0.004364	-0.020407	1.000000	-0.000049	0.000040	0.000008	1.788714	-9.258426	42.454156
33428	1.603730	0.290291	9.686096	0.025750	0.007518	0.009530	1.000000	-0.000033	0.000032	0.000023	1.789788	-9.258895	42.455101
33429	1.550706	0.302361	9.660482	-0.018535	-0.015637	-0.023896	1.000000	-0.000035	0.000029	0.000017	1.790078	-9.259238	42.450043
33430	1.590686	0.304548	9.671953	0.008000	0.011010	-0.006081	1.000000	-0.000043	0.000039	0.000024	1.789990	-9.258871	42.451035
33431	1.580958	0.322154	9.699807	-0.013759	0.013726	0.020373	1.000000	-0.000042	0.000026	-0.000006	1.790535	-9.259906	42.448795
33432	1.558695	0.318305	9.673206	-0.024922	-0.000399	-0.009568	1.000000	-0.000060	0.000036	0.000023	1.788448	-9.259931	42.449648
33433	1.590683	0.267204	9.674413	0.032862	-0.016520	-0.004804	1.000000	-0.000041	0.000043	0.000030	1.788195	-9.258832	42.448506
33434	1.587973	0.300791	9.672517	0.008382	0.006576	-0.006078	1.000000	-0.000037	0.000036	0.000014	1.788988	-9.258817	42.448381
33435	1.596393	0.281508	9.644927	0.030319	0.001636	-0.032533	1.000000	-0.000045	0.000036	0.000017	1.788732	-9.258773	42.448203
33436	1.564967	0.296297	9.646050	-0.002699	-0.008643	-0.036025	1.000000	-0.000039	0.000033	0.000007	1.789447	-9.259123	42.447286
33437	1.584014	0.332762	9.670886	-0.015940	0.027386	-0.007339	1.000000	-0.000037	0.000036	0.000014	1.790380	-9.259372	42.450299
33438	1.604207	0.297580	9.657694	0.023914	0.016812	-0.018188	1.000000	-0.000056	0.000040	0.000010	1.788974	-9.258899	42.449756
33439	1.584299	0.296501	9.673251	0.008804	0.000948	-0.006076	1.000000	-0.000035	0.000058	0.000003	1.789911	-9.256161	42.447250
33440	1.695098	0.248570	10.235161	0.066387	-0.035361	0.564596	1.000000	-0.000018	-0.000108	0.000101	1.791347	-9.272963	42.456641
33441	1.113805	0.228911	8.745170	-0.198629	-0.238551	-0.999369	1.000000	-0.000320	0.000320	-0.000097	1.761858	-9.240141	42.446470
33442	1.902202	0.809647	9.848150	-0.119846	0.567956	0.233357	1.000000	0.000668	0.000204	0.000045	1.842740	-9.221025	42.450543
33443	1.683977	-0.097718	9.607557	0.362048	-0.214847	-0.067266	1.000000	-0.000382	-0.000184	0.000068	1.803442	-9.246693	42.459075
33444	1.393781	0.261038	9.871964	-0.122060	-0.178762	0.158250	1.000000	-0.000025	0.000043	0.000025	1.805355	-9.245936	42.460206
33445	1.575669	0.180797	9.554132	0.094806	-0.073099	-0.128550	1.000000	-0.000241	0.000070	0.000008	1.782616	-9.242202	42.460127
33446	1.484851	0.481593	9.795939	-0.200018	0.056865	0.104666	1.000000	-0.000032	0.000021	0.000019	1.783815	-9.243889	42.460556
33447	1.471793	0.224228	9.855162	-0.040421	-0.149087	0.153095	1.000000	0.000005	0.000029	0.000003	1.789598	-9.244500	42.459517
33448	1.522808	0.455497	9.611310	-0.135770	0.085973	-0.072160	1.000000	0.000007	0.000043	0.000014	1.795350	-9.243689	42.459348
33449	1.648304	0.159863	9.763211	0.141747	-0.068521	0.088725	1.000000	0.000017	-0.000029	0.000008	1.802383	-9.250855	42.457935
33450	1.513875	0.282973	9.636649	-0.027925	-0.052178	-0.053927	1.000000	-0.000061	-0.000018	0.000021	1.800315	-9.257093	42.458401
33451	1.649624	0.285177	9.571279	0.074599	0.048478	-0.096512	1.000000	-0.000104	-0.000007	0.000004	1.793202	-9.261629	42.455141
33452	1.612320	0.320656	9.642168	0.015798	0.040124	-0.031484	1.000000	-0.000014	0.000014	0.000016	1.796523	-9.264140	42.455198
33453	1.580512	0.298627	9.603091	0.011293	0.007533	-0.075831	1.000000	-0.000048	0.000021	0.000025	1.795756	-9.265665	42.456380
33454	1.645685	0.388324	9.607648	-0.002734	0.115968	-0.058072	1.000000	-0.000032	0.000021	0.000019	1.796956	-9.267353	42.456809
33455	1.632039	0.284116	9.629077	0.055815	0.027366	-0.042348	1.000000	-0.000042	0.000029	0.000020	1.796760	-9.268239	42.456864
33456	1.598551	0.333146	9.628233	-0.001767	0.041340	-0.047058	1.000000	-0.000061	0.000055	0.000005	1.794954	-9.266067	42.455763
33457	1.563482	0.262811	9.663096	0.017054	-0.037864	-0.020484	1.000000	-0.000053	0.000047	0.000024	1.793742	-9.264871	42.457715
33458	1.600486	0.262306	9.632577	0.047538	-0.009384	-0.044650	1.000000	-0.000031	0.000054	0.000013	1.795174	-9.262780	42.457500
33459	1.588415	0.314310	9.658540	0.001179	0.017478	-0.019377	1.000000	-0.000049	0.000051	0.000012	1.794499	-9.261315	42.458277
33460	1.558681	0.294661	9.661658	-0.007282	-0.017020	-0.021692	1.000000	-0.000039	0.000043	0.000012	1.795096	-9.260453	42.457873
33461	1.538789	0.293674	9.677171	-0.022385	-0.032919	-0.009618	1.000000	-0.000041	0.000051	0.000009	1.795370	-9.258581	42.456265
33462	1.568687	0.277160	9.676369	0.010816	-0.024915	-0.006109	1.000000	-0.000043	0.000039	0.000024	1.795286	-9.258219	42.457255
33463	1.577884	0.294845	9.688911	0.004250	-0.007453	0.008288	1.000000	-0.000042	0.000029	0.000020	1.795161	-9.258995	42.457464
33464	1.572748	0.325858	9.644944	-0.016288	0.017589	-0.034953	1.000000	-0.000044	0.000033	-0.000009	1.795523	-9.259225	42.454684
33465	1.562928	0.343699	9.672825	-0.038072	0.020214	-0.008476	1.000000	-0.000013	0.000036	0.000006	1.799068	-9.259288	42.454318
33466	1.583257	0.308888	9.659561	0.001775	0.009658	-0.019366	1.000000	-0.000044	0.000025	0.000013	1.799030	-9.260505	42.454002
33467	1.571674	0.360720	9.685476	-0.044530	0.036523	0.005938	1.000000	-0.000050	0.000029	0.000022	1.798096	-9.261312	42.454965
33468	1.586767	0.320282	9.587974	0.003175	0.029868	-0.089069	1.000000	-0.000060	0.000036	0.000023	1.796017	-9.261343	42.455811
33469	1.612185	0.289888	9.659006	0.035161	0.015431	-0.015846	1.000000	-0.000059	0.000039	0.000029	1.793924	-9.260939	42.456830
33470	1.558881	0.301748	9.633357	-0.009133	-0.007676	-0.049359	1.000000	-0.000043	0.000061	0.000032	1.793597	-9.258151	42.458848
33471	1.596679	0.338059	9.643064	-0.007139	0.043126	-0.032584	1.000000	-0.000054	0.000033	0.000013	1.792305	-9.258542	42.457723
33472	1.571547	0.286365	9.690195	0.005019	-0.017578	0.008275	1.000000	-0.000049	0.000051	0.000012	1.791744	-9.256845	42.457366
33473	1.587459	0.319975	9.673156	-0.004257	0.020403	-0.004939	1.000000	-0.000050	0.000072	0.000020	1.790690	-9.252595	42.455246
33474	1.579026	0.302838	9.703078	-0.001455	-0.001248	0.022696	1.000000	-0.000057	0.000051	0.000014	1.789170	-9.250913	42.455212
33475	1.558406	0.264647	9.678380	0.011900	-0.039460	-0.006158	1.000000	-0.000051	0.000047	0.000005	1.788462	-9.249608	42.453597
33476	1.546457	0.316374	9.704390	-0.034402	-0.012620	0.019173	1.000000	-0.000055	0.000043	0.000017	1.787143	-9.248777	42.453840
33477	1.586351	0.318235	9.716033	-0.007847	0.013928	0.037126	1.000000	-0.000048	0.000029	0.000003	1.786675	-9.249462	42.451054
33478	1.575152	0.261902	9.663508	0.027356	-0.027997	-0.018222	1.000000	-0.000039	0.000043	0.000012	1.787275	-9.248602	42.450649
33479	1.565969	0.316372	9.731626	-0.022861	-0.003107	0.049177	1.000000	-0.000042	0.000026	-0.000006	1.787641	-9.249434	42.445077
33480	1.562848	0.313135	9.689605	-0.018845	-0.002235	0.007121	1.000000	-0.000033	0.000032	0.000023	1.788721	-9.249912	42.446019
33481	1.571526	0.293845	9.661946	0.003081	-0.007052	-0.019364	1.000000	-0.000056	0.000021	0.000028	1.786953	-9.251570	42.446501
33482	1.578365	0.308968	9.632369	0.000461	0.012370	-0.046979	1.000000	-0.000036	0.000025	0.000010	1.787878	-9.252775	42.445859
33483	1.579718	0.273557	9.634393	0.025079	-0.013021	-0.045852	1.000000	-0.000062	0.000032	0.000016	1.785708	-9.253301	42.447037
33484	1.579108	0.272500	9.634523	0.025168	-0.014145	-0.045854	1.000000	-0.000041	0.000032	0.000026	1.785830	-9.253794	42.448303
33485	1.580945	0.274058	9.676803	0.021325	-0.017314	-0.003801	1.000000	-0.000047	0.000043	0.000014	1.785509	-9.253045	42.448957
33486	1.558549	0.270444	9.650134	0.010133	-0.031240	-0.033821	1.000000	-0.000047	0.000043	0.000014	1.785152	-9.252200	42.448876
33487	1.567553	0.288203	9.662761	0.003593	-0.013837	-0.019372	1.000000	-0.000031	0.000043	0.000009	1.786714	-9.251305	42.448055
33488	1.575939	0.269158	9.635136	0.025518	-0.018653	-0.045862	1.000000	-0.000041	0.000040	0.000005	1.787238	-9.250809	42.446858
33489	1.486770	0.300532	9.369973	-0.035044	-0.019955	-0.320819	1.000000	-0.000076	0.000036	0.000028	1.783149	-9.251072	42.450145
33490	1.797347	0.391389	9.798808	0.087900	0.198634	0.154915	1.000000	-0.000096	0.000142	-0.000005	1.777391	-9.238853	42.448223
33491	1.539391	0.034189	9.863290	0.136252	-0.244600	0.166140	1.000000	0.000077	-0.000100	0.000045	1.790713	-9.254579	42.451773
33492	1.431279	0.281163	9.148222	-0.041675	-0.040533	-0.549092	1.000000	-0.000336	0.000126	-0.000011	1.757607	-9.244189	42.449033
33493	1.636593	0.586896	10.151009	-0.197655	0.191078	0.482471	1.000000	0.000089	0.000061	0.000003	1.772894	-9.241426	42.449237
33494	1.536194	0.238921	9.554792	0.025248	-0.054626	-0.132429	1.000000	0.000060	0.000043	0.000013	1.784757	-9.240660	42.449001
33495	1.569241	0.308343	9.520673	0.006664	0.022484	-0.158660	1.000000	-0.000044	0.000087	-0.000007	1.785060	-9.234589	42.445947
33496	1.531007	0.180649	9.784945	0.039707	-0.130615	0.092015	1.000000	-0.000104	0.000040	0.000027	1.777915	-9.234211	42.447334
33497	1.553715	0.346525	9.660983	-0.044664	0.023409	-0.021561	1.000000	-0.000077	0.000057	0.000036	1.773714	-9.231866	42.451073
33498	1.546558	0.411685	9.615323	-0.089740	0.072898	-0.065770	1.000000	-0.000050	0.000037	0.000001	1.773204	-9.231749	42.449406
33499	1.555790	0.275597	9.665030	0.004599	-0.027359	-0.019400	1.000000	-0.000029	0.000047	0.000015	1.774820	-9.230492	42.449548
33500	1.601598	0.365137	9.685578	-0.024530	0.066138	0.010952	1.000000	-0.000035	0.000039	0.000021	1.775702	-9.230124	42.450212
33501	1.585029	0.258326	9.664395	0.037907	-0.020483	-0.015866	1.000000	-0.000054	0.000033	0.000013	1.774378	-9.230297	42.446898
33502	1.568208	0.305257	9.606203	-0.000540	0.010528	-0.074542	1.000000	-0.000045	0.000047	0.000021	1.774103	-9.229093	42.447608
33503	1.527186	0.338285	9.635116	-0.055403	0.003974	-0.051585	1.000000	-0.000047	0.000065	0.000023	1.773495	-9.225815	42.448417
33504	1.608889	0.308519	9.660398	0.022217	0.033753	-0.014455	1.000000	-0.000049	0.000072	0.000020	1.772699	-9.221698	42.449088
33505	1.578744	0.288689	9.663392	0.013727	-0.000717	-0.016937	1.000000	-0.000057	0.000061	0.000019	1.771047	-9.218764	42.449001
33506	1.556057	0.285011	9.636736	0.002526	-0.014568	-0.046982	1.000000	-0.000049	0.000061	0.000016	1.770373	-9.215860	42.449156
33507	1.559724	0.288899	9.721259	-0.005199	-0.019933	0.037117	1.000000	-0.000035	0.000069	0.000008	1.771375	-9.211881	42.446366
33508	1.556667	0.322567	9.719648	-0.029645	0.003204	0.036065	1.000000	-0.000039	0.000054	0.000016	1.771860	-9.209814	42.446476
33509	1.562279	0.300839	9.649929	-0.003815	0.000554	-0.032487	1.000000	-0.000067	0.000069	0.000019	1.769174	-9.206214	42.449293
33510	1.565346	0.267593	9.694133	0.016895	-0.026990	0.010607	1.000000	-0.000049	0.000061	0.000016	1.768502	-9.203311	42.449447
33511	1.541446	0.335154	9.705970	-0.047302	0.005559	0.020520	1.000000	-0.000055	0.000054	0.000021	1.767046	-9.201308	42.450696
33512	1.554030	0.283686	9.722324	-0.004763	-0.025625	0.037104	1.000000	-0.000053	0.000047	0.000024	1.765815	-9.200121	42.451726
33513	1.531750	0.279941	9.695585	-0.015947	-0.039453	0.007047	1.000000	-0.000060	0.000036	0.000022	1.763818	-9.200055	42.452663
33514	1.569294	0.279419	9.665204	0.014559	-0.010856	-0.016944	1.000000	-0.000036	0.000025	0.000010	1.764747	-9.201264	42.452017
33515	1.585946	0.313171	9.648270	0.005322	0.027139	-0.029966	1.000000	-0.000054	0.000032	0.000013	1.763623	-9.201712	42.453594
33516	1.566230	0.311938	9.663657	-0.009797	0.011148	-0.017973	1.000000	-0.000044	0.000036	0.000017	1.763473	-9.201724	42.453786
33517	1.593869	0.292838	9.620752	0.027338	0.021256	-0.056467	1.000000	-0.000060	0.000036	0.000022	1.761546	-9.201805	42.457299
33518	1.595707	0.294179	9.663031	0.023515	0.017946	-0.014416	1.000000	-0.000036	0.000025	0.000010	1.762476	-9.203015	42.456653
33519	1.554503	0.290548	9.651500	-0.002888	-0.010728	-0.032492	1.000000	-0.000047	0.000043	0.000014	1.762172	-9.202122	42.456931
33520	1.584527	0.273860	9.650749	0.030324	-0.002781	-0.028938	1.000000	-0.000048	0.000032	0.000029	1.761341	-9.202637	42.458513
33521	1.600367	0.270683	9.593519	0.049545	0.013169	-0.082968	1.000000	-0.000061	0.000055	0.000005	1.759603	-9.200415	42.457445
33522	1.569045	0.322044	9.635009	-0.011933	0.025046	-0.045484	1.000000	-0.000047	0.000065	0.000023	1.759013	-9.197154	42.458392
33523	1.591237	0.289182	9.663919	0.023983	0.012307	-0.014409	1.000000	-0.000047	0.000054	0.000018	1.758546	-9.195140	42.459665
33524	1.578506	0.304140	9.649779	0.006157	0.016987	-0.029943	1.000000	-0.000051	0.000058	0.000009	1.757801	-9.192602	42.459026
33525	1.588917	0.287178	9.664360	0.024141	0.010058	-0.014407	1.000000	-0.000049	0.000072	0.000020	1.756907	-9.188557	42.459816
33526	1.577790	0.267746	9.652024	0.030847	-0.009534	-0.028944	1.000000	-0.000045	0.000065	0.000004	1.756922	-9.185154	42.458578
33527	1.577030	0.303589	9.692655	0.002478	0.011372	0.012108	1.000000	-0.000043	0.000069	0.000010	1.757006	-9.181521	42.459895
33528	1.566180	0.284112	9.680268	0.009183	-0.008218	-0.002433	1.000000	-0.000056	0.000040	0.000010	1.755624	-9.181061	42.459336
33529	1.546181	0.283035	9.695663	-0.005933	-0.024215	0.009535	1.000000	-0.000029	0.000055	-0.000006	1.757633	-9.178768	42.456072
33530	1.562374	0.316961	9.678878	-0.015165	0.013816	-0.003419	1.000000	-0.000047	0.000054	0.000018	1.757166	-9.176720	42.456502
33531	1.551745	0.297539	9.666448	-0.008473	-0.005776	-0.017967	1.000000	-0.000046	0.000033	0.000010	1.756929	-9.177175	42.457093
33532	1.572436	0.299044	9.693542	0.002919	0.005728	0.012113	1.000000	-0.000053	0.000047	0.000024	1.755703	-9.175993	42.458120
33533	1.579056	0.314307	9.664146	0.000302	0.025307	-0.015378	1.000000	-0.000040	0.000040	0.000005	1.756255	-9.175514	42.457546
33534	1.539463	0.276314	9.654328	-0.001592	-0.027610	-0.032525	1.000000	-0.000039	0.000054	0.000016	1.756747	-9.173453	42.457654
33535	1.536737	0.309818	9.652757	-0.026043	-0.004453	-0.033497	1.000000	-0.000051	0.000039	0.000026	1.755665	-9.173161	42.459361
33536	1.537966	0.274329	9.654623	-0.001426	-0.029857	-0.032532	1.000000	-0.000052	0.000025	0.000016	1.754682	-9.174403	42.459355
33537	1.581017	0.324533	9.593069	0.001834	0.043799	-0.084893	1.000000	-0.000045	0.000055	-0.000000	1.754795	-9.172298	42.459024
33538	1.534365	0.306837	9.653230	-0.025790	-0.007833	-0.033498	1.000000	-0.000051	0.000050	0.000030	1.753648	-9.170757	42.460844
33539	1.575769	0.274203	9.666890	0.025337	-0.005715	-0.014406	1.000000	-0.000041	0.000051	0.000009	1.753939	-9.168978	42.458842
33540	1.553966	0.307495	9.680537	-0.014311	0.002545	-0.003409	1.000000	-0.000048	0.000040	0.000008	1.753517	-9.168505	42.457961
33541	1.543475	0.288091	9.668058	-0.007609	-0.017014	-0.017979	1.000000	-0.000046	0.000032	0.000010	1.753267	-9.168836	42.456641
33542	1.535276	0.270761	9.697747	-0.004815	-0.038882	0.009489	1.000000	-0.000062	0.000043	0.000020	1.751008	-9.168032	42.457194
33543	1.570787	0.304501	9.665807	0.001171	0.014074	-0.015355	1.000000	-0.000058	0.000047	0.000008	1.749408	-9.166697	42.456232
33544	1.560015	0.284877	9.653373	0.007869	-0.005489	-0.029931	1.000000	-0.000060	0.000054	0.000005	1.747633	-9.164539	42.455118
33545	1.568982	0.302388	9.666166	0.001348	0.011815	-0.015352	1.000000	-0.000033	0.000032	0.000023	1.748737	-9.165056	42.456754
33546	1.568197	0.301466	9.666323	0.001438	0.010688	-0.015351	1.000000	-0.000057	0.000050	0.000014	1.747239	-9.163388	42.456710
33547	1.578889	0.284364	9.680844	0.019431	0.003716	0.000167	1.000000	-0.000053	0.000046	0.000024	1.745924	-9.162222	42.457321
33548	1.575562	0.281039	9.638878	0.023422	0.004918	-0.041875	1.000000	-0.000057	0.000061	0.000019	1.744306	-9.159343	42.457793
33549	1.543666	0.295688	9.639953	-0.009627	-0.005254	-0.045451	1.000000	-0.000049	0.000061	0.000016	1.743622	-9.156507	42.458474
33550	1.575436	0.281061	9.681503	0.019689	0.000326	0.000167	1.000000	-0.000059	0.000069	0.000016	1.741807	-9.152779	42.458669
33551	1.581874	0.296090	9.652195	0.017067	0.019945	-0.027281	1.000000	-0.000062	0.000043	0.000020	1.739625	-9.152090	42.461832
33552	1.573489	0.278588	9.681891	0.019861	-0.001954	0.000166	1.000000	-0.000064	0.000048	-0.000008	1.737699	-9.150655	42.459130
33553	1.581666	0.259302	9.654275	0.041761	-0.006586	-0.026363	1.000000	-0.000049	0.000072	0.000020	1.736855	-9.146541	42.459016
33554	1.550291	0.310577	9.695824	-0.019700	0.005177	0.011184	1.000000	-0.000054	0.000043	0.000017	1.735557	-9.145725	42.459247
33555	1.596617	0.923723	11.456926	-0.566499	0.254006	1.775157	1.000000	0.000569	0.000185	0.000065	1.804915	-9.129283	42.473406
33556	1.937947	2.084765	2.760553	-0.270366	2.468196	-6.721179	0.999998	-0.001633	0.001072	0.000840	1.607149	-9.013470	42.572677
33557	0.338904	-3.215685	16.672812	0.790271	-4.261228	6.608488	0.999997	-0.000596	-0.002073	-0.001251	1.568775	-9.251259	42.418173
33558	2.837640	1.180786	5.682585	0.713261	2.025409	-3.719484	0.999996	0.002173	0.001891	0.000566	1.811558	-9.040597	42.488381
33559	0.669417	0.710255	12.902823	-1.217317	-0.705451	3.050278	1.000000	0.000006	-0.000402	0.000110	1.815714	-9.091211	42.497288
33560	0.740011	-0.499350	9.738092	-0.060134	-1.126898	-0.099099	0.999998	-0.001799	-0.000067	-0.000103	1.616827	-9.102560	42.483201
33561	2.029030	1.041121	8.715939	-0.070634	0.992913	-0.858496	0.999999	0.001689	-0.000209	-0.000036	1.816341	-9.130180	42.476829
33562	1.505212	0.021418	9.996037	0.114768	-0.275887	0.291644	0.999999	-0.001448	-0.000225	-0.000010	1.656003	-9.159937	42.472975
33563	1.846680	-0.351052	9.274576	0.676759	-0.224905	-0.376447	1.000000	0.000431	-0.000181	0.000031	1.710199	-9.184761	42.475580
33564	1.525122	0.858520	10.263030	-0.474271	0.315363	0.582910	1.000000	-0.000112	-0.000094	-0.000087	1.704273	-9.199241	42.463233
33565	1.751706	-0.334469	8.953448	0.626625	-0.240768	-0.708076	1.000000	-0.000013	-0.000032	-0.000105	1.709941	-9.206490	42.448952
33566	1.630698	1.053391	9.102582	-0.415299	0.675418	-0.539222	1.000000	0.000282	0.000050	-0.000032	1.748151	-9.204725	42.443570
33567	1.782401	0.267497	9.515564	0.188551	0.145205	-0.130858	1.000000	-0.000291	0.000044	0.000027	1.719628	-9.203840	42.446351
33568	1.765271	0.094340	9.963300	0.248469	-0.049904	0.303053	1.000000	0.000001	0.000047	0.000103	1.723113	-9.202912	42.456530
33569	1.568967	0.550479	9.216353	-0.129920	0.251572	-0.451828	1.000000	-0.000012	0.000128	0.000052	1.725935	-9.192536	42.461438
33570	1.672270	0.043749	9.773406	0.235668	-0.121632	0.099302	1.000000	-0.000178	0.000181	0.000033	1.710110	-9.176015	42.463985
33571	1.612222	0.258898	10.020618	0.023527	-0.034020	0.340015	1.000000	0.000086	0.000130	0.000080	1.723665	-9.165536	42.471966
33572	1.509982	0.307597	9.698776	-0.051227	-0.024308	0.007582	1.000000	-0.000091	0.000079	0.000031	1.717910	-9.160665	42.473956
33573	1.306288	0.212041	9.756762	-0.139866	-0.236854	0.029574	1.000000	-0.000026	0.000093	0.000020	1.719696	-9.154208	42.475342
33574	1.451801	0.370730	10.024024	-0.166395	-0.058363	0.321173	1.000000	0.000046	0.000035	0.000021	1.729832	-9.154338	42.476065
33575	1.510816	0.274465	9.743080	-0.030367	-0.054455	0.050457	1.000000	-0.000006	-0.000005	0.000031	1.733779	-9.159099	42.478954
33576	1.453120	0.082601	9.783795	0.053265	-0.240266	0.075713	1.000000	-0.000030	-0.000054	-0.000010	1.735830	-9.169275	42.475746
33577	1.515951	0.348924	9.866096	-0.090900	-0.015526	0.174865	1.000000	-0.000002	-0.000098	0.000000	1.740903	-9.184474	42.473700
33578	1.511198	0.343088	9.739255	-0.079135	-0.009248	0.048761	1.000000	0.000038	-0.000100	-0.000039	1.751369	-9.199855	42.466934
33579	1.477180	0.282412	9.574276	-0.047599	-0.058065	-0.121303	1.000000	0.000035	-0.000115	-0.000031	1.761136	-9.216982	42.462485
33580	1.559418	0.395753	9.677131	-0.075770	0.063543	-0.003228	1.000000	0.000009	-0.000108	-0.000025	1.767974	-9.233276	42.457265
33581	1.554582	0.389566	9.550293	-0.064000	0.069900	-0.129320	1.000000	-0.000005	-0.000094	-0.000009	1.772821	-9.247936	42.454125
33582	1.645462	0.303638	9.464719	0.067782	0.076536	-0.201746	1.000000	0.000001	-0.000059	0.000026	1.777766	-9.258836	42.455069
33583	1.619894	0.440432	9.473352	-0.045401	0.157685	-0.193149	1.000000	-0.000061	-0.000016	0.000046	1.775161	-9.264852	42.459350
33584	1.679225	0.288094	9.505944	0.097204	0.080843	-0.156094	1.000000	-0.000048	0.000013	0.000046	1.774046	-9.267590	42.462868
33585	1.601558	0.366935	9.449749	-0.007523	0.094422	-0.221628	1.000000	-0.000049	0.000053	0.000037	1.773025	-9.265765	42.467484
33586	1.566107	0.332673	9.524126	-0.017235	0.036606	-0.155012	1.000000	-0.000076	0.000082	0.000051	1.768649	-9.260653	42.471823
33587	1.551465	0.300442	9.625589	-0.015625	-0.008788	-0.058255	1.000000	-0.000078	0.000110	0.000057	1.763809	-9.252269	42.477065
33588	1.505323	0.247646	9.687351	-0.018744	-0.085002	-0.006336	1.000000	-0.000055	0.000111	0.000049	1.761872	-9.243840	42.481207
33589	1.536340	0.232643	9.729002	0.010596	-0.079639	0.039292	1.000000	-0.000067	0.000090	0.000027	1.758874	-9.237669	42.482627
33590	1.490695	0.179960	9.790632	0.007475	-0.155876	0.091185	1.000000	-0.000063	0.000072	0.000007	1.756797	-9.233454	42.481758
33591	1.476594	0.265964	9.815556	-0.063269	-0.104992	0.116119	1.000000	-0.000038	0.000051	-0.000010	1.757770	-9.231565	42.479049
33592	1.504249	0.247378	9.772673	-0.026159	-0.094579	0.077685	1.000000	-0.000044	0.000033	-0.000009	1.758166	-9.231798	42.476260
33593	1.480289	0.242340	9.703543	-0.033506	-0.105564	0.005482	1.000000	-0.000031	0.000005	-0.000036	1.760521	-9.235048	42.470396
33594	1.559902	0.318130	9.766352	-0.033240	-0.005908	0.082513	1.000000	-0.000021	-0.000002	-0.000036	1.764073	-9.239220	42.464298
33595	1.582339	0.330174	9.637385	-0.012863	0.033963	-0.040754	1.000000	-0.000046	-0.000016	-0.000039	1.764707	-9.244882	42.457484
33596	1.642185	0.332550	9.634094	0.028986	0.075158	-0.034311	1.000000	-0.000019	-0.000007	-0.000008	1.767924	-9.249695	42.454637
33597	1.679326	0.403420	9.642830	0.006606	0.150014	-0.017561	1.000000	-0.000049	-0.000014	0.000006	1.767470	-9.255352	42.453865
33598	1.667104	0.345426	9.547304	0.045566	0.111373	-0.115518	1.000000	-0.000061	-0.000008	0.000025	1.765292	-9.260395	42.454796
33599	1.698012	0.365085	9.587148	0.050401	0.140995	-0.070639	1.000000	-0.000039	0.000035	0.000033	1.765509	-9.260528	42.457550
33600	1.662360	0.294374	9.620762	0.069079	0.061330	-0.045363	1.000000	-0.000073	0.000064	0.000050	1.761454	-9.257481	42.461643
33601	1.672601	0.277082	9.635319	0.087091	0.054253	-0.029886	1.000000	-0.000034	0.000077	0.000066	1.761486	-9.252886	42.466862
33602	1.604084	0.256755	9.668261	0.048121	-0.010117	-0.009022	1.000000	-0.000053	0.000060	0.000053	1.759620	-9.250300	42.471385
33603	1.562388	0.253092	9.656591	0.021657	-0.038589	-0.027346	1.000000	-0.000040	0.000067	0.000045	1.759463	-9.246857	42.475433
33604	1.536616	0.237575	9.743563	0.005351	-0.078222	0.053847	1.000000	-0.000035	0.000061	0.000029	1.760121	-9.244090	42.477137
33605	1.473823	0.232002	9.704780	-0.032452	-0.119063	0.005332	1.000000	-0.000027	0.000039	0.000018	1.761950	-9.243779	42.478707
33606	1.511938	0.268475	9.715259	-0.030320	-0.068548	0.022895	1.000000	-0.000028	0.000025	0.000007	1.763850	-9.244981	42.477738
33607	1.542388	0.252142	9.714469	0.002903	-0.060666	0.026507	1.000000	-0.000029	0.000001	-0.000008	1.765838	-9.248905	42.474472
33608	1.555714	0.318847	9.654116	-0.026921	0.004416	-0.028868	1.000000	-0.000027	0.000012	-0.000023	1.768392	-9.251522	42.470005
33609	1.596000	0.321088	9.666073	-0.000283	0.030631	-0.010527	1.000000	-0.000016	0.000008	-0.000016	1.772100	-9.254582	42.466348
33610	1.602924	0.300455	9.596058	0.025488	0.028776	-0.079112	1.000000	-0.000048	0.000018	-0.000001	1.771935	-9.256532	42.464426
33611	1.629610	0.352637	9.592271	0.009701	0.085286	-0.076965	1.000000	-0.000052	0.000033	-0.000006	1.771305	-9.256758	42.462081
33612	1.630427	0.317185	9.593992	0.034295	0.059853	-0.076219	1.000000	-0.000053	0.000065	0.000006	1.770387	-9.253381	42.461170
33613	1.606403	0.384728	9.606345	-0.029845	0.092373	-0.065843	1.000000	-0.000053	0.000076	0.000011	1.769362	-9.248839	42.462031
33614	1.608950	0.351048	9.650323	-0.009130	0.064292	-0.023077	1.000000	-0.000067	0.000068	0.000019	1.766607	-9.245137	42.462552
33615	1.568608	0.312795	9.640209	-0.011094	0.011540	-0.040699	1.000000	-0.000052	0.000101	0.000026	1.765401	-9.237785	42.464201
33616	1.549946	0.313231	9.697822	-0.030100	-0.007223	0.013158	1.000000	-0.000065	0.000072	0.000025	1.762723	-9.233726	42.465515
33617	1.529528	0.311728	9.713177	-0.045237	-0.023333	0.024988	1.000000	-0.000045	0.000060	0.000051	1.761764	-9.231151	42.470085
33618	1.511006	0.276000	9.729999	-0.035864	-0.063764	0.037533	1.000000	-0.000039	0.000056	0.000041	1.761740	-9.228897	42.473175
33619	1.519774	0.293369	9.742972	-0.042353	-0.046579	0.052266	1.000000	-0.000051	0.000050	0.000030	1.760607	-9.227359	42.475255
33620	1.509216	0.274042	9.730332	-0.035684	-0.066027	0.037519	1.000000	-0.000040	0.000032	0.000026	1.760747	-9.227879	42.476510
33621	1.539439	0.257554	9.729600	-0.002456	-0.058174	0.041141	1.000000	-0.000026	0.000018	0.000010	1.762834	-9.229929	42.476541
33622	1.525970	0.307407	9.713875	-0.044788	-0.028984	0.024975	1.000000	-0.000043	0.000004	0.000004	1.763061	-9.233581	42.475164
33623	1.556178	0.254390	9.672392	0.016821	-0.042743	-0.012715	1.000000	-0.000042	0.000007	0.000011	1.763311	-9.236785	42.473804
33624	1.532973	0.285845	9.643872	-0.018932	-0.031849	-0.043624	1.000000	-0.000032	0.000010	0.000015	1.764647	-9.239706	42.473700
33625	1.571150	0.285700	9.613704	0.011598	-0.002986	-0.067263	1.000000	-0.000047	0.000008	-0.000005	1.764615	-9.242843	42.472196
33626	1.530390	0.282327	9.601803	-0.014875	-0.031392	-0.085653	1.000000	-0.000038	0.000022	0.000003	1.765485	-9.244420	42.470749
33627	1.587400	0.282459	9.556587	0.030873	0.012493	-0.121100	1.000000	-0.000046	0.000032	0.000010	1.765207	-9.244718	42.469686
33628	1.565801	0.315581	9.570362	-0.008755	0.020702	-0.109974	1.000000	-0.000056	0.000040	0.000010	1.763849	-9.244269	42.469120
33629	1.597829	0.300600	9.611891	0.020600	0.025852	-0.064315	1.000000	-0.000054	0.000043	0.000017	1.762533	-9.243431	42.469849
33630	1.587062	0.281057	9.599282	0.027265	0.006432	-0.079076	1.000000	-0.000065	0.000061	0.000021	1.759979	-9.240583	42.470642
33631	1.590024	0.283724	9.683904	0.019612	-0.000134	0.004964	1.000000	-0.000043	0.000071	0.000036	1.759543	-9.236578	42.473071
33632	1.558067	0.298460	9.684962	-0.013440	-0.010237	0.001326	1.000000	-0.000057	0.000061	0.000019	1.757947	-9.233714	42.473546
33633	1.547486	0.315312	9.713101	-0.035143	-0.008068	0.027901	1.000000	-0.000057	0.000061	0.000019	1.756329	-9.230820	42.474410
33634	1.559512	0.263667	9.729058	0.007364	-0.039553	0.044013	1.000000	-0.000047	0.000064	0.000023	1.755766	-9.227584	42.475363
33635	1.537312	0.260614	9.702126	-0.003888	-0.052935	0.013792	1.000000	-0.000033	0.000032	0.000023	1.756852	-9.228024	42.476139
33636	1.541009	0.263750	9.786604	-0.011543	-0.059568	0.097823	1.000000	-0.000026	0.000018	0.000010	1.758951	-9.230079	42.475442
33637	1.575052	0.260136	9.672080	0.026728	-0.025174	-0.009818	1.000000	-0.000024	-0.000000	0.000008	1.761311	-9.234168	42.475243
33638	1.584865	0.277972	9.684916	0.020245	-0.008017	0.004960	1.000000	-0.000025	-0.000004	0.000001	1.763649	-9.238638	42.473503
33639	1.590395	0.292105	9.613385	0.021507	0.014680	-0.064294	1.000000	-0.000022	0.000011	-0.000006	1.766519	-9.241332	42.471011
33640	1.629032	0.328486	9.623995	0.023675	0.065132	-0.046515	1.000000	-0.000040	-0.000000	0.000014	1.767020	-9.245478	42.470701
33641	1.607687	0.325601	9.596925	0.012421	0.051782	-0.076733	1.000000	-0.000031	0.000008	-0.000010	1.768879	-9.248537	42.467385
33642	1.626532	0.325211	9.581920	0.027732	0.065673	-0.088518	1.000000	-0.000042	0.000028	0.000019	1.768946	-9.249418	42.467844
33643	1.587604	0.323728	9.612214	-0.002624	0.034538	-0.064932	1.000000	-0.000040	0.000029	0.000001	1.769574	-9.250125	42.466350
33644	1.596616	0.341180	9.625208	-0.009104	0.051693	-0.050134	1.000000	-0.000048	0.000050	0.000012	1.769057	-9.248453	42.465987
33645	1.556855	0.303168	9.614813	-0.011100	-0.000987	-0.067935	1.000000	-0.000053	0.000057	0.000028	1.767694	-9.246073	42.467753
33646	1.556079	0.338505	9.655796	-0.039370	0.019422	-0.026553	1.000000	-0.000041	0.000061	0.000013	1.768014	-9.243178	42.467595
33647	1.556599	0.302986	9.657447	-0.014794	-0.006027	-0.025919	1.000000	-0.000063	0.000064	0.000028	1.765500	-9.239972	42.469726
33648	1.566930	0.285722	9.671938	0.003218	-0.013213	-0.010489	1.000000	-0.000045	0.000057	0.000025	1.765134	-9.237589	42.470953
33649	1.556408	0.302751	9.700070	-0.018478	-0.011096	0.016095	1.000000	-0.000045	0.000057	0.000025	1.764809	-9.235205	42.473010
33650	1.545566	0.283454	9.687416	-0.011821	-0.030493	0.001286	1.000000	-0.000052	0.000054	0.000002	1.764024	-9.233040	42.471577
33651	1.602644	0.319785	9.683162	0.005578	0.034957	0.007348	1.000000	-0.000044	0.000036	0.000017	1.763868	-9.233053	42.472145
33652	1.563248	0.282072	9.672640	0.003579	-0.017722	-0.010496	1.000000	-0.000030	0.000033	0.000005	1.765580	-9.233408	42.470899
33653	1.589858	0.334420	9.669161	-0.012163	0.038765	-0.008071	1.000000	-0.000044	0.000036	0.000017	1.765466	-9.233442	42.472071
33654	1.598720	0.315634	9.641353	0.009715	0.034403	-0.034654	1.000000	-0.000036	0.000025	0.000010	1.766416	-9.234664	42.471416
33655	1.567386	0.330611	9.642286	-0.023344	0.024330	-0.038305	1.000000	-0.000046	0.000043	0.000014	1.766065	-9.233848	42.471715
33656	1.589440	0.297351	9.670995	0.012591	0.011053	-0.007454	1.000000	-0.000048	0.000050	0.000012	1.765550	-9.232179	42.471351
33657	1.596402	0.312686	9.641833	0.009981	0.031037	-0.034643	1.000000	-0.000064	0.000031	0.000034	1.762803	-9.232737	42.473834
33658	1.556984	0.274593	9.631289	0.007976	-0.021625	-0.052523	1.000000	-0.000048	0.000040	0.000007	1.762409	-9.232275	42.472948
33659	1.535278	0.307601	9.645122	-0.031643	-0.013445	-0.041357	1.000000	-0.000062	0.000043	0.000020	1.760189	-9.231484	42.473906
33660	1.557536	0.274132	9.673790	0.004292	-0.026737	-0.010517	1.000000	-0.000050	0.000028	0.000022	1.759302	-9.232385	42.474678
33661	1.547134	0.254790	9.661038	0.010950	-0.046110	-0.025351	1.000000	-0.000050	0.000039	0.000026	1.758307	-9.232038	42.475803
33662	1.544769	0.288208	9.659799	-0.013446	-0.022900	-0.025942	1.000000	-0.000048	0.000032	0.000029	1.757495	-9.232584	42.477371
33663	1.555765	0.271182	9.674158	0.004566	-0.030113	-0.010527	1.000000	-0.000034	0.000018	0.000012	1.758629	-9.234641	42.477238
33664	1.555212	0.270438	9.674268	0.004655	-0.031241	-0.010530	1.000000	-0.000040	0.000040	0.000005	1.759192	-9.234163	42.476035
33665	1.544766	0.251240	9.661510	0.011303	-0.050602	-0.025374	1.000000	-0.000048	0.000032	0.000029	1.758335	-9.234687	42.477844
33666	1.592433	0.269431	9.644413	0.035279	-0.003411	-0.034043	1.000000	-0.000028	0.000025	0.000007	1.760243	-9.235894	42.476872
33667	1.568937	0.301199	9.616010	-0.000478	0.007668	-0.064873	1.000000	-0.000028	0.000036	0.000011	1.762002	-9.235868	42.476488
33668	1.560488	0.284012	9.645446	0.002310	-0.014595	-0.037709	1.000000	-0.000036	0.000036	0.000014	1.762835	-9.235885	42.476354
33669	1.600173	0.285792	9.657701	0.028987	0.011469	-0.019198	1.000000	-0.000031	0.000043	0.000009	1.764363	-9.234985	42.475402
33670	1.568739	0.301014	9.658630	-0.004072	0.001405	-0.022862	1.000000	-0.000028	0.000036	0.000011	1.766153	-9.234986	42.474953
33671	1.569927	0.302063	9.700985	-0.007843	-0.002633	0.019146	1.000000	-0.000042	0.000047	0.000002	1.766493	-9.233636	42.473551
33672	1.577008	0.317815	9.671825	-0.010451	0.017390	-0.008007	1.000000	-0.000036	0.000025	0.000010	1.767446	-9.234860	42.472895
33673	1.585750	0.299199	9.644018	0.011424	0.013085	-0.034604	1.000000	-0.000033	0.000051	0.000006	1.768830	-9.233120	42.472021
33674	1.556268	0.315934	9.687159	-0.025494	0.000095	0.003737	1.000000	-0.000048	0.000032	0.000029	1.768020	-9.233668	42.473587
33675	1.536503	0.314539	9.702315	-0.040623	-0.016085	0.015475	1.000000	-0.000052	0.000025	0.000015	1.767099	-9.234911	42.474037
33676	1.564702	0.295929	9.659442	-0.003527	-0.005342	-0.022863	1.000000	-0.000050	0.000028	0.000022	1.766215	-9.235814	42.474807
33677	1.564269	0.294982	9.659541	-0.003443	-0.006467	-0.022864	1.000000	-0.000042	0.000018	0.000015	1.766375	-9.237929	42.475829
33678	1.592871	0.312686	9.657519	0.005316	0.025680	-0.019731	1.000000	-0.000046	0.000024	0.000031	1.765760	-9.239329	42.477669
33679	1.563239	0.293253	9.659761	-0.003256	-0.008708	-0.022866	1.000000	-0.000031	0.000043	0.000009	1.767345	-9.238402	42.476416
33680	1.543396	0.292004	9.674917	-0.018393	-0.024888	-0.011136	1.000000	-0.000056	0.000021	0.000027	1.765698	-9.240173	42.477775
33681	1.591150	0.310099	9.657886	0.005607	0.022309	-0.019723	1.000000	-0.000032	0.000029	-0.000002	1.767398	-9.240839	42.475563
33682	1.611624	0.275373	9.644271	0.045401	0.011892	-0.030923	1.000000	-0.000028	0.000017	0.000029	1.768888	-9.243056	42.477044
33683	1.580386	0.290419	9.645167	0.012339	0.001850	-0.034597	1.000000	-0.000046	0.000043	0.000014	1.768537	-9.242215	42.477348
33684	1.598904	0.289851	9.630287	0.027655	0.015782	-0.046321	1.000000	-0.000046	0.000032	0.000010	1.768342	-9.242606	42.476733
33685	1.585039	0.339560	9.614881	-0.014655	0.045144	-0.062235	1.000000	-0.000050	0.000047	0.000005	1.767751	-9.241285	42.475671
33686	1.587722	0.305985	9.658581	0.006056	0.016686	-0.019712	1.000000	-0.000033	0.000051	0.000006	1.769157	-9.239586	42.474675
33687	1.586971	0.305062	9.658734	0.006145	0.015562	-0.019710	1.000000	-0.000058	0.000028	0.000025	1.767301	-9.240501	42.476140
33688	1.597546	0.287844	9.673152	0.024159	0.008293	-0.004312	1.000000	-0.000041	0.000061	0.000013	1.767633	-9.237613	42.475983
33689	1.554425	0.318929	9.659876	-0.026828	0.004400	-0.023386	1.000000	-0.000052	0.000046	0.000024	1.766394	-9.236428	42.476542
33690	1.574561	0.283755	9.646318	0.012963	-0.006011	-0.034599	1.000000	-0.000052	0.000036	0.000020	1.765320	-9.236482	42.477038
33691	1.554608	0.282328	9.661479	-0.002175	-0.022191	-0.022887	1.000000	-0.000050	0.000039	0.000026	1.764275	-9.236136	42.477948
33692	1.544405	0.299232	9.689587	-0.023862	-0.020183	0.003720	1.000000	-0.000044	0.000036	0.000017	1.764156	-9.236173	42.478129
33693	1.593610	0.282852	9.673948	0.024612	0.002672	-0.004310	1.000000	-0.000042	0.000039	0.000024	1.764117	-9.235828	42.478918
33694	1.583217	0.263716	9.661123	0.031249	-0.016653	-0.019212	1.000000	-0.000042	0.000028	0.000019	1.764191	-9.236716	42.479371
33695	1.582896	0.298863	9.702172	0.003013	0.003550	0.022301	1.000000	-0.000054	0.000032	0.000013	1.762987	-9.237097	42.479016
33696	1.570579	0.277960	9.647136	0.013501	-0.012738	-0.034606	1.000000	-0.000044	0.000036	0.000017	1.762869	-9.237135	42.479196
33697	1.598964	0.295816	9.645217	0.022268	0.019404	-0.031403	1.000000	-0.000032	0.000029	-0.000002	1.764481	-9.237853	42.477554
33698	1.549977	0.276144	9.662402	-0.001554	-0.030057	-0.022908	1.000000	-0.000037	0.000046	0.000018	1.765200	-9.236669	42.477943
33699	1.578160	0.293900	9.660523	0.007214	0.002083	-0.019699	1.000000	-0.000048	0.000040	0.000007	1.764781	-9.236216	42.477644
33700	1.567818	0.310880	9.688659	-0.014471	0.004068	0.006915	1.000000	-0.000042	0.000047	0.000002	1.765160	-9.234889	42.476167
33701	1.578111	0.257748	9.662119	0.031860	-0.024512	-0.019231	1.000000	-0.000038	0.000043	0.000012	1.765741	-9.234014	42.475305
33702	1.544909	0.307218	9.661782	-0.025673	-0.010189	-0.023387	1.000000	-0.000043	0.000050	0.000028	1.765580	-9.232494	42.476805
33703	1.563670	0.342798	9.687884	-0.038670	0.025048	0.006454	1.000000	-0.000042	0.000028	0.000019	1.765660	-9.233387	42.477460
33704	1.554776	0.289232	9.676320	-0.007570	-0.018617	-0.008007	1.000000	-0.000044	0.000054	-0.000000	1.765847	-9.231209	42.475711
33705	1.573113	0.288739	9.661502	0.007749	-0.004663	-0.019700	1.000000	-0.000041	0.000042	0.000030	1.765873	-9.230538	42.477780
33706	1.553150	0.287491	9.676633	-0.007391	-0.020871	-0.008011	1.000000	-0.000040	0.000032	0.000026	1.766023	-9.231075	42.479028
33707	1.562362	0.304846	9.689732	-0.013845	-0.003819	0.006916	1.000000	-0.000044	0.000025	0.000013	1.766001	-9.232309	42.478719
33708	1.571302	0.286094	9.661876	0.008016	-0.008039	-0.019703	1.000000	-0.000044	0.000036	0.000017	1.765885	-9.232348	42.478898
33709	1.578827	0.337970	9.673741	-0.022905	0.033368	-0.005213	1.000000	-0.000036	0.000025	0.000010	1.766811	-9.233585	42.478915
33710	1.570069	0.284605	9.662120	0.008191	-0.010289	-0.019705	1.000000	-0.000030	0.000043	0.000009	1.768414	-9.232739	42.478193
33711	1.569566	0.319990	9.703233	-0.020025	0.009837	0.021852	1.000000	-0.000038	0.000032	0.000007	1.769197	-9.233079	42.477387
33712	1.595848	0.300086	9.618187	0.020913	0.023828	-0.058442	1.000000	-0.000044	0.000036	0.000017	1.769081	-9.233119	42.477565
33713	1.556671	0.298362	9.648287	-0.009461	-0.007470	-0.035084	1.000000	-0.000048	0.000032	0.000029	1.768257	-9.233668	42.479164
33714	1.577091	0.299521	9.675661	0.002014	0.003374	-0.004766	1.000000	-0.000030	0.000043	0.000009	1.769861	-9.232822	42.478443
33715	1.555136	0.296848	9.648581	-0.009279	-0.009712	-0.035086	1.000000	-0.000038	0.000043	0.000011	1.770497	-9.231951	42.478017
33716	1.583335	0.314513	9.646771	-0.000495	0.022417	-0.031811	1.000000	-0.000054	0.000043	0.000017	1.769235	-9.231158	42.478238
33717	1.555513	0.296585	9.691091	-0.012945	-0.015094	0.006906	1.000000	-0.000036	0.000025	0.000010	1.770175	-9.232373	42.477647
33718	1.572267	0.294479	9.634036	0.006221	0.002012	-0.046759	1.000000	-0.000052	0.000046	0.000024	1.768988	-9.231227	42.478664
33719	1.562185	0.311408	9.662140	-0.015458	0.003951	-0.020135	1.000000	-0.000037	0.000011	-0.000001	1.769989	-9.234007	42.477117
33720	1.561781	0.310536	9.662233	-0.015368	0.002824	-0.020134	1.000000	-0.000048	0.000032	0.000029	1.769186	-9.234563	42.478678
33721	1.562737	0.275001	9.663587	0.009185	-0.022666	-0.019726	1.000000	-0.000056	0.000040	0.000010	1.767864	-9.234113	42.478169
33722	1.589282	0.290960	9.619554	0.021814	0.012618	-0.058424	1.000000	-0.000050	0.000028	0.000022	1.766987	-9.235024	42.478933
33723	1.580797	0.273338	9.648874	0.024599	-0.009819	-0.031394	1.000000	-0.000046	0.000032	0.000010	1.766811	-9.235405	42.478545
33724	1.610899	0.292651	9.689296	0.029545	0.019134	0.013902	1.000000	-0.000037	0.000046	0.000018	1.767535	-9.234225	42.478934
33725	1.548640	0.287528	9.649908	-0.008383	-0.020955	-0.035102	1.000000	-0.000046	0.000032	0.000010	1.767347	-9.234637	42.478788
33726	1.607630	0.289317	9.647372	0.033564	0.020050	-0.028086	1.000000	-0.000048	0.000040	0.000007	1.766969	-9.234181	42.477897
33727	1.587532	0.288096	9.662494	0.018421	0.003818	-0.016428	1.000000	-0.000031	0.000046	0.000034	1.768042	-9.233156	42.480314
33728	1.565535	0.285207	9.635411	0.007118	-0.009226	-0.046764	1.000000	-0.000064	0.000048	-0.000009	1.766178	-9.231721	42.477598
33729	1.574370	0.302428	9.648624	0.000673	0.007795	-0.031788	1.000000	-0.000037	0.000046	0.000018	1.766879	-9.230533	42.478338
33730	1.567391	0.286529	9.720188	-0.000385	-0.017866	0.037213	1.000000	-0.000038	0.000043	0.000011	1.767531	-9.229707	42.477930
33731	1.584054	0.284450	9.663173	0.018769	-0.000679	-0.016428	1.000000	-0.000054	0.000043	0.000017	1.766205	-9.228923	42.478589
33732	1.571948	0.299720	9.649104	0.000934	0.004427	-0.031786	1.000000	-0.000044	0.000036	0.000017	1.766094	-9.228967	42.478767
33733	1.551903	0.298402	9.664207	-0.014217	-0.011801	-0.020139	1.000000	-0.000046	0.000043	0.000014	1.765735	-9.228155	42.478684
33734	1.570552	0.297807	9.649390	0.001107	0.002184	-0.031785	1.000000	-0.000052	0.000025	0.000015	1.764786	-9.229420	42.478649
33735	1.561958	0.280299	9.678691	0.003884	-0.020292	-0.004787	1.000000	-0.000030	0.000043	0.000009	1.766371	-9.228584	42.478193
33736	1.557803	0.312334	9.635452	-0.016643	0.006178	-0.047140	1.000000	-0.000060	0.000035	0.000022	1.764350	-9.228663	42.478996
33737	1.579869	0.278810	9.664023	0.019294	-0.007430	-0.016432	1.000000	-0.000032	0.000032	0.000023	1.765435	-9.229189	42.479947
33738	1.567841	0.294267	9.649940	0.001458	-0.002311	-0.031785	1.000000	-0.000048	0.000040	0.000007	1.765059	-9.228734	42.479055
33739	1.557524	0.311130	9.678094	-0.020218	-0.000431	-0.005151	1.000000	-0.000042	0.000039	0.000024	1.765015	-9.228444	42.480754
33740	1.574370	0.309289	9.621063	-0.001057	0.016806	-0.058772	1.000000	-0.000030	0.000032	0.000005	1.766742	-9.228805	42.479508
33741	1.536842	0.309288	9.693303	-0.035279	-0.017808	0.006483	1.000000	-0.000040	0.000040	0.000005	1.767303	-9.228361	42.479032
33742	1.566631	0.292631	9.692741	-0.002029	-0.010070	0.010198	1.000000	-0.000035	0.000050	0.000025	1.768105	-9.226832	42.480219
33743	1.514128	0.305870	9.666326	-0.046496	-0.031928	-0.023876	1.000000	-0.000038	0.000032	0.000007	1.768899	-9.227200	42.479172
33744	1.584504	0.291283	9.678089	0.013390	0.002792	-0.001433	1.000000	-0.000060	0.000035	0.000022	1.766879	-9.227281	42.479974
33745	1.541887	0.322498	9.664727	-0.037613	-0.000937	-0.020499	1.000000	-0.000032	0.000032	0.000023	1.767952	-9.227813	42.481327
33746	1.571864	0.305893	9.664139	-0.004362	0.006800	-0.016778	1.000000	-0.000035	0.000039	0.000021	1.768872	-9.227488	42.481988
33747	1.590467	0.305399	9.649350	0.010969	0.020798	-0.028401	1.000000	-0.000052	0.000036	0.000019	1.767834	-9.227537	42.482774
33748	1.560970	0.321789	9.692422	-0.025937	0.007527	0.009863	1.000000	-0.000042	0.000028	0.000019	1.767917	-9.228433	42.483222
33749	1.581275	0.286832	9.678750	0.013838	-0.002846	-0.001433	1.000000	-0.000044	0.000036	0.000017	1.767791	-9.228467	42.483672
33750	1.548340	0.300280	9.637360	-0.015401	-0.009540	-0.047140	1.000000	-0.000054	0.000022	0.000008	1.766772	-9.230086	42.482836
33751	1.588281	0.301692	9.649827	0.011332	0.016308	-0.028393	1.000000	-0.000030	0.000024	0.000026	1.768049	-9.231410	42.483812
33752	1.587716	0.300905	9.649944	0.011422	0.015183	-0.028391	1.000000	-0.000044	0.000036	0.000017	1.767941	-9.231456	42.483988
33753	1.608094	0.301859	9.677384	0.022919	0.025881	0.001978	1.000000	-0.000044	0.000036	0.000017	1.767848	-9.231493	42.484086
33754	1.567045	0.298684	9.665147	-0.003633	-0.002203	-0.016776	1.000000	-0.000044	0.000036	0.000017	1.767740	-9.231539	42.484261
33755	1.585643	0.298167	9.650370	0.011690	0.011804	-0.028387	1.000000	-0.000048	0.000040	0.000007	1.767354	-9.231109	42.483932
33756	1.594682	0.315395	9.663610	0.005259	0.028774	-0.013351	1.000000	-0.000046	0.000032	0.000010	1.767174	-9.231507	42.483310
33757	1.572987	0.312635	9.636440	-0.006062	0.015844	-0.043721	1.000000	-0.000044	0.000036	0.000017	1.767019	-9.231548	42.483964
33758	1.564267	0.294902	9.665713	-0.003283	-0.006705	-0.016778	1.000000	-0.000056	0.000040	0.000010	1.765694	-9.231113	42.483383
33759	1.582840	0.294395	9.650946	0.012049	0.007313	-0.028383	1.000000	-0.000034	0.000039	0.000021	1.766611	-9.230746	42.483907
33760	1.582131	0.293576	9.651087	0.012139	0.006187	-0.028382	1.000000	-0.000044	0.000036	0.000017	1.766505	-9.230793	42.484082
33761	1.581410	0.292730	9.651231	0.012219	0.005063	-0.028382	1.000000	-0.000040	0.000040	0.000005	1.767048	-9.230359	42.483205
33762	1.571163	0.309555	9.679389	-0.009447	0.006881	-0.001734	1.000000	-0.000050	0.000028	0.000022	1.766178	-9.231275	42.483963
33763	1.591469	0.274527	9.665696	0.030324	-0.003484	-0.013051	1.000000	-0.000044	0.000036	0.000017	1.766059	-9.231324	42.484383
33764	1.579480	0.290025	9.651629	0.012487	0.001687	-0.028381	1.000000	-0.000036	0.000036	0.000014	1.766908	-9.231353	42.484246
33765	1.559371	0.288773	9.666689	-0.002658	-0.014588	-0.016786	1.000000	-0.000044	0.000046	0.000021	1.766717	-9.230196	42.485106
33766	1.577879	0.288255	9.651944	0.012670	-0.000568	-0.028381	1.000000	-0.000048	0.000040	0.000007	1.766349	-9.229744	42.484212
33767	1.606332	0.305851	9.650290	0.021477	0.031532	-0.024915	1.000000	-0.000046	0.000024	0.000031	1.765727	-9.231186	42.486315
33768	1.587971	0.270067	9.666397	0.030771	-0.009128	-0.013056	1.000000	-0.000040	0.000040	0.000005	1.766313	-9.230716	42.485109
33769	1.566236	0.303343	9.680384	-0.008822	-0.001018	-0.001731	1.000000	-0.000037	0.000046	0.000018	1.767028	-9.229540	42.485283
33770	1.584819	0.302923	9.665632	0.006507	0.013004	-0.013318	1.000000	-0.000046	0.000032	0.000010	1.766851	-9.229940	42.484660
33771	1.564762	0.301573	9.680678	-0.008641	-0.003281	-0.001731	1.000000	-0.000046	0.000043	0.000014	1.766588	-9.229156	42.485015
33772	1.562361	0.299266	9.638592	-0.004725	-0.001011	-0.043707	1.000000	-0.000046	0.000032	0.000010	1.766411	-9.229556	42.484391
33773	1.571437	0.316493	9.651863	-0.011146	0.015937	-0.028636	1.000000	-0.000044	0.000036	0.000017	1.766304	-9.229584	42.484145
33774	1.562710	0.298986	9.681089	-0.008369	-0.006664	-0.001733	1.000000	-0.000028	0.000036	0.000011	1.768110	-9.229597	42.483696
33775	1.570153	0.314861	9.652125	-0.010970	0.013690	-0.028632	1.000000	-0.000058	0.000028	0.000025	1.766255	-9.230531	42.484579
33776	1.559787	0.295738	9.639118	-0.004368	-0.005499	-0.043709	1.000000	-0.000040	0.000040	0.000005	1.766844	-9.230062	42.483373
33777	1.560730	0.296415	9.681488	-0.008100	-0.010046	-0.001735	1.000000	-0.000028	0.000036	0.000011	1.768666	-9.230064	42.483035
33778	1.579394	0.296017	9.666734	0.007230	0.003985	-0.013311	1.000000	-0.000052	0.000035	0.000019	1.767608	-9.230132	42.483521
33779	1.567359	0.311442	9.652690	-0.010606	0.009189	-0.028627	1.000000	-0.000038	0.000043	0.000011	1.768269	-9.229303	42.483248
33780	1.558517	0.293832	9.681923	-0.007830	-0.013430	-0.001739	1.000000	-0.000042	0.000039	0.000024	1.768239	-9.229002	42.484220
33781	1.565944	0.309808	9.652972	-0.010427	0.006946	-0.028625	1.000000	-0.000034	0.000028	0.000017	1.769248	-9.229861	42.484349
33782	1.555660	0.290978	9.639930	-0.003829	-0.012234	-0.043714	1.000000	-0.000032	0.000032	0.000023	1.770363	-9.230393	42.485280
33783	1.575806	0.291901	9.667444	0.007667	-0.001641	-0.013310	1.000000	-0.000050	0.000058	0.000009	1.769627	-9.227932	42.485432
33784	1.575097	0.291083	9.667585	0.007756	-0.002768	-0.013311	1.000000	-0.000028	0.000017	0.000029	1.771121	-9.230167	42.486905
33785	1.543792	0.306102	9.668409	-0.025322	-0.012714	-0.017059	1.000000	-0.000060	0.000054	0.000005	1.769404	-9.228007	42.485752
33786	1.562254	0.305502	9.653708	-0.009990	0.001327	-0.028622	1.000000	-0.000042	0.000039	0.000024	1.769375	-9.227707	42.486724
33787	1.582505	0.306449	9.681211	0.001517	0.011906	0.001789	1.000000	-0.000034	0.000039	0.000021	1.770269	-9.227380	42.487661
33788	1.562394	0.269392	9.655007	0.014620	-0.025312	-0.028417	1.000000	-0.000046	0.000032	0.000010	1.770094	-9.227782	42.487035
33789	1.571360	0.286587	9.668327	0.008200	-0.008386	-0.013314	1.000000	-0.000044	0.000046	0.000021	1.769824	-9.226609	42.487862
33790	1.599655	0.304139	9.666788	0.017027	0.023700	-0.009763	1.000000	-0.000052	0.000035	0.000019	1.768769	-9.226679	42.488346
33791	1.589436	0.285146	9.653721	0.023616	0.004539	-0.024870	1.000000	-0.000034	0.000018	0.000012	1.769880	-9.228767	42.488009
33792	1.577482	0.300582	9.639675	0.005779	0.009770	-0.040174	1.000000	-0.000060	0.000054	0.000005	1.768184	-9.226633	42.486883
33793	1.547548	0.281000	9.641532	-0.002874	-0.024558	-0.043737	1.000000	-0.000044	0.000036	0.000017	1.768031	-9.226665	42.487182
33794	1.596993	0.300394	9.667345	0.017378	0.019203	-0.009753	1.000000	-0.000042	0.000028	0.000019	1.768120	-9.227568	42.487625
33795	1.565765	0.315438	9.668151	-0.015693	0.009262	-0.013507	1.000000	-0.000044	0.000036	0.000017	1.768053	-9.227579	42.487641
33796	1.594061	0.297286	9.625384	0.021386	0.020460	-0.051716	1.000000	-0.000048	0.000040	0.000007	1.767691	-9.227129	42.486744
33797	1.585091	0.279596	9.654598	0.024145	-0.002210	-0.024870	1.000000	-0.000040	0.000050	0.000009	1.768107	-9.225525	42.486418
33798	1.552104	0.329155	9.654444	-0.033366	0.012251	-0.028803	1.000000	-0.000044	0.000036	0.000017	1.768007	-9.225578	42.486590
33799	1.573819	0.295538	9.682966	0.002587	-0.001623	0.001796	1.000000	-0.000042	0.000047	0.000002	1.768468	-9.224244	42.485060
33800	1.582685	0.277020	9.655067	0.024422	-0.005595	-0.024872	1.000000	-0.000044	0.000036	0.000017	1.768369	-9.224297	42.485232
33801	1.591773	0.294362	9.668392	0.018004	0.011300	-0.009742	1.000000	-0.000032	0.000029	-0.000002	1.770016	-9.225054	42.483742
33802	1.560576	0.309404	9.669185	-0.015078	0.001365	-0.013501	1.000000	-0.000056	0.000031	0.000031	1.768270	-9.225646	42.485603
33803	1.590465	0.292330	9.668668	0.018177	0.009049	-0.009740	1.000000	-0.000052	0.000046	0.000024	1.767054	-9.224525	42.486649
33804	1.568732	0.289710	9.641436	0.006839	-0.003715	-0.040171	1.000000	-0.000036	0.000036	0.000014	1.767909	-9.224560	42.486510
33805	1.579442	0.308245	9.697003	-0.003387	0.009620	0.016932	1.000000	-0.000044	0.000025	0.000012	1.767931	-9.225821	42.486142
33806	1.548177	0.287563	9.656526	-0.008228	-0.021155	-0.028643	1.000000	-0.000042	0.000039	0.000024	1.767905	-9.225525	42.487112
33807	1.578155	0.306526	9.697267	-0.003210	0.007354	0.016934	1.000000	-0.000038	0.000032	0.000007	1.768696	-9.225940	42.486095
33808	1.566227	0.286360	9.641943	0.007193	-0.008218	-0.040174	1.000000	-0.000044	0.000036	0.000017	1.768598	-9.225994	42.486267
33809	1.575258	0.303544	9.655299	0.000775	0.008671	-0.025027	1.000000	-0.000044	0.000036	0.000017	1.768447	-9.226079	42.486946
33810	1.566368	0.285779	9.684467	0.003547	-0.014043	0.001785	1.000000	-0.000046	0.000043	0.000014	1.768160	-9.225282	42.486848
33811	1.562527	0.318103	9.641425	-0.016972	0.012812	-0.040313	1.000000	-0.000044	0.000036	0.000017	1.768082	-9.225345	42.487279
33812	1.572971	0.300845	9.655756	0.001045	0.005290	-0.025025	1.000000	-0.000042	0.000047	0.000002	1.768489	-9.224027	42.485802
33813	1.533412	0.299080	9.685585	-0.029356	-0.026231	-0.001988	1.000000	-0.000044	0.000036	0.000017	1.768399	-9.224083	42.485763
33814	1.571575	0.299097	9.656038	0.001226	0.003037	-0.025024	1.000000	-0.000042	0.000028	0.000019	1.768491	-9.224989	42.486204
33815	1.580599	0.316431	9.669404	-0.005180	0.019914	-0.009862	1.000000	-0.000030	0.000043	0.000009	1.770098	-9.224146	42.485521
33816	1.560445	0.279360	9.643086	0.007898	-0.017211	-0.040186	1.000000	-0.000060	0.000035	0.000022	1.768093	-9.224239	42.486311
33817	1.561354	0.279613	9.685457	0.004170	-0.021949	0.001771	1.000000	-0.000032	0.000032	0.000023	1.769197	-9.224803	42.487605
33818	1.568836	0.295731	9.656587	0.001579	-0.001465	-0.025023	1.000000	-0.000040	0.000040	0.000005	1.769794	-9.224337	42.486397
33819	1.577762	0.277249	9.628667	0.023410	-0.005385	-0.051701	1.000000	-0.000048	0.000040	0.000007	1.769461	-9.223890	42.485465
33820	1.547863	0.293474	9.671725	-0.013487	-0.018924	-0.013517	1.000000	-0.000044	0.000046	0.000021	1.769249	-9.222746	42.486165
33821	1.597089	0.277063	9.656398	0.035029	0.003941	-0.021251	1.000000	-0.000044	0.000036	0.000017	1.769173	-9.222790	42.486344
33822	1.564252	0.326683	9.656271	-0.022476	0.018436	-0.025127	1.000000	-0.000034	0.000039	0.000021	1.770104	-9.222478	42.487004
33823	1.584531	0.291698	9.642502	0.017279	0.008108	-0.036528	1.000000	-0.000058	0.000028	0.000025	1.768287	-9.223435	42.488443
33824	1.553280	0.306507	9.643294	-0.015808	-0.001802	-0.040303	1.000000	-0.000056	0.000040	0.000010	1.766978	-9.223007	42.487854
33825	1.594290	0.308698	9.698308	0.007154	0.020194	0.020612	1.000000	-0.000052	0.000046	0.000024	1.765778	-9.221892	42.489060
33826	1.543534	0.287535	9.672595	-0.012954	-0.025685	-0.013532	1.000000	-0.000046	0.000032	0.000010	1.765611	-9.222297	42.488431
33827	1.592863	0.306787	9.698603	0.007331	0.017919	0.020616	1.000000	-0.000042	0.000039	0.000023	1.765633	-9.222070	42.489774
33828	1.542223	0.285670	9.672860	-0.012778	-0.027952	-0.013538	1.000000	-0.000050	0.000028	0.000022	1.764773	-9.222997	42.490523
33829	1.561048	0.285238	9.658165	0.002553	-0.013863	-0.025033	1.000000	-0.000038	0.000032	0.000007	1.765525	-9.223407	42.489929
33830	1.579766	0.320524	9.684835	-0.010333	0.020962	0.005351	1.000000	-0.000042	0.000039	0.000023	1.765503	-9.223116	42.490898
33831	1.587294	0.300952	9.614648	0.015298	0.020750	-0.063284	1.000000	-0.000038	0.000032	0.000007	1.766301	-9.223533	42.489868
33832	1.559078	0.318344	9.699910	-0.025404	0.003482	0.016843	1.000000	-0.000048	0.000031	0.000029	1.765514	-9.224113	42.491416
33833	1.577860	0.282211	9.643878	0.018165	-0.003158	-0.036526	1.000000	-0.000044	0.000036	0.000017	1.765470	-9.224150	42.491292
33834	1.567431	0.298950	9.672104	-0.003481	-0.001533	-0.009842	1.000000	-0.000040	0.000040	0.000005	1.766071	-9.223686	42.490083
33835	1.586118	0.298571	9.657442	0.011843	0.012566	-0.021324	1.000000	-0.000044	0.000036	0.000017	1.765886	-9.223787	42.490597
33836	1.574244	0.314186	9.643418	-0.005996	0.017888	-0.036588	1.000000	-0.000036	0.000036	0.000014	1.766747	-9.223826	42.490457
33837	1.584660	0.296997	9.657729	0.012016	0.010314	-0.021322	1.000000	-0.000036	0.000046	0.000018	1.767461	-9.222689	42.490992
33838	1.564504	0.295529	9.672683	-0.003144	-0.006036	-0.009843	1.000000	-0.000062	0.000032	0.000015	1.765390	-9.223134	42.490980
33839	1.562314	0.293313	9.630586	0.000746	-0.003441	-0.051794	1.000000	-0.000046	0.000043	0.000014	1.765073	-9.222338	42.491184
33840	1.582493	0.294095	9.658174	0.012281	0.006939	-0.021319	1.000000	-0.000032	0.000031	0.000023	1.766194	-9.222881	42.492113
33841	1.570629	0.309638	9.644155	-0.005550	0.012269	-0.036579	1.000000	-0.000056	0.000040	0.000010	1.764932	-9.222431	42.491645
33842	1.571380	0.309671	9.686552	-0.009264	0.007413	0.005371	1.000000	-0.000052	0.000035	0.000019	1.763886	-9.222509	42.492123
33843	1.567678	0.342041	9.643602	-0.029786	0.034430	-0.036615	1.000000	-0.000046	0.000043	0.000014	1.763621	-9.221768	42.492069
33844	1.539284	0.288220	9.646102	-0.014055	-0.024295	-0.040330	1.000000	-0.000034	0.000039	0.000021	1.764555	-9.221460	42.492729
33845	1.578798	0.289444	9.658919	0.012728	0.001297	-0.021317	1.000000	-0.000046	0.000043	0.000014	1.764252	-9.220689	42.492584
33846	1.566869	0.305060	9.644912	-0.005111	0.006639	-0.036574	1.000000	-0.000036	0.000036	0.000014	1.765115	-9.220730	42.492444
33847	1.566265	0.304254	9.645036	-0.005030	0.005529	-0.036573	1.000000	-0.000042	0.000028	0.000019	1.765118	-9.221622	42.492977
33848	1.575353	0.321396	9.658471	-0.011420	0.022350	-0.021341	1.000000	-0.000044	0.000035	0.000017	1.765027	-9.221682	42.493145
33849	1.576119	0.286068	9.659457	0.013079	-0.003198	-0.021318	1.000000	-0.000040	0.000040	0.000005	1.765644	-9.221226	42.492005
33850	1.575474	0.285079	9.659591	0.013169	-0.004325	-0.021319	1.000000	-0.000058	0.000028	0.000025	1.763834	-9.222176	42.493060
33851	1.565141	0.265986	9.646411	0.019737	-0.023391	-0.036557	1.000000	-0.000048	0.000040	0.000007	1.763481	-9.221722	42.492014
33852	1.561413	0.334172	9.644894	-0.028987	0.024326	-0.036582	1.000000	-0.000032	0.000040	0.000002	1.765039	-9.221240	42.490497
33853	1.581573	0.299411	9.631092	0.010770	0.014010	-0.048024	1.000000	-0.000042	0.000039	0.000023	1.765097	-9.220957	42.491512
33854	1.572643	0.281403	9.660160	0.013536	-0.008839	-0.021322	1.000000	-0.000062	0.000032	0.000015	1.763029	-9.221403	42.491497
33855	1.570575	0.314949	9.659461	-0.010779	0.014445	-0.021326	1.000000	-0.000027	0.000031	0.000039	1.764535	-9.222147	42.494538
33856	1.561743	0.261675	9.647080	0.020192	-0.029037	-0.036573	1.000000	-0.000044	0.000035	0.000017	1.764446	-9.222208	42.494706
33857	1.590143	0.279329	9.645776	0.029049	0.003012	-0.032773	1.000000	-0.000040	0.000040	0.000005	1.765019	-9.221792	42.493856
33858	1.568588	0.312505	9.659864	-0.010519	0.011065	-0.021321	1.000000	-0.000042	0.000028	0.000019	1.765117	-9.222705	42.494293
33859	1.548551	0.311135	9.674760	-0.025679	-0.005300	-0.009876	1.000000	-0.000044	0.000035	0.000017	1.765018	-9.222726	42.494299
33860	1.578537	0.294416	9.674257	0.007594	0.002321	-0.006075	1.000000	-0.000026	0.000028	0.000014	1.767024	-9.223600	42.494119
33861	1.566729	0.310144	9.660241	-0.010240	0.007706	-0.021317	1.000000	-0.000048	0.000040	0.000007	1.766642	-9.223084	42.493045
33862	1.556253	0.291277	9.647057	-0.003677	-0.011344	-0.036577	1.000000	-0.000038	0.000043	0.000011	1.767321	-9.222274	42.492635
33863	1.586169	0.274463	9.646570	0.029588	-0.003723	-0.032775	1.000000	-0.000042	0.000028	0.000019	1.767386	-9.223218	42.493376
33864	1.553505	0.324058	9.646516	-0.027908	0.010834	-0.036555	1.000000	-0.000044	0.000035	0.000017	1.767298	-9.223279	42.493543
33865	1.544499	0.306247	9.675564	-0.025152	-0.012043	-0.009880	1.000000	-0.000040	0.000040	0.000005	1.767834	-9.222829	42.492420
33866	1.572878	0.288286	9.632855	0.011918	-0.000582	-0.048016	1.000000	-0.000052	0.000046	0.000024	1.766678	-9.221712	42.493426
33867	1.583355	0.270820	9.647135	0.029938	-0.008217	-0.032779	1.000000	-0.000044	0.000025	0.000012	1.766711	-9.222965	42.493323
33868	1.581386	0.304510	9.646453	0.005628	0.015085	-0.032743	1.000000	-0.000034	0.000028	0.000017	1.767764	-9.223859	42.493451
33869	1.561340	0.303135	9.661336	-0.009542	-0.001293	-0.021314	1.000000	-0.000052	0.000035	0.000019	1.766695	-9.223951	42.493910
33870	1.581553	0.303565	9.688966	0.002008	0.008973	0.009198	1.000000	-0.000055	0.000029	0.000006	1.765513	-9.224726	42.492785
33871	1.589232	0.284152	9.618744	0.027615	0.009062	-0.059443	1.000000	-0.000031	0.000045	0.000034	1.766581	-9.223741	42.495200
33872	1.599545	0.302238	9.674508	0.017441	0.021972	-0.002223	1.000000	-0.000059	0.000033	-0.000004	1.765141	-9.224011	42.493006
33873	1.558659	0.299333	9.661888	-0.009183	-0.005810	-0.021315	1.000000	-0.000032	0.000031	0.000023	1.766329	-9.224598	42.493830
33874	1.587083	0.317002	9.660645	-0.000306	0.026229	-0.017449	1.000000	-0.000046	0.000043	0.000014	1.766057	-9.223810	42.493728
33875	1.565490	0.314600	9.633297	-0.011666	0.013724	-0.047964	1.000000	-0.000042	0.000039	0.000023	1.766109	-9.223495	42.494314
33876	1.577316	0.298193	9.689823	0.002560	0.002176	0.009202	1.000000	-0.000046	0.000032	0.000010	1.765952	-9.223905	42.493681
33877	1.575236	0.296278	9.647716	0.006445	0.004939	-0.032733	1.000000	-0.000046	0.000043	0.000014	1.765714	-9.223128	42.493716
33878	1.555067	0.294779	9.662606	-0.008721	-0.011451	-0.021320	1.000000	-0.000054	0.000032	0.000013	1.764605	-9.223558	42.493389
33879	1.564026	0.311919	9.676127	-0.015102	0.005311	-0.006024	1.000000	-0.000030	0.000043	0.000009	1.766251	-9.222779	42.492915
33880	1.572910	0.293647	9.648176	0.006710	0.001557	-0.032732	1.000000	-0.000048	0.000050	0.000012	1.765794	-9.221139	42.492544
33881	1.572136	0.292657	9.648332	0.006795	0.000438	-0.032732	1.000000	-0.000048	0.000031	0.000029	1.764966	-9.221723	42.494023
33882	1.592307	0.293246	9.675979	0.018350	0.010660	-0.002206	1.000000	-0.000036	0.000036	0.000014	1.765835	-9.221768	42.493882
33883	1.580504	0.309015	9.661982	0.000514	0.016078	-0.017427	1.000000	-0.000036	0.000036	0.000014	1.766712	-9.221791	42.493866
33884	1.560324	0.307672	9.676861	-0.014653	-0.000320	-0.006022	1.000000	-0.000048	0.000040	0.000007	1.766371	-9.221350	42.492963
33885	1.570684	0.290211	9.691143	0.003363	-0.007994	0.009199	1.000000	-0.000048	0.000040	0.000007	1.765998	-9.220907	42.492158
33886	1.568704	0.288346	9.649020	0.007243	-0.005182	-0.032734	1.000000	-0.000042	0.000028	0.000019	1.766100	-9.221823	42.492592
33887	1.556926	0.304009	9.635025	-0.010604	0.000242	-0.047953	1.000000	-0.000045	0.000041	-0.000011	1.766376	-9.221253	42.489670
33888	1.568624	0.287524	9.691557	0.003626	-0.011388	0.009195	1.000000	-0.000045	0.000038	0.000042	1.765738	-9.221151	42.492812
33889	1.584549	0.320580	9.634006	-0.001622	0.031164	-0.044030	1.000000	-0.000051	0.000044	-0.000002	1.765108	-9.220129	42.490680
33890	1.575511	0.302545	9.663002	0.001140	0.008203	-0.017417	1.000000	-0.000050	0.000028	0.000022	1.764257	-9.221066	42.491420
33891	1.554199	0.300072	9.635589	-0.010237	-0.004240	-0.047954	1.000000	-0.000050	0.000028	0.000022	1.763431	-9.221996	42.491939
33892	1.566024	0.283514	9.692095	0.003994	-0.015897	0.009189	1.000000	-0.000044	0.000035	0.000017	1.763349	-9.222061	42.492104
33893	1.573707	0.299645	9.663387	0.001399	0.004821	-0.017415	1.000000	-0.000044	0.000035	0.000017	1.763209	-9.222182	42.492589
33894	1.553592	0.298148	9.678242	-0.013770	-0.011588	-0.006027	1.000000	-0.000054	0.000032	0.000013	1.762103	-9.222614	42.492261
33895	1.582146	0.280364	9.635531	0.023305	-0.000027	-0.044130	1.000000	-0.000030	0.000043	0.000009	1.763808	-9.221778	42.491475
33896	1.571598	0.296897	9.663815	0.001678	0.001433	-0.017414	1.000000	-0.000060	0.000035	0.000022	1.761820	-9.221884	42.492254
33897	1.561297	0.277980	9.650526	0.008222	-0.017565	-0.032749	1.000000	-0.000032	0.000031	0.000023	1.762961	-9.222469	42.493357
33898	1.570333	0.295137	9.664074	0.001855	-0.000826	-0.017414	1.000000	-0.000044	0.000035	0.000017	1.762880	-9.222535	42.493522
33899	1.569659	0.294235	9.664211	0.001944	-0.001968	-0.017414	1.000000	-0.000044	0.000035	0.000017	1.762862	-9.222667	42.493869
33900	1.577363	0.310384	9.635519	-0.000636	0.018774	-0.043999	1.000000	-0.000044	0.000035	0.000017	1.762781	-9.222734	42.494034
33901	1.578007	0.310376	9.677910	-0.004342	0.013640	-0.002072	1.000000	-0.000046	0.000032	0.000010	1.762577	-9.223179	42.493425
33902	1.567694	0.291438	9.664615	0.002203	-0.005346	-0.017415	1.000000	-0.000052	0.000035	0.000019	1.761544	-9.223266	42.493896
33903	1.575332	0.307660	9.635938	-0.000381	0.015397	-0.043993	1.000000	-0.000030	0.000043	0.000009	1.763203	-9.222490	42.493241
33904	1.566199	0.289685	9.664910	0.002378	-0.007608	-0.017417	1.000000	-0.000060	0.000035	0.000022	1.761217	-9.222598	42.494018
33905	1.565380	0.288754	9.665071	0.002476	-0.008732	-0.017418	1.000000	-0.000032	0.000050	0.000006	1.762690	-9.220877	42.492889
33906	1.582736	0.322946	9.649834	-0.006556	0.029879	-0.028634	1.000000	-0.000046	0.000024	0.000031	1.762099	-9.222323	42.494696
33907	1.564145	0.286988	9.665323	0.002655	-0.010980	-0.017420	1.000000	-0.000046	0.000032	0.000010	1.761919	-9.222712	42.494029
33908	1.593917	0.305408	9.706460	0.007771	0.016992	0.028494	1.000000	-0.000044	0.000035	0.000017	1.761839	-9.222780	42.494193
33909	1.571199	0.302177	9.636787	0.000160	0.008648	-0.043984	1.000000	-0.000050	0.000039	0.000026	1.760923	-9.222610	42.495608
33910	1.581624	0.284670	9.651036	0.018180	0.000922	-0.028786	1.000000	-0.000040	0.000031	0.000026	1.761100	-9.223185	42.496840
33911	1.579506	0.318267	9.650518	-0.006116	0.024239	-0.028618	1.000000	-0.000046	0.000043	0.000014	1.760834	-9.222434	42.496752
33912	1.580216	0.282962	9.651316	0.018355	-0.001333	-0.028786	1.000000	-0.000032	0.000031	0.000023	1.761963	-9.222989	42.497679
33913	1.568366	0.298532	9.637362	0.000512	0.004147	-0.043981	1.000000	-0.000064	0.000050	0.000017	1.759608	-9.221408	42.497894
33914	1.588221	0.298795	9.665109	0.012083	0.014252	-0.013416	1.000000	-0.000046	0.000043	0.000014	1.759345	-9.220625	42.497790
33915	1.556837	0.313825	9.665854	-0.021020	0.004441	-0.017255	1.000000	-0.000054	0.000043	0.000017	1.758094	-9.219825	42.498081
33916	1.557359	0.278226	9.666675	0.003449	-0.021134	-0.017437	1.000000	-0.000056	0.000050	0.000014	1.756693	-9.218211	42.498015
33917	1.574660	0.312224	9.651508	-0.005577	0.017500	-0.028603	1.000000	-0.000046	0.000032	0.000010	1.756514	-9.218603	42.497421
33918	1.555880	0.276440	9.666965	0.003627	-0.023382	-0.017442	1.000000	-0.000032	0.000040	0.000002	1.758086	-9.218126	42.495904
33919	1.573326	0.310551	9.651779	-0.005396	0.015244	-0.028600	1.000000	-0.000058	0.000028	0.000024	1.756314	-9.219102	42.496857
33920	1.553081	0.309110	9.666610	-0.020570	-0.001190	-0.017253	1.000000	-0.000032	0.000050	0.000006	1.757772	-9.217428	42.495874
33921	1.562248	0.290817	9.638591	0.001227	-0.004830	-0.043982	1.000000	-0.000056	0.000020	0.000027	1.756132	-9.219239	42.497193
33922	1.582298	0.291262	9.666311	0.012801	0.005245	-0.013408	1.000000	-0.000032	0.000050	0.000006	1.757590	-9.217565	42.496210
33923	1.561944	0.289968	9.681149	-0.002372	-0.011200	-0.002068	1.000000	-0.000042	0.000039	0.000023	1.757611	-9.217306	42.497086
33924	1.559766	0.323550	9.680682	-0.026657	0.012124	-0.001862	1.000000	-0.000046	0.000043	0.000014	1.757350	-9.216525	42.496981
33925	1.550759	0.270307	9.667961	0.004252	-0.031276	-0.017465	1.000000	-0.000036	0.000035	0.000014	1.758222	-9.216571	42.496853
33926	1.559812	0.287415	9.681568	-0.002103	-0.014585	-0.002072	1.000000	-0.000042	0.000028	0.000019	1.758330	-9.217494	42.497283
33927	1.588257	0.305013	9.680530	0.006817	0.017422	0.001991	1.000000	-0.000042	0.000047	0.000002	1.758784	-9.216139	42.495815
33928	1.587466	0.304155	9.680687	0.006907	0.016293	0.001993	1.000000	-0.000044	0.000035	0.000017	1.758708	-9.216210	42.495978
33929	1.557624	0.284812	9.681998	-0.001819	-0.017964	-0.002078	1.000000	-0.000044	0.000035	0.000017	1.758646	-9.216238	42.496223
33930	1.586102	0.302322	9.680968	0.007094	0.014038	0.001996	1.000000	-0.000049	0.000036	0.000001	1.758245	-9.216145	42.494516
33931	1.545297	0.299551	9.668159	-0.019575	-0.013580	-0.017260	1.000000	-0.000044	0.000025	0.000012	1.758288	-9.217447	42.494090
33932	1.594636	0.318514	9.694706	0.000830	0.029583	0.017408	1.000000	-0.000032	0.000031	0.000023	1.759419	-9.218005	42.495016
33933	1.534407	0.279966	9.654904	-0.012949	-0.033650	-0.032674	1.000000	-0.000054	0.000043	0.000017	1.758275	-9.217260	42.495418
33934	1.601976	0.298596	9.624556	0.026499	0.028999	-0.051232	1.000000	-0.000030	0.000024	0.000026	1.759592	-9.218671	42.496612
33935	1.570786	0.313858	9.625248	-0.006608	0.019209	-0.055082	1.000000	-0.000046	0.000043	0.000014	1.759317	-9.217869	42.496695
33936	1.550628	0.312338	9.640041	-0.021784	0.002762	-0.043761	1.000000	-0.000052	0.000025	0.000015	1.758404	-9.219156	42.496628
33937	1.562285	0.260259	9.654874	0.020603	-0.029468	-0.028835	1.000000	-0.000044	0.000057	0.000025	1.758054	-9.216811	42.497754
33938	1.589227	0.312182	9.653321	0.005152	0.026989	-0.024483	1.000000	-0.000053	0.000032	0.000012	1.756957	-9.217247	42.497419
33939	1.578932	0.293303	9.639940	0.011678	0.008070	-0.039904	1.000000	-0.000044	0.000035	0.000017	1.756859	-9.217316	42.497519
33940	1.568316	0.309821	9.668259	-0.009937	0.009412	-0.013165	1.000000	-0.000038	0.000043	0.000011	1.757553	-9.216516	42.497109
33941	1.568704	0.309656	9.710677	-0.013621	0.004083	0.028744	1.000000	-0.000050	0.000038	0.000026	1.756583	-9.216265	42.498600
33942	1.577727	0.291381	9.682672	0.008173	0.000491	0.002005	1.000000	-0.000040	0.000050	0.000009	1.757094	-9.214613	42.497923
33943	1.556154	0.289235	9.655225	-0.003234	-0.011766	-0.028594	1.000000	-0.000046	0.000043	0.000014	1.756864	-9.213871	42.497842
33944	1.584585	0.306748	9.654258	0.005688	0.020230	-0.024467	1.000000	-0.000044	0.000035	0.000017	1.756790	-9.213943	42.498004
33945	1.576659	0.289514	9.725375	0.004692	-0.007142	0.043910	1.000000	-0.000036	0.000025	0.000010	1.757944	-9.215161	42.497317
33946	1.583411	0.305053	9.654504	0.005890	0.017962	-0.024463	1.000000	-0.000050	0.000038	0.000026	1.756989	-9.214911	42.498584
33947	1.584086	0.269585	9.655202	0.030345	-0.007619	-0.024738	1.000000	-0.000044	0.000035	0.000017	1.756885	-9.214962	42.498788
33948	1.573457	0.286004	9.683527	0.008732	-0.006302	0.002003	1.000000	-0.000046	0.000043	0.000014	1.756629	-9.214183	42.498682
33949	1.570201	0.318868	9.640864	-0.011758	0.021259	-0.039619	1.000000	-0.000044	0.000035	0.000017	1.756665	-9.214251	42.498795
33950	1.580473	0.301496	9.655097	0.006263	0.013451	-0.024456	1.000000	-0.000030	0.000043	0.000009	1.758314	-9.213431	42.498081
33951	1.560218	0.300269	9.669870	-0.008915	-0.003021	-0.013160	1.000000	-0.000038	0.000032	0.000007	1.759151	-9.213846	42.497117
33952	1.559431	0.299253	9.670029	-0.008825	-0.004149	-0.013160	1.000000	-0.000064	0.000050	0.000017	1.756808	-9.212257	42.497352
33953	1.567180	0.315435	9.641468	-0.011406	0.016750	-0.039609	1.000000	-0.000032	0.000031	0.000023	1.757937	-9.212885	42.498396
33954	1.577594	0.297927	9.655679	0.006615	0.008934	-0.024451	1.000000	-0.000053	0.000032	0.000012	1.756845	-9.213323	42.498059
33955	1.568422	0.279846	9.684524	0.009377	-0.014232	0.001994	1.000000	-0.000036	0.000035	0.000014	1.757770	-9.213333	42.498009
33956	1.576275	0.296203	9.655947	0.006806	0.006681	-0.024449	1.000000	-0.000044	0.000035	0.000017	1.757700	-9.213407	42.498170
33957	1.546417	0.276887	9.657151	-0.001954	-0.027560	-0.028625	1.000000	-0.000044	0.000035	0.000017	1.757599	-9.213526	42.498406
33958	1.574931	0.294324	9.656224	0.006976	0.004427	-0.024448	1.000000	-0.000052	0.000035	0.000019	1.756577	-9.213621	42.498870
33959	1.554641	0.292938	9.670993	-0.008198	-0.012049	-0.013166	1.000000	-0.000030	0.000043	0.000009	1.758254	-9.212778	42.498075
33960	1.555035	0.292961	9.713393	-0.011876	-0.017469	0.028732	1.000000	-0.000032	0.000031	0.000023	1.759389	-9.213342	42.498999
33961	1.582447	0.309799	9.670211	0.000822	0.018800	-0.008977	1.000000	-0.000055	0.000039	0.000010	1.758136	-9.212968	42.498477
33962	1.572131	0.291040	9.656780	0.007339	-0.000086	-0.024447	1.000000	-0.000032	0.000031	0.000023	1.759271	-9.213531	42.499402
33963	1.561523	0.307450	9.685109	-0.014264	0.001188	0.002302	1.000000	-0.000054	0.000043	0.000017	1.758100	-9.212771	42.499418
33964	1.569402	0.323664	9.656556	-0.016834	0.022127	-0.024119	1.000000	-0.000042	0.000028	0.000019	1.758214	-9.213698	42.499844
33965	1.570159	0.288204	9.657186	0.007612	-0.003488	-0.024448	1.000000	-0.000052	0.000035	0.000019	1.757275	-9.213877	42.500463
33966	1.579159	0.304991	9.670901	0.001277	0.013138	-0.008968	1.000000	-0.000053	0.000032	0.000012	1.756185	-9.214315	42.500125
33967	1.549248	0.285741	9.672074	-0.007487	-0.021084	-0.013181	1.000000	-0.000030	0.000043	0.000009	1.757751	-9.213476	42.499383
33968	1.566703	0.319882	9.657120	-0.016481	0.017617	-0.024109	1.000000	-0.000060	0.000035	0.000022	1.755780	-9.213594	42.500150
33969	1.586706	0.320123	9.684914	-0.004892	0.027513	0.006523	1.000000	-0.000032	0.000031	0.000023	1.756886	-9.214201	42.501145
33970	1.575261	0.300830	9.629204	0.005386	0.012979	-0.050857	1.000000	-0.000044	0.000046	0.000021	1.756705	-9.213083	42.501840
33971	1.565920	0.282713	9.658036	0.008132	-0.010224	-0.024453	1.000000	-0.000044	0.000035	0.000017	1.756583	-9.213134	42.501966
33972	1.574928	0.299679	9.671757	0.001799	0.006392	-0.008961	1.000000	-0.000040	0.000031	0.000026	1.756767	-9.213720	42.503193
33973	1.575570	0.264287	9.672376	0.026231	-0.019206	-0.009317	1.000000	-0.000046	0.000043	0.000014	1.756462	-9.212989	42.503090
33974	1.582161	0.315017	9.643363	-0.000691	0.026236	-0.035355	1.000000	-0.000051	0.000025	0.000015	1.755556	-9.214280	42.503017
33975	1.552319	0.295792	9.644495	-0.009456	-0.007998	-0.039596	1.000000	-0.000030	0.000043	0.000009	1.757232	-9.213509	42.502452
33976	1.591793	0.296721	9.657707	0.017418	0.017240	-0.020214	1.000000	-0.000048	0.000031	0.000029	1.756466	-9.214116	42.503983
33977	1.561969	0.277204	9.658836	0.008645	-0.016987	-0.024463	1.000000	-0.000060	0.000035	0.000022	1.754454	-9.214279	42.505014
33978	1.559888	0.310708	9.658523	-0.015617	0.006361	-0.024094	1.000000	-0.000038	0.000043	0.000011	1.755156	-9.213483	42.504603
33979	1.561450	0.276045	9.701408	0.005054	-0.023625	0.017423	1.000000	-0.000038	0.000043	0.000011	1.755833	-9.212732	42.504192
33980	1.569222	0.292425	9.672906	0.002486	-0.002639	-0.008960	1.000000	-0.000046	0.000043	0.000014	1.755584	-9.211958	42.504084
33981	1.568477	0.291510	9.673055	0.002577	-0.003767	-0.008960	1.000000	-0.000044	0.000035	0.000017	1.755518	-9.212032	42.504190
33982	1.577540	0.308367	9.686792	-0.003751	0.012830	0.006553	1.000000	-0.000051	0.000025	0.000015	1.754614	-9.213324	42.504115
33983	1.586873	0.290222	9.658714	0.018036	0.009335	-0.020204	1.000000	-0.000034	0.000039	0.000021	1.755655	-9.213081	42.504872
33984	1.586166	0.289569	9.658849	0.018126	0.008208	-0.020203	1.000000	-0.000028	0.000036	0.000011	1.757492	-9.213117	42.504425
33985	1.565877	0.288162	9.673576	0.002932	-0.008279	-0.008963	1.000000	-0.000055	0.000039	0.000010	1.756124	-9.212685	42.503908
33986	1.544568	0.285934	9.646036	-0.008494	-0.020366	-0.039613	1.000000	-0.000052	0.000035	0.000019	1.755107	-9.212784	42.504369
33987	1.553602	0.302793	9.659787	-0.015211	-0.008486	-0.024095	1.000000	-0.000042	0.000028	0.000019	1.774331	-9.234087	42.481911
33988	1.593168	0.303621	9.673022	0.011678	0.016690	-0.004665	1.000000	-0.000044	0.000035	0.000017	1.774305	-9.234207	42.482039
33989	1.603453	0.286039	9.687222	0.029690	0.008776	0.010458	1.000000	-0.000044	0.000035	0.000017	1.774241	-9.234347	42.482247
33990	1.551713	0.300183	9.660172	-0.014952	-0.011890	-0.024098	1.000000	-0.000039	0.000029	0.000000	1.775029	-9.235130	42.480468
33991	1.580376	0.317756	9.659344	-0.005991	0.020057	-0.019779	1.000000	-0.000042	0.000028	0.000019	1.775193	-9.236122	42.481123
33992	1.570146	0.299059	9.645834	0.000506	0.001218	-0.035320	1.000000	-0.000044	0.000035	0.000017	1.775168	-9.236243	42.481251
33993	1.559324	0.315382	9.674217	-0.021098	0.002410	-0.008557	1.000000	-0.000044	0.000056	0.000025	1.774868	-9.233955	42.482594
33994	1.568080	0.332275	9.688030	-0.027416	0.018972	0.006991	1.000000	-0.000044	0.000035	0.000017	1.774844	-9.234076	42.482722
33995	1.559066	0.279153	9.674940	0.003418	-0.024357	-0.008990	1.000000	-0.000034	0.000039	0.000021	1.775867	-9.233838	42.483483
33996	1.577871	0.278980	9.660520	0.018790	-0.010108	-0.020206	1.000000	-0.000038	0.000043	0.000011	1.776612	-9.233086	42.483042
33997	1.595348	0.313201	9.645699	0.009827	0.028639	-0.030979	1.000000	-0.000047	0.000039	0.000007	1.776309	-9.232672	42.482103
33998	1.575018	0.311792	9.660414	-0.005367	0.012114	-0.019766	1.000000	-0.000034	0.000039	0.000021	1.777306	-9.232431	42.482731
33999	1.564768	0.292871	9.646898	0.001124	-0.006715	-0.035323	1.000000	-0.000073	0.000028	0.000030	1.773655	-9.233508	42.484333
34000	1.543085	0.325620	9.661224	-0.038404	0.001251	-0.023667	1.000000	-0.000044	0.000054	-0.000000	1.773969	-9.231394	42.482558
34001	1.564148	0.291292	9.689492	-0.002461	-0.013489	0.006553	1.000000	-0.000048	0.000031	0.000029	1.773219	-9.232056	42.484302
34002	1.562543	0.289896	9.647348	0.001386	-0.010116	-0.035325	1.000000	-0.000036	0.000035	0.000014	1.774147	-9.232157	42.484127
34003	1.582433	0.290093	9.675199	0.012994	-0.000373	-0.004652	1.000000	-0.000052	0.000035	0.000019	1.773142	-9.232325	42.485065
34004	1.552542	0.270818	9.676226	0.004202	-0.034589	-0.009021	1.000000	-0.000036	0.000035	0.000014	1.774071	-9.232426	42.484890
34005	1.581111	0.288448	9.675464	0.013171	-0.002645	-0.004653	1.000000	-0.000038	0.000032	0.000007	1.774908	-9.232856	42.483799
34006	1.600772	0.288830	9.703351	0.024788	0.007082	0.026025	1.000000	-0.000032	0.000061	0.000011	1.776312	-9.230040	42.483328
34007	1.568437	0.303690	9.661742	-0.004580	0.001904	-0.019758	1.000000	-0.000042	0.000028	0.000019	1.776428	-9.230974	42.483583
34008	1.537660	0.284098	9.620466	-0.009619	-0.027766	-0.066015	1.000000	-0.000028	0.000036	0.000011	1.778309	-9.231055	42.483106
34009	1.545301	0.335813	9.633892	-0.040258	0.013271	-0.049962	1.000000	-0.000028	0.000036	0.000011	1.780199	-9.231124	42.482719
34010	1.555394	0.318449	9.648097	-0.022240	0.005317	-0.034859	1.000000	-0.000033	0.000052	0.000032	1.781152	-9.229352	42.484686
34011	1.554594	0.317690	9.648251	-0.022147	0.004179	-0.034858	1.000000	-0.000033	0.000033	0.000049	1.781802	-9.229816	42.488407
34012	1.574451	0.318035	9.676116	-0.010527	0.013888	-0.004173	1.000000	-0.000027	0.000041	0.000044	1.783188	-9.229409	42.491707
34013	1.593255	0.317693	9.661735	0.004854	0.028152	-0.015356	1.000000	-0.000054	0.000045	0.000042	1.781503	-9.228538	42.494725
34014	1.584286	0.264325	9.648552	0.035668	-0.015147	-0.031435	1.000000	-0.000046	0.000024	0.000031	1.780962	-9.230047	42.496485
34015	1.604185	0.264216	9.676424	0.047290	-0.005453	-0.000749	1.000000	-0.000062	0.000045	0.000045	1.778308	-9.229216	42.499912
34016	1.605644	0.229061	9.719209	0.067951	-0.035669	0.040621	1.000000	-0.000044	0.000035	0.000017	1.778288	-9.229340	42.500037
34017	1.584409	0.226895	9.691613	0.056503	-0.047635	0.009926	1.000000	-0.000070	0.000037	-0.000011	1.775699	-9.229171	42.497177
34018	1.622676	0.261968	9.704591	0.059086	0.001951	0.029939	1.000000	-0.000043	0.000023	-0.000013	1.776356	-9.230634	42.493790
34019	1.582007	0.259429	9.691496	0.032352	-0.025410	0.010421	1.000000	-0.000058	0.000031	-0.000029	1.775513	-9.231073	42.488526
34020	1.570624	0.275318	9.677555	0.014512	-0.019707	-0.004674	1.000000	-0.000038	0.000016	-0.000030	1.776985	-9.233195	42.483232
34021	1.549490	0.308506	9.691806	-0.025007	-0.011757	0.007009	1.000000	-0.000046	0.000006	-0.000031	1.777624	-9.236506	42.477550
34022	1.566733	0.342209	9.634722	-0.030202	0.031624	-0.045512	1.000000	-0.000060	0.000009	-0.000019	1.776424	-9.239545	42.473424
34023	1.575030	0.358775	9.606246	-0.032751	0.052758	-0.071766	1.000000	-0.000022	0.000032	0.000002	1.779190	-9.239921	42.471946
34024	1.533828	0.391322	9.635115	-0.087560	0.045298	-0.048903	1.000000	-0.000055	0.000039	0.000010	1.777970	-9.239556	42.471305
34025	1.543149	0.373212	9.607023	-0.065784	0.041933	-0.075675	1.000000	-0.000033	0.000033	0.000049	1.778622	-9.240012	42.474869
34026	1.573066	0.356208	9.606663	-0.032477	0.049366	-0.071747	1.000000	-0.000041	0.000033	0.000052	1.778287	-9.240504	42.479038
34027	1.584498	0.303943	9.621181	0.009861	0.016872	-0.057188	1.000000	-0.000046	0.000050	0.000072	1.777043	-9.239168	42.485702
34028	1.563921	0.302225	9.635897	-0.005338	0.000321	-0.046026	1.000000	-0.000049	0.000054	0.000063	1.775532	-9.237298	42.491248
34029	1.585877	0.233160	9.664494	0.054932	-0.039031	-0.016398	1.000000	-0.000042	0.000065	0.000064	1.774846	-9.234171	42.496686
34030	1.595569	0.215641	9.678745	0.072950	-0.047033	-0.001321	1.000000	-0.000020	0.000062	0.000050	1.776959	-9.231364	42.500762
34031	1.624344	0.233778	9.720466	0.078183	-0.019757	0.045005	1.000000	-0.000034	0.000079	0.000012	1.778016	-9.226501	42.500540
34032	1.582933	0.231248	9.707452	0.051443	-0.047093	0.025448	1.000000	-0.000059	0.000054	0.000005	1.776438	-9.224431	42.499368
34033	1.571974	0.247330	9.735872	0.029851	-0.046026	0.052224	1.000000	-0.000051	0.000044	-0.000002	1.775915	-9.223541	42.497298
34034	1.588394	0.316175	9.720888	-0.003405	0.017262	0.042175	1.000000	-0.000032	0.000024	-0.000035	1.778161	-9.224787	42.491436
34035	1.568257	0.314822	9.735503	-0.018611	0.000708	0.053326	1.000000	-0.000054	0.000027	-0.000020	1.777530	-9.225726	42.487410
34036	1.568158	0.279007	9.693634	0.009543	-0.020267	0.010906	1.000000	-0.000048	0.000024	-0.000029	1.777874	-9.227015	42.482149
34037	1.544788	0.346047	9.665362	-0.050552	0.016861	-0.018685	1.000000	-0.000060	0.000009	-0.000019	1.776619	-9.230070	42.478552
34038	1.544623	0.344894	9.665429	-0.050463	0.015725	-0.018682	1.000000	-0.000062	0.000008	-0.000001	1.774789	-9.233302	42.476594
34039	1.553088	0.361211	9.636979	-0.053010	0.036910	-0.044896	1.000000	-0.000045	0.000022	0.000005	1.774794	-9.234919	42.475132
34040	1.554016	0.325628	9.637355	-0.028606	0.011271	-0.045463	1.000000	-0.000060	0.000016	0.000039	1.772534	-9.237330	42.477756
34041	1.552573	0.324038	9.595215	-0.024774	0.014837	-0.087319	1.000000	-0.000053	0.000048	0.000049	1.770876	-9.236155	42.482051
34042	1.553851	0.288840	9.637936	-0.004118	-0.015502	-0.046038	1.000000	-0.000041	0.000044	0.000056	1.770429	-9.235461	42.486757
34043	1.572645	0.288566	9.623599	0.011253	-0.001198	-0.057175	1.000000	-0.000031	0.000047	0.000060	1.770953	-9.234435	42.492467
34044	1.572506	0.288177	9.666059	0.007596	-0.007043	-0.015320	1.000000	-0.000029	0.000059	0.000046	1.772048	-9.231994	42.496043
34045	1.573595	0.253494	9.708783	0.028256	-0.037401	0.025947	1.000000	-0.000013	0.000048	0.000036	1.775149	-9.230660	42.498458
34046	1.571695	0.252737	9.666689	0.032090	-0.033820	-0.015912	1.000000	-0.000017	0.000063	0.000031	1.777898	-9.227663	42.500365
34047	1.589946	0.287620	9.694383	0.019415	0.000259	0.015402	1.000000	-0.000034	0.000039	0.000021	1.778918	-9.227437	42.500977
34048	1.590448	0.252363	9.694790	0.043816	-0.025391	0.014805	1.000000	-0.000039	0.000040	0.000005	1.779606	-9.227030	42.499732
34049	1.578368	0.303155	9.722935	-0.002080	0.000142	0.042190	1.000000	-0.000050	0.000042	-0.000028	1.779669	-9.226284	42.494906
34050	1.587640	0.285112	9.694835	0.019683	-0.003165	0.015401	1.000000	-0.000049	0.000036	0.000000	1.779338	-9.226237	42.493158
34051	1.536907	0.299617	9.709908	-0.028748	-0.028281	0.022583	1.000000	-0.000064	0.000023	-0.000024	1.777751	-9.227581	42.488724
34052	1.564938	0.316468	9.667019	-0.016003	0.008375	-0.014723	1.000000	-0.000062	0.000016	-0.000022	1.776379	-9.229764	42.484326
34053	1.544939	0.314732	9.681595	-0.031208	-0.008196	-0.003603	1.000000	-0.000060	0.000019	-0.000015	1.775026	-9.231570	42.480709
34054	1.564175	0.314155	9.667218	-0.015826	0.006112	-0.014721	1.000000	-0.000066	0.000022	-0.000006	1.772839	-9.233098	42.478218
34055	1.553085	0.329671	9.653281	-0.033659	0.011894	-0.029778	1.000000	-0.000061	0.000002	0.000028	1.770640	-9.236996	42.479282
34056	1.581317	0.346640	9.610374	-0.020913	0.048572	-0.067062	1.000000	-0.000040	0.000021	0.000022	1.770986	-9.238831	42.479934
34057	1.572139	0.328193	9.638967	-0.018201	0.025071	-0.040888	1.000000	-0.000056	0.000022	0.000052	1.768821	-9.240629	42.484521
34058	1.571575	0.327286	9.639090	-0.018111	0.023938	-0.040885	1.000000	-0.000026	0.000039	0.000018	1.770777	-9.240377	42.484849
34059	1.589604	0.326974	9.582490	0.001008	0.043042	-0.093839	1.000000	-0.000029	0.000048	0.000041	1.771957	-9.239142	42.488173
34060	1.572153	0.256868	9.639893	0.030674	-0.027355	-0.042145	1.000000	-0.000037	0.000069	0.000053	1.771990	-9.235538	42.492589
34061	1.609734	0.292170	9.653235	0.033315	0.022137	-0.021878	1.000000	-0.000023	0.000066	0.000041	1.773891	-9.232183	42.495599
34062	1.559587	0.272542	9.668605	0.009190	-0.027492	-0.015358	1.000000	-0.000038	0.000064	0.000020	1.774426	-9.229058	42.496237
34063	1.600523	0.239234	9.724652	0.056689	-0.031844	0.045483	1.000000	-0.000019	0.000060	0.000024	1.777102	-9.226433	42.497586
34064	1.548532	0.253810	9.697480	0.011998	-0.052158	0.010786	1.000000	-0.000048	0.000050	0.000012	1.776731	-9.224858	42.497180
34065	1.558517	0.236188	9.711651	0.030014	-0.060223	0.025829	1.000000	-0.000039	0.000038	-0.000021	1.777931	-9.224557	42.493257
34066	1.556733	0.269815	9.711552	0.005799	-0.036849	0.026473	1.000000	-0.000055	0.000018	0.000001	1.776945	-9.226576	42.491531
34067	1.573985	0.303653	9.654701	0.000614	0.006809	-0.025817	1.000000	-0.000051	0.000023	-0.000011	1.776631	-9.228072	42.488571
34068	1.574388	0.302839	9.697073	-0.003036	0.000846	0.016027	1.000000	-0.000064	0.000015	-0.000003	1.774628	-9.230451	42.486340
34069	1.582892	0.319116	9.668694	-0.005577	0.022130	-0.010111	1.000000	-0.000055	0.000018	0.000001	1.773574	-9.232377	42.484329
34070	1.591368	0.335486	9.640322	-0.008121	0.043400	-0.036243	1.000000	-0.000055	0.000018	0.000001	1.772589	-9.234397	42.482603
34071	1.599719	0.351859	9.611976	-0.010666	0.064672	-0.062370	1.000000	-0.000053	0.000032	0.000012	1.771580	-9.234915	42.482188
34072	1.570014	0.332531	9.612725	-0.019502	0.030509	-0.066986	1.000000	-0.000044	0.000016	0.000033	1.771224	-9.237289	42.484205
34073	1.570248	0.331551	9.655132	-0.023154	0.024532	-0.025142	1.000000	-0.000072	0.000041	0.000041	1.767509	-9.236828	42.487052
34074	1.579499	0.313357	9.627027	-0.001398	0.021299	-0.051939	1.000000	-0.000036	0.000046	0.000018	1.768336	-9.235748	42.487415
34075	1.549282	0.294229	9.627835	-0.010241	-0.012866	-0.056572	1.000000	-0.000039	0.000055	0.000041	1.768416	-9.233707	42.490647
34076	1.559061	0.276695	9.642027	0.007778	-0.020957	-0.041535	1.000000	-0.000023	0.000055	0.000036	1.770397	-9.231592	42.493123
34077	1.558784	0.276369	9.684487	0.004124	-0.026954	0.000301	1.000000	-0.000025	0.000052	0.000029	1.772251	-9.229811	42.494750
34078	1.557814	0.275873	9.684657	0.004212	-0.028093	0.000297	1.000000	-0.000019	0.000049	0.000020	1.775048	-9.228350	42.495318
34079	1.556828	0.275431	9.684828	0.004309	-0.029234	0.000294	1.000000	-0.000022	0.000053	0.000011	1.777640	-9.226347	42.494651
34080	1.545894	0.291805	9.713261	-0.017267	-0.028291	0.027093	1.000000	-0.000044	0.000035	0.000017	1.777631	-9.226480	42.494772
34081	1.544542	0.290987	9.671099	-0.013434	-0.024528	-0.014746	1.000000	-0.000016	0.000029	-0.000007	1.781267	-9.227102	42.491601
34082	1.573216	0.308701	9.670611	-0.004412	0.007359	-0.010088	1.000000	-0.000045	0.000032	0.000010	1.781190	-9.227572	42.490918
34083	1.572705	0.307722	9.670726	-0.004328	0.006233	-0.010087	1.000000	-0.000053	0.000021	0.000008	1.780205	-9.229231	42.490058
34084	1.552545	0.306026	9.685274	-0.019538	-0.010380	0.000982	1.000000	-0.000055	0.000029	0.000005	1.779111	-9.230061	42.488869
34085	1.582408	0.288650	9.684975	0.013776	-0.003018	0.004944	1.000000	-0.000065	0.000036	0.000006	1.776867	-9.230072	42.487766
34086	1.600291	0.322551	9.670525	0.004870	0.035843	-0.005409	1.000000	-0.000059	0.000024	0.000017	1.775069	-9.231440	42.487944
34087	1.550235	0.302305	9.643361	-0.015554	-0.008880	-0.040855	1.000000	-0.000049	0.000017	0.000017	1.774375	-9.233704	42.488480
34088	1.569425	0.301831	9.629043	-0.000166	0.005466	-0.051917	1.000000	-0.000059	0.000035	0.000022	1.772467	-9.233882	42.489198
34089	1.569268	0.300953	9.671497	-0.003821	-0.000590	-0.010085	1.000000	-0.000044	0.000056	0.000025	1.772169	-9.231670	42.490719
34090	1.556920	0.316684	9.615389	-0.017930	0.010193	-0.066941	1.000000	-0.000045	0.000032	0.000010	1.772094	-9.232141	42.490035
34091	1.586223	0.334439	9.657236	-0.012639	0.037153	-0.020414	1.000000	-0.000026	0.000039	0.000018	1.773990	-9.231870	42.490399
34092	1.586631	0.299275	9.657521	0.011742	0.011492	-0.021140	1.000000	-0.000036	0.000046	0.000018	1.774821	-9.230793	42.490762
34093	1.575105	0.315395	9.643671	-0.006092	0.017362	-0.036160	1.000000	-0.000032	0.000031	0.000023	1.775985	-9.231340	42.491525
34094	1.565550	0.297365	9.672211	-0.003373	-0.006254	-0.010087	1.000000	-0.000018	0.000039	0.000016	1.778895	-9.231071	42.491554
34095	1.604825	0.298262	9.685796	0.023583	0.018630	0.009642	1.000000	-0.000031	0.000045	0.000034	1.779999	-9.230168	42.493794
34096	1.584333	0.296723	9.700375	0.008371	0.002002	0.020692	1.000000	-0.000055	0.000039	0.000010	1.778797	-9.229809	42.493145
34097	1.592423	0.313122	9.672133	0.005835	0.023337	-0.005372	1.000000	-0.000052	0.000046	0.000023	1.777808	-9.228824	42.494437
34098	1.572514	0.276822	9.644536	0.018642	-0.012847	-0.036901	1.000000	-0.000045	0.000032	0.000010	1.777734	-9.229295	42.493752
34099	1.601799	0.294299	9.686418	0.023949	0.014055	0.009649	1.000000	-0.000050	0.000038	0.000026	1.776860	-9.229092	42.495066
34100	1.561066	0.291885	9.673102	-0.002836	-0.013088	-0.010093	1.000000	-0.000045	0.000032	0.000010	1.776787	-9.229564	42.494381
34101	1.559845	0.290574	9.630945	0.000979	-0.009239	-0.051920	1.000000	-0.000072	0.000025	0.000004	1.773714	-9.230791	42.492948
34102	1.579560	0.290199	9.658957	0.012640	0.000131	-0.021135	1.000000	-0.000046	0.000043	0.000014	1.773530	-9.230074	42.492805
34103	1.568125	0.306052	9.645109	-0.005211	0.006016	-0.036146	1.000000	-0.000057	0.000026	-0.000001	1.772308	-9.231260	42.490981
34104	1.568063	0.305008	9.687545	-0.008850	-0.000119	0.005678	1.000000	-0.000063	0.000050	0.000017	1.770046	-9.229736	42.491170
34105	1.585653	0.339144	9.673231	-0.017741	0.038776	-0.004584	1.000000	-0.000036	0.000046	0.000018	1.770860	-9.228619	42.491459
34106	1.565720	0.303118	9.645593	-0.004941	0.002620	-0.036145	1.000000	-0.000036	0.000035	0.000014	1.771804	-9.228733	42.491281
34107	1.575723	0.285428	9.659725	0.013076	-0.005535	-0.021137	1.000000	-0.000044	0.000046	0.000021	1.771670	-9.227679	42.491994
34108	1.584527	0.302323	9.673773	0.006811	0.010834	-0.005351	1.000000	-0.000028	0.000035	0.000011	1.773565	-9.227771	42.491518
34109	1.564187	0.301120	9.688293	-0.008406	-0.005802	0.005677	1.000000	-0.000024	0.000031	0.000021	1.775683	-9.228377	42.492229
34110	1.553846	0.282846	9.674533	-0.001963	-0.024443	-0.010115	1.000000	-0.000034	0.000049	0.000025	1.776584	-9.226967	42.493397
34111	1.571589	0.317255	9.660208	-0.010845	0.014465	-0.020352	1.000000	-0.000037	0.000032	0.000007	1.777451	-9.227335	42.491999
34112	1.552411	0.281393	9.674806	-0.001777	-0.026707	-0.010121	1.000000	-0.000029	0.000037	0.000037	1.778775	-9.227294	42.494497
34113	1.591099	0.281965	9.646160	0.028925	0.003169	-0.032163	1.000000	-0.000039	0.000040	0.000005	1.779479	-9.226850	42.493087
34114	1.570675	0.280402	9.660695	0.013710	-0.013472	-0.021145	1.000000	-0.000051	0.000035	0.000019	1.778525	-9.227009	42.493503
34115	1.589690	0.280083	9.646447	0.029097	0.000914	-0.032164	1.000000	-0.000042	0.000038	0.000023	1.778496	-9.226772	42.494514
34116	1.577081	0.330494	9.632545	-0.013024	0.031354	-0.046358	1.000000	-0.000053	0.000032	0.000012	1.777476	-9.227268	42.494125
34117	1.569287	0.277571	9.703387	0.010235	-0.021921	0.020666	1.000000	-0.000044	0.000035	0.000017	1.777402	-9.227425	42.494488
34118	1.577706	0.294050	9.675143	0.007699	-0.000507	-0.005345	1.000000	-0.000061	0.000021	0.000010	1.775544	-9.229131	42.493854
34119	1.556823	0.292233	9.647368	-0.003801	-0.012085	-0.036151	1.000000	-0.000049	0.000036	0.000000	1.775202	-9.229127	42.492427
34120	1.546000	0.308120	9.675819	-0.025366	-0.011246	-0.009333	1.000000	-0.000059	0.000035	0.000022	1.773300	-9.229310	42.493140
34121	1.584709	0.308546	9.647201	0.005328	0.018653	-0.031347	1.000000	-0.000024	0.000042	0.000025	1.775263	-9.228714	42.494324
34122	1.575011	0.290279	9.675696	0.008042	-0.005050	-0.005347	1.000000	-0.000044	0.000035	0.000017	1.775260	-9.228852	42.494443
34123	1.564234	0.306444	9.704132	-0.013525	-0.004210	0.021473	1.000000	-0.000032	0.000031	0.000023	1.776387	-9.229445	42.495304
