// Start Time: Unknown
// Update Rate: 100.0Hz
// Filter Profile: human (46.1)
// Firmware Version: 4.4.0
PacketCounter	Acc_X	Acc_Y	Acc_Z	FreeAcc_X	FreeAcc_Y	FreeAcc_Z	OriInc_q0	OriInc_q1	OriInc_q2	OriInc_q3	Roll	Pitch	Yaw
31179	1.364855	-0.004665	9.719761	0.000000	0.000000	0.002434	1.000000	-0.000050	0.000037	0.000010	-0.024545	-7.995359	59.732237
31180	1.387484	-0.009554	9.713639	0.006839	0.024433	-0.000484	1.000000	-0.000042	0.000030	0.000039	-0.095530	-7.983642	60.254911
31181	1.380837	-0.009262	9.690105	0.004501	0.022582	-0.024715	1.000000	-0.000042	0.000025	-0.000002	-0.100286	-7.980733	60.254644
31182	1.365283	-0.032634	9.743473	0.012755	-0.007973	0.026017	1.000000	-0.000049	0.000015	0.000037	-0.106594	-7.979104	60.258969
31183	1.335502	-0.028580	9.726126	-0.004871	-0.028634	0.004698	1.000000	-0.000051	0.000026	0.000009	-0.112609	-7.976119	60.259992
31184	1.362491	-0.009370	9.720089	-0.008476	0.005636	0.002429	1.000000	-0.000039	0.000014	0.000026	-0.117545	-7.974494	60.263018
31185	1.352058	-0.033268	9.696384	0.008076	-0.011668	-0.022445	1.000000	-0.000057	0.000010	0.000017	-0.124351	-7.973342	60.265036
31186	1.379197	-0.014229	9.690332	0.004472	0.022605	-0.024715	1.000000	-0.000050	0.000015	0.000027	-0.130536	-7.971603	60.268206
31187	1.393787	-0.067211	9.683930	0.057541	0.010510	-0.028913	1.000000	-0.000039	0.000036	0.000009	-0.135203	-7.967480	60.269230
31188	1.361878	-0.037627	9.643120	0.018647	0.003440	-0.073820	1.000000	-0.000032	0.000019	0.000036	-0.139613	-7.965503	60.273421
31189	1.340166	-0.059690	9.672861	0.024588	-0.028972	-0.047319	1.000000	-0.000042	0.000025	-0.000002	-0.144368	-7.962594	60.273150
31190	1.366854	-0.040344	9.666884	0.020916	0.005300	-0.049589	1.000000	-0.000037	0.000047	0.000020	-0.149330	-7.957412	60.275520
31191	1.368076	-0.066633	9.690460	0.042145	-0.008301	-0.026000	1.000000	-0.000068	0.000033	0.000001	-0.157144	-7.953630	60.275683
31192	1.348218	-0.039795	9.696894	0.007842	-0.011648	-0.022445	1.000000	-0.000050	0.000037	0.000010	-0.163724	-7.949706	60.276941
31193	1.381037	-0.021795	9.714538	0.006578	0.024467	-0.000484	1.000000	-0.000045	0.000031	0.000009	-0.169064	-7.946151	60.277959
31194	1.352992	-0.042884	9.720682	0.010045	-0.009798	0.001786	1.000000	-0.000049	0.000037	0.000020	-0.175679	-7.942354	60.280365
31195	1.352218	-0.043935	9.720785	0.010045	-0.009798	0.001786	1.000000	-0.000056	0.000043	0.000002	-0.182145	-7.937434	60.280527
31196	1.384980	-0.025997	9.738448	0.008625	0.026337	0.023748	1.000000	-0.000042	0.000030	0.000039	-0.188381	-7.934294	60.285099
31197	1.356932	-0.047089	9.744580	0.012227	-0.007926	0.026018	1.000000	-0.000051	0.000037	0.000000	-0.194277	-7.930045	60.285114
31198	1.390722	-0.053580	9.685040	0.037954	0.025988	-0.028268	1.000000	-0.000051	0.000026	0.000009	-0.201176	-7.927586	60.286251
31199	1.353960	-0.023662	9.721257	-0.009176	0.005671	0.002428	1.000000	-0.000030	0.000013	0.000015	-0.204818	-7.926066	60.287975
31200	1.376922	-0.028367	9.715105	0.005905	0.024437	-0.000483	1.000000	-0.000045	0.000020	0.000017	-0.211207	-7.924603	60.290114
31201	1.399827	-0.033121	9.708962	0.021193	0.043247	-0.003394	1.000000	-0.000035	0.000019	0.000016	-0.215420	-7.922412	60.291983
31202	1.393473	-0.032749	9.685384	0.018620	0.041254	-0.027625	1.000000	-0.000046	0.000009	0.000016	-0.221782	-7.922767	60.293962
31203	1.397358	-0.009569	9.685582	-0.000270	0.056707	-0.026984	1.000000	-0.000040	0.000014	0.000016	-0.226667	-7.921145	60.295828
31204	1.334087	-0.024220	9.650630	-0.016870	-0.000338	-0.070267	1.000000	-0.000044	0.000031	0.000019	-0.232469	-7.919695	60.298031
31205	1.373098	-0.007361	9.691913	-0.015801	0.037625	-0.024073	1.000000	-0.000039	0.000025	0.000017	-0.237251	-7.916831	60.300043
31206	1.368594	-0.032346	9.691792	0.002896	0.021862	-0.024713	1.000000	-0.000054	0.000015	-0.000002	-0.243438	-7.917193	60.299731
31207	1.372268	-0.009146	9.692030	-0.015994	0.037316	-0.024072	1.000000	-0.000033	0.000030	0.000018	-0.247547	-7.913757	60.301743
31208	1.367566	-0.034012	9.691932	0.002721	0.021422	-0.024712	1.000000	-0.000044	0.000031	0.000019	-0.252513	-7.912989	60.303920
31209	1.353916	-0.008194	9.721993	-0.029125	0.019911	0.003069	1.000000	-0.000050	0.000026	0.000019	-0.258539	-7.910029	60.306073
31210	1.389744	-0.039978	9.685892	0.017876	0.039819	-0.027617	1.000000	-0.000056	0.000032	0.000010	-0.264602	-7.908863	60.307034
31211	1.371860	-0.038324	9.715787	0.004919	0.022855	-0.000479	1.000000	-0.000049	0.000037	0.000020	-0.270533	-7.904667	60.309333
31212	1.371318	-0.039185	9.715860	0.004747	0.022270	-0.000478	1.000000	-0.000035	0.000019	0.000016	-0.273921	-7.905950	60.311162
31213	1.368835	-0.014648	9.692508	-0.016480	0.035875	-0.024067	1.000000	-0.000039	0.000036	0.000009	-0.278593	-7.901844	60.312173
31214	1.397688	-0.020723	9.710010	0.001034	0.055973	-0.002737	1.000000	-0.000054	0.000015	-0.000002	-0.283624	-7.903221	60.311690
31215	1.344655	-0.012544	9.698815	-0.031880	0.016504	-0.021162	1.000000	-0.000041	0.000025	0.000008	-0.288402	-7.900354	60.312555
31216	1.390791	-0.021277	9.686509	-0.001341	0.053526	-0.026966	1.000000	-0.000046	0.000020	0.000008	-0.292280	-7.901191	60.313120
31217	1.386340	-0.046215	9.686352	0.017548	0.038074	-0.027610	1.000000	-0.000040	0.000014	0.000016	-0.297179	-7.899573	60.314982
31218	1.370957	0.004972	9.692987	-0.035482	0.049503	-0.023416	1.000000	-0.000046	0.000020	0.000008	-0.300460	-7.900501	60.315595
31219	1.389740	-0.023950	9.686654	-0.001302	0.052864	-0.026963	1.000000	-0.000044	0.000020	0.000027	-0.305930	-7.898223	60.318742
31220	1.391193	-0.050066	9.710130	0.020002	0.038269	-0.003371	1.000000	-0.000035	0.000030	0.000008	-0.306720	-7.899536	60.319521
31221	1.369335	0.002399	9.693217	-0.035399	0.048521	-0.023411	1.000000	-0.000049	0.000048	0.000011	-0.312502	-7.894073	60.320812
31222	1.364521	-0.022457	9.693102	-0.016402	0.032088	-0.024054	1.000000	-0.000027	0.000024	0.000026	-0.312622	-7.896008	60.323633
31223	1.395357	-0.053817	9.734006	0.022451	0.039118	0.020865	1.000000	-0.000058	0.000021	-0.000001	-0.319256	-7.893565	60.323482
31224	1.357481	-0.023033	9.669617	-0.018577	0.029337	-0.048284	1.000000	-0.000037	0.000035	0.000029	-0.320469	-7.893669	60.326594
31225	1.373060	-0.002324	9.717165	-0.032790	0.048455	0.000832	1.000000	-0.000047	0.000031	-0.000001	-0.325737	-7.890073	60.326443
31226	1.347977	-0.073010	9.669342	0.019355	-0.002386	-0.049585	1.000000	-0.000055	0.000032	0.000020	-0.329219	-7.890167	60.328210
31227	1.386931	-0.056466	9.710704	0.020432	0.035546	-0.003362	1.000000	-0.000050	0.000026	0.000019	-0.335197	-7.887155	60.330342
31228	1.357050	-0.052129	9.693329	0.002878	0.013830	-0.024698	1.000000	-0.000035	0.000030	0.000008	-0.335799	-7.888951	60.330987
31229	1.354484	-0.027653	9.670025	-0.018336	0.027454	-0.048278	1.000000	-0.000049	0.000037	0.000020	-0.341663	-7.884703	60.333264
31230	1.389255	-0.035127	9.711179	0.001497	0.048733	-0.002699	1.000000	-0.000051	0.000026	0.000009	-0.344840	-7.888173	60.333698
31231	1.369487	-0.008034	9.717666	-0.032675	0.045367	0.000847	1.000000	-0.000041	0.000036	-0.000001	-0.349440	-7.884020	60.333547
31232	1.343277	-0.054282	9.747077	-0.007863	-0.003651	0.026661	1.000000	-0.000039	0.000036	0.000009	-0.350909	-7.885666	60.333985
31233	1.362099	-0.008404	9.694233	-0.035020	0.042413	-0.023381	1.000000	-0.000044	0.000031	0.000019	-0.356217	-7.882148	60.336127
31234	1.363456	-0.034701	9.717689	-0.013523	0.027851	0.000199	1.000000	-0.000051	0.000026	0.000009	-0.358089	-7.883116	60.336829
31235	1.367195	-0.011565	9.717985	-0.032406	0.043294	0.000858	1.000000	-0.000040	0.000014	0.000016	-0.362909	-7.881511	60.338681
31236	1.337539	-0.007230	9.700572	-0.049755	0.021395	-0.020485	1.000000	-0.000044	0.000020	0.000027	-0.363251	-7.884898	60.341669
31237	1.356261	-0.036201	9.694219	-0.015567	0.024743	-0.024031	1.000000	-0.000049	0.000026	0.000029	-0.369194	-7.882009	60.344955
31238	1.383289	-0.017105	9.688360	-0.018693	0.058008	-0.026248	1.000000	-0.000054	0.000015	-0.000002	-0.369885	-7.883944	60.344587
31239	1.359550	-0.014140	9.694584	-0.033967	0.039174	-0.023364	1.000000	-0.000043	0.000030	0.000029	-0.375121	-7.880488	60.347873
31240	1.372135	-0.041814	9.664618	-0.001638	0.040004	-0.051143	1.000000	-0.000049	0.000025	0.000029	-0.376536	-7.879764	60.350755
31241	1.381695	-0.020055	9.688582	-0.018172	0.057254	-0.026243	1.000000	-0.000050	0.000037	0.000010	-0.382302	-7.875558	60.351885
31242	1.382874	-0.046411	9.712042	0.003174	0.042555	-0.002670	1.000000	-0.000049	0.000037	0.000020	-0.384545	-7.876420	60.353174
31243	1.346717	-0.040769	9.671064	-0.016776	0.020101	-0.048257	1.000000	-0.000040	0.000047	0.000000	-0.388964	-7.871072	60.353166
31244	1.362262	-0.020045	9.718664	-0.030936	0.038228	0.000883	1.000000	-0.000035	0.000019	0.000016	-0.390174	-7.873530	60.353934
31245	1.367641	-0.022089	9.742377	-0.028587	0.040022	0.025118	1.000000	-0.000040	0.000047	0.000000	-0.394624	-7.868188	60.353927
31246	1.361017	-0.021695	9.718835	-0.030664	0.037063	0.000889	1.000000	-0.000051	0.000015	0.000017	-0.396062	-7.871559	60.355276
31247	1.385735	-0.052073	9.736094	0.005862	0.042217	0.021573	1.000000	-0.000057	0.000032	0.000000	-0.402535	-7.867940	60.355263
31248	1.383348	-0.027729	9.712813	-0.014871	0.055160	-0.001984	1.000000	-0.000045	0.000020	0.000017	-0.403386	-7.867732	60.356783
31249	1.400294	-0.031233	9.683082	-0.001912	0.072161	-0.029096	1.000000	-0.000042	0.000014	0.000006	-0.408160	-7.866112	60.357483
31250	1.380802	-0.004110	9.689560	-0.036142	0.067528	-0.025536	1.000000	-0.000046	0.000020	0.000007	-0.410199	-7.870432	60.357195
31251	1.399720	-0.033092	9.683158	-0.001960	0.070878	-0.029087	1.000000	-0.000053	0.000004	0.000006	-0.416352	-7.869987	60.357897
31252	1.380234	-0.005973	9.689640	-0.035721	0.066197	-0.025525	1.000000	-0.000032	0.000030	0.000027	-0.414456	-7.872085	60.360605
31253	1.385697	-0.008364	9.713343	-0.033373	0.067973	-0.001290	1.000000	-0.000070	0.000027	0.000031	-0.422891	-7.869026	60.364167
31254	1.376910	-0.057504	9.712830	0.004795	0.035814	-0.002644	1.000000	-0.000030	0.000024	0.000006	-0.420757	-7.871515	60.364427
31255	1.397748	-0.036862	9.683430	-0.001145	0.068265	-0.029068	1.000000	-0.000049	0.000037	0.000020	-0.426581	-7.867406	60.366710
31256	1.373798	-0.033879	9.689667	-0.015690	0.048313	-0.026190	1.000000	-0.000044	0.000031	0.000019	-0.424745	-7.867488	60.368738
31257	1.398262	-0.063994	9.706945	0.020846	0.053446	-0.005510	1.000000	-0.000034	0.000041	0.000009	-0.428583	-7.862885	60.369735
31258	1.372357	-0.035403	9.689865	-0.015201	0.046974	-0.026183	1.000000	-0.000039	0.000036	0.000009	-0.426943	-7.864072	60.370522
31259	1.390662	-0.064125	9.683538	0.018993	0.050313	-0.029739	1.000000	-0.000031	0.000051	0.000020	-0.430662	-7.858264	60.372808
31260	1.353529	-0.034211	9.719845	-0.028361	0.028383	0.000925	1.000000	-0.000035	0.000019	0.000016	-0.431655	-7.864589	60.373177
31261	1.382275	-0.040450	9.737406	-0.010721	0.048949	0.022295	1.000000	-0.000061	0.000038	0.000011	-0.438651	-7.860426	60.374458
31262	1.346267	-0.034733	9.696386	-0.030102	0.025440	-0.023306	1.000000	-0.000030	0.000035	-0.000002	-0.435681	-7.860350	60.374128
31263	1.344520	-0.011450	9.773797	-0.057226	0.027375	0.052958	1.000000	-0.000041	0.000025	0.000007	-0.440257	-7.857626	60.374985
31264	1.355337	-0.013517	9.720471	-0.046399	0.041522	0.001629	1.000000	-0.000041	0.000025	0.000007	-0.440596	-7.859703	60.375023
31265	1.350854	-0.038451	9.720201	-0.027495	0.026031	0.000934	1.000000	-0.000046	0.000009	0.000016	-0.445970	-7.858822	60.376880
31266	1.388270	0.003435	9.738351	-0.047208	0.076315	0.023711	1.000000	-0.000046	0.000009	0.000016	-0.445758	-7.862664	60.378461
31267	1.363450	-0.066860	9.690188	0.004782	0.026370	-0.026856	1.000000	-0.000035	0.000030	0.000008	-0.449648	-7.859397	60.379323
31268	1.394580	-0.023392	9.684759	-0.016931	0.074659	-0.028307	1.000000	-0.000032	0.000018	0.000036	-0.445619	-7.862270	60.384191
31269	1.400241	-0.025621	9.708433	-0.014560	0.076379	-0.004071	1.000000	-0.000054	0.000016	-0.000003	-0.451463	-7.860697	60.383897
31270	1.364556	-0.019999	9.667364	-0.034774	0.051983	-0.049674	1.000000	-0.000051	0.000026	0.000009	-0.452711	-7.868848	60.383613
31271	1.365903	-0.046325	9.690731	-0.013523	0.038234	-0.026142	1.000000	-0.000038	0.000025	0.000027	-0.457258	-7.866320	60.386780
31272	1.369564	-0.023185	9.691128	-0.031346	0.052191	-0.025426	1.000000	-0.000051	0.000026	0.000009	-0.453329	-7.867826	60.388998
31273	1.345817	-0.020217	9.697319	-0.046608	0.033292	-0.022572	1.000000	-0.000045	0.000020	0.000017	-0.458449	-7.865853	60.391013
31274	1.364419	-0.049067	9.690927	-0.012397	0.035922	-0.026132	1.000000	-0.000041	0.000036	-0.000001	-0.460783	-7.865389	60.389583
31275	1.344671	-0.021976	9.697474	-0.046557	0.032475	-0.022569	1.000000	-0.000050	0.000026	0.000019	-0.466517	-7.862737	60.391738
31276	1.356084	-0.025674	9.744809	-0.041780	0.034799	0.025908	1.000000	-0.000047	0.000031	-0.000001	-0.468001	-7.865058	60.390189
31277	1.339308	-0.047947	9.697293	-0.027583	0.015759	-0.023278	1.000000	-0.000046	0.000036	0.000040	-0.473672	-7.861254	60.394785
31278	1.391307	-0.058001	9.708750	0.005786	0.053722	-0.004732	1.000000	-0.000030	0.000024	0.000006	-0.470679	-7.864530	60.395701
31279	1.375831	-0.006761	9.715636	-0.047271	0.065710	-0.000451	1.000000	-0.000051	0.000026	0.000009	-0.476388	-7.861928	60.396721
31280	1.371328	-0.031796	9.715333	-0.027431	0.049153	-0.001159	1.000000	-0.000048	0.000009	0.000006	-0.473782	-7.863730	60.398067
31281	1.394289	-0.036717	9.709254	-0.012128	0.067891	-0.004005	1.000000	-0.000050	0.000026	0.000019	-0.479452	-7.861145	60.400228
31282	1.370598	-0.033705	9.715430	-0.026543	0.047736	-0.001150	1.000000	-0.000040	0.000014	0.000016	-0.475952	-7.863782	60.402310
31283	1.391920	-0.013045	9.686054	-0.032484	0.080166	-0.027507	1.000000	-0.000040	0.000003	0.000025	-0.480540	-7.863820	60.405190
31284	1.383248	-0.062238	9.685382	0.005189	0.048728	-0.028953	1.000000	-0.000068	0.000033	0.000001	-0.487390	-7.863135	60.403139
31285	1.386853	-0.039253	9.685817	-0.013683	0.064085	-0.028227	1.000000	-0.000037	0.000024	0.000037	-0.491835	-7.860714	60.407454
31286	1.413847	-0.019847	9.680126	-0.016139	0.096811	-0.030327	1.000000	-0.000030	0.000024	0.000006	-0.484801	-7.862471	60.409098
31287	1.385950	-0.040719	9.685941	-0.012496	0.062438	-0.028215	1.000000	-0.000046	0.000020	0.000007	-0.489780	-7.860570	60.409971
31288	1.397403	-0.044320	9.733270	-0.007525	0.064466	0.020269	1.000000	-0.000033	0.000030	0.000017	-0.488375	-7.863842	60.411511
31289	1.378802	-0.040921	9.662470	-0.014580	0.059143	-0.052442	1.000000	-0.000044	0.000042	0.000010	-0.493134	-7.859503	60.412677
31290	1.396053	-0.045966	9.733456	-0.007312	0.063258	0.020277	1.000000	-0.000041	0.000025	0.000007	-0.493775	-7.861686	60.412214
31291	1.383631	-0.043970	9.686258	-0.012008	0.059676	-0.028197	1.000000	-0.000042	0.000025	-0.000002	-0.498054	-7.859258	60.411954
31292	1.381086	-0.019244	9.663106	-0.032372	0.071852	-0.051684	1.000000	-0.000033	0.000052	0.000010	-0.492781	-7.858580	60.414167
31293	1.362888	-0.017539	9.692973	-0.045253	0.054636	-0.024610	1.000000	-0.000049	0.000037	0.000020	-0.498166	-7.854875	60.416476
31294	1.385485	-0.022483	9.686959	-0.030683	0.071433	-0.027433	1.000000	-0.000049	0.000037	0.000020	-0.501862	-7.863187	60.417051
31295	1.384771	-0.023483	9.687059	-0.030662	0.071301	-0.027432	1.000000	-0.000051	0.000037	0.000000	-0.507255	-7.859548	60.417089
31296	1.400193	-0.003209	9.734807	-0.044169	0.088084	0.021808	1.000000	-0.000044	0.000031	0.000019	-0.503011	-7.864865	60.420402
31297	1.360106	-0.021392	9.693355	-0.045260	0.050221	-0.024587	1.000000	-0.000043	0.000041	0.000020	-0.507699	-7.860771	60.422741
31298	1.367189	-0.049236	9.740321	-0.020770	0.035697	0.023155	1.000000	-0.000050	0.000026	0.000018	-0.501872	-7.868157	60.426288
31299	1.358917	-0.023207	9.693518	-0.044366	0.047542	-0.024569	1.000000	-0.000032	0.000030	0.000027	-0.505341	-7.865517	60.429504
31300	1.366055	-0.050904	9.740472	-0.019243	0.034756	0.023161	1.000000	-0.000047	0.000031	-0.000001	-0.500691	-7.861474	60.431551
31301	1.357885	-0.024870	9.693659	-0.042832	0.046606	-0.024558	1.000000	-0.000042	0.000014	0.000006	-0.504835	-7.860538	60.432314
31302	1.363537	-0.027332	9.717333	-0.039454	0.046049	-0.000304	1.000000	-0.000063	0.000016	0.000008	-0.500325	-7.867352	60.434993
31303	1.380497	-0.030871	9.687648	-0.026496	0.062992	-0.027363	1.000000	-0.000041	0.000025	0.000007	-0.504272	-7.865244	60.435906
31304	1.362646	-0.029169	9.717452	-0.039381	0.042327	-0.000287	1.000000	-0.000041	0.000025	0.000007	-0.498574	-7.880460	60.435578
31305	1.338897	-0.026096	9.723613	-0.054606	0.023270	0.002528	1.000000	-0.000046	0.000020	0.000007	-0.503114	-7.879114	60.436513
31306	1.355861	-0.029628	9.693929	-0.039742	0.038863	-0.024511	1.000000	-0.000057	0.000021	0.000008	-0.495058	-7.878863	60.440595
31307	1.382838	-0.010534	9.688311	-0.043295	0.072908	-0.026547	1.000000	-0.000045	0.000031	0.000009	-0.499357	-7.876270	60.441666
31308	1.366741	-0.034440	9.741335	-0.034370	0.038922	0.023983	1.000000	-0.000046	0.000020	0.000007	-0.492942	-7.888182	60.443805
31309	1.354529	-0.032434	9.694106	-0.039056	0.035296	-0.024495	1.000000	-0.000039	0.000014	0.000026	-0.496727	-7.887679	60.446900
31310	1.400659	-0.041231	9.681976	-0.006755	0.071953	-0.030102	1.000000	-0.000049	0.000037	0.000020	-0.490508	-7.883536	60.453098
31311	1.382785	-0.039758	9.711777	-0.019552	0.054536	-0.003052	1.000000	-0.000052	0.000015	0.000007	-0.495412	-7.882839	60.454024
31312	1.363367	-0.012701	9.718337	-0.052549	0.049622	0.000558	1.000000	-0.000040	0.000014	0.000016	-0.489828	-7.885483	60.457349
31313	1.380458	-0.016124	9.688643	-0.039569	0.066521	-0.026486	1.000000	-0.000051	0.000015	0.000017	-0.494674	-7.884824	60.459419
31314	1.352632	-0.037215	9.694353	-0.034792	0.030746	-0.024463	1.000000	-0.000045	0.000020	0.000017	-0.489811	-7.886854	60.463310
31315	1.404856	-0.047430	9.705842	-0.001761	0.069834	-0.005834	1.000000	-0.000040	0.000014	0.000016	-0.493346	-7.886310	60.465244
31316	1.381104	-0.044466	9.711996	-0.016353	0.048565	-0.003015	1.000000	-0.000054	0.000031	0.000030	-0.489372	-7.893159	60.468713
31317	1.402225	-0.023763	9.682762	-0.022269	0.080882	-0.029250	1.000000	-0.000032	0.000014	-0.000005	-0.491556	-7.892756	60.468231
31318	1.374359	-0.044582	9.688467	-0.017389	0.045925	-0.027247	1.000000	-0.000039	0.000025	0.000017	-0.487901	-7.889715	60.472167
31319	1.379690	-0.046953	9.712185	-0.014873	0.047299	-0.003007	1.000000	-0.000050	0.000037	0.000010	-0.492333	-7.886614	60.473380
31320	1.400760	-0.026293	9.682967	-0.019593	0.077880	-0.029220	1.000000	-0.000040	0.000014	0.000016	-0.484427	-7.891570	60.477413
31321	1.377015	-0.023219	9.689118	-0.034724	0.058727	-0.026418	1.000000	-0.000044	0.000031	0.000018	-0.488211	-7.889202	60.479633
31322	1.372290	-0.048125	9.688744	-0.014694	0.041794	-0.027225	1.000000	-0.000041	0.000025	0.000007	-0.482728	-7.890728	60.482722
31323	1.381802	-0.026458	9.712914	-0.031056	0.058564	-0.002164	1.000000	-0.000048	0.000036	0.000030	-0.487037	-7.887725	60.486224
31324	1.381146	-0.027414	9.713005	-0.029844	0.057009	-0.002151	1.000000	-0.000047	0.000031	-0.000001	-0.481531	-7.888555	60.487598
31325	1.351355	-0.022953	9.695529	-0.047357	0.036188	-0.023591	1.000000	-0.000051	0.000026	0.000008	-0.485837	-7.886754	60.488662
31326	1.369897	-0.051747	9.689063	-0.012700	0.037628	-0.027205	1.000000	-0.000025	0.000034	0.000037	-0.480944	-7.891568	60.492533
31327	1.383546	-0.005985	9.713712	-0.047953	0.069790	-0.001303	1.000000	-0.000057	0.000032	-0.000000	-0.485759	-7.889132	60.492598
31328	1.372887	-0.029509	9.689687	-0.031077	0.050313	-0.026359	1.000000	-0.000039	0.000025	0.000017	-0.481541	-7.897553	60.492826
31329	1.372345	-0.030366	9.689761	-0.030926	0.049963	-0.026357	1.000000	-0.000045	0.000031	0.000009	-0.485076	-7.895338	60.493914
31330	1.387821	-0.010158	9.737583	-0.044301	0.067836	0.022968	1.000000	-0.000039	0.000025	0.000017	-0.483787	-7.894585	60.496681
31331	1.371253	-0.032185	9.689910	-0.030059	0.048792	-0.026348	1.000000	-0.000056	0.000032	0.000010	-0.488550	-7.892254	60.497898
31332	1.359269	-0.032148	9.743337	-0.039403	0.031328	0.024930	1.000000	-0.000035	0.000019	0.000016	-0.481650	-7.896467	60.501207
31333	1.380316	-0.011405	9.714167	-0.045303	0.063615	-0.001248	1.000000	-0.000051	0.000037	-0.000000	-0.485652	-7.893577	60.501288
31334	1.379708	-0.012418	9.714252	-0.044433	0.062288	-0.001235	1.000000	-0.000049	0.000025	0.000028	-0.483332	-7.894872	60.506047
31335	1.351758	-0.033497	9.719909	-0.040612	0.027644	0.000701	1.000000	-0.000046	0.000020	0.000007	-0.486850	-7.893926	60.506986
31336	1.372864	-0.012804	9.690742	-0.045554	0.058359	-0.025455	1.000000	-0.000044	0.000031	0.000018	-0.480687	-7.897042	60.510239
31337	1.344815	-0.033765	9.696406	-0.041724	0.023704	-0.023527	1.000000	-0.000041	0.000025	0.000007	-0.483457	-7.895567	60.511187
31338	1.344329	-0.034573	9.696471	-0.040451	0.021280	-0.023516	1.000000	-0.000039	0.000025	0.000017	-0.474548	-7.901429	60.514975
31339	1.394613	-0.019270	9.684887	-0.028673	0.074026	-0.028208	1.000000	-0.000045	0.000031	0.000009	-0.477794	-7.899341	60.516067
31340	1.349078	-0.037953	9.720265	-0.037563	0.021140	0.000730	1.000000	-0.000056	0.000032	0.000010	-0.478980	-7.901797	60.517482
31341	1.370138	-0.017298	9.691120	-0.043462	0.053413	-0.025418	1.000000	-0.000039	0.000025	0.000017	-0.481673	-7.900433	60.519584
31342	1.363853	-0.016704	9.667531	-0.044660	0.049442	-0.049640	1.000000	-0.000051	0.000015	0.000017	-0.474500	-7.907274	60.523535
31343	1.371180	-0.044617	9.714353	-0.020708	0.036817	-0.002030	1.000000	-0.000030	0.000013	0.000015	-0.475969	-7.907307	60.525363
31344	1.369156	-0.019820	9.691254	-0.039991	0.050091	-0.025385	1.000000	-0.000046	0.000020	0.000007	-0.469174	-7.901733	60.529968
31345	1.368767	-0.020742	9.691307	-0.039784	0.049681	-0.025382	1.000000	-0.000045	0.000020	0.000017	-0.472375	-7.900933	60.532053
31346	1.387386	-0.049752	9.684800	-0.004773	0.051373	-0.029027	1.000000	-0.000055	0.000032	0.000020	-0.469417	-7.903846	60.533654
31347	1.396829	-0.028083	9.709041	-0.021040	0.067961	-0.003899	1.000000	-0.000030	0.000035	-0.000002	-0.470506	-7.901329	60.533473
31348	1.368761	-0.049149	9.714672	-0.016986	0.031785	-0.002006	1.000000	-0.000065	0.000021	0.000029	-0.470954	-7.907425	60.537636
31349	1.384166	-0.026858	9.661876	-0.025314	0.062458	-0.052362	1.000000	-0.000020	0.000013	0.000004	-0.471007	-7.907563	60.538182
31350	1.389796	-0.029117	9.685554	-0.023082	0.062450	-0.028112	1.000000	-0.000049	0.000014	0.000037	-0.473601	-7.914678	60.540265
31351	1.365973	-0.026300	9.691688	-0.038124	0.043147	-0.025345	1.000000	-0.000061	0.000038	0.000011	-0.478433	-7.911982	60.541639
31352	1.371194	-0.028899	9.715422	-0.034758	0.042503	-0.001091	1.000000	-0.000045	0.000031	0.000009	-0.472464	-7.917118	60.543615
31353	1.394066	-0.033817	9.709420	-0.019305	0.060921	-0.003849	1.000000	-0.000051	0.000015	0.000017	-0.476219	-7.917082	60.545715
31354	1.387734	-0.033244	9.685837	-0.020464	0.057462	-0.028076	1.000000	-0.000045	0.000031	0.000009	-0.469412	-7.919452	60.547897
31355	1.387142	-0.034042	9.685919	-0.020248	0.057002	-0.028073	1.000000	-0.000035	0.000030	0.000007	-0.471051	-7.917716	60.548875
31356	1.369230	-0.032351	9.715689	-0.031144	0.037477	-0.001058	1.000000	-0.000035	0.000019	0.000016	-0.458915	-7.921374	60.555068
31357	1.386235	-0.035504	9.686043	-0.018121	0.054311	-0.028053	1.000000	-0.000042	0.000025	-0.000003	-0.461100	-7.920204	60.554891
31358	1.389942	-0.012482	9.686646	-0.036231	0.068062	-0.027123	1.000000	-0.000058	0.000026	0.000039	-0.459402	-7.923341	60.559443
31359	1.367799	-0.035160	9.715880	-0.029870	0.034860	-0.001045	1.000000	-0.000041	0.000025	0.000007	-0.461565	-7.922227	60.560414
31360	1.365527	-0.010463	9.692857	-0.050221	0.047379	-0.024353	1.000000	-0.000050	0.000037	0.000010	-0.458345	-7.921844	60.562450
31361	1.360709	-0.035515	9.692399	-0.031065	0.031488	-0.025275	1.000000	-0.000051	0.000026	0.000008	-0.461710	-7.920636	60.563550
31362	1.387741	-0.016329	9.686956	-0.033186	0.064689	-0.027090	1.000000	-0.000041	0.000025	0.000007	-0.455234	-7.918719	60.568128
31363	1.365637	-0.038963	9.716170	-0.026796	0.031472	-0.001024	1.000000	-0.000057	0.000021	0.000008	-0.459215	-7.918058	60.569213
31364	1.386786	-0.018314	9.687089	-0.030647	0.062683	-0.027068	1.000000	-0.000047	0.000031	-0.000001	-0.448195	-7.915565	60.575053
31365	1.358604	-0.039367	9.692680	-0.026691	0.027909	-0.025251	1.000000	-0.000047	0.000036	0.000039	-0.451350	-7.913165	60.579722
31366	1.373968	-0.019276	9.740605	-0.038094	0.044758	0.024187	1.000000	-0.000030	0.000024	0.000006	-0.436708	-7.911241	60.588156
31367	1.367554	-0.018559	9.717034	-0.040277	0.042714	-0.000050	1.000000	-0.000056	0.000032	0.000010	-0.440363	-7.909303	60.589371
31368	1.386055	-0.047559	9.710509	-0.005885	0.045218	-0.003747	1.000000	-0.000044	0.000031	0.000018	-0.441644	-7.910100	60.588851
31369	1.366397	-0.020539	9.717193	-0.039750	0.041229	-0.000041	1.000000	-0.000050	0.000026	0.000018	-0.444752	-7.908875	60.591073
31370	1.365894	-0.021561	9.717262	-0.037394	0.039593	-0.000025	1.000000	-0.000051	0.000026	0.000008	-0.433799	-7.907404	60.596770
31371	1.388877	-0.026490	9.711260	-0.021867	0.057969	-0.002773	1.000000	-0.000045	0.000009	0.000026	-0.436352	-7.908104	60.599843
31372	1.382530	-0.025824	9.687680	-0.024759	0.054923	-0.027005	1.000000	-0.000042	0.000041	0.000030	-0.439398	-7.912334	60.600284
31373	1.354346	-0.046766	9.693243	-0.020766	0.020128	-0.025218	1.000000	-0.000042	0.000025	-0.000003	-0.441140	-7.911193	60.600087
31374	1.358176	-0.023650	9.693867	-0.038645	0.035100	-0.024249	1.000000	-0.000049	0.000014	0.000037	-0.440685	-7.908639	60.605496
31375	1.386965	-0.030224	9.711523	-0.020642	0.055003	-0.002753	1.000000	-0.000051	0.000026	0.000008	-0.443672	-7.907392	60.606567
31376	1.386519	-0.031198	9.711583	-0.018746	0.053709	-0.002742	1.000000	-0.000045	0.000020	0.000017	-0.435548	-7.906204	60.613106
31377	1.355257	-0.000983	9.670973	-0.057553	0.046652	-0.047496	1.000000	-0.000051	0.000026	0.000008	-0.438462	-7.904940	60.614170
31378	1.375495	-0.055629	9.687480	-0.001303	0.034591	-0.027947	1.000000	-0.000050	0.000026	0.000018	-0.435999	-7.908644	60.615742
31379	1.361634	-0.030257	9.717836	-0.032648	0.032087	0.000019	1.000000	-0.000051	0.000037	-0.000000	-0.438758	-7.906145	60.615812
31380	1.384503	-0.035282	9.711857	-0.015949	0.048901	-0.002712	1.000000	-0.000056	0.000010	0.000027	-0.431892	-7.911361	60.620786
31381	1.378322	-0.034551	9.688253	-0.018119	0.046858	-0.026949	1.000000	-0.000030	0.000024	0.000006	-0.432214	-7.910362	60.621595
31382	1.383689	-0.036974	9.711966	-0.015536	0.047505	-0.002705	1.000000	-0.000049	0.000025	0.000028	-0.435319	-7.911580	60.623446
31383	1.349793	-0.056473	9.693826	-0.014002	0.011183	-0.025192	1.000000	-0.000051	0.000026	0.000008	-0.438145	-7.910385	60.624514
31384	1.381116	-0.013313	9.689045	-0.033655	0.059419	-0.025931	1.000000	-0.000047	0.000020	0.000007	-0.423901	-7.906732	60.632286
31385	1.399669	-0.042263	9.682484	0.000828	0.062393	-0.029669	1.000000	-0.000048	0.000036	0.000029	-0.426538	-7.904325	60.635782
31386	1.381642	-0.040902	9.712242	-0.011006	0.042660	-0.002676	1.000000	-0.000047	0.000020	0.000007	-0.420646	-7.911450	60.635056
31387	1.375409	-0.040202	9.688645	-0.013167	0.040614	-0.026913	1.000000	-0.000045	0.000020	0.000017	-0.422744	-7.910975	60.637124
31388	1.361656	-0.014755	9.719004	-0.043680	0.036707	0.001084	1.000000	-0.000047	0.000031	-0.000001	-0.416759	-7.913806	60.636868
31389	1.399200	-0.071572	9.705805	0.024954	0.043175	-0.006411	1.000000	-0.000040	0.000036	0.000009	-0.418006	-7.911525	60.637952
31390	1.383731	-0.020459	9.713145	-0.026286	0.053732	-0.001636	1.000000	-0.000049	0.000025	0.000028	-0.410757	-7.909998	60.645233
31391	1.355686	-0.041467	9.718626	-0.022204	0.018886	0.000083	1.000000	-0.000041	0.000025	0.000007	-0.412042	-7.908942	60.646162
31392	1.372737	-0.044647	9.689004	-0.008350	0.036283	-0.026890	1.000000	-0.000045	0.000020	0.000017	-0.411458	-7.903369	60.650428
31393	1.376476	-0.021526	9.689691	-0.026917	0.051108	-0.025863	1.000000	-0.000044	0.000031	0.000018	-0.413320	-7.901626	60.652632
31394	1.342545	-0.040831	9.671520	-0.026886	0.014215	-0.048392	1.000000	-0.000041	0.000025	0.000007	-0.420944	-7.907954	60.647711
31395	1.379621	0.000799	9.690467	-0.046670	0.064803	-0.024831	1.000000	-0.000045	0.000031	0.000008	-0.422848	-7.906229	60.648779
31396	1.386557	-0.027439	9.737210	-0.022875	0.050164	0.022632	1.000000	-0.000047	0.000020	0.000007	-0.422761	-7.915718	60.645388
31397	1.380180	-0.026652	9.713635	-0.025042	0.048121	-0.001604	1.000000	-0.000040	0.000036	0.000009	-0.423986	-7.913494	60.646476
31398	1.356269	-0.023509	9.719740	-0.038336	0.027853	0.001135	1.000000	-0.000037	0.000024	0.000037	-0.414939	-7.912129	60.654472
31399	1.368990	-0.050811	9.689504	-0.006358	0.029334	-0.026866	1.000000	-0.000056	0.000032	0.000010	-0.418012	-7.910358	60.655671
31400	1.378488	-0.029494	9.713867	-0.020489	0.044651	-0.001577	1.000000	-0.000051	0.000026	0.000008	-0.407773	-7.908603	60.661456
31401	1.389616	-0.031095	9.660618	-0.009967	0.060051	-0.052777	1.000000	-0.000044	0.000031	0.000018	-0.409536	-7.906954	60.663667
31402	1.359937	-0.029085	9.743681	-0.032925	0.025333	0.025395	1.000000	-0.000047	0.000020	0.000007	-0.411933	-7.911639	60.660905
31403	1.371170	-0.030686	9.690418	-0.022407	0.040737	-0.025803	1.000000	-0.000051	0.000026	0.000008	-0.414363	-7.910557	60.661964
31404	1.364919	-0.029892	9.666825	-0.024226	0.037137	-0.050032	1.000000	-0.000032	0.000018	0.000036	-0.408697	-7.917393	60.665872
31405	1.352800	-0.030140	9.720205	-0.034000	0.020544	0.001169	1.000000	-0.000051	0.000026	0.000008	-0.411091	-7.916355	60.666935
31406	1.363974	-0.031877	9.666952	-0.023293	0.035475	-0.050024	1.000000	-0.000063	0.000027	-0.000001	-0.412286	-7.917105	60.666101
31407	1.369290	-0.034564	9.690671	-0.020390	0.036332	-0.025782	1.000000	-0.000038	0.000024	0.000027	-0.413468	-7.916241	60.669327
31408	1.378813	-0.013066	9.715053	-0.036763	0.051421	-0.000473	1.000000	-0.000043	0.000030	0.000028	-0.413701	-7.921557	60.669941
31409	1.387357	-0.064327	9.684134	0.014140	0.037532	-0.029552	1.000000	-0.000047	0.000020	0.000007	-0.415516	-7.921240	60.670871
31410	1.377771	-0.014949	9.715198	-0.036269	0.049029	-0.000458	1.000000	-0.000049	0.000036	0.000020	-0.415615	-7.925863	60.669958
31411	1.377112	-0.015903	9.715290	-0.035904	0.048421	-0.000454	1.000000	-0.000047	0.000031	-0.000002	-0.417297	-7.924321	60.669898
31412	1.372388	-0.040749	9.714690	-0.015618	0.031617	-0.001517	1.000000	-0.000032	0.000018	0.000036	-0.410423	-7.925581	60.675759
31413	1.393731	-0.019752	9.685751	-0.021516	0.063860	-0.027387	1.000000	-0.000039	0.000025	0.000017	-0.411531	-7.924776	60.677849
31414	1.353962	-0.040065	9.744474	-0.026838	0.013671	0.025437	1.000000	-0.000039	0.000025	0.000017	-0.411239	-7.918065	60.683664
31415	1.371046	-0.043198	9.714869	-0.013803	0.030546	-0.001511	1.000000	-0.000047	0.000020	0.000007	-0.413001	-7.917746	60.684588
31416	1.364698	-0.042366	9.691288	-0.016310	0.028338	-0.025748	1.000000	-0.000038	0.000036	0.000018	-0.415256	-7.917531	60.685755
31417	1.368410	-0.019086	9.692038	-0.034872	0.043110	-0.024662	1.000000	-0.000036	0.000019	0.000006	-0.415793	-7.917322	60.686555
31418	1.391353	-0.023960	9.686083	-0.017713	0.061554	-0.027364	1.000000	-0.000056	0.000021	0.000018	-0.410976	-7.911634	60.693065
31419	1.369129	-0.046707	9.715123	-0.011044	0.028092	-0.001500	1.000000	-0.000042	0.000025	-0.000003	-0.412014	-7.910680	60.692849
31420	1.396377	-0.027505	9.709844	-0.012836	0.061503	-0.003113	1.000000	-0.000044	0.000008	0.000035	-0.405003	-7.908528	60.702572
31421	1.362566	-0.046755	9.691568	-0.011256	0.025196	-0.025732	1.000000	-0.000040	0.000036	0.000009	-0.405904	-7.906340	60.703644
31422	1.395248	-0.029169	9.710002	-0.010744	0.058726	-0.003093	1.000000	-0.000040	0.000036	0.000009	-0.395459	-7.908450	60.707171
31423	1.375562	-0.002090	9.716780	-0.044474	0.054565	0.000724	1.000000	-0.000051	0.000026	0.000008	-0.397639	-7.907419	60.708218
31424	1.395803	-0.056739	9.733099	0.012031	0.043347	0.020047	1.000000	-0.000041	0.000014	0.000016	-0.395669	-7.907444	60.712445
31425	1.392334	-0.006080	9.687232	-0.030571	0.070645	-0.026209	1.000000	-0.000039	0.000025	0.000017	-0.396615	-7.906539	60.714509
31426	1.370015	-0.028624	9.716264	-0.024741	0.034836	-0.000362	1.000000	-0.000034	0.000030	0.000017	-0.394750	-7.919567	60.708293
31427	1.363693	-0.027666	9.692682	-0.026907	0.032810	-0.024597	1.000000	-0.000039	0.000025	0.000017	-0.395688	-7.918755	60.710369
31428	1.368837	-0.030230	9.716426	-0.023327	0.032402	-0.000350	1.000000	-0.000044	0.000042	0.000010	-0.390434	-7.920290	60.711332
31429	1.385609	-0.033515	9.686878	-0.010301	0.049295	-0.027284	1.000000	-0.000061	0.000038	0.000011	-0.393695	-7.918026	60.712666
31430	1.361675	-0.030465	9.692957	-0.024202	0.028863	-0.024578	1.000000	-0.000030	0.000024	0.000006	-0.386144	-7.919269	60.713760
31431	1.371278	-0.009024	9.717382	-0.040163	0.044984	0.000791	1.000000	-0.000056	0.000021	0.000018	-0.388921	-7.918953	60.715948
31432	1.382591	-0.010606	9.664138	-0.029527	0.059583	-0.050372	1.000000	-0.000050	0.000026	0.000018	-0.387428	-7.922222	60.717116
31433	1.383622	-0.037384	9.687148	-0.007609	0.044966	-0.027261	1.000000	-0.000050	0.000026	0.000018	-0.389514	-7.921361	60.719318
31434	1.365625	-0.036132	9.716857	-0.019702	0.025962	-0.000323	1.000000	-0.000047	0.000020	0.000007	-0.388018	-7.925030	60.719972
31435	1.365130	-0.037048	9.716923	-0.019294	0.025318	-0.000321	1.000000	-0.000044	0.000031	0.000018	-0.389417	-7.923622	60.722190
31436	1.387970	-0.041918	9.710998	-0.003082	0.042107	-0.003003	1.000000	-0.000047	0.000020	0.000007	-0.383395	-7.929279	60.724220
31437	1.369970	-0.040566	9.740705	-0.015280	0.023904	0.023927	1.000000	-0.000042	0.000025	-0.000003	-0.384141	-7.928506	60.724012
31438	1.367846	-0.015705	9.717857	-0.036928	0.035849	0.000841	1.000000	-0.000049	0.000036	0.000019	-0.384838	-7.935163	60.721389
31439	1.362980	-0.040747	9.717210	-0.017581	0.019825	-0.000305	1.000000	-0.000051	0.000026	0.000008	-0.386848	-7.934373	60.722458
31440	1.361065	-0.016003	9.694338	-0.037225	0.032177	-0.023381	1.000000	-0.000051	0.000015	0.000017	-0.378499	-7.935649	60.728827
31441	1.389838	-0.022686	9.712053	-0.019039	0.051802	-0.001821	1.000000	-0.000045	0.000020	0.000017	-0.379900	-7.935563	60.730899
31442	1.361748	-0.043677	9.717371	-0.015047	0.014409	-0.000291	1.000000	-0.000045	0.000031	0.000008	-0.375038	-7.947231	60.726349
31443	1.355485	-0.042843	9.693778	-0.017220	0.012377	-0.024528	1.000000	-0.000044	0.000019	0.000027	-0.376428	-7.947257	60.729576
31444	1.360648	-0.045608	9.717516	-0.012562	0.012513	-0.000285	1.000000	-0.000056	0.000043	0.000001	-0.368667	-7.942579	60.735697
31445	1.354321	-0.044812	9.693932	-0.014731	0.010484	-0.024522	1.000000	-0.000042	0.000014	0.000006	-0.369386	-7.943191	60.736490
31446	1.382836	-0.051324	9.711685	0.003300	0.028586	-0.002954	1.000000	-0.000037	0.000046	0.000020	-0.366376	-7.948273	60.734544
31447	1.386502	-0.028207	9.712515	-0.015218	0.043255	-0.001773	1.000000	-0.000051	0.000015	0.000017	-0.368344	-7.948863	60.736611
31448	1.376034	-0.051448	9.688165	0.001538	0.024877	-0.027186	1.000000	-0.000043	0.000030	0.000028	-0.366751	-7.952806	60.738010
31449	1.366450	-0.002064	9.719384	-0.048509	0.037304	0.002091	1.000000	-0.000041	0.000025	0.000007	-0.367336	-7.952256	60.738964
31450	1.379228	-0.029032	9.689065	-0.017569	0.038317	-0.025997	1.000000	-0.000034	0.000030	0.000017	-0.370985	-7.956833	60.734693
31451	1.356801	-0.051566	9.718024	-0.010804	0.004659	-0.000276	1.000000	-0.000036	0.000030	-0.000003	-0.370900	-7.955714	60.734521
31452	1.360593	-0.028247	9.718847	-0.027775	0.019279	0.000918	1.000000	-0.000032	0.000018	0.000036	-0.362859	-7.951704	60.744090
31453	1.373367	-0.055316	9.688522	0.004171	0.020829	-0.027178	1.000000	-0.000051	0.000037	-0.000000	-0.364543	-7.949783	60.744173
31454	1.388642	-0.035859	9.736671	-0.010198	0.035491	0.022505	1.000000	-0.000051	0.000015	0.000017	-0.364313	-7.967000	60.738111
31455	1.376744	-0.033231	9.689405	-0.014983	0.032145	-0.025970	1.000000	-0.000039	0.000025	0.000017	-0.364896	-7.966585	60.740221
31456	1.387759	-0.037707	9.736790	-0.007203	0.035047	0.022510	1.000000	-0.000051	0.000026	0.000008	-0.358388	-7.954788	60.750237
31457	1.381550	-0.037005	9.713191	-0.009380	0.033024	-0.001726	1.000000	-0.000056	0.000021	0.000018	-0.360842	-7.954768	60.752442
31458	1.350474	-0.006474	9.672688	-0.046900	0.026164	-0.046325	1.000000	-0.000045	0.000031	0.000008	-0.354846	-7.949249	60.759443
31459	1.380343	-0.038926	9.713356	-0.007113	0.031671	-0.001720	1.000000	-0.000043	0.000041	0.000020	-0.355809	-7.946830	60.761824
31460	1.360687	-0.011749	9.720186	-0.040469	0.026743	0.002162	1.000000	-0.000035	0.000019	0.000016	-0.352210	-7.949305	60.765577
31461	1.377943	-0.014787	9.690602	-0.027471	0.043667	-0.024733	1.000000	-0.000054	0.000016	-0.000003	-0.353997	-7.949865	60.765349
31462	1.383192	-0.017604	9.714332	-0.023890	0.044249	-0.000489	1.000000	-0.000047	0.000036	0.000039	-0.352907	-7.946670	60.771303
31463	1.382644	-0.018571	9.714408	-0.023447	0.043542	-0.000485	1.000000	-0.000048	0.000021	-0.000003	-0.354007	-7.946651	60.771087
31464	1.372133	-0.041711	9.690026	-0.006860	0.025367	-0.025941	1.000000	-0.000043	0.000030	0.000028	-0.353637	-7.950213	60.773351
31465	1.371538	-0.042619	9.690106	-0.006419	0.024658	-0.025939	1.000000	-0.000045	0.000031	0.000008	-0.354652	-7.949017	60.774435
31466	1.376729	-0.045385	9.713840	-0.002656	0.026498	-0.001702	1.000000	-0.000050	0.000026	0.000018	-0.356366	-7.939990	60.781647
31467	1.369034	-0.018667	9.667381	-0.026411	0.038546	-0.048944	1.000000	-0.000039	0.000025	0.000017	-0.356838	-7.939447	60.783729
31468	1.374350	-0.021236	9.691101	-0.022670	0.038591	-0.024699	1.000000	-0.000035	0.000019	0.000016	-0.351660	-7.940483	60.786640
31469	1.356292	-0.020167	9.720786	-0.034761	0.020237	0.002200	1.000000	-0.000073	0.000028	0.000010	-0.355816	-7.939597	60.787943
31470	1.367655	-0.021516	9.667570	-0.023783	0.035903	-0.048928	1.000000	-0.000030	0.000024	0.000006	-0.351784	-7.937251	60.793258
31471	1.356705	-0.047777	9.743783	-0.011647	0.004785	0.025202	1.000000	-0.000045	0.000031	0.000008	-0.352765	-7.935990	60.794329
31472	1.372249	-0.025090	9.691389	-0.018517	0.036002	-0.024680	1.000000	-0.000055	0.000031	0.000019	-0.346626	-7.928574	60.805058
31473	1.377435	-0.027875	9.715125	-0.015416	0.036590	-0.000440	1.000000	-0.000039	0.000025	0.000017	-0.347017	-7.927981	60.807128
31474	1.347924	-0.022963	9.697482	-0.031032	0.014959	-0.022009	1.000000	-0.000047	0.000020	0.000007	-0.337111	-7.926503	60.813780
31475	1.372279	-0.053633	9.714428	0.006198	0.019156	-0.001687	1.000000	-0.000039	0.000025	0.000017	-0.337444	-7.925898	60.815845
31476	1.370490	-0.028766	9.691628	-0.013770	0.031621	-0.024658	1.000000	-0.000058	0.000010	0.000007	-0.331177	-7.928155	60.819391
31477	1.375775	-0.031569	9.715349	-0.010641	0.032192	-0.000419	1.000000	-0.000037	0.000035	0.000028	-0.331384	-7.926354	60.822753
31478	1.387178	-0.032783	9.662135	-0.000112	0.047213	-0.051542	1.000000	-0.000051	0.000015	0.000017	-0.330018	-7.929770	60.825309
31479	1.352940	-0.055362	9.744266	-0.003026	-0.002920	0.025210	1.000000	-0.000045	0.000031	0.000008	-0.330841	-7.928475	60.826367
31480	1.372859	-0.008465	9.692715	-0.029388	0.042558	-0.023363	1.000000	-0.000039	0.000025	0.000017	-0.322178	-7.928917	60.830412
31481	1.387150	-0.061273	9.685168	0.024163	0.030139	-0.028571	1.000000	-0.000041	0.000025	0.000007	-0.322384	-7.928295	60.831330
31482	1.349927	-0.032035	9.721641	-0.021118	0.008216	0.002256	1.000000	-0.000044	0.000031	0.000018	-0.319180	-7.924077	60.836635
31483	1.394789	-0.015122	9.686961	-0.011948	0.059486	-0.026003	1.000000	-0.000056	0.000010	0.000026	-0.321435	-7.925208	60.839788
31484	1.366761	-0.036212	9.692129	-0.006772	0.023752	-0.024628	1.000000	-0.000047	0.000031	-0.000002	-0.315489	-7.925098	60.840082
31485	1.395280	-0.042874	9.709916	0.011540	0.043256	-0.003044	1.000000	-0.000039	0.000025	0.000017	-0.315663	-7.924498	60.842138
31486	1.369910	-0.013954	9.693126	-0.025025	0.037083	-0.023329	1.000000	-0.000049	0.000036	0.000019	-0.316816	-7.926291	60.839939
31487	1.388421	-0.042897	9.686408	0.009575	0.039996	-0.027272	1.000000	-0.000045	0.000020	0.000017	-0.317666	-7.926275	60.841981
31488	1.351244	-0.013732	9.722880	-0.037267	0.018037	0.003561	1.000000	-0.000044	0.000031	0.000018	-0.322577	-7.926672	60.839690
31489	1.364036	-0.040817	9.692495	-0.005340	0.019697	-0.024618	1.000000	-0.000051	0.000026	0.000008	-0.323998	-7.925955	60.840725
31490	1.367833	-0.017712	9.693413	-0.023455	0.034233	-0.023315	1.000000	-0.000039	0.000025	0.000017	-0.322145	-7.924755	60.842965
31491	1.373009	-0.020436	9.717151	-0.020290	0.034762	0.000924	1.000000	-0.000043	0.000030	0.000028	-0.322928	-7.923542	60.846304
31492	1.385768	-0.047354	9.686767	0.011603	0.035472	-0.027256	1.000000	-0.000035	0.000030	0.000007	-0.319806	-7.927360	60.846259
31493	1.370475	0.003891	9.694500	-0.040971	0.046447	-0.021992	1.000000	-0.000039	0.000025	0.000017	-0.319987	-7.926802	60.848318
31494	1.384754	-0.048917	9.686904	0.013757	0.032806	-0.027250	1.000000	-0.000039	0.000025	0.000017	-0.310515	-7.929164	60.852835
31495	1.388506	-0.025866	9.687841	-0.004705	0.047406	-0.025931	1.000000	-0.000054	0.000031	0.000029	-0.312485	-7.927883	60.856296
31496	1.370307	-0.024848	9.717522	-0.016132	0.028871	0.000951	1.000000	-0.000051	0.000026	0.000008	-0.310819	-7.926030	60.859696
31497	1.359758	-0.047955	9.693063	0.000641	0.011587	-0.024604	1.000000	-0.000044	0.000031	0.000018	-0.311509	-7.924805	60.861890
31498	1.386808	-0.028806	9.688076	-0.002644	0.044932	-0.025918	1.000000	-0.000044	0.000031	0.000018	-0.311414	-7.924612	60.864024
31499	1.396254	-0.007632	9.712690	-0.018416	0.060756	-0.000353	1.000000	-0.000051	0.000026	0.000008	-0.312753	-7.923918	60.865054
31500	1.368064	-0.028545	9.717828	-0.013235	0.024299	0.000968	1.000000	-0.000035	0.000030	0.000007	-0.303540	-7.927648	60.867559
31501	1.357529	-0.051426	9.693358	0.003537	0.007021	-0.024600	1.000000	-0.000042	0.000026	-0.000003	-0.303570	-7.927040	60.867326
31502	1.390485	-0.034183	9.712019	0.003340	0.041323	-0.001663	1.000000	-0.000049	0.000014	0.000036	-0.301491	-7.928931	60.871272
31503	1.366698	-0.031199	9.718012	-0.011296	0.021616	0.000976	1.000000	-0.000045	0.000031	0.000008	-0.302097	-7.927697	60.872320
31504	1.383799	-0.034232	9.688488	0.001298	0.037837	-0.025888	1.000000	-0.000051	0.000026	0.000008	-0.302935	-7.932153	60.870251
31505	1.383354	-0.035203	9.688548	0.001801	0.037098	-0.025885	1.000000	-0.000045	0.000020	0.000017	-0.303670	-7.932217	60.872290
31506	1.365247	-0.034107	9.718206	-0.008873	0.017775	0.000986	1.000000	-0.000053	0.000026	-0.000002	-0.296011	-7.932122	60.876056
31507	1.359012	-0.033065	9.694614	-0.011066	0.015826	-0.023246	1.000000	-0.000034	0.000030	0.000017	-0.295355	-7.931053	60.878130
31508	1.381764	-0.037932	9.688765	0.004396	0.032815	-0.025871	1.000000	-0.000056	0.000032	0.000009	-0.294562	-7.936653	60.875331
31509	1.357756	-0.034922	9.694783	-0.010235	0.013095	-0.023241	1.000000	-0.000040	0.000036	0.000008	-0.294441	-7.934909	60.876402
31510	1.386088	-0.041685	9.712618	0.009256	0.032175	-0.001632	1.000000	-0.000049	0.000036	0.000019	-0.288713	-7.931591	60.882798
31511	1.360646	-0.012805	9.695877	-0.027038	0.026573	-0.021869	1.000000	-0.000050	0.000037	0.000009	-0.289802	-7.929733	60.883985
31512	1.361321	-0.039627	9.718736	-0.004110	0.011527	0.000999	1.000000	-0.000038	0.000036	0.000018	-0.285353	-7.926779	60.889443
31513	1.353681	-0.012591	9.672388	-0.027984	0.023711	-0.046094	1.000000	-0.000039	0.000025	0.000017	-0.285308	-7.926291	60.891496
31514	1.377925	-0.043292	9.689289	0.008234	0.026260	-0.025853	1.000000	-0.000039	0.000025	0.000017	-0.286588	-7.936974	60.883587
31515	1.393159	-0.023874	9.737593	-0.004785	0.043183	0.023994	1.000000	-0.000035	0.000019	0.000016	-0.285983	-7.937208	60.885510
31516	1.377013	-0.044861	9.689412	0.010103	0.024504	-0.025851	1.000000	-0.000047	0.000031	-0.000002	-0.281376	-7.934851	60.887555
31517	1.363097	-0.019661	9.719989	-0.020758	0.021262	0.002389	1.000000	-0.000039	0.000025	0.000017	-0.281316	-7.934409	60.889613
31518	1.386056	-0.024546	9.714123	-0.004057	0.039140	-0.000226	1.000000	-0.000054	0.000016	-0.000003	-0.276145	-7.933750	60.893112
31519	1.358007	-0.045522	9.719174	0.000297	0.004088	0.001006	1.000000	-0.000038	0.000024	0.000027	-0.276079	-7.933340	60.896311
31520	1.385132	-0.026335	9.714250	-0.002473	0.037924	-0.000221	1.000000	-0.000044	0.000031	0.000018	-0.274645	-7.929113	60.902124
31521	1.378972	-0.025324	9.690649	-0.004676	0.035995	-0.024451	1.000000	-0.000045	0.000020	0.000017	-0.275222	-7.929211	60.904156
31522	1.384151	-0.028173	9.714385	-0.002281	0.035577	-0.000212	1.000000	-0.000044	0.000031	0.000018	-0.277773	-7.934785	60.900325
31523	1.401387	-0.031172	9.684862	0.010644	0.052630	-0.027058	1.000000	-0.000054	0.000016	-0.000003	-0.278987	-7.935400	60.900053
31524	1.349814	-0.048217	9.695835	0.000195	-0.002047	-0.023227	1.000000	-0.000044	0.000042	0.000010	-0.275762	-7.935381	60.901989
31525	1.386916	-0.006954	9.715532	-0.019347	0.047952	0.001204	1.000000	-0.000039	0.000014	0.000025	-0.275790	-7.936228	60.905032
31526	1.382219	-0.031894	9.714648	-0.000809	0.030677	-0.000195	1.000000	-0.000051	0.000026	0.000008	-0.278396	-7.944519	60.897747
31527	1.376060	-0.030864	9.691047	-0.003023	0.028755	-0.024426	1.000000	-0.000041	0.000025	0.000007	-0.278278	-7.944091	60.898662
31528	1.385492	-0.009655	9.715733	-0.019187	0.044946	0.001219	1.000000	-0.000044	0.000031	0.000018	-0.282535	-7.941785	60.899837
31529	1.374966	-0.032681	9.691197	-0.002443	0.027716	-0.024423	1.000000	-0.000053	0.000026	-0.000002	-0.283656	-7.941205	60.899724
31530	1.374469	-0.033593	9.691264	-0.002754	0.026945	-0.024421	1.000000	-0.000039	0.000025	0.000017	-0.287864	-7.943198	60.898890
31531	1.372747	-0.008447	9.668595	-0.023939	0.040348	-0.047236	1.000000	-0.000042	0.000014	0.000005	-0.287894	-7.944007	60.899648
31532	1.344530	-0.029456	9.673628	-0.019728	0.004546	-0.046046	1.000000	-0.000054	0.000042	0.000020	-0.288057	-7.945812	60.901074
31533	1.378644	-0.038293	9.715133	0.001389	0.025039	-0.000180	1.000000	-0.000042	0.000014	0.000005	-0.288082	-7.946639	60.901833
31534	1.354783	-0.035350	9.721107	-0.015048	0.005439	0.002421	1.000000	-0.000061	0.000038	0.000010	-0.300210	-7.949203	60.896201
31535	1.381903	-0.016267	9.716235	-0.018369	0.038963	0.001246	1.000000	-0.000035	0.000019	0.000016	-0.299633	-7.949523	60.898128
31536	1.377053	-0.041031	9.715348	0.000719	0.022639	-0.000174	1.000000	-0.000040	0.000036	0.000008	-0.300751	-7.950196	60.896832
31537	1.375119	-0.015960	9.692724	-0.020476	0.036053	-0.022980	1.000000	-0.000051	0.000026	0.000008	-0.301970	-7.949711	60.897869
31538	1.370306	-0.040882	9.691826	-0.001442	0.020835	-0.024406	1.000000	-0.000041	0.000025	0.000007	-0.306656	-7.946105	60.897877
31539	1.356316	-0.015677	9.722447	-0.032301	0.017536	0.003853	1.000000	-0.000041	0.000036	-0.000002	-0.306524	-7.944431	60.897806
31540	1.369181	-0.042432	9.691978	-0.000888	0.017980	-0.024400	1.000000	-0.000032	0.000018	0.000035	-0.304496	-7.952911	60.896549
31541	1.368757	-0.043195	9.692034	-0.000393	0.017211	-0.024399	1.000000	-0.000042	0.000026	-0.000003	-0.304464	-7.952509	60.896326
31542	1.372588	-0.019992	9.693075	-0.019024	0.031085	-0.022960	1.000000	-0.000039	0.000025	0.000017	-0.303423	-7.956129	60.895741
31543	1.367767	-0.045021	9.692166	0.000428	0.014997	-0.024395	1.000000	-0.000062	0.000027	0.000009	-0.305900	-7.955576	60.896896
31544	1.377225	-0.024013	9.716883	-0.015026	0.031564	0.001278	1.000000	-0.000039	0.000025	0.000017	-0.307149	-7.949845	60.901803
31545	1.376788	-0.024881	9.716943	-0.014529	0.030794	0.001282	1.000000	-0.000047	0.000020	0.000007	-0.307820	-7.950039	60.902700
31546	1.370761	-0.023820	9.693325	-0.017414	0.028138	-0.022948	1.000000	-0.000045	0.000020	0.000017	-0.309598	-7.956075	60.900423
31547	1.381550	-0.028606	9.740734	-0.011431	0.029587	0.025523	1.000000	-0.000035	0.000030	0.000007	-0.308928	-7.955162	60.901364
31548	1.346229	-0.021460	9.699380	-0.031757	0.006955	-0.020359	1.000000	-0.000042	0.000041	0.000029	-0.308545	-7.956936	60.902638
31549	1.393605	-0.056343	9.710363	0.020712	0.029934	-0.002736	1.000000	-0.000051	0.000026	0.000008	-0.309791	-7.956501	60.903677
31550	1.368344	-0.027287	9.693657	-0.016945	0.024374	-0.022937	1.000000	-0.000037	0.000035	0.000028	-0.316487	-7.958844	60.901623
31551	1.396792	-0.034105	9.711513	0.001425	0.043682	-0.001277	1.000000	-0.000048	0.000021	-0.000003	-0.317170	-7.959054	60.901382
31552	1.367303	-0.029054	9.693799	-0.017034	0.022985	-0.022934	1.000000	-0.000045	0.000031	0.000008	-0.323736	-7.960311	60.897482
31553	1.372333	-0.031961	9.717552	-0.013807	0.023309	0.001303	1.000000	-0.000044	0.000031	0.000018	-0.324393	-7.959376	60.899687
31554	1.385142	-0.058835	9.687071	0.018434	0.024461	-0.026959	1.000000	-0.000045	0.000031	0.000008	-0.321028	-7.960520	60.899882
31555	1.347663	-0.029800	9.723617	-0.027565	0.002133	0.003883	1.000000	-0.000045	0.000042	-0.000000	-0.321513	-7.958276	60.899955
31556	1.374751	-0.010664	9.718821	-0.030558	0.034386	0.002781	1.000000	-0.000044	0.000019	0.000026	-0.316872	-7.964145	60.901699
31557	1.364373	-0.033533	9.694197	-0.013870	0.017204	-0.022917	1.000000	-0.000039	0.000025	0.000017	-0.316922	-7.963910	60.903771
31558	1.363892	-0.034344	9.694262	-0.012811	0.015074	-0.022912	1.000000	-0.000039	0.000025	0.000017	-0.310093	-7.968958	60.905724
31559	1.367693	-0.011093	9.695349	-0.031281	0.029603	-0.021434	1.000000	-0.000034	0.000030	0.000017	-0.309441	-7.968179	60.907818
31560	1.386092	-0.039809	9.688539	0.003709	0.033304	-0.025476	1.000000	-0.000038	0.000035	0.000018	-0.309580	-7.961358	60.911605
31561	1.389838	-0.016606	9.689639	-0.014760	0.047836	-0.023994	1.000000	-0.000039	0.000025	0.000017	-0.309604	-7.961121	60.913673
31562	1.390629	-0.043546	9.712360	0.008235	0.033763	-0.001242	1.000000	-0.000051	0.000026	0.000008	-0.309480	-7.953628	60.918489
31563	1.355541	-0.036559	9.670957	-0.011935	0.011850	-0.047138	1.000000	-0.000049	0.000025	0.000028	-0.310770	-7.953298	60.921810
31564	1.393911	-0.021531	9.713528	-0.009930	0.046686	0.000253	1.000000	-0.000047	0.000031	-0.000002	-0.309907	-7.957077	60.921517
31565	1.364393	-0.016395	9.695806	-0.027337	0.025848	-0.021412	1.000000	-0.000039	0.000025	0.000017	-0.309924	-7.956828	60.923582
31566	1.388556	-0.047098	9.712640	0.009698	0.030626	-0.001233	1.000000	-0.000030	0.000024	0.000006	-0.312641	-7.953360	60.923394
31567	1.368933	-0.019929	9.719628	-0.023902	0.026171	0.002825	1.000000	-0.000050	0.000037	0.000009	-0.313788	-7.951715	60.924584
31568	1.386139	-0.022825	9.690156	-0.010313	0.043525	-0.023968	1.000000	-0.000045	0.000020	0.000016	-0.311271	-7.948820	60.929054
31569	1.381420	-0.047754	9.689170	0.009138	0.027442	-0.025462	1.000000	-0.000045	0.000020	0.000016	-0.311968	-7.949107	60.931090
31570	1.367555	-0.022798	9.719816	-0.021775	0.023982	0.002836	1.000000	-0.000050	0.000026	0.000018	-0.313515	-7.949321	60.931607
31571	1.380324	-0.049682	9.689317	0.010031	0.025826	-0.025458	1.000000	-0.000044	0.000042	0.000009	-0.313979	-7.947097	60.932813
31572	1.360792	-0.022730	9.696300	-0.023462	0.021280	-0.021391	1.000000	-0.000058	0.000010	0.000006	-0.315208	-7.948639	60.934009
31573	1.361517	-0.049638	9.719000	-0.001234	0.006253	0.001339	1.000000	-0.000025	0.000045	0.000028	-0.313805	-7.946036	60.937410
31574	1.382930	-0.028350	9.690600	-0.007957	0.037312	-0.023940	1.000000	-0.000051	0.000026	0.000008	-0.314150	-7.954589	60.933778
31575	1.354677	-0.049348	9.695489	-0.003639	0.002233	-0.022893	1.000000	-0.000044	0.000031	0.000018	-0.314741	-7.953677	60.935974
31576	1.387434	-0.032332	9.714425	-0.003136	0.036555	0.000300	1.000000	-0.000049	0.000025	0.000028	-0.309822	-7.951571	60.943334
31577	1.363588	-0.029179	9.720356	-0.017768	0.016780	0.002859	1.000000	-0.000030	0.000024	0.000006	-0.308550	-7.951382	60.944134
31578	1.380928	-0.031850	9.690874	0.005479	0.006668	-0.023870	1.000000	-0.000047	0.000020	0.000007	-0.177097	-8.061978	60.285724
31579	1.380639	-0.032889	9.690912	0.006005	0.005768	-0.023870	1.000000	-0.000056	0.000009	0.000026	-0.178608	-8.063929	60.287163
31580	1.366697	-0.008108	9.721585	-0.024772	0.002497	0.004467	1.000000	-0.000056	0.000043	0.000001	-0.179769	-8.062016	60.285276
31581	1.379479	-0.034970	9.691070	0.007051	0.003976	-0.023869	1.000000	-0.000037	0.000024	0.000036	-0.179286	-8.062316	60.287929
31582	1.378898	-0.035776	9.691150	0.007567	0.003074	-0.023869	1.000000	-0.000040	0.000036	0.000008	-0.178661	-8.061286	60.288039
31583	1.364814	-0.010722	9.721847	-0.023201	-0.000212	0.004471	1.000000	-0.000045	0.000031	0.000008	-0.178662	-8.060782	60.287396
31584	1.377704	-0.037477	9.691313	0.008639	0.001273	-0.023870	1.000000	-0.000041	0.000025	0.000007	-0.177982	-8.060895	60.286912
31585	1.377107	-0.038382	9.691394	0.009165	0.000373	-0.023870	1.000000	-0.000049	0.000036	0.000019	-0.178581	-8.059767	60.287550
31586	1.380860	-0.015290	9.692554	-0.009090	0.014989	-0.022268	1.000000	-0.000040	0.000025	0.000017	-0.178035	-8.059947	60.287534
31587	1.362586	-0.014206	9.722155	-0.021067	-0.003817	0.004475	1.000000	-0.000042	0.000026	-0.000003	-0.177436	-8.060067	60.285608
31588	1.381181	-0.042939	9.715275	0.013585	-0.001387	0.000359	1.000000	-0.000032	0.000018	0.000035	-0.176402	-8.060946	60.286143
31589	1.370921	-0.065844	9.690555	0.030060	-0.018721	-0.025483	1.000000	-0.000063	0.000016	0.000007	-0.178425	-8.062138	60.285426
31590	1.379225	-0.018767	9.692781	-0.006960	0.011435	-0.022262	1.000000	-0.000030	0.000024	0.000006	-0.176597	-8.062200	60.280926
31591	1.378693	-0.019519	9.692855	-0.006434	0.010536	-0.022260	1.000000	-0.000044	0.000031	0.000018	-0.176626	-8.061741	60.281426
31592	1.378092	-0.020532	9.692938	-0.005906	0.009619	-0.022259	1.000000	-0.000055	0.000031	0.000019	-0.177840	-8.061253	60.283941
31593	1.384444	-0.049684	9.739259	0.019083	-0.004976	0.024585	1.000000	-0.000042	0.000014	0.000005	-0.177375	-8.062652	60.282997
31594	1.382840	-0.024415	9.716729	-0.002011	0.008738	0.001974	1.000000	-0.000040	0.000025	0.000017	-0.176864	-8.062801	60.282183
31595	1.375615	0.002903	9.670533	-0.025950	0.021542	-0.044863	1.000000	-0.000045	0.000020	0.000016	-0.176998	-8.063577	60.282520
31596	1.381808	-0.026194	9.716871	-0.000932	0.006976	0.001976	1.000000	-0.000044	0.000042	0.000009	-0.176897	-8.061555	60.275989
31597	1.352308	-0.021193	9.699119	-0.018591	-0.013653	-0.019754	1.000000	-0.000063	0.000016	0.000007	-0.178920	-8.062747	60.275269
31598	1.369820	-0.024099	9.669631	-0.005559	0.003388	-0.046485	1.000000	-0.000039	0.000014	0.000025	-0.178482	-8.064145	60.276002
31599	1.368103	0.000879	9.647133	-0.026661	0.017113	-0.069081	1.000000	-0.000072	0.000039	0.000011	-0.181540	-8.062764	60.275716
31600	1.398616	-0.028254	9.587077	0.017644	0.036595	-0.124172	1.000000	-0.000071	0.000038	0.000021	-0.184608	-8.061224	60.272608
31601	1.356405	-0.023709	9.622589	-0.009668	-0.001057	-0.094945	1.000000	-0.000057	0.000070	0.000024	-0.186137	-8.056289	60.273838
31602	1.441907	-0.043070	9.676280	0.045444	0.057196	-0.029742	1.000000	-0.000052	0.000064	0.000023	-0.187089	-8.051994	60.274174
31603	1.383749	-0.058102	9.663372	0.031205	0.002239	-0.050623	1.000000	-0.000055	0.000092	0.000017	-0.188380	-8.044545	60.274580
31604	1.369862	-0.059560	9.716790	0.022114	-0.015725	0.000331	1.000000	-0.000061	0.000075	0.000025	-0.190366	-8.038931	60.276290
31605	1.365962	-0.008411	9.671898	-0.020621	0.012649	-0.044834	1.000000	-0.000049	0.000081	-0.000015	-0.190429	-8.032681	60.272988
31606	1.365593	-0.035454	9.694664	0.001548	-0.002885	-0.022253	1.000000	-0.000045	0.000079	0.000025	-0.190561	-8.026557	60.273194
31607	1.364101	-0.067162	9.817962	0.019800	-0.033746	0.099736	1.000000	-0.000060	0.000071	-0.000005	-0.192002	-8.021484	60.270985
31608	1.341612	0.011807	9.779988	-0.057032	-0.008698	0.058731	1.000000	-0.000064	0.000043	0.000031	-0.194274	-8.019691	60.275724
31609	1.359838	-0.017427	9.773133	-0.022386	-0.006297	0.054584	1.000000	-0.000062	0.000038	0.000000	-0.196058	-8.018368	60.274173
31610	1.364805	-0.020638	9.796892	-0.019001	-0.006315	0.078815	1.000000	-0.000045	0.000020	0.000016	-0.196286	-8.019075	60.271781
31611	1.346756	0.010968	9.703348	-0.048701	0.004825	-0.016441	1.000000	-0.000045	0.000009	0.000025	-0.196554	-8.021133	60.273093
31612	1.394294	-0.024145	9.714295	0.004159	0.026920	0.001151	1.000000	-0.000054	0.000031	0.000029	-0.197814	-8.020606	60.274677
31613	1.400631	-0.022765	9.637490	0.011429	0.042253	-0.074023	1.000000	-0.000051	0.000015	0.000016	-0.198623	-8.021948	60.274980
31614	1.390441	-0.045860	9.612691	0.027880	0.024949	-0.099920	1.000000	-0.000071	0.000016	0.000038	-0.201756	-8.023246	60.281145
31615	1.364184	-0.021664	9.696594	-0.012447	0.004499	-0.020587	1.000000	-0.000055	0.000031	0.000019	-0.203029	-8.022685	60.281745
31616	1.367163	-0.070430	9.641168	0.035237	-0.010347	-0.074881	1.000000	-0.000055	0.000031	0.000019	-0.204169	-8.022187	60.284855
31617	1.333090	-0.089285	9.622241	0.036316	-0.046443	-0.098309	1.000000	-0.000041	0.000052	0.000031	-0.204019	-8.019308	60.286811
31618	1.339582	-0.046888	9.725248	-0.004568	-0.031733	0.004446	1.000000	-0.000049	0.000048	0.000011	-0.204518	-8.017027	60.289014
31619	1.346411	-0.071493	9.671051	0.024323	-0.031026	-0.048180	1.000000	-0.000048	0.000070	0.000003	-0.204744	-8.012105	60.287834
31620	1.370521	-0.030907	9.744609	-0.004061	0.001666	0.027875	1.000000	-0.000042	0.000052	0.000021	-0.204562	-8.009115	60.286937
31621	1.355068	-0.077848	9.718735	0.031132	-0.031123	0.000270	1.000000	-0.000068	0.000071	0.000015	-0.207305	-8.004032	60.287119
31622	1.345946	-0.055189	9.773239	0.003273	-0.033651	0.052892	1.000000	-0.000028	0.000046	0.000009	-0.205421	-8.001938	60.288123
31623	1.343846	-0.029747	9.750864	-0.017848	-0.019879	0.030353	1.000000	-0.000043	0.000053	0.000011	-0.205212	-7.998966	60.287788
31624	1.343032	-0.030637	9.750974	-0.017303	-0.020802	0.030352	1.000000	-0.000045	0.000031	0.000008	-0.205082	-7.998504	60.289399
31625	1.365868	-0.035472	9.745247	-0.001432	-0.002878	0.027875	1.000000	-0.000040	0.000025	0.000017	-0.204542	-7.998716	60.289748
31626	1.384390	-0.064249	9.738324	0.033222	-0.000462	0.023700	1.000000	-0.000041	0.000025	0.000007	-0.203941	-7.998792	60.287720
31627	1.359562	-0.034884	9.721668	-0.003249	-0.005508	0.003646	1.000000	-0.000034	0.000007	0.000034	-0.202996	-8.001002	60.290060
31628	1.381541	-0.013630	9.693413	-0.009037	0.027123	-0.021351	1.000000	-0.000056	0.000021	0.000017	-0.204433	-8.001612	60.288724
31629	1.353454	-0.034630	9.698060	-0.005086	-0.008125	-0.020583	1.000000	-0.000040	0.000013	0.000025	-0.204028	-8.003106	60.290054
31630	1.366699	-0.061134	9.667413	0.026648	-0.006536	-0.048993	1.000000	-0.000030	0.000013	0.000014	-0.202441	-8.004663	60.289748
31631	1.347481	-0.033949	9.674434	-0.006940	-0.010741	-0.044813	1.000000	-0.000047	0.000009	0.000015	-0.202680	-8.006675	60.289907
31632	1.347097	-0.034872	9.674485	-0.006432	-0.011640	-0.044813	1.000000	-0.000044	0.000031	0.000018	-0.202795	-8.006272	60.291303
31633	1.369933	-0.039811	9.668762	0.009437	0.006290	-0.047283	1.000000	-0.000050	0.000026	0.000017	-0.203499	-8.006380	60.291760
31634	1.332499	-0.011026	9.705316	-0.036583	-0.015946	-0.016400	1.000000	-0.000045	0.000031	0.000008	-0.203364	-8.005917	60.293605
31635	1.368733	-0.041723	9.668924	0.010502	0.004478	-0.047283	1.000000	-0.000049	0.000036	0.000019	-0.203963	-8.004792	60.294223
31636	1.348975	-0.014701	9.676030	-0.023084	0.000278	-0.043093	1.000000	-0.000044	0.000042	0.000009	-0.203874	-8.003015	60.292909
31637	1.371479	-0.019712	9.670361	-0.007214	0.018209	-0.045556	1.000000	-0.000061	0.000049	0.000002	-0.205552	-8.000456	60.291508
31638	1.381732	-0.025222	9.717835	-0.000882	0.018926	0.002901	1.000000	-0.000051	0.000026	0.000008	-0.206190	-8.000495	60.290931
31639	1.375485	-0.023962	9.694254	-0.003256	0.017219	-0.021325	1.000000	-0.000042	0.000052	0.000021	-0.206011	-7.997571	60.291736
31640	1.362318	-0.025353	9.747518	-0.012261	-0.000912	0.029594	1.000000	-0.000050	0.000026	0.000017	-0.206649	-7.997692	60.293101
31641	1.385035	-0.030394	9.741824	0.003613	0.017012	0.027134	1.000000	-0.000055	0.000043	0.000010	-0.207788	-7.995850	60.292708
31642	1.378892	-0.029246	9.718227	0.001249	0.015315	0.002908	1.000000	-0.000049	0.000025	0.000027	-0.208475	-7.995945	60.293395
31643	1.372757	-0.028095	9.694629	-0.001131	0.013617	-0.021318	1.000000	-0.000054	0.000042	0.000020	-0.209643	-7.994151	60.294144
31644	1.405406	-0.011324	9.713852	-0.001116	0.047850	0.002196	1.000000	-0.000044	0.000019	0.000026	-0.209776	-7.995024	60.296876
31645	1.376973	-0.032394	9.718489	0.002831	0.012598	0.002911	1.000000	-0.000061	0.000049	0.000001	-0.211454	-7.992465	60.295471
31646	1.375042	-0.007384	9.696157	-0.018302	0.026429	-0.019566	1.000000	-0.000061	0.000038	0.000010	-0.213199	-7.991147	60.294013
31647	1.345318	-0.002222	9.678367	-0.036034	0.005913	-0.041334	1.000000	-0.000041	0.000052	0.000030	-0.213049	-7.988272	60.295960
31648	1.364434	-0.057435	9.693923	0.020284	-0.006428	-0.023067	1.000000	-0.000059	0.000048	0.000021	-0.214712	-7.985864	60.298627
31649	1.363609	-0.058644	9.694032	0.020809	-0.007328	-0.023069	1.000000	-0.000059	0.000037	0.000030	-0.216585	-7.984684	60.300490
31650	1.361808	-0.033638	9.671690	-0.000340	0.006488	-0.045539	1.000000	-0.000061	0.000038	0.000010	-0.218303	-7.983525	60.303603
31651	1.337708	-0.030766	9.677557	-0.015160	-0.013240	-0.043086	1.000000	-0.000048	0.000036	0.000029	-0.218933	-7.982449	60.305358
31652	1.342304	-0.034050	9.701362	-0.011713	-0.013387	-0.018860	1.000000	-0.000054	0.000053	0.000012	-0.219877	-7.979484	60.308489
31653	1.364698	-0.039162	9.695729	0.004157	0.004544	-0.021311	1.000000	-0.000061	0.000049	0.000001	-0.221555	-7.976924	60.307080
31654	1.363661	-0.040240	9.695870	0.004679	0.003642	-0.021311	1.000000	-0.000047	0.000058	0.000022	-0.221962	-7.973356	60.308540
31655	1.351194	-0.068179	9.771578	0.017391	-0.029302	0.052046	1.000000	-0.000073	0.000050	-0.000008	-0.224853	-7.970644	60.306092
31656	3.243711	1.088271	14.635000	-0.454336	1.584072	5.126281	0.999994	-0.002451	-0.002267	-0.000637	-0.489908	-8.233635	60.227842
31657	-0.948425	-0.817328	-0.084968	0.248424	-1.211435	-10.025913	0.999997	0.001667	0.001309	-0.000748	-0.281157	-8.087308	60.138671
31658	0.423331	-0.666565	13.864765	-0.303542	-1.601520	3.978498	0.999989	-0.004609	-0.000615	0.001060	-0.821386	-8.159671	60.260512
31659	3.319803	-0.030012	10.888410	0.770492	1.560736	1.436746	0.999998	0.001942	-0.000308	0.000075	-0.594861	-8.197962	60.268144
31660	0.778263	0.096030	11.492657	-0.611563	-0.638252	1.672723	0.999999	-0.000002	0.000934	-0.000837	-0.575630	-8.095279	60.177274
31661	0.702420	-1.690974	9.034523	1.092206	-1.296967	-0.751764	1.000000	-0.000804	-0.000372	0.000395	-0.668919	-8.140503	60.221948
31662	1.055439	1.526814	8.900438	-1.501348	0.610528	-0.866408	0.999996	0.002718	-0.000231	-0.000102	-0.350380	-8.170373	60.217749
31663	1.925479	0.342898	13.339651	-0.395530	0.233005	3.661740	0.999997	-0.002557	-0.000355	0.000237	-0.641963	-8.213890	60.243964
31664	1.172724	-2.021533	6.395855	1.809334	-0.755161	-3.291577	1.000000	-0.000672	-0.000177	-0.000108	-0.711639	-8.237497	60.236399
31665	1.381636	1.067902	9.514133	-1.014023	0.581914	-0.210547	0.999998	0.001771	-0.000436	-0.000024	-0.502993	-8.290587	60.232667
31666	1.636083	-0.491411	10.428265	0.394546	-0.093543	0.746787	0.999999	-0.001075	0.000008	-0.000181	-0.617785	-8.292871	60.210172
31667	1.553040	-0.170006	8.565265	0.221101	0.218062	-1.111644	1.000000	0.000686	-0.000244	-0.000016	-0.533549	-8.323941	60.207010
31668	1.782029	0.511431	9.816134	-0.357590	0.599277	0.152586	1.000000	-0.000532	-0.000059	0.000021	-0.589605	-8.333615	60.207940
31669	1.710462	-0.020649	9.678469	0.074685	0.291780	0.011169	1.000000	-0.000125	0.000065	-0.000001	-0.598612	-8.329173	60.206195
31670	1.642993	-0.145914	9.101352	0.200255	0.240708	-0.568377	1.000000	0.000379	0.000140	0.000053	-0.550734	-8.316164	60.210642
31671	1.565913	0.208372	9.684792	-0.187630	0.280755	-0.005716	1.000000	-0.000074	0.000144	0.000097	-0.555481	-8.302569	60.220191
31672	1.360073	-0.710411	9.790369	0.497562	-0.361821	0.078082	1.000000	-0.000390	0.000195	0.000067	-0.595874	-8.283289	60.226243
31673	1.405093	-0.054599	9.847275	-0.054540	-0.000365	0.134328	1.000000	0.000073	0.000085	0.000047	-0.582938	-8.276608	60.230090
31674	1.146971	0.157761	10.005183	-0.375934	-0.135384	0.251331	1.000000	0.000047	0.000077	0.000018	-0.572527	-8.270863	60.230568
31675	1.247644	-0.210865	9.640922	0.024060	-0.189342	-0.090957	1.000000	0.000034	0.000004	-0.000042	-0.562644	-8.273483	60.224163
31676	1.277654	-0.079869	9.874140	-0.092130	-0.128327	0.142837	1.000000	0.000092	-0.000059	0.000035	-0.547380	-8.283202	60.226731
31677	1.316204	0.026728	10.052617	-0.180091	-0.065472	0.323954	1.000000	-0.000099	-0.000059	0.000039	-0.554002	-8.292923	60.229745
31678	1.297749	-0.414345	9.558111	0.231166	-0.242227	-0.163791	1.000000	-0.000108	-0.000055	-0.000040	-0.560351	-8.302234	60.223587
31679	1.225539	0.006813	9.795185	-0.189313	-0.125059	0.056262	1.000000	0.000043	-0.000097	0.000023	-0.550433	-8.316437	60.224773
31680	1.591001	-0.012896	9.429991	0.036081	0.220786	-0.252032	1.000000	-0.000071	-0.000086	-0.000028	-0.552777	-8.329257	60.220128
31681	1.403579	-0.188559	9.607397	0.081695	-0.050648	-0.101950	1.000000	0.000016	-0.000022	-0.000035	-0.545051	-8.334851	60.214616
31682	1.348065	0.166881	9.657155	-0.257137	0.071491	-0.064121	1.000000	0.000002	0.000006	-0.000029	-0.538956	-8.337157	60.209666
31683	1.463984	-0.021568	9.534792	-0.026783	0.091731	-0.166609	1.000000	-0.000076	0.000029	-0.000020	-0.542015	-8.336884	60.205756
31684	1.475046	-0.092890	9.424088	0.048860	0.079162	-0.273863	1.000000	-0.000070	0.000000	0.000005	-0.544805	-8.339844	60.204807
31685	1.517523	0.010054	9.626488	-0.036074	0.142632	-0.068427	1.000000	-0.000057	0.000058	0.000033	-0.546482	-8.336206	60.207008
31686	1.447467	-0.006394	9.666576	-0.059848	0.070409	-0.038775	1.000000	-0.000109	0.000062	0.000047	-0.554395	-8.332074	60.210869
31687	1.463301	-0.210344	9.666931	0.124395	-0.016243	-0.034174	1.000000	-0.000077	0.000093	0.000019	-0.558179	-8.324433	60.211477
31688	1.538532	0.045782	9.701055	-0.063116	0.173037	0.007991	1.000000	-0.000042	0.000090	0.000036	-0.558194	-8.317249	60.216266
31689	1.469290	-0.094019	9.727963	0.022251	0.042060	0.025944	1.000000	-0.000082	0.000099	0.000021	-0.562547	-8.308938	60.217005
31690	1.413952	-0.090845	9.816850	-0.014337	-0.013308	0.105865	1.000000	-0.000026	0.000094	0.000036	-0.560678	-8.301317	60.221735
31691	1.342830	-0.008965	9.892384	-0.125506	-0.041656	0.169550	1.000000	-0.000038	0.000095	0.000027	-0.560087	-8.293467	60.223199
31692	1.220905	-0.209046	9.849610	-0.008100	-0.240094	0.111597	1.000000	-0.000052	0.000041	0.000040	-0.561286	-8.291783	60.226640
31693	1.308413	-0.223069	9.802462	0.050819	-0.166338	0.077698	1.000000	-0.000030	0.000002	0.000022	-0.559749	-8.294626	60.227705
31694	1.313957	-0.096345	9.738881	-0.051357	-0.091721	0.014343	1.000000	-0.000025	-0.000030	-0.000003	-0.557182	-8.301157	60.226446
31695	1.272751	-0.162538	9.716550	-0.012874	-0.158686	-0.013080	1.000000	-0.000045	-0.000056	-0.000015	-0.556736	-8.310595	60.223228
31696	1.362811	-0.105393	9.726803	-0.019616	-0.055843	0.009510	1.000000	-0.000016	-0.000075	0.000010	-0.553413	-8.322206	60.222710
31697	1.410713	0.015759	9.627649	-0.094104	0.055804	-0.082836	1.000000	-0.000066	-0.000076	0.000003	-0.555734	-8.334001	60.221662
31698	1.470477	-0.192852	9.591957	0.117846	0.006154	-0.107471	1.000000	-0.000057	-0.000062	0.000025	-0.557323	-8.344031	60.223455
31699	1.524433	-0.100882	9.538686	0.068061	0.103654	-0.153224	1.000000	-0.000049	-0.000024	0.000020	-0.557914	-8.349806	60.224267
31700	1.524655	-0.102056	9.538638	0.068583	0.102771	-0.153218	1.000000	-0.000070	0.000000	0.000005	-0.560714	-8.352760	60.223406
31701	1.548730	-0.133693	9.554944	0.106182	0.105869	-0.133280	1.000000	-0.000059	0.000048	0.000021	-0.562460	-8.350310	60.224293
31702	1.549660	-0.090395	9.634939	0.062802	0.119160	-0.054433	1.000000	-0.000047	0.000069	0.000014	-0.562720	-8.345416	60.224182
31703	1.490268	-0.078843	9.599680	0.026673	0.079261	-0.098060	1.000000	-0.000076	0.000093	0.000029	-0.566538	-8.337822	60.225931
31704	1.469717	-0.182094	9.694393	0.098819	0.000101	-0.006326	1.000000	-0.000050	0.000096	0.000018	-0.567159	-8.329826	60.226560
31705	1.410855	-0.099219	9.716857	-0.002947	-0.010776	0.006556	1.000000	-0.000022	0.000099	0.000016	-0.564614	-8.321467	60.226808
31706	1.404670	-0.123831	9.715600	0.016334	-0.027195	0.004660	1.000000	-0.000042	0.000086	-0.000004	-0.564025	-8.314701	60.224531
31707	1.386553	-0.149421	9.767458	0.026252	-0.061150	0.053602	1.000000	-0.000010	0.000060	0.000010	-0.559978	-8.310818	60.224050
31708	1.352098	-0.069845	9.783877	-0.060168	-0.053189	0.064096	1.000000	-0.000004	0.000028	-0.000006	-0.554977	-8.310681	60.221740
31709	1.374852	-0.074067	9.778085	-0.044298	-0.035260	0.061695	1.000000	-0.000030	0.000035	-0.000003	-0.553023	-8.309680	60.219858
31710	1.336404	-0.018815	9.792932	-0.111960	-0.042812	0.070302	1.000000	-0.000020	0.000013	0.000003	-0.550072	-8.311278	60.218635
31711	1.366492	-0.019574	9.710248	-0.089733	-0.007972	-0.007154	1.000000	-0.000025	-0.000004	0.000021	-0.547965	-8.314792	60.219563
31712	1.339932	-0.066873	9.736721	-0.064045	-0.058100	0.015647	1.000000	-0.000048	-0.000002	0.000013	-0.548304	-8.318021	60.219552
31713	1.372579	-0.121031	9.698243	0.001673	-0.052996	-0.017192	1.000000	-0.000043	-0.000019	0.000020	-0.548221	-8.323231	60.220387
31714	1.408275	-0.027481	9.674761	-0.060464	0.026372	-0.036152	1.000000	-0.000049	-0.000013	0.000012	-0.548665	-8.327682	60.220226
31715	1.407510	-0.099267	9.616995	0.005657	-0.003503	-0.092734	1.000000	-0.000054	0.000004	0.000004	-0.549547	-8.330224	60.219201
31716	1.435355	-0.080218	9.612622	0.002774	0.029961	-0.093208	1.000000	-0.000047	-0.000014	0.000031	-0.550055	-8.334772	60.221290
31717	1.460791	-0.041084	9.686602	-0.025197	0.061984	-0.016699	1.000000	-0.000073	0.000005	0.000026	-0.553497	-8.337203	60.222761
31718	1.463901	-0.089320	9.630419	0.022170	0.047639	-0.071373	1.000000	-0.000073	0.000039	0.000001	-0.556502	-8.335752	60.221307
31719	1.519730	-0.076888	9.643964	0.037635	0.100559	-0.050003	1.000000	-0.000048	0.000047	0.000020	-0.557003	-8.333407	60.222085
31720	1.430634	-0.064767	9.691280	-0.020202	0.024926	-0.016219	1.000000	-0.000048	0.000070	0.000004	-0.557193	-8.328475	60.220847
31721	1.471586	-0.097532	9.678192	0.029760	0.046185	-0.022924	1.000000	-0.000053	0.000075	0.000005	-0.557985	-8.322895	60.219795
31722	1.405477	-0.089235	9.719665	-0.012733	-0.010616	0.008460	1.000000	-0.000036	0.000079	0.000004	-0.556837	-8.316836	60.218616
31723	1.386160	-0.088699	9.749381	-0.024540	-0.029745	0.035066	1.000000	-0.000049	0.000070	-0.000006	-0.557023	-8.311876	60.216284
31724	1.356087	-0.083166	9.731756	-0.042365	-0.050103	0.013231	1.000000	-0.000042	0.000052	0.000021	-0.556826	-8.308946	60.217085
31725	1.341746	-0.058783	9.762934	-0.072919	-0.053720	0.041774	1.000000	-0.000049	0.000036	0.000019	-0.557432	-8.307835	60.217695
31726	1.361254	-0.114082	9.777682	-0.016529	-0.066210	0.059720	1.000000	-0.000037	0.000024	0.000036	-0.556942	-8.308129	60.220361
31727	1.355521	-0.112535	9.754053	-0.019018	-0.067726	0.035496	1.000000	-0.000060	-0.000000	0.000004	-0.558499	-8.311236	60.219299
31728	1.379132	-0.117530	9.748147	-0.003140	-0.049789	0.033109	1.000000	-0.000049	-0.000024	0.000020	-0.559068	-8.316966	60.220058
31729	1.374037	-0.115923	9.724430	-0.005632	-0.051298	0.008885	1.000000	-0.000044	-0.000018	0.000010	-0.558950	-8.322128	60.219742
31730	1.433445	-0.123563	9.659490	0.034893	0.003122	-0.046698	1.000000	-0.000060	-0.000012	0.000012	-0.560633	-8.326465	60.219649
31731	1.462723	-0.131072	9.677200	0.053783	0.021658	-0.024860	1.000000	-0.000044	-0.000030	0.000019	-0.560655	-8.332910	60.220313
31732	1.451903	-0.126984	9.629863	0.048267	0.019571	-0.073299	1.000000	-0.000056	0.000009	0.000025	-0.562166	-8.334834	60.221653
31733	1.480447	-0.134545	9.647680	0.067158	0.038104	-0.051458	1.000000	-0.000049	0.000025	0.000027	-0.562912	-8.335006	60.223242
31734	1.507618	-0.115497	9.643471	0.064284	0.071566	-0.051871	1.000000	-0.000051	0.000037	-0.000001	-0.563444	-8.333758	60.221544
31735	1.450161	-0.129852	9.630087	0.049835	0.016882	-0.073301	1.000000	-0.000029	0.000046	-0.000001	-0.561383	-8.331522	60.219825
31736	1.472591	-0.134358	9.624361	0.065705	0.034826	-0.075677	1.000000	-0.000034	0.000052	0.000000	-0.559890	-8.328592	60.218215
31737	1.466862	-0.061733	9.658768	-0.002324	0.062224	-0.043172	1.000000	-0.000027	0.000056	0.000010	-0.557762	-8.325172	60.217805
31738	1.426686	-0.110214	9.738418	0.014091	-0.005643	0.030287	1.000000	-0.000038	0.000058	0.000001	-0.556841	-8.321585	60.216341
31739	1.428870	-0.060471	9.718101	-0.025903	0.023905	0.010019	1.000000	-0.000037	0.000057	0.000011	-0.555958	-8.318061	60.216031
31740	1.405407	-0.083911	9.746178	-0.018946	-0.010778	0.034633	1.000000	-0.000042	0.000063	0.000012	-0.555648	-8.313862	60.215905
31741	1.371066	-0.102203	9.726933	-0.018056	-0.046617	0.010805	1.000000	-0.000040	0.000047	-0.000000	-0.554832	-8.311522	60.214284
31742	1.398248	-0.082944	9.722756	-0.020926	-0.013163	0.010415	1.000000	-0.000042	0.000014	0.000005	-0.554363	-8.312916	60.213296
31743	1.378840	-0.055844	9.730255	-0.054490	-0.017389	0.014769	1.000000	-0.000034	0.000029	0.000017	-0.553154	-8.312578	60.213668
31744	1.374069	-0.080631	9.728704	-0.035219	-0.033810	0.012782	1.000000	-0.000045	0.000008	0.000024	-0.553425	-8.314633	60.214950
31745	1.401685	-0.061528	9.724474	-0.038089	-0.000358	0.012405	1.000000	-0.000045	0.000008	0.000024	-0.553706	-8.316709	60.216236
31746	1.415119	-0.087766	9.693377	-0.006512	0.001499	-0.016169	1.000000	-0.000047	-0.000002	0.000023	-0.554084	-8.319992	60.217357
31747	1.405266	-0.110207	9.668108	0.009711	-0.015483	-0.042381	1.000000	-0.000057	-0.000002	0.000024	-0.555714	-8.323198	60.218577
31748	1.455271	-0.068558	9.635981	0.000405	0.051776	-0.067332	1.000000	-0.000049	0.000010	-0.000005	-0.555877	-8.325098	60.216429
31749	1.432615	-0.092288	9.663911	0.007366	0.017077	-0.042748	1.000000	-0.000061	0.000026	0.000018	-0.557832	-8.325118	60.216967
31750	1.436643	-0.069146	9.665572	-0.010849	0.031697	-0.040744	1.000000	-0.000020	0.000013	0.000003	-0.554870	-8.326715	60.215810
31751	1.454107	-0.071312	9.636136	0.001974	0.049085	-0.067318	1.000000	-0.000067	0.000033	0.000009	-0.557359	-8.326016	60.215334
31752	1.417581	-0.069811	9.695223	-0.022096	0.011608	-0.014160	1.000000	-0.000044	0.000042	0.000009	-0.557235	-8.324273	60.214794
31753	1.430206	-0.096108	9.664230	0.009466	0.013479	-0.042744	1.000000	-0.000060	0.000048	0.000011	-0.558945	-8.321776	60.214516
31754	1.402177	-0.046574	9.726600	-0.052079	0.007026	0.014431	1.000000	-0.000037	0.000057	0.000011	-0.558043	-8.318241	60.214199
31755	1.379841	-0.096729	9.776635	-0.023316	-0.042670	0.061195	1.000000	-0.000054	0.000053	0.000012	-0.559078	-8.315179	60.213953
31756	1.390301	-0.069824	9.701600	-0.035337	-0.010842	-0.011796	1.000000	-0.000044	0.000042	0.000009	-0.558947	-8.313435	60.213403
31757	1.367217	-0.093440	9.729554	-0.028366	-0.045565	0.012757	1.000000	-0.000049	0.000036	0.000019	-0.559553	-8.312326	60.214004
31758	1.372055	-0.097286	9.753281	-0.024778	-0.045933	0.036970	1.000000	-0.000073	0.000028	0.000009	-0.562691	-8.312170	60.213492
31759	1.408607	-0.127529	9.716362	0.022125	-0.025214	0.006019	1.000000	-0.000034	0.000007	0.000033	-0.561765	-8.314401	60.215820
31760	1.395037	-0.103256	9.747482	-0.008369	-0.028905	0.034612	1.000000	-0.000057	-0.000002	0.000024	-0.563368	-8.317574	60.216983
31761	1.403009	-0.126930	9.692705	0.020121	-0.027550	-0.018203	1.000000	-0.000047	0.000009	0.000015	-0.563612	-8.319600	60.217118
31762	1.408394	-0.130622	9.716352	0.023713	-0.027924	0.006008	1.000000	-0.000057	-0.000002	0.000024	-0.565226	-8.322778	60.218328
31763	1.417141	-0.083773	9.719645	-0.013236	0.002210	0.010073	1.000000	-0.000048	0.000009	0.000005	-0.565434	-8.324753	60.217318
31764	1.420695	-0.131269	9.663215	0.033987	-0.011935	-0.044779	1.000000	-0.000049	-0.000001	0.000003	-0.565734	-8.327930	60.216140
31765	1.438390	-0.133420	9.633753	0.046792	0.005484	-0.071346	1.000000	-0.000040	0.000025	0.000016	-0.565200	-8.328158	60.216474
31766	1.447874	-0.113021	9.659102	0.031650	0.020627	-0.045091	1.000000	-0.000054	0.000016	-0.000004	-0.565933	-8.329377	60.214426
31767	1.433982	-0.088505	9.690290	0.001157	0.016922	-0.016485	1.000000	-0.000020	0.000024	-0.000005	-0.562836	-8.329711	60.212272
31768	1.433408	-0.089093	9.690370	0.001685	0.016023	-0.016484	1.000000	-0.000038	0.000035	0.000018	-0.562189	-8.328675	60.212750
31769	1.450640	-0.091144	9.660985	0.014488	0.033449	-0.043042	1.000000	-0.000041	0.000036	-0.000002	-0.561477	-8.327568	60.210959
31770	1.431898	-0.090767	9.690577	0.002738	0.014221	-0.016481	1.000000	-0.000049	0.000047	0.000010	-0.561934	-8.325142	60.210566
31771	1.388579	-0.059933	9.704032	-0.046172	-0.008841	-0.009741	1.000000	-0.000042	0.000052	0.000021	-0.561762	-8.322235	60.211363
31772	1.412222	-0.091132	9.720295	-0.008484	-0.005918	0.010077	1.000000	-0.000021	0.000027	0.000036	-0.559370	-8.322081	60.213904
31773	1.396183	-0.110415	9.671424	0.004622	-0.023346	-0.040410	1.000000	-0.000040	0.000047	-0.000000	-0.558553	-8.319740	60.212278
31774	1.410709	-0.092452	9.720502	-0.007430	-0.007723	0.010077	1.000000	-0.000025	0.000033	0.000037	-0.556744	-8.318912	60.214974
31775	1.386786	-0.089409	9.726393	-0.022255	-0.027468	0.012415	1.000000	-0.000058	0.000022	-0.000003	-0.558054	-8.319498	60.213079
31776	1.398828	-0.089075	9.673327	-0.012536	-0.010521	-0.038352	1.000000	-0.000050	0.000025	0.000017	-0.558751	-8.319597	60.213496
31777	1.409281	-0.095267	9.720682	-0.005849	-0.010436	0.010075	1.000000	-0.000035	0.000019	0.000015	-0.557647	-8.320494	60.213694
31778	1.407885	-0.069476	9.698759	-0.027134	0.003691	-0.012068	1.000000	-0.000046	0.000020	0.000016	-0.557775	-8.321262	60.213987
31779	1.426524	-0.098104	9.691299	0.007473	0.006108	-0.016475	1.000000	-0.000032	0.000014	-0.000006	-0.556026	-8.322725	60.211763
31780	1.430709	-0.075031	9.693009	-0.010728	0.020728	-0.014400	1.000000	-0.000058	0.000010	0.000005	-0.557457	-8.324562	60.210816
31781	1.431282	-0.102738	9.715029	0.011615	0.004789	0.007738	1.000000	-0.000047	0.000035	0.000039	-0.558139	-8.323557	60.213700
31782	1.428764	-0.050301	9.671171	-0.031493	0.033964	-0.036527	1.000000	-0.000034	0.000015	-0.000026	-0.556296	-8.324887	60.209165
31783	1.429286	-0.077728	9.693198	-0.009149	0.018022	-0.014393	1.000000	-0.000048	0.000036	0.000029	-0.556940	-8.323831	60.210904
31784	1.405203	-0.074723	9.699108	-0.023972	-0.001717	-0.012059	1.000000	-0.000040	0.000036	0.000008	-0.556252	-8.322745	60.210250
31785	1.383785	-0.091535	9.626553	-0.013995	-0.019565	-0.086785	1.000000	-0.000049	0.000036	0.000019	-0.556859	-8.321637	60.210843
31786	1.427138	-0.080480	9.693492	-0.007565	0.015318	-0.014387	1.000000	-0.000043	0.000041	0.000019	-0.556766	-8.319940	60.211444
31787	1.398464	-0.101461	9.697719	-0.003663	-0.019945	-0.014149	1.000000	-0.000049	0.000047	0.000010	-0.557230	-8.317546	60.211058
31788	1.407653	-0.081259	9.723160	-0.018765	-0.004857	0.012157	1.000000	-0.000056	0.000021	0.000017	-0.558591	-8.318207	60.211422
31789	1.408189	-0.109196	9.745159	0.003587	-0.020818	0.034272	1.000000	-0.000071	0.000027	0.000029	-0.561829	-8.318177	60.213185
31790	1.402248	-0.107744	9.721569	0.001020	-0.022185	0.010057	1.000000	-0.000051	0.000026	0.000007	-0.562485	-8.318213	60.212448
31791	1.368568	-0.126067	9.702064	0.001820	-0.057912	-0.013935	1.000000	-0.000044	0.000019	0.000026	-0.562663	-8.319060	60.213885
31792	1.424754	-0.113610	9.715867	0.017429	-0.005153	0.007729	1.000000	-0.000051	0.000026	0.000007	-0.563318	-8.319105	60.213146
31793	1.391071	-0.131924	9.696357	0.018226	-0.040875	-0.016269	1.000000	-0.000046	0.000020	0.000016	-0.563459	-8.319900	60.213438
31794	1.394113	-0.082357	9.676192	-0.021804	-0.011188	-0.036265	1.000000	-0.000057	0.000021	0.000007	-0.564791	-8.320509	60.212661
31795	1.442430	-0.144340	9.708493	0.053090	-0.004547	0.003291	1.000000	-0.000030	0.000024	0.000006	-0.562975	-8.320790	60.211746
31796	1.422159	-0.090604	9.694135	-0.002293	0.006304	-0.014374	1.000000	-0.000047	0.000009	0.000014	-0.563208	-8.322783	60.211848
31797	1.435480	-0.116527	9.662977	0.029203	0.008272	-0.043021	1.000000	-0.000032	0.000014	-0.000006	-0.561458	-8.324244	60.209621
31798	1.445056	-0.096121	9.688388	0.014115	0.023343	-0.016691	1.000000	-0.000049	0.000014	0.000035	-0.562337	-8.325669	60.212138
31799	1.416852	-0.117086	9.692507	0.018011	-0.011921	-0.016494	1.000000	-0.000042	0.000026	-0.000003	-0.561728	-8.325794	60.210174
31800	1.444190	-0.097860	9.688500	0.015167	0.021540	-0.016689	1.000000	-0.000038	0.000024	0.000026	-0.561224	-8.326052	60.211634
31801	1.414857	-0.092100	9.670720	-0.002775	0.001358	-0.038583	1.000000	-0.000044	0.000030	0.000018	-0.561261	-8.325614	60.212091
31802	1.419573	-0.095719	9.694464	0.000866	0.000896	-0.014372	1.000000	-0.000043	0.000041	0.000019	-0.561179	-8.323921	60.212688
31803	1.437846	-0.124374	9.687016	0.035469	0.003311	-0.018817	1.000000	-0.000033	0.000029	0.000027	-0.560009	-8.323640	60.214193
31804	1.428140	-0.076210	9.720029	-0.013688	0.015045	0.011973	1.000000	-0.000056	0.000032	0.000008	-0.561247	-8.323023	60.213593
31805	1.412457	-0.095572	9.671037	-0.000676	-0.002240	-0.038582	1.000000	-0.000030	0.000013	0.000014	-0.559573	-8.324590	60.213655
31806	1.393888	-0.095081	9.700563	-0.012385	-0.021550	-0.012062	1.000000	-0.000040	0.000047	-0.000000	-0.558751	-8.322222	60.212016
31807	1.416635	-0.099842	9.694853	0.003494	-0.003614	-0.014373	1.000000	-0.000044	0.000019	0.000026	-0.558930	-8.323070	60.213448
31808	1.391851	-0.070019	9.678801	-0.033178	-0.008253	-0.034130	1.000000	-0.000031	0.000025	-0.000004	-0.557072	-8.323265	60.211379
31809	1.420218	-0.077312	9.696717	-0.014176	0.010107	-0.012228	1.000000	-0.000036	0.000019	0.000005	-0.555931	-8.324111	60.210426
31810	1.386606	-0.095427	9.677151	-0.013407	-0.025574	-0.036277	1.000000	-0.000047	0.000020	0.000006	-0.556023	-8.324831	60.209553
31811	1.424788	-0.081728	9.720476	-0.009997	0.008718	0.011985	1.000000	-0.000042	0.000026	-0.000003	-0.555413	-8.324955	60.207586
31812	1.419050	-0.079973	9.696866	-0.012595	0.007406	-0.012223	1.000000	-0.000056	0.000009	0.000025	-0.556940	-8.326889	60.208943
31813	1.446438	-0.061025	9.692895	-0.015436	0.040865	-0.012371	1.000000	-0.000049	0.000036	0.000019	-0.557548	-8.325782	60.209528
31814	1.399051	-0.054111	9.704558	-0.045619	0.002284	-0.007759	1.000000	-0.000042	0.000026	-0.000003	-0.556929	-8.325889	60.207557
31815	1.412016	-0.080123	9.673430	-0.014151	0.004292	-0.036429	1.000000	-0.000048	0.000036	0.000029	-0.557575	-8.324836	60.209286
31816	1.416771	-0.083836	9.697167	-0.010490	0.003799	-0.012219	1.000000	-0.000043	0.000030	0.000027	-0.557641	-8.324419	60.210874
31817	1.421469	-0.087493	9.720912	-0.006831	0.003298	0.011991	1.000000	-0.000043	0.000041	0.000019	-0.557574	-8.322749	60.211495
31818	1.391976	-0.081835	9.703139	-0.024792	-0.016844	-0.009917	1.000000	-0.000056	0.000032	0.000008	-0.558798	-8.322119	60.210878
31819	1.409331	-0.083945	9.673789	-0.012048	0.000696	-0.036425	1.000000	-0.000038	0.000035	0.000018	-0.558161	-8.321117	60.211366
31820	1.386249	-0.107591	9.701527	-0.005018	-0.034168	-0.012091	1.000000	-0.000042	0.000029	0.000037	-0.558257	-8.320747	60.214089
31821	1.437038	-0.092560	9.691799	0.007501	0.018131	-0.014513	1.000000	-0.000063	0.000016	0.000006	-0.560278	-8.321948	60.213285
31822	1.389729	-0.085856	9.703426	-0.022683	-0.020449	-0.009919	1.000000	-0.000051	0.000037	-0.000001	-0.560792	-8.320709	60.211561
31823	1.389115	-0.086863	9.703506	-0.022159	-0.021352	-0.009920	1.000000	-0.000051	0.000026	0.000007	-0.561465	-8.320781	60.210829
31824	1.402289	-0.112975	9.672329	0.009301	-0.019319	-0.038606	1.000000	-0.000051	0.000015	0.000016	-0.562270	-8.322098	60.211068
31825	1.412659	-0.119441	9.719679	0.016114	-0.019452	0.009807	1.000000	-0.000041	0.000025	0.000006	-0.561699	-8.322275	60.210242
31826	1.411290	-0.093598	9.697876	-0.005217	-0.005212	-0.012215	1.000000	-0.000046	0.000020	0.000016	-0.561822	-8.323027	60.210501
31827	1.401131	-0.115746	9.672464	0.010876	-0.022017	-0.038613	1.000000	-0.000051	0.000015	0.000016	-0.562638	-8.324386	60.210745
31828	1.400692	-0.116719	9.672516	0.011405	-0.022914	-0.038616	1.000000	-0.000044	0.000030	0.000017	-0.562658	-8.323909	60.211172
31829	1.437923	-0.076403	9.694053	-0.006996	0.026446	-0.012311	1.000000	-0.000042	0.000014	0.000005	-0.562190	-8.325319	60.210177
31830	1.404323	-0.094573	9.674419	-0.006262	-0.009191	-0.036424	1.000000	-0.000049	0.000025	0.000027	-0.562933	-8.325482	60.211722
31831	1.385812	-0.094364	9.703908	-0.017944	-0.028561	-0.009929	1.000000	-0.000041	0.000025	0.000006	-0.562361	-8.325658	60.210895
31832	1.408773	-0.099144	9.698187	-0.002056	-0.010621	-0.012218	1.000000	-0.000046	0.000020	0.000016	-0.562482	-8.326416	60.211148
31833	1.431790	-0.103876	9.692461	0.013827	0.007316	-0.014506	1.000000	-0.000036	0.000019	0.000005	-0.561340	-8.327261	60.210190
31834	1.407862	-0.100718	9.698303	-0.001003	-0.012421	-0.012220	1.000000	-0.000038	0.000035	0.000018	-0.560704	-8.326219	60.210677
31835	1.401968	-0.098682	9.674720	-0.003637	-0.013685	-0.036428	1.000000	-0.000035	0.000019	0.000015	-0.559601	-8.327119	60.210863
31836	1.430354	-0.106208	9.692647	0.015411	0.004616	-0.014507	1.000000	-0.000047	0.000020	0.000006	-0.559678	-8.327821	60.209962
31837	1.416328	-0.082019	9.723948	-0.014976	0.000753	0.014196	1.000000	-0.000042	0.000026	-0.000004	-0.559067	-8.327943	60.207989
31838	1.433860	-0.084043	9.694591	-0.002248	0.018335	-0.012291	1.000000	-0.000051	0.000026	0.000007	-0.559720	-8.327988	60.207225
31839	1.409879	-0.080937	9.700439	-0.017082	-0.001408	-0.010008	1.000000	-0.000027	0.000034	0.000027	-0.557878	-8.327146	60.208761
31840	1.422937	-0.106738	9.669261	0.014353	0.000661	-0.038715	1.000000	-0.000047	0.000020	0.000006	-0.557975	-8.327851	60.207888
31841	1.418669	-0.061479	9.726056	-0.031575	0.012662	0.016423	1.000000	-0.000046	0.000031	0.000008	-0.557973	-8.327360	60.207189
31842	1.436116	-0.063385	9.696720	-0.018855	0.030257	-0.010058	1.000000	-0.000035	0.000030	0.000007	-0.556739	-8.326937	60.206413
31843	1.431118	-0.088175	9.694960	0.000381	0.013830	-0.012283	1.000000	-0.000051	0.000026	0.000007	-0.557411	-8.327009	60.205676
31844	1.435024	-0.065206	9.696869	-0.017804	0.028454	-0.010050	1.000000	-0.000044	0.000030	0.000017	-0.557452	-8.326551	60.206127
31845	1.406722	-0.086199	9.700852	-0.013928	-0.006813	-0.010005	1.000000	-0.000054	0.000016	-0.000004	-0.558189	-8.327800	60.204075
31846	1.428826	-0.064390	9.673328	-0.019921	0.026318	-0.034248	1.000000	-0.000049	0.000025	0.000027	-0.558936	-8.327935	60.205628
31847	1.428251	-0.065198	9.673407	-0.019397	0.025417	-0.034245	1.000000	-0.000028	0.000034	0.000017	-0.557055	-8.327038	60.206019
31848	1.423153	-0.089980	9.671649	-0.000157	0.008994	-0.036483	1.000000	-0.000056	0.000032	0.000008	-0.558267	-8.326411	60.205381
31849	1.427946	-0.093872	9.695374	0.003542	0.008423	-0.012278	1.000000	-0.000050	0.000025	0.000017	-0.558980	-8.326538	60.205786
31850	1.403945	-0.090976	9.701210	-0.011288	-0.011316	-0.010006	1.000000	-0.000049	0.000036	0.000019	-0.559569	-8.325393	60.206348
31851	1.403239	-0.091871	9.701304	-0.010763	-0.012219	-0.010006	1.000000	-0.000041	0.000036	-0.000002	-0.558853	-8.324281	60.204540
31852	1.387440	-0.111096	9.652225	0.002111	-0.029290	-0.060666	1.000000	-0.000054	0.000031	0.000028	-0.560169	-8.323783	60.206215
31853	1.421089	-0.121649	9.693829	0.024356	-0.010709	-0.014530	1.000000	-0.000042	0.000014	0.000005	-0.559702	-8.325192	60.205213
31854	1.419710	-0.095906	9.672098	0.002994	0.003598	-0.036480	1.000000	-0.000059	0.000036	0.000029	-0.561584	-8.324007	60.207015
31855	1.405571	-0.071870	9.703439	-0.027367	-0.000303	-0.007751	1.000000	-0.000035	0.000019	0.000015	-0.560482	-8.324908	60.207196
31856	1.424034	-0.100529	9.695883	0.007235	0.002112	-0.012276	1.000000	-0.000044	0.000030	0.000017	-0.560483	-8.324433	60.207601
31857	1.413634	-0.122632	9.670437	0.023279	-0.014627	-0.038743	1.000000	-0.000055	0.000031	0.000018	-0.561766	-8.323893	60.208134
31858	1.404866	-0.101499	9.725426	-0.003884	-0.018221	0.014190	1.000000	-0.000047	0.000020	0.000006	-0.561853	-8.324590	60.207250
31859	1.393708	-0.096724	9.678181	-0.009737	-0.019740	-0.034217	1.000000	-0.000043	0.000030	0.000027	-0.561931	-8.324210	60.208836
31860	1.426421	-0.080478	9.698024	-0.009360	0.014031	-0.010007	1.000000	-0.000047	0.000020	0.000006	-0.562006	-8.324917	60.207932
31861	1.421508	-0.105377	9.696202	0.009870	-0.002397	-0.012279	1.000000	-0.000051	0.000026	0.000007	-0.562678	-8.324989	60.207189
31862	1.411120	-0.127361	9.670743	0.025909	-0.019121	-0.038757	1.000000	-0.000037	0.000035	0.000028	-0.562079	-8.324014	60.208812
31863	1.415099	-0.104351	9.672687	0.007727	-0.004497	-0.036483	1.000000	-0.000053	0.000015	0.000006	-0.562856	-8.325318	60.207899
31864	1.414608	-0.105265	9.672749	0.008255	-0.005397	-0.036483	1.000000	-0.000039	0.000035	0.000018	-0.562199	-8.324294	60.208352
31865	1.400407	-0.081193	9.704112	-0.022090	-0.009320	-0.007742	1.000000	-0.000050	0.000025	0.000017	-0.562911	-8.324422	60.208752
31866	1.446723	-0.089941	9.692689	0.009168	0.027458	-0.012255	1.000000	-0.000041	0.000025	0.000006	-0.562300	-8.324565	60.207871
31867	1.418425	-0.110716	9.696594	0.013033	-0.007810	-0.012285	1.000000	-0.000035	0.000019	0.000015	-0.561198	-8.325466	60.208050
31868	1.393810	-0.080729	9.680622	-0.023703	-0.012313	-0.031943	1.000000	-0.000033	0.000018	0.000035	-0.560152	-8.326455	60.210486
31869	1.437229	-0.070094	9.747793	-0.016912	0.022003	0.040700	1.000000	-0.000042	0.000026	-0.000004	-0.559539	-8.326575	60.208505
31870	1.393545	-0.109080	9.702523	-0.000747	-0.029356	-0.010037	1.000000	-0.000037	0.000046	0.000019	-0.558785	-8.324318	60.209136
31871	1.392900	-0.109931	9.702606	-0.000223	-0.030259	-0.010040	1.000000	-0.000047	0.000020	0.000006	-0.558887	-8.325059	60.208260
31872	1.448319	-0.070790	9.694976	-0.006365	0.037573	-0.009945	1.000000	-0.000041	0.000014	0.000015	-0.558432	-8.326465	60.208377
31873	1.414692	-0.088788	9.675212	-0.005710	0.002030	-0.034194	1.000000	-0.000046	0.000031	0.000007	-0.558430	-8.325973	60.207670
31874	1.414196	-0.089700	9.675276	-0.005182	0.001134	-0.034194	1.000000	-0.000047	0.000020	0.000006	-0.558521	-8.326674	60.206782
31875	1.423548	-0.069524	9.700897	-0.020149	0.016028	-0.007686	1.000000	-0.000040	0.000025	0.000016	-0.557990	-8.326907	60.207089
31876	1.404077	-0.042655	9.708618	-0.053681	0.011811	-0.003126	1.000000	-0.000054	0.000031	0.000028	-0.559282	-8.326394	60.208728
31877	1.412677	-0.092498	9.675472	-0.003605	-0.001568	-0.034193	1.000000	-0.000042	0.000026	-0.000004	-0.558669	-8.326514	60.206745
31878	1.422797	-0.099186	9.722843	0.003352	-0.001939	0.014207	1.000000	-0.000051	0.000026	0.000007	-0.559318	-8.326553	60.205974
31879	1.416060	-0.070391	9.677535	-0.021251	0.012158	-0.031877	1.000000	-0.000037	0.000035	0.000028	-0.558723	-8.325611	60.207594
31880	1.421619	-0.100908	9.722998	0.004409	-0.003745	0.014206	1.000000	-0.000041	0.000025	0.000006	-0.558143	-8.325744	60.206760
31881	1.410453	-0.096078	9.675761	-0.001501	-0.005164	-0.034194	1.000000	-0.000056	0.000032	0.000008	-0.559385	-8.325148	60.206140
31882	1.419628	-0.076065	9.701422	-0.016449	0.009715	-0.007671	1.000000	-0.000044	0.000030	0.000017	-0.559384	-8.324688	60.206531
31883	1.414765	-0.100913	9.699540	0.002774	-0.006714	-0.009996	1.000000	-0.000048	0.000009	0.000004	-0.559591	-8.326660	60.205481
31884	1.436859	-0.078924	9.672154	-0.003249	0.026500	-0.034107	1.000000	-0.000042	0.000040	0.000029	-0.559536	-8.325017	60.207199
31885	1.379613	-0.093279	9.658104	-0.017982	-0.027854	-0.056156	1.000000	-0.000071	0.000027	0.000028	-0.562778	-8.324994	60.208916
31886	1.417603	-0.080115	9.701685	-0.014334	0.006105	-0.007665	1.000000	-0.000030	0.000024	0.000005	-0.560921	-8.325243	60.207945
31887	1.417934	-0.107756	9.723462	0.008113	-0.010081	0.014199	1.000000	-0.000051	0.000026	0.000007	-0.561593	-8.325314	60.207193
31888	1.416662	-0.082002	9.701807	-0.013280	0.004301	-0.007662	1.000000	-0.000056	0.000020	0.000017	-0.562969	-8.325978	60.207537
31889	1.435199	-0.110875	9.694185	0.021306	0.006712	-0.012238	1.000000	-0.000046	0.000020	0.000016	-0.563111	-8.326775	60.207799
31890	1.410532	-0.081091	9.678258	-0.015457	0.002261	-0.031858	1.000000	-0.000051	0.000026	0.000007	-0.563779	-8.326818	60.207047
31891	1.406325	-0.132710	9.698080	0.025687	-0.029457	-0.012351	1.000000	-0.000034	0.000029	0.000017	-0.562573	-8.326489	60.207390
31892	1.410305	-0.109812	9.700093	0.007522	-0.014835	-0.010007	1.000000	-0.000068	0.000022	0.000007	-0.565139	-8.327003	60.206653
31893	1.432451	-0.087963	9.672729	0.001484	0.018398	-0.034088	1.000000	-0.000040	0.000024	0.000016	-0.564607	-8.327237	60.206955
31894	1.427496	-0.112587	9.670834	0.020707	0.001975	-0.036440	1.000000	-0.000030	0.000024	0.000005	-0.562775	-8.327481	60.206013
31895	1.385436	-0.108433	9.705995	-0.006266	-0.036382	-0.007782	1.000000	-0.000044	0.000030	0.000017	-0.562813	-8.327046	60.206445
31896	1.442288	-0.122994	9.741934	0.031469	0.000842	0.036151	1.000000	-0.000041	0.000025	0.000006	-0.562232	-8.327204	60.205580
31897	1.407015	-0.087278	9.678716	-0.011780	-0.004041	-0.031854	1.000000	-0.000049	0.000025	0.000027	-0.562987	-8.327392	60.207115
31898	1.402045	-0.112114	9.676811	0.007437	-0.020463	-0.034217	1.000000	-0.000041	0.000025	0.000006	-0.562426	-8.327538	60.206283
31899	1.406047	-0.089006	9.678841	-0.010732	-0.005839	-0.031854	1.000000	-0.000040	0.000024	0.000016	-0.561895	-8.327772	60.206584
31900	1.420562	-0.071832	9.728191	-0.022412	0.009212	0.018908	1.000000	-0.000044	0.000030	0.000017	-0.561912	-8.327337	60.206975
31901	1.377088	-0.110617	9.682720	-0.006358	-0.042009	-0.031999	1.000000	-0.000030	0.000024	0.000005	-0.560095	-8.327618	60.206043
31902	1.433186	-0.098289	9.696985	0.009459	0.010506	-0.009881	1.000000	-0.000051	0.000026	0.000007	-0.560743	-8.327665	60.205258
31903	1.427369	-0.096202	9.673402	0.006737	0.009396	-0.034077	1.000000	-0.000034	0.000029	0.000017	-0.559538	-8.327336	60.205600
31904	1.413991	-0.098941	9.726490	-0.001609	-0.009932	0.016538	1.000000	-0.000039	0.000024	0.000026	-0.559052	-8.327598	60.207046
31905	1.412724	-0.072890	9.704880	-0.023023	0.004486	-0.005279	1.000000	-0.000041	0.000025	0.000006	-0.558479	-8.327774	60.206201
31906	1.430426	-0.074726	9.675574	-0.010379	0.022222	-0.031694	1.000000	-0.000046	0.000020	0.000016	-0.558611	-8.328572	60.206427
31907	1.440582	-0.081670	9.722931	-0.003351	0.021716	0.016700	1.000000	-0.000056	0.000020	0.000016	-0.559999	-8.329265	60.206772
31908	1.406902	-0.099728	9.703061	-0.002753	-0.013756	-0.007662	1.000000	-0.000047	0.000032	-0.000002	-0.559920	-8.328726	60.204858
31909	1.411637	-0.103552	9.726784	0.001026	-0.014467	0.016532	1.000000	-0.000037	0.000023	0.000036	-0.559472	-8.329078	60.207445
31910	1.433791	-0.081412	9.699480	-0.005025	0.018809	-0.007489	1.000000	-0.000042	0.000026	-0.000004	-0.558878	-8.329165	60.205472
31911	1.409831	-0.078457	9.705258	-0.019868	-0.000935	-0.005271	1.000000	-0.000054	0.000031	0.000028	-0.560203	-8.328686	60.207131
31912	1.412359	-0.098409	9.626670	0.004948	0.000919	-0.082467	1.000000	-0.000044	0.000030	0.000017	-0.560199	-8.328204	60.207527
31913	1.418444	-0.059500	9.731064	-0.034236	0.012972	0.021325	1.000000	-0.000051	0.000026	0.000007	-0.560871	-8.328275	60.206767
31914	1.408243	-0.081417	9.705464	-0.018272	-0.003640	-0.005269	1.000000	-0.000046	0.000020	0.000016	-0.560965	-8.329028	60.206990
31915	1.402542	-0.079420	9.681865	-0.021010	-0.004723	-0.029463	1.000000	-0.000050	0.000025	0.000017	-0.561679	-8.329158	60.207373
31916	1.408040	-0.110151	9.727233	0.004728	-0.020793	0.016520	1.000000	-0.000033	0.000029	0.000026	-0.560523	-8.328868	60.208860
31917	1.430153	-0.088047	9.699959	-0.001328	0.012493	-0.007478	1.000000	-0.000051	0.000026	0.000007	-0.561194	-8.328939	60.208099
31918	1.396489	-0.106081	9.680053	-0.000747	-0.022946	-0.031873	1.000000	-0.000049	0.000025	0.000027	-0.561931	-8.329089	60.209614
31919	1.423956	-0.087063	9.676425	-0.003540	0.010519	-0.031669	1.000000	-0.000048	0.000021	-0.000004	-0.561991	-8.329769	60.207579
31920	1.395597	-0.108020	9.680160	0.000301	-0.024749	-0.031877	1.000000	-0.000050	0.000025	0.000017	-0.562697	-8.329893	60.207939
31921	1.403996	-0.061104	9.684280	-0.036545	0.005403	-0.027042	1.000000	-0.000040	0.000036	0.000008	-0.562019	-8.328837	60.207262
31922	1.427576	-0.092838	9.700294	0.001310	0.007978	-0.007473	1.000000	-0.000049	0.000025	0.000027	-0.562747	-8.329011	60.208753
31923	1.408807	-0.092923	9.729721	-0.010263	-0.011604	0.018926	1.000000	-0.000051	0.000037	-0.000001	-0.563272	-8.327791	60.207017
31924	1.422678	-0.145524	9.720039	0.043006	-0.024720	0.011868	1.000000	-0.000035	0.000019	0.000015	-0.562154	-8.328661	60.207165
31925	1.402589	-0.091553	9.706192	-0.012481	-0.013569	-0.005269	1.000000	-0.000040	0.000024	0.000016	-0.561624	-8.328897	60.207460
31926	1.402111	-0.092368	9.706253	-0.011959	-0.014469	-0.005269	1.000000	-0.000040	0.000024	0.000016	-0.561118	-8.329116	60.207761
31927	1.425034	-0.097207	9.700625	0.003937	0.003468	-0.007471	1.000000	-0.000051	0.000026	0.000007	-0.561789	-8.329187	60.206997
31928	1.414692	-0.119020	9.675011	0.019873	-0.013107	-0.034099	1.000000	-0.000039	0.000035	0.000018	-0.561129	-8.328138	60.207447
31929	1.399641	-0.068133	9.684864	-0.032339	-0.001795	-0.027026	1.000000	-0.000044	0.000030	0.000017	-0.561169	-8.327705	60.207869
31930	1.423311	-0.099891	9.700850	0.005525	0.000769	-0.007471	1.000000	-0.000046	0.000020	0.000016	-0.561305	-8.328452	60.208121
31931	1.423032	-0.100829	9.700882	0.006049	-0.000135	-0.007472	1.000000	-0.000047	0.000009	0.000014	-0.561553	-8.330482	60.208199
31932	1.417301	-0.098733	9.677290	0.003289	-0.001177	-0.031664	1.000000	-0.000044	0.000042	0.000009	-0.561459	-8.328744	60.207647
31933	1.415910	-0.072761	9.655773	-0.018154	0.013310	-0.053408	1.000000	-0.000051	0.000026	0.000007	-0.562130	-8.328815	60.206881
31934	1.397977	-0.099584	9.706778	-0.007745	-0.021679	-0.005278	1.000000	-0.000030	0.000024	0.000005	-0.560306	-8.329063	60.205935
31935	1.420179	-0.077392	9.679557	-0.013817	0.011650	-0.029212	1.000000	-0.000050	0.000025	0.000017	-0.561020	-8.329194	60.206313
31936	1.424914	-0.081435	9.703276	-0.009996	0.010882	-0.005019	1.000000	-0.000051	0.000026	0.000007	-0.561654	-8.329230	60.205511
31937	1.419874	-0.106205	9.701287	0.009209	-0.005549	-0.007476	1.000000	-0.000033	0.000029	0.000026	-0.560492	-8.328963	60.206990
31938	1.418631	-0.079926	9.679763	-0.012236	0.008953	-0.029207	1.000000	-0.000030	0.000024	0.000005	-0.558680	-8.329210	60.206053
31939	1.433006	-0.062874	9.729215	-0.023804	0.023828	0.021638	1.000000	-0.000050	0.000037	0.000008	-0.559247	-8.328049	60.205456
31940	1.446148	-0.088535	9.697890	0.007480	0.026118	-0.007203	1.000000	-0.000035	0.000019	0.000015	-0.558155	-8.328919	60.205618
31941	1.417675	-0.109482	9.701572	0.011311	-0.009153	-0.007481	1.000000	-0.000061	0.000038	0.000009	-0.559967	-8.327652	60.205106
31942	1.420862	-0.059542	9.682138	-0.028815	0.020886	-0.026732	1.000000	-0.000030	0.000024	0.000005	-0.558158	-8.327890	60.204173
31943	1.421083	-0.087396	9.703786	-0.006315	0.004574	-0.005011	1.000000	-0.000062	0.000027	0.000008	-0.560074	-8.327855	60.203488
31944	1.415909	-0.112359	9.701797	0.012896	-0.011851	-0.007485	1.000000	-0.000044	0.000042	0.000009	-0.559937	-8.326070	60.202923
31945	1.424272	-0.065507	9.706040	-0.023932	0.018300	-0.002533	1.000000	-0.000050	0.000025	0.000017	-0.560652	-8.326201	60.203297
31946	1.400357	-0.062610	9.711778	-0.038772	-0.001442	-0.000346	1.000000	-0.000050	0.000025	0.000017	-0.561331	-8.326299	60.203633
31947	1.414276	-0.115265	9.702001	0.014478	-0.014560	-0.007491	1.000000	-0.000039	0.000024	0.000026	-0.560844	-8.326596	60.205066
31948	1.413029	-0.089173	9.680502	-0.006968	-0.000045	-0.029198	1.000000	-0.000047	0.000032	-0.000003	-0.560736	-8.326030	60.203129
31949	1.417697	-0.093188	9.704227	-0.003138	-0.000844	-0.005009	1.000000	-0.000049	0.000025	0.000027	-0.561494	-8.326222	60.204645
31950	1.417904	-0.121170	9.725852	0.019378	-0.017177	0.016691	1.000000	-0.000052	0.000026	0.000007	-0.562116	-8.326276	60.203831
31951	1.434761	-0.096043	9.675052	0.009985	0.016088	-0.031377	1.000000	-0.000042	0.000040	0.000029	-0.562094	-8.324673	60.205564
31952	1.415868	-0.096085	9.704466	-0.001554	-0.003554	-0.005009	1.000000	-0.000043	0.000030	0.000027	-0.562182	-8.324282	60.207120
31953	1.438807	-0.100935	9.698861	0.014344	0.014381	-0.007187	1.000000	-0.000046	0.000020	0.000016	-0.562326	-8.325081	60.207363
31954	1.414899	-0.097930	9.704589	-0.000498	-0.005356	-0.005010	1.000000	-0.000044	0.000030	0.000017	-0.562349	-8.324599	60.207773
31955	1.414198	-0.098830	9.704682	0.000027	-0.006260	-0.005010	1.000000	-0.000044	0.000042	0.000009	-0.562241	-8.322875	60.207216
31956	1.413610	-0.099633	9.704759	0.000554	-0.007156	-0.005011	1.000000	-0.000035	0.000019	0.000015	-0.561155	-8.323730	60.207397
31957	1.407984	-0.097330	9.681158	-0.002239	-0.008144	-0.029199	1.000000	-0.000040	0.000024	0.000016	-0.560625	-8.323967	60.207683
31958	1.412583	-0.101414	9.704890	0.001604	-0.008961	-0.005012	1.000000	-0.000061	0.000038	0.000009	-0.562436	-8.322685	60.207161
31959	1.406729	-0.099296	9.681321	-0.001191	-0.009945	-0.029201	1.000000	-0.000034	0.000029	0.000016	-0.561232	-8.322359	60.207492
31960	1.411394	-0.103234	9.705044	0.002659	-0.010760	-0.005014	1.000000	-0.000050	0.000025	0.000017	-0.561945	-8.322428	60.207869
31961	1.397148	-0.079347	9.736544	-0.027540	-0.014901	0.023858	1.000000	-0.000035	0.000030	0.000007	-0.560698	-8.322040	60.207055
31962	1.410319	-0.104958	9.705182	0.003706	-0.012559	-0.005017	1.000000	-0.000049	0.000025	0.000027	-0.561494	-8.322194	60.208602
31963	1.428107	-0.106780	9.675924	0.016282	0.005306	-0.031373	1.000000	-0.000047	0.000020	0.000006	-0.561595	-8.322932	60.207697
31964	1.427725	-0.107707	9.675970	0.016810	0.004408	-0.031374	1.000000	-0.000045	0.000019	0.000025	-0.561771	-8.323761	60.209062
31965	1.418785	-0.086932	9.731114	-0.010058	0.000327	0.021691	1.000000	-0.000040	0.000024	0.000016	-0.561242	-8.323997	60.209346
31966	1.408007	-0.081676	9.683854	-0.016190	-0.000706	-0.026681	1.000000	-0.000054	0.000016	-0.000005	-0.561988	-8.325232	60.207252
31967	1.431151	-0.086428	9.678234	-0.000291	0.017232	-0.028845	1.000000	-0.000030	0.000013	0.000014	-0.560319	-8.326806	60.207280
31968	1.412549	-0.086308	9.707590	-0.011805	-0.002448	-0.002494	1.000000	-0.000041	0.000025	0.000006	-0.559718	-8.326952	60.206391
31969	1.384063	-0.107136	9.711178	-0.007988	-0.037719	-0.002866	1.000000	-0.000044	0.000030	0.000017	-0.559759	-8.326520	60.206803
31970	1.406283	-0.085042	9.684076	-0.014083	-0.004308	-0.026678	1.000000	-0.000049	0.000025	0.000027	-0.560492	-8.326681	60.208284
31971	1.434404	-0.093100	9.702141	0.005153	0.013683	-0.004654	1.000000	-0.000050	0.000025	0.000017	-0.561206	-8.326812	60.208650
31972	1.405252	-0.087037	9.684208	-0.013032	-0.006103	-0.026678	1.000000	-0.000044	0.000030	0.000017	-0.561253	-8.326329	60.209074
31973	1.428900	-0.118833	9.700123	0.024873	-0.003645	-0.007198	1.000000	-0.000042	0.000014	0.000004	-0.560784	-8.327735	60.208039
31974	1.404312	-0.088920	9.684327	-0.011981	-0.007903	-0.026678	1.000000	-0.000061	0.000038	0.000009	-0.562587	-8.326440	60.207508
31975	1.426986	-0.093799	9.678780	0.003919	0.010035	-0.028836	1.000000	-0.000032	0.000039	0.000028	-0.561322	-8.324946	60.209153
31976	1.436061	-0.073875	9.704672	-0.010872	0.024701	-0.002098	1.000000	-0.000050	0.000025	0.000017	-0.561986	-8.325056	60.209462
31977	1.378852	-0.087751	9.690241	-0.025779	-0.029449	-0.024523	1.000000	-0.000044	0.000042	0.000009	-0.561878	-8.323331	60.208900
31978	1.406811	-0.095647	9.708336	-0.005523	-0.011091	-0.002494	1.000000	-0.000040	0.000024	0.000016	-0.557303	-8.318684	60.219897
31979	1.424513	-0.097424	9.679108	0.007030	0.006812	-0.028835	1.000000	-0.000056	0.000032	0.000008	-0.558536	-8.318075	60.219250
31980	1.401226	-0.121525	9.706306	0.014201	-0.028422	-0.005060	1.000000	-0.000047	0.000020	0.000006	-0.558617	-8.318797	60.218288
31981	1.409735	-0.074706	9.710704	-0.022607	0.001723	0.000069	1.000000	-0.000049	0.000036	0.000018	-0.559220	-8.317688	60.218831
31982	1.428136	-0.103554	9.702960	0.011965	0.004139	-0.004652	1.000000	-0.000052	0.000015	0.000015	-0.560015	-8.319028	60.218991
31983	1.403694	-0.073537	9.687161	-0.024902	-0.000109	-0.024111	1.000000	-0.000039	0.000024	0.000026	-0.559522	-8.319318	60.220422
31984	1.422052	-0.102329	9.679420	0.009671	0.002305	-0.028835	1.000000	-0.000055	0.000031	0.000018	-0.560755	-8.318766	60.220843
31985	1.403348	-0.102505	9.708767	-0.001822	-0.017416	-0.002502	1.000000	-0.000042	0.000014	0.000004	-0.560279	-8.320162	60.219812
31986	1.420437	-0.077133	9.658068	-0.011296	0.016014	-0.050440	1.000000	-0.000043	0.000041	0.000019	-0.560206	-8.318447	60.220441
31987	1.396943	-0.101126	9.685273	-0.004122	-0.019234	-0.026687	1.000000	-0.000046	0.000031	0.000007	-0.560194	-8.317944	60.219710
31988	1.429595	-0.085126	9.705535	-0.003523	0.014250	-0.002072	1.000000	-0.000033	0.000017	0.000035	-0.559163	-8.318941	60.222145
31989	1.424526	-0.109879	9.703421	0.015669	-0.002177	-0.004656	1.000000	-0.000051	0.000037	-0.000002	-0.559677	-8.317706	60.220398
31990	1.423204	-0.083636	9.682047	-0.005828	0.012436	-0.026251	1.000000	-0.000028	0.000034	0.000017	-0.557787	-8.316786	60.220769
31991	1.394708	-0.104455	9.685560	-0.002014	-0.022832	-0.026694	1.000000	-0.000056	0.000020	0.000016	-0.559169	-8.317471	60.221088
31992	1.422854	-0.112512	9.703636	0.017254	-0.004886	-0.004660	1.000000	-0.000040	0.000024	0.000016	-0.558619	-8.317703	60.221290
31993	1.404088	-0.112649	9.732982	0.005772	-0.024627	0.021663	1.000000	-0.000052	0.000026	0.000007	-0.559282	-8.317762	60.220511
31994	1.402915	-0.086571	9.711593	-0.015727	-0.010008	0.000078	1.000000	-0.000046	0.000031	0.000007	-0.559258	-8.317236	60.219767
31995	1.392842	-0.108233	9.685787	0.000094	-0.026435	-0.026703	1.000000	-0.000046	0.000008	0.000024	-0.559545	-8.319321	60.220974
31996	1.425588	-0.092258	9.706059	0.000705	0.007031	-0.002064	1.000000	-0.000035	0.000030	0.000006	-0.558289	-8.318907	60.220129
31997	1.424332	-0.066063	9.684694	-0.020801	0.021657	-0.023638	1.000000	-0.000049	0.000036	0.000018	-0.558892	-8.317798	60.220667
31998	1.406057	-0.093355	9.735504	-0.010245	-0.013623	0.024257	1.000000	-0.000052	0.000026	0.000007	-0.559567	-8.317849	60.219840
31999	1.418740	-0.091930	9.682626	-0.001088	0.004332	-0.026242	1.000000	-0.000047	0.000020	0.000006	-0.559661	-8.318577	60.218932
32000	1.389673	-0.085745	9.664659	-0.019308	-0.015400	-0.048284	1.000000	-0.000045	0.000030	0.000017	-0.559659	-8.318122	60.219298
32001	1.394168	-0.089867	9.688399	-0.015407	-0.016313	-0.024105	1.000000	-0.000050	0.000037	0.000008	-0.560217	-8.316950	60.218690
32002	1.393573	-0.090774	9.688476	-0.014874	-0.017213	-0.024106	1.000000	-0.000040	0.000024	0.000016	-0.559648	-8.317151	60.218950
32003	1.393143	-0.091644	9.688530	-0.014348	-0.018114	-0.024106	1.000000	-0.000046	0.000020	0.000015	-0.559786	-8.317942	60.219184
32004	1.430900	-0.078958	9.732501	-0.010339	0.015310	0.024739	1.000000	-0.000047	0.000032	-0.000003	-0.559707	-8.317367	60.217241
32005	1.415420	-0.097440	9.683059	0.002084	-0.001074	-0.026241	1.000000	-0.000049	0.000036	0.000018	-0.560310	-8.316259	60.217777
32006	1.414732	-0.098345	9.683150	0.002614	-0.001971	-0.026242	1.000000	-0.000038	0.000035	0.000027	-0.559704	-8.315287	60.219392
32007	1.423826	-0.078559	9.709109	-0.012133	0.012625	0.000566	1.000000	-0.000050	0.000025	0.000017	-0.560411	-8.315410	60.219752
32008	1.413698	-0.100228	9.683282	0.003667	-0.003774	-0.026242	1.000000	-0.000048	0.000021	-0.000004	-0.560450	-8.316074	60.217615
32009	1.412716	-0.074076	9.661908	-0.017851	0.010881	-0.047787	1.000000	-0.000046	0.000020	0.000015	-0.560588	-8.316865	60.217848
32010	1.440858	-0.082073	9.680003	0.001441	0.028796	-0.025735	1.000000	-0.000039	0.000024	0.000026	-0.560108	-8.317130	60.219270
32011	1.422125	-0.082313	9.709327	-0.010021	0.009016	0.000572	1.000000	-0.000056	0.000020	0.000016	-0.561490	-8.317815	60.219581
32012	1.416974	-0.107209	9.707166	0.009164	-0.007409	-0.002068	1.000000	-0.000044	0.000042	0.000009	-0.561377	-8.316058	60.219018
32013	1.420865	-0.084172	9.709495	-0.008965	0.007212	0.000575	1.000000	-0.000042	0.000026	-0.000004	-0.560750	-8.316159	60.217010
32014	1.443904	-0.089028	9.703934	0.006941	0.025149	-0.001549	1.000000	-0.000052	0.000015	0.000015	-0.561554	-8.317525	60.217090
32015	1.410350	-0.106857	9.683699	0.007350	-0.010076	-0.026249	1.000000	-0.000055	0.000031	0.000018	-0.562831	-8.316980	60.217575
32016	1.409226	-0.080735	9.662364	-0.014173	0.004595	-0.047776	1.000000	-0.000041	0.000025	0.000006	-0.562236	-8.317140	60.216654
32017	1.414482	-0.112000	9.707476	0.011801	-0.011929	-0.002075	1.000000	-0.000056	0.000020	0.000016	-0.563619	-8.317826	60.216963
32018	1.408807	-0.109865	9.683890	0.008933	-0.012776	-0.026253	1.000000	-0.000049	0.000036	0.000018	-0.564214	-8.316686	60.217512
32019	1.412713	-0.086835	9.686232	-0.009195	0.001848	-0.023597	1.000000	-0.000035	0.000030	0.000006	-0.562958	-8.316288	60.216695
32020	1.417370	-0.090761	9.709947	-0.005264	0.000894	0.000580	1.000000	-0.000033	0.000017	0.000034	-0.561939	-8.317279	60.219148
32021	1.407167	-0.112289	9.684100	0.010514	-0.015474	-0.026259	1.000000	-0.000051	0.000037	-0.000002	-0.562452	-8.316043	60.217391
32022	1.420778	-0.068871	9.712360	-0.022859	0.014605	0.003246	1.000000	-0.000059	0.000025	0.000037	-0.564459	-8.316216	60.219979
32023	1.410616	-0.090555	9.686503	-0.007084	-0.001759	-0.023595	1.000000	-0.000042	0.000026	-0.000004	-0.563832	-8.316316	60.217969
32024	1.433563	-0.095297	9.680965	0.008829	0.016181	-0.025710	1.000000	-0.000040	0.000024	0.000016	-0.563257	-8.316531	60.218201
32025	1.391267	-0.091511	9.715892	-0.017998	-0.022473	0.002695	1.000000	-0.000046	0.000031	0.000007	-0.563245	-8.316028	60.217460
32026	1.409656	-0.120241	9.708079	0.016564	-0.020055	-0.002096	1.000000	-0.000046	0.000020	0.000015	-0.563379	-8.316786	60.217702
32027	1.427385	-0.121855	9.678901	0.029061	-0.002043	-0.028386	1.000000	-0.000044	0.000042	0.000009	-0.563262	-8.315052	60.217136
32028	1.431320	-0.099091	9.681258	0.010937	0.012582	-0.025707	1.000000	-0.000068	0.000022	0.000007	-0.565843	-8.315553	60.216347
32029	1.412099	-0.072260	9.689179	-0.022567	0.008363	-0.020912	1.000000	-0.000030	0.000013	0.000014	-0.564167	-8.317119	60.216369
32030	1.402089	-0.093516	9.663287	-0.006813	-0.007987	-0.047770	1.000000	-0.000028	0.000023	0.000025	-0.562455	-8.317560	60.217587
32031	1.406671	-0.097510	9.687010	-0.002872	-0.008968	-0.023597	1.000000	-0.000046	0.000031	0.000007	-0.562444	-8.317056	60.216845
32032	1.411173	-0.101654	9.710742	0.001078	-0.009947	0.000576	1.000000	-0.000046	0.000031	0.000007	-0.562413	-8.316499	60.216155
32033	1.428416	-0.076085	9.660201	-0.008499	0.023689	-0.047186	1.000000	-0.000041	0.000025	0.000006	-0.561831	-8.316664	60.215286
32034	1.414748	-0.079505	9.713159	-0.016517	0.003773	0.003269	1.000000	-0.000046	0.000020	0.000015	-0.561981	-8.317442	60.215491
32035	1.432546	-0.081054	9.683984	-0.004029	0.021803	-0.023008	1.000000	-0.000040	0.000036	0.000008	-0.561295	-8.316377	60.214797
32036	1.426918	-0.078559	9.660402	-0.006920	0.020994	-0.047179	1.000000	-0.000035	0.000019	0.000015	-0.560161	-8.317262	60.214907
32037	1.436690	-0.085935	9.707765	0.000452	0.019904	0.001169	1.000000	-0.000049	0.000025	0.000026	-0.560914	-8.317452	60.216401
32038	1.421347	-0.104323	9.658234	0.012785	0.003674	-0.049879	1.000000	-0.000049	0.000036	0.000018	-0.561488	-8.316311	60.216934
32039	1.412121	-0.083995	9.713504	-0.013867	-0.000743	0.003274	1.000000	-0.000045	0.000019	0.000025	-0.561672	-8.317169	60.218301
32040	1.406708	-0.081622	9.689889	-0.016759	-0.001544	-0.020897	1.000000	-0.000041	0.000014	0.000014	-0.561198	-8.318608	60.218377
32041	1.406383	-0.082502	9.689929	-0.016233	-0.002446	-0.020897	1.000000	-0.000046	0.000020	0.000015	-0.561337	-8.319400	60.218601
32042	1.401392	-0.107246	9.687672	0.002938	-0.018873	-0.023611	1.000000	-0.000040	0.000024	0.000016	-0.560801	-8.319639	60.218805
32043	1.405421	-0.084236	9.690053	-0.015182	-0.004250	-0.020896	1.000000	-0.000045	0.000030	0.000017	-0.560834	-8.319201	60.219203
32044	1.432946	-0.065117	9.686845	-0.017915	0.029227	-0.020273	1.000000	-0.000035	0.000019	0.000015	-0.559748	-8.320032	60.219442
32045	1.400041	-0.109903	9.687837	0.004518	-0.021566	-0.023617	1.000000	-0.000063	0.000016	0.000006	-0.561759	-8.321214	60.218548
32046	1.422564	-0.087619	9.660967	-0.001655	0.012019	-0.047161	1.000000	-0.000030	0.000024	0.000005	-0.559956	-8.321471	60.217585
32047	1.422604	-0.115572	9.682360	0.020950	-0.004523	-0.025716	1.000000	-0.000050	0.000025	0.000016	-0.560665	-8.321595	60.217932
32048	1.379791	-0.084846	9.695913	-0.027936	-0.027583	-0.018801	1.000000	-0.000052	0.000026	0.000007	-0.561336	-8.321655	60.217097
32049	1.436327	-0.100297	9.732118	0.010236	0.008954	0.025353	1.000000	-0.000052	0.000026	0.000007	-0.561999	-8.321713	60.216300
32050	1.402280	-0.090774	9.690449	-0.011489	-0.010543	-0.020895	1.000000	-0.000046	0.000020	0.000015	-0.562083	-8.322470	60.216511
32051	1.406931	-0.094929	9.714156	-0.007521	-0.011572	0.003274	1.000000	-0.000040	0.000024	0.000016	-0.561547	-8.322701	60.216781
32052	1.429835	-0.099732	9.708645	0.008398	0.006371	0.001183	1.000000	-0.000045	0.000030	0.000017	-0.561551	-8.322215	60.217201
32053	1.405850	-0.096650	9.714295	-0.006459	-0.013375	0.003273	1.000000	-0.000042	0.000026	-0.000004	-0.560923	-8.322313	60.215184
32054	1.423710	-0.098208	9.685128	0.006010	0.004703	-0.022986	1.000000	-0.000052	0.000026	0.000007	-0.561587	-8.322333	60.214401
32055	1.409364	-0.074659	9.716772	-0.024042	0.000348	0.006017	1.000000	-0.000045	0.000030	0.000017	-0.561621	-8.321896	60.214797
32056	1.417556	-0.096740	9.661616	0.003614	0.003044	-0.047155	1.000000	-0.000040	0.000024	0.000016	-0.561098	-8.322101	60.215067
32057	1.422195	-0.100903	9.685323	0.007589	0.002003	-0.022986	1.000000	-0.000047	0.000020	0.000005	-0.561191	-8.322828	60.214142
32058	1.431390	-0.081307	9.711381	-0.007070	0.016481	0.003935	1.000000	-0.000050	0.000025	0.000016	-0.561869	-8.322953	60.214428
32059	1.416130	-0.099646	9.661795	0.005193	0.000343	-0.047155	1.000000	-0.000055	0.000031	0.000018	-0.563148	-8.322409	60.214898
32060	1.420714	-0.103868	9.685509	0.009164	-0.000707	-0.022987	1.000000	-0.000035	0.000019	0.000015	-0.562068	-8.323344	60.214947
32061	1.401408	-0.076930	9.693493	-0.024334	-0.004925	-0.018145	1.000000	-0.000052	0.000026	0.000007	-0.562731	-8.323402	60.214147
32062	1.414817	-0.102456	9.661958	0.006767	-0.002352	-0.047157	1.000000	-0.000052	0.000015	0.000015	-0.563525	-8.324710	60.214344
32063	1.395997	-0.102799	9.691236	-0.004637	-0.022248	-0.020909	1.000000	-0.000046	0.000031	0.000007	-0.563513	-8.324206	60.213594
32064	1.428526	-0.087150	9.711752	-0.003903	0.011054	0.003945	1.000000	-0.000050	0.000025	0.000016	-0.564194	-8.324355	60.213838
32065	1.417859	-0.081488	9.664519	-0.010295	0.010469	-0.044388	1.000000	-0.000045	0.000030	0.000017	-0.564228	-8.323918	60.214230
32066	1.422382	-0.085663	9.688242	-0.006301	0.009406	-0.020220	1.000000	-0.000041	0.000025	0.000006	-0.563603	-8.324069	60.213311
32067	1.422547	-0.113619	9.709563	0.016324	-0.007184	0.001173	1.000000	-0.000036	0.000008	0.000013	-0.562603	-8.326199	60.213275
32068	1.407863	-0.062879	9.719924	-0.035806	0.004120	0.008803	1.000000	-0.000056	0.000032	0.000008	-0.563827	-8.325579	60.212579
32069	1.439511	-0.088937	9.659185	0.007200	0.025712	-0.046458	1.000000	-0.000040	0.000024	0.000016	-0.563292	-8.325810	60.212845
32070	1.402263	-0.088526	9.717683	-0.016111	-0.013209	0.006024	1.000000	-0.000040	0.000024	0.000016	-0.562743	-8.326017	60.213099
32071	1.438603	-0.090616	9.659304	0.008254	0.023915	-0.046454	1.000000	-0.000047	0.000020	0.000005	-0.562836	-8.326743	60.212170
32072	1.401334	-0.090314	9.717800	-0.015057	-0.015017	0.006023	1.000000	-0.000045	0.000030	0.000017	-0.562878	-8.326310	60.212525
32073	1.442681	-0.095781	9.683084	0.012773	0.021939	-0.022285	1.000000	-0.000046	0.000020	0.000015	-0.563017	-8.327103	60.212739
32074	1.423807	-0.095988	9.712361	0.001393	0.002016	0.003952	1.000000	-0.000035	0.000030	0.000006	-0.561713	-8.326683	60.211891
32075	1.418262	-0.093455	9.688774	-0.001553	0.001294	-0.020213	1.000000	-0.000048	0.000021	-0.000004	-0.561759	-8.327341	60.209817
32076	1.394446	-0.090339	9.694382	-0.016412	-0.018445	-0.018145	1.000000	-0.000033	0.000017	0.000034	-0.560751	-8.328350	60.212238
32077	1.417357	-0.095142	9.688890	-0.000499	-0.000506	-0.020213	1.000000	-0.000051	0.000037	-0.000002	-0.561261	-8.327111	60.210467
32078	1.426391	-0.075536	9.715016	-0.015125	0.013929	0.006753	1.000000	-0.000038	0.000023	0.000035	-0.560806	-8.327465	60.212989
32079	1.439773	-0.100970	9.683464	0.015944	0.016533	-0.022280	1.000000	-0.000059	0.000022	-0.000004	-0.562095	-8.328017	60.210988
32080	1.410883	-0.094706	9.665419	-0.002391	-0.003019	-0.044378	1.000000	-0.000046	0.000020	0.000015	-0.562198	-8.328804	60.211166
32081	1.425574	-0.105735	9.736427	0.008576	-0.004505	0.028113	1.000000	-0.000051	0.000025	0.000016	-0.562907	-8.328929	60.211503
32082	1.419575	-0.076198	9.691593	-0.016489	0.010507	-0.017403	1.000000	-0.000051	0.000025	0.000016	-0.563602	-8.329056	60.211791
32083	1.391013	-0.097089	9.694810	-0.012720	-0.024760	-0.018153	1.000000	-0.000044	0.000030	0.000027	-0.563683	-8.328687	60.213322
32084	1.423482	-0.081437	9.715395	-0.011951	0.008506	0.006764	1.000000	-0.000047	0.000032	-0.000003	-0.563634	-8.328093	60.211429
32085	1.422823	-0.082391	9.715484	-0.011423	0.007602	0.006765	1.000000	-0.000049	0.000036	0.000018	-0.564238	-8.326988	60.211942
32086	1.393850	-0.076005	9.697449	-0.029763	-0.011930	-0.015337	1.000000	-0.000042	0.000014	0.000004	-0.563735	-8.328324	60.210934
32087	1.417422	-0.108050	9.713169	0.008270	-0.009725	0.003944	1.000000	-0.000045	0.000019	0.000025	-0.563922	-8.329186	60.212288
32088	1.417040	-0.108981	9.713214	0.008803	-0.010627	0.003942	1.000000	-0.000047	0.000020	0.000005	-0.563992	-8.329890	60.211345
32089	1.435008	-0.110526	9.684067	0.021228	0.007524	-0.022278	1.000000	-0.000051	0.000025	0.000016	-0.564701	-8.330015	60.211679
32090	1.420692	-0.087021	9.715755	-0.008763	0.003097	0.006770	1.000000	-0.000040	0.000024	0.000016	-0.564148	-8.330184	60.211992
32091	1.410534	-0.108473	9.689746	0.006899	-0.013113	-0.020224	1.000000	-0.000055	0.000031	0.000017	-0.565427	-8.329641	60.212451
32092	1.414506	-0.085735	9.692255	-0.011209	0.001512	-0.017390	1.000000	-0.000056	0.000032	0.000008	-0.566695	-8.329030	60.211735
32093	1.437408	-0.090531	9.686780	0.004707	0.019452	-0.019442	1.000000	-0.000030	0.000024	0.000005	-0.564868	-8.329300	60.210779
32094	1.437371	-0.118584	9.708057	0.027355	0.002796	0.001879	1.000000	-0.000049	0.000025	0.000026	-0.565632	-8.329528	60.212183
32095	1.389514	-0.084221	9.698003	-0.025024	-0.020039	-0.015337	1.000000	-0.000024	0.000029	0.000006	-0.563132	-8.329237	60.211279
32096	1.430814	-0.089421	9.663341	0.002788	0.016975	-0.043599	1.000000	-0.000044	0.000030	0.000027	-0.563198	-8.328831	60.212817
32097	1.388352	-0.085833	9.698155	-0.023966	-0.021838	-0.015338	1.000000	-0.000046	0.000031	0.000007	-0.563186	-8.328327	60.212058
32098	1.415945	-0.066895	9.695114	-0.026668	0.011640	-0.014537	1.000000	-0.000052	0.000015	0.000015	-0.564006	-8.329586	60.212303
32099	1.434318	-0.095611	9.687189	0.007874	0.014055	-0.019435	1.000000	-0.000039	0.000035	0.000017	-0.563367	-8.328589	60.212739
32100	1.410453	-0.092548	9.692783	-0.006986	-0.005683	-0.017387	1.000000	-0.000045	0.000007	0.000033	-0.563703	-8.330714	60.215071
