// Start Time: Unknown
// Update Rate: 100.0Hz
// Filter Profile: human (46.1)
// Firmware Version: 4.4.0
PacketCounter	Acc_X	Acc_Y	Acc_Z	FreeAcc_X	FreeAcc_Y	FreeAcc_Z	OriInc_q0	OriInc_q1	OriInc_q2	OriInc_q3	Roll	Pitch	Yaw
03871	9.567637	-0.426628	2.355490	-0.000000	0.000000	0.049869	1.000000	0.000028	0.000021	0.000018	-10.264569	-75.954383	1.936628
03872	9.567564	-0.426594	2.355793	0.000000	-0.000000	0.049869	1.000000	0.000038	0.000008	-0.000005	-10.267759	-75.951663	2.154131
03873	9.549625	-0.436944	2.369081	-0.018881	-0.008345	0.036088	1.000000	0.000018	0.000016	0.000021	-10.270805	-75.952103	2.054302
03874	9.582607	-0.444917	2.362725	-0.005678	-0.016575	0.066911	1.000000	0.000018	-0.000003	0.000020	-10.278047	-75.952004	2.063871
03875	9.560582	-0.439940	2.336692	0.014851	-0.015471	0.039112	1.000000	0.000022	0.000010	0.000004	-10.276383	-75.950360	2.064872
03876	9.560547	-0.440024	2.336822	0.014851	-0.015471	0.039112	1.000000	0.000027	0.000002	0.000017	-10.280576	-75.949820	2.072434
03877	9.567380	-0.427293	2.356409	-0.000531	0.000155	0.049869	1.000000	0.000015	-0.000003	0.000009	-10.283326	-75.950040	2.077052
03878	9.549495	-0.437682	2.369469	-0.018804	-0.008345	0.036089	1.000000	0.000031	0.000004	0.000009	-10.283651	-75.949422	2.081040
03879	9.567345	-0.427497	2.356516	-0.000529	0.000166	0.049869	1.000000	0.000009	0.000003	0.000015	-10.289419	-75.948760	2.088002
03880	9.564593	-0.455792	2.376212	-0.023873	-0.025064	0.053131	1.000000	0.000038	0.000008	-0.000005	-10.282010	-75.947986	2.084843
03881	9.505411	-0.427660	2.317570	0.022107	-0.006085	-0.019510	1.000000	0.000011	0.000004	0.000026	-10.292795	-75.946954	2.097266
03882	9.545261	-0.422746	2.330692	0.019934	0.001303	0.022069	1.000000	0.000021	-0.000001	0.000013	-10.296166	-75.946776	2.103258
03883	9.549345	-0.438337	2.369956	-0.018802	-0.008280	0.036089	1.000000	0.000024	0.000010	0.000015	-10.300135	-75.945409	2.110197
03884	9.571383	-0.443700	2.304814	0.048497	-0.022516	0.042136	1.000000	0.000018	-0.000003	0.000020	-10.307371	-75.945308	2.119760
03885	9.560322	-0.441355	2.337491	0.014806	-0.015343	0.039113	1.000000	0.000018	0.000008	0.000011	-10.311187	-75.944450	2.125779
03886	9.542407	-0.451754	2.350659	-0.003467	-0.023842	0.025332	1.000000	0.000031	0.000004	0.000009	-10.311508	-75.943831	2.129763
03887	9.551962	-0.410653	2.350707	0.004448	0.017099	0.032826	1.000000	0.000021	-0.000001	0.000013	-10.317182	-75.943936	2.137989
03888	9.560228	-0.441711	2.337810	0.014754	-0.015248	0.039113	1.000000	0.000031	0.000013	0.000019	-10.321268	-75.942122	2.145813
03889	9.551899	-0.411024	2.350899	0.004375	0.017189	0.032825	1.000000	0.000024	-0.000009	0.000014	-10.327755	-75.943254	2.155237
03890	9.549134	-0.439488	2.370592	-0.018968	-0.008041	0.036089	1.000000	0.000021	0.000018	0.000014	-10.330104	-75.940894	2.160197
03891	9.566941	-0.429249	2.357839	-0.000748	0.000534	0.049869	1.000000	0.000022	0.000010	0.000004	-10.330523	-75.940018	2.163105
03892	9.549006	-0.439713	2.371065	-0.019021	-0.007966	0.036088	1.000000	0.000021	0.000008	0.000023	-10.337651	-75.938643	2.172930
03893	9.566853	-0.429565	2.358136	-0.000765	0.000616	0.049869	1.000000	0.000025	0.000001	0.000005	-10.339117	-75.938463	2.177258
03894	9.566843	-0.429552	2.358181	-0.000764	0.000616	0.049869	1.000000	0.000025	0.000001	0.000005	-10.338617	-75.938205	2.179674
03895	9.542072	-0.452958	2.351788	-0.003690	-0.023426	0.025333	1.000000	0.000008	0.000012	0.000025	-10.349755	-75.936514	2.192031
03896	9.533737	-0.422422	2.364881	-0.013996	0.008922	0.019045	1.000000	0.000012	-0.000005	0.000016	-10.356167	-75.936774	2.200024
03897	9.569483	-0.401851	2.338876	0.022546	0.026024	0.046605	1.000000	0.000025	0.000012	-0.000003	-10.353324	-75.935539	2.199823
03898	9.566708	-0.430152	2.358620	-0.000799	0.000795	0.049869	1.000000	0.000027	0.000002	0.000017	-10.357509	-75.934999	2.207373
03899	9.551527	-0.412242	2.352195	0.004218	0.017580	0.032825	1.000000	0.000022	0.000010	0.000004	-10.357499	-75.934140	2.209732
03900	9.526742	-0.435434	2.345893	0.001320	-0.006538	0.008290	1.000000	0.000028	0.000012	0.000008	-10.356908	-75.932621	2.212416
03901	9.573426	-0.417501	2.378658	-0.016257	0.016493	0.060623	1.000000	0.000018	-0.000003	0.000020	-10.364685	-75.932661	2.222608
03902	9.544573	-0.425332	2.333037	0.019565	0.001985	0.022070	1.000000	0.000019	0.000009	-0.000007	-10.358596	-75.931791	2.218597
03903	9.566577	-0.430401	2.359106	-0.000961	0.000868	0.049869	1.000000	0.000027	-0.000017	0.000015	-10.363709	-75.933896	2.227185
03904	9.548703	-0.440849	2.372075	-0.019237	-0.007632	0.036088	1.000000	0.000018	0.000008	0.000011	-10.366157	-75.932823	2.231874
03905	9.584403	-0.420482	2.346234	0.017233	0.009371	0.063649	1.000000	0.000018	0.000016	0.000021	-10.372454	-75.930992	2.240672
03906	9.548570	-0.441252	2.372534	-0.019318	-0.007631	0.036088	1.000000	0.000031	0.000004	0.000009	-10.372767	-75.930403	2.244653
03907	9.581573	-0.449059	2.366132	-0.006018	-0.015856	0.066912	1.000000	0.000027	0.000002	0.000017	-10.376901	-75.929269	2.252137
03908	9.544420	-0.426110	2.333523	0.019498	0.001982	0.022070	1.000000	0.000012	0.000005	0.000008	-10.378525	-75.928556	2.255260
03909	9.548479	-0.441530	2.372850	-0.019210	-0.007610	0.036088	1.000000	0.000022	0.000010	0.000004	-10.377529	-75.927310	2.256939
03910	9.566302	-0.431258	2.360062	-0.000939	0.000890	0.049869	1.000000	0.000034	0.000015	0.000012	-10.377721	-75.925424	2.261171
03911	9.526401	-0.436517	2.347079	0.001254	-0.006437	0.008290	1.000000	0.000009	-0.000006	0.000005	-10.380986	-75.925849	2.264954
03912	9.566247	-0.431456	2.360248	-0.000922	0.000955	0.049869	1.000000	0.000031	0.000013	0.000019	-10.385058	-75.924037	2.272757
03913	9.562082	-0.416304	2.321317	0.037844	0.010628	0.035850	1.000000	0.000006	0.000011	0.000014	-10.391103	-75.922193	2.279128
03914	9.551005	-0.413852	2.354033	0.004195	0.017747	0.032825	1.000000	0.000040	-0.000002	0.000014	-10.393170	-75.922117	2.285964
03915	9.539956	-0.411351	2.386641	-0.029434	0.024864	0.029799	1.000000	0.000021	-0.000001	0.000013	-10.396459	-75.921803	2.291687
03916	9.566110	-0.432099	2.360686	-0.000854	0.001018	0.049869	1.000000	0.000018	0.000008	0.000011	-10.398920	-75.920700	2.296368
03917	9.544075	-0.427165	2.334740	0.019585	0.002064	0.022070	1.000000	0.000024	0.000010	0.000015	-10.400641	-75.919311	2.301424
03918	9.565998	-0.432509	2.361067	-0.000860	0.000956	0.049869	1.000000	0.000021	0.000008	0.000023	-10.407761	-75.917919	2.311225
03919	9.559065	-0.445687	2.341805	0.014575	-0.014704	0.039114	1.000000	0.000028	0.000021	0.000018	-10.409851	-75.914841	2.316469
03920	9.559048	-0.445776	2.341858	0.014580	-0.014703	0.039114	1.000000	0.000025	-0.000018	0.000004	-10.410402	-75.916738	2.319924
03921	9.548023	-0.443355	2.374344	-0.019162	-0.007583	0.036089	1.000000	0.000011	0.000004	0.000026	-10.420697	-75.916336	2.331844
03922	9.565845	-0.433303	2.361542	-0.000885	0.000919	0.049869	1.000000	0.000025	0.000020	0.000007	-10.419174	-75.913874	2.333207
03923	9.543810	-0.428293	2.335613	0.019454	0.002096	0.022070	1.000000	0.000021	-0.000001	0.000013	-10.424283	-75.914318	2.339725
03924	9.565773	-0.433467	2.361802	-0.000992	0.000989	0.049869	1.000000	0.000031	0.000004	0.000009	-10.424642	-75.913683	2.343702
03925	9.547841	-0.443747	2.375001	-0.019274	-0.007419	0.036088	1.000000	0.000022	0.000010	0.000004	-10.425461	-75.912540	2.345025
03926	9.543739	-0.428581	2.335851	0.019450	0.002194	0.022070	1.000000	0.000008	-0.000007	0.000024	-10.435825	-75.912848	2.356594
03927	9.529877	-0.454525	2.388231	-0.037556	-0.015910	0.022308	1.000000	0.000028	0.000021	0.000018	-10.439048	-75.910186	2.363254
03928	9.550483	-0.416059	2.355761	0.004067	0.017822	0.032824	1.000000	0.000019	-0.000001	0.000002	-10.437833	-75.910264	2.364128
03929	9.547734	-0.444374	2.375313	-0.019309	-0.007401	0.036088	1.000000	0.000024	-0.000009	0.000014	-10.442243	-75.911166	2.371618
03930	9.550478	-0.416295	2.355738	0.004040	0.017831	0.032824	1.000000	0.000031	0.000013	0.000019	-10.446380	-75.909322	2.379417
03931	9.535290	-0.398477	2.349366	0.009255	0.034497	0.015780	1.000000	0.000018	0.000008	0.000011	-10.447156	-75.907400	2.383581
03932	9.558652	-0.447514	2.343144	0.014493	-0.014575	0.039114	1.000000	0.000018	0.000008	0.000011	-10.449644	-75.906268	2.388256
03933	9.535193	-0.398764	2.349711	0.009303	0.034488	0.015780	1.000000	0.000024	0.000010	0.000015	-10.452538	-75.904565	2.393658
03934	9.543392	-0.429847	2.337036	0.019614	0.002143	0.022070	1.000000	0.000022	0.000018	0.000014	-10.454912	-75.902154	2.398581
03935	9.547415	-0.445347	2.376416	-0.019191	-0.007621	0.036088	1.000000	0.000021	-0.000001	0.000013	-10.454585	-75.902506	2.402863
03936	9.543295	-0.430029	2.337401	0.019537	0.001990	0.022070	1.000000	0.000038	0.000017	0.000004	-10.450937	-75.900496	2.403509
03937	9.565217	-0.435233	2.363728	-0.001081	0.000853	0.049869	1.000000	0.000024	-0.000000	0.000024	-10.458453	-75.901030	2.413485
03938	9.558343	-0.448368	2.344239	0.014299	-0.014764	0.039114	1.000000	0.000012	0.000005	0.000008	-10.460115	-75.900276	2.416601
03939	9.567932	-0.407381	2.344259	0.022158	0.026088	0.046606	1.000000	0.000015	0.000006	0.000019	-10.466641	-75.899902	2.424094
03940	9.547221	-0.446137	2.377044	-0.019457	-0.007636	0.036088	1.000000	0.000027	0.000002	0.000017	-10.470861	-75.899334	2.431627
03941	9.532058	-0.428400	2.370565	-0.014360	0.009158	0.019044	1.000000	0.000021	0.000008	0.000023	-10.479547	-75.897786	2.439969
03942	9.565032	-0.436342	2.364272	-0.001156	0.000935	0.049869	1.000000	0.000037	0.000006	0.000013	-10.480772	-75.896768	2.445505
03943	9.547120	-0.446664	2.377350	-0.019180	-0.007636	0.036088	1.000000	0.000009	-0.000006	0.000005	-10.480510	-75.895849	2.446354
03944	9.549890	-0.418505	2.357729	0.004177	0.017596	0.032825	1.000000	0.000018	0.000008	0.000011	-10.483042	-75.894694	2.451029
03945	9.547075	-0.446994	2.377469	-0.019234	-0.007585	0.036088	1.000000	0.000024	-0.000000	0.000024	-10.492224	-75.894585	2.460615
03946	9.560905	-0.421634	2.325200	0.037771	0.010524	0.035850	1.000000	0.000015	-0.000003	0.000009	-10.494930	-75.894707	2.465060
03947	9.564950	-0.436921	2.364498	-0.000903	0.000803	0.049869	1.000000	0.000025	0.000012	-0.000003	-10.486771	-75.893212	2.460939
03948	9.547008	-0.447176	2.377704	-0.019166	-0.007688	0.036088	1.000000	0.000027	0.000002	0.000017	-10.491057	-75.892596	2.468477
03949	9.542926	-0.431940	2.338554	0.019463	0.002036	0.022070	1.000000	0.000025	0.000001	0.000005	-10.493593	-75.892854	2.469754
03950	9.553815	-0.434472	2.397385	-0.034623	0.008066	0.046843	1.000000	0.000015	0.000006	0.000019	-10.500076	-75.891777	2.478015
03951	9.542859	-0.432340	2.338752	0.019964	0.001872	0.022069	1.000000	0.000034	0.000004	0.000020	-10.500297	-75.887992	2.484669
03952	9.564785	-0.437592	2.365038	-0.000465	0.000773	0.049869	1.000000	0.000018	0.000008	0.000011	-10.502863	-75.886789	2.489340
03953	9.546859	-0.447876	2.378171	-0.019124	-0.007803	0.036088	1.000000	0.000019	-0.000001	0.000002	-10.500060	-75.889189	2.489799
03954	9.538537	-0.416946	2.391336	-0.029413	0.024553	0.029800	1.000000	0.000031	0.000023	0.000010	-10.499440	-75.886317	2.492710
03955	9.567434	-0.409405	2.345936	0.022296	0.025926	0.046606	1.000000	0.000025	0.000001	0.000005	-10.499171	-75.887331	2.494075
03956	9.542649	-0.432641	2.339553	0.019402	0.001815	0.022070	1.000000	0.000018	0.000008	0.000011	-10.501756	-75.886196	2.498764
03957	9.567348	-0.409722	2.346232	0.022020	0.025985	0.046606	1.000000	0.000027	0.000011	0.000026	-10.511228	-75.886107	2.508603
03958	9.542527	-0.433331	2.339926	0.019121	0.001877	0.022071	1.000000	0.000017	0.000006	0.000030	-10.522375	-75.884780	2.521976
03959	9.582352	-0.428210	2.353204	0.016635	0.009250	0.063650	1.000000	0.000023	0.000011	-0.000014	-10.512355	-75.885667	2.512662
03960	9.560368	-0.423078	2.327144	0.037082	0.010365	0.035853	1.000000	0.000036	-0.000004	0.000022	-10.518496	-75.885674	2.523101
03961	9.557564	-0.451458	2.346821	0.013573	-0.014952	0.039115	1.000000	0.000006	0.000003	0.000004	-10.517223	-75.886261	2.522469
03962	9.549258	-0.420658	2.359906	0.003272	0.017410	0.032826	1.000000	0.000031	0.000013	0.000019	-10.521503	-75.884461	2.530290
03963	9.549209	-0.420862	2.360068	0.003286	0.017269	0.032826	1.000000	0.000027	0.000002	0.000017	-10.522239	-75.883856	2.535571
03964	9.571135	-0.426004	2.386354	-0.017168	0.016174	0.060622	1.000000	0.000022	0.000010	0.000004	-10.521042	-75.882706	2.536729
03965	9.534026	-0.402949	2.353729	0.008202	0.034028	0.015783	1.000000	0.000031	0.000004	0.000009	-10.522057	-75.883015	2.537952
03966	9.575278	-0.441788	2.334456	0.031686	-0.006543	0.052897	1.000000	0.000009	0.000003	0.000015	-10.527813	-75.882382	2.544691
03967	9.560136	-0.424030	2.327924	0.036957	0.010184	0.035854	1.000000	0.000034	0.000004	0.000020	-10.532655	-75.880324	2.549938
03968	9.553091	-0.436585	2.399884	-0.035415	0.007735	0.046840	1.000000	0.000038	0.000008	-0.000005	-10.525581	-75.879553	2.546859
03969	9.549021	-0.421335	2.360742	0.003133	0.017214	0.032826	1.000000	-0.000001	-0.000001	0.000018	-10.531510	-75.880402	2.552860
03970	9.557241	-0.452463	2.347945	0.013423	-0.015123	0.039115	1.000000	0.000028	0.000012	0.000008	-10.531205	-75.878877	2.555585
03971	9.555802	-0.408662	2.380520	-0.012439	0.032888	0.043579	1.000000	0.000021	-0.000001	0.000013	-10.535596	-75.879859	2.558713
03972	9.564049	-0.439746	2.367616	-0.002154	0.000552	0.049868	1.000000	0.000021	-0.000001	0.000013	-10.539330	-75.879689	2.564775
03973	9.542083	-0.434913	2.341441	0.018070	0.001745	0.022073	1.000000	0.000018	-0.000003	0.000020	-10.549080	-75.880890	2.571022
03974	9.542047	-0.434995	2.341571	0.018064	0.001765	0.022073	1.000000	0.000031	0.000014	0.000001	-10.545059	-75.879317	2.570229
03975	9.563969	-0.440052	2.367883	-0.002559	0.000616	0.049868	1.000000	0.000021	-0.000001	0.000013	-10.547388	-75.880135	2.573277
03976	9.566782	-0.412186	2.348108	0.020794	0.025852	0.046609	1.000000	0.000005	-0.000009	0.000031	-10.561978	-75.880564	2.588494
03977	9.541972	-0.435644	2.341759	0.018003	0.001449	0.022073	1.000000	0.000025	0.000020	0.000007	-10.553356	-75.877505	2.586793
03978	9.537702	-0.420070	2.394118	-0.031016	0.024231	0.029796	1.000000	0.000027	0.000002	0.000017	-10.557922	-75.876971	2.594408
03979	9.566654	-0.412792	2.348524	0.020527	0.025467	0.046611	1.000000	0.000009	0.000003	0.000015	-10.560999	-75.878556	2.598710
03980	9.556941	-0.454091	2.348850	0.012530	-0.015358	0.039116	1.000000	0.000028	0.000012	0.000008	-10.560782	-75.877070	2.601461
03981	9.541803	-0.436174	2.342348	0.016922	0.001360	0.022075	1.000000	0.000021	-0.000001	0.000013	-10.564703	-75.880957	2.605650
03982	9.548670	-0.423452	2.361784	0.001535	0.017007	0.032827	1.000000	0.000021	-0.000011	0.000021	-10.573306	-75.881845	2.616619
03983	9.570586	-0.428762	2.388063	-0.020057	0.015829	0.060617	1.000000	0.000028	0.000021	0.000018	-10.575756	-75.885803	2.622541
03984	9.541755	-0.436593	2.342465	0.015740	0.001321	0.022077	1.000000	0.000032	-0.000014	-0.000010	-10.569114	-75.887768	2.619072
03985	9.556844	-0.454580	2.349149	0.009930	-0.015230	0.039119	1.000000	0.000018	0.000016	0.000021	-10.580341	-75.889659	2.625034
03986	9.570503	-0.428908	2.388370	-0.020852	0.016054	0.060615	1.000000	0.000021	-0.000001	0.000013	-10.584292	-75.889709	2.631197
03987	9.526585	-0.418957	2.336045	0.019881	0.018102	0.005038	1.000000	0.000021	-0.000001	0.000013	-10.584398	-75.890668	2.635193
03988	9.566444	-0.413959	2.349175	0.017648	0.025516	0.046616	1.000000	0.000027	0.000002	0.000017	-10.589135	-75.890362	2.642901
03989	9.566408	-0.414041	2.349305	0.017463	0.025187	0.046617	1.000000	0.000022	0.000010	0.000004	-10.579933	-75.890348	2.642538
03990	9.559537	-0.427162	2.329812	0.032790	0.009580	0.035869	1.000000	0.000027	-0.000008	0.000025	-10.589389	-75.891028	2.655103
03991	9.563599	-0.442412	2.368936	-0.006418	0.000232	0.049867	1.000000	0.000029	-0.000006	-0.000012	-10.587618	-75.894616	2.646118
03992	9.581491	-0.432343	2.355952	0.011803	0.008742	0.063658	1.000000	0.000011	0.000012	0.000036	-10.602093	-75.892743	2.661892
03993	9.541547	-0.437734	2.343099	0.013171	0.001880	0.022081	1.000000	0.000025	0.000012	-0.000003	-10.610620	-75.896216	2.654937
03994	9.559445	-0.427489	2.330128	0.031384	0.010393	0.035873	1.000000	0.000015	-0.000003	0.000009	-10.614039	-75.896731	2.659646
03995	9.563478	-0.442856	2.369342	-0.007731	0.000962	0.049866	1.000000	0.000021	-0.000001	0.000013	-10.621056	-75.898693	2.661513
03996	9.559447	-0.427706	2.330080	0.030949	0.010560	0.035874	1.000000	0.000034	-0.000004	0.000011	-10.623237	-75.899329	2.667096
03997	9.555232	-0.411974	2.382237	-0.018575	0.033640	0.043567	1.000000	0.000016	0.000007	0.000000	-10.628295	-75.901548	2.663035
03998	9.559423	-0.427710	2.330177	0.030355	0.010873	0.035876	1.000000	0.000015	-0.000003	0.000009	-10.631924	-75.902108	2.667810
03999	9.556569	-0.455971	2.350000	0.006256	-0.014158	0.039123	1.000000	0.000028	0.000012	0.000008	-10.636058	-75.904713	2.667165
04000	9.573042	-0.401967	2.369580	-0.001152	0.042368	0.057359	1.000000	0.000031	0.000013	0.000019	-10.641227	-75.903310	2.675286
04001	9.541381	-0.438279	2.343672	0.011759	0.002814	0.022082	1.000000	0.000024	-0.000009	0.000014	-10.650077	-75.901210	2.675335
04002	9.541363	-0.438474	2.343708	0.011691	0.002864	0.022082	1.000000	0.000006	0.000011	0.000014	-10.655861	-75.900021	2.681075
04003	9.548167	-0.425692	2.363417	-0.003501	0.018560	0.032823	1.000000	0.000018	0.000008	0.000011	-10.659233	-75.897947	2.680668
04004	9.556354	-0.456789	2.350715	0.006672	-0.013755	0.039124	1.000000	0.000018	0.000008	0.000011	-10.662944	-75.897206	2.685717
04005	9.566024	-0.415667	2.350583	0.015087	0.027064	0.046616	1.000000	0.000019	-0.000001	0.000002	-10.660916	-75.895120	2.682506
04006	9.530150	-0.436192	2.376809	-0.021530	0.010188	0.019030	1.000000	0.000021	0.000008	0.000023	-10.669299	-75.894045	2.692655
04007	9.548026	-0.426280	2.363880	-0.003675	0.018317	0.032824	1.000000	0.000034	0.000004	0.000020	-10.666635	-75.895691	2.700374
04008	9.559059	-0.429188	2.331399	0.029896	0.011184	0.035877	1.000000	0.000031	0.000004	0.000009	-10.668180	-75.895407	2.704709
04009	9.565898	-0.416258	2.350990	0.014732	0.026684	0.046618	1.000000	0.000006	0.000003	0.000004	-10.665174	-75.893954	2.702072
04010	9.538219	-0.467711	2.364494	-0.011646	-0.022564	0.025329	1.000000	0.000022	0.000018	0.000014	-10.668662	-75.891902	2.707309
04011	9.558903	-0.429504	2.331981	0.030549	0.011036	0.035875	1.000000	0.000024	0.000010	0.000015	-10.670157	-75.887387	2.708064
04012	9.547801	-0.426882	2.364678	-0.003133	0.018273	0.032824	1.000000	0.000021	-0.000001	0.000013	-10.674745	-75.887470	2.714394
04013	9.544934	-0.455206	2.384497	-0.026766	-0.007007	0.036071	1.000000	0.000018	0.000008	0.000011	-10.675022	-75.887766	2.716651
04014	9.540901	-0.440234	2.345260	0.011934	0.002573	0.022082	1.000000	0.000027	-0.000008	0.000025	-10.685201	-75.888464	2.729406
04015	9.547750	-0.427248	2.364818	-0.003610	0.018234	0.032824	1.000000	0.000023	0.000011	-0.000014	-10.675708	-75.888651	2.718820
04016	9.562768	-0.445219	2.371764	-0.008783	0.001569	0.049865	1.000000	0.000018	0.000016	0.000021	-10.683073	-75.886634	2.727608
04017	9.536577	-0.424507	2.397814	-0.038205	0.025315	0.029768	1.000000	0.000031	-0.000005	-0.000001	-10.676888	-75.892600	2.728313
04018	9.558695	-0.430023	2.332737	0.028997	0.010988	0.035880	1.000000	0.000028	0.000012	0.000008	-10.677476	-75.891407	2.731315
04019	9.514542	-0.419527	2.371990	-0.017301	0.026666	0.001988	1.000000	0.000031	0.000013	0.000019	-10.686521	-75.886636	2.733318
04020	9.558545	-0.430238	2.333313	0.029432	0.011269	0.035878	1.000000	0.000019	0.000018	0.000003	-10.685449	-75.884863	2.733464
04021	9.580415	-0.435411	2.359760	0.009030	0.010582	0.063659	1.000000	0.000021	0.000008	0.000023	-10.701419	-75.882943	2.737842
04022	9.536318	-0.425108	2.398738	-0.037805	0.026103	0.029767	1.000000	0.000021	-0.000011	0.000021	-10.711019	-75.884010	2.749110
04023	9.540467	-0.441092	2.346865	0.011744	0.003314	0.022082	1.000000	0.000009	0.000032	0.000008	-10.711769	-75.876783	2.743380
04024	9.562350	-0.446034	2.373297	-0.008774	0.002326	0.049865	1.000000	0.000044	-0.000009	-0.000003	-10.707738	-75.878074	2.743282
04025	9.572077	-0.404926	2.372974	0.000167	0.043359	0.057355	1.000000	-0.000001	-0.000001	0.000018	-10.720211	-75.872738	2.744572
04026	9.547216	-0.428385	2.366768	-0.002816	0.019308	0.032822	1.000000	0.000034	0.000024	0.000022	-10.725585	-75.869811	2.752913
04027	9.547146	-0.428504	2.367030	-0.002957	0.019264	0.032822	1.000000	0.000025	0.000001	0.000005	-10.724158	-75.870387	2.750810
04028	9.558182	-0.431318	2.334600	0.030634	0.012110	0.035873	1.000000	0.000028	0.000012	0.000008	-10.725056	-75.869036	2.753848
04029	9.555292	-0.459572	2.354487	0.007830	-0.013352	0.039123	1.000000	0.000021	-0.000001	0.000013	-10.720359	-75.865295	2.754396
04030	9.553901	-0.415584	2.386940	-0.017739	0.034753	0.043565	1.000000	0.000025	0.000012	-0.000003	-10.716555	-75.864199	2.752315
04031	9.564984	-0.418391	2.354327	0.016804	0.027490	0.046612	1.000000	0.000027	-0.000017	0.000015	-10.719670	-75.860455	2.754161
04032	9.558114	-0.431778	2.334794	0.032122	0.011885	0.035869	1.000000	0.000011	0.000012	0.000036	-10.734939	-75.858361	2.770037
04033	9.542955	-0.414204	2.328370	0.038107	0.028673	0.018822	1.000000	0.000031	0.000013	0.000019	-10.739919	-75.851508	2.770611
04034	9.579947	-0.437489	2.361278	0.012502	0.010990	0.063654	1.000000	0.000021	-0.000011	0.000021	-10.749580	-75.852304	2.781816
04035	9.546929	-0.429871	2.367657	-0.002105	0.019170	0.032823	1.000000	0.000018	0.000008	0.000011	-10.751607	-75.859720	2.786852
04036	9.540021	-0.442991	2.348318	0.013207	0.003565	0.022080	1.000000	0.000018	0.000008	0.000011	-10.755536	-75.858720	2.791873
04037	9.579859	-0.438004	2.361536	0.011114	0.011098	0.063656	1.000000	0.000027	0.000002	0.000017	-10.762675	-75.857625	2.794785
04038	9.531741	-0.412211	2.361367	0.003081	0.036140	0.015778	1.000000	0.000041	0.000008	0.000006	-10.761485	-75.856650	2.797107
04039	9.564726	-0.420085	2.355075	0.015111	0.027915	0.046614	1.000000	0.000021	-0.000001	0.000013	-10.767168	-75.863035	2.802354
04040	9.579772	-0.438225	2.361849	0.009940	0.011276	0.063657	1.000000	0.000018	0.000008	0.000011	-10.771184	-75.862083	2.807405
04041	9.550905	-0.446434	2.316408	0.045043	-0.003454	0.025137	1.000000	0.000018	0.000016	0.000021	-10.775926	-75.863900	2.814640
04042	9.564576	-0.420604	2.355592	0.014346	0.027962	0.046615	1.000000	0.000025	0.000001	0.000005	-10.777050	-75.863823	2.817476
04043	9.546610	-0.430897	2.368756	-0.003108	0.019645	0.032821	1.000000	0.000015	0.000006	0.000019	-10.785235	-75.857851	2.819111
04044	9.557635	-0.433969	2.336346	0.030487	0.012475	0.035873	1.000000	0.000024	0.000010	0.000015	-10.790078	-75.856511	2.825697
04045	9.561566	-0.449307	2.375835	-0.009158	0.003598	0.049864	1.000000	0.000024	0.000010	0.000015	-10.808343	-75.860022	2.829241
04046	9.557494	-0.434239	2.336876	0.029578	0.013127	0.035875	1.000000	0.000025	0.000020	0.000007	-10.808546	-75.857753	2.830991
04047	9.532673	-0.457473	2.330516	0.026014	-0.011278	0.011346	1.000000	0.000027	-0.000017	0.000015	-10.807450	-75.862930	2.837014
04048	9.564335	-0.421524	2.356405	0.013621	0.028592	0.046614	1.000000	0.000031	0.000013	0.000019	-10.813191	-75.861292	2.845173
04049	9.557411	-0.434698	2.337126	0.029375	0.013180	0.035876	1.000000	0.000018	0.000008	0.000011	-10.821689	-75.857594	2.844044
04050	9.571101	-0.408783	2.376244	-0.001299	0.044629	0.057349	1.000000	0.000031	0.000004	0.000009	-10.823826	-75.857131	2.848460
04051	9.557334	-0.434963	2.337395	0.028881	0.013180	0.035877	1.000000	0.000021	0.000008	0.000023	-10.829521	-75.858448	2.857352
04052	9.590297	-0.442956	2.331176	0.041983	0.004983	0.066716	1.000000	0.000016	0.000007	0.000000	-10.829135	-75.857836	2.857374
04053	9.546187	-0.432277	2.370209	-0.004328	0.020780	0.032819	1.000000	0.000021	-0.000001	0.000013	-10.838265	-75.854974	2.856981
04054	9.590250	-0.443134	2.331338	0.042394	0.005319	0.066714	1.000000	0.000018	0.000008	0.000011	-10.842578	-75.854027	2.862094
04055	9.539241	-0.445491	2.351011	0.010542	0.005337	0.022083	1.000000	0.000028	0.000012	0.000008	-10.846396	-75.854880	2.861843
04056	9.546027	-0.432815	2.370754	-0.004807	0.021112	0.032818	1.000000	0.000011	0.000013	0.000036	-10.862124	-75.852869	2.877819
04057	9.557066	-0.435966	2.338300	0.028744	0.013885	0.035877	1.000000	0.000019	-0.000001	0.000002	-10.861978	-75.853327	2.876326
04058	9.557038	-0.436026	2.338405	0.028711	0.013968	0.035877	1.000000	0.000024	0.000010	0.000015	-10.867150	-75.852022	2.882987
04059	9.563860	-0.423205	2.358031	0.012691	0.029517	0.046613	1.000000	0.000027	0.000002	0.000017	-10.868616	-75.855627	2.888232
04060	9.541908	-0.418342	2.331916	0.033133	0.030604	0.018834	1.000000	0.000012	0.000005	0.000008	-10.872207	-75.855090	2.891834
04061	9.535013	-0.431358	2.312555	0.047635	0.014676	0.008105	1.000000	0.000016	0.000007	0.000000	-10.865222	-75.859119	2.891327
04062	9.563745	-0.423349	2.358472	0.011792	0.029444	0.046614	1.000000	0.000034	0.000015	0.000012	-10.867283	-75.857448	2.895965
04063	9.538905	-0.446550	2.352174	0.008472	0.005208	0.022085	1.000000	0.000009	-0.000006	0.000005	-10.866503	-75.860007	2.896392
04064	9.545742	-0.433679	2.371745	-0.006890	0.020982	0.032817	1.000000	0.000031	0.000013	0.000019	-10.872400	-75.858411	2.904581
04065	9.571799	-0.454831	2.346188	0.021487	-0.002666	0.052927	1.000000	0.000018	0.000016	0.000021	-10.886375	-75.856381	2.908733
04066	9.563551	-0.423971	2.359148	0.011300	0.029812	0.046614	1.000000	0.000025	0.000001	0.000005	-10.887901	-75.856357	2.911665
04067	9.545584	-0.434188	2.372286	-0.007276	0.021507	0.032815	1.000000	0.000027	0.000002	0.000017	-10.894990	-75.857392	2.914071
04068	9.556647	-0.437256	2.339775	0.026287	0.014307	0.035883	1.000000	0.000027	0.000002	0.000017	-10.901180	-75.857070	2.922092
04069	9.563475	-0.424327	2.359390	0.012366	0.030103	0.046611	1.000000	0.000022	0.000010	0.000004	-10.900352	-75.847758	2.914518
04070	9.563469	-0.424549	2.359375	0.012333	0.030191	0.046611	1.000000	0.000017	-0.000013	0.000029	-10.914427	-75.848760	2.929432
04071	9.530439	-0.416962	2.365785	-0.013208	0.014959	0.015825	1.000000	0.000015	0.000016	0.000010	-10.362086	-75.926469	2.156084
04072	9.560538	-0.453067	2.379257	-0.023885	-0.018581	0.049822	1.000000	0.000012	-0.000014	0.000006	-10.362159	-75.928761	2.154924
04073	9.578478	-0.442929	2.366216	-0.005706	-0.010374	0.063661	1.000000	0.000038	0.000017	0.000004	-10.356329	-75.927624	2.149401
04074	9.531669	-0.461116	2.333902	0.011607	-0.033560	0.011323	1.000000	0.000024	0.000010	0.000015	-10.356939	-75.927004	2.150267
04075	9.563289	-0.425062	2.360013	-0.000713	0.006127	0.046663	1.000000	0.000028	0.000012	0.000008	-10.354072	-75.926287	2.149440
04076	9.581206	-0.415023	2.347055	0.017468	0.014309	0.060504	1.000000	0.000021	-0.000001	0.000013	-10.354814	-75.926939	2.150068
04077	9.541300	-0.420314	2.334048	0.019529	0.006877	0.018916	1.000000	0.000024	0.000010	0.000015	-10.355635	-75.926327	2.155537
04078	9.545227	-0.435423	2.373495	-0.019456	-0.002503	0.032822	1.000000	0.000028	0.000003	-0.000002	-10.348653	-75.926835	2.149031
04079	9.581124	-0.415174	2.347362	0.017053	0.013991	0.060505	1.000000	0.000021	-0.000001	0.000013	-10.349810	-75.927436	2.148641
04080	9.538324	-0.448565	2.354148	-0.004480	-0.018457	0.022071	1.000000	0.000018	0.000008	0.000011	-10.349616	-75.927181	2.147955
04081	9.554887	-0.394630	2.373529	-0.011531	0.037945	0.040417	1.000000	0.000018	0.000016	0.000021	-10.353555	-75.925786	2.151367
04082	9.556155	-0.438908	2.341473	0.013549	-0.010377	0.035914	1.000000	0.000021	-0.000001	0.000013	-10.354297	-75.926439	2.151993
04083	9.596009	-0.433868	2.354645	0.011176	-0.003153	0.077503	1.000000	0.000031	0.000004	0.000009	-10.352318	-75.926806	2.150832
04084	9.562985	-0.425983	2.361077	-0.002007	0.005156	0.046664	1.000000	0.000025	0.000001	0.000005	-10.349198	-75.927387	2.147892
04085	9.556091	-0.439065	2.341705	0.013087	-0.010689	0.035914	1.000000	0.000018	0.000008	0.000011	-10.349474	-75.927197	2.143700
04086	9.560006	-0.454261	2.381166	-0.025905	-0.020051	0.049814	1.000000	0.000037	0.000006	0.000013	-10.347958	-75.927046	2.143858
04087	9.547816	-0.408342	2.354766	0.002841	0.021549	0.029669	1.000000	0.000021	0.000008	0.000023	-10.352512	-75.926509	2.154149
04088	9.555945	-0.439606	2.342197	0.012663	-0.011029	0.035914	1.000000	0.000018	0.000008	0.000011	-10.352317	-75.926253	2.153462
04089	9.562776	-0.426662	2.361802	-0.002758	0.004628	0.046664	1.000000	0.000031	0.000004	0.000009	-10.350517	-75.926671	2.150446
04090	9.540819	-0.421785	2.335747	0.017632	0.005474	0.018920	1.000000	0.000024	0.000010	0.000015	-10.351123	-75.926049	2.151308
04091	9.555830	-0.439873	2.342619	0.012185	-0.011336	0.035914	1.000000	0.000025	0.000001	0.000005	-10.348445	-75.926733	2.145143
04092	9.584580	-0.431882	2.388410	-0.023728	0.003347	0.074406	1.000000	0.000018	0.000008	0.000011	-10.348249	-75.926477	2.144455
04093	9.547596	-0.409036	2.355536	0.001937	0.020915	0.029670	1.000000	0.000021	-0.000001	0.000013	-10.349308	-75.927226	2.145063
04094	9.570779	-0.458109	2.349708	0.006453	-0.028379	0.052907	1.000000	0.000013	0.000015	-0.000001	-10.343511	-75.926356	2.137946
04095	9.562561	-0.427105	2.362590	-0.003631	0.003984	0.046664	1.000000	0.000021	-0.000001	0.000013	-10.344456	-75.926984	2.139693
04096	9.573628	-0.430173	2.330110	0.029792	-0.003612	0.049763	1.000000	0.000018	0.000008	0.000011	-10.344260	-75.926728	2.139005
04097	9.555597	-0.440500	2.343450	0.011295	-0.011989	0.035915	1.000000	0.000018	0.000017	0.000021	-10.348143	-75.925448	2.141539
04098	9.537610	-0.450814	2.356609	-0.007171	-0.020376	0.022066	1.000000	0.000018	-0.000011	0.000010	-10.349019	-75.927373	2.141929
04099	9.562424	-0.427927	2.362996	-0.004238	0.003557	0.046664	1.000000	0.000027	0.000011	0.000026	-10.354674	-75.926540	2.148535
04100	9.544404	-0.438355	2.376266	-0.022704	-0.004828	0.032814	1.000000	0.000015	0.000006	0.000019	-10.358338	-75.926356	2.151412
04101	9.562333	-0.428497	2.363262	-0.004548	0.003347	0.046663	1.000000	0.000027	0.000002	0.000017	-10.360326	-75.926806	2.153383
04102	9.529296	-0.420742	2.369717	-0.017713	0.011675	0.015822	1.000000	0.000018	0.000008	0.000011	-10.360129	-75.926550	2.152693
04103	9.577311	-0.446802	2.370208	-0.010141	-0.013581	0.063654	1.000000	0.000021	-0.000001	0.000013	-10.361143	-75.927260	2.153756
04104	9.565170	-0.400832	2.343692	0.018651	0.027993	0.043524	1.000000	0.000018	0.000008	0.000011	-10.360945	-75.927004	2.153066
04105	9.548447	-0.455180	2.324824	0.025340	-0.028615	0.025167	1.000000	0.000031	0.000013	0.000019	-10.362570	-75.926054	2.156400
04106	9.573244	-0.432136	2.331326	0.028293	-0.004702	0.049767	1.000000	0.000019	-0.000001	0.000002	-10.358648	-75.927000	2.151910
04107	9.562137	-0.429174	2.363934	-0.005413	0.002691	0.046663	1.000000	0.000031	0.000004	0.000009	-10.356534	-75.927244	2.153033
04108	9.562100	-0.429254	2.364066	-0.005553	0.002577	0.046663	1.000000	0.000018	0.000008	0.000011	-10.356335	-75.926988	2.152342
04109	9.540134	-0.424462	2.338060	0.014840	0.003422	0.018926	1.000000	0.000031	0.000013	0.000019	-10.358048	-75.926030	2.154540
04110	9.562000	-0.429768	2.364379	-0.005839	0.002362	0.046663	1.000000	0.000014	-0.000005	0.000027	-10.366511	-75.926823	2.162297
04111	9.561942	-0.430100	2.364554	-0.005989	0.002258	0.046663	1.000000	0.000028	0.000021	0.000018	-10.367203	-75.924979	2.164011
04112	9.555007	-0.443267	2.345332	0.009100	-0.013623	0.035915	1.000000	0.000006	0.000003	0.000004	-10.365403	-75.925454	2.160224
04113	9.539925	-0.425234	2.338773	0.014248	0.002991	0.018927	1.000000	0.000038	0.000017	0.000004	-10.359545	-75.924454	2.152818
04114	9.561782	-0.430225	2.365176	-0.006433	0.001935	0.046663	1.000000	0.000021	-0.000001	0.000013	-10.360284	-75.925105	2.153441
04115	9.579743	-0.420288	2.352083	0.011731	0.010092	0.060518	1.000000	0.000021	-0.000001	0.000013	-10.361426	-75.925896	2.153013
04116	9.561740	-0.430526	2.365293	-0.006739	0.001723	0.046663	1.000000	0.000024	0.000010	0.000015	-10.362026	-75.925273	2.153868
04117	9.539802	-0.425644	2.339198	0.013650	0.002560	0.018928	1.000000	0.000025	0.000001	0.000005	-10.359200	-75.925933	2.150772
04118	9.561676	-0.430558	2.365545	-0.007034	0.001508	0.046662	1.000000	0.000041	0.000008	0.000006	-10.353816	-75.925710	2.147357
04119	9.561640	-0.430639	2.365677	-0.007172	0.001401	0.046662	1.000000	0.000009	0.000003	0.000015	-10.356853	-75.925878	2.147481
04120	9.554740	-0.443667	2.346344	0.007910	-0.014486	0.035915	1.000000	0.000038	0.000008	-0.000005	-10.346806	-75.925950	2.138953
04121	9.579541	-0.420469	2.352873	0.010872	0.009424	0.060519	1.000000	0.000018	0.000008	0.000011	-10.346644	-75.925721	2.142909
04122	9.546494	-0.412666	2.359364	-0.002276	0.017770	0.029677	1.000000	0.000018	0.000008	0.000011	-10.346442	-75.925464	2.142216
04123	9.554600	-0.443800	2.346889	0.007469	-0.014818	0.035915	1.000000	0.000028	0.000012	0.000008	-10.343421	-75.924850	2.138599
04124	9.561397	-0.430897	2.366613	-0.007893	0.000843	0.046662	1.000000	0.000012	0.000014	0.000017	-10.346142	-75.923756	2.140155
04125	9.539472	-0.426077	2.340466	0.012494	0.001672	0.018930	1.000000	0.000028	-0.000007	0.000007	-10.344197	-75.925346	2.138746
04126	9.539497	-0.426104	2.340361	0.012354	0.001558	0.018930	1.000000	0.000009	-0.000006	0.000005	-10.343335	-75.926728	2.136273
04127	9.558403	-0.459268	2.386631	-0.032007	-0.024430	0.049786	1.000000	0.000028	0.000021	0.000018	-10.344032	-75.924913	2.135036
04128	9.557360	-0.416295	2.327661	0.030392	0.009578	0.032790	1.000000	0.000006	0.000003	0.000004	-10.342230	-75.925387	2.131248
04129	9.561262	-0.431354	2.367071	-0.008648	0.000300	0.046661	1.000000	0.000031	0.000004	0.000009	-10.340085	-75.925714	2.132848
04130	9.521366	-0.436496	2.354042	-0.006571	-0.007123	0.005070	1.000000	0.000031	0.000004	0.000009	-10.337760	-75.925927	2.131450
04131	9.579174	-0.421399	2.354201	0.009392	0.008320	0.060522	1.000000	0.000018	0.000008	0.000011	-10.337796	-75.925733	2.130438
04132	9.569328	-0.462587	2.354737	0.000803	-0.032521	0.052897	1.000000	0.000025	0.000001	0.000005	-10.334671	-75.926312	2.127492
04133	9.539267	-0.426636	2.341201	0.011311	0.000795	0.018931	1.000000	0.000021	-0.000001	0.000013	-10.335734	-75.927066	2.127985
04134	9.572232	-0.434742	2.334992	0.024168	-0.007793	0.049776	1.000000	0.000024	0.000010	0.000015	-10.336330	-75.926443	2.128837
04135	9.539198	-0.426955	2.341423	0.011022	0.000574	0.018932	1.000000	0.000021	-0.000001	0.000013	-10.337265	-75.927143	2.129731
04136	9.546041	-0.414033	2.360957	-0.004332	0.016243	0.029679	1.000000	0.000018	0.000008	0.000011	-10.337062	-75.926886	2.129036
04137	9.572125	-0.435174	2.335350	0.023709	-0.008121	0.049776	1.000000	0.000018	0.000008	0.000011	-10.337119	-75.926787	2.129585
04138	9.554095	-0.445386	2.348644	0.005234	-0.016467	0.035913	1.000000	0.000024	0.000010	0.000015	-10.337714	-75.926163	2.130436
04139	9.539031	-0.427559	2.341995	0.010418	0.000137	0.018932	1.000000	0.000027	0.000002	0.000017	-10.339507	-75.926540	2.132344
04140	9.554035	-0.445655	2.348837	0.004936	-0.016686	0.035913	1.000000	0.000025	0.000001	0.000005	-10.336382	-75.927119	2.129398
04141	9.560876	-0.432572	2.368410	-0.010435	-0.001002	0.046660	1.000000	0.000022	0.000010	0.000004	-10.332618	-75.926899	2.125143
04142	9.545811	-0.414666	2.361778	-0.005232	0.015592	0.029679	1.000000	0.000034	0.000004	0.000020	-10.334952	-75.926817	2.128855
04143	9.560808	-0.432861	2.368630	-0.010725	-0.001217	0.046659	1.000000	0.000021	-0.000001	0.000013	-10.335991	-75.927516	2.126860
04144	9.556844	-0.418098	2.329454	0.028024	0.007812	0.032798	1.000000	0.000018	0.000017	0.000021	-10.339506	-75.926055	2.129958
04145	9.542730	-0.443274	2.382067	-0.029352	-0.009656	0.032793	1.000000	0.000019	-0.000001	0.000002	-10.335816	-75.927059	2.124609
04146	9.545662	-0.415273	2.362271	-0.005808	0.015159	0.029679	1.000000	0.000024	0.000010	0.000015	-10.336410	-75.926435	2.125458
04147	9.571721	-0.436498	2.336759	0.022231	-0.009225	0.049779	1.000000	0.000031	0.000013	0.000019	-10.337987	-75.925519	2.129350
04148	9.560549	-0.433575	2.369546	-0.011451	-0.001768	0.046658	1.000000	0.000022	0.000010	0.000004	-10.333920	-75.925191	2.125086
04149	9.553649	-0.446702	2.350208	0.003612	-0.017670	0.035912	1.000000	0.000021	-0.000001	0.000013	-10.334734	-75.925846	2.128040
04150	9.545467	-0.415705	2.362984	-0.006381	0.014715	0.029680	1.000000	0.000028	0.000012	0.000008	-10.331465	-75.925151	2.125321
04151	9.553592	-0.446820	2.350418	0.003323	-0.017891	0.035912	1.000000	0.000009	-0.000006	0.000005	-10.330788	-75.926573	2.124167
04152	9.556531	-0.418906	2.330595	0.026873	0.006918	0.032802	1.000000	0.000031	0.000013	0.000019	-10.332179	-75.925582	2.126560
04153	9.557397	-0.462164	2.390102	-0.035875	-0.027240	0.049766	1.000000	0.000006	0.000011	0.000014	-10.334346	-75.924974	2.128208
04154	9.556436	-0.419349	2.330905	0.026572	0.006698	0.032803	1.000000	0.000030	-0.000006	0.000018	-10.336821	-75.926164	2.131689
04155	9.549223	-0.431486	2.402788	-0.046022	0.005054	0.043533	1.000000	0.000027	0.000002	0.000017	-10.338725	-75.926551	2.130897
04156	9.556390	-0.419725	2.331025	0.026274	0.006481	0.032804	1.000000	0.000024	0.000010	0.000015	-10.339316	-75.925926	2.131743
04157	9.571349	-0.437811	2.338040	0.020754	-0.010334	0.049781	1.000000	0.000022	0.000010	0.000004	-10.335415	-75.925712	2.132215
04158	9.560169	-0.434821	2.370849	-0.012925	-0.002864	0.046656	1.000000	0.000015	0.000016	0.000010	-10.334266	-75.924547	2.130198
04159	9.560123	-0.434952	2.371011	-0.013090	-0.002966	0.046656	1.000000	0.000021	-0.000001	0.000013	-10.335296	-75.925339	2.131892
04160	9.538235	-0.430211	2.344748	0.007331	-0.002169	0.018935	1.000000	0.000036	-0.000004	0.000022	-10.338569	-75.926163	2.136918
04161	9.571199	-0.438424	2.338538	0.020150	-0.010773	0.049782	1.000000	0.000006	0.000011	0.000014	-10.340718	-75.925524	2.138531
04162	9.545030	-0.417580	2.364417	-0.008164	0.013410	0.029680	1.000000	0.000027	0.000002	0.000017	-10.342251	-75.925807	2.140694
04163	9.560005	-0.435749	2.371339	-0.013674	-0.003394	0.046655	1.000000	0.000018	0.000008	0.000011	-10.342413	-75.925572	2.134371
04164	9.553123	-0.448892	2.351931	0.001382	-0.019308	0.035909	1.000000	0.000028	-0.000007	0.000007	-10.340229	-75.927058	2.132741
04165	9.544978	-0.417866	2.364580	-0.008602	0.013096	0.029680	1.000000	0.000018	0.000008	0.000011	-10.340300	-75.926889	2.132755
04166	9.556009	-0.420930	2.332368	0.024793	0.005382	0.032809	1.000000	0.000035	0.000025	0.000003	-10.333021	-75.924850	2.126692
04167	9.559853	-0.435862	2.371932	-0.014270	-0.003823	0.046654	1.000000	0.000009	-0.000006	0.000005	-10.332496	-75.926331	2.121321
04168	9.562845	-0.407974	2.351932	0.009302	0.020967	0.043555	1.000000	0.000036	-0.000004	0.000022	-10.335768	-75.927155	2.126346
04169	9.549088	-0.434433	2.313055	0.039541	-0.010749	0.022065	1.000000	0.000024	-0.000000	0.000024	-10.341347	-75.927547	2.131634
04170	9.552961	-0.449579	2.352455	0.000493	-0.019961	0.035908	1.000000	0.000006	0.000003	0.000004	-10.339542	-75.928021	2.127843
04171	9.577775	-0.426553	2.358961	0.003495	0.003932	0.060528	1.000000	0.000015	0.000016	0.000010	-10.338542	-75.926888	2.127592
04172	9.552838	-0.449809	2.352910	0.000205	-0.020183	0.035908	1.000000	0.000024	0.000010	0.000015	-10.339129	-75.926262	2.128433
04173	9.577641	-0.426877	2.359446	0.003207	0.003710	0.060529	1.000000	0.000024	0.000010	0.000015	-10.339886	-75.925676	2.131679
04174	9.555682	-0.422043	2.333508	0.023635	0.004494	0.032812	1.000000	0.000025	0.000020	0.000007	-10.335668	-75.924074	2.127636
04175	9.570624	-0.440337	2.340531	0.018099	-0.012314	0.049784	1.000000	0.000002	-0.000001	0.000030	-10.346568	-75.924477	2.133170
04176	9.552635	-0.450713	2.353563	-0.000383	-0.020619	0.035907	1.000000	0.000024	-0.000009	0.000014	-10.348246	-75.926032	2.135106
04177	9.559511	-0.437718	2.372969	-0.015727	-0.004914	0.046651	1.000000	0.000031	0.000004	0.000009	-10.346170	-75.926329	2.134895
04178	9.537562	-0.432941	2.346983	0.004703	-0.004132	0.018936	1.000000	0.000009	0.000022	0.000016	-10.347931	-75.924325	2.135117
04179	9.577366	-0.427974	2.360364	0.002323	0.003058	0.060529	1.000000	0.000025	0.000001	0.000005	-10.345105	-75.924960	2.131119
04180	9.552468	-0.451058	2.354175	-0.000974	-0.021053	0.035906	1.000000	0.000022	0.000010	0.000004	-10.341033	-75.924631	2.126850
04181	9.551161	-0.406941	2.386413	-0.026105	0.027172	0.040425	1.000000	0.000024	0.000010	0.000015	-10.341866	-75.924042	2.128796
04182	9.577249	-0.428346	2.360771	0.001895	0.002725	0.060529	1.000000	0.000014	-0.000005	0.000027	-10.350322	-75.924830	2.136543
04183	9.537322	-0.433768	2.347804	0.003970	-0.004673	0.018936	1.000000	0.000028	0.000021	0.000018	-10.350925	-75.923016	2.142066
04184	9.559152	-0.438869	2.374201	-0.016744	-0.005680	0.046649	1.000000	0.000024	-0.000009	0.000014	-10.352604	-75.924571	2.144003
04185	9.537231	-0.433924	2.348146	0.003680	-0.004889	0.018936	1.000000	0.000020	0.000028	-0.000006	-10.343073	-75.922407	2.131802
04186	9.562033	-0.410712	2.354757	0.006700	0.018991	0.043561	1.000000	0.000025	0.000001	0.000005	-10.339945	-75.922985	2.128853
04187	9.552121	-0.451828	2.355433	-0.002010	-0.021813	0.035904	1.000000	0.000028	0.000012	0.000008	-10.336907	-75.922388	2.127552
04188	9.561954	-0.410895	2.355046	0.006404	0.018772	0.043561	1.000000	0.000024	-0.000000	0.000024	-10.342296	-75.922739	2.133276
04189	9.570023	-0.442235	2.342628	0.016033	-0.013852	0.049785	1.000000	0.000015	0.000016	0.000010	-10.341413	-75.921676	2.131704
04190	9.561877	-0.411343	2.355279	0.006106	0.018554	0.043562	1.000000	0.000021	-0.000011	0.000021	-10.346952	-75.923300	2.137205
04191	9.569959	-0.442561	2.342829	0.015741	-0.014075	0.049786	1.000000	0.000010	0.000024	-0.000002	-10.340347	-75.921581	2.131461
04192	9.536908	-0.434471	2.349356	0.002653	-0.005661	0.018936	1.000000	0.000043	0.000000	0.000007	-10.335894	-75.922263	2.129353
04193	9.536900	-0.434614	2.349363	0.002498	-0.005763	0.018936	1.000000	-0.000001	-0.000001	0.000018	-10.342112	-75.922955	2.130639
04194	9.569866	-0.442947	2.343135	0.015303	-0.014409	0.049786	1.000000	0.000015	0.000006	0.000019	-10.345760	-75.922765	2.133497
04195	9.539848	-0.407160	2.329544	0.025939	0.018898	0.015854	1.000000	0.000027	0.000002	0.000017	-10.347659	-75.923187	2.133817
04196	9.558673	-0.440245	2.375877	-0.018527	-0.006973	0.046645	1.000000	0.000018	0.000008	0.000011	-10.347446	-75.922928	2.133110
04197	9.562868	-0.456600	2.324110	0.030015	-0.030551	0.039042	1.000000	0.000024	0.000010	0.000015	-10.348233	-75.922393	2.136653
04198	9.561589	-0.412724	2.356205	0.004925	0.017680	0.043564	1.000000	0.000020	-0.000002	0.000031	-10.357483	-75.922812	2.145940
04199	9.551650	-0.454144	2.356897	-0.003796	-0.023120	0.035901	1.000000	0.000015	0.000016	0.000010	-10.356504	-75.921685	2.145252
04200	9.554606	-0.426054	2.337184	0.019813	0.001636	0.032821	1.000000	0.000038	0.000008	-0.000005	-10.346450	-75.921758	2.136716
04201	9.576422	-0.430940	2.363653	-0.000917	0.000650	0.060530	1.000000	0.000006	0.000011	0.000014	-10.348597	-75.921077	2.136494
04202	9.529653	-0.449341	2.331151	0.016352	-0.022571	0.008192	1.000000	0.000030	-0.000006	0.000018	-10.351070	-75.922265	2.139972
04203	9.554515	-0.426332	2.337505	0.019368	0.001313	0.032822	1.000000	0.000022	0.000010	0.000004	-10.347299	-75.922023	2.135296
04204	9.543332	-0.423293	2.370250	-0.014291	0.008862	0.029679	1.000000	0.000024	0.000010	0.000015	-10.347879	-75.921397	2.136131
04205	9.561293	-0.413405	2.357290	0.003903	0.016918	0.043566	1.000000	0.000031	0.000004	0.000009	-10.345779	-75.921678	2.135803
04206	9.569347	-0.444522	2.344956	0.013523	-0.015726	0.049786	1.000000	0.000019	0.000018	0.000003	-10.340757	-75.920442	2.130209
04207	9.576173	-0.431618	2.364538	-0.001802	-0.000002	0.060530	1.000000	0.000039	-0.000003	0.000033	-10.348966	-75.921038	2.138484
04208	9.554259	-0.426944	2.338438	0.018641	0.000759	0.032824	1.000000	0.000000	0.000019	0.000001	-10.345267	-75.919697	2.132048
04209	9.561061	-0.413904	2.358140	0.003313	0.016484	0.043567	1.000000	0.000043	0.000009	0.000017	-10.344823	-75.919284	2.132519
04210	9.551131	-0.455220	2.358791	-0.005424	-0.024316	0.035897	1.000000	0.000018	-0.000003	0.000020	-10.349415	-75.920000	2.136696
04211	9.579030	-0.404273	2.345113	0.021371	0.024419	0.057457	1.000000	0.000025	0.000001	0.000005	-10.346550	-75.920644	2.132545
04212	9.569103	-0.445518	2.345764	0.012629	-0.016381	0.049787	1.000000	0.000015	0.000006	0.000019	-10.350194	-75.920453	2.135400
04213	9.560945	-0.414624	2.358487	0.002733	0.016047	0.043568	1.000000	0.000024	0.000010	0.000015	-10.351002	-75.919888	2.135163
04214	9.568953	-0.445885	2.346306	0.012335	-0.016602	0.049787	1.000000	0.000037	0.000026	0.000014	-10.348359	-75.917551	2.134189
04215	9.542822	-0.424822	2.372030	-0.015910	0.007684	0.029677	1.000000	0.000015	-0.000022	0.000008	-10.349689	-75.920827	2.130655
04216	9.550936	-0.456099	2.359411	-0.006313	-0.024966	0.035895	1.000000	0.000031	0.000013	0.000019	-10.351060	-75.919832	2.133027
04217	9.557805	-0.443127	2.378829	-0.021626	-0.009237	0.046637	1.000000	0.000012	-0.000014	0.000006	-10.351348	-75.922176	2.132695
04218	9.575813	-0.433193	2.365707	-0.003417	-0.001206	0.060529	1.000000	0.000028	0.000012	0.000008	-10.348063	-75.921479	2.129960
04219	9.571918	-0.418373	2.326493	0.035369	0.007697	0.046720	1.000000	0.000012	0.000005	0.000008	-10.347272	-75.921657	2.129198
04220	9.557716	-0.443329	2.379149	-0.022061	-0.009567	0.046636	1.000000	0.000018	0.000008	0.000011	-10.347054	-75.921396	2.128487
04221	9.568803	-0.446603	2.346781	0.011294	-0.017367	0.049786	1.000000	0.000018	0.000008	0.000011	-10.347102	-75.921212	2.126776
04222	9.561843	-0.459813	2.327690	0.026311	-0.033320	0.039044	1.000000	0.000031	0.000023	0.000010	-10.343663	-75.919242	2.124259
04223	9.568670	-0.446898	2.347265	0.010997	-0.017586	0.049786	1.000000	0.000027	-0.000008	0.000025	-10.350223	-75.920581	2.135153
04224	9.553686	-0.428920	2.340418	0.016289	-0.000999	0.032828	1.000000	0.000038	0.000008	-0.000005	-10.340165	-75.920655	2.126613
04225	9.542566	-0.425660	2.372910	-0.017378	0.006601	0.029675	1.000000	0.000012	-0.000014	0.000006	-10.340592	-75.923043	2.124612
04226	9.545576	-0.397892	2.352977	0.006269	0.031326	0.026613	1.000000	0.000024	0.000019	0.000025	-10.344872	-75.921209	2.129222
04227	9.535583	-0.439242	2.353844	-0.002515	-0.009455	0.018933	1.000000	0.000018	0.000008	0.000011	-10.344915	-75.921024	2.127880
04228	9.560466	-0.416297	2.360131	0.000541	0.014407	0.043571	1.000000	0.000024	-0.000009	0.000014	-10.346594	-75.922577	2.129815
04229	9.590408	-0.452469	2.373888	-0.010489	-0.019098	0.077485	1.000000	0.000018	0.000008	0.000011	-10.346625	-75.922381	2.127919
04230	9.571546	-0.419653	2.327791	0.033757	0.006477	0.046726	1.000000	0.000022	0.000010	0.000004	-10.342545	-75.922052	2.123641
04231	9.560383	-0.416550	2.360424	0.000101	0.014085	0.043571	1.000000	0.000021	-0.000001	0.000013	-10.343522	-75.922754	2.122859
04232	9.560341	-0.416731	2.360562	-0.000039	0.013971	0.043572	1.000000	0.000031	0.000013	0.000019	-10.344888	-75.921759	2.125226
04233	9.557227	-0.444931	2.380815	-0.023994	-0.010963	0.046630	1.000000	0.000006	0.000011	0.000014	-10.347009	-75.921133	2.126924
04234	9.568318	-0.448307	2.348431	0.009369	-0.018795	0.049786	1.000000	0.000027	0.000002	0.000017	-10.348531	-75.921412	2.129075
04235	9.542175	-0.427282	2.374190	-0.018838	0.005521	0.029673	1.000000	0.000018	0.000008	0.000011	-10.348540	-75.921196	2.127053
04236	9.575135	-0.435476	2.368030	-0.006072	-0.003167	0.060527	1.000000	0.000021	-0.000001	0.000013	-10.349269	-75.921842	2.127664
04237	9.535233	-0.440704	2.354987	-0.003976	-0.010545	0.018931	1.000000	0.000024	0.000010	0.000015	-10.350045	-75.921251	2.128070
04238	9.581945	-0.422664	2.387654	-0.021509	0.012462	0.071269	1.000000	0.000021	-0.000001	0.000013	-10.350773	-75.921897	2.128680
04239	9.510396	-0.424072	2.106600	0.230489	-0.030153	-0.065318	1.000000	0.000009	-0.000015	-0.000005	-10.346412	-75.924546	2.124117
04240	9.657498	-0.396507	2.465544	-0.074940	0.050364	0.162043	1.000000	-0.000033	-0.000007	0.000028	-10.360583	-75.925555	2.132203
04241	9.558920	-0.373854	2.393092	-0.026202	0.061387	0.048102	1.000000	0.000107	0.000020	-0.000002	-10.343517	-75.924335	2.125549
04242	9.595769	-0.555773	2.442411	-0.089285	-0.111682	0.103591	1.000000	0.000041	0.000028	0.000007	-10.337000	-75.921928	2.120999
04243	9.484403	-0.444540	2.283968	0.051489	-0.025357	-0.047201	1.000000	-0.000026	0.000025	0.000024	-10.346233	-75.919472	2.127294
04244	9.555504	-0.402199	2.414498	-0.050437	0.036238	0.051154	1.000000	0.000012	0.000014	0.000017	-10.348921	-75.918372	2.128818
04245	9.515557	-0.407430	2.401631	-0.048339	0.028868	0.009557	1.000000	0.000034	0.000015	0.000012	-10.346658	-75.917366	2.126515
04246	9.567709	-0.449823	2.350621	0.007607	-0.020119	0.049785	1.000000	0.000041	0.000008	0.000006	-10.341251	-75.917141	2.123077
04247	9.541629	-0.428616	2.376143	-0.020584	0.004215	0.029670	1.000000	0.000015	-0.000022	0.000008	-10.342511	-75.920384	2.122899
04248	9.581972	-0.425264	2.297771	0.064629	-0.003270	0.049898	1.000000	0.000024	0.000000	0.000024	-10.347891	-75.920730	2.128611
04249	9.559666	-0.419067	2.362879	-0.002528	0.012109	0.043574	1.000000	0.000031	0.000004	0.000009	-10.345777	-75.921046	2.129237
04250	9.600194	-0.456757	2.435895	-0.067692	-0.014503	0.102006	1.000000	0.000038	0.000036	0.000005	-10.338308	-75.917732	2.123359
04251	9.488252	-0.461903	2.233578	0.098958	-0.049849	-0.054774	1.000000	-0.000000	0.000009	0.000010	-10.339619	-75.917416	2.121711
04252	9.548269	-0.416040	2.396393	-0.036453	0.019524	0.040410	1.000000	0.000012	0.000005	0.000008	-10.338604	-75.917522	2.119456
04253	9.565565	-0.363401	2.323683	0.044539	0.061283	0.037483	1.000000	0.000040	-0.000021	0.000013	-10.339294	-75.920487	2.123285
04254	9.574445	-0.437512	2.370442	-0.008707	-0.005144	0.060525	1.000000	0.000018	-0.000003	0.000020	-10.343881	-75.921200	2.127457
04255	9.567466	-0.450894	2.351405	0.006277	-0.021108	0.049784	1.000000	0.000022	0.000038	0.000015	-10.342606	-75.917558	2.123941
04256	9.559293	-0.419798	2.364260	-0.003535	0.011336	0.043574	1.000000	0.000019	-0.000001	0.000002	-10.338681	-75.918503	2.119448
04257	9.544325	-0.401925	2.357364	0.001788	0.027928	0.026625	1.000000	0.000024	0.000000	0.000024	-10.344230	-75.918889	2.124136
04258	9.592272	-0.428115	2.358016	0.009065	0.002519	0.074431	1.000000	0.000031	-0.000005	-0.000001	-10.338188	-75.920305	2.118943
04259	9.560473	-0.464324	2.332418	0.020827	-0.037414	0.039043	1.000000	0.000018	0.000008	0.000011	-10.338107	-75.920111	2.118716
04260	9.549289	-0.461222	2.365075	-0.012809	-0.029767	0.035875	1.000000	0.000012	0.000005	0.000008	-10.337090	-75.920216	2.116460
04261	9.552337	-0.433388	2.345095	0.010871	-0.005075	0.032834	1.000000	0.000021	-0.000001	0.000013	-10.338035	-75.920920	2.115387
04262	9.408659	-0.396127	2.494423	-0.161889	0.051681	-0.072408	1.000000	0.000064	0.000058	-0.000007	-10.320406	-75.915392	2.102105
04263	9.661471	-0.577246	2.251487	0.108458	-0.160525	0.122547	1.000000	0.000021	0.000008	0.000022	-10.325025	-75.914850	2.102901
04264	9.547648	-0.417201	2.398668	-0.038177	0.018228	0.040406	1.000000	-0.000025	0.000036	0.000015	-10.329250	-75.911360	2.101628
04265	9.715313	-0.388810	2.196961	0.200309	0.018904	0.153487	1.000000	-0.000001	-0.000010	0.000009	-10.331682	-75.913252	2.106355
04266	9.426823	-0.388333	2.391119	-0.056500	0.044654	-0.079854	1.000000	0.000050	-0.000006	0.000001	-10.324315	-75.914772	2.102003
04267	9.554512	-0.404224	2.418083	-0.053759	0.033769	0.051145	1.000000	0.000034	-0.000004	0.000011	-10.323121	-75.915980	2.104700
04268	9.545738	-0.489610	2.386962	-0.037826	-0.055430	0.038907	1.000000	0.000041	0.000008	0.000006	-10.317709	-75.915753	2.101257
04269	9.601476	-0.505838	2.224409	0.129468	-0.094420	0.054760	1.000000	-0.000013	-0.000006	0.000011	-10.322274	-75.917139	2.099333
04270	9.543805	-0.402888	2.359305	-0.000080	0.026496	0.026629	1.000000	0.000003	0.000001	0.000011	-10.324325	-75.917680	2.099100
04271	9.565604	-0.408018	2.385700	-0.022742	0.027158	0.054307	1.000000	0.000021	0.000008	0.000022	-10.368920	-75.927886	2.147598
04272	9.543791	-0.403251	2.359297	-0.002271	0.027876	0.026625	1.000000	0.000037	-0.000022	0.000002	-10.364953	-75.931161	2.145249
04273	9.573691	-0.439211	2.373172	-0.013403	-0.005618	0.060519	1.000000	0.000050	0.000022	0.000012	-10.360426	-75.929383	2.145450
04274	9.517408	-0.500306	2.250104	0.082721	-0.084256	-0.020834	1.000000	0.000002	-0.000010	0.000020	-10.367463	-75.930942	2.150299
04275	9.569834	-0.424890	2.333871	0.025267	0.003087	0.046753	1.000000	-0.000000	0.000009	0.000010	-10.368897	-75.930678	2.149667
04276	9.553649	-0.362677	2.358954	0.005842	0.068112	0.034329	1.000000	0.000037	0.000006	0.000013	-10.367509	-75.930564	2.149970
04277	9.591541	-0.429866	2.360669	0.004339	0.002051	0.074434	1.000000	0.000035	0.000025	0.000003	-10.360451	-75.928625	2.144798
04278	9.566517	-0.452781	2.354903	0.000961	-0.022015	0.049784	1.000000	0.000047	0.000021	0.000001	-10.351174	-75.927102	2.138177
04279	9.536537	-0.416811	2.341364	0.011790	0.011271	0.015892	1.000000	0.000021	0.000008	0.000022	-10.355872	-75.926638	2.144820
04280	9.570202	-0.467592	2.394785	-0.038327	-0.031131	0.063545	1.000000	0.000026	0.000003	-0.000013	-10.344386	-75.927493	2.133378
04281	9.532184	-0.400356	2.393583	-0.037125	0.034727	0.023443	1.000000	0.000018	0.000017	0.000021	-10.348160	-75.926111	2.136760
04282	9.550191	-0.390579	2.380531	-0.018913	0.042703	0.037361	1.000000	0.000022	-0.000010	0.000003	-10.345353	-75.928007	2.133778
04283	9.555164	-0.449668	2.388196	-0.033292	-0.014746	0.046598	1.000000	0.000028	0.000012	0.000008	-10.342285	-75.927375	2.130948
04284	9.555133	-0.449647	2.388322	-0.033441	-0.014852	0.046597	1.000000	0.000019	-0.000001	0.000002	-10.338523	-75.928364	2.126636
04285	9.551345	-0.434905	2.348851	0.005390	-0.006057	0.032838	1.000000	0.000015	-0.000003	0.000009	-10.338748	-75.929436	2.123636
04286	9.558198	-0.421877	2.368312	-0.009882	0.009714	0.043572	1.000000	0.000024	0.000010	0.000015	-10.339475	-75.928850	2.124635
04287	9.540156	-0.432006	2.381437	-0.028398	0.001534	0.029652	1.000000	0.000015	-0.000013	0.000018	-10.344500	-75.930931	2.130388
04288	9.533283	-0.445163	2.362032	-0.013423	-0.014451	0.018918	1.000000	0.000038	0.000008	-0.000006	-10.334592	-75.931049	2.122017
04289	9.533269	-0.444991	2.362120	-0.013576	-0.014553	0.018918	1.000000	0.000019	-0.000001	0.000002	-10.330935	-75.932058	2.117489
04290	9.544406	-0.448339	2.329664	0.019757	-0.022467	0.022105	1.000000	0.000033	0.000005	0.000020	-10.333407	-75.932010	2.121355
04291	9.558126	-0.422183	2.368548	-0.010642	0.009193	0.043571	1.000000	0.000018	0.000008	0.000011	-10.333488	-75.931837	2.121715
04292	9.543178	-0.404210	2.361610	-0.005282	0.025779	0.026629	1.000000	0.000022	-0.000009	0.000003	-10.330678	-75.933733	2.118730
04293	9.558140	-0.422195	2.368490	-0.010942	0.008983	0.043571	1.000000	0.000025	0.000001	0.000005	-10.327809	-75.934377	2.116061
04294	9.543164	-0.404159	2.361675	-0.005580	0.025570	0.026630	1.000000	0.000022	0.000010	0.000004	-10.323879	-75.934091	2.111953
04295	9.573001	-0.440340	2.375746	-0.016747	-0.007921	0.060512	1.000000	0.000021	0.000008	0.000022	-10.328536	-75.933558	2.115637
04296	9.543113	-0.404510	2.361824	-0.005871	0.025358	0.026630	1.000000	0.000012	-0.000014	0.000006	-10.328798	-75.935888	2.114680
04297	9.554300	-0.407788	2.329181	0.027461	0.017434	0.029821	1.000000	0.000019	-0.000001	0.000002	-10.325046	-75.936867	2.112012
04298	9.551207	-0.435823	2.349244	0.003439	-0.007434	0.032838	1.000000	0.000018	-0.000003	0.000020	-10.329800	-75.937623	2.116369
04299	9.554294	-0.408132	2.329147	0.027166	0.017218	0.029822	1.000000	0.000021	-0.000001	0.000013	-10.330720	-75.938311	2.118177
04300	9.562357	-0.439572	2.316659	0.036619	-0.015470	0.036030	1.000000	0.000027	-0.000008	0.000025	-10.337223	-75.939604	2.125403
04301	9.551199	-0.436486	2.349153	0.002992	-0.007754	0.032838	1.000000	0.000031	0.000004	0.000009	-10.335073	-75.939863	2.123912
04302	9.569227	-0.426657	2.336037	0.021205	0.000200	0.046763	1.000000	0.000015	-0.000003	0.000009	-10.335171	-75.940918	2.123163
04303	9.558020	-0.423526	2.368737	-0.012417	0.007921	0.043570	1.000000	0.000028	0.000021	0.000018	-10.335763	-75.939047	2.122702
04304	9.584035	-0.444995	2.343471	0.015389	-0.016709	0.063703	1.000000	0.000018	0.000008	0.000011	-10.335694	-75.938828	2.122159
04305	9.551018	-0.436951	2.349801	0.002396	-0.008179	0.032838	1.000000	0.000031	0.000004	0.000009	-10.333597	-75.939097	2.119526
04306	9.569007	-0.427186	2.336843	0.020610	-0.000230	0.046764	1.000000	0.000031	0.000013	0.000019	-10.335110	-75.938142	2.122057
04307	9.544013	-0.450529	2.330851	0.017206	-0.024284	0.022105	1.000000	0.000021	0.000008	0.000022	-10.339759	-75.937636	2.124633
04308	9.557723	-0.424421	2.369775	-0.013162	0.007393	0.043570	1.000000	0.000024	0.000010	0.000015	-10.340480	-75.937049	2.125627
04309	9.557659	-0.424623	2.369996	-0.013313	0.007287	0.043570	1.000000	0.000006	0.000012	0.000014	-10.342551	-75.936371	2.128228
04310	9.561896	-0.441367	2.318222	0.035120	-0.016554	0.036034	1.000000	0.000018	-0.000002	0.000020	-10.347305	-75.937125	2.132584
04311	9.565591	-0.456283	2.357984	-0.004032	-0.025510	0.049774	1.000000	0.000010	0.000033	0.000007	-10.344438	-75.934204	2.127951
04312	9.532534	-0.448168	2.364486	-0.017016	-0.016975	0.018908	1.000000	0.000019	-0.000001	0.000002	-10.340673	-75.935192	2.123635
04313	9.583574	-0.446468	2.345075	0.014028	-0.017672	0.063703	1.000000	0.000024	-0.000009	0.000014	-10.342617	-75.936809	2.125929
04314	9.550547	-0.438385	2.351448	0.001046	-0.009136	0.032837	1.000000	0.000016	0.000026	0.000001	-10.336767	-75.934710	2.119152
04315	9.554749	-0.454941	2.299871	0.049472	-0.032986	0.025303	1.000000	0.000027	0.000002	0.000016	-10.338543	-75.935034	2.120945
04316	9.565343	-0.456565	2.358935	-0.004786	-0.026039	0.049773	1.000000	0.000025	0.000021	0.000006	-10.334441	-75.933473	2.117037
04317	9.507376	-0.471409	2.359158	-0.021032	-0.041436	-0.005756	1.000000	0.000028	0.000003	-0.000002	-10.327746	-75.934068	2.112548
04318	9.553444	-0.410501	2.332213	0.024344	0.015179	0.029833	1.000000	0.000031	0.000004	0.000009	-10.325559	-75.934320	2.111304
04319	9.575226	-0.415303	2.358682	0.003548	0.014285	0.057500	1.000000	0.000041	0.000008	0.000006	-10.320467	-75.934181	2.108273
04320	9.542199	-0.407029	2.365083	-0.009427	0.022826	0.026633	1.000000	0.000025	0.000012	-0.000003	-10.312669	-75.933828	2.100594
04321	9.582032	-0.401850	2.378399	-0.011855	0.029975	0.068232	1.000000	0.000043	0.000000	0.000007	-10.308519	-75.934581	2.096766
04322	9.568273	-0.428225	2.339656	0.018201	-0.001934	0.046769	1.000000	0.000009	-0.000006	0.000005	-10.307825	-75.936004	2.094477
04323	9.539041	-0.434737	2.385405	-0.033787	-0.002211	0.029635	1.000000	0.000032	0.000014	0.000000	-10.300957	-75.935322	2.087410
04324	9.563923	-0.411722	2.391795	-0.030669	0.021623	0.054299	1.000000	0.000009	0.000003	0.000015	-10.303961	-75.935537	2.088895
04325	9.561301	-0.441546	2.320642	0.032842	-0.018152	0.036039	1.000000	0.000025	0.000001	0.000005	-10.301106	-75.936186	2.086135
04326	9.538934	-0.434901	2.385800	-0.034237	-0.002523	0.029633	1.000000	0.000028	0.000012	0.000008	-10.297960	-75.935531	2.083558
04327	9.538926	-0.435042	2.385808	-0.034386	-0.002625	0.029632	1.000000	0.000015	-0.000013	0.000018	-10.302960	-75.937564	2.087368
04328	9.558160	-0.469527	2.340841	0.008479	-0.043198	0.039037	1.000000	0.000026	0.000003	-0.000013	-10.291459	-75.938417	2.075911
04329	9.557012	-0.425011	2.372535	-0.016318	0.005200	0.043567	1.000000	0.000024	-0.000009	0.000014	-10.293412	-75.940022	2.077117
04330	9.538929	-0.435035	2.385799	-0.034833	-0.002937	0.029631	1.000000	0.000022	0.000019	0.000014	-10.293173	-75.938527	2.076776
04331	9.528222	-0.433547	2.327202	0.019126	-0.010133	0.005173	1.000000	0.000028	0.000003	-0.000002	-10.286439	-75.939089	2.071775
04332	9.520149	-0.402286	2.339697	0.009434	0.022356	-0.001028	1.000000	0.000037	0.000007	0.000013	-10.285039	-75.938972	2.072064
04333	9.556864	-0.425062	2.373122	-0.016917	0.004783	0.043566	1.000000	0.000028	0.000003	-0.000002	-10.278335	-75.939555	2.065764
04334	9.538791	-0.434696	2.386409	-0.035433	-0.003350	0.029629	1.000000	0.000038	0.000008	-0.000006	-10.268412	-75.939671	2.057378
04335	9.541923	-0.406968	2.366206	-0.011661	0.021265	0.026635	1.000000	0.000007	-0.000017	0.000032	-10.281204	-75.941847	2.068011
04336	9.586085	-0.418773	2.327399	0.034465	0.004607	0.060710	1.000000	0.000006	0.000003	0.000004	-10.279549	-75.942362	2.064387
04337	9.564893	-0.456546	2.360765	-0.007979	-0.028234	0.049765	1.000000	0.000031	0.000004	0.000009	-10.277447	-75.942627	2.064969
04338	9.548800	-0.394145	2.385518	-0.027196	0.036859	0.037365	1.000000	0.000034	-0.000004	0.000011	-10.276211	-75.943784	2.065050
04339	9.564894	-0.456651	2.360742	-0.008278	-0.028443	0.049764	1.000000	0.000015	-0.000003	0.000009	-10.276418	-75.944826	2.060980
04340	9.535040	-0.420825	2.346736	0.002694	0.004827	0.015904	1.000000	0.000018	-0.000002	0.000020	-10.281167	-75.945579	2.065331
04341	9.549967	-0.439037	2.353680	-0.003017	-0.011964	0.032834	1.000000	0.000015	-0.000003	0.000009	-10.281389	-75.946639	2.064753
04342	9.549953	-0.438973	2.353752	-0.003166	-0.012071	0.032834	1.000000	0.000019	0.000009	-0.000007	-10.272789	-75.946652	2.055526
04343	9.567981	-0.429075	2.340694	0.015055	-0.004158	0.046774	1.000000	0.000021	-0.000001	0.000013	-10.273785	-75.947337	2.056410
04344	9.553044	-0.411463	2.333683	0.020472	0.012422	0.029845	1.000000	0.000017	-0.000004	0.000038	-10.287061	-75.947856	2.069440
04345	9.564872	-0.457499	2.360665	-0.009180	-0.029070	0.049761	1.000000	0.000032	-0.000014	-0.000010	-10.277614	-75.950528	2.059732
04346	9.556825	-0.426153	2.373085	-0.018847	0.003427	0.043563	1.000000	0.000040	0.000017	0.000015	-10.276042	-75.949135	2.060222
04347	9.567937	-0.429636	2.340773	0.014462	-0.004581	0.046774	1.000000	0.000021	-0.000001	0.000013	-10.277034	-75.949809	2.060114
04348	9.571054	-0.401760	2.320672	0.038255	0.020009	0.043789	1.000000	0.000028	0.000003	-0.000002	-10.270179	-75.950361	2.053752
04349	9.549873	-0.439486	2.353977	-0.004208	-0.012804	0.032832	1.000000	0.000030	-0.000006	0.000018	-10.272891	-75.951594	2.058405
04350	9.552948	-0.411592	2.334053	0.019587	0.011785	0.029848	1.000000	0.000038	0.000027	-0.000004	-10.261832	-75.949529	2.048882
04351	9.549806	-0.439359	2.354273	-0.004509	-0.013013	0.032832	1.000000	0.000015	-0.000022	0.000008	-10.263184	-75.952780	2.048453
04352	9.527968	-0.434700	2.328027	0.015998	-0.012353	0.005176	1.000000	0.000025	0.000029	0.000016	-10.262773	-75.950009	2.048312
04353	9.575741	-0.461135	2.329319	0.023071	-0.037827	0.052972	1.000000	0.000018	0.000017	0.000021	-10.266492	-75.948584	2.053156
04354	9.574523	-0.416835	2.361265	-0.001664	0.010596	0.057505	1.000000	0.000022	0.000010	0.000004	-10.262547	-75.948296	2.049033
04355	9.531471	-0.449890	2.368440	-0.023480	-0.021434	0.018886	1.000000	0.000021	0.000008	0.000022	-10.267281	-75.947788	2.052301
04356	9.560640	-0.443576	2.322976	0.028196	-0.021460	0.036046	1.000000	0.000022	0.000010	0.000004	-10.263335	-75.947500	2.048178
04357	9.556312	-0.427032	2.374991	-0.020488	0.002286	0.043560	1.000000	0.000018	0.000008	0.000011	-10.263439	-75.947305	2.047251
04358	9.534487	-0.422431	2.348693	0.000023	0.002941	0.015906	1.000000	0.000012	-0.000005	0.000016	-10.267397	-75.948425	2.050064
04359	9.574313	-0.417571	2.361985	-0.002416	0.010077	0.057505	1.000000	0.000015	0.000016	0.000010	-10.266523	-75.947325	2.050576
04360	9.564228	-0.458560	2.363065	-0.011443	-0.030641	0.049754	1.000000	0.000038	0.000008	-0.000006	-10.256591	-75.947441	2.042181
04361	9.559311	-0.399504	2.355334	0.002868	0.026557	0.040582	1.000000	0.000024	0.000000	0.000024	-10.262326	-75.947847	2.045728
04362	9.534358	-0.422706	2.349169	-0.000577	0.002527	0.015906	1.000000	0.000019	-0.000001	0.000002	-10.258548	-75.948833	2.041399
04363	9.556133	-0.427474	2.375632	-0.021388	0.001667	0.043558	1.000000	0.000028	0.000012	0.000008	-10.255542	-75.948190	2.039532
04364	9.556105	-0.427609	2.375718	-0.021536	0.001560	0.043558	1.000000	0.000012	-0.000005	0.000016	-10.259500	-75.949310	2.042344
04365	9.574145	-0.417968	2.362595	-0.003314	0.009451	0.057506	1.000000	0.000018	0.000008	0.000011	-10.259556	-75.949106	2.042632
04366	9.549180	-0.441219	2.356464	-0.006763	-0.014577	0.032828	1.000000	0.000012	-0.000005	0.000016	-10.263514	-75.950226	2.045445
04367	9.549165	-0.441462	2.356480	-0.006915	-0.014678	0.032828	1.000000	0.000033	0.000005	0.000020	-10.266123	-75.950194	2.049407
04368	9.556027	-0.428372	2.375897	-0.022136	0.001145	0.043556	1.000000	0.000006	0.000003	0.000004	-10.264464	-75.950709	2.045779
04369	9.541091	-0.410394	2.368965	-0.016696	0.017730	0.026634	1.000000	0.000031	0.000004	0.000009	-10.262395	-75.950980	2.044826
04370	9.596992	-0.467816	2.357553	-0.000177	-0.040379	0.080621	1.000000	0.000019	-0.000001	0.000002	-10.258616	-75.951967	2.040496
04371	9.537931	-0.438183	2.389207	-0.040961	-0.007149	0.029605	1.000000	0.000025	0.000001	0.000005	-10.255774	-75.952591	2.036591
04372	9.574022	-0.418584	2.362985	-0.004358	0.008716	0.057506	1.000000	0.000018	0.000008	0.000011	-10.255693	-75.952369	2.036035
04373	9.541032	-0.410484	2.369190	-0.017283	0.017316	0.026634	1.000000	0.000034	-0.000004	0.000011	-10.254597	-75.953514	2.034912
04374	9.549055	-0.441740	2.356875	-0.007961	-0.015411	0.032826	1.000000	0.000025	0.000001	0.000005	-10.251607	-75.954132	2.032117
04375	9.552777	-0.456459	2.396441	-0.047150	-0.024246	0.046523	1.000000	0.000009	0.000003	0.000015	-10.254728	-75.954336	2.036376
04376	9.573987	-0.418998	2.363055	-0.004947	0.008297	0.057506	1.000000	0.000024	-0.000009	0.000014	-10.256566	-75.955927	2.038487
04377	9.552158	-0.414247	2.336814	0.015568	0.008945	0.029858	1.000000	0.000038	0.000017	0.000004	-10.250497	-75.954852	2.033358
04378	9.542116	-0.455251	2.337693	0.006508	-0.031764	0.022097	1.000000	0.000024	-0.000018	0.000004	-10.248634	-75.957651	2.031691
04379	9.588899	-0.437050	2.370063	-0.010998	-0.008698	0.074425	1.000000	0.000027	0.000002	0.000016	-10.250449	-75.957971	2.036734
04380	9.570223	-0.404628	2.323595	0.033501	0.016605	0.043813	1.000000	0.000027	0.000002	0.000016	-10.252117	-75.958287	2.039047
04381	9.549001	-0.442342	2.356981	-0.009005	-0.016136	0.032824	1.000000	0.000019	-0.000001	0.000002	-10.248498	-75.959273	2.034951
04382	9.567032	-0.432504	2.343938	0.009223	-0.008268	0.046778	1.000000	0.000028	0.000012	0.000008	-10.245335	-75.958616	2.032356
04383	9.566996	-0.432584	2.344072	0.009080	-0.008369	0.046778	1.000000	0.000021	-0.000001	0.000013	-10.246374	-75.959266	2.032137
04384	9.542014	-0.455776	2.338008	0.005616	-0.032391	0.022095	1.000000	0.000018	0.000008	0.000011	-10.246290	-75.959044	2.031578
04385	9.545147	-0.427986	2.317892	0.029453	-0.007834	0.019133	1.000000	0.000019	-0.000001	0.000002	-10.242686	-75.960031	2.028758
04386	9.537711	-0.439110	2.389917	-0.043183	-0.008688	0.029594	1.000000	0.000025	0.000001	0.000005	-10.239692	-75.960649	2.025960
04387	9.560022	-0.445944	2.325065	0.023547	-0.024729	0.036051	1.000000	0.000022	0.000010	0.000004	-10.235897	-75.960354	2.023496
04388	9.563714	-0.460628	2.364743	-0.015652	-0.033550	0.049739	1.000000	0.000033	0.000005	0.000020	-10.238353	-75.960300	2.027344
04389	9.559934	-0.446149	2.325388	0.023251	-0.024938	0.036051	1.000000	0.000022	0.000010	0.000004	-10.234603	-75.959995	2.023526
04390	9.566796	-0.432886	2.344831	0.008043	-0.009103	0.046779	1.000000	0.000025	0.000001	0.000005	-10.231608	-75.960612	2.020727
04391	9.526867	-0.437867	2.331934	0.010191	-0.016428	0.005177	1.000000	0.000035	0.000025	0.000003	-10.224621	-75.958603	2.016194
04392	9.653622	-0.490453	1.335097	0.990674	-0.210803	-0.107556	1.000000	-0.000001	-0.000049	0.000007	-10.229257	-75.964823	2.018191
04393	13.418771	-3.172391	13.568804	-10.069658	-1.084450	6.669306	0.999960	0.000116	0.008898	0.000437	-9.723373	-74.952959	1.505161
04394	3.878407	-2.836015	-6.557070	6.830729	-3.763702	-7.521178	0.999885	-0.006734	-0.013459	-0.002095	-10.635384	-76.514350	1.647278
04395	10.894031	-0.974412	-0.688795	3.121146	-0.986068	0.646198	0.999951	0.008153	0.005444	0.001452	-9.914030	-75.871612	1.869091
04396	11.507781	-0.650081	8.649616	-5.576253	0.684468	3.457740	0.999997	-0.002218	0.000728	-0.000048	-10.086868	-75.791237	1.782519
04397	8.702025	-0.383736	-0.606041	2.649065	-0.397720	-1.502213	0.999998	0.000681	-0.001758	0.000091	-10.190690	-75.988309	1.969880
04398	9.445158	-0.809779	3.670942	-1.341587	-0.194462	0.262275	0.999999	-0.000122	0.001020	0.000058	-10.145966	-75.872942	1.906674
04399	9.066551	0.431137	2.895672	-0.519002	0.914993	-0.343446	0.999999	0.001014	-0.001013	-0.000182	-10.029080	-75.991554	1.903849
04400	10.658467	-0.955252	1.145387	1.353046	-0.693701	0.841672	0.999999	-0.001296	0.000522	0.000211	-10.228255	-75.929273	1.953387
04401	8.734737	-0.246103	4.156244	-1.902789	0.425215	-0.334864	0.999999	0.001183	-0.000014	-0.000132	-10.034374	-75.934316	1.893454
04402	10.070387	-0.026778	0.532403	1.926350	0.132173	0.085219	1.000000	-0.000810	-0.000502	0.000075	-10.199026	-75.990344	1.964813
04403	9.220537	-0.807616	3.219665	-0.969364	-0.258273	-0.064333	1.000000	0.000127	0.000339	0.000091	-10.197639	-75.951012	1.979687
04404	9.760801	0.054368	1.571454	0.863336	0.362248	0.029522	1.000000	-0.000049	-0.000317	-0.000015	-10.219935	-75.987939	1.994271
04405	9.464061	-0.996736	2.645215	-0.384241	-0.525437	0.043040	1.000000	0.000047	0.000353	0.000054	-10.209569	-75.947827	1.989092
04406	9.595671	-0.106531	2.359030	0.046274	0.315270	0.064141	1.000000	-0.000003	-0.000220	-0.000021	-10.215828	-75.973918	1.992562
04407	9.669774	-0.594500	2.050996	0.292488	-0.212666	0.083462	1.000000	0.000340	0.000194	-0.000045	-10.140349	-75.953701	1.953528
04408	9.533251	-0.305737	3.077335	-0.684036	0.218271	0.183852	1.000000	-0.000064	0.000083	0.000061	-10.165892	-75.944008	1.969645
04409	9.618286	-0.396655	1.906428	0.449798	-0.038836	-0.009657	1.000000	0.000095	0.000044	-0.000017	-10.143263	-75.940108	1.956242
04410	9.458195	-0.337223	2.819217	-0.456114	0.149280	0.050823	1.000000	0.000034	0.000108	0.000054	-10.152321	-75.927702	1.966917
04411	9.536734	-0.443605	2.216075	0.128430	-0.040979	-0.012744	1.000000	-0.000047	-0.000023	0.000047	-10.180369	-75.930072	1.991203
04412	9.508220	-0.575455	2.532824	-0.200280	-0.125757	0.041077	1.000000	0.000062	0.000074	0.000031	-10.178725	-75.921930	1.994234
04413	9.527836	-0.451307	2.471168	-0.119415	-0.011277	0.040009	1.000000	0.000007	-0.000084	0.000020	-10.193009	-75.931637	2.008605
04414	9.568616	-0.408507	2.241113	0.116292	-0.001375	0.022675	1.000000	0.000028	-0.000007	0.000007	-10.190977	-75.933161	2.007141
04415	9.539690	-0.537739	2.648521	-0.299947	-0.070774	0.097638	1.000000	-0.000005	-0.000013	0.000035	-10.207725	-75.934707	2.024037
04416	9.661491	-0.409630	1.960217	0.407470	-0.040886	0.045657	1.000000	-0.000053	-0.000054	0.000033	-10.230493	-75.940987	2.038646
04417	9.498411	-0.457388	2.606054	-0.259309	0.003802	0.043949	1.000000	-0.000044	0.000018	0.000013	-10.239339	-75.939420	2.041165
04418	9.625328	-0.470433	2.137025	0.219823	-0.074979	0.055503	1.000000	0.000020	-0.000040	0.000029	-10.251009	-75.944231	2.052883
04419	9.516264	-0.527373	2.307242	0.021885	-0.107425	-0.007140	1.000000	-0.000004	0.000026	0.000018	-10.256952	-75.941601	2.058068
04420	9.509709	-0.421741	2.422234	-0.075674	0.013611	0.009417	1.000000	0.000024	-0.000018	0.000004	-10.255101	-75.944401	2.056413
04421	9.555067	-0.437750	2.201016	0.145462	-0.033728	0.001237	1.000000	0.000056	0.000016	0.000006	-10.249464	-75.943236	2.054373
04422	9.512214	-0.391425	2.493702	-0.139466	0.053406	0.027621	1.000000	0.000041	0.000019	-0.000003	-10.239351	-75.942078	2.046171
04423	9.557482	-0.407536	2.272884	0.081668	0.006051	0.019445	1.000000	0.000028	0.000021	0.000017	-10.241796	-75.940034	2.051195
04424	9.563072	-0.389844	2.475164	-0.108610	0.052489	0.072463	1.000000	0.000025	0.000012	-0.000003	-10.233978	-75.939680	2.043497
04425	9.607839	-0.403561	2.345316	0.024975	0.020418	0.085439	1.000000	0.000044	-0.000009	-0.000003	-10.227887	-75.941452	2.041354
04426	9.608357	-0.445887	2.405039	-0.038261	-0.012987	0.102045	1.000000	0.000043	-0.000001	0.000025	-10.232084	-75.941936	2.048061
04427	9.603534	-0.387102	2.397048	-0.023761	0.044252	0.092919	1.000000	0.000043	-0.000001	0.000025	-10.238153	-75.942207	2.057549
04428	9.556326	-0.363282	2.304563	0.056537	0.054258	0.023990	1.000000	0.000015	-0.000022	0.000008	-10.239380	-75.945442	2.057928
04429	9.486033	-0.370312	2.519440	-0.168152	0.077705	0.007456	1.000000	-0.000001	-0.000001	0.000018	-10.247246	-75.945866	2.064183
04430	9.527716	-0.372442	2.258549	0.092015	0.038877	-0.014364	1.000000	0.000017	-0.000013	0.000029	-10.256820	-75.947587	2.073433
04431	9.528321	-0.415401	2.317793	0.028802	0.005557	0.002238	1.000000	-0.000031	-0.000044	0.000037	-10.279864	-75.952506	2.091991
04432	9.554514	-0.437683	2.291742	0.056433	-0.019254	0.022394	1.000000	-0.000002	-0.000022	0.000036	-10.295614	-75.955095	2.105327
04433	9.565775	-0.441828	2.258819	0.089737	-0.027313	0.025642	1.000000	0.000010	-0.000025	0.000034	-10.310990	-75.957967	2.120379
04434	9.579665	-0.415790	2.296932	0.059502	0.004498	0.047089	1.000000	0.000008	-0.000026	0.000023	-10.319976	-75.961331	2.127920
04435	9.613282	-0.426601	2.199125	0.159657	-0.019618	0.056834	1.000000	0.000033	-0.000014	0.000019	-10.325249	-75.963252	2.135187
04436	9.609014	-0.409959	2.250826	0.111042	0.004257	0.064311	1.000000	0.000031	0.000004	0.000009	-10.323041	-75.963503	2.133920
04437	9.602045	-0.423353	2.231797	0.125956	-0.011749	0.053589	1.000000	0.000028	0.000021	0.000017	-10.325202	-75.961495	2.137351
04438	9.616774	-0.441486	2.239499	0.120155	-0.028544	0.070498	1.000000	0.000050	0.000041	0.000013	-10.319354	-75.957486	2.134609
04439	9.554312	-0.439719	2.292194	0.055488	-0.019739	0.022398	1.000000	0.000034	0.000052	0.000032	-10.324837	-75.951753	2.142667
04440	9.557282	-0.412048	2.272908	0.079374	0.004763	0.019465	1.000000	0.000039	0.000046	-0.000004	-10.312584	-75.947512	2.131953
04441	9.516570	-0.414673	2.352061	-0.005981	0.012862	-0.001008	1.000000	0.000026	0.000059	0.000008	-10.307846	-75.941466	2.128205
04442	9.516295	-0.414768	2.353157	-0.006128	0.012755	-0.001008	1.000000	0.000016	0.000054	0.000012	-10.304483	-75.935976	2.123992
04443	9.537789	-0.419868	2.380575	-0.026957	0.012003	0.026620	1.000000	-0.000004	0.000054	0.000029	-10.312605	-75.930047	2.130709
04444	9.536242	-0.415769	2.564187	-0.202175	0.042622	0.068869	1.000000	0.000003	0.000048	0.000023	-10.316184	-75.925054	2.132096
04445	9.527209	-0.461823	2.383247	-0.036243	-0.028718	0.018829	1.000000	0.000003	0.000029	0.000022	-10.322528	-75.922158	2.137675
04446	9.544941	-0.492427	2.521730	-0.168664	-0.038775	0.070508	1.000000	-0.000004	0.000026	0.000018	-10.326475	-75.919717	2.138684
04447	9.595519	-0.449141	2.442754	-0.074569	-0.006390	0.098779	1.000000	0.000007	-0.000017	0.000032	-10.340732	-75.921740	2.151855
04448	9.545591	-0.495413	2.430284	-0.081413	-0.054283	0.049383	1.000000	0.000006	-0.000006	-0.000006	-10.335406	-75.923470	2.144485
04449	9.526486	-0.460620	2.474650	-0.124325	-0.013627	0.039945	1.000000	0.000005	-0.000027	0.000011	-10.341279	-75.926944	2.148800
04450	9.538467	-0.466637	2.350306	-0.003523	-0.037159	0.022080	1.000000	0.000033	-0.000034	0.000018	-10.346038	-75.931252	2.154949
04451	9.498090	-0.469472	2.427907	-0.088868	-0.029028	0.001594	1.000000	0.000015	-0.000022	0.000008	-10.348825	-75.934337	2.157502
04452	9.549902	-0.470283	2.316854	0.029617	-0.045358	0.025334	1.000000	0.000040	-0.000030	0.000004	-10.345858	-75.938517	2.156520
04453	9.534532	-0.449847	2.400580	-0.052372	-0.013326	0.029545	1.000000	0.000046	-0.000027	0.000007	-10.345236	-75.942148	2.158945
04454	9.556546	-0.414462	2.275563	0.077444	0.003689	0.019481	1.000000	0.000035	-0.000003	-0.000008	-10.335485	-75.943548	2.150358
04455	9.578314	-0.419112	2.301954	0.056627	0.002937	0.047107	1.000000	0.000046	0.000001	0.000018	-10.337342	-75.943774	2.155076
04456	9.581962	-0.433517	2.341633	0.017394	-0.005796	0.060754	1.000000	0.000038	0.000008	-0.000006	-10.327401	-75.943898	2.146672
04457	9.573858	-0.402306	2.354353	0.007906	0.026812	0.054572	1.000000	0.000037	0.000044	0.000033	-10.333665	-75.939028	2.155150
04458	9.603408	-0.438650	2.369242	-0.003582	-0.006654	0.088379	1.000000	0.000019	0.000027	0.000012	-10.332410	-75.936625	2.153420
04459	9.577182	-0.417227	2.395224	-0.031451	0.018040	0.068218	1.000000	0.000016	0.000035	0.000011	-10.331651	-75.933163	2.152357
04460	9.544061	-0.409087	2.401914	-0.044312	0.026698	0.037336	1.000000	0.000019	0.000027	0.000012	-10.330398	-75.930760	2.150628
04461	9.537017	-0.422569	2.383187	-0.029409	0.010676	0.026615	1.000000	0.000006	0.000031	0.000014	-10.332687	-75.927743	2.151524
04462	9.539485	-0.392686	2.454635	-0.093026	0.050590	0.044796	1.000000	0.000006	0.000012	0.000013	-10.334705	-75.927049	2.151648
04463	9.525622	-0.419430	2.416332	-0.063093	0.018591	0.023355	1.000000	0.000015	0.000016	0.000010	-10.335077	-75.925764	2.151525
04464	9.507461	-0.429079	2.429758	-0.081626	0.010576	0.009374	1.000000	0.000038	0.000008	-0.000006	-10.325148	-75.925888	2.143134
04465	9.532498	-0.406007	2.435705	-0.078394	0.034420	0.034073	1.000000	0.000005	-0.000027	0.000012	-10.330875	-75.929426	2.147336
04466	9.573122	-0.403516	2.357140	0.006667	0.026083	0.054575	1.000000	0.000015	-0.000022	0.000008	-10.332133	-75.932662	2.147743
04467	9.550829	-0.396416	2.421596	-0.060280	0.042178	0.048053	1.000000	0.000021	-0.000029	0.000002	-10.331866	-75.936596	2.147917
04468	9.544743	-0.411981	2.310357	0.042123	0.010641	0.016234	1.000000	0.000037	-0.000041	0.000001	-10.329088	-75.942052	2.146750
04469	9.551804	-0.398636	2.328977	0.026974	0.026570	0.026955	1.000000	0.000036	-0.000032	0.000011	-10.331320	-75.946151	2.151132
04470	9.538167	-0.425272	2.289737	0.056873	-0.005503	0.005516	1.000000	0.000015	-0.000041	0.000007	-10.333741	-75.951568	2.152701
04471	9.581371	-0.392681	2.282158	0.078500	0.026231	0.044201	1.000000	0.000039	-0.000012	0.000023	-10.339388	-75.953166	2.160510
04472	9.582464	-0.437655	2.250492	0.102712	-0.022524	0.039663	1.000000	0.000017	-0.000013	0.000029	-10.348977	-75.954882	2.169773
04473	9.592581	-0.396963	2.249502	0.111634	0.017979	0.047468	1.000000	0.000031	0.000013	0.000019	-10.351676	-75.953781	2.173865
04474	9.567971	-0.462442	2.303399	0.044953	-0.039191	0.039318	1.000000	0.000018	-0.000002	0.000020	-10.356422	-75.954529	2.178210
04475	9.592936	-0.439689	2.309586	0.048195	-0.015361	0.064022	1.000000	0.000006	0.000012	0.000013	-10.359710	-75.953674	2.179808
04476	9.559904	-0.431646	2.315923	0.035345	-0.006694	0.033139	1.000000	0.000012	0.000014	0.000017	-10.362505	-75.952610	2.181457
04477	9.574683	-0.449941	2.323312	0.029526	-0.023428	0.050038	1.000000	0.000012	0.000014	0.000017	-10.366514	-75.951427	2.184655
04478	9.574595	-0.450317	2.323602	0.029375	-0.023537	0.050039	1.000000	0.000014	0.000015	0.000028	-10.373958	-75.950055	2.191400
04479	9.538250	-0.470085	2.350497	-0.007536	-0.039385	0.022069	1.000000	0.000022	0.000038	0.000015	-10.373783	-75.946284	2.191703
04480	9.556196	-0.460505	2.337920	0.010701	-0.031596	0.036054	1.000000	0.000013	0.000024	0.000009	-10.371733	-75.944253	2.188432
04481	9.556137	-0.460529	2.338156	0.010567	-0.031651	0.036054	1.000000	0.000019	-0.000001	0.000002	-10.369224	-75.945137	2.185759
04482	9.556098	-0.460452	2.338331	0.010417	-0.031759	0.036053	1.000000	0.000038	0.000017	0.000004	-10.362951	-75.944051	2.181099
04483	9.556034	-0.460361	2.338608	0.010282	-0.031814	0.036053	1.000000	0.000041	0.000008	0.000006	-10.358913	-75.943764	2.179321
04484	9.548018	-0.429027	2.351023	0.000812	0.000744	0.029874	1.000000	0.000034	0.000015	0.000011	-10.356507	-75.942740	2.178230
04485	9.554848	-0.415841	2.370563	-0.014333	0.016680	0.040593	1.000000	0.000024	0.000010	0.000015	-10.358426	-75.942033	2.180714
04486	9.547912	-0.429300	2.351404	0.000533	0.000581	0.029875	1.000000	0.000021	-0.000000	0.000013	-10.359302	-75.942717	2.181487
04487	9.554733	-0.416055	2.370990	-0.014613	0.016521	0.040593	1.000000	0.000047	0.000030	0.000010	-10.354910	-75.939875	2.180261
04488	9.562573	-0.447325	2.359302	-0.005449	-0.016254	0.046771	1.000000	0.000013	0.000015	-0.000001	-10.349191	-75.939056	2.173244
04489	9.540035	-0.440237	2.424696	-0.072377	-0.000097	0.040231	1.000000	0.000012	0.000033	0.000018	-10.352003	-75.935654	2.174650
04490	9.547499	-0.429568	2.353030	-0.000021	0.000257	0.029875	1.000000	0.000031	0.000004	0.000009	-10.349793	-75.935905	2.173381
04491	9.557966	-0.430827	2.412155	-0.054263	0.007630	0.054218	1.000000	0.000009	0.000022	0.000016	-10.352790	-75.933793	2.174912
04492	9.524923	-0.422707	2.418515	-0.067098	0.016315	0.023332	1.000000	0.000018	0.000008	0.000011	-10.352691	-75.933572	2.174337
04493	9.536093	-0.426335	2.386214	-0.033828	0.008147	0.026603	1.000000	0.000016	0.000007	0.000000	-10.349102	-75.933544	2.169781
04494	9.546600	-0.427500	2.445177	-0.088092	0.015478	0.050944	1.000000	0.000027	0.000002	0.000016	-10.350757	-75.933857	2.172078
04495	9.579192	-0.393740	2.379167	-0.012332	0.039744	0.065301	1.000000	0.000022	-0.000009	0.000003	-10.349143	-75.935626	2.170256
04496	9.549921	-0.399693	2.424638	-0.064269	0.039876	0.048037	1.000000	0.000019	-0.000010	-0.000008	-10.341705	-75.937832	2.162191
04497	9.547400	-0.429780	2.353396	-0.000982	-0.000297	0.029875	1.000000	0.000024	-0.000018	0.000004	-10.341027	-75.940504	2.161760
04498	9.579366	-0.393594	2.378489	-0.012754	0.039471	0.065301	1.000000	0.000021	-0.000011	0.000021	-10.346744	-75.942156	2.167447
04499	9.557656	-0.389099	2.351895	0.007832	0.040084	0.037690	1.000000	0.000018	-0.000011	0.000010	-10.348908	-75.944014	2.169654
04500	9.561983	-0.406201	2.300051	0.056087	0.015852	0.030247	1.000000	0.000036	-0.000004	0.000022	-10.352318	-75.944863	2.174825
04501	9.561316	-0.403873	2.391347	-0.031553	0.031366	0.051309	1.000000	0.000021	-0.000000	0.000013	-10.354255	-75.945423	2.176874
04502	9.550702	-0.403005	2.332741	0.022414	0.023804	0.026974	1.000000	0.000015	0.000025	0.000020	-10.356846	-75.943083	2.178692
04503	9.565452	-0.421342	2.340212	0.016570	0.007067	0.043867	1.000000	0.000021	0.000009	0.000022	-10.362440	-75.942432	2.184539
04504	9.565412	-0.421679	2.340315	0.016421	0.006959	0.043868	1.000000	0.000024	0.000000	0.000024	-10.367961	-75.942808	2.190404
04505	9.532400	-0.413533	2.346565	0.003614	0.015695	0.012981	1.000000	0.000000	0.000019	0.000001	-10.365364	-75.941410	2.185331
04506	9.557699	-0.432911	2.412840	-0.056368	0.006380	0.054207	1.000000	0.000024	0.000009	0.000033	-10.374551	-75.940572	2.194938
04507	9.547123	-0.432241	2.354066	-0.002378	-0.001152	0.029874	1.000000	0.000018	-0.000002	0.000020	-10.380243	-75.941170	2.200413
04508	9.543825	-0.460168	2.374465	-0.026640	-0.025800	0.032772	1.000000	0.000018	0.000008	0.000011	-10.380140	-75.940949	2.199834
04509	9.540184	-0.445915	2.334881	0.012346	-0.017329	0.019157	1.000000	0.000024	-0.000009	0.000014	-10.383013	-75.942404	2.202948
04510	9.561988	-0.450917	2.360992	-0.008526	-0.018103	0.046766	1.000000	0.000014	-0.000023	0.000026	-10.392804	-75.945392	2.212037
04511	9.565325	-0.423403	2.340358	0.015456	0.006368	0.043870	1.000000	0.000022	-0.000009	0.000003	-10.390971	-75.947192	2.210132
04512	9.558466	-0.436885	2.320873	0.030305	-0.009748	0.033153	1.000000	0.000030	-0.000016	0.000027	-10.398454	-75.949377	2.218703
04513	9.558531	-0.437055	2.320571	0.030175	-0.009816	0.033154	1.000000	0.000024	-0.000018	0.000004	-10.397616	-75.952061	2.217920
04514	9.598438	-0.432079	2.333589	0.027695	-0.002726	0.074758	1.000000	0.000034	-0.000004	0.000010	-10.396381	-75.953218	2.217999
04515	9.573423	-0.455078	2.327500	0.024162	-0.026663	0.050045	1.000000	0.000019	-0.000001	0.000002	-10.393607	-75.954115	2.214862
04516	9.569767	-0.440732	2.287981	0.063131	-0.018251	0.036435	1.000000	0.000018	0.000008	0.000011	-10.393501	-75.953894	2.214280
04517	9.558489	-0.437160	2.320726	0.029607	-0.010169	0.033155	1.000000	0.000025	0.000021	0.000006	-10.390278	-75.952233	2.211547
04518	9.561628	-0.409447	2.300953	0.053583	0.014251	0.030263	1.000000	0.000019	0.000037	0.000004	-10.384139	-75.948864	2.204860
04519	9.579950	-0.441938	2.348281	0.008591	-0.011008	0.060761	1.000000	0.000028	0.000021	0.000017	-10.385518	-75.946933	2.206998
04520	9.564980	-0.424113	2.341641	0.014174	0.005555	0.043872	1.000000	0.000025	0.000030	0.000016	-10.385007	-75.944160	2.206758
04521	9.568467	-0.438634	2.381776	-0.025083	-0.003027	0.057478	1.000000	0.000013	0.000024	0.000008	-10.383870	-75.942033	2.204535
04522	9.520531	-0.412433	2.381225	-0.032157	0.022354	0.009701	1.000000	0.000031	0.000032	0.000020	-10.384135	-75.938889	2.205818
04523	9.550062	-0.448592	2.396061	-0.043766	-0.011055	0.043478	1.000000	0.000025	0.000021	0.000006	-10.380868	-75.937254	2.202670
04524	9.560169	-0.407573	2.395301	-0.034774	0.029377	0.051305	1.000000	0.000028	0.000012	0.000008	-10.377674	-75.936601	2.200044
04525	9.535079	-0.430589	2.389500	-0.038321	0.005443	0.026588	1.000000	0.000028	0.000012	0.000008	-10.375397	-75.935900	2.198661
04526	9.538348	-0.402899	2.369222	-0.014334	0.029858	0.023701	1.000000	0.000028	-0.000007	0.000007	-10.373385	-75.937428	2.197216
04527	9.527192	-0.399122	2.401448	-0.047854	0.037957	0.020415	1.000000	0.000022	-0.000018	-0.000007	-10.367824	-75.940452	2.191480
04528	9.560179	-0.407368	2.395295	-0.035346	0.029030	0.051304	1.000000	0.000031	0.000004	0.000009	-10.365608	-75.940703	2.190205
04529	9.534851	-0.388319	2.329165	0.024383	0.038111	0.010100	1.000000	0.000024	-0.000018	0.000004	-10.364644	-75.943388	2.189451
04530	9.553331	-0.420852	2.375789	-0.020635	0.012835	0.040588	1.000000	0.000024	0.000000	0.000024	-10.370161	-75.943763	2.195312
04531	9.556612	-0.393304	2.355436	0.003375	0.037278	0.037703	1.000000	0.000019	-0.000001	0.000002	-10.367201	-75.944641	2.191947
04532	9.538452	-0.403079	2.368771	-0.015169	0.029326	0.023701	1.000000	0.000012	0.000014	0.000017	-10.369980	-75.943576	2.193579
04533	9.553239	-0.421307	2.376080	-0.021051	0.012585	0.040587	1.000000	0.000021	-0.000000	0.000013	-10.371671	-75.944183	2.195318
04534	9.538363	-0.403492	2.369060	-0.015453	0.029147	0.023701	1.000000	0.000012	0.000014	0.000017	-10.374449	-75.943118	2.196949
04535	9.542938	-0.462794	2.377518	-0.030492	-0.028126	0.032754	1.000000	0.000009	0.000003	0.000015	-10.378240	-75.943214	2.199222
04536	9.560020	-0.408726	2.395697	-0.036463	0.028322	0.051302	1.000000	0.000024	0.000000	0.000024	-10.383757	-75.943588	2.205082
04537	9.546170	-0.435478	2.357336	-0.006621	-0.003797	0.029872	1.000000	0.000025	0.000012	-0.000003	-10.376694	-75.943100	2.198031
04538	9.534890	-0.431972	2.390002	-0.040151	0.004282	0.026582	1.000000	0.000023	0.000009	0.000033	-10.385871	-75.942259	2.207627
04539	9.527950	-0.445623	2.370831	-0.025302	-0.011815	0.015866	1.000000	0.000015	-0.000003	0.000009	-10.386748	-75.943212	2.207867
04540	9.516734	-0.442032	2.403256	-0.058831	-0.003732	0.012575	1.000000	0.000040	-0.000002	0.000014	-10.386288	-75.943997	2.209467
04541	9.542770	-0.463847	2.377989	-0.031343	-0.028664	0.032750	1.000000	0.000021	-0.000000	0.000013	-10.387917	-75.944597	2.211120
04542	9.546094	-0.436273	2.357493	-0.007339	-0.004267	0.029871	1.000000	0.000012	-0.000014	0.000007	-10.388221	-75.946928	2.210199
04543	9.553014	-0.423079	2.376668	-0.022455	0.011686	0.040585	1.000000	0.000033	0.000005	0.000020	-10.391445	-75.946784	2.214863
04544	9.579049	-0.444981	2.351382	0.005016	-0.013284	0.060761	1.000000	0.000024	-0.000009	0.000014	-10.393301	-75.948373	2.216988
04545	9.539243	-0.450017	2.337938	0.007216	-0.020551	0.019156	1.000000	0.000024	-0.000018	0.000004	-10.392257	-75.951105	2.216267
04546	9.575520	-0.430790	2.311403	0.043864	-0.004999	0.047171	1.000000	0.000027	0.000002	0.000016	-10.393906	-75.951418	2.218558
04547	9.550467	-0.453952	2.305405	0.040309	-0.028936	0.022449	1.000000	0.000021	-0.000000	0.000013	-10.395490	-75.951994	2.220165
04548	9.546162	-0.436955	2.357092	-0.008194	-0.004814	0.029870	1.000000	0.000019	-0.000001	0.000002	-10.391717	-75.952989	2.215840
04549	9.560676	-0.413022	2.304266	0.049206	0.011404	0.030290	1.000000	0.000021	-0.000000	0.000013	-10.393379	-75.953597	2.217600
04550	9.579089	-0.445485	2.351125	0.004154	-0.013837	0.060761	1.000000	0.000012	0.000005	0.000008	-10.392492	-75.953747	2.215490
04551	9.542459	-0.422931	2.317801	0.030525	0.003390	0.016283	1.000000	0.000028	0.000021	0.000017	-10.393693	-75.951779	2.217386
04552	9.560832	-0.455348	2.364816	-0.014531	-0.021845	0.046751	1.000000	0.000019	-0.000001	0.000002	-10.389920	-75.952774	2.213061
04553	9.570991	-0.414353	2.363903	-0.005468	0.018603	0.054593	1.000000	0.000013	0.000024	0.000008	-10.388593	-75.950621	2.210528
04554	9.542262	-0.423066	2.318587	0.030097	0.003096	0.016284	1.000000	0.000022	0.000010	0.000004	-10.384612	-75.950340	2.206370
04555	9.545809	-0.437378	2.358444	-0.009177	-0.005436	0.029869	1.000000	0.000028	0.000012	0.000008	-10.382118	-75.949581	2.204538
04556	9.563882	-0.427806	2.345451	0.009074	0.002276	0.043879	1.000000	0.000018	0.000008	0.000011	-10.382006	-75.949359	2.203949
04557	9.549007	-0.409856	2.338478	0.014708	0.018866	0.026999	1.000000	0.000028	0.000012	0.000008	-10.379540	-75.948631	2.202213
04558	9.563817	-0.427943	2.345692	0.008787	0.002092	0.043880	1.000000	0.000018	-0.000011	0.000010	-10.380620	-75.950590	2.202814
04559	9.555871	-0.396568	2.357893	-0.000544	0.034715	0.037713	1.000000	0.000035	0.000025	0.000003	-10.374011	-75.948509	2.197436
04560	9.567310	-0.442217	2.385757	-0.030643	-0.006541	0.057461	1.000000	0.000006	0.000003	0.000004	-10.372347	-75.949030	2.193804
04561	9.562693	-0.383214	2.377486	-0.015794	0.050568	0.048427	1.000000	0.000031	0.000004	0.000009	-10.370830	-75.949192	2.193209
04562	9.552408	-0.424400	2.378868	-0.025152	0.009943	0.040581	1.000000	0.000018	0.000017	0.000021	-10.374378	-75.947755	2.196356
04563	9.533904	-0.392289	2.332374	0.019639	0.034970	0.010122	1.000000	0.000015	0.000016	0.000010	-10.373951	-75.946536	2.195061
04564	9.548934	-0.452394	2.399839	-0.049616	-0.014719	0.043446	1.000000	0.000018	0.000008	0.000011	-10.373838	-75.946315	2.194472
04565	9.537388	-0.406842	2.372412	-0.019799	0.026346	0.023701	1.000000	0.000018	0.000008	0.000011	-10.374388	-75.946053	2.194569
04566	9.552131	-0.425085	2.379856	-0.025727	0.009573	0.040580	1.000000	0.000018	0.000017	0.000021	-10.377933	-75.944616	2.197713
04567	9.585014	-0.433595	2.374088	-0.013247	0.000636	0.071472	1.000000	0.000016	0.000007	0.000000	-10.373776	-75.944648	2.192542
04568	9.537211	-0.407212	2.373060	-0.020233	0.026052	0.023701	1.000000	0.000018	0.000008	0.000011	-10.373663	-75.944426	2.191953
04569	9.552042	-0.425282	2.380179	-0.026159	0.009305	0.040579	1.000000	0.000024	-0.000018	0.000004	-10.372464	-75.947187	2.190964
04570	9.545123	-0.438783	2.360958	-0.011345	-0.006844	0.029866	1.000000	0.000018	0.000017	0.000021	-10.376009	-75.945750	2.194108
04571	9.548677	-0.453310	2.400690	-0.050639	-0.015352	0.043439	1.000000	0.000024	-0.000009	0.000014	-10.378446	-75.947282	2.196871
04572	9.552021	-0.425832	2.380165	-0.026598	0.009011	0.040578	1.000000	0.000030	-0.000006	0.000018	-10.381076	-75.948499	2.200514
04573	9.540800	-0.422266	2.412561	-0.060103	0.017174	0.037273	1.000000	0.000021	-0.000000	0.000013	-10.382565	-75.949123	2.201843
04574	9.571138	-0.461343	2.335649	0.015649	-0.032131	0.050046	1.000000	0.000018	-0.000002	0.000020	-10.387305	-75.949866	2.206179
04575	9.570119	-0.416909	2.366980	-0.008616	0.016544	0.054594	1.000000	0.000021	0.000009	0.000022	-10.392429	-75.949235	2.211298
04576	9.545055	-0.440138	2.360980	-0.012210	-0.007410	0.029864	1.000000	0.000024	-0.000009	0.000014	-10.394286	-75.950824	2.213422
04577	9.545056	-0.440229	2.360959	-0.012342	-0.007489	0.029864	1.000000	0.000031	0.000004	0.000009	-10.392705	-75.950965	2.212685
04578	9.577985	-0.448794	2.354990	0.000119	-0.016463	0.060758	1.000000	0.000018	-0.000002	0.000020	-10.397444	-75.951708	2.217022
04579	9.556246	-0.444379	2.328579	0.020736	-0.015929	0.033170	1.000000	0.000027	0.000002	0.000016	-10.399704	-75.951923	2.219887
04580	9.563144	-0.431177	2.347840	0.005629	0.000012	0.043882	1.000000	0.000021	-0.000000	0.000013	-10.400575	-75.952606	2.220653
04581	9.544998	-0.440937	2.361063	-0.012913	-0.007864	0.029863	1.000000	0.000021	-0.000000	0.000013	-10.402073	-75.953208	2.222014
04582	9.548311	-0.413381	2.340699	0.011141	0.016486	0.027008	1.000000	0.000031	0.000004	0.000009	-10.399847	-75.953460	2.220729
04583	9.563090	-0.431541	2.347994	0.005206	-0.000260	0.043882	1.000000	0.000009	0.000003	0.000015	-10.403416	-75.953589	2.222796
04584	9.544962	-0.441305	2.361140	-0.013350	-0.008159	0.029862	1.000000	0.000037	-0.000013	0.000012	-10.403165	-75.955650	2.224230
04585	9.566446	-0.403944	2.327464	0.029135	0.024002	0.041029	1.000000	0.000013	0.000006	-0.000011	-10.394324	-75.955922	2.214077
04586	9.584787	-0.436206	2.374524	-0.015977	-0.001170	0.071468	1.000000	0.000031	0.000013	0.000019	-10.395754	-75.954957	2.216523
04587	9.533375	-0.395672	2.333968	0.016255	0.032684	0.010136	1.000000	0.000015	0.000016	0.000010	-10.395241	-75.953710	2.214955
04588	9.581069	-0.422180	2.335390	0.022905	0.007037	0.057904	1.000000	0.000031	0.000004	0.000009	-10.393014	-75.953962	2.213669
04589	9.544753	-0.441559	2.361934	-0.014041	-0.008620	0.029861	1.000000	0.000015	0.000006	0.000019	-10.397322	-75.953699	2.217158
04590	9.554934	-0.400774	2.360975	-0.004929	0.031777	0.037722	1.000000	0.000022	0.000019	0.000014	-10.396989	-75.952201	2.216723
04591	9.559190	-0.418064	2.309515	0.043243	0.007363	0.030322	1.000000	0.000021	-0.000000	0.000013	-10.398404	-75.952805	2.217887
04592	9.562686	-0.432487	2.349464	0.003929	-0.001135	0.043883	1.000000	0.000025	0.000030	0.000016	-10.397855	-75.950031	2.217611
04593	9.551372	-0.428676	2.382256	-0.029571	0.007056	0.040571	1.000000	0.000013	0.000006	-0.000011	-10.388987	-75.950392	2.207503
04594	9.576363	-0.405737	2.388522	-0.026261	0.030789	0.065305	1.000000	0.000024	0.000019	0.000025	-10.393295	-75.948582	2.212157
04595	9.551244	-0.428967	2.382720	-0.029849	0.006865	0.040570	1.000000	0.000021	-0.000000	0.000013	-10.394665	-75.949138	2.213269
04596	9.569333	-0.419513	2.369698	-0.011590	0.014538	0.054594	1.000000	0.000022	0.000019	0.000014	-10.394331	-75.947640	2.212832
04597	9.554479	-0.401639	2.362668	-0.005912	0.031114	0.037723	1.000000	0.000021	-0.000000	0.000013	-10.395704	-75.948239	2.214167
04598	9.565905	-0.447423	2.390417	-0.036098	-0.010093	0.057440	1.000000	0.000018	0.000008	0.000011	-10.395585	-75.948017	2.213571
04599	9.562270	-0.433299	2.351007	0.002925	-0.001802	0.043883	1.000000	0.000015	0.000016	0.000010	-10.394981	-75.946860	2.212241
04600	9.529262	-0.424996	2.357239	-0.009816	0.006977	0.012987	1.000000	0.000018	0.000008	0.000011	-10.394862	-75.946639	2.211645
04601	9.555306	-0.446851	2.331960	0.017585	-0.018060	0.033172	1.000000	0.000024	-0.000018	0.000004	-10.393536	-75.949347	2.210578
04602	9.547408	-0.415610	2.343984	0.008310	0.014556	0.027014	1.000000	0.000024	0.000019	0.000025	-10.397840	-75.947536	2.215228
04603	9.550914	-0.430177	2.383823	-0.030999	0.006101	0.040567	1.000000	0.000018	-0.000002	0.000020	-10.403078	-75.948210	2.220115
04604	9.543971	-0.443772	2.364678	-0.016207	-0.010070	0.029856	1.000000	0.000018	0.000008	0.000011	-10.402957	-75.947988	2.219518
04605	9.543924	-0.443900	2.364844	-0.016343	-0.010155	0.029856	1.000000	0.000018	0.000008	0.000011	-10.403341	-75.947681	2.219321
04606	9.562044	-0.434441	2.351716	0.001917	-0.002494	0.043883	1.000000	0.000021	-0.000000	0.000013	-10.404210	-75.948364	2.220085
04607	9.555091	-0.447904	2.332640	0.016729	-0.018644	0.033173	1.000000	0.000028	0.000012	0.000008	-10.401548	-75.947576	2.217933
04608	9.587017	-0.411615	2.358058	0.005110	0.021148	0.068622	1.000000	0.000018	0.000008	0.000011	-10.401427	-75.947355	2.217335
04609	9.558559	-0.462285	2.372650	-0.022727	-0.027200	0.046722	1.000000	0.000031	0.000004	0.000009	-10.399624	-75.947483	2.216385
04610	9.543730	-0.444416	2.365531	-0.017051	-0.010646	0.029854	1.000000	0.000015	0.000006	0.000019	-10.403371	-75.947320	2.219356
04611	9.561879	-0.435026	2.352277	0.001223	-0.002970	0.043883	1.000000	0.000018	-0.000011	0.000010	-10.404926	-75.949196	2.220381
04612	9.536821	-0.458072	2.346238	-0.002401	-0.026909	0.019143	1.000000	0.000031	0.000004	0.000009	-10.402697	-75.949448	2.219092
04613	9.550636	-0.431301	2.384731	-0.032416	0.005144	0.040563	1.000000	0.000025	0.000001	0.000005	-10.400156	-75.950019	2.216798
04614	9.543736	-0.444738	2.365448	-0.017630	-0.011033	0.029853	1.000000	0.000018	-0.000011	0.000010	-10.401242	-75.951978	2.217405
04615	9.568784	-0.421876	2.371496	-0.014292	0.012710	0.054593	1.000000	0.000015	0.000016	0.000010	-10.400578	-75.950779	2.215786
04616	9.540139	-0.430717	2.325901	0.021261	-0.002882	0.016307	1.000000	0.000037	-0.000013	0.000012	-10.400329	-75.952840	2.217220
04617	9.561862	-0.435243	2.352309	0.000353	-0.003555	0.043883	1.000000	0.000013	0.000006	-0.000011	-10.391433	-75.953180	2.206996
04618	9.579999	-0.425675	2.339141	0.018615	0.004093	0.057915	1.000000	0.000018	-0.000002	0.000020	-10.396170	-75.953921	2.211328
04619	9.547032	-0.417447	2.345188	0.005903	0.012910	0.027018	1.000000	0.000018	0.000008	0.000011	-10.396548	-75.953623	2.211273
04620	9.561759	-0.435643	2.352651	-0.000084	-0.003857	0.043883	1.000000	0.000031	0.000013	0.000019	-10.397968	-75.952657	2.213709
04621	9.571999	-0.394823	2.351533	0.009097	0.036541	0.051761	1.000000	0.000021	-0.000000	0.000013	-10.399267	-75.953273	2.214846
04622	9.579833	-0.426400	2.339689	0.018039	0.003698	0.057916	1.000000	0.000024	0.000010	0.000015	-10.399915	-75.952679	2.215763
04623	9.546846	-0.418003	2.345850	0.005330	0.012515	0.027019	1.000000	0.000016	0.000007	0.000000	-10.395549	-75.952691	2.210370
04624	9.558015	-0.421945	2.313669	0.038523	0.004079	0.030343	1.000000	0.000018	0.000017	0.000021	-10.399075	-75.951251	2.213494
04625	9.568398	-0.423018	2.372849	-0.015732	0.011739	0.054592	1.000000	0.000031	0.000013	0.000019	-10.400985	-75.950238	2.216290
04626	9.571704	-0.395512	2.352618	0.008376	0.036038	0.051763	1.000000	0.000022	0.000010	0.000004	-10.396992	-75.949958	2.212119
04627	9.546574	-0.418476	2.346870	0.004753	0.012122	0.027019	1.000000	0.000028	0.000012	0.000008	-10.394186	-75.949235	2.209934
04628	9.575128	-0.409746	2.392784	-0.031096	0.027515	0.065301	1.000000	0.000009	0.000014	0.000006	-10.392300	-75.948480	2.206453
04629	9.535243	-0.414826	2.379641	-0.028869	0.020260	0.023693	1.000000	0.000030	-0.000006	0.000018	-10.395329	-75.949599	2.210556
04630	9.546472	-0.418797	2.347229	0.004322	0.011817	0.027020	1.000000	0.000012	0.000005	0.000007	-10.394434	-75.949749	2.208437
04631	9.549943	-0.433133	2.387175	-0.035005	0.003406	0.040555	1.000000	0.000028	0.000021	0.000017	-10.395226	-75.947810	2.210035
04632	9.535095	-0.415228	2.380163	-0.029304	0.019958	0.023692	1.000000	0.000006	0.000003	0.000004	-10.393560	-75.948332	2.206399
04633	9.574905	-0.410411	2.393560	-0.031801	0.027033	0.065300	1.000000	0.000031	0.000013	0.000019	-10.395343	-75.947290	2.209141
04634	9.571301	-0.396314	2.354123	0.007240	0.035240	0.051767	1.000000	0.000022	0.000010	0.000004	-10.391350	-75.947009	2.204970
04635	9.560959	-0.437436	2.355571	-0.002239	-0.005330	0.043882	1.000000	0.000015	0.000006	0.000019	-10.395503	-75.946756	2.208180
04636	9.527976	-0.429261	2.361661	-0.014950	0.003483	0.012983	1.000000	0.000015	0.000006	0.000019	-10.399245	-75.946592	2.211147
04637	9.579027	-0.428287	2.342642	0.015880	0.002209	0.057920	1.000000	0.000022	0.000010	0.000004	-10.395674	-75.946281	2.207362
04638	9.535760	-0.460875	2.349998	-0.006180	-0.029456	0.019134	1.000000	0.000021	-0.000000	0.000013	-10.396540	-75.946963	2.208122
04639	9.542616	-0.447640	2.369416	-0.021244	-0.013463	0.029842	1.000000	0.000028	0.000021	0.000017	-10.397268	-75.945047	2.209437
04640	9.545970	-0.420188	2.349019	0.002880	0.010820	0.027022	1.000000	0.000012	-0.000014	0.000007	-10.397586	-75.947379	2.208529
04641	9.553820	-0.451763	2.337098	0.011804	-0.022016	0.033173	1.000000	0.000031	0.000013	0.000019	-10.399359	-75.946325	2.211264
04642	9.534675	-0.416580	2.381607	-0.030738	0.018978	0.023690	1.000000	0.000025	0.000001	0.000005	-10.396357	-75.946949	2.208455
04643	9.538997	-0.433773	2.330014	0.017372	-0.005558	0.016314	1.000000	0.000037	-0.000002	0.000003	-10.391657	-75.948001	2.205227
04644	9.578854	-0.428846	2.343248	0.014858	0.001495	0.057922	1.000000	0.000021	-0.000000	0.000013	-10.392523	-75.948683	2.205986
04645	9.542520	-0.448021	2.369727	-0.022113	-0.014055	0.029840	1.000000	0.000025	0.000001	0.000005	-10.389825	-75.949234	2.203439
04646	9.549457	-0.434657	2.388843	-0.037179	0.001929	0.040547	1.000000	0.000018	-0.000011	0.000010	-10.390912	-75.951193	2.204046
04647	9.553768	-0.451990	2.337266	0.010927	-0.022619	0.033173	1.000000	0.000028	0.000012	0.000008	-10.388037	-75.950479	2.201558
04648	9.578779	-0.429140	2.343499	0.014279	0.001090	0.057923	1.000000	0.000031	0.000013	0.000019	-10.389449	-75.949512	2.203986
04649	9.552736	-0.407281	2.368746	-0.013323	0.026023	0.037731	1.000000	0.000031	-0.000005	-0.000001	-10.383970	-75.950925	2.199235
04650	9.520721	-0.443645	2.343644	-0.002064	-0.013993	0.002272	1.000000	0.000018	0.000008	0.000011	-10.383842	-75.950703	2.198630
04651	9.585621	-0.415767	2.362998	-0.001068	0.016890	0.068632	1.000000	0.000016	0.000007	0.000000	-10.379413	-75.950754	2.193262
04652	9.538814	-0.434103	2.330701	0.016060	-0.006472	0.016315	1.000000	0.000031	0.000004	0.000009	-10.377177	-75.951005	2.191966
04653	9.545715	-0.420693	2.349965	0.001006	0.009530	0.027023	1.000000	0.000025	0.000001	0.000005	-10.374533	-75.951587	2.189377
04654	9.545679	-0.420771	2.350099	0.000857	0.009423	0.027023	1.000000	0.000024	0.000010	0.000015	-10.375174	-75.950992	2.190287
04655	9.545618	-0.421020	2.350300	0.000727	0.009330	0.027023	1.000000	0.000021	0.000009	0.000022	-10.380022	-75.950341	2.194888
04656	9.545603	-0.421262	2.350319	0.000577	0.009222	0.027024	1.000000	0.000024	-0.000009	0.000014	-10.381879	-75.951928	2.197010
04657	9.560355	-0.439478	2.357639	-0.005441	-0.007523	0.043879	1.000000	0.000006	0.000012	0.000013	-10.384256	-75.951182	2.197470
04658	9.563704	-0.412040	2.337296	0.018705	0.016739	0.041070	1.000000	0.000031	0.000004	0.000009	-10.382020	-75.951433	2.196174
04659	9.552430	-0.408217	2.369815	-0.014753	0.025030	0.037731	1.000000	0.000012	0.000005	0.000007	-10.381452	-75.951486	2.194215
04660	9.549006	-0.435917	2.390414	-0.039202	0.000557	0.040540	1.000000	0.000027	0.000002	0.000016	-10.383085	-75.951795	2.196488
04661	9.563614	-0.412469	2.337586	0.018291	0.016440	0.041071	1.000000	0.000015	0.000006	0.000019	-10.387112	-75.951531	2.199514
04662	9.559229	-0.395333	2.389401	-0.030088	0.040823	0.048439	1.000000	0.000034	0.000015	0.000011	-10.384650	-75.950505	2.198368
04663	9.556588	-0.426165	2.318787	0.032910	0.000134	0.030365	1.000000	0.000021	-0.000000	0.000013	-10.385814	-75.951107	2.199374
04664	9.545289	-0.422506	2.351372	-0.000563	0.008420	0.027024	1.000000	0.000018	0.000017	0.000021	-10.389327	-75.949665	2.202486
04665	9.560008	-0.440659	2.358825	-0.006586	-0.008329	0.043878	1.000000	0.000019	-0.000001	0.000002	-10.385850	-75.950584	2.198405
04666	9.603232	-0.408322	2.351661	0.015202	0.023079	0.082682	1.000000	0.000027	0.000011	0.000026	-10.391126	-75.949674	2.204397
04667	9.533899	-0.419146	2.384265	-0.034309	0.016523	0.023683	1.000000	0.000018	0.000008	0.000011	-10.391292	-75.949379	2.204225
04668	9.541675	-0.450718	2.372619	-0.025446	-0.016341	0.029828	1.000000	0.000015	0.000016	0.000010	-10.390166	-75.948253	2.202251
04669	9.563206	-0.413837	2.339014	0.017148	0.015624	0.041074	1.000000	0.000018	-0.000002	0.000020	-10.395189	-75.948916	2.206878
04670	9.584831	-0.418685	2.365686	-0.003792	0.014968	0.068634	1.000000	0.000028	0.000021	0.000017	-10.395599	-75.947043	2.207932
04671	9.559700	-0.441720	2.359874	-0.007459	-0.008936	0.043877	1.000000	0.000022	-0.000009	0.000003	-10.393081	-75.948914	2.205284
04672	9.563117	-0.414159	2.339320	0.016705	0.015309	0.041076	1.000000	0.000031	0.000004	0.000009	-10.390843	-75.949165	2.203986
04673	9.526735	-0.433133	2.365956	-0.020285	-0.000183	0.012974	1.000000	0.000025	0.000012	-0.000003	-10.383266	-75.948812	2.196501
04674	9.541458	-0.451157	2.373407	-0.026330	-0.016943	0.029825	1.000000	0.000027	0.000002	0.000016	-10.384896	-75.949121	2.198771
04675	9.563022	-0.414087	2.339722	0.016269	0.015009	0.041077	1.000000	0.000028	0.000003	-0.000002	-10.378317	-75.949625	2.192619
04676	9.566503	-0.428181	2.379554	-0.023096	0.006662	0.054582	1.000000	0.000018	0.000008	0.000011	-10.378185	-75.949402	2.192009
04677	9.544792	-0.423725	2.353169	-0.002444	0.007111	0.027025	1.000000	0.000021	-0.000000	0.000013	-10.379341	-75.950038	2.192982
04678	9.566480	-0.428335	2.379617	-0.023388	0.006462	0.054582	1.000000	0.000013	-0.000004	-0.000002	-10.374797	-75.951408	2.187139
04679	9.552587	-0.455254	2.341455	0.006264	-0.025856	0.033169	1.000000	0.000028	0.000021	0.000017	-10.375465	-75.949454	2.188213
04680	9.544722	-0.423929	2.353415	-0.002879	0.006800	0.027025	1.000000	0.000012	-0.000014	0.000007	-10.375785	-75.951785	2.187305
04681	9.566395	-0.428659	2.379901	-0.023812	0.006169	0.054581	1.000000	0.000031	0.000013	0.000019	-10.377538	-75.950740	2.189936
04682	9.555946	-0.428074	2.321076	0.030150	-0.001824	0.030373	1.000000	0.000022	-0.000009	0.000003	-10.374756	-75.952640	2.186973
04683	9.551618	-0.410838	2.372636	-0.018197	0.022621	0.037731	1.000000	0.000015	0.000006	0.000019	-10.378810	-75.952417	2.190174
04684	9.544648	-0.424403	2.353631	-0.003455	0.006400	0.027025	1.000000	0.000022	0.000010	0.000004	-10.374806	-75.952136	2.185993
04685	9.580960	-0.405371	2.327315	0.033250	0.021675	0.055136	1.000000	0.000031	0.000004	0.000009	-10.372826	-75.952342	2.184882
04686	9.562723	-0.415058	2.340771	0.014677	0.013881	0.041081	1.000000	0.000018	0.000017	0.000021	-10.376334	-75.950900	2.187988
04687	9.544510	-0.424758	2.354125	-0.003889	0.006101	0.027025	1.000000	0.000009	-0.000006	0.000005	-10.375946	-75.952285	2.185922
04688	9.547941	-0.397369	2.333512	0.020296	0.030328	0.024234	1.000000	0.000036	-0.000003	0.000022	-10.379339	-75.953124	2.191071
04689	9.569559	-0.402124	2.360211	-0.000645	0.029698	0.051788	1.000000	0.000013	0.000024	0.000008	-10.377488	-75.951051	2.187790
04690	9.562545	-0.415780	2.341372	0.014093	0.013472	0.041082	1.000000	0.000021	0.000009	0.000022	-10.381990	-75.950512	2.192261
04691	9.562510	-0.415937	2.341488	0.013949	0.013376	0.041083	1.000000	0.000025	0.000001	0.000005	-10.379277	-75.951102	2.189858
04692	9.577235	-0.434098	2.348889	0.007885	-0.003383	0.057930	1.000000	0.000015	0.000006	0.000019	-10.383011	-75.950937	2.192815
04693	9.551194	-0.412372	2.374075	-0.019659	0.021613	0.037731	1.000000	0.000027	0.000002	0.000016	-10.384895	-75.951236	2.195244
04694	9.537329	-0.439502	2.335761	0.009962	-0.010735	0.016320	1.000000	0.000018	-0.000002	0.000020	-10.389625	-75.951974	2.199568
04695	9.544209	-0.426263	2.355073	-0.005058	0.005289	0.027025	1.000000	0.000015	0.000016	0.000010	-10.388741	-75.950762	2.197653
04696	9.544171	-0.426448	2.355192	-0.005208	0.005182	0.027025	1.000000	0.000012	-0.000005	0.000016	-10.392704	-75.951873	2.200464
04697	9.551065	-0.413394	2.374415	-0.020236	0.021207	0.037731	1.000000	0.000023	0.000009	0.000033	-10.402060	-75.950990	2.209885
04698	9.551901	-0.458561	2.343606	0.003458	-0.027796	0.033165	1.000000	0.000022	0.000010	0.000004	-10.398054	-75.950710	2.205701
04699	9.569138	-0.404190	2.361565	-0.002097	0.028676	0.051791	1.000000	0.000018	0.000008	0.000011	-10.398167	-75.950419	2.205208
04700	9.529235	-0.409160	2.348503	0.000133	0.021423	0.010180	1.000000	0.000022	0.000010	0.000004	-10.394161	-75.950139	2.201024
04701	9.576866	-0.435842	2.350072	0.006573	-0.004304	0.057930	1.000000	0.000015	0.000006	0.000019	-10.398133	-75.949906	2.204090
04702	9.543896	-0.427343	2.356146	-0.006079	0.004570	0.027025	1.000000	0.000019	0.000009	-0.000007	-10.389491	-75.949942	2.194825
04703	9.543846	-0.427235	2.356370	-0.006226	0.004473	0.027025	1.000000	0.000028	0.000012	0.000008	-10.386503	-75.949269	2.192319
04704	9.568898	-0.404358	2.362507	-0.002827	0.028159	0.051792	1.000000	0.000018	0.000008	0.000011	-10.386366	-75.949046	2.191704
04705	9.543804	-0.427197	2.356545	-0.006515	0.004269	0.027025	1.000000	0.000032	-0.000014	-0.000010	-10.377088	-75.951677	2.183372
04706	9.561968	-0.417707	2.343383	0.011762	0.011826	0.041088	1.000000	0.000024	0.000020	0.000025	-10.381356	-75.949861	2.187984
04707	9.540278	-0.454992	2.377417	-0.031173	-0.020248	0.029804	1.000000	0.000027	0.000002	0.000016	-10.383193	-75.950166	2.190444
04708	9.543688	-0.427607	2.356940	-0.006964	0.003957	0.027025	1.000000	0.000012	0.000005	0.000007	-10.382288	-75.950316	2.188316
04709	9.561853	-0.418228	2.343761	0.011311	0.011518	0.041088	1.000000	0.000021	-0.000000	0.000013	-10.383345	-75.951009	2.189243
04710	9.568750	-0.404830	2.363027	-0.003713	0.027541	0.051793	1.000000	0.000022	0.000010	0.000004	-10.379338	-75.950729	2.185058
04711	9.569586	-0.449759	2.332273	0.019960	-0.021467	0.047226	1.000000	0.000028	0.000012	0.000008	-10.376346	-75.950019	2.182204
04712	9.543577	-0.427652	2.357380	-0.007556	0.003547	0.027024	1.000000	0.000019	-0.000010	-0.000008	-10.368930	-75.952235	2.174160
04713	9.580005	-0.450136	2.391164	-0.034454	-0.013713	0.071411	1.000000	0.000031	0.000004	0.000009	-10.366941	-75.952484	2.173009
04714	9.543564	-0.427678	2.357431	-0.007856	0.003344	0.027024	1.000000	0.000009	0.000003	0.000015	-10.369906	-75.952691	2.174450
04715	9.528793	-0.409788	2.350185	-0.002046	0.019894	0.010183	1.000000	0.000031	0.000004	0.000009	-10.367845	-75.952823	2.173011
04716	9.561715	-0.418439	2.344285	0.010293	0.010791	0.041090	1.000000	0.000030	-0.000006	0.000018	-10.370469	-75.954035	2.176644
04717	9.568625	-0.405142	2.363477	-0.004717	0.026823	0.051795	1.000000	0.000018	0.000008	0.000011	-10.370439	-75.953759	2.176039
04718	9.525271	-0.437720	2.371001	-0.026855	-0.004721	0.012957	1.000000	0.000024	0.000011	0.000015	-10.371065	-75.953162	2.176934
04719	9.583289	-0.423580	2.371054	-0.010960	0.009969	0.068635	1.000000	0.000027	-0.000008	0.000025	-10.377755	-75.954433	2.184406
04720	9.568534	-0.405796	2.363734	-0.005165	0.026509	0.051796	1.000000	0.000018	0.000008	0.000011	-10.377615	-75.954210	2.183788
04721	9.543380	-0.428660	2.357998	-0.008875	0.002625	0.027024	1.000000	0.000038	0.000008	-0.000006	-10.367827	-75.954340	2.175299
04722	9.561504	-0.419272	2.344995	0.009404	0.010164	0.041092	1.000000	0.000014	0.000015	0.000028	-10.375193	-75.952953	2.181964
04723	9.561426	-0.419593	2.345257	0.009269	0.010062	0.041092	1.000000	0.000024	0.000011	0.000015	-10.375958	-75.952273	2.182814
04724	9.557901	-0.447238	2.366115	-0.015260	-0.014337	0.043862	1.000000	0.000015	0.000016	0.000010	-10.374818	-75.951145	2.180826
04725	9.576044	-0.437890	2.353039	0.003016	-0.006794	0.057931	1.000000	0.000021	-0.000000	0.000013	-10.375842	-75.951841	2.181661
04726	9.521409	-0.424958	2.332586	0.011202	0.002609	-0.000519	1.000000	0.000031	0.000013	0.000019	-10.377232	-75.950871	2.184066
04727	9.528294	-0.411668	2.351879	-0.003808	0.018650	0.010185	1.000000	0.000021	-0.000000	0.000013	-10.378261	-75.951534	2.184759
04728	9.561178	-0.420399	2.346125	0.008520	0.009536	0.041093	1.000000	0.000031	0.000013	0.000019	-10.379650	-75.950563	2.187163
04729	9.542898	-0.430133	2.359677	-0.010050	0.001795	0.027023	1.000000	0.000018	0.000017	0.000021	-10.383263	-75.949056	2.190355
04730	9.568842	-0.452308	2.334830	0.017137	-0.023464	0.047227	1.000000	0.000025	0.000001	0.000005	-10.380252	-75.949680	2.187537
04731	9.567947	-0.407427	2.365831	-0.006781	0.025371	0.051798	1.000000	0.000027	0.000002	0.000016	-10.382108	-75.949992	2.190017
04732	9.557522	-0.448547	2.367397	-0.016459	-0.015163	0.043858	1.000000	0.000018	0.000008	0.000011	-10.381965	-75.949768	2.189397
04733	9.542744	-0.430727	2.360192	-0.010640	0.001383	0.027022	1.000000	0.000015	0.000006	0.000019	-10.385845	-75.949538	2.192378
04734	9.549628	-0.417539	2.379466	-0.025649	0.017422	0.037725	1.000000	0.000015	0.000006	0.000019	-10.389571	-75.949371	2.195326
04735	9.535744	-0.444696	2.341244	0.003923	-0.014969	0.016318	1.000000	0.000021	-0.000000	0.000013	-10.390624	-75.950019	2.196119
04736	9.549609	-0.417742	2.379505	-0.025943	0.017218	0.037725	1.000000	0.000031	-0.000005	-0.000001	-10.384744	-75.951491	2.191103
04737	9.542643	-0.431292	2.360496	-0.011233	0.000972	0.027021	1.000000	0.000018	0.000017	0.000021	-10.388416	-75.950035	2.194382
04738	9.564228	-0.435985	2.387269	-0.032204	0.000368	0.054559	1.000000	0.000022	0.000010	0.000004	-10.384403	-75.949755	2.190192
04739	9.560728	-0.421971	2.347677	0.006910	0.008395	0.041096	1.000000	0.000031	0.000004	0.000009	-10.382342	-75.949943	2.189098
04740	9.567639	-0.408580	2.366876	-0.008096	0.024436	0.051799	1.000000	0.000021	-0.000000	0.000013	-10.383198	-75.950624	2.189848
04741	9.531217	-0.427552	2.393476	-0.045097	0.009083	0.023649	1.000000	0.000022	0.000010	0.000004	-10.379322	-75.950263	2.185681
04742	9.553714	-0.435590	2.328855	0.021328	-0.008074	0.030393	1.000000	0.000031	0.000004	0.000009	-10.377074	-75.950513	2.184373
04743	9.557145	-0.449730	2.368694	-0.018073	-0.016292	0.043854	1.000000	0.000009	0.000003	0.000015	-10.380209	-75.950682	2.186264
04744	9.560603	-0.422339	2.348118	0.006180	0.007869	0.041097	1.000000	0.000019	-0.000001	0.000002	-10.376432	-75.951679	2.181934
04745	9.545853	-0.445780	2.401165	-0.051654	-0.007969	0.040479	1.000000	0.000031	0.000004	0.000009	-10.374330	-75.951885	2.180800
04746	9.560564	-0.422459	2.348255	0.005888	0.007660	0.041097	1.000000	0.000009	0.000003	0.000015	-10.377290	-75.952092	2.182237
04747	9.542320	-0.432119	2.361650	-0.012690	-0.000062	0.027020	1.000000	0.000024	0.000011	0.000015	-10.378051	-75.951459	2.183049
04748	9.560457	-0.422837	2.348624	0.005594	0.007450	0.041097	1.000000	0.000024	0.000011	0.000015	-10.378670	-75.950861	2.183936
04749	9.560421	-0.422993	2.348740	0.005446	0.007350	0.041097	1.000000	0.000021	-0.000000	0.000013	-10.379709	-75.951526	2.184705
04750	9.527489	-0.414558	2.354631	-0.007161	0.016269	0.010188	1.000000	0.000021	-0.000000	0.000013	-10.380565	-75.952206	2.185454
04751	9.567281	-0.409822	2.368109	-0.009698	0.023297	0.051800	1.000000	0.000028	0.000021	0.000017	-10.381091	-75.950308	2.186812
04752	9.542084	-0.432874	2.362465	-0.013435	-0.000582	0.027019	1.000000	0.000006	0.000003	0.000004	-10.379418	-75.950831	2.183168
04753	9.567194	-0.409977	2.368433	-0.009993	0.023091	0.051801	1.000000	0.000031	0.000004	0.000009	-10.377367	-75.951057	2.182215
04754	9.542035	-0.433043	2.362634	-0.013731	-0.000787	0.027018	1.000000	0.000009	0.000003	0.000015	-10.380327	-75.951263	2.183651
04755	9.538565	-0.419248	2.322919	0.025397	0.007210	0.013566	1.000000	0.000021	-0.000000	0.000013	-10.381349	-75.951857	2.184202
04756	9.560226	-0.423859	2.349379	0.004419	0.006617	0.041098	1.000000	0.000028	-0.000007	0.000007	-10.379337	-75.953384	2.182754
04757	9.553286	-0.437488	2.330256	0.019123	-0.009644	0.030396	1.000000	0.000015	0.000006	0.000019	-10.383219	-75.953156	2.185804
04758	9.548895	-0.420262	2.381929	-0.029151	0.014961	0.037720	1.000000	0.000021	0.000009	0.000022	-10.387705	-75.952614	2.190258
04759	9.560143	-0.424649	2.349573	0.003985	0.006306	0.041099	1.000000	0.000027	-0.000008	0.000025	-10.394325	-75.953839	2.197699
04760	9.560128	-0.424891	2.349593	0.003835	0.006199	0.041099	1.000000	0.000018	0.000008	0.000011	-10.394177	-75.953615	2.197074
04761	9.530593	-0.430605	2.395411	-0.048025	0.007049	0.023637	1.000000	0.000023	0.000009	0.000033	-10.403456	-75.952727	2.206613
04762	9.560032	-0.425375	2.349893	0.003540	0.005990	0.041099	1.000000	0.000022	0.000001	-0.000006	-10.395809	-75.953670	2.198713
04763	9.560009	-0.425253	2.350011	0.003388	0.005888	0.041099	1.000000	0.000022	0.000010	0.000004	-10.391941	-75.953397	2.194582
04764	9.548670	-0.421239	2.382657	-0.030039	0.014343	0.037718	1.000000	0.000015	0.000016	0.000010	-10.390788	-75.952270	2.192582
04765	9.538228	-0.420880	2.324008	0.023923	0.006154	0.013570	1.000000	0.000018	0.000008	0.000011	-10.390725	-75.952034	2.191988
04766	9.559858	-0.425608	2.350561	0.002940	0.005569	0.041100	1.000000	0.000012	-0.000005	0.000016	-10.394687	-75.953143	2.194797
04767	9.563272	-0.439711	2.390414	-0.036479	-0.002611	0.054544	1.000000	0.000028	0.000012	0.000008	-10.391511	-75.952478	2.192056
04768	9.545098	-0.407799	2.343323	0.008638	0.021999	0.024273	1.000000	0.000024	-0.000009	0.000014	-10.393370	-75.954061	2.194178
04769	9.548505	-0.421998	2.383185	-0.030776	0.013825	0.037716	1.000000	0.000018	0.000017	0.000021	-10.396976	-75.952573	2.197327
04770	9.567492	-0.457706	2.339308	0.011186	-0.027663	0.047224	1.000000	0.000016	0.000007	0.000000	-10.392195	-75.952668	2.191622
04771	9.566615	-0.412665	2.370303	-0.012630	0.021212	0.051802	1.000000	0.000031	0.000004	0.000009	-10.390049	-75.952872	2.190286
04772	9.519810	-0.431141	2.337973	0.004453	-0.002185	-0.000513	1.000000	0.000021	-0.000000	0.000013	-10.390904	-75.953552	2.191033
04773	9.566570	-0.412883	2.370449	-0.012937	0.021006	0.051802	1.000000	0.000018	0.000008	0.000011	-10.390940	-75.953371	2.190474
04774	9.563045	-0.440471	2.391180	-0.037527	-0.003334	0.054540	1.000000	0.000021	-0.000000	0.000013	-10.391795	-75.954050	2.191221
04775	9.559589	-0.426707	2.351453	0.001601	0.004626	0.041100	1.000000	0.000009	0.000003	0.000015	-10.394880	-75.954232	2.192887
04776	9.552602	-0.440433	2.332504	0.016284	-0.011653	0.030399	1.000000	0.000031	0.000013	0.000019	-10.396255	-75.953260	2.195277
04777	9.548198	-0.423028	2.384229	-0.031956	0.012998	0.037714	1.000000	0.000018	0.000008	0.000011	-10.396172	-75.952954	2.194542
04778	9.566388	-0.413718	2.371036	-0.013667	0.020479	0.051802	1.000000	0.000015	-0.000003	0.000009	-10.396264	-75.954007	2.193781
04779	9.552509	-0.440782	2.332819	0.015846	-0.011968	0.030400	1.000000	0.000031	0.000004	0.000009	-10.394158	-75.954250	2.192616
04780	9.574115	-0.445387	2.359473	-0.005144	-0.012543	0.057924	1.000000	0.000018	0.000008	0.000011	-10.394007	-75.954026	2.191988
04781	9.541157	-0.436884	2.365472	-0.017720	-0.003589	0.027011	1.000000	0.000012	0.000005	0.000007	-10.393215	-75.954149	2.189909
04782	9.559366	-0.427586	2.352200	0.000569	0.003887	0.041101	1.000000	0.000024	-0.000009	0.000014	-10.395076	-75.955733	2.192032
04783	9.537721	-0.423102	2.325684	0.021263	0.004250	0.013577	1.000000	0.000016	0.000007	0.000000	-10.390435	-75.955806	2.186563
04784	9.566243	-0.414194	2.371536	-0.014556	0.019855	0.051802	1.000000	0.000031	0.000013	0.000019	-10.391808	-75.954834	2.188951
04785	9.555730	-0.455362	2.373324	-0.024326	-0.020646	0.043832	1.000000	0.000006	0.000012	0.000013	-10.393835	-75.954095	2.189128
04786	9.547921	-0.424013	2.385165	-0.033288	0.012065	0.037711	1.000000	0.000021	-0.000000	0.000013	-10.394689	-75.954774	2.189875
04787	9.544455	-0.410073	2.345543	0.005854	0.020004	0.024280	1.000000	0.000032	0.000014	0.000000	-10.387668	-75.954007	2.183760
04788	9.566058	-0.414673	2.372199	-0.015138	0.019435	0.051802	1.000000	0.000018	-0.000002	0.000020	-10.392392	-75.954742	2.188076
04789	9.559103	-0.428292	2.353141	-0.000463	0.003153	0.041101	1.000000	0.000016	0.000007	0.000000	-10.387712	-75.954835	2.182650
04790	9.559082	-0.428327	2.353221	-0.000613	0.003046	0.041101	1.000000	0.000021	-0.000000	0.000013	-10.388565	-75.955514	2.183396
04791	9.562608	-0.400937	2.332484	0.023703	0.027153	0.038374	1.000000	0.000022	-0.000009	0.000003	-10.385842	-75.957389	2.180450
04792	9.547802	-0.424361	2.385578	-0.034173	0.011441	0.037708	1.000000	0.000031	0.000013	0.000019	-10.387213	-75.956417	2.182836
04793	9.559031	-0.428431	2.353409	-0.001059	0.002731	0.041101	1.000000	0.000013	0.000006	-0.000011	-10.377926	-75.956826	2.172174
04794	9.559002	-0.428487	2.353517	-0.001209	0.002623	0.041101	1.000000	0.000030	0.000003	0.000027	-10.384173	-75.956813	2.179506
04795	9.558967	-0.428721	2.353614	-0.001361	0.002519	0.041101	1.000000	0.000012	0.000005	0.000007	-10.383330	-75.956972	2.177371
