// Start Time: Unknown
// Update Rate: 100.0Hz
// Filter Profile: human (46.1)
// Firmware Version: 4.4.0
PacketCounter	Acc_X	Acc_Y	Acc_Z	FreeAcc_X	FreeAcc_Y	FreeAcc_Z	OriInc_q0	OriInc_q1	OriInc_q2	OriInc_q3	Roll	Pitch	Yaw
21560	2.534280	0.039672	12.837388	-0.000000	0.000000	3.272521	1.000000	0.000009	0.000048	-0.000070	0.175764	-11.170112	178.486425
21561	2.565737	0.022156	12.817865	-0.000000	0.000000	3.259464	1.000000	-0.000007	0.000055	-0.000084	0.098484	-11.322398	178.695091
21562	2.520729	0.031551	12.857915	0.035289	-0.001824	3.289976	1.000000	-0.000005	0.000047	-0.000071	0.136938	-11.243624	178.567296
21563	2.519513	0.031746	12.858153	0.035289	-0.001824	3.289976	1.000000	-0.000010	0.000048	-0.000079	0.137626	-11.238149	178.558084
21564	2.539908	0.027834	12.868446	0.015946	0.002936	3.304040	1.000000	0.000009	0.000065	-0.000087	0.140290	-11.230801	178.548033
21565	2.505702	0.046187	12.888493	0.051522	-0.015832	3.317088	1.000000	-0.000009	0.000043	-0.000089	0.141283	-11.225810	178.537609
21566	2.548639	-0.007283	12.829332	-0.001701	0.039260	3.267291	1.000000	0.000010	0.000027	-0.000063	0.143815	-11.222566	178.530290
21567	2.525832	0.019834	12.829277	0.019070	0.012037	3.262864	1.000000	-0.000004	0.000042	-0.000081	0.145211	-11.217693	178.520812
21568	2.568213	0.033955	12.859336	-0.018276	-0.000704	3.300629	1.000000	0.000003	0.000053	-0.000067	0.146990	-11.211425	178.512967
21569	2.534337	0.007567	12.859773	0.014481	0.025303	3.294403	1.000000	0.000006	0.000040	-0.000065	0.149193	-11.206790	178.505378
21570	2.544108	0.039170	12.849764	0.001057	-0.005582	3.286565	1.000000	0.000001	0.000041	-0.000073	0.150797	-11.201918	178.496884
21571	2.564966	-0.009156	12.840452	-0.021123	0.044028	3.281355	1.000000	0.000027	0.000049	-0.000061	0.155316	-11.196331	178.489822
21572	2.541796	0.062912	12.859980	0.002459	-0.028049	3.296202	1.000000	-0.000001	0.000033	-0.000068	0.156357	-11.192447	178.481906
21573	2.540767	0.040911	12.850419	0.001050	-0.005661	3.286565	1.000000	0.000003	0.000053	-0.000067	0.158246	-11.186318	178.474045
21574	2.528566	0.054994	12.880429	0.017252	-0.019633	3.313677	1.000000	0.000011	0.000039	-0.000057	0.160678	-11.181754	178.467436
21575	2.549317	0.072912	12.840649	-0.012358	-0.036541	3.278726	1.000000	-0.000008	0.000043	-0.000056	0.161056	-11.176813	178.460937
21576	2.526264	0.077327	12.830855	0.006986	-0.041337	3.264663	1.000000	-0.000005	0.000051	-0.000060	0.162004	-11.170895	178.453860
21577	2.557825	0.060427	12.871154	-0.016933	-0.023213	3.310266	1.000000	0.000015	0.000043	-0.000072	0.165312	-11.165967	178.445463
21578	2.556661	0.082838	12.821359	-0.027183	-0.044820	3.261251	1.000000	0.000001	0.000045	-0.000063	0.167408	-11.160710	178.438033
21579	2.555602	0.060805	12.811811	-0.028592	-0.022433	3.251615	1.000000	0.000001	0.000045	-0.000063	0.168894	-11.155477	178.430722
21580	2.565040	0.092799	12.861649	-0.030245	-0.053684	3.302429	1.000000	-0.000006	0.000051	-0.000094	0.171321	-11.149941	178.419580
21581	2.563849	0.070462	12.852131	-0.031654	-0.031298	3.292791	1.000000	-0.000024	0.000050	-0.000070	0.170173	-11.144166	178.411469
21582	2.551933	0.061817	12.872317	-0.016639	-0.022441	3.310267	1.000000	0.000010	0.000027	-0.000063	0.174499	-11.141900	178.403797
21583	2.583661	0.044486	12.852824	-0.052215	-0.003674	3.297219	1.000000	0.000001	0.000062	-0.000080	0.176375	-11.134764	178.394458
21584	2.560355	0.049005	12.843069	-0.032540	-0.008161	3.283156	1.000000	-0.000010	0.000052	-0.000068	0.178327	-11.130147	178.386194
21585	2.537379	0.031015	12.823490	-0.014587	0.009388	3.259453	1.000000	-0.000010	0.000047	-0.000079	0.178994	-11.124686	178.377004
21586	2.546858	0.040609	12.863563	-0.017315	0.000690	3.300630	1.000000	0.000003	0.000053	-0.000067	0.182687	-11.120340	178.368784
21587	2.523836	0.000547	12.834237	-0.000773	0.040623	3.267287	1.000000	0.000001	0.000062	-0.000080	0.184549	-11.113210	178.359454
21588	2.544109	0.041313	12.864105	-0.016832	0.000984	3.300631	1.000000	-0.000012	0.000035	-0.000085	0.186517	-11.111200	178.349263
21589	2.510415	0.014573	12.864458	0.015929	0.026989	3.294398	1.000000	-0.000000	0.000050	-0.000052	0.187685	-11.105506	178.343176
21590	2.519874	0.023571	12.844766	0.001477	0.018763	3.276926	1.000000	-0.000008	0.000064	-0.000063	0.189203	-11.099684	178.335703
21591	2.518737	0.001376	12.835239	0.000065	0.041145	3.267286	1.000000	-0.000002	0.000038	-0.000058	0.190268	-11.095345	178.328953
21592	2.506746	0.015248	12.865173	0.016740	0.027299	3.294397	1.000000	0.000004	0.000032	-0.000060	0.192495	-11.093611	178.321778
21593	2.516844	0.024515	12.845358	0.001935	0.018839	3.276925	1.000000	0.000009	0.000031	-0.000052	0.194683	-11.090008	178.315700
21594	2.526942	0.033784	12.825544	-0.012527	0.010281	3.259454	1.000000	0.000004	0.000032	-0.000060	0.196050	-11.087794	178.308699
21595	2.526032	0.012234	12.875739	-0.002266	0.032026	3.308464	1.000000	-0.000002	0.000038	-0.000058	0.197103	-11.083469	178.301956
21596	2.546890	0.052858	12.845731	-0.030096	-0.007467	3.283162	1.000000	0.000024	0.000024	-0.000072	0.200609	-11.082316	178.293706
21597	2.567899	0.049416	12.855965	-0.049450	-0.002638	3.297230	1.000000	0.000012	0.000039	-0.000057	0.203166	-11.077822	178.287097
21598	2.588725	0.023077	12.856499	-0.069555	0.024397	3.301662	1.000000	-0.000020	0.000054	-0.000085	0.201957	-11.074601	178.277354
21599	2.587266	0.045617	12.866534	-0.068133	0.001999	3.311301	1.000000	0.000006	0.000044	-0.000055	0.203788	-11.069533	178.271020
21600	2.553049	0.063800	12.886455	-0.031411	-0.016794	3.324344	1.000000	0.000003	0.000053	-0.000067	0.205716	-11.068471	178.263224
21601	2.562854	0.028116	12.847227	-0.049021	0.019515	3.287598	1.000000	-0.000013	0.000065	-0.000071	0.205730	-11.061151	178.254997
21602	2.550498	0.019416	12.867478	-0.033198	0.027941	3.305069	1.000000	-0.000004	0.000046	-0.000071	0.206819	-11.060262	178.246832
21603	2.549091	0.064073	12.827482	-0.042021	-0.016199	3.265700	1.000000	0.000009	0.000048	-0.000070	0.209388	-11.054886	178.238735
21604	2.504067	0.050904	12.857586	0.008150	-0.004033	3.286563	1.000000	-0.000011	0.000056	-0.000058	0.210035	-11.053685	178.232036
21605	2.524843	0.024713	12.858142	-0.012579	0.023192	3.290998	1.000000	0.000015	0.000043	-0.000072	0.213345	-11.048939	178.223661
21606	2.490754	0.042919	12.878009	0.024428	0.003688	3.304027	1.000000	-0.000009	0.000043	-0.000089	0.211174	-11.050343	178.213436
21607	2.511433	0.060996	12.838312	-0.005151	-0.013234	3.269097	1.000000	0.000009	0.000048	-0.000070	0.213711	-11.045061	178.205354
21608	2.521327	0.026179	12.858830	-0.009687	0.022078	3.291003	1.000000	0.000009	0.000048	-0.000070	0.214841	-11.045824	178.197456
21609	2.519833	0.071453	12.878589	-0.006789	-0.022713	3.310276	1.000000	0.000009	0.000031	-0.000052	0.216968	-11.042494	178.191408
21610	2.519198	0.049613	12.868978	-0.007046	-0.001152	3.300640	1.000000	0.000007	0.000036	-0.000075	0.215874	-11.043586	178.182668
21611	2.551270	0.032472	12.849522	-0.042556	0.017583	3.287623	1.000000	0.000007	0.000036	-0.000075	0.218227	-11.039783	178.173955
21612	2.571870	0.050866	12.869600	-0.059703	-0.000456	3.311342	1.000000	-0.000016	0.000040	-0.000049	0.215400	-11.038633	178.168320
21613	2.548989	0.055165	12.859704	-0.040281	-0.005332	3.297260	1.000000	0.000001	0.000041	-0.000073	0.217008	-11.034222	178.159889
21614	2.581099	0.038131	12.840253	-0.073239	0.013212	3.284262	1.000000	0.000023	0.000029	-0.000061	0.220396	-11.042590	178.153724
21615	2.569143	0.074133	12.820126	-0.067190	-0.022506	3.262350	1.000000	-0.000001	0.000033	-0.000068	0.221606	-11.039220	178.145836
21616	2.557442	0.043198	12.830506	-0.051203	0.007818	3.270187	1.000000	-0.000004	0.000046	-0.000071	0.220706	-11.045403	178.138217
21617	2.567089	0.030395	12.860821	-0.055578	0.021051	3.301734	1.000000	-0.000005	0.000051	-0.000060	0.221255	-11.040199	178.131283
21618	2.576674	0.039509	12.841137	-0.068354	0.011718	3.284289	1.000000	-0.000002	0.000054	-0.000075	0.219020	-11.043172	178.122428
21619	2.553356	0.022101	12.881329	-0.038530	0.028550	3.319200	1.000000	-0.000003	0.000058	-0.000065	0.219892	-11.037175	178.114982
21620	2.563088	0.031421	12.861616	-0.050948	0.019026	3.301756	1.000000	0.000012	0.000035	-0.000067	0.218290	-11.043915	178.107079
21621	2.551038	0.022936	12.881787	-0.035936	0.027387	3.319209	1.000000	-0.000010	0.000051	-0.000068	0.218286	-11.038769	178.099261
21622	2.538665	0.036040	12.852009	-0.026822	0.012608	3.287670	1.000000	-0.000008	0.000064	-0.000063	0.212631	-11.052097	178.093180
21623	2.537249	0.036215	12.852288	-0.026588	0.012495	3.287671	1.000000	-0.000004	0.000046	-0.000071	0.213236	-11.047805	178.085133
21624	2.514091	0.018822	12.892431	0.004261	0.028615	3.322568	1.000000	0.000003	0.000053	-0.000067	0.211798	-11.046898	178.076484
21625	2.513227	0.018736	12.832868	-0.007288	0.029163	3.263943	1.000000	0.000001	0.000041	-0.000073	0.213067	-11.043213	178.068189
21626	2.523223	0.028005	12.813109	-0.018891	0.020419	3.246502	1.000000	0.000004	0.000032	-0.000060	0.214036	-11.053894	178.064119
21627	2.543823	0.024900	12.883210	-0.026149	0.024452	3.319238	1.000000	0.000012	0.000035	-0.000067	0.216442	-11.051067	178.056490
21628	2.531751	0.060754	12.863084	-0.017862	-0.011916	3.297306	1.000000	-0.000001	0.000033	-0.000068	0.215042	-11.057803	178.049750
21629	2.585687	0.039364	12.853825	-0.072506	0.011559	3.298482	1.000000	0.000001	0.000041	-0.000073	0.216310	-11.054363	178.041457
21630	2.540989	0.025905	12.883767	-0.020545	0.021357	3.319254	1.000000	-0.000015	0.000036	-0.000059	0.206095	-11.063469	178.032195
21631	2.583545	0.039698	12.854255	-0.069260	0.009138	3.298501	1.000000	0.000003	0.000053	-0.000067	0.207288	-11.058775	178.024633
21632	2.538794	0.004129	12.874484	-0.019099	0.042510	3.309647	1.000000	0.000003	0.000053	-0.000067	0.204715	-11.064107	178.017305
21633	2.581336	0.018103	12.844983	-0.067800	0.030281	3.288904	1.000000	-0.000002	0.000037	-0.000058	0.205063	-11.061285	178.010845
21634	2.557906	0.044924	12.844871	-0.044185	0.002734	3.284398	1.000000	0.000001	0.000062	-0.000080	0.205943	-11.066881	178.005173
21635	2.545648	0.036507	12.865066	-0.028951	0.010998	3.301832	1.000000	0.000007	0.000040	-0.000065	0.207414	-11.063914	177.997901
21636	2.522855	0.040931	12.855107	-0.007408	0.003695	3.287701	1.000000	-0.000011	0.000035	-0.000084	0.197131	-11.070038	177.983677
21637	2.543817	0.036449	12.805711	-0.038203	0.009013	3.243231	1.000000	-0.000008	0.000063	-0.000063	0.196687	-11.064450	177.976734
21638	2.509113	0.032597	12.875586	0.009732	0.012218	3.305132	1.000000	0.000017	0.000055	-0.000066	0.201769	-11.066490	177.973286
21639	2.518826	0.042064	12.855893	-0.004728	0.003579	3.287703	1.000000	0.000001	0.000041	-0.000073	0.202715	-11.063591	177.965121
21640	2.528647	0.051275	12.836183	-0.019275	-0.007225	3.270273	1.000000	-0.000004	0.000046	-0.000070	0.193092	-11.060048	177.950243
21641	2.516304	0.043245	12.916098	0.007883	0.000239	3.346309	1.000000	0.000005	0.000028	-0.000070	0.194182	-11.058624	177.942414
21642	2.537304	0.061465	12.876414	-0.017333	-0.018248	3.311454	1.000000	0.000001	0.000041	-0.000073	0.189366	-11.074169	177.937392
21643	2.536420	0.061951	12.876585	-0.016872	-0.018514	3.311454	1.000000	0.000010	0.000027	-0.000062	0.190767	-11.073106	177.930540
21644	2.514190	0.044108	12.856794	0.003539	-0.001619	3.287703	1.000000	-0.000001	0.000033	-0.000068	0.189489	-11.080662	177.925159
21645	2.545844	0.049291	12.847251	-0.030158	-0.005502	3.284437	1.000000	0.000003	0.000053	-0.000067	0.190233	-11.076730	177.917773
21646	2.566908	0.045132	12.797861	-0.057716	-0.000518	3.240012	1.000000	0.000001	0.000041	-0.000073	0.190093	-11.088381	177.914787
21647	2.544035	0.027873	12.837904	-0.027405	0.016056	3.274851	1.000000	0.000012	0.000035	-0.000067	0.191845	-11.086770	177.907416
21648	2.564323	0.046668	12.858080	-0.042850	-0.001929	3.298617	1.000000	-0.000002	0.000054	-0.000075	0.191967	-11.091177	177.902042
21649	2.563085	0.046998	12.858325	-0.042291	-0.002209	3.298619	1.000000	-0.000004	0.000042	-0.000081	0.192205	-11.088837	177.893057
21650	2.550752	0.082695	12.838216	-0.033504	-0.040598	3.276628	1.000000	0.000001	0.000041	-0.000073	0.182047	-11.097490	177.880015
21651	2.539138	0.051832	12.848568	-0.019487	-0.010091	3.284455	1.000000	0.000001	0.000041	-0.000073	0.182517	-11.095360	177.872035
21652	2.538409	0.030006	12.839013	-0.016882	0.011399	3.274874	1.000000	0.000014	0.000047	-0.000061	0.182059	-11.108170	177.870345
21653	2.558708	0.048691	12.859191	-0.034063	-0.006535	3.298641	1.000000	-0.000012	0.000039	-0.000074	0.180962	-11.106486	177.862254
21654	2.524903	0.044074	12.869130	0.001914	-0.004520	3.301868	1.000000	0.000001	0.000041	-0.000073	0.175850	-11.109920	177.850628
21655	2.545570	0.062217	12.829537	-0.027247	-0.021711	3.267053	1.000000	-0.000007	0.000055	-0.000083	0.175450	-11.106515	177.841495
21656	2.534353	0.008730	12.830117	-0.013802	0.029900	3.265304	1.000000	-0.000009	0.000031	-0.000061	0.168663	-11.109658	177.830004
21657	2.565302	0.058538	12.840138	-0.044416	-0.018902	3.281244	1.000000	0.000001	0.000045	-0.000062	0.168581	-11.107361	177.823325
21658	2.520907	0.022800	12.860216	0.005490	0.013765	3.292290	1.000000	0.000007	0.000040	-0.000065	0.163215	-11.113085	177.813440
21659	2.574117	0.046417	12.870650	-0.045837	-0.007849	3.312849	1.000000	-0.000001	0.000033	-0.000068	0.162941	-11.112269	177.806134
21660	2.551725	0.028414	12.850879	-0.025309	0.007926	3.289087	1.000000	0.000001	0.000045	-0.000062	0.156625	-11.119359	177.797404
21661	2.572320	0.024687	12.861317	-0.043887	0.012301	3.303289	1.000000	0.000000	0.000049	-0.000052	0.156015	-11.116782	177.792015
21662	2.549165	0.028975	12.851386	-0.022821	0.006264	3.289093	1.000000	-0.000007	0.000055	-0.000083	0.151841	-11.118603	177.781125
21663	2.547977	0.029223	12.851621	-0.022114	0.005820	3.289094	1.000000	-0.000002	0.000037	-0.000058	0.151080	-11.117470	177.775093
21664	2.469517	0.055522	12.910705	0.066885	-0.024690	3.332001	1.000000	0.000001	0.000045	-0.000062	0.147278	-11.124653	177.769329
21665	2.579113	0.034136	12.782555	-0.064878	0.001294	3.227346	1.000000	-0.000008	0.000043	-0.000055	0.145740	-11.123035	177.763589
21666	2.489603	0.051369	12.861551	0.038894	-0.020808	3.287630	1.000000	-0.000004	0.000046	-0.000070	0.141556	-11.129400	177.756496
21667	2.522656	-0.010404	12.822733	0.001038	0.042368	3.255770	1.000000	0.000012	0.000039	-0.000057	0.142186	-11.128283	177.750647
21668	2.652244	0.010215	12.843933	-0.120665	0.025856	3.301652	1.000000	-0.000001	0.000033	-0.000068	0.138332	-11.137925	177.746170
21669	2.487127	0.030137	12.852339	0.041947	-0.000636	3.278056	1.000000	-0.000002	0.000037	-0.000058	0.137373	-11.137185	177.740216
21670	2.617000	0.050650	12.873494	-0.079879	-0.016239	3.323958	1.000000	0.000005	0.000011	-0.000053	0.138024	-11.148441	177.740810
21671	2.605579	0.041682	12.833810	-0.076227	-0.007504	3.282793	1.000000	0.000003	0.000069	-0.000084	0.138257	-11.144137	177.731760
21672	2.625057	0.082805	12.863858	-0.090152	-0.048386	3.316142	1.000000	-0.000002	0.000037	-0.000058	0.136043	-11.150359	177.727677
21673	2.504279	0.049842	12.873138	0.031025	-0.020437	3.301816	1.000000	-0.000005	0.000050	-0.000060	0.134750	-11.148304	177.721461
21674	2.546249	0.086420	12.853584	-0.015164	-0.056901	3.290824	1.000000	0.000004	0.000049	-0.000077	0.128009	-11.149519	177.705983
21675	2.546359	0.019865	12.824521	-0.018778	0.009840	3.262183	1.000000	0.000007	0.000056	-0.000082	0.128437	-11.146782	177.697254
21676	2.576473	0.092280	12.844411	-0.047414	-0.063296	3.287670	1.000000	-0.000011	0.000035	-0.000084	0.118979	-11.148068	177.678809
21677	2.510409	0.082154	12.804179	0.009668	-0.055791	3.235404	1.000000	0.000003	0.000053	-0.000067	0.118574	-11.145740	177.671871
21678	2.497500	0.074050	12.884127	0.038422	-0.050278	3.311325	1.000000	0.000000	0.000049	-0.000052	0.111048	-11.147755	177.660853
21679	2.573788	0.048449	12.825592	-0.047039	-0.021562	3.268592	1.000000	-0.000004	0.000046	-0.000070	0.109737	-11.146270	177.653555
21680	2.550280	0.052959	12.875369	-0.012692	-0.027386	3.312896	1.000000	-0.000020	0.000037	-0.000067	0.108776	-11.155090	177.653901
21681	2.517478	0.003333	12.865680	0.019410	0.020482	3.296952	1.000000	0.000001	0.000045	-0.000062	0.107862	-11.153845	177.647546
21682	2.570952	0.004712	12.866479	-0.031655	0.021800	3.308083	1.000000	0.000002	0.000041	-0.000073	0.110717	-11.159562	177.646496
21683	2.548197	0.009048	12.856430	-0.011526	0.016443	3.293829	1.000000	-0.000001	0.000033	-0.000068	0.109747	-11.159777	177.639466
21684	2.568383	0.049906	12.826670	-0.038201	-0.024861	3.268615	1.000000	0.000019	0.000062	-0.000070	0.104319	-11.160759	177.625585
21685	2.555073	0.086236	12.866366	-0.019355	-0.061936	3.305049	1.000000	-0.000002	0.000037	-0.000058	0.102934	-11.160509	177.619799
21686	2.566628	0.028427	12.817348	-0.037726	-0.002942	3.259090	1.000000	0.000002	0.000041	-0.000073	0.105366	-11.160487	177.613569
21687	2.542981	0.033174	12.867132	-0.005398	-0.009207	3.303364	1.000000	-0.000005	0.000050	-0.000060	0.103684	-11.158749	177.607505
21688	2.541878	0.055256	12.817357	-0.013797	-0.030331	3.254360	1.000000	-0.000004	0.000046	-0.000070	0.107095	-11.163574	177.607848
21689	2.551513	0.042551	12.847728	-0.017139	-0.017756	3.285997	1.000000	-0.000009	0.000047	-0.000078	0.105374	-11.162285	177.599622
21690	2.550315	0.042756	12.847965	-0.012803	-0.019287	3.286000	1.000000	-0.000004	0.000046	-0.000070	0.100405	-11.176416	177.599322
21691	2.549029	0.043050	12.848219	-0.011848	-0.019887	3.286000	1.000000	-0.000002	0.000054	-0.000075	0.099415	-11.174535	177.591525
21692	2.525596	0.069603	12.847952	0.010551	-0.048986	3.281237	1.000000	-0.000004	0.000029	-0.000053	0.091901	-11.178870	177.580504
21693	2.536096	0.034448	12.868487	0.005774	-0.014029	3.303360	1.000000	-0.000012	0.000039	-0.000074	0.089636	-11.178697	177.572875
21694	2.567686	0.039729	12.859101	-0.027521	-0.017843	3.300283	1.000000	0.000003	0.000053	-0.000067	0.090762	-11.176626	177.565443
21695	2.545749	-0.000725	12.829536	-0.010359	0.021632	3.266964	1.000000	-0.000004	0.000046	-0.000070	0.089295	-11.175666	177.558216
21696	2.554836	0.009031	12.869686	-0.011578	0.011632	3.308129	1.000000	0.000001	0.000045	-0.000062	0.087911	-11.177189	177.550593
21697	2.542277	0.044633	12.849552	-0.004886	-0.024563	3.285996	1.000000	0.000001	0.000045	-0.000062	0.086826	-11.176336	177.544314
21698	2.541563	0.022777	12.840029	-0.006313	-0.003135	3.276482	1.000000	0.000012	0.000055	-0.000074	0.085332	-11.170483	177.528743
21699	2.539004	0.068055	12.859856	-0.002354	-0.048633	3.295505	1.000000	0.000003	0.000053	-0.000067	0.084607	-11.168688	177.521940
21700	2.517073	0.027707	12.830287	0.015752	-0.009463	3.262187	1.000000	0.000004	0.000048	-0.000077	0.083013	-11.171709	177.514800
21701	2.547951	0.033715	12.880708	-0.005202	-0.014636	3.317644	1.000000	0.000002	0.000041	-0.000072	0.082180	-11.171347	177.507342
21702	2.546456	0.056480	12.890661	-0.002121	-0.038109	3.327150	1.000000	-0.000000	0.000029	-0.000078	0.079591	-11.175112	177.497213
21703	2.546751	0.033991	12.821299	-0.014971	-0.015372	3.259128	1.000000	-0.000002	0.000054	-0.000075	0.078405	-11.173280	177.489496
21704	2.545471	0.034285	12.821553	-0.013759	-0.015630	3.259129	1.000000	-0.000004	0.000046	-0.000070	0.078605	-11.173369	177.482424
21705	2.553800	0.066463	12.871507	-0.013977	-0.048022	3.309793	1.000000	0.000003	0.000053	-0.000067	0.077823	-11.171639	177.475647
21706	2.531452	0.048337	12.851675	0.004956	-0.030149	3.285985	1.000000	-0.000002	0.000037	-0.000058	0.080090	-11.172777	177.473517
21707	2.552880	0.022238	12.852378	-0.014795	-0.003588	3.290789	1.000000	-0.000012	0.000039	-0.000074	0.077746	-11.172640	177.465926
21708	2.529361	0.048868	12.852085	0.007530	-0.030372	3.285983	1.000000	0.000014	0.000047	-0.000061	0.082963	-11.174243	177.464379
21709	2.550051	0.045351	12.862591	-0.010699	-0.026243	3.300293	1.000000	-0.000012	0.000039	-0.000074	0.080659	-11.174120	177.456774
21710	2.549020	0.045593	12.862794	-0.007987	-0.026249	3.300295	1.000000	0.000002	0.000041	-0.000072	0.083019	-11.181345	177.456887
21711	2.548535	0.023561	12.853238	-0.008528	-0.004439	3.290794	1.000000	-0.000004	0.000046	-0.000070	0.081528	-11.180511	177.449681
21712	2.557713	0.055214	12.843384	-0.018934	-0.035946	3.282954	1.000000	0.000001	0.000045	-0.000062	0.080503	-11.189019	177.450255
21713	2.567517	0.042670	12.873741	-0.022103	-0.023460	3.314617	1.000000	-0.000001	0.000033	-0.000068	0.079322	-11.189770	177.443326
21714	2.544946	0.068786	12.813613	-0.011575	-0.050712	3.251288	1.000000	0.000002	0.000041	-0.000072	0.077006	-11.194876	177.437080
21715	2.576665	0.052490	12.854245	-0.033915	-0.033487	3.297282	1.000000	0.000005	0.000028	-0.000070	0.076514	-11.196274	177.429898
21716	2.576377	0.030543	12.844655	-0.033745	-0.011060	3.287792	1.000000	0.000001	0.000045	-0.000062	0.078336	-11.198597	177.427210
21717	2.553304	0.034707	12.834608	-0.013536	-0.016442	3.273461	1.000000	-0.000007	0.000054	-0.000083	0.076822	-11.196948	177.418541
21718	2.551131	0.035455	12.894666	-0.000134	-0.017382	3.331956	1.000000	0.000000	0.000049	-0.000052	0.078343	-11.195662	177.413948
21719	2.561867	0.044392	12.815233	-0.026538	-0.025411	3.256129	1.000000	0.000007	0.000035	-0.000075	0.078282	-11.196179	177.406220
21720	2.539697	0.026300	12.795355	-0.007208	-0.007148	3.232302	1.000000	-0.000004	0.000046	-0.000070	0.082327	-11.198232	177.405148
21721	2.548588	0.035967	12.835542	-0.008796	-0.017099	3.273464	1.000000	-0.000010	0.000051	-0.000068	0.080158	-11.196985	177.398202
21722	2.558156	0.023320	12.865952	-0.012039	-0.004694	3.305135	1.000000	0.000001	0.000045	-0.000062	0.078703	-11.195937	177.388253
21723	2.546098	0.036565	12.836034	-0.006867	-0.018426	3.273463	1.000000	0.000003	0.000053	-0.000067	0.078026	-11.194481	177.381453
21724	2.534029	0.027757	12.856097	0.009925	-0.011397	3.290789	1.000000	-0.000014	0.000031	-0.000069	0.072329	-11.198911	177.372284
21725	2.543917	0.037146	12.836465	-0.004079	-0.020393	3.273461	1.000000	0.000017	0.000054	-0.000065	0.073120	-11.197299	177.365639
21726	2.564353	0.033992	12.847053	-0.022047	-0.016312	3.287812	1.000000	0.000014	0.000051	-0.000051	0.073109	-11.196876	177.358619
21727	2.552367	0.047312	12.817118	-0.016884	-0.030049	3.256136	1.000000	-0.000003	0.000041	-0.000080	0.071908	-11.196727	177.350232
21728	2.529337	0.029686	12.857017	0.014495	-0.013713	3.290782	1.000000	0.000007	0.000040	-0.000064	0.072714	-11.197968	177.343704
21729	2.560268	0.057691	12.857498	-0.017134	-0.040416	3.297295	1.000000	-0.000001	0.000049	-0.000085	0.071909	-11.196935	177.334783
21730	2.538037	0.039614	12.837621	0.001875	-0.023393	3.273457	1.000000	0.000007	0.000040	-0.000064	0.071366	-11.198621	177.327658
21731	2.558790	0.036245	12.848156	-0.016264	-0.019298	3.287816	1.000000	0.000002	0.000041	-0.000072	0.070549	-11.198593	177.320218
21732	2.556953	0.059152	12.858152	-0.013248	-0.042150	3.297294	1.000000	0.000014	0.000046	-0.000061	0.072065	-11.199733	177.315431
21733	2.556412	0.037177	12.848626	-0.013772	-0.020348	3.287817	1.000000	-0.000010	0.000051	-0.000068	0.069811	-11.198538	177.308524
21734	2.566405	0.046536	12.828984	-0.026786	-0.029430	3.270502	1.000000	0.000010	0.000027	-0.000062	0.069532	-11.204532	177.304341
21735	2.541774	0.073667	12.888447	0.007471	-0.058264	3.324080	1.000000	0.000000	0.000065	-0.000069	0.068452	-11.201705	177.297309
21736	2.531069	0.042168	12.838989	0.010239	-0.026281	3.273447	1.000000	0.000002	0.000040	-0.000072	0.071457	-11.204791	177.294302
21737	2.540757	0.029704	12.869386	0.007176	-0.013839	3.305132	1.000000	0.000001	0.000045	-0.000062	0.070328	-11.204351	177.288068
21738	2.549694	0.061400	12.859582	-0.005482	-0.045319	3.297289	1.000000	-0.000002	0.000058	-0.000064	0.068656	-11.201487	177.278875
21739	2.537325	0.052749	12.879688	0.010617	-0.037613	3.314598	1.000000	0.000004	0.000048	-0.000077	0.068232	-11.200644	177.270908
21740	2.537457	0.008456	12.860409	0.009467	0.006596	3.295659	1.000000	0.000003	0.000057	-0.000056	0.067160	-11.202961	177.267354
21741	2.535609	0.031191	12.870397	0.012089	-0.016503	3.305125	1.000000	-0.000000	0.000028	-0.000078	0.066257	-11.204423	177.259258
21742	2.545585	0.040471	12.850766	-0.002104	-0.025264	3.287816	1.000000	-0.000010	0.000051	-0.000068	0.065012	-11.202456	177.252632
21743	2.555912	0.027455	12.821444	-0.017681	-0.011814	3.261043	1.000000	0.000006	0.000060	-0.000071	0.064647	-11.200280	177.245342
21744	2.531851	0.032196	12.871135	0.014773	-0.017953	3.305120	1.000000	0.000002	0.000040	-0.000072	0.064914	-11.199036	177.235951
21745	2.541740	0.041570	12.851523	0.000762	-0.026952	3.287813	1.000000	-0.000004	0.000046	-0.000070	0.063362	-11.198519	177.228793
21746	2.552468	0.028667	12.822128	-0.014883	-0.012709	3.261046	1.000000	0.000008	0.000035	-0.000074	0.066786	-11.198763	177.223321
21747	2.561363	0.038537	12.862312	-0.016345	-0.022733	3.302203	1.000000	-0.000010	0.000051	-0.000068	0.064536	-11.197655	177.216422
21748	2.539083	0.020247	12.842427	0.001987	-0.005997	3.278349	1.000000	0.000004	0.000048	-0.000077	0.062484	-11.195639	177.204026
21749	2.548163	0.052112	12.832598	-0.010461	-0.037446	3.270505	1.000000	0.000002	0.000040	-0.000072	0.061646	-11.195703	177.196608
21750	2.526149	0.034020	12.812657	0.008331	-0.020982	3.246649	1.000000	0.000012	0.000039	-0.000056	0.058845	-11.196901	177.188288
21751	2.557683	0.017939	12.853424	-0.013840	-0.003857	3.292745	1.000000	0.000002	0.000040	-0.000072	0.057974	-11.196976	177.180884
21752	2.556079	0.062580	12.813382	-0.022318	-0.048689	3.253198	1.000000	0.000002	0.000040	-0.000072	0.055647	-11.196689	177.170910
21753	2.554813	0.041171	12.863606	-0.010268	-0.027953	3.302199	1.000000	0.000007	0.000040	-0.000064	0.055149	-11.196865	177.164454
21754	2.565675	0.028238	12.834200	-0.025416	-0.014509	3.275449	1.000000	-0.000006	0.000034	-0.000076	0.053530	-11.199733	177.156335
21755	2.553583	0.019345	12.854237	-0.009292	-0.006837	3.292748	1.000000	-0.000010	0.000051	-0.000068	0.051189	-11.198638	177.149474
21756	2.561719	0.073507	12.854208	-0.019864	-0.061036	3.294347	1.000000	0.000014	0.000046	-0.000061	0.050266	-11.199418	177.141991
21757	2.562375	0.029329	12.834857	-0.021972	-0.016795	3.275453	1.000000	0.000000	0.000028	-0.000078	0.049273	-11.200896	177.133941
21758	2.538634	0.033881	12.884444	0.011284	-0.022961	3.319489	1.000000	-0.000008	0.000042	-0.000088	0.048966	-11.202763	177.126686
21759	2.560325	0.030108	12.835264	-0.019408	-0.017849	3.275455	1.000000	0.000014	0.000046	-0.000061	0.049228	-11.202193	177.120650
21760	2.525531	0.047602	12.854698	0.028003	-0.006833	3.287809	1.000000	-0.000004	0.000046	-0.000070	0.183846	-11.240780	178.547253
21761	2.546129	0.044119	12.865318	0.009925	-0.002964	3.302228	1.000000	-0.000004	0.000046	-0.000070	0.183358	-11.240626	178.547077
21762	2.544995	0.044620	12.865540	0.011319	-0.003274	3.302227	1.000000	0.000015	0.000042	-0.000071	0.185483	-11.241898	178.546989
21763	2.543995	0.044952	12.865737	0.012475	-0.003663	3.302226	1.000000	-0.000015	0.000035	-0.000058	0.183485	-11.242930	178.548143
21764	2.554768	0.031873	12.836367	-0.003710	0.010151	3.275477	1.000000	0.000004	0.000048	-0.000077	0.186643	-11.241168	178.536235
21765	2.552959	0.054770	12.846327	-0.000383	-0.012629	3.284968	1.000000	0.000010	0.000027	-0.000062	0.187594	-11.243187	178.537000
21766	2.563527	0.020034	12.866973	-0.005322	0.022025	3.307166	1.000000	-0.000007	0.000054	-0.000082	0.185603	-11.243970	178.543402
21767	2.550638	0.055481	12.846785	0.002362	-0.013759	3.284966	1.000000	0.000001	0.000045	-0.000062	0.185509	-11.243922	178.544167
21768	2.538527	0.046780	12.866811	0.018815	-0.005140	3.302218	1.000000	0.000002	0.000040	-0.000072	0.186881	-11.246143	178.539403
21769	2.549300	0.033877	12.837449	0.002894	0.008093	3.275479	1.000000	0.000001	0.000045	-0.000062	0.186787	-11.246096	178.540170
21770	2.547351	0.056656	12.847432	0.006020	-0.014995	3.284964	1.000000	0.000007	0.000039	-0.000064	0.186007	-11.245691	178.548537
21771	2.557902	0.021979	12.868089	0.000632	0.020001	3.307170	1.000000	0.000006	0.000044	-0.000054	0.186306	-11.245745	178.550243
21772	2.534307	0.070280	12.817666	0.013039	-0.028588	3.253270	1.000000	-0.000006	0.000050	-0.000093	0.187008	-11.246694	178.544359
21773	2.543921	0.057955	12.848106	0.009857	-0.015981	3.284960	1.000000	0.000012	0.000039	-0.000056	0.188027	-11.247339	178.545801
21774	2.543602	0.036019	12.838573	0.008917	0.006464	3.275477	1.000000	-0.000007	0.000054	-0.000082	0.189554	-11.246661	178.535119
21775	2.541534	0.058583	12.848576	0.012283	-0.016314	3.284958	1.000000	-0.000007	0.000038	-0.000065	0.188674	-11.247403	178.535481
21776	2.563027	0.032835	12.849454	-0.008195	0.010894	3.289926	1.000000	0.000004	0.000052	-0.000066	0.193366	-11.245486	178.514388
21777	2.539942	0.036825	12.839296	0.012177	0.006281	3.275475	1.000000	-0.000005	0.000050	-0.000060	0.192553	-11.244852	178.515424
21778	2.538758	0.037290	12.839528	0.013896	0.005231	3.275473	1.000000	0.000015	0.000042	-0.000071	0.191400	-11.247659	178.530443
21779	2.537487	0.037585	12.839779	0.015048	0.004842	3.275472	1.000000	-0.000021	0.000057	-0.000073	0.189081	-11.246236	178.529868
21780	2.525296	0.028740	12.859807	0.031528	0.013079	3.292709	1.000000	0.000013	0.000034	-0.000066	0.189774	-11.249296	178.534849
21781	2.546084	0.047316	12.820460	0.002897	-0.004876	3.258232	1.000000	-0.000008	0.000063	-0.000062	0.188635	-11.247187	178.535622
21782	2.533893	0.038470	12.840486	0.019000	0.003414	3.275468	1.000000	0.000000	0.000028	-0.000078	0.188334	-11.249282	178.537881
21783	2.532114	0.061319	12.850423	0.022399	-0.019363	3.284940	1.000000	0.000012	0.000039	-0.000056	0.189355	-11.249931	178.539328
21784	2.542681	0.026574	12.871097	0.016103	0.015841	3.307166	1.000000	-0.000009	0.000046	-0.000078	0.189379	-11.245810	178.533568
21785	2.551759	0.058277	12.861273	0.004615	-0.015727	3.299404	1.000000	-0.000001	0.000033	-0.000067	0.189222	-11.247147	178.533670
21786	2.551742	0.036291	12.851691	0.003369	0.006983	3.289931	1.000000	0.000002	0.000040	-0.000072	0.192621	-11.246857	178.516437
21787	2.571503	0.055201	12.872110	-0.012437	-0.011606	3.313874	1.000000	-0.000012	0.000043	-0.000063	0.191022	-11.247016	178.517070
21788	2.549519	0.036841	12.852130	0.005315	0.005947	3.289931	1.000000	0.000014	0.000046	-0.000061	0.191260	-11.245230	178.524725
21789	2.548402	0.037388	12.852350	0.006469	0.005557	3.289930	1.000000	0.000002	0.000040	-0.000072	0.191498	-11.245682	178.524299
21790	2.525620	0.041279	12.842107	0.026676	0.001173	3.275455	1.000000	-0.000012	0.000039	-0.000073	0.191044	-11.245622	178.519667
21791	2.568141	0.034280	12.863196	-0.010591	0.009139	3.304406	1.000000	0.000007	0.000039	-0.000064	0.191674	-11.246174	178.520180
21792	2.512463	0.032952	12.862310	0.043593	0.009415	3.292677	1.000000	0.000004	0.000048	-0.000077	0.193270	-11.244466	178.513957
21793	2.576897	0.044363	12.843861	-0.023463	-0.000220	3.287182	1.000000	0.000002	0.000040	-0.000072	0.193508	-11.244920	178.513533
21794	2.575857	0.044781	12.844068	-0.021659	-0.000054	3.287185	1.000000	0.000002	0.000040	-0.000072	0.196298	-11.248152	178.499459
21795	2.541843	0.039844	12.853642	0.013601	0.004177	3.289925	1.000000	0.000012	0.000055	-0.000073	0.197717	-11.246932	178.498916
21796	2.562190	0.036565	12.864377	-0.003954	0.008210	3.304411	1.000000	-0.000011	0.000055	-0.000057	0.197370	-11.247850	178.494100
21797	2.549257	0.071883	12.844148	0.003783	-0.027539	3.282168	1.000000	0.000002	0.000040	-0.000072	0.197610	-11.248306	178.493678
21798	2.550185	0.027676	12.824815	0.000086	0.016873	3.263238	1.000000	0.000012	0.000039	-0.000056	0.198718	-11.247718	178.494274
21799	2.557971	0.059977	12.874785	0.001516	-0.015330	3.313876	1.000000	-0.000012	0.000038	-0.000073	0.197451	-11.248374	178.493710
21800	2.569875	0.024560	12.835689	-0.017029	0.020435	3.277732	1.000000	-0.000004	0.000045	-0.000070	0.197761	-11.247281	178.488900
21801	2.567798	0.047295	12.845673	-0.013582	-0.002348	3.287196	1.000000	0.000007	0.000039	-0.000064	0.198392	-11.247838	178.489418
21802	2.544945	0.051285	12.835423	0.006823	-0.006996	3.272700	1.000000	-0.000004	0.000045	-0.000070	0.197471	-11.247944	178.491774
21803	2.554482	0.038971	12.865903	0.003683	0.005573	3.304412	1.000000	0.000009	0.000047	-0.000068	0.198497	-11.247615	178.491766
21804	2.554429	0.016990	12.856344	0.002690	0.027732	3.294952	1.000000	-0.000011	0.000034	-0.000083	0.198309	-11.249435	178.485702
21805	2.552183	0.039472	12.866357	0.006152	0.004952	3.304411	1.000000	-0.000008	0.000062	-0.000062	0.197170	-11.247341	178.486488
21806	2.562738	0.026522	12.837112	-0.009952	0.017969	3.277743	1.000000	0.000004	0.000052	-0.000066	0.196723	-11.246283	178.490841
21807	2.549519	0.040207	12.866883	0.008425	0.004002	3.304411	1.000000	0.000007	0.000039	-0.000064	0.197356	-11.246841	178.491363
21808	2.559522	0.049804	12.847315	-0.005276	-0.005152	3.287201	1.000000	0.000002	0.000040	-0.000072	0.197837	-11.247519	178.489250
21809	2.559555	0.027905	12.837744	-0.006447	0.016844	3.277746	1.000000	0.000003	0.000036	-0.000082	0.198411	-11.248471	178.487634
21810	2.558344	0.028242	12.837985	-0.005343	0.016455	3.277747	1.000000	-0.000007	0.000058	-0.000072	0.197613	-11.246664	178.486591
21811	2.566753	0.038007	12.878259	-0.006143	0.006621	3.318921	1.000000	-0.000007	0.000042	-0.000055	0.196409	-11.246934	178.488172
21812	2.542608	0.064327	12.877807	0.016717	-0.020090	3.313859	1.000000	0.000010	0.000063	-0.000086	0.198731	-11.245487	178.480312
21813	2.543533	0.020338	12.858500	0.013198	0.024296	3.294952	1.000000	0.000020	0.000025	-0.000046	0.200475	-11.247718	178.482975
21814	2.552539	0.052171	12.848695	0.001609	-0.007479	3.287201	1.000000	-0.000020	0.000052	-0.000083	0.197694	-11.246068	178.485389
21815	2.540234	0.043321	12.868709	0.017673	0.000953	3.304402	1.000000	0.000014	0.000046	-0.000060	0.199112	-11.245841	178.486325
21816	2.551132	0.030584	12.839415	0.001329	0.014373	3.277751	1.000000	-0.000004	0.000045	-0.000070	0.199709	-11.244640	178.478333
21817	2.549943	0.031007	12.839650	0.002480	0.013981	3.277751	1.000000	0.000009	0.000047	-0.000068	0.200737	-11.244317	178.478334
21818	2.537817	0.022234	12.859626	0.018398	0.022448	3.294949	1.000000	-0.000006	0.000038	-0.000065	0.199986	-11.244440	178.477223
21819	2.514767	0.025883	12.849381	0.038736	0.017950	3.280421	1.000000	-0.000013	0.000063	-0.000070	0.198456	-11.242257	178.477080
21820	2.555797	0.041468	12.880427	0.003549	0.002948	3.318923	1.000000	0.000014	0.000046	-0.000060	0.197891	-11.240645	178.489995
21821	2.545188	0.032368	12.840590	0.006610	0.012013	3.277751	1.000000	0.000000	0.000028	-0.000078	0.198075	-11.242490	178.488913
21822	2.544154	0.032783	12.840794	0.007795	0.011516	3.277751	1.000000	0.000004	0.000052	-0.000066	0.197909	-11.241742	178.491869
21823	2.541815	0.055432	12.850807	0.011327	-0.011262	3.287194	1.000000	-0.000009	0.000046	-0.000078	0.197042	-11.241527	178.490790
21824	2.529660	0.046561	12.870781	0.027205	-0.002545	3.304385	1.000000	0.000002	0.000040	-0.000072	0.198480	-11.241144	178.481047
21825	2.551695	0.043037	12.821730	-0.003848	0.001777	3.260558	1.000000	0.000009	0.000047	-0.000068	0.199509	-11.240825	178.481052
21826	2.562300	0.008409	12.842470	-0.009279	0.036606	3.282848	1.000000	-0.000004	0.000045	-0.000070	0.198630	-11.241054	178.483346
21827	2.548941	0.021769	12.872229	0.009176	0.022667	3.309479	1.000000	-0.000010	0.000050	-0.000067	0.197430	-11.240351	178.483471
21828	2.537145	0.034846	12.842175	0.014528	0.009269	3.277747	1.000000	0.000013	0.000034	-0.000066	0.198401	-11.241215	178.485530
21829	2.547054	0.044474	12.822648	0.000767	0.000035	3.260559	1.000000	-0.000006	0.000054	-0.000082	0.197928	-11.240118	178.483928
21830	2.567767	0.041365	12.833374	-0.017230	0.003871	3.275106	1.000000	0.000010	0.000026	-0.000061	0.199587	-11.242276	178.478838
21831	2.543652	0.045791	12.882816	0.016159	-0.001217	3.318914	1.000000	-0.000004	0.000045	-0.000070	0.199111	-11.242163	178.478701
21832	2.565622	0.042004	12.833801	-0.014990	0.003256	3.275109	1.000000	-0.000005	0.000050	-0.000059	0.199055	-11.241250	178.473473
21833	2.552311	0.055479	12.863539	0.003491	-0.010677	3.301728	1.000000	0.000002	0.000040	-0.000072	0.199303	-11.241724	178.473073
21834	2.541411	0.024451	12.873713	0.017132	0.020209	3.309475	1.000000	0.000008	0.000035	-0.000074	0.200455	-11.242709	178.470215
21835	2.551421	0.034045	12.854172	0.003369	0.010968	3.292293	1.000000	-0.000004	0.000045	-0.000070	0.199979	-11.242597	178.470080
21836	2.550243	0.034512	12.854405	0.004382	0.010668	3.292293	1.000000	0.000014	0.000046	-0.000060	0.201795	-11.241752	178.466925
21837	2.560330	0.044234	12.834851	-0.009384	0.001424	3.275114	1.000000	0.000000	0.000028	-0.000078	0.201983	-11.243605	178.465853
21838	2.526662	0.038965	12.844230	0.025763	0.005783	3.277732	1.000000	0.000002	0.000040	-0.000072	0.202004	-11.243660	178.465930
21839	2.525419	0.039348	12.844473	0.026915	0.005394	3.277730	1.000000	0.000003	0.000056	-0.000056	0.201976	-11.242269	178.467408
21840	2.558105	0.023072	12.825757	-0.008364	0.022492	3.265688	1.000000	0.000002	0.000040	-0.000072	0.201829	-11.243176	178.469114
21841	2.554788	0.068188	12.845482	-0.002333	-0.022675	3.284544	1.000000	0.000002	0.000040	-0.000072	0.202078	-11.243654	178.468719
21842	2.554843	0.046219	12.835937	-0.003943	-0.000799	3.275117	1.000000	0.000001	0.000044	-0.000061	0.201423	-11.242247	178.472163
21843	2.576591	0.020728	12.836950	-0.024408	0.025233	3.280261	1.000000	0.000001	0.000044	-0.000061	0.201337	-11.242235	178.472969
21844	2.519568	0.041286	12.845616	0.032305	0.003140	3.277718	1.000000	0.000006	0.000060	-0.000071	0.201539	-11.239823	178.475262
21845	2.538840	0.060531	12.866182	0.016747	-0.015605	3.301713	1.000000	-0.000008	0.000042	-0.000088	0.201010	-11.240114	178.472996
21846	2.560860	0.035116	12.867147	-0.003639	0.010534	3.306863	1.000000	0.000010	0.000026	-0.000061	0.202500	-11.242518	178.468754
21847	2.570831	0.044735	12.847627	-0.017405	0.001273	3.289694	1.000000	-0.000002	0.000057	-0.000064	0.202084	-11.241036	178.469300
21848	2.536722	0.039274	12.857066	0.017872	0.005915	3.292285	1.000000	-0.000004	0.000045	-0.000069	0.202473	-11.241062	178.461327
21849	2.568323	0.045427	12.848126	-0.015062	0.000679	3.289697	1.000000	0.000010	0.000047	-0.000068	0.203505	-11.240754	178.461348
21850	2.545464	0.049399	12.837788	0.005243	-0.003710	3.275116	1.000000	0.000002	0.000040	-0.000072	0.203870	-11.241175	178.458914
21851	2.534750	0.018136	12.847926	0.018844	0.027158	3.282861	1.000000	-0.000008	0.000025	-0.000071	0.202947	-11.243334	178.458638
21852	2.564268	0.068821	12.858455	-0.009113	-0.022942	3.299118	1.000000	0.000001	0.000044	-0.000061	0.202524	-11.243420	178.460982
21853	2.531423	0.041114	12.858105	0.023647	0.003916	3.292276	1.000000	0.000004	0.000052	-0.000066	0.202833	-11.242528	178.461268
21854	2.564394	0.025021	12.839384	-0.011639	0.021106	3.280286	1.000000	0.000010	0.000026	-0.000061	0.204088	-11.245142	178.458969
21855	2.540005	0.029338	12.888811	0.021851	0.016079	3.324024	1.000000	-0.000007	0.000058	-0.000072	0.203285	-11.243571	178.458583
21856	2.539013	0.051543	12.839057	0.012283	-0.006046	3.275110	1.000000	0.000005	0.000048	-0.000076	0.204042	-11.243030	178.455476
21857	2.527944	0.020535	12.849263	0.025866	0.024831	3.282854	1.000000	0.000010	0.000047	-0.000068	0.205075	-11.242726	178.455501
21858	2.548494	0.017515	12.860071	0.007791	0.028726	3.297449	1.000000	-0.000004	0.000045	-0.000069	0.205879	-11.242272	178.443296
21859	2.524352	0.043680	12.859486	0.030598	0.001948	3.292263	1.000000	0.000005	0.000048	-0.000076	0.206524	-11.241874	178.442386
21860	2.568184	0.036829	12.821107	-0.019944	0.009959	3.263138	1.000000	0.000005	0.000048	-0.000076	0.206168	-11.240722	178.447754
21861	2.522032	0.044559	12.859939	0.032727	0.000954	3.292257	1.000000	-0.000001	0.000037	-0.000057	0.205692	-11.241603	178.449094
21862	2.553811	0.050593	12.851000	-0.000276	-0.004446	3.289705	1.000000	-0.000008	0.000041	-0.000088	0.204651	-11.241590	178.449647
21863	2.552702	0.050887	12.851219	0.000879	-0.004839	3.289705	1.000000	0.000001	0.000044	-0.000061	0.204568	-11.241587	178.450464
21864	2.551624	0.051311	12.851431	0.001758	-0.005201	3.289704	1.000000	0.000007	0.000039	-0.000064	0.205312	-11.240964	178.447939
21865	2.551675	0.029391	12.841909	0.000388	0.016794	3.280297	1.000000	-0.000001	0.000053	-0.000074	0.205234	-11.239984	178.447296
21866	2.515252	0.068575	12.870774	0.040551	-0.023551	3.301649	1.000000	-0.000001	0.000037	-0.000057	0.204319	-11.240327	178.450728
21867	2.560599	0.039251	12.822617	-0.012365	0.007022	3.263149	1.000000	0.000002	0.000040	-0.000072	0.204573	-11.240819	178.450348
21868	2.534877	0.065785	12.881776	0.023475	-0.020390	3.316254	1.000000	-0.000009	0.000046	-0.000077	0.203539	-11.239580	178.448840
21869	2.569081	0.027294	12.853360	-0.014525	0.019064	3.294914	1.000000	0.000012	0.000038	-0.000056	0.204567	-11.240257	178.450333
21870	2.533872	0.044329	12.872461	0.023108	0.001037	3.306847	1.000000	0.000004	0.000052	-0.000066	0.204049	-11.238774	178.456342
21871	2.588528	0.024915	12.864414	-0.031513	0.022049	3.309537	1.000000	0.000008	0.000035	-0.000074	0.205027	-11.239853	178.455701
21872	2.564539	0.050957	12.863767	-0.008721	-0.004730	3.304319	1.000000	-0.000012	0.000042	-0.000063	0.203252	-11.239791	178.456678
21873	2.551539	0.086143	12.843421	-0.000790	-0.040366	3.281953	1.000000	0.000002	0.000040	-0.000072	0.203506	-11.240286	178.456302
21874	2.541922	0.032558	12.843835	0.009986	0.012904	3.280298	1.000000	-0.000004	0.000045	-0.000069	0.202946	-11.239367	178.455422
21875	2.540828	0.032894	12.844051	0.011138	0.012513	3.280298	1.000000	0.000002	0.000040	-0.000072	0.203200	-11.239863	178.455047
21876	2.572533	0.039125	12.835167	-0.021929	0.007299	3.277784	1.000000	0.000001	0.000044	-0.000061	0.203715	-11.239220	178.448615
21877	2.560231	0.030276	12.855119	-0.005845	0.015810	3.294925	1.000000	0.000004	0.000052	-0.000066	0.204023	-11.238340	178.448916
21878	2.557628	0.052884	12.865135	-0.002232	-0.006852	3.304321	1.000000	-0.000010	0.000050	-0.000067	0.203341	-11.237165	178.442506
21879	2.548422	0.020949	12.815531	-0.002016	0.024681	3.253763	1.000000	-0.000006	0.000037	-0.000065	0.202478	-11.237961	178.442920
21880	2.535016	0.034304	12.845196	0.016565	0.010904	3.280293	1.000000	0.000001	0.000044	-0.000061	0.202802	-11.237605	178.438308
21881	2.533833	0.034727	12.845428	0.017716	0.010513	3.280292	1.000000	0.000005	0.000048	-0.000076	0.203449	-11.237219	178.437413
21882	2.553125	0.054162	12.866024	0.002302	-0.008513	3.304320	1.000000	0.000002	0.000040	-0.000072	0.202900	-11.237691	178.443113
21883	2.564358	0.041487	12.836796	-0.014065	0.004566	3.277796	1.000000	-0.000000	0.000048	-0.000084	0.203161	-11.237215	178.441284
21884	2.550763	0.055133	12.866489	0.004514	-0.009368	3.304319	1.000000	0.000015	0.000046	-0.000060	0.204261	-11.236581	178.443705
21885	2.552525	0.010828	12.847152	0.000475	0.035012	3.285541	1.000000	-0.000006	0.000021	-0.000048	0.203003	-11.239240	178.446103
21886	2.550248	0.033339	12.857096	0.004179	0.012266	3.294930	1.000000	-0.000006	0.000053	-0.000082	0.202683	-11.237971	178.441470
21887	2.549111	0.033759	12.857320	0.005332	0.011874	3.294930	1.000000	0.000008	0.000035	-0.000074	0.203665	-11.239057	178.440839
21888	2.536916	0.024967	12.877237	0.021352	0.020494	3.312058	1.000000	-0.000001	0.000053	-0.000074	0.203997	-11.237770	178.434423
21889	2.536238	0.047165	12.827431	0.011765	-0.001651	3.263152	1.000000	-0.000000	0.000032	-0.000067	0.203861	-11.239156	178.434579
21890	2.524241	0.038280	12.847306	0.027942	0.006902	3.280277	1.000000	0.000002	0.000040	-0.000072	0.204227	-11.240039	178.431810
21891	2.545032	0.035310	12.858124	0.009962	0.010419	3.294928	1.000000	-0.000000	0.000032	-0.000067	0.204093	-11.241426	178.431966
21892	2.565746	0.032221	12.868961	-0.008019	0.013978	3.309583	1.000000	-0.000009	0.000046	-0.000077	0.203449	-11.241237	178.427121
21893	2.552666	0.067544	12.848598	-0.000051	-0.021631	3.287185	1.000000	0.000012	0.000038	-0.000055	0.204479	-11.241922	178.428627
21894	2.541738	0.036534	12.858772	0.013420	0.009188	3.294926	1.000000	0.000007	0.000055	-0.000080	0.205063	-11.240681	178.430239
21895	2.541834	0.014493	12.849268	0.011942	0.031182	3.285545	1.000000	-0.000012	0.000042	-0.000063	0.203477	-11.240902	178.430922
21896	2.528708	0.049558	12.828908	0.019804	-0.004440	3.263141	1.000000	-0.000004	0.000045	-0.000069	0.202899	-11.240340	178.429876
21897	2.538162	0.037344	12.859476	0.016768	0.007991	3.294923	1.000000	0.000005	0.000047	-0.000076	0.203549	-11.239962	178.428992
21898	2.535613	0.060108	12.869461	0.020690	-0.014803	3.304298	1.000000	0.000001	0.000044	-0.000061	0.203410	-11.240527	178.429276
21899	2.535807	0.038236	12.859938	0.019201	0.007192	3.294920	1.000000	0.000010	0.000047	-0.000068	0.204446	-11.240241	178.429328
21900	2.556761	0.057163	12.820805	-0.009492	-0.011083	3.260687	1.000000	-0.000009	0.000046	-0.000077	0.203549	-11.240236	178.427308
21901	2.555226	0.035597	12.871045	0.002419	0.010276	3.309589	1.000000	0.000002	0.000040	-0.000071	0.203809	-11.240744	178.426948
21902	2.532175	0.039338	12.860651	0.022654	0.006003	3.294915	1.000000	0.000005	0.000064	-0.000060	0.204145	-11.238307	178.426372
21903	2.540691	0.071422	12.850950	0.011525	-0.025714	3.287173	1.000000	0.000006	0.000027	-0.000069	0.204739	-11.240283	178.426272
21904	2.551887	0.036832	12.871704	0.005792	0.009062	3.309589	1.000000	-0.000006	0.000037	-0.000065	0.203747	-11.240893	178.426381
21905	2.540156	0.049751	12.841577	0.011124	-0.004140	3.277799	1.000000	0.000005	0.000047	-0.000076	0.204399	-11.240520	178.425501
21906	2.560676	0.046836	12.852477	-0.006834	-0.000704	3.292479	1.000000	-0.000004	0.000045	-0.000069	0.203780	-11.240493	178.425737
21907	2.549821	0.015641	12.862637	0.006589	0.030234	3.300219	1.000000	0.000010	0.000047	-0.000068	0.204818	-11.240210	178.425794
21908	2.569577	0.056845	12.833232	-0.019499	-0.010460	3.275372	1.000000	-0.000014	0.000030	-0.000068	0.203091	-11.241690	178.425203
21909	2.557441	0.047774	12.853118	-0.003401	-0.001906	3.292480	1.000000	0.000004	0.000052	-0.000066	0.203402	-11.240825	178.425523
21910	2.545183	0.038913	12.873025	0.012706	0.006534	3.309585	1.000000	0.000002	0.000040	-0.000071	0.203145	-11.241388	178.429409
21911	2.534885	0.029528	12.833140	0.015341	0.015729	3.268425	1.000000	0.000001	0.000044	-0.000061	0.203066	-11.241407	178.430252
21912	2.554029	0.048886	12.853792	0.000044	-0.003204	3.292480	1.000000	-0.000004	0.000045	-0.000069	0.202596	-11.241221	178.428639
21913	2.541759	0.039976	12.873698	0.016144	0.005358	3.309582	1.000000	0.000005	0.000047	-0.000076	0.203249	-11.240853	178.427764
21914	2.553065	0.027272	12.844515	-0.000507	0.018348	3.283118	1.000000	-0.000009	0.000046	-0.000077	0.202174	-11.240014	178.426781
21915	2.528712	0.053430	12.843821	0.022465	-0.008265	3.277782	1.000000	0.000023	0.000048	-0.000067	0.204715	-11.239524	178.426995
21916	2.539738	0.019159	12.864627	0.016716	0.026360	3.300218	1.000000	-0.000000	0.000032	-0.000067	0.203857	-11.240849	178.433855
21917	2.570179	0.047993	12.865572	-0.013474	-0.001552	3.307178	1.000000	0.000012	0.000038	-0.000055	0.204890	-11.241543	178.435374
21918	2.547290	0.051683	12.855118	0.006769	-0.005835	3.292477	1.000000	-0.000006	0.000053	-0.000082	0.204144	-11.240406	178.435386
21919	2.548922	0.007268	12.835872	0.002474	0.038542	3.273762	1.000000	-0.000004	0.000045	-0.000069	0.203679	-11.240341	178.435298
21920	2.555500	0.039684	12.885951	0.004922	0.006067	3.324277	1.000000	0.000001	0.000044	-0.000061	0.203168	-11.240410	178.439766
21921	2.543728	0.052541	12.855820	0.010243	-0.007108	3.292474	1.000000	-0.000004	0.000045	-0.000069	0.202704	-11.240347	178.439679
21922	2.542416	0.052804	12.856078	0.011421	-0.007518	3.292473	1.000000	-0.000002	0.000057	-0.000063	0.202215	-11.239009	178.439910
21923	2.564273	0.027485	12.857287	-0.009274	0.018281	3.297830	1.000000	-0.000004	0.000045	-0.000069	0.201752	-11.238947	178.439824
21924	2.541401	0.031200	12.846819	0.010941	0.013892	3.283119	1.000000	0.000015	0.000046	-0.000060	0.202313	-11.238596	178.449489
21925	2.550066	0.063390	12.837092	-0.000101	-0.017860	3.275379	1.000000	0.000001	0.000028	-0.000077	0.202529	-11.240495	178.448467
21926	2.549875	0.019534	12.877603	0.009012	0.025833	3.314923	1.000000	-0.000005	0.000065	-0.000076	0.201886	-11.237786	178.448482
21927	2.537850	0.032389	12.847518	0.014325	0.012668	3.283116	1.000000	0.000001	0.000044	-0.000061	0.201807	-11.237814	178.449333
21928	2.546220	0.064425	12.837850	0.003182	-0.018944	3.275377	1.000000	0.000004	0.000052	-0.000066	0.202751	-11.236459	178.439556
21929	2.557076	0.029891	12.858715	-0.002583	0.015817	3.297836	1.000000	-0.000004	0.000045	-0.000069	0.202289	-11.236400	178.439473
21930	2.524627	0.001723	12.858139	0.029803	0.042848	3.290853	1.000000	-0.000004	0.000045	-0.000069	0.201110	-11.236166	178.446474
21931	2.576832	0.049303	12.819888	-0.030220	-0.003101	3.263669	1.000000	0.000017	0.000054	-0.000064	0.202925	-11.235101	178.446961
21932	2.520766	0.025116	12.868348	0.034881	0.019736	3.300194	1.000000	-0.000000	0.000032	-0.000067	0.203032	-11.236508	178.442701
21933	2.550820	0.053685	12.869402	0.004764	-0.008247	3.307182	1.000000	-0.000018	0.000063	-0.000077	0.201122	-11.234318	178.441690
21934	2.551171	0.031610	12.859884	0.003089	0.013606	3.297839	1.000000	0.000011	0.000026	-0.000061	0.201492	-11.236209	178.448382
21935	2.561357	0.041399	12.840413	-0.010707	0.004221	3.280758	1.000000	0.000001	0.000044	-0.000061	0.201414	-11.236241	178.449237
21936	2.527492	0.035664	12.849551	0.024556	0.009025	3.283104	1.000000	0.000002	0.000040	-0.000071	0.201548	-11.237045	178.449692
21937	2.549620	0.010464	12.850744	0.003812	0.034779	3.288499	1.000000	-0.000004	0.000045	-0.000069	0.201087	-11.236991	178.449613
21938	2.523728	0.058589	12.859735	0.029610	-0.014223	3.292439	1.000000	-0.000004	0.000045	-0.000069	0.200229	-11.236713	178.452483
21939	2.555400	0.065227	12.851035	-0.003280	-0.019856	3.290100	1.000000	0.000016	0.000041	-0.000070	0.201997	-11.237029	178.452298
21940	2.532265	0.047110	12.890512	0.027701	-0.002391	3.324250	1.000000	-0.000000	0.000032	-0.000067	0.201220	-11.238129	178.458928
21941	2.555076	0.043906	12.841656	-0.003856	0.001594	3.280763	1.000000	0.000012	0.000038	-0.000055	0.202254	-11.238832	178.460459
21942	2.542633	0.034918	12.861566	0.012181	0.010165	3.297836	1.000000	-0.000014	0.000067	-0.000092	0.200891	-11.235985	178.458029
21943	2.541217	0.035182	12.861845	0.013335	0.009774	3.297836	1.000000	0.000006	0.000043	-0.000053	0.201197	-11.236108	178.459823
21944	2.551153	0.045032	12.842431	-0.000456	0.000410	3.280763	1.000000	0.000010	0.000046	-0.000068	0.202398	-11.235860	178.456290
21945	2.537341	0.058495	12.872045	0.018479	-0.013356	3.307166	1.000000	0.000001	0.000044	-0.000061	0.202321	-11.235897	178.457150
21946	2.548819	0.045973	12.842891	0.001816	-0.000421	3.280763	1.000000	0.000010	0.000046	-0.000068	0.203153	-11.235488	178.458257
21947	2.536504	0.037140	12.862770	0.017921	0.008198	3.297831	1.000000	-0.000000	0.000048	-0.000084	0.203428	-11.235054	178.456470
21948	2.548328	0.024442	12.833554	0.001247	0.021112	3.271434	1.000000	-0.000005	0.000016	-0.000058	0.202236	-11.238094	178.460044
21949	2.534766	0.037893	12.863110	0.020195	0.007354	3.297828	1.000000	0.000017	0.000053	-0.000064	0.204051	-11.237037	178.460543
21950	2.566221	0.044504	12.854486	-0.012746	0.001580	3.295521	1.000000	-0.000010	0.000050	-0.000067	0.202475	-11.236182	178.464050
21951	2.533757	0.016293	12.853875	0.019592	0.028870	3.288499	1.000000	0.000005	0.000047	-0.000076	0.203134	-11.235836	178.463200
21952	2.563784	0.045196	12.854970	-0.010452	0.000798	3.295523	1.000000	-0.000004	0.000045	-0.000069	0.202707	-11.235721	178.460889
21953	2.542599	0.026407	12.834686	0.006927	0.019075	3.271435	1.000000	0.000007	0.000039	-0.000063	0.203359	-11.236343	178.461493
21954	2.528753	0.039855	12.864288	0.025874	0.005256	3.297819	1.000000	0.000004	0.000052	-0.000065	0.203358	-11.235417	178.464494
21955	2.560263	0.046526	12.855667	-0.007009	-0.000455	3.295525	1.000000	0.000005	0.000047	-0.000076	0.204018	-11.235073	178.463647
21956	2.549605	0.015102	12.865785	0.006206	0.030630	3.303263	1.000000	-0.000012	0.000042	-0.000062	0.202761	-11.235234	178.458117
21957	2.537969	0.027818	12.835599	0.011487	0.017512	3.271434	1.000000	0.000002	0.000039	-0.000071	0.203031	-11.235772	178.457789
21958	2.567784	0.056878	12.836748	-0.018507	-0.010626	3.278470	1.000000	0.000009	0.000067	-0.000074	0.203971	-11.233222	178.458236
21959	2.544307	0.038634	12.876255	0.012555	0.007037	3.312583	1.000000	-0.000000	0.000032	-0.000067	0.203852	-11.234643	178.458427
21960	2.545502	0.038496	12.816675	-0.000219	0.004191	3.254379	1.000000	-0.000003	0.000040	-0.000079	0.189882	-11.234511	178.476133
21961	2.533318	0.029474	12.836514	0.015878	0.012821	3.271435	1.000000	0.000001	0.000044	-0.000061	0.189757	-11.234535	178.477015
21962	2.553864	0.026645	12.847513	-0.002193	0.016125	3.286215	1.000000	-0.000004	0.000045	-0.000069	0.189369	-11.233873	178.473182
21963	2.560491	0.080760	12.847614	-0.010189	-0.038076	3.287781	1.000000	-0.000019	0.000051	-0.000083	0.187368	-11.233064	178.471524
21964	2.551540	0.027036	12.847973	0.000106	0.015377	3.286216	1.000000	0.000013	0.000034	-0.000065	0.188967	-11.234262	178.466914
21965	2.560070	0.059281	12.838278	-0.010791	-0.016444	3.278472	1.000000	0.000002	0.000039	-0.000071	0.189189	-11.234785	178.466604
21966	2.538871	0.040331	12.817985	0.006437	0.001801	3.254378	1.000000	-0.000009	0.000050	-0.000067	0.187647	-11.233783	178.470000
21967	2.546574	0.050517	12.858371	0.006379	-0.008281	3.295523	1.000000	0.000010	0.000046	-0.000068	0.188641	-11.233509	178.470107
21968	2.523718	0.054056	12.847816	0.026535	-0.012329	3.280731	1.000000	-0.000004	0.000045	-0.000069	0.188189	-11.233145	178.467792
21969	2.544321	0.051329	12.858814	0.008610	-0.009073	3.295521	1.000000	0.000007	0.000039	-0.000063	0.188793	-11.233753	178.468418
21970	2.586603	0.045502	12.880604	-0.028405	-0.002159	3.325110	1.000000	-0.000004	0.000044	-0.000069	0.188328	-11.233617	178.466843
21971	2.521934	0.032915	12.838747	0.027033	0.008861	3.271420	1.000000	0.000007	0.000055	-0.000080	0.189330	-11.232381	178.465502
21972	2.562518	0.049508	12.870290	-0.007056	-0.006654	3.310316	1.000000	-0.000000	0.000032	-0.000067	0.189027	-11.233667	178.466731
21973	2.552382	0.039795	12.830387	-0.004730	0.002629	3.269172	1.000000	-0.000018	0.000063	-0.000077	0.187070	-11.231489	178.465756
21974	2.540128	0.030672	12.850226	0.011338	0.011257	3.286215	1.000000	0.000011	0.000026	-0.000061	0.187932	-11.233410	178.466917
21975	2.539120	0.031137	12.850424	0.012485	0.010855	3.286215	1.000000	-0.000001	0.000052	-0.000073	0.187816	-11.232477	178.466355
21976	2.537883	0.031482	12.850668	0.013598	0.010413	3.286214	1.000000	0.000001	0.000044	-0.000061	0.187509	-11.232363	178.469229
21977	2.536736	0.031741	12.850894	0.014745	0.010011	3.286213	1.000000	-0.000008	0.000045	-0.000077	0.186621	-11.232228	178.468252
21978	2.555573	0.051200	12.871664	-0.000205	-0.009125	3.310317	1.000000	-0.000004	0.000044	-0.000069	0.186196	-11.232219	178.466175
21979	2.566558	0.016923	12.892590	-0.006125	0.025534	3.332871	1.000000	0.000017	0.000053	-0.000064	0.187963	-11.231153	178.466706
21980	2.545456	-0.001857	12.872266	0.011195	0.043927	3.308765	1.000000	-0.000010	0.000033	-0.000083	0.187233	-11.232700	178.461701
21981	2.530288	0.055391	12.861565	0.022386	-0.013916	3.295501	1.000000	-0.000008	0.000062	-0.000061	0.186041	-11.230693	178.462597
21982	2.563285	0.039829	12.843328	-0.013542	0.002603	3.283988	1.000000	0.000017	0.000053	-0.000064	0.187718	-11.229269	178.462826
21983	2.529438	0.033928	12.852327	0.021628	0.007644	3.286205	1.000000	-0.000009	0.000029	-0.000060	0.186435	-11.230982	178.463819
21984	2.505013	0.059529	12.851452	0.044816	-0.018772	3.280673	1.000000	-0.000001	0.000052	-0.000073	0.186215	-11.230040	178.463878
21985	2.527252	0.034442	12.852755	0.023919	0.006819	3.286201	1.000000	-0.000001	0.000036	-0.000056	0.185703	-11.230956	178.465289
21986	2.515665	0.047201	12.822536	0.029118	-0.006290	3.254345	1.000000	0.000001	0.000044	-0.000061	0.185409	-11.230781	178.467583
21987	2.577963	0.060863	12.864933	-0.023921	-0.018261	3.308105	1.000000	0.000013	0.000034	-0.000065	0.186746	-11.231975	178.467959
21988	2.522507	0.058078	12.863082	0.030366	-0.016787	3.295481	1.000000	0.000001	0.000044	-0.000061	0.186682	-11.232257	178.467573
21989	2.577760	0.039438	12.855579	-0.024560	0.003316	3.298823	1.000000	0.000001	0.000027	-0.000077	0.186868	-11.234168	178.466599
21990	2.588036	0.049100	12.836149	-0.038342	-0.006172	3.281798	1.000000	-0.000011	0.000037	-0.000072	0.185563	-11.235054	178.466312
21991	2.563580	0.074644	12.835268	-0.015128	-0.032551	3.276252	1.000000	-0.000004	0.000044	-0.000069	0.185060	-11.235010	178.466276
21992	2.607337	0.046467	12.847455	-0.055075	-0.003392	3.296639	1.000000	-0.000007	0.000057	-0.000071	0.184257	-11.233617	178.465071
21993	2.551585	0.043403	12.845646	-0.000853	-0.001897	3.283995	1.000000	0.000001	0.000044	-0.000061	0.184135	-11.233655	178.465970
21994	2.539276	0.034254	12.865475	0.015214	0.006796	3.301018	1.000000	-0.000005	0.000049	-0.000059	0.183368	-11.232920	178.464700
21995	2.537786	0.034648	12.865768	0.016363	0.006394	3.301016	1.000000	0.000009	0.000067	-0.000074	0.184414	-11.230319	178.464052
21996	2.490933	0.041386	12.904080	0.069536	-0.001762	3.329493	1.000000	-0.000017	0.000026	-0.000053	0.182222	-11.232420	178.461924
21997	2.492120	0.040891	12.844545	0.056783	-0.001516	3.271328	1.000000	-0.000008	0.000061	-0.000061	0.181031	-11.230422	178.462829
21998	2.512638	0.038120	12.855610	0.038910	0.001665	3.286167	1.000000	0.000001	0.000027	-0.000077	0.181245	-11.232470	178.461162
21999	2.510025	0.060897	12.865510	0.043094	-0.021112	3.295439	1.000000	0.000007	0.000039	-0.000063	0.181855	-11.233089	178.461804
22000	2.523804	0.026016	12.826621	0.023240	0.014192	3.259869	1.000000	-0.000004	0.000028	-0.000052	0.181100	-11.235054	178.461281
22001	2.553991	0.054955	12.827781	-0.006587	-0.014108	3.266976	1.000000	-0.000001	0.000036	-0.000056	0.180590	-11.235976	178.462699
22002	2.554789	0.032978	12.818238	-0.008501	0.007871	3.257704	1.000000	0.000002	0.000039	-0.000071	0.180840	-11.236442	178.461313
22003	2.553232	0.011415	12.868451	0.003531	0.029203	3.306585	1.000000	-0.000006	0.000037	-0.000064	0.179950	-11.237283	178.461799
22004	2.561564	0.043253	12.858804	-0.007327	-0.002705	3.298844	1.000000	-0.000012	0.000042	-0.000062	0.178159	-11.237152	178.463744
22005	2.560498	0.043387	12.859015	-0.006178	-0.003110	3.298844	1.000000	-0.000007	0.000041	-0.000087	0.177628	-11.237531	178.461591
22006	2.571765	0.009145	12.879927	-0.012219	0.031503	3.321445	1.000000	0.000016	0.000041	-0.000070	0.179340	-11.237617	178.460440
22007	2.558407	0.044533	12.859428	-0.003932	-0.003923	3.298845	1.000000	0.000007	0.000039	-0.000063	0.179951	-11.238240	178.461086
22008	2.580690	0.019651	12.860785	-0.024952	0.021604	3.304440	1.000000	-0.000001	0.000052	-0.000073	0.179875	-11.237060	178.458496
22009	2.557789	0.022952	12.850172	-0.004764	0.017655	3.289579	1.000000	-0.000003	0.000044	-0.000069	0.179375	-11.237024	178.458470
22010	2.557200	0.045204	12.800386	-0.014538	-0.004509	3.240702	1.000000	0.000005	0.000047	-0.000075	0.179885	-11.236591	178.458477
22011	2.555413	0.023896	12.850643	-0.002495	0.016822	3.289581	1.000000	0.000010	0.000046	-0.000067	0.180885	-11.236336	178.458611
22012	2.552444	0.046686	12.860605	0.001705	-0.005970	3.298845	1.000000	0.000001	0.000044	-0.000061	0.180718	-11.236254	178.459188
22013	2.531375	0.027740	12.840244	0.018806	0.012474	3.274711	1.000000	0.000004	0.000051	-0.000065	0.180987	-11.235421	178.459582
22014	2.528237	0.050488	12.850236	0.022951	-0.010261	3.283971	1.000000	0.000004	0.000051	-0.000065	0.181447	-11.234188	178.454617
22015	2.570507	0.045130	12.872186	-0.013972	-0.003612	3.313718	1.000000	0.000014	0.000029	-0.000075	0.183141	-11.235889	178.453816
22016	2.538601	0.016850	12.871340	0.018144	0.023916	3.306583	1.000000	-0.000003	0.000044	-0.000069	0.182530	-11.236104	178.455761
22017	2.579544	0.055393	12.853029	-0.026585	-0.013560	3.296721	1.000000	0.000001	0.000044	-0.000061	0.182412	-11.236153	178.456672
22018	2.556861	0.058665	12.842355	-0.006432	-0.017485	3.281843	1.000000	-0.000001	0.000036	-0.000056	0.181891	-11.236946	178.457113
22019	2.577452	0.056132	12.853446	-0.024314	-0.014377	3.296724	1.000000	0.000010	0.000046	-0.000067	0.182892	-11.236693	178.457251
22020	2.565163	0.047158	12.873245	-0.008261	-0.005724	3.313722	1.000000	0.000001	0.000044	-0.000061	0.182537	-11.236446	178.460646
22021	2.576908	0.034686	12.844190	-0.025198	0.007132	3.287473	1.000000	0.000004	0.000051	-0.000065	0.182807	-11.235617	178.461044
22022	2.539248	0.073165	12.872566	0.016192	-0.032391	3.308089	1.000000	-0.000007	0.000041	-0.000087	0.182388	-11.236007	178.456364
22023	2.552953	0.038416	12.833761	-0.003873	0.002842	3.272589	1.000000	0.000010	0.000046	-0.000067	0.183390	-11.235756	178.456504
22024	2.538802	0.051704	12.863286	0.015329	-0.010837	3.298833	1.000000	-0.000003	0.000044	-0.000069	0.182812	-11.235535	178.456665
22025	2.570281	0.058482	12.854871	-0.017521	-0.016864	3.296732	1.000000	-0.000002	0.000056	-0.000063	0.182351	-11.234131	178.457325
22026	2.560271	0.048798	12.814954	-0.015495	-0.007520	3.255600	1.000000	-0.000004	0.000049	-0.000058	0.181442	-11.233415	178.458383
22027	2.545380	0.039846	12.894519	0.014684	0.000555	3.330712	1.000000	-0.000019	0.000051	-0.000082	0.179455	-11.232654	178.456760
22028	2.555162	0.049281	12.875226	0.000806	-0.008955	3.313723	1.000000	-0.000010	0.000054	-0.000056	0.177944	-11.231307	178.455628
22029	2.534077	0.030047	12.854854	0.017837	0.009532	3.289576	1.000000	0.000000	0.000048	-0.000050	0.177474	-11.230863	178.457736
22030	2.543821	0.039784	12.835570	0.003952	-0.000014	3.272589	1.000000	0.000002	0.000060	-0.000045	0.176953	-11.228790	178.460769
22031	2.500381	0.001654	12.854324	0.050918	0.036737	3.282411	1.000000	-0.000009	0.000049	-0.000066	0.175726	-11.228189	178.461013
22032	2.519509	0.043038	12.825189	0.025302	-0.004301	3.257684	1.000000	-0.000004	0.000049	-0.000058	0.174848	-11.227819	178.462747
22033	2.497865	0.001923	12.854813	0.053238	0.035936	3.282404	1.000000	-0.000009	0.000049	-0.000066	0.173622	-11.227219	178.462993
22034	2.505383	0.012012	12.895220	0.053501	0.025749	3.323532	1.000000	-0.000001	0.000036	-0.000056	0.173039	-11.228158	178.465280
22035	2.516596	-0.022433	12.916186	0.047436	0.060324	3.346178	1.000000	-0.000002	0.000056	-0.000063	0.172580	-11.226759	178.465946
22036	2.536458	0.040910	12.837024	0.010851	-0.002439	3.272585	1.000000	-0.000010	0.000033	-0.000082	0.171729	-11.227958	178.462277
22037	2.546032	0.028816	12.867674	0.007956	0.009755	3.304476	1.000000	0.000003	0.000039	-0.000071	0.171967	-11.228513	178.462007
22038	2.557896	0.016330	12.838629	-0.009059	0.022551	3.278260	1.000000	-0.000006	0.000052	-0.000081	0.171319	-11.227508	178.462659
22039	2.564191	0.070814	12.838743	-0.016525	-0.031741	3.279759	1.000000	0.000006	0.000026	-0.000069	0.171900	-11.229520	178.462645
22040	2.553986	0.039659	12.848754	-0.003607	-0.000640	3.287499	1.000000	0.000014	0.000049	-0.000082	0.173605	-11.228796	178.460776
22041	2.531138	0.043074	12.838067	0.016556	-0.004491	3.272578	1.000000	-0.000003	0.000044	-0.000069	0.173111	-11.228777	178.460767
22042	2.516988	0.056197	12.867553	0.035844	-0.018147	3.298785	1.000000	-0.000002	0.000040	-0.000079	0.172850	-11.229123	178.460569
22043	2.529175	0.043628	12.838452	0.018819	-0.005319	3.272575	1.000000	-0.000004	0.000028	-0.000052	0.171958	-11.230941	178.462518
22044	2.538731	0.031421	12.869110	0.015881	0.006843	3.304471	1.000000	-0.000008	0.000045	-0.000077	0.170981	-11.230623	178.462052
22045	2.559815	0.050622	12.830262	-0.012927	-0.011857	3.270528	1.000000	0.000000	0.000048	-0.000050	0.170512	-11.230185	178.464168
22046	2.582466	0.025689	12.831650	-0.033957	0.013538	3.276228	1.000000	-0.000002	0.000024	-0.000062	0.169963	-11.232692	178.465540
22047	2.546660	0.041614	12.850202	0.004391	-0.003519	3.287498	1.000000	-0.000003	0.000061	-0.000053	0.169150	-11.230799	178.467402
22048	2.578087	0.048453	12.841867	-0.028454	-0.009653	3.285463	1.000000	-0.000003	0.000044	-0.000069	0.168642	-11.230758	178.467081
22049	2.511400	0.035528	12.859290	0.040669	0.001405	3.289529	1.000000	0.000002	0.000043	-0.000061	0.168528	-11.230820	178.468008
22050	2.564625	0.039534	12.861867	-0.011235	-0.001316	3.302432	1.000000	-0.000004	0.000049	-0.000058	0.167652	-11.230053	178.468119
22051	2.574375	0.049344	12.842608	-0.025065	-0.010879	3.285468	1.000000	0.000002	0.000059	-0.000077	0.167936	-11.228283	178.467090
22052	2.573072	0.049572	12.842869	-0.023921	-0.011346	3.285470	1.000000	-0.000012	0.000042	-0.000062	0.166063	-11.228552	178.472175
22053	2.548259	0.074887	12.841892	-0.000529	-0.037534	3.279754	1.000000	-0.000006	0.000052	-0.000081	0.165581	-11.227585	178.470728
22054	2.592196	0.047119	12.854319	-0.040669	-0.008771	3.300417	1.000000	0.000000	0.000048	-0.000050	0.165031	-11.226965	178.473182
22055	2.536599	0.043609	12.852185	0.013467	-0.006821	3.287490	1.000000	-0.000003	0.000044	-0.000069	0.164539	-11.226953	178.473181
22056	2.546598	0.053335	12.832881	-0.000381	-0.016443	3.270529	1.000000	-0.000008	0.000045	-0.000076	0.163428	-11.226795	178.476188
22057	2.553851	0.063538	12.873340	0.000001	-0.026653	3.311655	1.000000	-0.000001	0.000052	-0.000073	0.163324	-11.225906	178.475676
22058	2.510507	0.025335	12.891985	0.046876	0.010261	3.321401	1.000000	-0.000007	0.000057	-0.000071	0.162487	-11.224528	178.475717
22059	2.533427	0.022193	12.843471	0.014802	0.013890	3.278267	1.000000	-0.000009	0.000049	-0.000066	0.161263	-11.223943	178.475976
22060	2.540701	0.032270	12.883925	0.015208	0.003633	3.319391	1.000000	-0.000008	0.000045	-0.000076	0.160192	-11.223921	178.479155
22061	2.508865	0.003429	12.882964	0.047065	0.031394	3.312173	1.000000	-0.000011	0.000037	-0.000072	0.158936	-11.224715	178.478737
22062	2.553813	-0.002425	12.845346	-0.004041	0.038363	3.284007	1.000000	0.000003	0.000039	-0.000071	0.159054	-11.225216	178.480309
22063	2.552689	-0.002118	12.845570	-0.002899	0.037960	3.284008	1.000000	-0.000004	0.000048	-0.000058	0.158208	-11.224709	178.481502
22064	2.551436	-0.001977	12.845818	-0.001769	0.037549	3.284010	1.000000	-0.000009	0.000049	-0.000066	0.156951	-11.224072	178.481748
22065	2.526510	0.023425	12.844831	0.021657	0.011407	3.278259	1.000000	0.000004	0.000051	-0.000065	0.157227	-11.223264	178.482172
22066	2.568542	0.018153	12.867018	-0.015260	0.017778	3.308187	1.000000	0.000002	0.000043	-0.000060	0.157269	-11.222998	178.477794
22067	2.558867	0.008557	12.827040	-0.013396	0.027192	3.267065	1.000000	-0.000001	0.000052	-0.000073	0.157167	-11.222115	178.477287
22068	2.564038	0.041325	12.877239	-0.009731	-0.005434	3.317399	1.000000	0.000015	0.000045	-0.000059	0.158408	-11.221690	178.479162
22069	2.564778	0.019670	12.867766	-0.011881	0.016529	3.308192	1.000000	0.000008	0.000054	-0.000079	0.159427	-11.220505	178.477888
22070	2.551115	0.054752	12.847227	-0.003419	-0.018795	3.285483	1.000000	-0.000001	0.000036	-0.000056	0.158903	-11.221463	178.479369
22071	2.573489	0.029946	12.848739	-0.024568	0.006523	3.291250	1.000000	0.000001	0.000064	-0.000067	0.158834	-11.219205	178.479543
22072	2.526191	0.036390	12.886767	0.028870	-0.001231	3.319369	1.000000	0.000003	0.000039	-0.000071	0.159028	-11.219879	178.480395
22073	2.536182	0.046352	12.867483	0.015038	-0.010824	3.302424	1.000000	0.000004	0.000051	-0.000065	0.159305	-11.219074	178.480824
22074	2.534854	0.046744	12.867743	0.016155	-0.011183	3.302422	1.000000	-0.000001	0.000052	-0.000073	0.159394	-11.218046	178.475328
22075	2.533608	0.047006	12.867988	0.017305	-0.011585	3.302420	1.000000	-0.000008	0.000045	-0.000076	0.158530	-11.217971	178.474406
22076	2.534526	0.024970	12.858485	0.015091	0.010364	3.293218	1.000000	0.000002	0.000043	-0.000060	0.158334	-11.217881	178.475643
22077	2.520089	0.038118	12.887957	0.034553	-0.003207	3.319355	1.000000	0.000004	0.000051	-0.000065	0.158611	-11.217078	178.476074
22078	2.519780	0.060420	12.838142	0.024695	-0.025372	3.270492	1.000000	0.000001	0.000027	-0.000076	0.158669	-11.218931	178.477273
22079	2.507547	0.051219	12.857856	0.040829	-0.016570	3.287425	1.000000	-0.000002	0.000056	-0.000063	0.158212	-11.217555	178.477962
22080	2.508237	0.029270	12.848400	0.038648	0.005422	3.278224	1.000000	0.000004	0.000051	-0.000065	0.158600	-11.216798	178.476414
22081	2.537874	0.058709	12.849832	0.009173	-0.023222	3.285473	1.000000	0.000000	0.000031	-0.000066	0.158459	-11.218253	178.476680
22082	2.550229	0.046175	12.820779	-0.008023	-0.010471	3.259344	1.000000	-0.000011	0.000037	-0.000072	0.157167	-11.219011	178.476699
22083	2.524976	0.049466	12.869675	0.026449	-0.014828	3.302402	1.000000	-0.000008	0.000029	-0.000060	0.155906	-11.220769	178.477733
22084	2.556817	0.056455	12.861366	-0.006410	-0.021110	3.300464	1.000000	0.000002	0.000043	-0.000060	0.155841	-11.220650	178.476525
22085	2.522865	0.049988	12.870087	0.028706	-0.015618	3.302396	1.000000	0.000000	0.000048	-0.000050	0.155374	-11.220228	178.478659
22086	2.569569	0.021830	12.822933	-0.025854	0.013600	3.265153	1.000000	-0.000018	0.000062	-0.000076	0.153412	-11.217992	178.477238
22087	2.553104	0.056964	12.862101	-0.002988	-0.022326	3.300463	1.000000	-0.000002	0.000024	-0.000062	0.152886	-11.220326	178.478017
22088	2.565436	0.044447	12.833064	-0.020222	-0.009602	3.274347	1.000000	-0.000004	0.000048	-0.000058	0.151933	-11.219715	178.480631
22089	2.562109	0.066760	12.843033	-0.015699	-0.032373	3.283536	1.000000	-0.000018	0.000046	-0.000060	0.149594	-11.219450	178.481672
22090	2.562275	0.022600	12.883560	-0.006952	0.011357	3.323206	1.000000	-0.000004	0.000048	-0.000058	0.148917	-11.218825	178.478987
22091	2.559537	0.067007	12.843545	-0.013427	-0.033144	3.283537	1.000000	-0.000002	0.000056	-0.000063	0.148461	-11.217454	178.479682
22092	2.571009	0.032616	12.864551	-0.019660	0.001317	3.306285	1.000000	-0.000003	0.000028	-0.000052	0.147529	-11.219219	178.482250
22093	2.548365	0.035596	12.853731	0.000460	-0.002379	3.291275	1.000000	-0.000006	0.000052	-0.000081	0.147056	-11.218276	178.480828
22094	2.582085	0.020466	12.835777	-0.035746	0.013658	3.280184	1.000000	0.000003	0.000039	-0.000071	0.147349	-11.218848	178.479864
22095	2.534732	0.026643	12.873706	0.017744	0.006048	3.308194	1.000000	-0.000008	0.000061	-0.000060	0.146160	-11.216905	178.480819
22096	2.545841	-0.007781	12.894787	0.011509	0.040532	3.330947	1.000000	-0.000006	0.000052	-0.000081	0.145754	-11.215935	178.478066
22097	2.534265	0.004756	12.864492	0.016630	0.027625	3.299011	1.000000	-0.000006	0.000036	-0.000064	0.144884	-11.216821	178.478596
22098	2.544337	0.014467	12.845223	0.002752	0.017988	3.282094	1.000000	-0.000009	0.000049	-0.000066	0.143622	-11.216119	178.478767
22099	2.553592	0.002419	12.875979	-0.000077	0.030086	3.314032	1.000000	0.000006	0.000043	-0.000052	0.143890	-11.216276	178.480651
22100	-2.319891	1.656689	10.283509	4.227376	-1.740680	-0.170261	1.000000	0.000285	0.000481	-0.000085	0.176660	-11.166221	178.480980
22101	6.549862	-2.237880	14.787719	-3.504126	2.363664	5.958158	0.999999	-0.000376	-0.000027	0.001214	0.104382	-11.174690	178.630820
22102	-0.394196	0.229220	14.329022	3.170679	-0.282957	4.165706	0.999999	-0.000237	-0.000938	-0.001354	0.106353	-11.286790	178.479568
22103	4.945340	1.018042	11.921494	-2.540336	-0.925651	2.848461	1.000000	0.000238	-0.000095	-0.000070	0.133546	-11.302672	178.479399
22104	4.270369	-0.961037	13.189232	-1.576493	1.034551	3.955386	1.000000	0.000024	0.000028	-0.000059	0.136026	-11.304341	178.480502
22105	1.927839	0.270578	12.731760	0.597971	-0.256129	3.050606	1.000000	0.000010	0.000063	-0.000018	0.135967	-11.302188	178.486370
22106	3.422263	0.424092	12.592450	-0.899425	-0.369331	3.207150	1.000000	0.000060	0.000114	-0.000146	0.144491	-11.294051	178.477300
22107	3.243719	-0.190389	13.108185	-0.610394	0.239940	3.676283	1.000000	-0.000010	0.000202	-0.000098	0.143942	-11.275892	178.473854
22108	2.198511	0.314353	12.517012	0.282439	-0.290696	2.893358	1.000000	-0.000023	0.000116	-0.000059	0.140959	-11.267672	178.474998
22109	3.063235	-0.158827	12.752555	-0.510395	0.203050	3.292066	1.000000	-0.000070	0.000237	-0.000027	0.131932	-11.245559	178.479889
22110	1.925088	-0.170491	13.077797	0.665053	0.183809	3.389120	1.000000	0.000031	0.000170	-0.000201	0.138337	-11.231122	178.464406
22111	2.845896	-0.020689	12.763587	-0.305777	0.060534	3.260627	1.000000	0.000035	0.000138	-0.000127	0.143613	-11.220316	178.457565
22112	1.623965	0.056247	13.112945	0.955403	-0.048273	3.365880	1.000000	0.000039	0.000173	-0.000208	0.151112	-11.205550	178.441334
22113	2.542502	0.184798	12.908631	0.010149	-0.150664	3.344380	1.000000	0.000016	0.000024	-0.000085	0.153196	-11.207790	178.439409
22114	2.338454	-0.009645	12.880158	0.209653	0.038380	3.276297	1.000000	-0.000014	0.000082	-0.000075	0.151635	-11.203388	178.438691
22115	1.978163	0.177798	12.980910	0.577897	-0.159525	3.305595	1.000000	-0.000026	-0.000025	-0.000029	0.147679	-11.211297	178.443297
22116	2.576589	-0.171902	12.753359	-0.042006	0.205897	3.197784	1.000000	-0.000016	-0.000027	-0.000046	0.145180	-11.219261	178.445954
22117	2.364978	0.063512	12.900852	0.189540	-0.035872	3.301882	1.000000	-0.000006	-0.000013	-0.000079	0.144585	-11.225741	178.444712
22118	2.733114	-0.289941	12.691615	-0.200449	0.327543	3.167436	1.000000	0.000003	-0.000077	0.000004	0.143106	-11.239508	178.453123
22119	2.431127	0.001440	12.814221	0.113926	0.028241	3.229585	1.000000	0.000046	-0.000000	-0.000063	0.148133	-11.244555	178.453729
22120	2.964122	0.035759	12.860196	-0.398868	0.008669	3.378702	1.000000	0.000021	-0.000045	-0.000053	0.150025	-11.254579	178.455535
22121	2.944687	0.138204	12.868553	-0.379783	-0.093701	3.383408	1.000000	0.000042	0.000050	-0.000023	0.153667	-11.253917	178.460807
22122	2.476080	0.097796	12.855850	0.078400	-0.065247	3.279410	1.000000	0.000011	0.000026	-0.000028	0.153849	-11.255902	178.465587
22123	2.999187	0.000747	12.832852	-0.436369	0.045930	3.358671	1.000000	0.000015	0.000061	-0.000108	0.156370	-11.253995	178.460959
22124	2.435135	0.115422	12.934246	0.132704	-0.082969	3.348370	1.000000	0.000042	0.000081	-0.000089	0.161490	-11.249699	178.458537
22125	2.825870	0.057468	12.854762	-0.264908	-0.013450	3.346469	1.000000	0.000027	0.000051	-0.000113	0.165483	-11.248940	178.453399
22126	2.650323	0.179038	12.845661	-0.098602	-0.138765	3.303650	1.000000	0.000023	0.000100	-0.000105	0.168780	-11.242495	178.449124
22127	2.381547	0.135494	12.763175	0.148869	-0.101714	3.170234	1.000000	0.000002	0.000075	-0.000094	0.169469	-11.238946	178.446200
22128	2.814079	0.170573	12.785284	-0.273006	-0.125325	3.276293	1.000000	-0.000010	0.000101	-0.000073	0.168323	-11.232338	178.445660
22129	2.130507	0.045001	12.792114	0.400607	-0.018301	3.149506	1.000000	-0.000010	0.000085	-0.000057	0.166805	-11.227592	178.447061
22130	2.626639	0.116055	12.807251	-0.085601	-0.076545	3.261149	1.000000	-0.000022	0.000063	-0.000084	0.164478	-11.225413	178.445246
22131	2.359840	-0.060556	12.905133	0.198964	0.092287	3.304739	1.000000	-0.000005	0.000085	-0.000049	0.163335	-11.220738	178.447579
22132	2.437068	0.061949	12.888638	0.116369	-0.028295	3.303935	1.000000	-0.000009	0.000032	-0.000082	0.162443	-11.222021	178.446012
22133	2.519389	-0.068879	12.963890	0.053678	0.104435	3.393399	1.000000	0.000006	0.000063	-0.000059	0.162748	-11.219868	178.447155
22134	2.328203	0.031439	12.873880	0.220850	-0.000822	3.268197	1.000000	-0.000004	0.000032	-0.000041	0.161487	-11.221151	178.450328
22135	2.553722	-0.039988	12.846253	-0.003663	0.076414	3.284773	1.000000	-0.000004	0.000048	-0.000058	0.160647	-11.220681	178.451556
22136	2.382197	-0.007795	12.917278	0.177772	0.039548	3.321156	1.000000	0.000018	0.000017	-0.000040	0.161961	-11.223733	178.454893
22137	2.561294	-0.006930	12.836776	-0.012852	0.043958	3.277041	1.000000	0.000017	0.000021	-0.000062	0.163679	-11.226426	178.455604
22138	2.504122	0.011698	12.843825	0.044688	0.024166	3.272878	1.000000	0.000017	0.000021	-0.000062	0.165362	-11.229024	178.456320
22139	2.502685	0.078604	12.753639	0.027255	-0.042044	3.184328	1.000000	0.000023	0.000031	-0.000081	0.168214	-11.230468	178.454833
22140	2.628207	0.064235	12.880200	-0.070560	-0.024186	3.332867	1.000000	0.000008	0.000038	-0.000095	0.169551	-11.231103	178.451746
22141	2.538586	0.097563	12.845651	0.009879	-0.059540	3.281626	1.000000	0.000012	0.000038	-0.000054	0.170556	-11.231848	178.453394
22142	2.530691	0.043883	12.845950	0.018864	-0.005941	3.280225	1.000000	-0.000000	0.000067	-0.000089	0.170836	-11.229094	178.450992
22143	2.514340	0.100857	12.835054	0.031094	-0.063489	3.266521	1.000000	-0.000014	0.000033	-0.000057	0.168852	-11.230310	178.452306
22144	2.560422	0.029254	12.888078	-0.001712	0.008821	3.327293	1.000000	-0.000007	0.000040	-0.000054	0.167605	-11.230624	178.454045
22145	2.548084	0.019670	12.907753	0.014439	0.017713	3.344162	1.000000	-0.000014	0.000049	-0.000074	0.166019	-11.230021	178.453417
22146	2.467271	0.084267	12.863433	0.083441	-0.049227	3.285139	1.000000	-0.000008	0.000028	-0.000059	0.164749	-11.231714	178.454479
22147	2.581875	0.026315	12.840126	-0.031881	0.011357	3.284429	1.000000	-0.000025	0.000055	-0.000080	0.162054	-11.230472	178.453178
22148	2.519747	-0.032231	12.837600	0.029895	0.068010	3.269691	1.000000	0.000005	0.000046	-0.000075	0.162680	-11.230107	178.452466
22149	2.505119	-0.019218	12.866967	0.049636	0.054559	3.295683	1.000000	-0.000007	0.000040	-0.000086	0.162195	-11.230580	178.450399
22150	2.572258	-0.026832	12.840779	-0.020697	0.064139	3.283048	1.000000	0.000013	0.000017	-0.000080	0.163879	-11.233607	178.449006
22151	2.523799	0.023538	12.838053	0.025497	0.012791	3.271078	1.000000	0.000005	0.000030	-0.000091	0.164867	-11.235223	178.446429
22152	2.601360	0.003897	12.842440	-0.048752	0.034769	3.290433	1.000000	0.000011	0.000025	-0.000093	0.166560	-11.237309	178.443602
22153	2.615055	0.068978	12.882852	-0.055677	-0.029596	3.332927	1.000000	0.000017	0.000036	-0.000079	0.168679	-11.238187	178.442380
22154	2.542837	0.023297	12.849683	0.009970	0.014684	3.286190	1.000000	0.000015	0.000045	-0.000091	0.170778	-11.238030	178.439727
22155	2.619530	0.124911	12.883211	-0.061143	-0.084449	3.334320	1.000000	0.000016	0.000024	-0.000085	0.172877	-11.240287	178.437827
22156	2.571412	0.054212	12.851441	-0.018050	-0.014694	3.293574	1.000000	0.000005	0.000046	-0.000075	0.173495	-11.239938	178.437122
22157	2.620086	0.103809	12.873867	-0.062469	-0.062929	3.325205	1.000000	0.000008	0.000022	-0.000046	0.173730	-11.242440	178.439789
22158	2.589421	0.096556	12.822661	-0.042141	-0.056499	3.268983	1.000000	-0.000008	0.000061	-0.000060	0.172515	-11.240455	178.440779
22159	2.588088	0.096831	12.822928	-0.040987	-0.056908	3.268985	1.000000	0.000007	0.000042	-0.000052	0.172784	-11.240636	178.442691
22160	2.615609	0.027739	12.805210	-0.069690	0.012827	3.256764	1.000000	-0.000005	0.000052	-0.000048	0.171565	-11.239603	178.445116
22161	2.574426	0.087499	12.842859	-0.023692	-0.048408	3.285841	1.000000	-0.000008	0.000045	-0.000043	0.169974	-11.239519	178.448045
22162	2.579671	-0.001177	12.863993	-0.022403	0.039968	3.307333	1.000000	-0.000008	0.000045	-0.000043	0.168374	-11.239368	178.450975
22163	2.584765	0.053229	12.864227	-0.028956	-0.014469	3.308713	1.000000	0.000003	0.000055	-0.000054	0.168291	-11.238105	178.452639
22164	2.533903	0.004597	12.842212	0.017686	0.032997	3.277068	1.000000	0.000009	0.000049	-0.000089	0.169678	-11.237413	178.450246
22165	2.593284	0.063912	12.845330	-0.041673	-0.024615	3.291868	1.000000	-0.000005	0.000052	-0.000080	0.169217	-11.236518	178.448868
22166	2.561931	0.034843	12.844100	-0.010289	0.003583	3.284469	1.000000	0.000002	0.000027	-0.000076	0.169449	-11.238455	178.447991
22167	2.591070	0.064792	12.845772	-0.039383	-0.025437	3.291873	1.000000	0.000009	0.000066	-0.000073	0.170502	-11.235946	178.447463
22168	2.591874	0.043009	12.836395	-0.041918	-0.003497	3.282767	1.000000	-0.000003	0.000059	-0.000085	0.170417	-11.234123	178.445583
22169	2.557698	0.036204	12.844940	-0.006860	0.002365	3.284471	1.000000	-0.000001	0.000051	-0.000072	0.170328	-11.233298	178.445137
22170	2.556306	0.036434	12.845216	-0.005724	0.001958	3.284472	1.000000	-0.000011	0.000057	-0.000078	0.169121	-11.231786	178.444018
22171	2.573951	0.056514	12.866381	-0.019794	-0.017742	3.308726	1.000000	0.000007	0.000058	-0.000069	0.169789	-11.230154	178.443998
22172	2.544603	0.005150	12.855521	0.007878	0.032835	3.292209	1.000000	-0.000007	0.000056	-0.000070	0.168955	-11.228713	178.443809
22173	2.518968	0.029903	12.854370	0.031613	0.007032	3.286162	1.000000	-0.000020	0.000071	-0.000056	0.166289	-11.225678	178.445315
22174	2.495030	0.010629	12.893508	0.062764	0.025311	3.319839	1.000000	0.000004	0.000051	-0.000064	0.166562	-11.224873	178.445803
22175	2.507251	-0.001602	12.864666	0.045203	0.037923	3.293894	1.000000	0.000002	0.000059	-0.000044	0.166113	-11.223112	178.448658
22176	2.481765	0.023471	12.863471	0.068934	0.012132	3.287835	1.000000	0.000003	0.000055	-0.000054	0.166016	-11.221797	178.450331
22177	2.485419	-0.020722	12.844314	0.062665	0.056436	3.269630	1.000000	0.000002	0.000043	-0.000060	0.165916	-11.221918	178.451323
22178	2.446651	0.016997	12.872151	0.105114	0.017650	3.289500	1.000000	0.000007	0.000042	-0.000052	0.166167	-11.222041	178.453247
22179	2.502358	0.000080	12.865619	0.049748	0.036325	3.293882	1.000000	0.000021	0.000040	-0.000061	0.168299	-11.222493	178.454156
22180	2.510000	0.032555	12.856117	0.039584	0.004225	3.286142	1.000000	-0.000008	0.000044	-0.000076	0.167434	-11.222408	178.453294
22181	2.509230	0.033105	12.856266	0.040731	0.003827	3.286138	1.000000	0.000023	0.000015	-0.000064	0.169901	-11.225683	178.453772
22182	2.530087	0.031302	12.867594	0.022969	0.006447	3.301302	1.000000	0.000003	0.000039	-0.000070	0.170144	-11.226231	178.453586
22183	2.537761	0.063783	12.858084	0.012838	-0.025656	3.293563	1.000000	0.000007	0.000042	-0.000085	0.171164	-11.226486	178.451709
22184	2.558274	0.061829	12.869483	-0.004918	-0.023046	3.308732	1.000000	0.000003	0.000039	-0.000070	0.171409	-11.227034	178.451523
22185	2.587524	0.091724	12.871169	-0.033927	-0.052142	3.316166	1.000000	-0.000002	0.000039	-0.000078	0.171306	-11.227596	178.450406
22186	2.545890	0.074740	12.839276	0.001247	-0.036228	3.276729	1.000000	-0.000002	0.000039	-0.000078	0.171186	-11.228082	178.449292
22187	2.555017	0.062843	12.870125	-0.001477	-0.024265	3.308730	1.000000	-0.000007	0.000056	-0.000070	0.170362	-11.226698	178.449111
22188	2.545154	0.031223	12.880064	0.010920	0.007036	3.316466	1.000000	0.000004	0.000034	-0.000080	0.170985	-11.227755	178.447742
22189	2.542418	0.075668	12.839958	0.004685	-0.037440	3.276725	1.000000	-0.000009	0.000048	-0.000066	0.169777	-11.227247	178.448066
22190	2.510913	0.046162	12.838708	0.035958	-0.009133	3.269280	1.000000	-0.000019	0.000050	-0.000082	0.167818	-11.226533	178.446533
22191	2.533588	0.021673	12.840493	0.014463	0.015810	3.275373	1.000000	0.000007	0.000058	-0.000069	0.168488	-11.224912	178.446525
22192	2.523602	-0.009912	12.850454	0.026837	0.047120	3.283109	1.000000	-0.000003	0.000043	-0.000068	0.168007	-11.224897	178.446597
22193	2.520126	0.012656	12.860337	0.031746	0.024374	3.292192	1.000000	0.000000	0.000031	-0.000066	0.167892	-11.226402	178.446917
22194	2.519225	0.013001	12.860513	0.032873	0.023971	3.292190	1.000000	-0.000002	0.000039	-0.000078	0.167776	-11.226889	178.445807
22195	2.550997	0.020504	12.852523	0.000126	0.017184	3.290559	1.000000	-0.000010	0.000036	-0.000072	0.166553	-11.227762	178.445454
22196	2.549948	0.020896	12.852730	0.001253	0.016776	3.290559	1.000000	0.000015	0.000045	-0.000058	0.167929	-11.227569	178.446629
22197	2.557728	0.053354	12.843204	-0.008831	-0.015347	3.282823	1.000000	-0.000002	0.000023	-0.000061	0.167431	-11.229951	178.447453
22198	2.589671	0.060998	12.835188	-0.041590	-0.022157	3.281202	1.000000	0.000003	0.000038	-0.000070	0.167683	-11.230505	178.447275
22199	2.578396	0.073711	12.804755	-0.036577	-0.034915	3.249195	1.000000	0.000014	0.000033	-0.000064	0.169062	-11.231772	178.447769
22200	2.585315	0.084302	12.845241	-0.035512	-0.045323	3.290284	1.000000	-0.000001	0.000035	-0.000056	0.168565	-11.232704	178.449276
22201	2.629941	0.057513	12.858202	-0.075903	-0.017456	3.311610	1.000000	0.000002	0.000043	-0.000060	0.168467	-11.232835	178.450280
22202	2.596027	0.050480	12.866604	-0.040880	-0.011454	3.313226	1.000000	-0.000004	0.000048	-0.000058	0.167620	-11.232332	178.451539
22203	2.605890	0.060444	12.847482	-0.054742	-0.021247	3.296419	1.000000	-0.000002	0.000055	-0.000062	0.167167	-11.231022	178.452295
22204	2.574466	0.031015	12.846197	-0.023529	0.007112	3.288955	1.000000	-0.000012	0.000041	-0.000061	0.165569	-11.231336	178.453129
22205	2.573163	0.031079	12.846459	-0.022382	0.006705	3.288957	1.000000	-0.000008	0.000060	-0.000060	0.164378	-11.229459	178.454140
22206	2.563130	-0.000808	12.856432	-0.010050	0.038027	3.296696	1.000000	-0.000009	0.000048	-0.000066	0.163164	-11.228904	178.454473
22207	2.573053	0.009159	12.837302	-0.023921	0.028232	3.279892	1.000000	-0.000001	0.000051	-0.000072	0.163081	-11.228099	178.454048
22208	2.563983	-0.000602	12.797246	-0.022762	0.037830	3.238809	1.000000	-0.000001	0.000051	-0.000072	0.162987	-11.227242	178.453626
22209	2.567752	0.032177	12.847538	-0.017819	0.005074	3.288965	1.000000	0.000002	0.000059	-0.000076	0.163288	-11.225565	178.452701
22210	2.557785	0.000661	12.857496	-0.005500	0.036401	3.296703	1.000000	0.000006	0.000046	-0.000074	0.163931	-11.225280	178.452026
22211	2.553822	0.023568	12.867461	-0.000521	0.013654	3.305770	1.000000	0.000015	0.000061	-0.000075	0.165725	-11.223362	178.451275
22212	2.566439	0.011617	12.838623	-0.018240	0.026191	3.279905	1.000000	0.000001	0.000031	-0.000066	0.165598	-11.224827	178.451606
22213	2.527432	0.049335	12.866345	0.024469	-0.012429	3.299613	1.000000	0.000018	0.000053	-0.000063	0.167377	-11.223847	178.452286
22214	2.540061	0.037424	12.837506	0.006745	0.000108	3.273749	1.000000	0.000003	0.000038	-0.000070	0.167634	-11.224440	178.452116
22215	2.516441	0.018281	12.876498	0.037924	0.018508	3.307345	1.000000	-0.000002	0.000055	-0.000062	0.167182	-11.223136	178.452879
22216	2.534921	0.060302	12.847694	0.012881	-0.023041	3.282808	1.000000	0.000001	0.000047	-0.000050	0.166698	-11.222719	178.455075
22217	2.519839	0.073160	12.877005	0.032906	-0.036379	3.308661	1.000000	0.000004	0.000050	-0.000064	0.166986	-11.221984	178.455585
22218	2.531569	0.039173	12.898187	0.026346	-0.002121	3.331623	1.000000	0.000002	0.000043	-0.000060	0.166875	-11.222070	178.456598
22219	2.531338	0.061355	12.848395	0.016320	-0.024249	3.282802	1.000000	-0.000003	0.000043	-0.000068	0.166411	-11.222146	178.456682
22220	2.521638	0.029653	12.858297	0.028606	0.007096	3.290537	1.000000	0.000002	0.000043	-0.000060	0.166303	-11.222231	178.457696
22221	2.517977	0.052382	12.868186	0.033626	-0.015643	3.299589	1.000000	0.000013	0.000037	-0.000054	0.167316	-11.223001	178.459384
22222	2.519263	0.030645	12.858761	0.030887	0.006294	3.290532	1.000000	-0.000000	0.000067	-0.000089	0.167622	-11.220338	178.457039
22223	2.515264	0.053293	12.868713	0.035915	-0.016445	3.299582	1.000000	-0.000002	0.000039	-0.000078	0.167529	-11.220921	178.455943
22224	2.535789	0.051329	12.880181	0.018200	-0.013949	3.314818	1.000000	0.000003	0.000038	-0.000070	0.167793	-11.221506	178.455778
22225	2.527121	0.041619	12.840047	0.019296	-0.004323	3.273736	1.000000	0.000003	0.000038	-0.000070	0.168070	-11.222152	178.455611
22226	2.555120	0.049893	12.891887	0.001639	-0.011864	3.330057	1.000000	0.000003	0.000054	-0.000086	0.168734	-11.220928	178.453517
22227	2.537799	0.008168	12.861454	0.013850	0.029519	3.296714	1.000000	0.000001	0.000031	-0.000066	0.168627	-11.222449	178.453852
22228	2.531512	0.053190	12.881015	0.022780	-0.015561	3.314809	1.000000	0.000015	0.000045	-0.000058	0.170013	-11.222286	178.455044
22229	2.541475	0.063435	12.861894	0.008913	-0.025384	3.298023	1.000000	-0.000005	0.000051	-0.000080	0.169565	-11.221432	178.453704
22230	2.545485	0.019285	12.842785	0.002236	0.018886	3.279930	1.000000	0.000004	0.000050	-0.000064	0.169846	-11.220640	178.454220
22231	2.560522	0.061852	12.873667	-0.007643	-0.023315	3.313271	1.000000	-0.000002	0.000039	-0.000078	0.169755	-11.221228	178.453129
22232	2.507774	0.034841	12.860996	0.042291	0.002295	3.290501	1.000000	-0.000000	0.000051	-0.000072	0.169667	-11.220376	178.452721
22233	2.549819	0.030579	12.883771	0.005751	0.007637	3.321008	1.000000	0.000002	0.000026	-0.000076	0.169934	-11.222404	178.451878
22234	2.541227	0.020693	12.843626	0.006786	0.017271	3.279931	1.000000	-0.000009	0.000048	-0.000066	0.168722	-11.221857	178.452225
22235	2.536607	0.021213	12.903523	0.023056	0.016259	3.337785	1.000000	-0.000009	0.000032	-0.000081	0.167881	-11.223258	178.450709
22236	2.539237	0.021103	12.844019	0.009061	0.016464	3.279931	1.000000	0.000002	0.000043	-0.000060	0.167776	-11.223340	178.451730
22237	2.548526	0.009235	12.874873	0.006387	0.028354	3.311968	1.000000	-0.000010	0.000036	-0.000071	0.166564	-11.224237	178.451396
22238	2.567184	0.051233	12.846059	-0.018587	-0.013259	3.287456	1.000000	0.000001	0.000047	-0.000050	0.166084	-11.223815	178.453602
22239	2.550016	0.009440	12.815600	-0.006482	0.028154	3.254119	1.000000	0.000004	0.000034	-0.000080	0.166735	-11.224973	178.452262
22240	2.589421	0.027556	12.848071	-0.039084	0.011110	3.293691	1.000000	0.000003	0.000038	-0.000070	0.167000	-11.225563	178.452108
22241	2.575423	0.062333	12.827295	-0.030174	-0.023920	3.270688	1.000000	0.000003	0.000038	-0.000070	0.167279	-11.226217	178.451950
22242	2.587452	0.028479	12.848466	-0.036804	0.010289	3.293698	1.000000	0.000008	0.000038	-0.000062	0.167913	-11.226873	178.452725
22243	2.573616	0.063333	12.827653	-0.027889	-0.024737	3.270692	1.000000	0.000007	0.000026	-0.000068	0.168550	-11.228967	178.452815
22244	2.585385	0.029445	12.848880	-0.034523	0.009469	3.293705	1.000000	-0.000001	0.000071	-0.000078	0.168486	-11.225817	178.451668
22245	2.572762	0.020057	12.868511	-0.018353	0.018506	3.310476	1.000000	0.000003	0.000038	-0.000070	0.168766	-11.226472	178.451512
22246	2.549951	0.022785	12.857456	0.001613	0.015266	3.295200	1.000000	0.000006	0.000062	-0.000058	0.169053	-11.224322	178.452722
22247	2.578652	0.052981	12.859361	-0.027122	-0.014092	3.302742	1.000000	0.000003	0.000038	-0.000070	0.169333	-11.224978	178.452567
22248	2.558624	0.033459	12.838613	-0.011128	0.005005	3.278436	1.000000	0.000002	0.000058	-0.000076	0.169626	-11.223275	178.451667
22249	2.557224	0.033900	12.838891	-0.009981	0.004601	3.278437	1.000000	0.000004	0.000050	-0.000064	0.169917	-11.222555	178.452195
22250	2.555928	0.034340	12.839148	-0.008846	0.004193	3.278438	1.000000	0.000004	0.000050	-0.000064	0.170194	-11.221789	178.452723
22251	2.540632	0.047350	12.868431	0.011311	-0.009089	3.304224	1.000000	0.000013	0.000053	-0.000070	0.171609	-11.220763	178.452499
22252	2.550600	0.057590	12.849335	-0.002573	-0.018950	3.287462	1.000000	-0.000008	0.000044	-0.000076	0.170770	-11.220750	178.451676
22253	2.540920	0.025855	12.859238	0.009607	0.012435	3.295200	1.000000	0.000004	0.000050	-0.000064	0.171061	-11.220032	178.452206
22254	2.548239	0.058341	12.849800	-0.000283	-0.019761	3.287461	1.000000	0.000003	0.000038	-0.000070	0.171331	-11.220645	178.452056
22255	2.547080	0.058696	12.850028	0.000868	-0.020164	3.287461	1.000000	-0.000005	0.000051	-0.000080	0.170889	-11.219807	178.450732
22256	2.527028	0.039064	12.829276	0.016824	-0.001040	3.263146	1.000000	0.000004	0.000050	-0.000064	0.171169	-11.219045	178.451265
22257	2.525734	0.039500	12.829529	0.017970	-0.001441	3.263145	1.000000	0.000004	0.000050	-0.000064	0.171461	-11.218329	178.451797
22258	2.534811	0.027790	12.860440	0.015310	0.010417	3.295196	1.000000	-0.000003	0.000043	-0.000068	0.170994	-11.218380	178.451897
22259	2.542016	0.060323	12.851024	0.005449	-0.021781	3.287457	1.000000	0.000013	0.000053	-0.000070	0.172410	-11.217357	178.451678
22260	2.540779	0.060844	12.851266	0.006589	-0.022186	3.287456	1.000000	0.000002	0.000043	-0.000060	0.172310	-11.217469	178.452706
22261	2.528495	0.051341	12.870806	0.022766	-0.013119	3.304206	1.000000	-0.000006	0.000039	-0.000086	0.171861	-11.218013	178.450704
22262	2.530126	0.029452	12.861358	0.019877	0.008808	3.295191	1.000000	0.000004	0.000050	-0.000064	0.172144	-11.217250	178.451247
22263	2.561659	0.037469	12.853610	-0.012816	0.001714	3.293747	1.000000	0.000007	0.000042	-0.000052	0.172421	-11.217468	178.453208
22264	2.539059	0.040056	12.842478	0.007135	-0.001470	3.278440	1.000000	-0.000003	0.000043	-0.000068	0.171956	-11.217518	178.453319
22265	2.526623	0.030548	12.862045	0.023308	0.007604	3.295186	1.000000	-0.000000	0.000051	-0.000072	0.171883	-11.216746	178.452928
22266	2.528153	0.008536	12.852621	0.020401	0.029530	3.286176	1.000000	-0.000009	0.000048	-0.000065	0.170676	-11.216232	178.453294
22267	2.542858	0.050975	12.883555	0.010828	-0.012759	3.319503	1.000000	-0.000003	0.000043	-0.000068	0.170220	-11.216334	178.453402
22268	2.537063	0.018940	12.833751	0.007651	0.019247	3.269430	1.000000	0.000006	0.000046	-0.000074	0.170879	-11.216080	178.452755
22269	2.521770	0.031748	12.862994	0.027876	0.005999	3.295178	1.000000	-0.000005	0.000051	-0.000080	0.170440	-11.215251	178.451439
22270	2.513044	0.021740	12.822886	0.028735	0.015682	3.254110	1.000000	-0.000009	0.000048	-0.000065	0.169233	-11.214738	178.451800
22271	2.552000	0.039863	12.855524	-0.003675	-0.001531	3.293753	1.000000	0.000006	0.000046	-0.000074	0.169902	-11.214534	178.451161
22272	2.551013	0.040300	12.855719	-0.002538	-0.001938	3.293753	1.000000	0.000001	0.000031	-0.000065	0.169795	-11.216026	178.451514
22273	2.527674	0.021069	12.894533	0.028667	0.016634	3.327231	1.000000	0.000008	0.000038	-0.000062	0.170448	-11.216754	178.452300
22274	2.551826	0.018938	12.846446	-0.004326	0.019579	3.284754	1.000000	-0.000000	0.000051	-0.000072	0.170364	-11.215935	178.451910
22275	2.547743	0.041615	12.856363	0.000896	-0.003151	3.293753	1.000000	0.000006	0.000046	-0.000074	0.171034	-11.215733	178.451273
22276	2.549446	0.019817	12.846918	-0.002047	0.018768	3.284755	1.000000	0.000002	0.000043	-0.000060	0.170933	-11.215847	178.452312
22277	2.524291	0.044389	12.845374	0.021984	-0.006699	3.278421	1.000000	-0.000015	0.000021	-0.000063	0.168966	-11.218511	178.452992
22278	2.547716	0.020145	12.847260	0.000231	0.017959	3.284757	1.000000	0.000004	0.000050	-0.000064	0.169248	-11.217753	178.453531
22279	2.533429	0.054974	12.826468	0.009239	-0.016998	3.261684	1.000000	0.000012	0.000041	-0.000076	0.170660	-11.218117	178.452643
22280	2.578175	0.028807	12.839773	-0.031318	0.010381	3.283362	1.000000	-0.000008	0.000044	-0.000075	0.169827	-11.218117	178.451830
22281	2.574251	0.051318	12.849655	-0.026072	-0.012351	3.292358	1.000000	-0.000002	0.000039	-0.000078	0.169750	-11.218732	178.450766
22282	2.565967	0.041468	12.809468	-0.025270	-0.002661	3.251298	1.000000	0.000001	0.000031	-0.000065	0.169644	-11.220227	178.451132
22283	2.561166	0.042100	12.869335	-0.008754	-0.003665	3.309090	1.000000	-0.000008	0.000044	-0.000075	0.168825	-11.220278	178.450322
22284	2.549951	0.054396	12.838828	-0.003851	-0.016295	3.277019	1.000000	0.000001	0.000031	-0.000065	0.168719	-11.221771	178.450704
22285	2.581415	0.062479	12.831154	-0.036526	-0.023490	3.275637	1.000000	-0.000000	0.000066	-0.000088	0.169046	-11.219208	178.448403
22286	2.565824	0.075137	12.860427	-0.016237	-0.036716	3.301353	1.000000	-0.000009	0.000048	-0.000065	0.167838	-11.218711	178.448785
22287	2.559315	0.021175	12.860605	-0.008298	0.017031	3.300105	1.000000	0.000009	0.000033	-0.000072	0.168870	-11.219950	178.448400
22288	2.573876	0.063916	12.891562	-0.017699	-0.025315	3.333427	1.000000	-0.000002	0.000055	-0.000062	0.168411	-11.218644	178.449205
22289	2.553982	0.044245	12.870756	-0.001884	-0.006103	3.309092	1.000000	0.000006	0.000046	-0.000074	0.169082	-11.218448	178.448576
22290	2.545429	0.034386	12.830623	-0.001118	0.003599	3.268033	1.000000	-0.000004	0.000047	-0.000057	0.168241	-11.218015	178.449889
22291	2.554400	0.022562	12.861579	-0.003729	0.015407	3.300109	1.000000	-0.000010	0.000052	-0.000088	0.167440	-11.217143	178.447660
22292	2.542786	0.034850	12.831145	0.001163	0.002792	3.268033	1.000000	0.000003	0.000055	-0.000054	0.167351	-11.215891	178.449395
22293	2.551837	0.023234	12.862087	-0.001446	0.014597	3.300111	1.000000	0.000003	0.000038	-0.000070	0.167642	-11.216569	178.449265
22294	2.547979	0.045816	12.871940	0.003840	-0.008128	3.309090	1.000000	-0.000001	0.000035	-0.000055	0.167169	-11.217572	178.450797
22295	2.539389	0.035869	12.831815	0.004591	0.001584	3.268033	1.000000	-0.000004	0.000063	-0.000074	0.166739	-11.215381	178.450179
22296	2.537096	0.014389	12.882077	0.017005	0.022905	3.316828	1.000000	0.000008	0.000038	-0.000062	0.167386	-11.216063	178.451013
22297	2.547258	0.024781	12.862992	0.003120	0.012979	3.300112	1.000000	0.000006	0.000046	-0.000074	0.168059	-11.215871	178.450389
22298	2.546177	0.025262	12.863205	0.004260	0.012574	3.300112	1.000000	0.000003	0.000038	-0.000070	0.168342	-11.216519	178.450243
22299	2.567479	0.045574	12.824846	-0.024659	-0.006882	3.266687	1.000000	0.000013	0.000053	-0.000070	0.169762	-11.215514	178.450050
22300	2.533568	0.038183	12.832959	0.010290	-0.000432	3.268030	1.000000	-0.000011	0.000040	-0.000061	0.168176	-11.215894	178.450941
22301	2.520843	0.028453	12.852544	0.026469	0.008696	3.284739	1.000000	-0.000003	0.000075	-0.000068	0.167750	-11.212329	178.451008
22302	2.573568	0.034446	12.856387	-0.024981	0.004089	3.298776	1.000000	0.000003	0.000038	-0.000070	0.168029	-11.212973	178.450891
22303	2.531425	-0.005020	12.874106	0.020827	0.042405	3.307850	1.000000	-0.000000	0.000051	-0.000072	0.167961	-11.212222	178.450522
22304	2.538513	0.027440	12.864715	0.011112	0.010150	3.300110	1.000000	0.000002	0.000042	-0.000059	0.167865	-11.212347	178.451600
22305	2.515877	0.029780	12.853515	0.031034	0.007093	3.284730	1.000000	-0.000009	0.000048	-0.000065	0.166673	-11.211904	178.451979
22306	2.536083	0.027939	12.865193	0.013398	0.009343	3.300109	1.000000	0.000004	0.000050	-0.000064	0.166958	-11.211168	178.452537
22307	2.531805	0.050478	12.875113	0.018743	-0.013376	3.309073	1.000000	-0.000010	0.000051	-0.000088	0.166162	-11.210307	178.450318
22308	2.512064	0.030796	12.854258	0.034456	0.005892	3.284722	1.000000	0.000015	0.000045	-0.000058	0.167556	-11.210195	178.451538
22309	2.543693	0.039063	12.846622	0.001797	-0.001406	3.283403	1.000000	-0.000006	0.000039	-0.000085	0.167123	-11.210769	178.449564
22310	2.554095	0.049310	12.827504	-0.012099	-0.011354	3.266702	1.000000	0.000002	0.000026	-0.000075	0.167403	-11.212792	178.448756
22311	2.537834	0.040328	12.906654	0.019598	-0.002804	3.341154	1.000000	0.000013	0.000053	-0.000070	0.168824	-11.211792	178.448571
22312	2.540567	0.040591	12.847236	0.005220	-0.002618	3.283402	1.000000	0.000006	0.000046	-0.000074	0.169492	-11.211558	178.447962
22313	2.539389	0.041114	12.847467	0.006367	-0.003021	3.283402	1.000000	0.000006	0.000046	-0.000074	0.170168	-11.211375	178.447347
22314	2.562768	0.017291	12.849467	-0.015485	0.021517	3.289838	1.000000	0.000003	0.000038	-0.000070	0.170452	-11.212018	178.447236
22315	2.537431	0.042031	12.847851	0.008653	-0.003828	3.283400	1.000000	0.000006	0.000030	-0.000057	0.170730	-11.213632	178.448540
22316	2.555098	0.062485	12.869115	-0.004742	-0.023925	3.307753	1.000000	-0.000009	0.000031	-0.000081	0.169906	-11.215033	178.447075
22317	2.535448	0.042407	12.848241	0.010938	-0.004635	3.283398	1.000000	-0.000017	0.000061	-0.000075	0.167989	-11.213109	178.446290
22318	2.537001	0.020545	12.838869	0.007836	0.017274	3.274443	1.000000	0.000018	0.000052	-0.000062	0.169760	-11.212121	178.447058
22319	2.565460	0.051081	12.840951	-0.020574	-0.012385	3.282107	1.000000	-0.000007	0.000043	-0.000075	0.168949	-11.212194	178.446267
22320	2.553262	0.041450	12.860414	-0.004395	-0.003235	3.298800	1.000000	0.000001	0.000030	-0.000065	0.168854	-11.213728	178.446619
22321	2.552216	0.041807	12.860621	-0.003245	-0.003640	3.298800	1.000000	-0.000000	0.000050	-0.000072	0.168789	-11.212986	178.446260
22322	2.565247	0.029941	12.831936	-0.021398	0.008706	3.273161	1.000000	0.000006	0.000046	-0.000074	0.169457	-11.212760	178.445661
22323	2.557977	0.074652	12.851492	-0.011737	-0.036325	3.291060	1.000000	-0.000014	0.000048	-0.000073	0.167904	-11.212273	178.445123
22324	2.581252	0.050659	12.853541	-0.033609	-0.011822	3.297525	1.000000	0.000006	0.000046	-0.000074	0.168573	-11.212060	178.444512
22325	2.580326	0.051146	12.853725	-0.032459	-0.012230	3.297527	1.000000	0.000002	0.000026	-0.000075	0.168870	-11.214130	178.443718
22326	2.546659	0.043473	12.861717	0.002476	-0.005665	3.298799	1.000000	-0.000018	0.000049	-0.000081	0.166943	-11.213565	178.442247
22327	2.569983	0.019363	12.863763	-0.019400	0.018831	3.305272	1.000000	0.000002	0.000042	-0.000059	0.166860	-11.213751	178.443312
22328	2.547332	0.021763	12.852529	0.000489	0.015835	3.289855	1.000000	-0.000000	0.000050	-0.000072	0.166777	-11.212974	178.442994
22329	2.568624	0.041921	12.814237	-0.028441	-0.003712	3.256492	1.000000	-0.000003	0.000043	-0.000067	0.166332	-11.213107	178.443134
22330	2.553185	0.054654	12.843383	-0.007980	-0.016858	3.282116	1.000000	0.000011	0.000045	-0.000066	0.167363	-11.212956	178.443460
22331	2.529456	0.035290	12.882151	0.023246	0.001887	3.315476	1.000000	-0.000000	0.000050	-0.000072	0.167298	-11.212220	178.443107
22332	2.553973	0.033282	12.834176	-0.009980	0.004642	3.273177	1.000000	0.000001	0.000030	-0.000065	0.167211	-11.213755	178.443481
22333	2.562985	0.021727	12.865155	-0.012542	0.016386	3.305284	1.000000	0.000006	0.000062	-0.000058	0.167509	-11.211696	178.444737
22334	2.551217	0.033953	12.834723	-0.007694	0.003834	3.273179	1.000000	-0.000008	0.000060	-0.000059	0.166321	-11.209869	178.445768
22335	2.538640	0.024173	12.854244	0.008491	0.013010	3.289856	1.000000	-0.000007	0.000043	-0.000075	0.165514	-11.209951	178.444986
22336	2.581288	0.042376	12.827476	-0.039191	-0.003997	3.271938	1.000000	0.000007	0.000058	-0.000068	0.166181	-11.208374	178.445066
22337	2.533024	0.047223	12.864396	0.015088	-0.010105	3.298788	1.000000	0.000003	0.000038	-0.000069	0.166481	-11.209072	178.444960
22338	2.577902	0.021301	12.877945	-0.025566	0.016910	3.320726	1.000000	-0.000004	0.000047	-0.000057	0.165640	-11.208673	178.446300
22339	2.555324	0.023377	12.866676	-0.005677	0.013949	3.305291	1.000000	-0.000016	0.000041	-0.000069	0.163709	-11.209066	178.446264
22340	2.543981	0.035641	12.836154	-0.000835	0.001407	3.273182	1.000000	0.000010	0.000049	-0.000088	0.165155	-11.208513	178.443947
22341	2.572179	0.066187	12.838331	-0.029141	-0.028346	3.280882	1.000000	-0.000008	0.000060	-0.000059	0.163966	-11.206714	178.445027
22342	2.562769	0.034314	12.848180	-0.017287	0.003145	3.288625	1.000000	0.000003	0.000038	-0.000069	0.164265	-11.207384	178.444914
22343	2.529188	0.026728	12.856102	0.017638	0.009790	3.289849	1.000000	-0.000004	0.000031	-0.000073	0.163824	-11.208902	178.444380
22344	2.539394	0.036986	12.837059	0.003743	-0.000207	3.273181	1.000000	-0.000000	0.000050	-0.000071	0.163751	-11.208169	178.443987
22345	2.526940	0.027355	12.856543	0.019930	0.008986	3.289847	1.000000	-0.000003	0.000043	-0.000067	0.163308	-11.208310	178.444135
22346	2.515525	0.039771	12.826028	0.024763	-0.003546	3.257730	1.000000	0.000013	0.000053	-0.000070	0.164724	-11.207299	178.443972
22347	2.560333	0.013947	12.839631	-0.015905	0.023418	3.279709	1.000000	-0.000011	0.000040	-0.000061	0.163156	-11.207750	178.444865
22348	2.541678	0.048770	12.878406	0.008979	-0.011998	3.314217	1.000000	0.000010	0.000049	-0.000088	0.164597	-11.207195	178.442591
22349	2.519132	0.051399	12.867107	0.028861	-0.014924	3.298760	1.000000	0.000013	0.000037	-0.000053	0.165624	-11.208004	178.444343
22350	2.532389	0.039583	12.838435	0.010612	-0.002622	3.273177	1.000000	-0.000005	0.000051	-0.000079	0.165202	-11.207236	178.442958
22351	2.559615	0.048247	12.890608	-0.006292	-0.010689	3.329671	1.000000	0.000001	0.000046	-0.000082	0.165524	-11.207019	178.441441
22352	2.540338	0.028414	12.869633	0.009211	0.008693	3.305294	1.000000	0.000001	0.000030	-0.000065	0.165437	-11.208553	178.441871
22353	2.537322	0.072815	12.829466	0.003372	-0.035739	3.265433	1.000000	-0.000003	0.000043	-0.000067	0.164996	-11.208698	178.442024
22354	2.538193	0.029043	12.870055	0.011500	0.007887	3.305292	1.000000	-0.000000	0.000050	-0.000071	0.164931	-11.207942	178.441685
22355	2.569583	0.037402	12.862599	-0.021119	0.000379	3.304101	1.000000	-0.000000	0.000050	-0.000071	0.164870	-11.207218	178.441346
22356	2.547098	0.039639	12.851280	-0.001264	-0.002530	3.288636	1.000000	-0.000009	0.000031	-0.000081	0.164068	-11.208612	178.440002
22357	2.546121	0.039704	12.851474	-0.000116	-0.002934	3.288636	1.000000	-0.000013	0.000045	-0.000051	0.162118	-11.208560	178.442076
22358	2.566517	0.037773	12.863209	-0.017691	-0.000841	3.304107	1.000000	-0.000010	0.000036	-0.000071	0.160934	-11.209517	178.441743
22359	2.568683	0.015806	12.853760	-0.020936	0.021054	3.295198	1.000000	0.000002	0.000042	-0.000059	0.160855	-11.209716	178.442824
22360	2.565408	0.060293	12.813645	-0.026768	-0.023379	3.255335	1.000000	0.000005	0.000050	-0.000063	0.161161	-11.209015	178.443399
22361	2.566368	0.016650	12.854222	-0.018652	0.020242	3.295203	1.000000	0.000003	0.000038	-0.000069	0.161467	-11.209724	178.443306
22362	2.551880	0.051166	12.833327	-0.009439	-0.014571	3.271986	1.000000	-0.000000	0.000050	-0.000071	0.161401	-11.208958	178.443017
22363	2.550611	0.051360	12.833578	-0.008291	-0.014975	3.271986	1.000000	-0.000013	0.000048	-0.000073	0.159855	-11.208496	178.442499
22364	2.548478	0.029831	12.883783	0.004218	0.006345	3.320760	1.000000	0.000014	0.000032	-0.000063	0.161258	-11.209766	178.443156
22365	2.547442	0.030230	12.883987	0.005368	0.005942	3.320760	1.000000	-0.000009	0.000048	-0.000065	0.160073	-11.209357	178.443564
22366	2.583163	0.038242	12.816908	-0.043043	-0.001044	3.261924	1.000000	0.000005	0.000050	-0.000063	0.160371	-11.208657	178.444170
22367	2.534824	0.042768	12.853697	0.011327	-0.006964	3.288630	1.000000	-0.000003	0.000043	-0.000067	0.159932	-11.208809	178.444330
22368	2.547095	0.008978	12.875041	0.004376	0.027029	3.311858	1.000000	0.000002	0.000042	-0.000059	0.159856	-11.208985	178.445407
22369	2.543891	0.053378	12.834904	-0.001427	-0.017399	3.271986	1.000000	-0.000003	0.000043	-0.000067	0.159418	-11.209138	178.445568
22370	2.556099	0.019468	12.856264	-0.008385	0.016590	3.295218	1.000000	-0.000009	0.000048	-0.000065	0.158235	-11.208698	178.445983
22371	2.562860	0.052092	12.846942	-0.017845	-0.015747	3.287477	1.000000	0.000018	0.000052	-0.000062	0.160024	-11.207774	178.446761
22372	2.550253	0.042504	12.866429	-0.001658	-0.006519	3.304117	1.000000	-0.000010	0.000052	-0.000055	0.158441	-11.206826	178.448395
22373	2.552307	0.020460	12.857016	-0.004955	0.015374	3.295222	1.000000	-0.000006	0.000039	-0.000085	0.158028	-11.207438	178.446458
22374	2.562740	0.030814	12.837961	-0.018856	0.005325	3.278586	1.000000	0.000002	0.000026	-0.000075	0.158318	-11.209524	178.445697
22375	2.561771	0.031298	12.838153	-0.017710	0.004920	3.278588	1.000000	0.000009	0.000049	-0.000055	0.158981	-11.208911	178.447219
22376	2.557349	0.053891	12.848033	-0.012114	-0.017782	3.287481	1.000000	-0.000003	0.000043	-0.000067	0.158540	-11.209034	178.447406
22377	2.559549	0.032058	12.838595	-0.015426	0.004108	3.278591	1.000000	0.000003	0.000038	-0.000069	0.158849	-11.209749	178.447322
22378	2.536999	0.034356	12.827251	0.004416	0.001266	3.263088	1.000000	-0.000000	0.000050	-0.000071	0.158789	-11.209017	178.446994
22379	2.542732	0.045184	12.867908	0.006377	-0.009351	3.304114	1.000000	0.000012	0.000040	-0.000076	0.160224	-11.209423	178.446169
22380	2.544779	0.023268	12.858503	0.003058	0.012541	3.295225	1.000000	-0.000019	0.000053	-0.000071	0.157935	-11.208426	178.445827
22381	2.533423	0.035392	12.827955	0.007855	0.000060	3.263086	1.000000	0.000007	0.000041	-0.000083	0.159010	-11.208783	178.444079
22382	2.506462	0.038102	12.876249	0.043570	-0.003337	3.305227	1.000000	0.000005	0.000050	-0.000063	0.159299	-11.208103	178.444697
22383	2.552442	0.034520	12.840003	-0.008555	0.001676	3.278598	1.000000	0.000006	0.000045	-0.000073	0.159989	-11.207952	178.444124
22384	2.548045	0.057152	12.849867	-0.002927	-0.021022	3.287482	1.000000	0.000002	0.000042	-0.000059	0.159910	-11.208132	178.445233
22385	2.540037	0.047245	12.809660	-0.002623	-0.011204	3.246458	1.000000	0.000001	0.000046	-0.000081	0.160240	-11.207933	178.443736
22386	2.559091	0.023929	12.871485	-0.008778	0.012532	3.310742	1.000000	0.000005	0.000050	-0.000063	0.160535	-11.207224	178.444420
22387	2.533141	0.048221	12.869789	0.015560	-0.012576	3.304103	1.000000	-0.000013	0.000048	-0.000073	0.158993	-11.206777	178.443915
22388	2.532880	0.070551	12.820062	0.005311	-0.034709	3.255336	1.000000	0.000020	0.000060	-0.000066	0.161145	-11.205016	178.444139
22389	2.533656	0.026956	12.860692	0.013360	0.008908	3.295222	1.000000	-0.000009	0.000047	-0.000065	0.159964	-11.204620	178.444559
22390	2.543826	0.037244	12.841705	-0.000539	-0.001156	3.278601	1.000000	0.000004	0.000038	-0.000069	0.160278	-11.205349	178.444411
22391	2.542853	0.037686	12.841897	0.000608	-0.001559	3.278601	1.000000	0.000004	0.000038	-0.000069	0.160590	-11.206071	178.444334
22392	2.527205	0.050300	12.870948	0.021312	-0.014585	3.304093	1.000000	0.000001	0.000046	-0.000081	0.160927	-11.205834	178.442871
22393	2.529270	0.028514	12.861552	0.017941	0.007304	3.295217	1.000000	-0.000000	0.000050	-0.000071	0.160872	-11.205130	178.442554
22394	2.557443	0.059231	12.863824	-0.010131	-0.022661	3.303004	1.000000	0.000002	0.000042	-0.000059	0.160824	-11.205296	178.443655
22395	2.530139	0.006957	12.852394	0.015695	0.028798	3.286343	1.000000	-0.000006	0.000055	-0.000069	0.160022	-11.204035	178.443587
22396	2.548229	0.049549	12.823860	-0.008720	-0.013233	3.261985	1.000000	0.000005	0.000033	-0.000079	0.160739	-11.205297	178.442185
22397	2.532441	0.062026	12.852929	0.012013	-0.026252	3.287467	1.000000	-0.000008	0.000059	-0.000059	0.159551	-11.203528	178.443292
22398	2.547961	0.006069	12.864705	0.000451	0.029978	3.301880	1.000000	0.000004	0.000038	-0.000069	0.159873	-11.204244	178.443169
22399	2.551606	0.060908	12.864975	-0.004366	-0.024679	3.303004	1.000000	0.000004	0.000038	-0.000069	0.160187	-11.204970	178.443096
22400	2.565073	0.049158	12.836370	-0.022812	-0.012474	3.277528	1.000000	-0.000000	0.000050	-0.000071	0.160128	-11.204267	178.442744
22401	2.574064	0.037704	12.867401	-0.025291	-0.000833	3.309682	1.000000	0.000004	0.000038	-0.000069	0.160442	-11.204994	178.442672
22402	2.540322	0.029984	12.875190	0.009575	0.006071	3.310746	1.000000	0.000006	0.000045	-0.000073	0.161113	-11.204807	178.442212
22403	2.550364	0.040462	12.856241	-0.004327	-0.004014	3.294139	1.000000	-0.000000	0.000050	-0.000071	0.161059	-11.204108	178.441899
22404	2.560292	0.050856	12.837318	-0.018234	-0.014105	3.277533	1.000000	0.000003	0.000054	-0.000053	0.160964	-11.202928	178.443708
22405	2.569216	0.039325	12.868365	-0.020707	-0.002469	3.309690	1.000000	-0.000006	0.000038	-0.000085	0.160561	-11.203560	178.441789
22406	2.568116	0.039604	12.868583	-0.019558	-0.002878	3.309692	1.000000	0.000001	0.000047	-0.000049	0.160088	-11.203266	178.444053
22407	2.535518	0.053620	12.826363	0.003881	-0.017674	3.261982	1.000000	0.000004	0.000038	-0.000069	0.160403	-11.203995	178.443983
22408	2.547928	0.020077	12.847752	-0.003165	0.016246	3.285282	1.000000	0.000006	0.000045	-0.000073	0.161095	-11.203866	178.443368
22409	2.576040	0.050856	12.850064	-0.031158	-0.013789	3.293095	1.000000	-0.000004	0.000047	-0.000057	0.160275	-11.203530	178.444722
22410	2.542280	0.042931	12.857834	0.003714	-0.006848	3.294138	1.000000	0.000004	0.000038	-0.000069	0.160581	-11.204276	178.444598
22411	2.531033	0.055176	12.827242	0.008478	-0.019284	3.261978	1.000000	-0.000000	0.000050	-0.000071	0.160529	-11.203582	178.444290
22412	2.554611	0.031561	12.829478	-0.013627	0.004936	3.268686	1.000000	0.000002	0.000042	-0.000059	0.160464	-11.203827	178.445293
22413	2.571425	0.052267	12.850982	-0.026549	-0.015419	3.293104	1.000000	-0.000005	0.000050	-0.000079	0.160053	-11.203086	178.444062
22414	2.527357	0.056208	12.827962	0.011918	-0.020490	3.261973	1.000000	0.000005	0.000050	-0.000063	0.160340	-11.202399	178.444776
22415	2.572387	0.030861	12.841834	-0.028863	0.006046	3.284258	1.000000	-0.000001	0.000038	-0.000077	0.160299	-11.203084	178.443786
22416	2.546570	0.055143	12.840029	-0.004447	-0.018966	3.277539	1.000000	-0.000003	0.000042	-0.000067	0.159876	-11.203262	178.443923
22417	2.548932	0.033327	12.830603	-0.007909	0.002913	3.268692	1.000000	0.000004	0.000038	-0.000069	0.160193	-11.203996	178.443860
22418	2.557943	0.021770	12.861641	-0.010370	0.014526	3.300857	1.000000	-0.000009	0.000047	-0.000065	0.158989	-11.203614	178.444308
22419	2.531904	0.045995	12.859871	0.014053	-0.010476	3.294129	1.000000	0.000005	0.000050	-0.000063	0.159296	-11.202971	178.444929
22420	2.545398	0.034198	12.831303	-0.004466	0.001693	3.268694	1.000000	-0.000007	0.000043	-0.000075	0.158493	-11.203134	178.444110
22421	2.529359	0.046627	12.860369	0.016359	-0.011282	3.294125	1.000000	0.000006	0.000062	-0.000057	0.158789	-11.201114	178.445416
22422	2.542764	0.034877	12.831823	-0.002174	0.000890	3.268694	1.000000	-0.000006	0.000038	-0.000085	0.158411	-11.201760	178.443440
22423	2.548404	0.045542	12.872482	0.000006	-0.009778	3.309703	1.000000	0.000002	0.000042	-0.000059	0.158340	-11.201986	178.444552
22424	2.558432	0.055884	12.853560	-0.013898	-0.019899	3.293117	1.000000	-0.000006	0.000055	-0.000069	0.157525	-11.200738	178.444501
22425	2.549351	0.023714	12.863344	-0.002335	0.011691	3.300864	1.000000	-0.000016	0.000040	-0.000068	0.155612	-11.201184	178.444503
22426	2.559538	0.034062	12.844394	-0.016249	0.001574	3.284281	1.000000	0.000011	0.000045	-0.000065	0.156686	-11.201069	178.444897
22427	2.543854	0.046647	12.873378	0.004601	-0.011392	3.309701	1.000000	0.000001	0.000030	-0.000065	0.156628	-11.202675	178.445327
22428	2.557295	0.034991	12.844838	-0.013944	0.000763	3.284284	1.000000	0.000008	0.000069	-0.000062	0.157298	-11.199840	178.446010
22429	2.534574	0.037055	12.833437	0.005851	-0.001927	3.268693	1.000000	-0.000010	0.000035	-0.000071	0.156134	-11.200843	178.445765
22430	2.554854	0.035588	12.845322	-0.011657	-0.000045	3.284286	1.000000	0.000005	0.000050	-0.000063	0.156451	-11.200170	178.446439
22431	2.553725	0.035993	12.845545	-0.010510	-0.000449	3.284287	1.000000	-0.000001	0.000038	-0.000077	0.156415	-11.200863	178.445459
22432	2.556246	0.014143	12.836105	-0.014040	0.021422	3.275457	1.000000	-0.000000	0.000034	-0.000055	0.155957	-11.201920	178.447149
22433	2.540514	0.026507	12.865086	0.006830	0.008467	3.300864	1.000000	-0.000002	0.000042	-0.000067	0.155530	-11.202104	178.447342
22434	2.550549	0.036863	12.846174	-0.007073	-0.001660	3.284289	1.000000	-0.000001	0.000054	-0.000061	0.155110	-11.200931	178.448121
22435	2.560740	0.047224	12.827233	-0.020981	-0.011794	3.267715	1.000000	-0.000004	0.000030	-0.000073	0.154696	-11.202494	178.447631
22436	2.558604	0.025649	12.877412	-0.008366	0.009531	3.316467	1.000000	0.000002	0.000042	-0.000059	0.154637	-11.202712	178.448746
22437	2.558779	0.047947	12.827621	-0.018690	-0.012602	3.267718	1.000000	0.000004	0.000038	-0.000069	0.154959	-11.203454	178.448692
22438	2.557809	0.048394	12.827813	-0.017563	-0.013003	3.267719	1.000000	0.000004	0.000038	-0.000069	0.155297	-11.204104	178.448822
22439	2.556618	0.048715	12.828049	-0.016416	-0.013408	3.267720	1.000000	-0.000006	0.000055	-0.000069	0.154500	-11.202867	178.448777
22440	2.554159	0.027056	12.878291	-0.003800	0.007916	3.316470	1.000000	-0.000002	0.000042	-0.000067	0.154075	-11.203018	178.449043
22441	2.531761	0.029129	12.866806	0.015983	0.005262	3.300858	1.000000	0.000004	0.000038	-0.000069	0.154397	-11.203761	178.448992
22442	2.553235	0.049553	12.828720	-0.012969	-0.014623	3.267723	1.000000	-0.000013	0.000048	-0.000073	0.152861	-11.203407	178.448371
22443	2.562156	0.037946	12.859792	-0.015397	-0.003041	3.299905	1.000000	0.000002	0.000042	-0.000059	0.152792	-11.203641	178.449492
22444	2.539698	0.039928	12.848314	0.004390	-0.005684	3.284289	1.000000	-0.000007	0.000043	-0.000075	0.152024	-11.203812	178.448669
22445	2.535196	0.062324	12.858134	0.010254	-0.028359	3.293105	1.000000	-0.000000	0.000034	-0.000055	0.151577	-11.204915	178.450278
22446	2.580291	0.037130	12.872130	-0.030583	-0.002017	3.315529	1.000000	-0.000001	0.000053	-0.000093	0.151956	-11.203793	178.447480
22447	2.557692	0.039195	12.860677	-0.010805	-0.004657	3.299909	1.000000	-0.000002	0.000042	-0.000067	0.151531	-11.203984	178.447680
22448	2.535340	0.041163	12.849171	0.008968	-0.007290	3.284286	1.000000	-0.000000	0.000034	-0.000055	0.151087	-11.205071	178.449314
22449	2.555641	0.039624	12.861083	-0.008510	-0.005466	3.299911	1.000000	-0.000013	0.000048	-0.000073	0.149557	-11.204662	178.448838
22450	2.539608	0.051786	12.890090	0.012445	-0.018387	3.325281	1.000000	-0.000004	0.000047	-0.000057	0.148749	-11.204401	178.450053
22451	2.567960	0.028128	12.832814	-0.025996	0.006242	3.274544	1.000000	0.000013	0.000052	-0.000069	0.150186	-11.203459	178.449956
22452	2.566748	0.028657	12.833056	-0.024850	0.005837	3.274546	1.000000	0.000002	0.000042	-0.000059	0.150124	-11.203700	178.451056
22453	2.539649	0.030909	12.881152	0.011158	0.002676	3.316468	1.000000	-0.000000	0.000034	-0.000055	0.149679	-11.204805	178.452668
22454	2.564645	0.029420	12.833474	-0.022559	0.005031	3.274551	1.000000	0.000009	0.000053	-0.000077	0.150786	-11.203818	178.451615
22455	2.544886	0.064028	12.872127	0.003153	-0.030152	3.308718	1.000000	-0.000006	0.000055	-0.000069	0.149991	-11.202590	178.451579
22456	2.540666	0.031775	12.822280	-0.001659	0.002019	3.258917	1.000000	0.000002	0.000042	-0.000059	0.149938	-11.202788	178.452785
22457	2.545999	0.042547	12.862986	0.000688	-0.008687	3.299912	1.000000	0.000005	0.000049	-0.000063	0.150249	-11.202160	178.453426
22458	2.562610	0.063400	12.884560	-0.012017	-0.029160	3.324355	1.000000	-0.000002	0.000042	-0.000067	0.149820	-11.202338	178.453677
22459	2.537122	0.032853	12.822979	0.001770	0.000811	3.258917	1.000000	0.000000	0.000050	-0.000071	0.149775	-11.201667	178.453395
22460	2.553728	0.053709	12.844555	-0.010927	-0.019674	3.283361	1.000000	0.000002	0.000042	-0.000059	0.149669	-11.201905	178.454573
22461	2.583941	0.040597	12.887376	-0.031945	-0.005929	3.331202	1.000000	-0.000005	0.000050	-0.000079	0.149269	-11.201191	178.453369
22462	2.529767	0.055798	12.833343	0.009993	-0.022665	3.267714	1.000000	-0.000017	0.000060	-0.000075	0.147393	-11.199406	178.452546
22463	2.574937	0.030583	12.847403	-0.030865	0.003568	3.290215	1.000000	0.000007	0.000025	-0.000067	0.148092	-11.201580	178.452746
22464	2.537849	0.044661	12.864589	0.008737	-0.011512	3.299907	1.000000	-0.000002	0.000042	-0.000067	0.147667	-11.201770	178.452978
22465	2.551570	0.032832	12.836072	-0.009964	0.000575	3.274567	1.000000	-0.000009	0.000047	-0.000065	0.146496	-11.201414	178.453433
22466	2.546798	0.055305	12.845924	-0.004027	-0.022099	3.283362	1.000000	0.000006	0.000045	-0.000073	0.147177	-11.201285	178.452977
22467	2.524290	0.057473	12.834414	0.015730	-0.024675	3.267705	1.000000	0.000006	0.000045	-0.000073	0.147882	-11.201173	178.452453
22468	2.561705	0.000296	12.858014	-0.014882	0.033579	3.297976	1.000000	0.000006	0.000045	-0.000073	0.148622	-11.201043	178.451935
22469	2.543444	0.056768	12.846582	-0.000581	-0.023301	3.283360	1.000000	-0.000000	0.000034	-0.000055	0.148179	-11.202154	178.453555
22470	2.534665	0.024839	12.856302	0.010808	0.008342	3.291109	1.000000	0.000005	0.000049	-0.000063	0.148487	-11.201482	178.454326
22471	2.544872	0.035254	12.837395	-0.003106	-0.001845	3.274570	1.000000	-0.000010	0.000035	-0.000070	0.147334	-11.202508	178.454099
22472	2.550217	0.045918	12.878093	-0.000693	-0.012562	3.315559	1.000000	0.000005	0.000049	-0.000063	0.147666	-11.201843	178.454829
22473	2.542663	0.035976	12.837831	-0.000824	-0.002646	3.274571	1.000000	0.000004	0.000037	-0.000069	0.147996	-11.202600	178.454793
22474	2.548021	0.046813	12.878525	0.001604	-0.013357	3.315558	1.000000	0.000002	0.000045	-0.000081	0.148407	-11.202422	178.453343
22475	2.561717	0.035297	12.850034	-0.017134	-0.001289	3.290240	1.000000	0.000009	0.000049	-0.000055	0.149074	-11.201844	178.454917
22476	2.528054	0.027127	12.857599	0.017690	0.005963	3.291102	1.000000	-0.000008	0.000031	-0.000080	0.148371	-11.203465	178.453273
