// Start Time: Unknown
// Update Rate: 100.0Hz
// Filter Profile: human (46.1)
// Firmware Version: 4.4.0
PacketCounter	Acc_X	Acc_Y	Acc_Z	FreeAcc_X	FreeAcc_Y	FreeAcc_Z	OriInc_q0	OriInc_q1	OriInc_q2	OriInc_q3	Roll	Pitch	Yaw
51634	2.475524	0.174858	12.872331	0.000000	-0.000000	3.296687	1.000000	0.000009	0.000048	-0.000064	0.777066	-10.887679	-177.395625
51635	2.475998	0.140857	12.873351	0.010339	0.008474	3.297362	1.000000	0.000005	0.000044	-0.000058	0.664262	-10.930027	-178.459760
51636	2.475298	0.140588	12.849135	0.005409	0.008606	3.273451	1.000000	-0.000011	0.000032	-0.000087	0.664917	-10.926199	-178.469886
51637	2.492708	0.124011	12.825507	-0.017777	0.024776	3.253363	1.000000	0.000009	0.000042	-0.000070	0.667997	-10.920650	-178.478162
51638	2.456638	0.123345	12.849762	0.020876	0.027238	3.270335	1.000000	0.000002	0.000056	-0.000070	0.669812	-10.914111	-178.486238
51639	2.471082	0.142700	12.898628	0.015125	0.008445	3.321273	1.000000	-0.000015	0.000046	-0.000064	0.669411	-10.908775	-178.493650
51640	2.472181	0.107362	12.850844	0.002761	0.043138	3.274158	1.000000	0.000009	0.000048	-0.000064	0.671797	-10.903171	-178.501044
51641	2.469301	0.142198	12.850271	0.005254	0.008666	3.273451	1.000000	-0.000005	0.000042	-0.000064	0.672413	-10.898230	-178.508422
51642	2.485690	0.127179	12.899888	-0.003000	0.024318	3.325095	1.000000	-0.000001	0.000040	-0.000076	0.673927	-10.893511	-178.517180
51643	2.483499	0.160775	12.850493	-0.010368	-0.009915	3.276567	1.000000	-0.000011	0.000044	-0.000076	0.673994	-10.888288	-178.525892
51644	2.484014	0.126614	12.851517	-0.012872	0.024514	3.277274	1.000000	0.000009	0.000048	-0.000064	0.676373	-10.882682	-178.533284
51645	2.498788	0.145564	12.875979	-0.023541	0.005788	3.304301	1.000000	-0.000011	0.000050	-0.000070	0.676240	-10.876894	-178.541308
51646	2.481463	0.127016	12.852006	-0.012862	0.024433	3.277274	1.000000	-0.000005	0.000048	-0.000058	0.676908	-10.871341	-178.548042
51647	2.480357	0.127584	12.852214	-0.012809	0.024318	3.277274	1.000000	0.000023	0.000037	-0.000081	0.680746	-10.867224	-178.557346
51648	2.460500	0.145685	12.900617	0.015164	0.008135	3.321273	1.000000	-0.000001	0.000046	-0.000070	0.682114	-10.861839	-178.565424
51649	2.512188	0.130959	12.877486	-0.041553	0.021434	3.308124	1.000000	0.000009	0.000048	-0.000064	0.683786	-10.856425	-178.572684
51650	2.458342	0.145902	12.876678	0.010283	0.008112	3.297362	1.000000	-0.000005	0.000048	-0.000058	0.684448	-10.850871	-178.579416
51651	2.473812	0.163703	12.852324	-0.010163	-0.010462	3.276567	1.000000	-0.000001	0.000046	-0.000070	0.684930	-10.845872	-178.587330
51652	2.475827	0.095935	12.878542	-0.010240	0.058261	3.301895	1.000000	0.000022	0.000043	-0.000075	0.689141	-10.840870	-178.596050
51653	2.490041	0.147968	12.828954	-0.033079	0.005318	3.256480	1.000000	-0.000011	0.000038	-0.000081	0.688413	-10.836901	-178.605261
51654	2.506322	0.132804	12.878610	-0.041331	0.020967	3.308126	1.000000	-0.000011	0.000050	-0.000070	0.688629	-10.831074	-178.613347
51655	2.470773	0.131091	12.878369	-0.007361	0.023273	3.301187	1.000000	-0.000009	0.000032	-0.000064	0.687682	-10.828391	-178.620531
51656	2.451672	0.147756	12.877929	0.010752	0.007357	3.297362	1.000000	0.000009	0.000042	-0.000070	0.690182	-10.823442	-178.628594
51657	2.484988	0.149986	12.878598	-0.022745	0.004431	3.304302	1.000000	-0.000001	0.000046	-0.000070	0.690047	-10.819002	-178.636403
51658	2.485567	0.115825	12.879626	-0.025249	0.038861	3.305014	1.000000	-0.000001	0.000046	-0.000070	0.691404	-10.813612	-178.644477
51659	2.482566	0.150606	12.879058	-0.022457	0.003951	3.304303	1.000000	-0.000001	0.000046	-0.000070	0.690573	-10.809424	-178.652177
51660	2.481879	0.150178	12.854853	-0.027390	0.004086	3.280393	1.000000	-0.000013	0.000033	-0.000052	0.690223	-10.805514	-178.658245
51661	2.480886	0.150424	12.855041	-0.026945	0.003770	3.280394	1.000000	0.000009	0.000042	-0.000070	0.691268	-10.802493	-178.665988
51662	2.497708	0.134535	12.855925	-0.045056	0.019686	3.284221	1.000000	-0.000004	0.000059	-0.000081	0.692602	-10.795676	-178.675406
51663	2.477783	0.151940	12.879964	-0.021550	0.003117	3.304305	1.000000	0.000018	0.000050	-0.000058	0.693597	-10.791793	-178.681761
51664	2.476521	0.152474	12.880200	-0.021550	0.003113	3.304305	1.000000	-0.000001	0.000046	-0.000070	0.694925	-10.786401	-178.689825
51665	2.493825	0.135917	12.856664	-0.043847	0.018608	3.284227	1.000000	-0.000001	0.000046	-0.000070	0.693702	-10.784232	-178.697260
51666	2.457829	0.134872	12.880807	-0.005190	0.021062	3.301192	1.000000	-0.000005	0.000042	-0.000064	0.694463	-10.779339	-178.704657
51667	2.491552	0.136458	12.857099	-0.043264	0.018148	3.284230	1.000000	0.000005	0.000044	-0.000058	0.694151	-10.776719	-178.711070
51668	2.471858	0.153945	12.881078	-0.020215	0.002088	3.304307	1.000000	0.000016	0.000045	-0.000087	0.697877	-10.771436	-178.721129
51669	2.455077	0.135190	12.832651	-0.013411	0.020120	3.253376	1.000000	-0.000005	0.000048	-0.000058	0.694984	-10.770516	-178.726971
51670	2.487548	0.138285	12.882192	-0.037247	0.017230	3.308143	1.000000	-0.000005	0.000048	-0.000058	0.695566	-10.764992	-178.733676
51671	2.486263	0.138578	12.882437	-0.035867	0.016737	3.308148	1.000000	0.000002	0.000050	-0.000075	0.695120	-10.765178	-178.741247
51672	2.466890	0.155187	12.882016	-0.017725	0.000806	3.304311	1.000000	-0.000005	0.000042	-0.000064	0.695816	-10.760414	-178.748621
51673	2.502886	0.121866	12.834719	-0.062514	0.032347	3.264176	1.000000	0.000008	0.000042	-0.000070	0.695624	-10.761197	-178.755623
51674	2.464982	0.155556	12.858040	-0.021310	0.000361	3.280405	1.000000	0.000008	0.000048	-0.000064	0.697897	-10.755744	-178.762977
51675	2.482046	0.139631	12.858903	-0.037834	0.015519	3.284250	1.000000	-0.000005	0.000036	-0.000070	0.695248	-10.758465	-178.769907
51676	2.462622	0.156263	12.858483	-0.019665	-0.000416	3.280407	1.000000	0.000008	0.000060	-0.000052	0.697212	-10.751768	-178.775896
51677	2.478568	0.141324	12.908224	-0.025600	0.013871	3.332071	1.000000	-0.000012	0.000050	-0.000070	0.691161	-10.755881	-178.782330
51678	2.460554	0.156358	12.834543	-0.022256	-0.001641	3.256504	1.000000	0.000015	0.000028	-0.000069	0.694171	-10.752888	-178.790316
51679	2.494948	0.125313	12.884895	-0.046606	0.029309	3.312021	1.000000	-0.000008	0.000060	-0.000070	0.691944	-10.754620	-178.796729
51680	2.458000	0.157203	12.835022	-0.020168	-0.002273	3.256507	1.000000	0.000012	0.000047	-0.000075	0.694737	-10.749710	-178.805363
51681	2.474486	0.141949	12.860335	-0.031315	0.012538	3.284270	1.000000	-0.000002	0.000052	-0.000064	0.691448	-10.752439	-178.811375
51682	2.491435	0.126089	12.861237	-0.049279	0.028391	3.288126	1.000000	0.000008	0.000042	-0.000070	0.693635	-10.748112	-178.819327
51683	2.490172	0.126459	12.861478	-0.048004	0.027076	3.288134	1.000000	-0.000008	0.000054	-0.000076	0.688355	-10.747198	-178.828362
51684	2.470937	0.143038	12.861005	-0.029758	0.011092	3.284275	1.000000	0.000007	0.000026	-0.000052	0.689947	-10.744764	-178.834284
51685	2.488232	0.127266	12.861845	-0.046556	0.026011	3.288141	1.000000	0.000008	0.000042	-0.000070	0.687839	-10.745433	-178.842139
51686	2.486913	0.127699	12.862096	-0.046421	0.025934	3.288142	1.000000	-0.000004	0.000059	-0.000081	0.688782	-10.739187	-178.851418
51687	2.466829	0.144912	12.886102	-0.021853	0.008753	3.308186	1.000000	0.000008	0.000054	-0.000058	0.685852	-10.739338	-178.857763
51688	2.484192	0.128439	12.862614	-0.044792	0.024737	3.288150	1.000000	-0.000005	0.000042	-0.000064	0.686216	-10.735019	-178.865018
51689	2.481102	0.163335	12.862027	-0.039909	-0.011176	3.287411	1.000000	0.000012	0.000047	-0.000075	0.682350	-10.739908	-178.872311
51690	2.481496	0.129980	12.887447	-0.037291	0.022992	3.312063	1.000000	0.000005	0.000038	-0.000064	0.683786	-10.736099	-178.879527
51691	2.480770	0.129672	12.863263	-0.040468	0.020680	3.288171	1.000000	-0.000012	0.000050	-0.000070	0.672617	-10.737911	-178.889151
51692	2.479666	0.130041	12.863472	-0.040311	0.020540	3.288172	1.000000	0.000015	0.000034	-0.000064	0.675023	-10.734559	-178.896290
51693	2.476278	0.165675	12.887255	-0.029073	-0.015142	3.311323	1.000000	0.000008	0.000042	-0.000070	0.672294	-10.746113	-178.899083
51694	2.495580	0.114897	12.864593	-0.054464	0.035216	3.292070	1.000000	0.000002	0.000056	-0.000070	0.673364	-10.740411	-178.906893
51695	2.474072	0.165956	12.863348	-0.030350	-0.016171	3.287431	1.000000	-0.000002	0.000046	-0.000070	0.669644	-10.750478	-178.910489
51696	2.492986	0.115426	12.865091	-0.050710	0.034004	3.292088	1.000000	-0.000012	0.000050	-0.000070	0.669074	-10.745727	-178.918297
51697	2.474031	0.131309	12.840219	-0.036903	0.017079	3.264302	1.000000	-0.000002	0.000040	-0.000075	0.665099	-10.743904	-178.929604
51698	2.488173	0.151121	12.889143	-0.042275	-0.001959	3.315224	1.000000	0.000012	0.000053	-0.000070	0.667158	-10.738852	-178.937345
51699	2.471179	0.133083	12.865074	-0.030307	0.015246	3.288206	1.000000	0.000018	0.000039	-0.000069	0.663920	-10.740191	-178.947025
51700	2.486334	0.151756	12.865167	-0.045649	-0.003475	3.291331	1.000000	-0.000012	0.000044	-0.000076	0.663291	-10.736141	-178.955437
51701	2.487184	0.117614	12.866194	-0.043507	0.030619	3.292122	1.000000	0.000008	0.000042	-0.000069	0.663903	-10.751757	-178.955161
51702	2.467748	0.134143	12.865721	-0.025078	0.014506	3.288218	1.000000	-0.000012	0.000050	-0.000070	0.663127	-10.747331	-178.962896
51703	2.500945	0.136518	12.866559	-0.057389	0.012037	3.295260	1.000000	0.000012	0.000047	-0.000075	0.666656	-10.748097	-178.969752
51704	2.465724	0.134448	12.841785	-0.028337	0.014617	3.264326	1.000000	-0.000002	0.000046	-0.000070	0.667011	-10.744244	-178.977469
51705	2.480669	0.152972	12.841925	-0.041511	-0.006098	3.267465	1.000000	-0.000002	0.000052	-0.000064	0.658097	-10.748625	-178.985444
51706	2.446006	0.117869	12.891179	0.000061	0.030356	3.308990	1.000000	-0.000002	0.000046	-0.000070	0.658356	-10.744779	-178.993126
51707	2.479629	0.119552	12.867634	-0.033598	0.027155	3.292159	1.000000	-0.000006	0.000054	-0.000052	0.655019	-10.760865	-178.990289
51708	2.494492	0.138068	12.867796	-0.048767	0.008401	3.295297	1.000000	0.000002	0.000051	-0.000075	0.655822	-10.756801	-178.998632
51709	2.493602	0.138674	12.867961	-0.045116	0.007645	3.295311	1.000000	0.000015	0.000017	-0.000081	0.655586	-10.770931	-179.002484
51710	2.474325	0.155263	12.867440	-0.026529	-0.008500	3.291382	1.000000	-0.000012	0.000062	-0.000058	0.654351	-10.765864	-179.008805
51711	2.475341	0.120573	12.844133	-0.029508	0.024569	3.268296	1.000000	0.000012	0.000053	-0.000069	0.649960	-10.779818	-179.010973
51712	2.455300	0.137910	12.868063	-0.005838	0.008230	3.288246	1.000000	0.000008	0.000048	-0.000064	0.651095	-10.776494	-179.017921
51713	2.489077	0.139844	12.844509	-0.041234	0.003953	3.271454	1.000000	-0.000002	0.000040	-0.000075	0.644008	-10.786362	-179.024940
51714	2.469206	0.156905	12.868403	-0.017522	-0.012409	3.291394	1.000000	-0.000002	0.000046	-0.000070	0.644043	-10.783420	-179.032544
51715	2.486352	0.141074	12.869338	-0.032015	0.000896	3.295352	1.000000	0.000004	0.000038	-0.000064	0.633989	-10.794641	-179.040330
51716	2.469573	0.122946	12.845221	-0.020890	0.019313	3.268322	1.000000	0.000022	0.000043	-0.000075	0.636748	-10.792177	-179.048524
51717	2.486130	0.107795	12.870583	-0.032753	0.033297	3.296172	1.000000	-0.000012	0.000050	-0.000070	0.629053	-10.791380	-179.061271
51718	2.483034	0.142630	12.869962	-0.029652	-0.001452	3.295357	1.000000	0.000015	0.000029	-0.000069	0.630738	-10.790575	-179.068776
51719	2.482024	0.143251	12.870150	-0.027294	-0.002691	3.295362	1.000000	0.000008	0.000048	-0.000064	0.627310	-10.795233	-179.075132
51720	2.464670	0.125404	12.870452	-0.011101	0.015499	3.292216	1.000000	-0.000002	0.000040	-0.000075	0.627214	-10.793129	-179.083314
51721	2.497916	0.127797	12.871336	-0.041867	0.011468	3.299343	1.000000	-0.000002	0.000052	-0.000064	0.621864	-10.799802	-179.088422
51722	2.477860	0.144806	12.895247	-0.018076	-0.004982	3.319251	1.000000	-0.000002	0.000046	-0.000070	0.621574	-10.797121	-179.095909
51723	2.495517	0.128638	12.871793	-0.036562	0.007234	3.299361	1.000000	0.000018	0.000039	-0.000069	0.607315	-10.812918	-179.106662
51724	2.476688	0.144752	12.846849	-0.022882	-0.008848	3.271496	1.000000	-0.000006	0.000042	-0.000064	0.606252	-10.810894	-179.113407
51725	2.493829	0.128896	12.847808	-0.037339	0.004512	3.275496	1.000000	0.000002	0.000045	-0.000081	0.596576	-10.821464	-179.123060
51726	2.474191	0.145330	12.847323	-0.018572	-0.011804	3.271501	1.000000	-0.000006	0.000060	-0.000047	0.594989	-10.817504	-179.127742
51727	2.491736	0.128755	12.823906	-0.038514	0.002753	3.251631	1.000000	-0.000006	0.000036	-0.000070	0.588624	-10.827451	-179.133129
51728	2.489651	0.130183	12.872914	-0.027633	0.001879	3.299385	1.000000	0.000002	0.000045	-0.000081	0.588650	-10.825252	-179.141816
51729	2.472805	0.111718	12.848808	-0.015574	0.020409	3.272360	1.000000	-0.000002	0.000046	-0.000070	0.588841	-10.826821	-179.147479
51730	2.487164	0.131033	12.873386	-0.025336	0.001221	3.299390	1.000000	0.000012	0.000053	-0.000069	0.589697	-10.823840	-179.154789
51731	2.467553	0.147772	12.872881	-0.004482	-0.016311	3.295380	1.000000	0.000008	0.000048	-0.000064	0.584483	-10.830236	-179.161308
51732	2.484550	0.132091	12.873880	-0.021834	-0.000867	3.299396	1.000000	0.000002	0.000051	-0.000075	0.584276	-10.827533	-179.169287
51733	2.464937	0.148470	12.873374	-0.001379	-0.019391	3.295376	1.000000	-0.000012	0.000050	-0.000070	0.572407	-10.832007	-179.184371
51734	2.482630	0.131893	12.849946	-0.023810	-0.003752	3.275528	1.000000	-0.000006	0.000036	-0.000070	0.571047	-10.831079	-179.191631
51735	2.481061	0.133010	12.874543	-0.017270	-0.004891	3.299402	1.000000	0.000022	0.000043	-0.000075	0.571017	-10.832296	-179.201446
51736	2.446026	0.130844	12.849648	0.012059	-0.002530	3.268347	1.000000	-0.000006	0.000042	-0.000064	0.569469	-10.830743	-179.208015
51737	2.495011	0.152121	12.874899	-0.029286	-0.024114	3.302564	1.000000	-0.000002	0.000041	-0.000075	0.569898	-10.838302	-179.208440
51738	2.480367	0.099185	12.851605	-0.020534	0.028576	3.276414	1.000000	0.000002	0.000051	-0.000075	0.569480	-10.835855	-179.216343
51739	2.477013	0.134007	12.851008	-0.014663	-0.007421	3.275540	1.000000	-0.000002	0.000041	-0.000075	0.563631	-10.845875	-179.221610
51740	2.475309	0.134978	12.875630	-0.008716	-0.008174	3.299409	1.000000	0.000008	0.000048	-0.000064	0.563588	-10.843814	-179.228132
51741	2.490993	0.152983	12.851364	-0.026869	-0.027263	3.278704	1.000000	-0.000013	0.000028	-0.000058	0.559603	-10.851807	-179.230653
51742	2.475473	0.100755	12.876837	-0.007822	0.024929	3.300298	1.000000	-0.000012	0.000050	-0.000070	0.557371	-10.849657	-179.237867
51743	2.472054	0.135608	12.876248	-0.001592	-0.010499	3.299410	1.000000	0.000018	0.000045	-0.000063	0.556067	-10.860856	-179.237486
51744	2.471468	0.135531	12.852060	-0.005838	-0.010791	3.275544	1.000000	-0.000006	0.000042	-0.000064	0.554362	-10.859838	-179.243998
51745	2.486507	0.154296	12.852217	-0.018524	-0.030776	3.278711	1.000000	0.000012	0.000041	-0.000081	0.550807	-10.867675	-179.250867
51746	2.469186	0.136337	12.852490	-0.002040	-0.012788	3.275544	1.000000	-0.000012	0.000050	-0.000070	0.548459	-10.865809	-179.258041
51747	2.485112	0.121597	12.902317	-0.008247	0.001815	3.327338	1.000000	0.000008	0.000048	-0.000064	0.547140	-10.867029	-179.264575
51748	2.482808	0.155240	12.852921	-0.015124	-0.032661	3.278711	1.000000	-0.000012	0.000044	-0.000075	0.544926	-10.865819	-179.272419
51749	2.483977	0.121360	12.853940	-0.014558	0.000685	3.279617	1.000000	0.000028	0.000035	-0.000069	0.544633	-10.875275	-179.275211
51750	2.464450	0.138190	12.853379	0.004467	-0.015760	3.275540	1.000000	0.000002	0.000057	-0.000070	0.543788	-10.872803	-179.282336
51751	2.479349	0.156823	12.853569	-0.009549	-0.033990	3.278713	1.000000	-0.000006	0.000036	-0.000070	0.545967	-10.875444	-179.283859
51752	2.480491	0.122623	12.854601	-0.011110	-0.000123	3.279621	1.000000	-0.000002	0.000046	-0.000070	0.544724	-10.874216	-179.291000
51753	2.476405	0.157892	12.878422	-0.001301	-0.034815	3.302573	1.000000	-0.000002	0.000052	-0.000064	0.545685	-10.877486	-179.291245
51754	2.495633	0.107691	12.880295	-0.020935	0.014935	3.307569	1.000000	0.000002	0.000051	-0.000075	0.545015	-10.875830	-179.299057
51755	2.476721	0.123736	12.855318	-0.005498	-0.003464	3.279624	1.000000	0.000008	0.000037	-0.000075	0.534965	-10.882496	-179.314577
51756	2.475689	0.124108	12.855513	-0.004504	-0.004046	3.279624	1.000000	-0.000006	0.000042	-0.000064	0.533041	-10.881921	-179.321010
51757	2.471753	0.159456	12.879296	0.006094	-0.040101	3.302556	1.000000	0.000008	0.000043	-0.000069	0.529169	-10.889618	-179.325863
51758	2.488802	0.143837	12.880339	-0.010979	-0.024812	3.306658	1.000000	0.000002	0.000057	-0.000070	0.528178	-10.887439	-179.332935
51759	2.453734	0.141111	12.855397	0.020174	-0.022342	3.275516	1.000000	-0.000020	0.000036	-0.000064	0.525177	-10.895089	-179.332522
51760	2.486564	0.144119	12.880768	-0.007255	-0.025861	3.306658	1.000000	0.000008	0.000043	-0.000069	0.524919	-10.894577	-179.339587
51761	2.504388	0.128042	12.857380	-0.028385	-0.009731	3.286919	1.000000	0.000008	0.000043	-0.000069	0.527226	-10.899038	-179.339410
51762	2.484923	0.144476	12.856787	-0.009263	-0.026192	3.282805	1.000000	-0.000006	0.000042	-0.000064	0.525287	-10.898645	-179.345837
51763	2.483708	0.144767	12.857019	-0.008227	-0.026259	3.282806	1.000000	0.000002	0.000051	-0.000075	0.526795	-10.897263	-179.352072
51764	2.466414	0.126686	12.857270	0.008360	-0.008294	3.279620	1.000000	-0.000006	0.000042	-0.000064	0.524874	-10.896857	-179.358505
51765	2.481750	0.145008	12.833103	-0.010968	-0.027330	3.258952	1.000000	0.000021	0.000061	-0.000058	0.525114	-10.896059	-179.365340
51766	2.479465	0.146701	12.882107	0.000476	-0.028449	3.306655	1.000000	0.000001	0.000022	-0.000069	0.524047	-10.897931	-179.372431
51767	2.463592	0.127294	12.833515	0.006698	-0.010417	3.255765	1.000000	-0.000022	0.000054	-0.000070	0.518260	-10.896348	-179.384204
51768	2.477873	0.146396	12.858126	-0.002613	-0.029827	3.282800	1.000000	0.000008	0.000037	-0.000075	0.518124	-10.896557	-179.391935
51769	2.495306	0.130966	12.859116	-0.019642	-0.014195	3.286931	1.000000	0.000014	0.000035	-0.000063	0.520010	-10.897127	-179.398139
51770	2.494359	0.131326	12.859297	-0.018603	-0.014790	3.286932	1.000000	-0.000010	0.000038	-0.000058	0.517472	-10.897244	-179.403887
51771	2.474825	0.147606	12.858699	0.002285	-0.031362	3.282797	1.000000	0.000002	0.000051	-0.000075	0.516045	-10.903660	-179.406578
51772	2.457550	0.129506	12.858940	0.018892	-0.013411	3.279605	1.000000	-0.000006	0.000042	-0.000064	0.514047	-10.903358	-179.412983
51773	2.490700	0.132117	12.859998	-0.013076	-0.016992	3.286936	1.000000	0.000001	0.000057	-0.000069	0.511603	-10.904074	-179.421198
51774	2.488787	0.133129	12.884644	-0.006787	-0.017874	3.310783	1.000000	0.000008	0.000043	-0.000069	0.511277	-10.903736	-179.428237
51775	2.470033	0.149124	12.859603	0.007459	-0.034175	3.282788	1.000000	0.000004	0.000033	-0.000069	0.510047	-10.906024	-179.436729
51776	2.487382	0.133453	12.860626	-0.009548	-0.018915	3.286936	1.000000	-0.000002	0.000046	-0.000069	0.508545	-10.905298	-179.443777
51777	2.486299	0.133694	12.860833	-0.007618	-0.019240	3.286937	1.000000	-0.000006	0.000036	-0.000069	0.507879	-10.909520	-179.447397
51778	2.484516	0.134467	12.885454	-0.001302	-0.020131	3.310781	1.000000	-0.000002	0.000052	-0.000064	0.506237	-10.908160	-179.453772
51779	2.466087	0.149677	12.836068	0.007688	-0.035830	3.258934	1.000000	-0.000002	0.000046	-0.000069	0.505691	-10.908822	-179.460590
51780	2.501238	0.118418	12.862326	-0.022147	-0.004987	3.291096	1.000000	-0.000006	0.000030	-0.000075	0.503912	-10.910000	-179.468318
51781	2.481882	0.134834	12.861674	-0.002132	-0.022343	3.286934	1.000000	0.000008	0.000043	-0.000069	0.499565	-10.913476	-179.478682
51782	2.480569	0.135678	12.861919	-0.001032	-0.022970	3.286933	1.000000	0.000029	0.000058	-0.000081	0.501814	-10.911558	-179.486984
51783	2.478653	0.136765	12.886559	0.006438	-0.023400	3.310774	1.000000	-0.000016	0.000040	-0.000070	0.500794	-10.916657	-179.488838
51784	2.478777	0.135703	12.837981	-0.002947	-0.023453	3.263090	1.000000	-0.000006	0.000048	-0.000058	0.498530	-10.915939	-179.494526
51785	2.495416	0.120506	12.863438	-0.013835	-0.009503	3.291105	1.000000	0.000004	0.000038	-0.000064	0.492981	-10.919960	-179.505200
51786	2.473515	0.171309	12.861971	0.007904	-0.060430	3.285947	1.000000	-0.000002	0.000047	-0.000069	0.491351	-10.919462	-179.512201
51787	2.474601	0.137334	12.863051	0.006358	-0.026570	3.286925	1.000000	0.000011	0.000053	-0.000069	0.491636	-10.917613	-179.521162
51788	2.492337	0.121350	12.839748	-0.015857	-0.011051	3.267268	1.000000	0.000008	0.000049	-0.000064	0.491001	-10.916858	-179.527467
51789	2.455969	0.119749	12.863530	0.025096	-0.009692	3.283717	1.000000	-0.000012	0.000050	-0.000070	0.486407	-10.920101	-179.534847
51790	2.470297	0.139088	12.888139	0.015948	-0.029190	3.310755	1.000000	0.000014	0.000029	-0.000069	0.486620	-10.921645	-179.541805
51791	2.488380	0.123033	12.864777	-0.006074	-0.013180	3.291108	1.000000	-0.000002	0.000047	-0.000069	0.487164	-10.922011	-179.547034
51792	2.468727	0.139240	12.864159	0.013132	-0.029692	3.286913	1.000000	-0.000006	0.000048	-0.000058	0.484803	-10.921365	-179.552687
51793	2.483604	0.157945	12.864392	-0.000507	-0.049291	3.290113	1.000000	0.000004	0.000038	-0.000064	0.481908	-10.925209	-179.560080
51794	2.466608	0.140004	12.864557	0.016170	-0.031390	3.286906	1.000000	0.000008	0.000037	-0.000075	0.481510	-10.925851	-179.567712
51795	2.484548	0.123954	12.841233	-0.006863	-0.016315	3.267270	1.000000	0.000001	0.000051	-0.000075	0.478412	-10.921264	-179.583355
51796	2.501099	0.108796	12.866724	-0.018536	-0.001413	3.295309	1.000000	-0.000006	0.000042	-0.000064	0.476134	-10.921256	-179.589659
51797	2.494943	0.177927	12.865296	-0.012448	-0.070683	3.293307	1.000000	0.000001	0.000057	-0.000069	0.475843	-10.919163	-179.597624
51798	2.462320	0.140950	12.841092	0.014475	-0.033932	3.263060	1.000000	0.000008	0.000043	-0.000069	0.475265	-10.919073	-179.604571
51799	2.479047	0.125878	12.866551	0.002269	-0.018721	3.291102	1.000000	-0.000006	0.000036	-0.000069	0.474540	-10.917364	-179.613880
51800	2.462023	0.107793	12.866718	0.018927	-0.000829	3.287895	1.000000	0.000008	0.000043	-0.000069	0.473959	-10.917254	-179.620826
51801	2.511327	0.129067	12.867857	-0.028147	-0.021818	3.298525	1.000000	-0.000006	0.000042	-0.000064	0.475754	-10.921498	-179.620634
51802	2.441995	0.123786	12.841877	0.034912	-0.016783	3.259840	1.000000	-0.000002	0.000047	-0.000069	0.474048	-10.921010	-179.627608
51803	2.509663	0.129082	12.843910	-0.030439	-0.021739	3.274700	1.000000	0.000004	0.000044	-0.000058	0.477654	-10.924090	-179.626475
51804	2.471027	0.162049	12.866763	0.012138	-0.054416	3.290087	1.000000	0.000008	0.000037	-0.000075	0.477277	-10.924726	-179.634113
51805	2.472532	0.128001	12.867784	0.010787	-0.021244	3.291094	1.000000	-0.000006	0.000036	-0.000069	0.472504	-10.925654	-179.646066
51806	2.471495	0.128365	12.867979	0.011920	-0.021901	3.291092	1.000000	0.000008	0.000043	-0.000069	0.471941	-10.925617	-179.653017
51807	2.452516	0.144061	12.842933	0.025428	-0.037737	3.263032	1.000000	-0.000012	0.000050	-0.000070	0.470742	-10.923011	-179.661049
51808	2.487517	0.112966	12.869321	-0.004279	-0.006985	3.295320	1.000000	0.000008	0.000043	-0.000069	0.470178	-10.922976	-179.668000
51809	2.483861	0.147803	12.868702	-0.000777	-0.041830	3.294301	1.000000	-0.000002	0.000047	-0.000069	0.469498	-10.921777	-179.676110
51810	2.466652	0.129726	12.868895	0.015888	-0.023931	3.291084	1.000000	0.000007	0.000049	-0.000063	0.468784	-10.921064	-179.682385
51811	2.499312	0.133268	12.894421	-0.011235	-0.027280	3.322363	1.000000	0.000004	0.000033	-0.000069	0.469245	-10.922378	-179.689149
51812	2.481154	0.148554	12.844946	-0.002654	-0.043166	3.270468	1.000000	0.000001	0.000051	-0.000075	0.468081	-10.921409	-179.696781
51813	2.463120	0.131062	12.869558	0.020042	-0.025289	3.291076	1.000000	0.000007	0.000055	-0.000058	0.468507	-10.923212	-179.700260
51814	2.477917	0.149921	12.869823	0.005649	-0.044508	3.294291	1.000000	0.000000	0.000034	-0.000058	0.466827	-10.924206	-179.705882
51815	2.476933	0.150221	12.870009	0.005883	-0.044676	3.294290	1.000000	-0.000002	0.000041	-0.000075	0.467467	-10.920456	-179.715772
51816	2.475893	0.150584	12.870205	0.007014	-0.045334	3.294287	1.000000	0.000004	0.000039	-0.000063	0.466348	-10.920912	-179.722059
51817	2.478701	0.115526	12.822468	-0.004911	-0.010921	3.247667	1.000000	0.000007	0.000049	-0.000063	0.465665	-10.920761	-179.729515
51818	2.474163	0.150950	12.846267	0.004079	-0.046320	3.270457	1.000000	0.000001	0.000051	-0.000075	0.464493	-10.919787	-179.737143
51819	2.455666	0.134088	12.895217	0.031943	-0.028815	3.314881	1.000000	0.000014	0.000035	-0.000063	0.465615	-10.923101	-179.742339
51820	2.455980	0.133529	12.846631	0.022421	-0.028827	3.267231	1.000000	0.000001	0.000051	-0.000075	0.464439	-10.922143	-179.749965
51821	2.487635	0.137399	12.896635	0.000004	-0.033093	3.322354	1.000000	-0.000013	0.000050	-0.000070	0.460443	-10.918558	-179.761504
51822	2.488436	0.136007	12.823705	-0.014862	-0.032777	3.250885	1.000000	0.000007	0.000055	-0.000058	0.459543	-10.917176	-179.767093
51823	2.485744	0.137492	12.872736	-0.003208	-0.033790	3.298530	1.000000	-0.000002	0.000041	-0.000075	0.459319	-10.916744	-179.775495
51824	2.484591	0.137979	12.872953	-0.002081	-0.034457	3.298528	1.000000	0.000011	0.000047	-0.000075	0.459265	-10.916181	-179.783090
51825	2.468216	0.119527	12.848715	0.009711	-0.015457	3.271484	1.000000	0.000008	0.000043	-0.000069	0.462119	-10.918222	-179.786886
51826	2.481639	0.139487	12.897768	0.005996	-0.035342	3.322347	1.000000	-0.000006	0.000036	-0.000069	0.459974	-10.918921	-179.793858
51827	2.482045	0.138514	12.849178	-0.003014	-0.035543	3.274705	1.000000	-0.000012	0.000044	-0.000075	0.456315	-10.921084	-179.802518
51828	2.445624	0.136962	12.872833	0.037060	-0.033835	3.291020	1.000000	0.000027	0.000053	-0.000052	0.457559	-10.919919	-179.807388
51829	2.479431	0.139503	12.849672	-0.000629	-0.036555	3.274702	1.000000	-0.000013	0.000050	-0.000070	0.456080	-10.919566	-179.813685
51830	2.478101	0.139904	12.849924	0.000507	-0.037222	3.274700	1.000000	0.000015	0.000052	-0.000081	0.456572	-10.918549	-179.821939
51831	2.476213	0.140744	12.874538	0.007423	-0.039040	3.298513	1.000000	-0.000020	0.000036	-0.000064	0.449031	-10.921238	-179.831164
51832	2.494432	0.124468	12.851260	-0.014853	-0.023525	3.278981	1.000000	0.000007	0.000043	-0.000069	0.448372	-10.921250	-179.838078
51833	2.489166	0.160386	12.899425	0.005912	-0.022603	3.325665	1.000000	-0.000003	0.000047	-0.000069	0.610244	-10.946767	-178.443821
51834	2.472763	0.141707	12.875190	0.016801	-0.003866	3.298562	1.000000	0.000007	0.000049	-0.000063	0.610813	-10.946325	-178.443228
51835	2.490855	0.125673	12.851942	-0.006745	0.011500	3.279004	1.000000	-0.000002	0.000041	-0.000075	0.611340	-10.942779	-178.447143
51836	2.451792	0.158528	12.874722	0.036746	-0.019790	3.294301	1.000000	0.000015	0.000057	-0.000075	0.613011	-10.941327	-178.447870
51837	2.504065	0.145120	12.852532	-0.019687	-0.007738	3.282294	1.000000	-0.000013	0.000050	-0.000070	0.613165	-10.939446	-178.455705
51838	2.467759	0.143121	12.876135	0.020404	-0.004680	3.298557	1.000000	-0.000006	0.000036	-0.000069	0.612326	-10.940407	-178.455820
51839	2.484426	0.128014	12.901671	0.007626	0.009719	3.326632	1.000000	-0.000003	0.000047	-0.000069	0.609666	-10.936190	-178.442291
51840	2.466261	0.143207	12.852165	0.016526	-0.005734	3.274741	1.000000	0.000007	0.000043	-0.000069	0.610378	-10.936409	-178.442371
51841	2.464371	0.144284	12.876770	0.023762	-0.006227	3.298550	1.000000	0.000007	0.000043	-0.000069	0.610933	-10.939447	-178.441322
51842	2.498367	0.147000	12.853620	-0.013922	-0.009992	3.282300	1.000000	0.000011	0.000047	-0.000075	0.612195	-10.939162	-178.442061
51843	2.481337	0.129103	12.853749	0.001597	0.009933	3.279007	1.000000	0.000014	0.000041	-0.000057	0.619281	-10.936656	-178.470956
51844	2.462385	0.144941	12.828635	0.015868	-0.005659	3.250924	1.000000	0.000001	0.000051	-0.000075	0.619392	-10.935943	-178.471716
51845	2.497644	0.113921	12.855116	-0.015260	0.024152	3.283281	1.000000	-0.000014	0.000028	-0.000058	0.615367	-10.934402	-178.457491
51846	2.477229	0.130483	12.878778	0.009806	0.008290	3.302817	1.000000	0.000001	0.000057	-0.000069	0.615327	-10.933025	-178.457576
51847	2.491792	0.149321	12.879120	-0.004315	-0.010588	3.306113	1.000000	-0.000009	0.000043	-0.000087	0.616490	-10.931947	-178.468884
51848	2.493361	0.115167	12.880185	-0.006556	0.023412	3.307095	1.000000	-0.000003	0.000041	-0.000075	0.616194	-10.932401	-178.469658
51849	2.474641	0.130852	12.855022	0.007484	0.008336	3.279006	1.000000	0.000004	0.000033	-0.000069	0.618780	-10.932823	-178.481753
51850	2.473632	0.131259	12.855212	0.008685	0.007997	3.279005	1.000000	0.000003	0.000044	-0.000058	0.618783	-10.932881	-178.480496
51851	2.487457	0.150751	12.879941	0.000144	-0.011598	3.306113	1.000000	0.000001	0.000051	-0.000075	0.618214	-10.931569	-178.477167
51852	2.471086	0.132091	12.855693	0.010956	0.007166	3.279004	1.000000	0.000007	0.000049	-0.000063	0.618767	-10.931122	-178.476569
51853	2.469095	0.133150	12.880313	0.017446	0.005721	3.302810	1.000000	0.000007	0.000043	-0.000069	0.615142	-10.930698	-178.451073
51854	2.483821	0.152247	12.880625	0.003650	-0.013593	3.306110	1.000000	0.000007	0.000043	-0.000069	0.615842	-10.930913	-178.451149
51855	2.516926	0.155234	12.881937	-0.028902	-0.016876	3.313706	1.000000	-0.000013	0.000056	-0.000064	0.617106	-10.928521	-178.467355
51856	2.485593	0.117198	12.833177	-0.008527	0.021008	3.259490	1.000000	0.000004	0.000039	-0.000063	0.617254	-10.929241	-178.466771
51857	2.497966	0.137877	12.906669	-0.005989	0.001090	3.334210	1.000000	0.000007	0.000043	-0.000069	0.617117	-10.929782	-178.461459
51858	2.498373	0.137302	12.858107	-0.015624	0.001023	3.286602	1.000000	0.000007	0.000049	-0.000063	0.617665	-10.929333	-178.460859
51859	2.480450	0.119606	12.882637	0.005880	0.019397	3.307102	1.000000	-0.000009	0.000049	-0.000081	0.616185	-10.928347	-178.458173
51860	2.495916	0.138233	12.858574	-0.013329	0.000207	3.286605	1.000000	0.000027	0.000041	-0.000063	0.619031	-10.928747	-178.457528
51861	2.494783	0.138956	12.858786	-0.011955	0.000763	3.286606	1.000000	0.000001	0.000045	-0.000081	0.623231	-10.929543	-178.483641
51862	2.477732	0.120644	12.858908	0.004237	0.019407	3.283297	1.000000	-0.000007	0.000048	-0.000058	0.622075	-10.929173	-178.482402
51863	2.473756	0.155243	12.858282	0.008737	-0.014964	3.282300	1.000000	-0.000003	0.000047	-0.000069	0.622991	-10.928094	-178.490470
51864	2.475300	0.121348	12.859369	0.006435	0.019031	3.283297	1.000000	0.000017	0.000045	-0.000063	0.624684	-10.928068	-178.489846
51865	2.473386	0.122473	12.883968	0.012700	0.018412	3.307098	1.000000	0.000004	0.000039	-0.000063	0.624233	-10.927152	-178.484806
51866	2.489656	0.140485	12.835523	-0.011951	-0.000646	3.262810	1.000000	0.000011	0.000053	-0.000069	0.625323	-10.926194	-178.484862
51867	2.486854	0.142221	12.884527	0.000096	-0.000976	3.310411	1.000000	0.000014	0.000035	-0.000063	0.627880	-10.927218	-178.492218
51868	2.452242	0.139239	12.859226	0.029333	0.002478	3.278978	1.000000	-0.000013	0.000045	-0.000075	0.626419	-10.927242	-178.493009
51869	2.484512	0.142830	12.884972	0.001996	-0.001758	3.310410	1.000000	0.000007	0.000055	-0.000058	0.626418	-10.923879	-178.488403
51870	2.468911	0.123546	12.836337	0.007279	0.017174	3.259497	1.000000	0.000001	0.000057	-0.000069	0.626355	-10.922494	-178.488480
51871	2.481824	0.143703	12.885480	0.004371	-0.002233	3.310410	1.000000	0.000007	0.000037	-0.000075	0.628114	-10.923228	-178.495207
51872	2.500121	0.127887	12.862291	-0.018377	0.012892	3.290937	1.000000	0.000007	0.000049	-0.000063	0.628650	-10.922774	-178.494603
51873	2.480258	0.144179	12.861538	0.001336	-0.002414	3.286612	1.000000	0.000007	0.000049	-0.000063	0.630799	-10.922386	-178.505214
51874	2.463200	0.126140	12.861646	0.017503	0.016250	3.283291	1.000000	0.000011	0.000047	-0.000075	0.632032	-10.922088	-178.505943
51875	2.476850	0.145742	12.886414	0.008633	-0.002849	3.310407	1.000000	-0.000003	0.000053	-0.000064	0.633181	-10.918778	-178.516223
51876	2.496717	0.128452	12.814478	-0.025040	0.012546	3.243352	1.000000	-0.000013	0.000045	-0.000075	0.631713	-10.918800	-178.517012
51877	2.477329	0.112023	12.887723	0.007240	0.030748	3.311417	1.000000	0.000027	0.000036	-0.000069	0.634494	-10.918732	-178.515840
51878	2.474163	0.146577	12.862685	0.006534	-0.003784	3.286610	1.000000	0.000001	0.000057	-0.000069	0.634422	-10.917345	-178.515915
51879	2.454291	0.162494	12.861922	0.026457	-0.019772	3.282270	1.000000	-0.000017	0.000040	-0.000070	0.630882	-10.918737	-178.507049
51880	2.490434	0.131048	12.864138	-0.009365	0.010513	3.290949	1.000000	-0.000003	0.000041	-0.000075	0.630561	-10.919182	-178.507814
51881	2.523677	0.134187	12.865504	-0.041907	0.006243	3.298619	1.000000	-0.000003	0.000047	-0.000069	0.629171	-10.917699	-178.501203
51882	2.469431	0.147487	12.863584	0.011274	-0.005688	3.286606	1.000000	0.000007	0.000049	-0.000063	0.629698	-10.917242	-178.500595
51883	2.490415	0.097134	12.841325	-0.015010	0.043830	3.268180	1.000000	-0.000003	0.000053	-0.000064	0.629481	-10.916752	-178.503972
51884	2.482612	0.166618	12.864219	-0.001164	-0.025297	3.289931	1.000000	-0.000013	0.000045	-0.000075	0.628007	-10.916773	-178.504759
51885	2.485172	0.131958	12.840916	-0.008552	0.009068	3.267162	1.000000	0.000007	0.000043	-0.000069	0.629717	-10.919076	-178.514447
51886	2.499639	0.151036	12.841309	-0.022283	-0.010299	3.270494	1.000000	0.000001	0.000057	-0.000069	0.629638	-10.917687	-178.514519
51887	2.482680	0.132718	12.841390	-0.006200	0.008256	3.267164	1.000000	-0.000000	0.000034	-0.000058	0.628640	-10.918679	-178.509827
51888	2.462184	0.149231	12.864953	0.019012	-0.007512	3.286596	1.000000	-0.000007	0.000042	-0.000064	0.627614	-10.918966	-178.509257
51889	2.480535	0.133213	12.841800	-0.003775	0.007644	3.267165	1.000000	0.000001	0.000045	-0.000081	0.628140	-10.919009	-178.513656
51890	2.496199	0.118897	12.891836	-0.010125	0.022320	3.319105	1.000000	-0.000003	0.000047	-0.000069	0.627660	-10.918788	-178.513744
51891	2.492840	0.152982	12.866835	-0.010847	-0.012552	3.294289	1.000000	-0.000003	0.000058	-0.000058	0.625365	-10.916987	-178.501786
51892	2.476719	0.134168	12.842526	-0.000224	0.006283	3.267166	1.000000	0.000007	0.000037	-0.000075	0.626186	-10.917852	-178.502524
51893	2.474687	0.134995	12.867136	0.006404	0.005512	3.290954	1.000000	-0.000013	0.000050	-0.000069	0.623233	-10.916875	-178.492696
51894	2.473644	0.135344	12.867333	0.007607	0.005173	3.290953	1.000000	0.000014	0.000029	-0.000069	0.624657	-10.918670	-178.492752
51895	2.473556	0.135356	12.843123	0.003254	0.004907	3.267167	1.000000	0.000001	0.000045	-0.000081	0.624607	-10.918353	-178.492456
51896	2.471460	0.136243	12.867743	0.009957	0.004434	3.290952	1.000000	-0.000003	0.000047	-0.000069	0.624123	-10.918131	-178.492543
51897	2.504592	0.139547	12.869176	-0.022352	0.000183	3.298668	1.000000	0.000007	0.000049	-0.000063	0.624122	-10.917332	-178.487955
51898	2.468914	0.136865	12.868225	0.012290	0.003640	3.290950	1.000000	-0.000013	0.000050	-0.000069	0.622485	-10.916687	-178.488065
51899	2.484281	0.155120	12.844241	-0.007104	-0.015643	3.270506	1.000000	-0.000003	0.000047	-0.000069	0.621941	-10.915570	-178.487458
51900	2.500953	0.140400	12.869874	-0.018942	-0.000864	3.298673	1.000000	0.000013	0.000035	-0.000063	0.623209	-10.916700	-178.486838
51901	2.466126	0.137385	12.844530	0.010271	0.002459	3.267164	1.000000	-0.000000	0.000069	-0.000058	0.621536	-10.914333	-178.475478
51902	2.482415	0.122610	12.870241	-0.001570	0.017233	3.295334	1.000000	0.000007	0.000043	-0.000069	0.622198	-10.914532	-178.475538
51903	2.482330	0.122544	12.846037	-0.005812	0.016540	3.271553	1.000000	0.000004	0.000033	-0.000069	0.620299	-10.916188	-178.457210
51904	2.496075	0.142224	12.870801	-0.013955	-0.003009	3.298679	1.000000	0.000007	0.000049	-0.000063	0.620807	-10.915724	-178.456596
51905	2.477082	0.157771	12.845599	0.000434	-0.018440	3.270504	1.000000	-0.000003	0.000047	-0.000069	0.620341	-10.916101	-178.457004
51906	2.477078	0.124609	12.895470	0.008974	0.015269	3.319116	1.000000	-0.000010	0.000038	-0.000058	0.618755	-10.916894	-178.455774
51907	2.476982	0.124464	12.871270	0.004736	0.014829	3.295336	1.000000	0.000017	0.000039	-0.000069	0.619515	-10.917862	-178.446753
51908	2.492547	0.143063	12.847257	-0.014438	-0.004468	3.274904	1.000000	-0.000007	0.000042	-0.000064	0.618475	-10.918146	-178.446179
51909	2.472735	0.159048	12.846420	0.005331	-0.020241	3.270500	1.000000	0.000001	0.000045	-0.000081	0.617720	-10.917992	-178.438974
51910	2.493198	0.109427	12.848575	-0.015785	0.028941	3.275964	1.000000	0.000007	0.000043	-0.000069	0.618375	-10.918188	-178.439033
51911	2.488992	0.144192	12.847934	-0.011149	-0.005591	3.274907	1.000000	-0.000003	0.000053	-0.000063	0.618276	-10.915968	-178.442545
51912	2.484905	0.146069	12.921353	0.006666	-0.006321	3.346240	1.000000	-0.000003	0.000047	-0.000069	0.617778	-10.915742	-178.442627
51913	2.470771	0.126007	12.848232	0.005993	0.013281	3.271557	1.000000	-0.000003	0.000047	-0.000069	0.619313	-10.915123	-178.461696
51914	2.483502	0.146197	12.897405	0.003440	-0.006416	3.322462	1.000000	0.000007	0.000037	-0.000075	0.620118	-10.915981	-178.462428
51915	2.468469	0.126752	12.848667	0.008334	0.012608	3.271556	1.000000	-0.000010	0.000055	-0.000075	0.619030	-10.914563	-178.463230
51916	2.500699	0.130650	12.874541	-0.018334	0.008242	3.303103	1.000000	0.000007	0.000037	-0.000075	0.619834	-10.915419	-178.463960
51917	2.481840	0.146121	12.849295	-0.004147	-0.007206	3.274910	1.000000	-0.000007	0.000048	-0.000058	0.618484	-10.914793	-178.461001
51918	2.481412	0.145806	12.825168	-0.008494	-0.007415	3.251136	1.000000	0.000000	0.000057	-0.000069	0.618373	-10.913393	-178.461064
51919	2.497872	0.130994	12.850875	-0.020571	0.007572	3.279334	1.000000	-0.000003	0.000041	-0.000075	0.619197	-10.912794	-178.473036
51920	2.461482	0.128797	12.874201	0.019594	0.011010	3.295326	1.000000	-0.000003	0.000041	-0.000075	0.618845	-10.913228	-178.473790
51921	2.479126	0.113468	12.875473	0.002192	0.025713	3.299753	1.000000	0.000003	0.000039	-0.000063	0.618263	-10.913857	-178.466877
51922	2.490541	0.166939	12.875026	-0.007642	-0.028042	3.302041	1.000000	0.000000	0.000057	-0.000069	0.618148	-10.912456	-178.466939
51923	2.493154	0.132320	12.851777	-0.015712	0.006075	3.279341	1.000000	-0.000003	0.000047	-0.000069	0.617746	-10.912512	-178.468506
51924	2.456580	0.130181	12.875123	0.024457	0.009536	3.295319	1.000000	0.000007	0.000049	-0.000063	0.618237	-10.912041	-178.467886
51925	2.489648	0.133479	12.876654	-0.007502	0.005371	3.303115	1.000000	-0.000013	0.000051	-0.000069	0.617021	-10.912456	-178.473796
51926	2.488518	0.133999	12.876867	-0.006297	0.005030	3.303116	1.000000	0.000027	0.000036	-0.000068	0.619969	-10.913488	-178.473799
51927	2.488322	0.133926	12.852697	-0.010655	0.004581	3.279347	1.000000	-0.000020	0.000053	-0.000081	0.616798	-10.912579	-178.465105
51928	2.487201	0.134091	12.852912	-0.009453	0.004240	3.279348	1.000000	0.000003	0.000033	-0.000069	0.617048	-10.913942	-178.465176
51929	2.465601	0.151159	12.900781	0.021849	-0.011695	3.322441	1.000000	-0.000001	0.000040	-0.000052	0.615654	-10.915974	-178.456376
51930	2.485155	0.134804	12.853300	-0.006704	0.003391	3.279350	1.000000	0.000007	0.000043	-0.000069	0.616293	-10.916164	-178.456429
51931	2.483186	0.135819	12.877877	0.000137	0.002884	3.303118	1.000000	0.000003	0.000033	-0.000069	0.616365	-10.917782	-178.454969
51932	2.484116	0.134969	12.829294	-0.009821	0.002801	3.255584	1.000000	-0.000013	0.000045	-0.000075	0.614851	-10.917793	-178.455745
51933	2.480188	0.136901	12.902649	0.008129	0.001853	3.326885	1.000000	0.000007	0.000032	-0.000080	0.614794	-10.919279	-178.446521
51934	2.462465	0.151629	12.852959	0.016782	-0.013383	3.274895	1.000000	-0.000021	0.000042	-0.000058	0.612036	-10.919647	-178.445311
51935	2.498658	0.120534	12.855392	-0.018862	0.016586	3.283812	1.000000	0.000010	0.000053	-0.000069	0.613046	-10.920368	-178.446514
51936	2.478689	0.136540	12.854531	0.000960	0.001098	3.279352	1.000000	-0.000007	0.000042	-0.000063	0.611984	-10.920646	-178.445934
51937	2.511826	0.139912	12.856084	-0.031348	-0.003222	3.287188	1.000000	0.000000	0.000051	-0.000075	0.612132	-10.919364	-178.447938
51938	2.475243	0.137783	12.879385	0.008837	0.000318	3.303116	1.000000	0.000007	0.000043	-0.000069	0.612765	-10.919551	-178.447988
51939	2.492865	0.122561	12.880699	-0.008442	0.014916	3.307583	1.000000	-0.000003	0.000041	-0.000075	0.611488	-10.920587	-178.438601
51940	2.455402	0.153741	12.854285	0.024420	-0.015565	3.274881	1.000000	0.000013	0.000035	-0.000063	0.612729	-10.921703	-178.437969
51941	2.472663	0.138703	12.855668	0.006999	-0.000931	3.279350	1.000000	0.000007	0.000078	-0.000069	0.612651	-10.917951	-178.429862
51942	2.488909	0.123968	12.881450	-0.004828	0.013732	3.307586	1.000000	-0.000007	0.000037	-0.000069	0.611739	-10.918890	-178.429954
51943	2.469204	0.139944	12.880521	0.015146	-0.001680	3.303110	1.000000	0.000007	0.000037	-0.000075	0.612736	-10.920333	-178.433902
51944	2.469043	0.139867	12.856351	0.010743	-0.001892	3.279348	1.000000	0.000000	0.000051	-0.000075	0.612754	-10.919588	-178.434632
51945	2.502164	0.143466	12.857929	-0.021290	-0.006404	3.287207	1.000000	0.000007	0.000043	-0.000069	0.612822	-10.920366	-178.428489
51946	2.467741	0.140223	12.832397	0.007675	-0.002562	3.255586	1.000000	0.000003	0.000039	-0.000063	0.612906	-10.921061	-178.427881
51947	2.498875	0.144961	12.882749	-0.013061	-0.007323	3.310970	1.000000	0.000010	0.000053	-0.000069	0.613407	-10.920943	-178.422066
51948	2.498695	0.144999	12.858586	-0.017473	-0.007540	3.287212	1.000000	0.000007	0.000037	-0.000075	0.614187	-10.921789	-178.422787
51949	2.463368	0.142187	12.857414	0.016997	-0.003838	3.279341	1.000000	-0.000007	0.000037	-0.000069	0.613127	-10.922267	-178.420776
51950	2.462237	0.142698	12.857625	0.018201	-0.004174	3.279339	1.000000	0.000020	0.000050	-0.000069	0.615292	-10.921696	-178.420778
51951	2.479677	0.127529	12.858999	0.000879	0.010519	3.283832	1.000000	-0.000014	0.000051	-0.000069	0.613285	-10.921588	-178.417292
51952	2.478481	0.127672	12.859228	0.002081	0.010181	3.283832	1.000000	-0.000003	0.000041	-0.000075	0.612908	-10.922014	-178.418038
51953	2.492948	0.146966	12.859679	-0.011427	-0.009231	3.287218	1.000000	0.000017	0.000045	-0.000063	0.615043	-10.921960	-178.423483
51954	2.474098	0.129760	12.908441	0.015749	0.009373	3.331342	1.000000	-0.000003	0.000047	-0.000069	0.614510	-10.921723	-178.423555
51955	2.455126	0.145247	12.883153	0.029983	-0.005782	3.303083	1.000000	0.000010	0.000048	-0.000074	0.616351	-10.921434	-178.433073
51956	2.473705	0.129455	12.860130	0.006896	0.009096	3.283831	1.000000	-0.000013	0.000045	-0.000075	0.614818	-10.921441	-178.433845
51957	2.506904	0.132937	12.861730	-0.025129	0.004709	3.291728	1.000000	0.000007	0.000043	-0.000069	0.615675	-10.922206	-178.436751
51958	2.467324	0.165022	12.884031	0.019034	-0.025927	3.306465	1.000000	-0.000001	0.000034	-0.000058	0.615208	-10.923409	-178.435485
51959	2.470334	0.130608	12.860766	0.010575	0.008176	3.283829	1.000000	0.000014	0.000058	-0.000074	0.616925	-10.921643	-178.438171
51960	2.484545	0.149890	12.861271	-0.002917	-0.011360	3.287221	1.000000	-0.000003	0.000047	-0.000069	0.616387	-10.921404	-178.438241
51961	2.486560	0.115906	12.862392	-0.005729	0.022640	3.288343	1.000000	0.000007	0.000043	-0.000069	0.617276	-10.921383	-178.441969
51962	2.466611	0.131855	12.861468	0.014135	0.007224	3.283826	1.000000	-0.000003	0.000047	-0.000069	0.616736	-10.921144	-178.442039
51963	2.499748	0.135424	12.863097	-0.018096	0.002720	3.291740	1.000000	0.000000	0.000045	-0.000080	0.616742	-10.920696	-178.442264
51964	2.478686	0.151969	12.886567	0.007429	-0.012815	3.310970	1.000000	0.000006	0.000049	-0.000063	0.617198	-10.920212	-178.441633
51965	2.463139	0.133202	12.862120	0.017683	0.006185	3.283823	1.000000	0.000013	0.000029	-0.000069	0.618609	-10.922077	-178.442278
51966	2.476603	0.152886	12.886957	0.009866	-0.013485	3.310968	1.000000	-0.000014	0.000051	-0.000069	0.616911	-10.921419	-178.442374
51967	2.480762	0.117634	12.839308	-0.004193	0.020698	3.264599	1.000000	0.000003	0.000039	-0.000063	0.616972	-10.922329	-178.441061
51968	2.475285	0.152839	12.863022	0.006670	-0.014039	3.287217	1.000000	-0.000004	0.000053	-0.000063	0.616271	-10.921426	-178.440456
51969	2.492770	0.137525	12.864429	-0.010605	0.000684	3.291748	1.000000	-0.000004	0.000047	-0.000069	0.615714	-10.922038	-178.440689
51970	2.456113	0.135156	12.887631	0.029609	0.004385	3.307560	1.000000	0.000006	0.000049	-0.000063	0.616165	-10.921552	-178.440056
51971	2.474742	0.119486	12.864638	0.006305	0.019172	3.288348	1.000000	0.000003	0.000045	-0.000057	0.615861	-10.920870	-178.436009
51972	2.488056	0.139035	12.889510	-0.001482	-0.000512	3.315497	1.000000	-0.000013	0.000045	-0.000075	0.614315	-10.920874	-178.436777
51973	2.503514	0.157590	12.865610	-0.020576	-0.019694	3.295155	1.000000	0.000007	0.000043	-0.000069	0.616054	-10.921235	-178.453031
51974	2.471209	0.120624	12.865307	0.009950	0.018411	3.288347	1.000000	0.000020	0.000050	-0.000068	0.618197	-10.920652	-178.453024
51975	2.468901	0.121602	12.889924	0.016833	0.017977	3.312091	1.000000	-0.000013	0.000045	-0.000075	0.616765	-10.920671	-178.455483
51976	2.484302	0.140221	12.866038	-0.002298	-0.001466	3.291752	1.000000	0.000010	0.000048	-0.000074	0.617909	-10.920333	-178.456176
51977	2.483168	0.140730	12.866251	-0.001184	-0.001804	3.291752	1.000000	0.000003	0.000039	-0.000063	0.617987	-10.920627	-178.456673
51978	2.466635	0.122361	12.866168	0.014669	0.017088	3.288344	1.000000	0.000007	0.000037	-0.000074	0.618744	-10.921463	-178.457386
51979	2.481210	0.141791	12.866617	0.001192	-0.002554	3.291752	1.000000	0.000013	0.000035	-0.000063	0.619647	-10.922410	-178.452876
51980	2.479078	0.142665	12.891200	0.008085	-0.003014	3.315494	1.000000	-0.000013	0.000045	-0.000075	0.618094	-10.922412	-178.453643
51981	2.480093	0.141855	12.842651	-0.002028	-0.003184	3.268010	1.000000	0.000006	0.000043	-0.000069	0.618359	-10.922846	-178.448930
51982	2.477787	0.143074	12.867263	0.004867	-0.003644	3.291751	1.000000	0.000020	0.000050	-0.000068	0.620495	-10.922260	-178.448920
51983	2.476531	0.143434	12.867500	0.005951	-0.003941	3.291751	1.000000	-0.000017	0.000046	-0.000064	0.618440	-10.921591	-178.451401
51984	2.474221	0.144030	12.892118	0.012853	-0.004401	3.315490	1.000000	-0.000004	0.000047	-0.000069	0.617882	-10.921346	-178.451466
51985	2.493972	0.127808	12.844775	-0.016097	0.010423	3.272576	1.000000	0.000006	0.000049	-0.000063	0.617893	-10.920586	-178.445355
51986	2.472922	0.144358	12.868184	0.009507	-0.005053	3.291748	1.000000	0.000007	0.000038	-0.000074	0.618645	-10.921419	-178.446065
51987	2.475177	0.110527	12.869290	0.006614	0.029007	3.292901	1.000000	0.000006	0.000043	-0.000069	0.619838	-10.921519	-178.455255
51988	2.489384	0.129612	12.869822	-0.006806	0.009417	3.296318	1.000000	-0.000014	0.000056	-0.000064	0.617964	-10.920195	-178.454673
51989	2.470358	0.144802	12.844494	0.007344	-0.005805	3.268008	1.000000	0.000006	0.000043	-0.000069	0.618600	-10.920154	-178.455767
51990	2.502270	0.149125	12.870608	-0.019062	-0.010511	3.299737	1.000000	-0.000000	0.000057	-0.000069	0.618419	-10.918732	-178.455810
51991	2.486698	0.130105	12.846162	-0.009128	0.008455	3.272584	1.000000	0.000003	0.000033	-0.000069	0.618336	-10.919321	-178.452152
51992	2.484512	0.131089	12.870748	-0.002212	0.007995	3.296320	1.000000	0.000006	0.000049	-0.000063	0.618768	-10.918828	-178.451513
51993	2.484342	0.131023	12.846609	-0.006728	0.007836	3.272586	1.000000	0.000006	0.000049	-0.000063	0.619471	-10.918328	-178.455227
51994	2.482095	0.132067	12.871205	0.000192	0.007376	3.296321	1.000000	0.000007	0.000038	-0.000074	0.620217	-10.919159	-178.455934
51995	2.462357	0.148080	12.870168	0.020043	-0.008053	3.291735	1.000000	0.000009	0.000031	-0.000057	0.620459	-10.920469	-178.448737
51996	2.480205	0.132871	12.871561	0.002533	0.006601	3.296321	1.000000	-0.000014	0.000045	-0.000075	0.618893	-10.920468	-178.449500
51997	2.479051	0.133135	12.871781	0.003623	0.006186	3.296321	1.000000	0.000006	0.000043	-0.000069	0.619152	-10.920136	-178.444788
51998	2.494285	0.152117	12.847952	-0.015488	-0.013309	3.276012	1.000000	0.000019	0.000062	-0.000057	0.620958	-10.918218	-178.443425
51999	2.511745	0.137048	12.849429	-0.033114	0.001175	3.280608	1.000000	-0.000014	0.000045	-0.000075	0.618729	-10.917721	-178.433567
52000	2.490567	0.153192	12.872830	-0.007454	-0.014261	3.299745	1.000000	-0.000004	0.000047	-0.000069	0.618157	-10.917473	-178.433628
52001	2.458438	0.115802	12.872452	0.022938	0.023863	3.292893	1.000000	0.000006	0.000043	-0.000069	0.618262	-10.917787	-178.425943
52002	2.471716	0.135744	12.897334	0.015305	0.004123	3.320049	1.000000	0.000007	0.000038	-0.000074	0.619001	-10.918615	-178.426648
52003	2.472951	0.135078	12.848764	0.004984	0.003904	3.272588	1.000000	-0.000004	0.000041	-0.000075	0.618077	-10.918793	-178.419478
52004	2.470663	0.136040	12.873363	0.011927	0.003451	3.296317	1.000000	0.000012	0.000047	-0.000051	0.618957	-10.918563	-178.417480
52005	2.489567	0.120412	12.850410	-0.011206	0.018175	3.277195	1.000000	-0.000007	0.000037	-0.000069	0.617936	-10.920119	-178.416416
52006	2.468603	0.136562	12.873752	0.014480	0.002766	3.296315	1.000000	-0.000007	0.000037	-0.000069	0.616979	-10.921045	-178.416496
52007	2.502826	0.139903	12.851139	-0.023353	-0.001783	3.280629	1.000000	0.000013	0.000058	-0.000074	0.618566	-10.919542	-178.418619
52008	2.466094	0.137539	12.874223	0.016893	0.002113	3.296312	1.000000	0.000003	0.000039	-0.000063	0.618604	-10.920221	-178.417996
52009	2.465985	0.137356	12.850079	0.012248	0.001990	3.272584	1.000000	-0.000000	0.000057	-0.000069	0.618866	-10.918377	-178.426670
52010	2.498990	0.141230	12.851871	-0.019840	-0.002703	3.280634	1.000000	0.000006	0.000043	-0.000069	0.619441	-10.918540	-178.426699
52011	2.476704	0.158137	12.899611	0.011598	-0.018244	3.323467	1.000000	-0.000004	0.000041	-0.000075	0.618908	-10.918851	-178.425929
52012	2.481172	0.123265	12.852006	-0.002913	0.015897	3.277202	1.000000	0.000019	0.000056	-0.000063	0.620858	-10.917590	-178.425235
52013	2.475371	0.158630	12.875695	0.008327	-0.018846	3.299739	1.000000	-0.000007	0.000037	-0.000069	0.619704	-10.918812	-178.422730
52014	2.478917	0.124080	12.852434	-0.000443	0.015179	3.277203	1.000000	0.000006	0.000043	-0.000069	0.620275	-10.918974	-178.422758
52015	2.478946	0.124044	12.828267	-0.005198	0.014949	3.253480	1.000000	0.000006	0.000043	-0.000069	0.620844	-10.918298	-178.423425
52016	2.490918	0.144535	12.877561	-0.006995	-0.004935	3.304366	1.000000	0.000006	0.000043	-0.000069	0.621414	-10.918460	-178.423453
52017	2.474303	0.125992	12.877465	0.008724	0.014163	3.300927	1.000000	-0.000004	0.000047	-0.000069	0.621365	-10.918153	-178.433731
52018	2.493176	0.110404	12.854554	-0.014597	0.028868	3.281839	1.000000	0.000006	0.000043	-0.000069	0.621933	-10.918314	-178.433758
52019	2.487259	0.145586	12.878257	-0.003345	-0.005861	3.304367	1.000000	-0.000010	0.000055	-0.000075	0.620596	-10.917336	-178.432164
52020	2.487247	0.145421	12.854102	-0.007914	-0.006087	3.280646	1.000000	0.000013	0.000035	-0.000063	0.621782	-10.918425	-178.431509
52021	2.488511	0.112190	12.879599	-0.005222	0.027637	3.305565	1.000000	0.000006	0.000043	-0.000069	0.622058	-10.918377	-178.427160
52022	2.483899	0.147031	12.878889	0.000229	-0.006946	3.304367	1.000000	0.000006	0.000043	-0.000069	0.622623	-10.918537	-178.427186
52023	2.483836	0.146926	12.854744	-0.004293	-0.007189	3.280647	1.000000	-0.000000	0.000051	-0.000075	0.622484	-10.918000	-178.426963
52024	2.466000	0.128963	12.879028	0.017203	0.011690	3.300921	1.000000	0.000006	0.000043	-0.000069	0.623048	-10.918159	-178.426988
52025	2.499126	0.132863	12.880841	-0.014821	0.006944	3.309015	1.000000	-0.000004	0.000047	-0.000069	0.622524	-10.918098	-178.429019
52026	2.480227	0.148099	12.855427	-0.000636	-0.008189	3.280647	1.000000	0.000006	0.000043	-0.000069	0.623086	-10.918256	-178.429044
52027	2.479073	0.148521	12.855645	0.000573	-0.008523	3.280647	1.000000	0.000002	0.000045	-0.000057	0.622973	-10.918291	-178.428967
52028	2.462506	0.130192	12.855527	0.016275	0.010478	3.277198	1.000000	0.000020	0.000044	-0.000074	0.625226	-10.918347	-178.429613
52029	2.495603	0.134221	12.857357	-0.015864	0.005611	3.285304	1.000000	-0.000008	0.000048	-0.000058	0.623559	-10.917612	-178.423037
52030	2.474298	0.150442	12.880698	0.009912	-0.009736	3.304361	1.000000	0.000006	0.000043	-0.000069	0.624118	-10.917769	-178.423061
52031	2.477874	0.116069	12.857462	0.001044	0.024385	3.281856	1.000000	0.000006	0.000043	-0.000069	0.625162	-10.917989	-178.432844
52032	2.493258	0.134961	12.833652	-0.018044	0.004814	3.261594	1.000000	0.000006	0.000049	-0.000063	0.625559	-10.917484	-178.432194
52033	2.455350	0.132761	12.881024	0.029670	0.007817	3.300901	1.000000	-0.000008	0.000043	-0.000063	0.620324	-10.924816	-178.467108
52034	2.469667	0.151959	12.881568	0.016386	-0.011866	3.304353	1.000000	0.000003	0.000039	-0.000063	0.620318	-10.925505	-178.466477
52035	2.474488	0.116859	12.833956	0.001688	0.022274	3.258146	1.000000	-0.000004	0.000047	-0.000069	0.619736	-10.925240	-178.467671
52036	2.487555	0.136738	12.858889	-0.005783	0.002467	3.285313	1.000000	0.000006	0.000038	-0.000074	0.620425	-10.926076	-178.468364
52037	2.467569	0.152628	12.857810	0.014235	-0.012805	3.280636	1.000000	0.000006	0.000043	-0.000069	0.620789	-10.926407	-178.465835
52038	2.485177	0.137667	12.859339	-0.003331	0.001739	3.285314	1.000000	-0.000001	0.000057	-0.000069	0.620535	-10.924990	-178.465863
52039	2.481485	0.139091	12.908334	0.009620	0.001083	3.332735	1.000000	0.000003	0.000039	-0.000063	0.620172	-10.926121	-178.458828
52040	2.501796	0.122979	12.861063	-0.019593	0.015851	3.290000	1.000000	-0.000004	0.000041	-0.000075	0.619701	-10.926543	-178.459551
52041	2.480553	0.139344	12.884362	0.006161	0.000594	3.309024	1.000000	0.000010	0.000042	-0.000080	0.621307	-10.926614	-178.468489
52042	2.499586	0.124024	12.861483	-0.017237	0.015242	3.290004	1.000000	0.000006	0.000043	-0.000069	0.621831	-10.926786	-178.468507
52043	2.478168	0.140270	12.884811	0.008601	-0.000175	3.309022	1.000000	-0.000004	0.000053	-0.000063	0.620681	-10.925963	-178.462153
52044	2.479289	0.139528	12.836309	-0.001851	-0.000288	3.261607	1.000000	0.000006	0.000049	-0.000063	0.621043	-10.925472	-178.461497
52045	2.477050	0.140250	12.860879	0.005180	-0.000740	3.285314	1.000000	-0.000015	0.000028	-0.000058	0.619004	-10.927404	-178.461447
52046	2.493736	0.125813	12.886744	-0.006565	0.013665	3.313717	1.000000	0.000020	0.000050	-0.000068	0.621056	-10.926808	-178.461412
52047	2.441564	0.137038	12.835302	0.035008	0.003157	3.253443	1.000000	-0.000001	0.000057	-0.000069	0.620625	-10.925415	-178.458822
52048	2.492310	0.126210	12.862873	-0.009981	0.013049	3.290014	1.000000	0.000002	0.000039	-0.000063	0.620609	-10.926101	-178.458188
52049	2.472226	0.142050	12.861788	0.009991	-0.002157	3.285311	1.000000	0.000010	0.000048	-0.000074	0.621655	-10.925633	-178.459787
52050	2.505260	0.146043	12.863693	-0.022040	-0.007022	3.293483	1.000000	-0.000008	0.000049	-0.000058	0.620320	-10.925245	-178.458510
52051	2.453190	0.124042	12.886264	0.032744	0.016471	3.305544	1.000000	-0.000008	0.000043	-0.000063	0.619388	-10.925730	-178.463017
52052	2.467331	0.143420	12.886856	0.019512	-0.003248	3.309010	1.000000	0.000007	0.000049	-0.000097	0.620673	-10.925263	-178.466363
52053	2.486408	0.127961	12.863998	-0.003925	0.011320	3.290019	1.000000	-0.000007	0.000037	-0.000069	0.619431	-10.926205	-178.462549
52054	2.484020	0.128992	12.888589	0.003135	0.010860	3.313721	1.000000	0.000019	0.000050	-0.000068	0.621476	-10.925606	-178.462510
52055	2.464995	0.144191	12.863152	0.017219	-0.004272	3.285303	1.000000	-0.000014	0.000051	-0.000069	0.619415	-10.924626	-178.458952
52056	2.497948	0.148030	12.865092	-0.014804	-0.009165	3.293492	1.000000	-0.000001	0.000052	-0.000075	0.619305	-10.923865	-178.459648
52057	2.481377	0.129456	12.864954	0.000793	0.009863	3.290020	1.000000	0.000006	0.000044	-0.000069	0.619760	-10.923872	-178.459109
52058	2.463698	0.111344	12.889163	0.022282	0.028796	3.310247	1.000000	-0.000001	0.000040	-0.000052	0.619041	-10.924410	-178.457148
52059	2.494400	0.149104	12.865768	-0.011269	-0.010216	3.293495	1.000000	-0.000001	0.000052	-0.000075	0.618952	-10.923392	-178.459595
52060	2.477855	0.130765	12.865620	0.004356	0.008832	3.290020	1.000000	0.000026	0.000042	-0.000062	0.621615	-10.923718	-178.458872
52061	2.490574	0.150905	12.890624	-0.002974	-0.011062	3.317194	1.000000	-0.000007	0.000060	-0.000080	0.620704	-10.922049	-178.457465
52062	2.475358	0.131802	12.866090	0.006776	0.008105	3.290020	1.000000	0.000013	0.000030	-0.000068	0.621997	-10.923804	-178.457468
52063	2.475611	0.131907	12.841905	0.002093	0.007897	3.266322	1.000000	0.000010	0.000048	-0.000074	0.623145	-10.923377	-178.460874
52064	2.488419	0.151959	12.866892	-0.005230	-0.011964	3.293497	1.000000	-0.000000	0.000046	-0.000080	0.623189	-10.923276	-178.462242
52065	2.437528	0.129706	12.865042	0.043600	0.011641	3.281801	1.000000	0.000009	0.000054	-0.000068	0.623849	-10.922264	-178.458303
52066	2.488398	0.151908	12.818630	-0.014565	-0.012480	3.246106	1.000000	0.000006	0.000044	-0.000069	0.624353	-10.922429	-178.458314
52067	2.468118	0.134987	12.891582	0.018740	0.006253	3.313711	1.000000	0.000006	0.000044	-0.000069	0.624872	-10.922864	-178.458428
52068	2.482198	0.154485	12.892197	0.005560	-0.013503	3.317191	1.000000	0.000006	0.000049	-0.000063	0.625214	-10.922366	-178.457766
52069	2.487330	0.119400	12.844612	-0.009417	0.020566	3.271067	1.000000	-0.000008	0.000037	-0.000069	0.624066	-10.923386	-178.455739
52070	2.482496	0.154208	12.843878	-0.003769	-0.013996	3.269803	1.000000	0.000019	0.000050	-0.000068	0.626097	-10.922780	-178.455695
52071	2.483648	0.120774	12.869442	-0.001100	0.019722	3.294762	1.000000	-0.000018	0.000046	-0.000064	0.623565	-10.922723	-178.451378
52072	2.463541	0.136168	12.868313	0.018938	0.004584	3.290010	1.000000	0.000002	0.000039	-0.000063	0.623532	-10.923402	-178.450738
52073	2.477816	0.155650	12.868894	0.005773	-0.015141	3.293494	1.000000	0.000006	0.000038	-0.000074	0.624379	-10.924238	-178.455787
52074	2.462763	0.136587	12.844326	0.015459	0.004050	3.266315	1.000000	0.000006	0.000044	-0.000069	0.624877	-10.924400	-178.455797
52075	2.479232	0.122078	12.870281	0.003719	0.018372	3.294764	1.000000	-0.000014	0.000051	-0.000069	0.623009	-10.923697	-178.455440
52076	2.478019	0.122551	12.870510	0.004925	0.018027	3.294764	1.000000	0.000026	0.000042	-0.000062	0.625659	-10.924015	-178.454711
52077	2.492078	0.142067	12.871137	-0.008240	-0.001735	3.298253	1.000000	-0.000014	0.000051	-0.000069	0.623900	-10.923324	-178.457377
52078	2.476880	0.122719	12.846600	0.001425	0.017462	3.271075	1.000000	0.000006	0.000044	-0.000069	0.624395	-10.923484	-178.457386
52079	2.489702	0.142792	12.871589	-0.005927	-0.002438	3.298254	1.000000	0.000006	0.000044	-0.000069	0.624852	-10.923178	-178.458602
52080	2.507511	0.128083	12.873172	-0.023559	0.011990	3.303024	1.000000	0.000009	0.000048	-0.000074	0.625878	-10.922820	-178.459260
52081	2.487301	0.143895	12.872041	-0.003523	-0.003114	3.298254	1.000000	0.000006	0.000044	-0.000069	0.626446	-10.922915	-178.462041
52082	2.470796	0.125262	12.871872	0.012038	0.015980	3.294762	1.000000	-0.000001	0.000052	-0.000074	0.626312	-10.922147	-178.462731
52083	2.488595	0.110317	12.873465	-0.005593	0.030340	3.299537	1.000000	-0.000004	0.000041	-0.000075	0.625528	-10.922599	-178.458484
52084	2.467074	0.126462	12.896699	0.020380	0.015121	3.318446	1.000000	0.000006	0.000049	-0.000063	0.625855	-10.922096	-178.457818
52085	2.481108	0.145992	12.897336	0.007273	-0.004648	3.321939	1.000000	0.000006	0.000044	-0.000069	0.626434	-10.922366	-178.460173
52086	2.466126	0.126713	12.872754	0.016901	0.014565	3.294758	1.000000	-0.000008	0.000037	-0.000069	0.625396	-10.923294	-178.460235
52087	2.481569	0.145540	12.849006	-0.002118	-0.005146	3.274570	1.000000	0.000005	0.000049	-0.000063	0.625597	-10.922942	-178.457025
52088	2.479026	0.146546	12.873608	0.005018	-0.005600	3.298253	1.000000	0.000006	0.000044	-0.000069	0.626084	-10.923099	-178.457031
52089	2.493092	0.166051	12.874243	-0.008099	-0.025387	3.301751	1.000000	-0.000000	0.000046	-0.000080	0.626161	-10.923008	-178.460289
52090	2.477938	0.146866	12.849692	0.001509	-0.006168	3.274569	1.000000	0.000005	0.000049	-0.000063	0.626483	-10.922503	-178.459621
52091	2.476705	0.147094	12.849927	0.002714	-0.006540	3.274569	1.000000	-0.000014	0.000045	-0.000075	0.624696	-10.922485	-178.458727
52092	2.460331	0.128507	12.849724	0.018242	0.012577	3.271068	1.000000	0.000026	0.000042	-0.000062	0.627333	-10.922797	-178.457992
52093	2.478330	0.113836	12.851297	0.000574	0.026947	3.275864	1.000000	-0.000008	0.000037	-0.000069	0.626171	-10.923676	-178.455951
52094	2.456901	0.129910	12.874486	0.026583	0.011758	3.294745	1.000000	0.000006	0.000044	-0.000069	0.626653	-10.923832	-178.455955
52095	2.470863	0.149328	12.875145	0.013554	-0.008071	3.298246	1.000000	-0.000005	0.000053	-0.000063	0.625710	-10.923240	-178.452385
52096	2.509026	0.118695	12.853784	-0.028917	0.021153	3.284174	1.000000	0.000006	0.000044	-0.000068	0.626191	-10.923395	-178.452388
52097	2.469757	0.149488	12.851237	0.009953	-0.008673	3.274564	1.000000	-0.000004	0.000047	-0.000069	0.625418	-10.922814	-178.452459
52098	2.501478	0.154252	12.877647	-0.016061	-0.013873	3.306555	1.000000	0.000006	0.000044	-0.000068	0.625898	-10.922968	-178.452462
52099	2.471080	0.115941	12.852674	0.007822	0.024835	3.275866	1.000000	-0.000001	0.000058	-0.000069	0.625569	-10.921650	-178.452165
52100	2.483896	0.135690	12.877672	0.000685	0.004907	3.303050	1.000000	-0.000014	0.000022	-0.000063	0.623623	-10.924275	-178.451599
52101	2.499689	0.154725	12.853875	-0.018347	-0.014815	3.282882	1.000000	0.000026	0.000037	-0.000068	0.626401	-10.925277	-178.451774
52102	2.464170	0.151440	12.852286	0.016030	-0.010394	3.274557	1.000000	-0.000008	0.000060	-0.000080	0.625621	-10.923577	-178.453141
52103	2.480362	0.137080	12.878338	0.004294	0.003901	3.303049	1.000000	0.000005	0.000055	-0.000057	0.625919	-10.922293	-178.456674
52104	2.495694	0.156037	12.854635	-0.014745	-0.015821	3.282885	1.000000	0.000002	0.000039	-0.000063	0.625863	-10.922964	-178.456026
52105	2.478042	0.137897	12.878776	0.006723	0.003140	3.303048	1.000000	0.000006	0.000044	-0.000068	0.626013	-10.923154	-178.449076
52106	2.476794	0.138312	12.879012	0.007932	0.002796	3.303048	1.000000	-0.000001	0.000052	-0.000074	0.625858	-10.922379	-178.449759
52107	2.476798	0.138046	12.854902	0.003141	0.002545	3.279374	1.000000	-0.000005	0.000053	-0.000063	0.624954	-10.921326	-178.449420
52108	2.489334	0.157781	12.879957	-0.003951	-0.017399	3.306560	1.000000	-0.000014	0.000045	-0.000075	0.623271	-10.921323	-178.450160
52109	2.472896	0.139087	12.879752	0.011548	0.001782	3.303045	1.000000	0.000019	0.000050	-0.000068	0.625406	-10.920781	-178.453725
52110	2.473222	0.139299	12.855577	0.006781	0.001544	3.279373	1.000000	0.000013	0.000030	-0.000068	0.626669	-10.922519	-178.453715
52111	2.505082	0.144209	12.881991	-0.019216	-0.003740	3.311395	1.000000	-0.000005	0.000047	-0.000069	0.625865	-10.922137	-178.452226
52112	2.472377	0.139510	12.831629	0.003188	0.000935	3.255702	1.000000	-0.000001	0.000046	-0.000080	0.625868	-10.922022	-178.453581
52113	2.469851	0.140526	12.856212	0.010341	0.000491	3.279371	1.000000	0.000012	0.000042	-0.000057	0.626827	-10.922284	-178.454534
52114	2.468680	0.141120	12.856430	0.011548	0.000148	3.279370	1.000000	0.000009	0.000048	-0.000074	0.627823	-10.921913	-178.455181
52115	2.515417	0.165012	12.883360	-0.028631	-0.024649	3.314920	1.000000	-0.000015	0.000051	-0.000069	0.625899	-10.921367	-178.453327
52116	2.452394	0.122209	12.832086	0.022251	0.019061	3.252180	1.000000	0.000026	0.000042	-0.000062	0.628518	-10.921668	-178.452584
52117	2.500772	0.145849	12.834602	-0.023927	-0.005647	3.264069	1.000000	-0.000008	0.000037	-0.000069	0.627375	-10.922636	-178.450953
52118	2.483157	0.127568	12.858721	-0.002484	0.013415	3.284216	1.000000	0.000006	0.000044	-0.000068	0.627839	-10.922784	-178.450950
52119	2.500997	0.112987	12.860383	-0.020191	0.027727	3.289069	1.000000	0.000015	0.000052	-0.000057	0.629079	-10.921968	-178.449093
52120	2.476768	0.162899	12.858210	0.004586	-0.021470	3.282884	1.000000	-0.000004	0.000041	-0.000074	0.628547	-10.922370	-178.449797
52121	2.460465	0.144247	12.857970	0.020073	-0.002304	3.279359	1.000000	0.000015	0.000046	-0.000062	0.629951	-10.922445	-178.446505
52122	2.478205	0.129599	12.859656	0.002373	0.012014	3.284217	1.000000	-0.000001	0.000058	-0.000069	0.629616	-10.921004	-178.446512
52123	2.472854	0.164286	12.858946	0.008170	-0.022519	3.282881	1.000000	0.000003	0.000050	-0.000086	0.630121	-10.919970	-178.451510
52124	2.476903	0.129937	12.835803	-0.001311	0.011422	3.260554	1.000000	0.000005	0.000050	-0.000063	0.630414	-10.919454	-178.450834
52125	2.489420	0.150077	12.860860	-0.008309	-0.008618	3.287744	1.000000	0.000006	0.000044	-0.000068	0.630585	-10.919633	-178.444141
52126	2.471803	0.131777	12.884967	0.013129	0.010466	3.307879	1.000000	-0.000008	0.000037	-0.000069	0.629519	-10.920554	-178.444196
52127	2.506345	0.135624	12.862715	-0.024847	0.005348	3.292615	1.000000	0.000009	0.000048	-0.000074	0.630555	-10.920004	-178.447823
52128	2.453234	0.146566	12.835224	0.022394	-0.004651	3.255682	1.000000	-0.000008	0.000043	-0.000063	0.629322	-10.920263	-178.447205
52129	2.484920	0.151406	12.861714	-0.003506	-0.009954	3.287745	1.000000	0.000006	0.000044	-0.000068	0.629932	-10.920438	-178.451695
52130	2.504203	0.136319	12.839030	-0.027235	0.004443	3.268962	1.000000	0.000015	0.000052	-0.000057	0.631214	-10.919666	-178.450310
52131	2.467189	0.133330	12.861736	0.013097	0.008950	3.284213	1.000000	-0.000001	0.000052	-0.000074	0.631290	-10.918787	-178.458324
52132	2.500195	0.138014	12.863886	-0.018821	0.003704	3.292625	1.000000	0.000026	0.000043	-0.000062	0.633896	-10.919081	-178.457576
52133	2.464802	0.134649	12.862180	0.015514	0.008222	3.284211	1.000000	-0.000001	0.000046	-0.000080	0.633687	-10.918969	-178.454855
52134	2.496546	0.139533	12.888672	-0.010373	0.002864	3.316287	1.000000	-0.000002	0.000035	-0.000057	0.633082	-10.920154	-178.453553
52135	2.461075	0.135872	12.886978	0.023922	0.007473	3.307866	1.000000	0.000008	0.000060	-0.000063	0.633909	-10.918294	-178.458842
52136	2.462599	0.135306	12.838499	0.013066	0.007334	3.260550	1.000000	0.000005	0.000044	-0.000068	0.634358	-10.918437	-178.458835
52137	2.492762	0.140776	12.889391	-0.006779	0.001798	3.316289	1.000000	-0.000005	0.000047	-0.000069	0.633355	-10.918157	-178.453122
52138	2.477827	0.121407	12.864791	0.002580	0.021104	3.289097	1.000000	0.000005	0.000050	-0.000063	0.633636	-10.917637	-178.452442
52139	2.508286	0.159489	12.841610	-0.030680	-0.018237	3.272518	1.000000	-0.000008	0.000043	-0.000063	0.632446	-10.917635	-178.455793
52140	2.474119	0.122519	12.889585	0.010975	0.020324	3.312752	1.000000	0.000006	0.000038	-0.000074	0.633058	-10.918437	-178.456457
52141	2.489602	0.141660	12.865901	-0.007996	0.000541	3.292637	1.000000	0.000005	0.000044	-0.000068	0.633576	-10.918767	-178.457257
52142	2.469149	0.157150	12.864682	0.012148	-0.014416	3.287736	1.000000	-0.000002	0.000058	-0.000069	0.633221	-10.917321	-178.457259
52143	2.471856	0.123262	12.865922	0.008602	0.019397	3.289097	1.000000	0.000005	0.000044	-0.000068	0.633605	-10.917491	-178.456316
52144	2.466629	0.157885	12.865157	0.014577	-0.015115	3.287733	1.000000	-0.000005	0.000047	-0.000069	0.632888	-10.917226	-178.456343
52145	2.485985	0.142480	12.842503	-0.009244	-0.000748	3.268987	1.000000	-0.000005	0.000047	-0.000069	0.632207	-10.916793	-178.459382
52146	2.484721	0.142810	12.842744	-0.008037	-0.001093	3.268988	1.000000	0.000005	0.000050	-0.000063	0.632481	-10.916271	-178.458700
52147	2.482068	0.143854	12.867332	-0.000774	-0.001569	3.292639	1.000000	0.000012	0.000042	-0.000057	0.633254	-10.916667	-178.454664
52148	2.479467	0.144675	12.891912	0.006494	-0.002013	3.316289	1.000000	-0.000015	0.000045	-0.000075	0.631539	-10.916658	-178.455398
52149	2.467450	0.124037	12.818585	0.003645	0.017479	3.241794	1.000000	-0.000002	0.000058	-0.000069	0.631030	-10.915068	-178.453523
52150	2.497473	0.129809	12.869527	-0.016125	0.011952	3.297558	1.000000	0.000019	0.000039	-0.000079	0.633321	-10.915751	-178.454796
52151	2.477182	0.145364	12.868257	0.003994	-0.002974	3.292639	1.000000	-0.000009	0.000049	-0.000057	0.631943	-10.915178	-178.456776
52152	2.475973	0.145634	12.868486	0.005203	-0.003319	3.292638	1.000000	0.000005	0.000044	-0.000068	0.632379	-10.915316	-178.456765
52153	2.494034	0.130981	12.870181	-0.012572	0.010891	3.297563	1.000000	0.000002	0.000039	-0.000063	0.632168	-10.915827	-178.454892
52154	2.473663	0.146509	12.868921	0.007589	-0.004035	3.292637	1.000000	0.000009	0.000054	-0.000068	0.632962	-10.914781	-178.454855
52155	2.491328	0.131819	12.870697	-0.010159	0.010176	3.297565	1.000000	-0.000008	0.000060	-0.000080	0.632030	-10.913053	-178.454769
52156	2.488413	0.132667	12.895333	-0.002874	0.009732	3.321212	1.000000	0.000005	0.000050	-0.000063	0.632296	-10.912528	-178.454085
52157	2.469610	0.147485	12.869688	0.011202	-0.005090	3.292634	1.000000	-0.000008	0.000037	-0.000069	0.631197	-10.913384	-178.455504
52158	2.470923	0.114186	12.895291	0.013663	0.028628	3.317660	1.000000	0.000018	0.000062	-0.000057	0.632813	-10.911418	-178.454084
52159	2.501233	0.152518	12.872183	-0.019489	-0.010815	3.301123	1.000000	-0.000008	0.000037	-0.000069	0.631679	-10.912226	-178.454784
52160	2.485147	0.133501	12.871875	-0.004155	0.008432	3.297570	1.000000	-0.000005	0.000042	-0.000074	0.631116	-10.912618	-178.455480
52161	2.485541	0.133147	12.847724	-0.009044	0.008178	3.273928	1.000000	-0.000008	0.000043	-0.000063	0.629834	-10.912826	-178.455295
52162	2.484351	0.133494	12.847950	-0.007838	0.007832	3.273929	1.000000	0.000009	0.000048	-0.000074	0.630787	-10.912438	-178.455927
52163	2.484502	0.133462	12.823844	-0.012724	0.007563	3.250288	1.000000	0.000005	0.000055	-0.000057	0.630786	-10.911243	-178.452910
52164	2.480424	0.135015	12.872770	0.000668	0.007024	3.297571	1.000000	0.000006	0.000026	-0.000085	0.631716	-10.913360	-178.454912
52165	2.479322	0.135456	12.872977	0.001900	0.006698	3.297571	1.000000	-0.000002	0.000058	-0.000069	0.631417	-10.912011	-178.456327
52166	2.498771	0.120537	12.850362	-0.021961	0.020996	3.278884	1.000000	0.000026	0.000037	-0.000068	0.634163	-10.912951	-178.456239
52167	2.477102	0.136589	12.873393	0.004307	0.005946	3.297571	1.000000	-0.000012	0.000038	-0.000058	0.632096	-10.913679	-178.449314
52168	2.477436	0.136215	12.849257	-0.000587	0.005697	3.273932	1.000000	-0.000001	0.000052	-0.000074	0.631883	-10.912885	-178.449982
52169	2.491274	0.155792	12.850000	-0.013446	-0.014282	3.277494	1.000000	0.000002	0.000039	-0.000063	0.631689	-10.913663	-178.446146
52170	2.494282	0.122006	12.851220	-0.017124	0.019522	3.278894	1.000000	0.000009	0.000048	-0.000074	0.632635	-10.913273	-178.446777
52171	2.488934	0.156880	12.850440	-0.011018	-0.015039	3.277495	1.000000	0.000009	0.000043	-0.000080	0.633463	-10.913565	-178.441415
52172	2.456368	0.119175	12.873950	0.024469	0.023765	3.294005	1.000000	-0.000015	0.000034	-0.000052	0.631147	-10.914861	-178.439497
52173	2.486470	0.157284	12.850912	-0.008615	-0.015698	3.277496	1.000000	0.000005	0.000078	-0.000068	0.631617	-10.910974	-178.444707
52174	2.468452	0.138916	12.875029	0.012789	0.003487	3.297567	1.000000	-0.000002	0.000035	-0.000057	0.630986	-10.912150	-178.443397
52175	2.468966	0.138819	12.850859	0.007863	0.003243	3.273931	1.000000	0.000009	0.000043	-0.000080	0.632125	-10.912342	-178.447062
52176	2.449820	0.121119	12.899254	0.035384	0.022341	3.317632	1.000000	0.000002	0.000039	-0.000063	0.632017	-10.912995	-178.446399
52177	2.501008	0.143961	12.853326	-0.022814	-0.002583	3.282473	1.000000	0.000005	0.000044	-0.000068	0.632295	-10.912979	-178.446353
52178	2.484743	0.125090	12.853038	-0.007537	0.016701	3.278907	1.000000	-0.000003	0.000052	-0.000074	0.631892	-10.912120	-178.447024
52179	2.498627	0.144697	12.853781	-0.020411	-0.003253	3.282477	1.000000	0.000003	0.000033	-0.000068	0.632153	-10.913409	-178.451107
52180	2.497448	0.145082	12.854006	-0.019202	-0.003601	3.282479	1.000000	0.000000	0.000057	-0.000068	0.632023	-10.912043	-178.451091
52181	2.460323	0.141802	12.876554	0.021142	0.001051	3.297556	1.000000	0.000007	0.000049	-0.000074	0.632618	-10.911365	-178.451444
52182	2.494842	0.145790	12.854504	-0.016835	-0.004333	3.282482	1.000000	-0.000014	0.000045	-0.000063	0.630725	-10.911400	-178.450836
52183	2.463681	0.107652	12.853656	0.012492	0.034565	3.275339	1.000000	0.000017	0.000045	-0.000074	0.632484	-10.911394	-178.447608
52184	2.471742	0.162356	12.877758	0.010732	-0.019654	3.301123	1.000000	0.000007	0.000043	-0.000068	0.633081	-10.911586	-178.447582
52185	2.495548	0.112973	12.856181	-0.018178	0.028702	3.283906	1.000000	-0.000003	0.000047	-0.000069	0.632402	-10.911251	-178.447483
52186	2.475218	0.128312	12.854844	0.002029	0.013864	3.278912	1.000000	0.000003	0.000039	-0.000074	0.632729	-10.911952	-178.448143
52187	2.488994	0.148114	12.855611	-0.010810	-0.006170	3.282487	1.000000	0.000011	0.000053	-0.000068	0.633592	-10.910968	-178.444964
52188	2.487730	0.148679	12.855849	-0.009601	-0.006515	3.282488	1.000000	0.000007	0.000043	-0.000068	0.634192	-10.911161	-178.444937
52189	2.471633	0.129759	12.855519	0.005661	0.012743	3.278912	1.000000	-0.000007	0.000042	-0.000074	0.633133	-10.911544	-178.439665
52190	2.483820	0.149815	12.880654	-0.001011	-0.007348	3.306116	1.000000	0.000000	0.000051	-0.000063	0.632844	-10.910827	-178.438989
52191	2.503500	0.134684	12.858065	-0.024961	0.006872	3.287496	1.000000	0.000003	0.000033	-0.000068	0.633006	-10.912192	-178.439449
52192	2.483155	0.150009	12.856718	-0.004740	-0.007949	3.282490	1.000000	-0.000003	0.000052	-0.000074	0.632613	-10.911338	-178.440115
52193	2.465441	0.131638	12.880751	0.016626	0.011246	3.302535	1.000000	0.000007	0.000038	-0.000063	0.632902	-10.912083	-178.438018
52194	2.465937	0.131595	12.856594	0.011675	0.010993	3.278910	1.000000	0.000004	0.000044	-0.000080	0.633402	-10.912139	-178.439333
52195	2.499109	0.136375	12.858901	-0.020118	0.005445	3.287505	1.000000	0.000003	0.000033	-0.000068	0.633560	-10.913635	-178.437759
52196	2.478699	0.151719	12.857558	0.000110	-0.009363	3.282490	1.000000	0.000001	0.000057	-0.000068	0.633441	-10.912273	-178.437738
52197	2.495148	0.137826	12.883711	-0.011552	0.004643	3.311131	1.000000	0.000014	0.000035	-0.000074	0.634853	-10.913303	-178.438376
52198	2.482400	0.118079	12.834623	-0.008674	0.024147	3.260306	1.000000	0.000007	0.000038	-0.000063	0.635293	-10.914144	-178.437689
52199	2.494462	0.138336	12.859782	-0.015289	0.004045	3.287512	1.000000	0.000001	0.000062	-0.000074	0.635372	-10.912193	-178.438934
52200	2.487228	0.173412	12.883379	-0.002882	-0.030518	3.309693	1.000000	-0.000004	0.000041	-0.000063	0.634652	-10.912635	-178.438285
52201	2.475417	0.120269	12.884062	0.007268	0.022899	3.307550	1.000000	0.000010	0.000048	-0.000062	0.635335	-10.912187	-178.435626
52202	2.489122	0.139986	12.884853	-0.005517	0.002873	3.311136	1.000000	-0.000003	0.000047	-0.000069	0.634783	-10.911983	-178.435633
52203	2.493786	0.105637	12.861753	-0.015519	0.036711	3.288963	1.000000	0.000010	0.000048	-0.000062	0.635531	-10.911705	-178.431841
52204	2.469216	0.155444	12.859338	0.009764	-0.012199	3.282484	1.000000	0.000013	0.000030	-0.000068	0.636866	-10.913458	-178.431801
52205	2.485806	0.141534	12.885477	-0.001853	0.001798	3.311137	1.000000	0.000000	0.000051	-0.000063	0.636544	-10.912844	-178.429385
52206	2.484525	0.142090	12.885718	-0.000643	0.001452	3.311137	1.000000	0.000014	0.000046	-0.000085	0.638382	-10.912657	-178.431314
52207	2.471637	0.122220	12.836661	0.002162	0.020961	3.260314	1.000000	-0.000007	0.000042	-0.000074	0.637512	-10.912934	-178.431992
52208	2.483781	0.142274	12.861807	-0.004418	0.000837	3.287521	1.000000	-0.000006	0.000048	-0.000080	0.636862	-10.912594	-178.433341
52209	2.480953	0.143326	12.886392	0.002942	0.000355	3.311137	1.000000	0.000018	0.000045	-0.000073	0.638584	-10.912357	-178.432607
52210	2.481472	0.143448	12.862239	-0.002042	0.000096	3.287522	1.000000	0.000007	0.000038	-0.000062	0.639032	-10.913202	-178.431916
52211	2.480439	0.143798	12.862435	-0.000845	-0.000275	3.287522	1.000000	-0.000004	0.000041	-0.000063	0.638203	-10.913589	-178.430314
52212	2.500035	0.128646	12.839921	-0.024880	0.013881	3.268960	1.000000	0.000001	0.000057	-0.000068	0.638094	-10.912231	-178.430288
52213	2.477894	0.144481	12.862918	0.001556	-0.000947	3.287522	1.000000	0.000000	0.000040	-0.000086	0.638421	-10.912732	-178.436824
52214	2.496053	0.129770	12.864730	-0.016282	0.013121	3.292577	1.000000	-0.000014	0.000045	-0.000063	0.636548	-10.912778	-178.436210
52215	2.475550	0.145096	12.863362	0.003959	-0.001653	3.287521	1.000000	0.000021	0.000050	-0.000068	0.638686	-10.912155	-178.436309
52216	2.493616	0.130731	12.865193	-0.013881	0.012409	3.292581	1.000000	-0.000007	0.000042	-0.000074	0.637875	-10.912464	-178.436999
52217	2.459833	0.126022	12.838892	0.014151	0.017430	3.260311	1.000000	-0.000003	0.000052	-0.000074	0.637378	-10.911779	-178.432838
52218	2.506054	0.150575	12.866242	-0.025372	-0.008026	3.296182	1.000000	-0.000004	0.000041	-0.000063	0.636669	-10.912225	-178.432185
52219	2.469077	0.147050	12.888631	0.015037	-0.003140	3.311128	1.000000	0.000007	0.000049	-0.000074	0.637453	-10.911731	-178.434485
52220	2.473975	0.112652	12.865519	0.004914	0.030714	3.288986	1.000000	-0.000007	0.000037	-0.000069	0.636478	-10.912688	-178.434518
52221	2.470129	0.146739	12.840339	0.005010	-0.003662	3.263908	1.000000	0.000014	0.000047	-0.000051	0.637456	-10.912461	-178.434096
52222	2.502907	0.151714	12.842800	-0.026774	-0.009337	3.272582	1.000000	0.000007	0.000060	-0.000051	0.637723	-10.910732	-178.432037
52223	2.467479	0.147826	12.840836	0.007389	-0.004363	3.263907	1.000000	0.000011	0.000036	-0.000085	0.639083	-10.911548	-178.436669
52224	2.464749	0.148827	12.865393	0.014822	-0.004789	3.287513	1.000000	-0.000003	0.000047	-0.000069	0.638546	-10.911350	-178.436670
52225	2.482872	0.134175	12.867235	-0.003047	0.009230	3.292590	1.000000	-0.000007	0.000042	-0.000074	0.637649	-10.911590	-178.437610
52226	2.480108	0.135060	12.891800	0.004390	0.008802	3.316197	1.000000	0.000007	0.000043	-0.000068	0.638275	-10.911790	-178.437570
52227	2.482383	0.134472	12.843286	-0.006871	0.008577	3.268986	1.000000	0.000000	0.000034	-0.000080	0.638163	-10.912974	-178.435785
52228	2.481368	0.134933	12.843477	-0.005665	0.008232	3.268987	1.000000	0.000007	0.000043	-0.000068	0.638790	-10.913175	-178.435745
52229	2.491700	0.155758	12.893007	-0.005876	-0.012039	3.319802	1.000000	0.000000	0.000051	-0.000063	0.638409	-10.912557	-178.431654
52230	2.477354	0.136398	12.868275	0.003007	0.007435	3.292592	1.000000	0.000014	0.000035	-0.000074	0.639932	-10.913667	-178.432261
52231	2.476251	0.136769	12.868484	0.004209	0.007095	3.292591	1.000000	-0.000010	0.000049	-0.000057	0.638359	-10.913183	-178.433143
52232	2.476703	0.136517	12.844361	-0.000825	0.006833	3.268989	1.000000	0.000007	0.000043	-0.000068	0.638989	-10.913385	-178.433102
52233	2.475529	0.136908	12.844583	0.002852	0.002068	3.268990	1.000000	-0.000003	0.000047	-0.000068	0.618405	-10.923480	-178.514700
52234	2.506850	0.142334	12.871392	-0.022666	-0.003732	3.301303	1.000000	0.000007	0.000043	-0.000068	0.618974	-10.923697	-178.514659
52235	2.471560	0.138343	12.869369	0.011537	0.001242	3.292589	1.000000	0.000007	0.000043	-0.000068	0.619501	-10.923968	-178.513043
52236	2.470514	0.138684	12.869566	0.012749	0.000883	3.292588	1.000000	-0.000007	0.000037	-0.000069	0.618474	-10.924944	-178.513072
52237	2.487432	0.157410	12.821703	-0.012485	-0.018998	3.248999	1.000000	0.000008	0.000060	-0.000085	0.619623	-10.923166	-178.516551
52238	2.467684	0.139620	12.870099	0.015159	0.000180	3.292585	1.000000	0.000007	0.000060	-0.000051	0.619833	-10.921454	-178.514488
52239	2.466465	0.140052	12.870328	0.016337	-0.000195	3.292584	1.000000	0.000003	0.000033	-0.000068	0.619906	-10.922678	-178.514940
52240	2.486541	0.124982	12.847798	-0.007778	0.013913	3.274106	1.000000	-0.000007	0.000037	-0.000069	0.618882	-10.923655	-178.514968
52241	2.485498	0.125326	12.847996	-0.006573	0.013582	3.274107	1.000000	0.000007	0.000043	-0.000068	0.619592	-10.923862	-178.516943
52242	2.478128	0.160609	12.871529	0.006067	-0.020981	3.296191	1.000000	0.000008	0.000049	-0.000074	0.620336	-10.923434	-178.517555
52243	2.461976	0.141654	12.871170	0.021184	-0.001609	3.292577	1.000000	-0.000003	0.000052	-0.000074	0.619868	-10.922621	-178.517051
52244	2.495050	0.146704	12.873635	-0.010568	-0.007355	3.301317	1.000000	0.000014	0.000030	-0.000068	0.621171	-10.924393	-178.516997
52245	2.459842	0.142646	12.871567	0.023617	-0.002341	3.292573	1.000000	0.000000	0.000051	-0.000063	0.620775	-10.923739	-178.514420
52246	2.497365	0.113521	12.875096	-0.013313	0.026005	3.302836	1.000000	0.000014	0.000035	-0.000074	0.622248	-10.924866	-178.515021
52247	2.478741	0.128135	12.849274	0.000666	0.011364	3.274111	1.000000	-0.000017	0.000040	-0.000069	0.619958	-10.925346	-178.514389
52248	2.477654	0.128350	12.849481	0.001875	0.011004	3.274111	1.000000	0.000007	0.000043	-0.000068	0.620537	-10.925566	-178.514343
52249	2.465872	0.197642	12.871932	0.019753	-0.057644	3.294658	1.000000	-0.000007	0.000037	-0.000069	0.619554	-10.926524	-178.514924
52250	2.493162	0.114617	12.875901	-0.008503	0.024537	3.302843	1.000000	-0.000003	0.000047	-0.000068	0.618973	-10.926347	-178.514919
52251	2.515973	0.065931	12.878818	-0.031579	0.072593	3.309513	1.000000	0.000000	0.000034	-0.000080	0.618942	-10.927581	-178.514860
52252	2.502740	0.168471	12.851578	-0.021039	-0.029970	3.281350	1.000000	0.000002	0.000068	-0.000080	0.619137	-10.924958	-178.516133
52253	2.470055	0.130644	12.874947	0.014190	0.009103	3.297699	1.000000	0.000007	0.000038	-0.000062	0.619568	-10.925758	-178.516302
52254	2.562861	0.090991	12.858111	-0.081091	0.046395	3.298332	1.000000	0.000021	0.000044	-0.000062	0.621578	-10.925863	-178.515526
52255	2.428960	0.161498	12.872045	0.054786	-0.020273	3.287392	1.000000	-0.000002	0.000058	-0.000080	0.621326	-10.924418	-178.516223
52256	2.515160	0.156262	12.878591	-0.028977	-0.017191	3.310095	1.000000	0.000001	0.000051	-0.000063	0.621014	-10.923732	-178.515529
52257	2.469409	0.098216	12.876980	0.013835	0.041760	3.299227	1.000000	-0.000010	0.000055	-0.000063	0.619543	-10.922768	-178.513133
52258	2.377665	0.137736	12.845522	0.098948	0.003992	3.251381	1.000000	0.000007	0.000043	-0.000068	0.620129	-10.922989	-178.513084
52259	2.477052	0.152578	12.877042	0.007654	-0.012837	3.301315	1.000000	0.000001	0.000057	-0.000068	0.619938	-10.921720	-178.511246
52260	2.497051	0.137498	12.854583	-0.016532	0.001209	3.282892	1.000000	-0.000008	0.000025	-0.000057	0.618590	-10.923994	-178.509959
52261	2.389212	0.158056	12.846741	0.088723	-0.016841	3.254980	1.000000	0.000001	0.000040	-0.000085	0.618795	-10.924513	-178.512391
52262	2.529140	0.142801	12.857294	-0.047065	-0.004995	3.291690	1.000000	0.000001	0.000051	-0.000063	0.618487	-10.923828	-178.511696
52263	2.440383	0.148813	12.851174	0.039119	-0.008692	3.268929	1.000000	0.000014	0.000035	-0.000073	0.620056	-10.924984	-178.512806
52264	2.471900	0.154398	12.878010	0.013714	-0.014622	3.301308	1.000000	-0.000010	0.000032	-0.000074	0.618786	-10.926480	-178.513516
52265	2.509651	0.125010	12.881580	-0.023271	0.013608	3.311655	1.000000	-0.000006	0.000042	-0.000074	0.617905	-10.926816	-178.513054
52266	2.508607	0.125362	12.881780	-0.022059	0.013243	3.311657	1.000000	0.000007	0.000038	-0.000062	0.618326	-10.927684	-178.512347
52267	2.502754	0.159983	12.880962	-0.015569	-0.021197	3.310112	1.000000	-0.000002	0.000058	-0.000080	0.618144	-10.926229	-178.513899
52268	2.505896	0.126260	12.882299	-0.019633	0.012525	3.311662	1.000000	0.000008	0.000054	-0.000079	0.619078	-10.925162	-178.515157
52269	2.501759	0.160352	12.857136	-0.019471	-0.021857	3.286534	1.000000	-0.000006	0.000042	-0.000074	0.618137	-10.925469	-178.514455
52270	2.485960	0.141261	12.856692	-0.004440	-0.002422	3.282902	1.000000	0.000007	0.000038	-0.000062	0.618561	-10.926338	-178.513747
52271	2.469978	0.122244	12.856282	0.010603	0.016993	3.279269	1.000000	0.000001	0.000057	-0.000068	0.618321	-10.925092	-178.510638
52272	2.394120	0.147732	12.875103	0.089288	-0.006493	3.283644	1.000000	-0.000011	0.000038	-0.000046	0.616346	-10.925951	-178.508017
52273	2.425346	0.153183	12.902012	0.063898	-0.012455	3.316039	1.000000	0.000005	0.000050	-0.000085	0.617048	-10.925309	-178.511125
52274	2.526503	0.078364	12.837699	-0.049469	0.058836	3.271271	1.000000	0.000006	0.000026	-0.000051	0.617133	-10.927469	-178.509106
52275	2.488636	0.197248	12.881700	-0.000514	-0.058211	3.308555	1.000000	0.000008	0.000054	-0.000079	0.618121	-10.926471	-178.509756
52276	2.503282	0.094493	12.860737	-0.021591	0.043755	3.289660	1.000000	-0.000007	0.000025	-0.000057	0.616782	-10.928749	-178.508466
52277	2.509058	0.149592	12.909167	-0.016157	-0.010660	3.338889	1.000000	0.000014	0.000035	-0.000073	0.618360	-10.929920	-178.509309
52278	2.528137	0.168233	12.836955	-0.047775	-0.030570	3.271806	1.000000	0.000014	0.000035	-0.000073	0.619858	-10.931051	-178.509898
52279	2.542829	0.154937	12.887587	-0.052996	-0.016850	3.324161	1.000000	-0.000010	0.000055	-0.000063	0.618412	-10.929914	-178.510006
52280	2.479625	0.110963	12.859835	0.002349	0.028064	3.284466	1.000000	-0.000002	0.000052	-0.000074	0.618023	-10.929101	-178.510647
52281	2.475479	0.145057	12.834662	0.002532	-0.006272	3.259326	1.000000	0.000007	0.000043	-0.000068	0.618674	-10.929287	-178.511551
52282	2.451300	0.161234	12.881864	0.035579	-0.021063	3.301258	1.000000	-0.000002	0.000052	-0.000074	0.618287	-10.928474	-178.512192
52283	2.509928	0.116870	12.862942	-0.026924	0.021422	3.293322	1.000000	0.000004	0.000050	-0.000051	0.618087	-10.928000	-178.508835
52284	2.403400	0.136603	12.830620	0.071982	0.003806	3.241608	1.000000	-0.000006	0.000048	-0.000080	0.617439	-10.927701	-178.510162
52285	2.466935	0.147380	12.884297	0.020113	-0.007879	3.306463	1.000000	-0.000000	0.000040	-0.000051	0.616823	-10.928303	-178.508219
52286	2.470640	0.113680	12.885547	0.015966	0.025834	3.308036	1.000000	0.000014	0.000035	-0.000073	0.618328	-10.929435	-178.508805
52287	2.464844	0.148248	12.884687	0.022527	-0.008574	3.306459	1.000000	-0.000010	0.000049	-0.000057	0.616805	-10.928949	-178.509345
52288	2.484856	0.133149	12.862299	-0.001761	0.005393	3.288112	1.000000	-0.000003	0.000041	-0.000063	0.616080	-10.929427	-178.508675
52289	2.483784	0.133381	12.862504	-0.000539	0.005027	3.288112	1.000000	-0.000003	0.000041	-0.000063	0.615332	-10.929953	-178.506648
52290	2.497384	0.153242	12.863379	-0.013085	-0.015170	3.291760	1.000000	0.000008	0.000043	-0.000068	0.615940	-10.930180	-178.506589
52291	2.500923	0.119458	12.864672	-0.017270	0.018540	3.293343	1.000000	-0.000003	0.000047	-0.000068	0.615410	-10.929948	-178.507439
52292	2.493098	0.154601	12.888196	-0.004295	-0.015977	3.315327	1.000000	0.000008	0.000054	-0.000079	0.616364	-10.928886	-178.508688
52293	2.478994	0.135152	12.863409	0.004306	0.003582	3.288112	1.000000	0.000007	0.000038	-0.000062	0.616762	-10.929832	-178.505984
52294	2.490933	0.155768	12.888601	-0.001845	-0.016709	3.315327	1.000000	0.000014	0.000035	-0.000073	0.618274	-10.930966	-178.506568
52295	2.491611	0.155626	12.864470	-0.007042	-0.016994	3.291762	1.000000	-0.000013	0.000050	-0.000069	0.616525	-10.930285	-178.507425
52296	2.473921	0.136760	12.888370	0.014298	0.002407	3.311674	1.000000	-0.000006	0.000042	-0.000074	0.615715	-10.930634	-178.508095
52297	2.456926	0.150650	12.838162	0.021891	-0.012018	3.259304	1.000000	-0.000006	0.000048	-0.000080	0.614964	-10.930390	-178.506706
52298	2.473316	0.136737	12.864486	0.010346	0.001749	3.288109	1.000000	-0.000003	0.000047	-0.000068	0.614417	-10.930227	-178.506687
52299	2.491425	0.122225	12.866488	-0.007583	0.015574	3.293356	1.000000	-0.000009	0.000055	-0.000063	0.612873	-10.929197	-178.503725
52300	2.487292	0.156017	12.841303	-0.007343	-0.018763	3.268201	1.000000	-0.000006	0.000036	-0.000069	0.611894	-10.930191	-178.503739
52301	2.489096	0.122601	12.866936	-0.005149	0.014826	3.293358	1.000000	0.000001	0.000051	-0.000062	0.611498	-10.929578	-178.500099
52302	2.468390	0.137408	12.865425	0.015215	0.000268	3.288104	1.000000	-0.000019	0.000046	-0.000086	0.609444	-10.929406	-178.502151
52303	2.486738	0.122958	12.867388	-0.002748	0.014120	3.293359	1.000000	0.000010	0.000037	-0.000051	0.610051	-10.930326	-178.501734
52304	2.503273	0.109193	12.893694	-0.014290	0.027867	3.322177	1.000000	-0.000003	0.000047	-0.000068	0.609509	-10.930164	-178.501714
52305	2.466794	0.137931	12.841728	0.012417	-0.000700	3.264542	1.000000	0.000008	0.000049	-0.000074	0.610336	-10.929724	-178.502521
52306	2.499691	0.143331	12.844404	-0.019240	-0.006741	3.273462	1.000000	0.000008	0.000043	-0.000068	0.610955	-10.929954	-178.502456
52307	2.503179	0.109609	12.845728	-0.023523	0.026962	3.275069	1.000000	0.000001	0.000057	-0.000068	0.610893	-10.928470	-178.505012
52308	2.475787	0.159387	12.867479	0.008718	-0.021721	3.291754	1.000000	0.000002	0.000045	-0.000091	0.611339	-10.928438	-178.507630
52309	2.479498	0.125706	12.868759	0.004465	0.011973	3.293361	1.000000	0.000007	0.000038	-0.000062	0.611787	-10.929294	-178.506863
52310	2.458835	0.140631	12.867219	0.024839	-0.002564	3.288090	1.000000	-0.000012	0.000056	-0.000074	0.610260	-10.928098	-178.507539
52311	2.457719	0.141002	12.867428	0.026042	-0.002932	3.288087	1.000000	0.000014	0.000030	-0.000068	0.611566	-10.929839	-178.506984
52312	2.492576	0.145874	12.845758	-0.012025	-0.008916	3.273469	1.000000	-0.000002	0.000052	-0.000074	0.611202	-10.929035	-178.507615
52313	2.494267	0.112506	12.871423	-0.009874	0.024701	3.298637	1.000000	-0.000003	0.000047	-0.000068	0.610708	-10.928865	-178.508094
52314	2.488159	0.146973	12.870590	-0.003179	-0.009711	3.297024	1.000000	-0.000002	0.000052	-0.000074	0.610346	-10.928061	-178.508724
52315	2.488627	0.146938	12.846512	-0.008405	-0.009998	3.273471	1.000000	0.000012	0.000053	-0.000068	0.611376	-10.927088	-178.508605
52316	2.472828	0.127809	12.846032	0.006485	0.009528	3.269806	1.000000	-0.000006	0.000036	-0.000068	0.610409	-10.928087	-178.508615
52317	2.484464	0.148107	12.871291	0.000439	-0.010789	3.297023	1.000000	0.000001	0.000051	-0.000062	0.610192	-10.927366	-178.508915
52318	2.509112	0.099052	12.850107	-0.029461	0.037134	3.280382	1.000000	-0.000005	0.000065	-0.000063	0.609191	-10.925146	-178.508214
52319	2.481725	0.148793	12.871811	0.002838	-0.011515	3.297022	1.000000	0.000014	0.000030	-0.000068	0.610532	-10.926801	-178.509697
52320	2.480595	0.149329	12.872023	0.004051	-0.011875	3.297022	1.000000	0.000001	0.000057	-0.000068	0.610434	-10.925485	-178.509638
52321	2.496829	0.135688	12.898412	-0.007474	0.001848	3.325865	1.000000	0.000008	0.000049	-0.000074	0.611309	-10.925067	-178.510705
52322	2.460364	0.164340	12.846386	0.019213	-0.026645	3.268175	1.000000	-0.000002	0.000047	-0.000068	0.610780	-10.924909	-178.510680
52323	2.481431	0.116415	12.873869	0.002116	0.021100	3.298647	1.000000	0.000005	0.000061	-0.000062	0.610935	-10.922854	-178.512899
52324	2.475292	0.150885	12.873026	0.008852	-0.013303	3.297018	1.000000	-0.000006	0.000036	-0.000068	0.609974	-10.923854	-178.512907
52325	2.473915	0.151358	12.873285	0.010039	-0.013652	3.297017	1.000000	0.000016	0.000069	-0.000073	0.611698	-10.921018	-178.515270
52326	2.458069	0.132398	12.872802	0.024904	0.005893	3.293342	1.000000	0.000006	0.000026	-0.000051	0.611811	-10.923183	-178.513238
52327	2.507562	0.156639	12.851901	-0.026827	-0.020064	3.282450	1.000000	-0.000009	0.000054	-0.000063	0.610382	-10.922100	-178.512524
52328	2.489715	0.137796	12.875785	-0.005511	-0.000599	3.302322	1.000000	0.000001	0.000051	-0.000062	0.610116	-10.921431	-178.511809
52329	2.456244	0.132639	12.849164	0.022076	0.004897	3.269791	1.000000	-0.000002	0.000046	-0.000068	0.609574	-10.921289	-178.511058
52330	2.472765	0.118770	12.875514	0.010556	0.018586	3.298647	1.000000	-0.000006	0.000036	-0.000068	0.608618	-10.922291	-178.511065
52331	2.421065	0.095162	12.896814	0.064693	0.043853	3.309519	1.000000	0.000015	0.000052	-0.000056	0.609764	-10.921497	-178.509298
52332	2.491856	0.104621	12.853420	-0.012684	0.032065	3.280422	1.000000	0.000001	0.000034	-0.000080	0.609886	-10.922759	-178.510600
52333	2.469546	0.120180	12.876119	0.014163	0.017460	3.298645	1.000000	0.000007	0.000038	-0.000062	0.610145	-10.923538	-178.508927
52334	2.472226	0.119386	12.827656	0.002433	0.017258	3.251562	1.000000	-0.000019	0.000046	-0.000086	0.608121	-10.923379	-178.510972
52335	2.481971	0.140316	12.877253	0.002956	-0.003173	3.302323	1.000000	0.000018	0.000034	-0.000062	0.609781	-10.924633	-178.510331
52336	2.466283	0.121290	12.876734	0.017790	0.016391	3.298642	1.000000	0.000001	0.000051	-0.000062	0.609519	-10.923965	-178.509614
52337	2.479685	0.141271	12.877683	0.005354	-0.003913	3.302322	1.000000	0.000004	0.000039	-0.000074	0.609819	-10.924590	-178.510670
52338	2.478686	0.141760	12.877870	0.006568	-0.004274	3.302321	1.000000	0.000007	0.000038	-0.000062	0.610287	-10.925469	-178.509943
52339	2.500928	0.126693	12.831222	-0.024393	0.009641	3.260578	1.000000	0.000008	0.000043	-0.000068	0.611014	-10.925670	-178.510809
52340	2.496003	0.128244	12.880105	-0.010219	0.009123	3.307655	1.000000	0.000008	0.000043	-0.000068	0.611658	-10.925906	-178.510734
52341	2.545390	0.152596	12.859282	-0.061927	-0.016906	3.296825	1.000000	-0.000013	0.000044	-0.000063	0.609920	-10.925941	-178.512245
52342	2.510023	0.147605	12.856976	-0.027902	-0.011434	3.287806	1.000000	-0.000012	0.000055	-0.000074	0.608418	-10.924757	-178.512913
52343	2.494195	0.128329	12.856484	-0.013084	0.008134	3.284123	1.000000	0.000011	0.000042	-0.000056	0.609127	-10.925144	-178.510819
52344	2.507493	0.148236	12.857462	-0.025472	-0.012167	3.287810	1.000000	-0.000009	0.000054	-0.000063	0.607709	-10.924089	-178.510146
52345	2.484622	0.163530	12.880240	0.001447	-0.026679	3.306000	1.000000	0.000002	0.000057	-0.000068	0.607690	-10.922784	-178.510099
52346	2.475549	0.109641	12.856529	0.004138	0.027005	3.280439	1.000000	0.000001	0.000051	-0.000062	0.607434	-10.922118	-178.509380
52347	2.225695	0.264968	12.833933	0.249471	-0.122377	3.212540	1.000000	-0.000006	0.000036	-0.000068	0.606499	-10.923023	-178.510792
52348	2.748897	-0.005367	12.905675	-0.258305	0.135307	3.379276	1.000000	-0.000012	0.000072	-0.000057	0.604612	-10.919909	-178.509441
52349	2.212611	0.178792	12.908849	0.273751	-0.035260	3.282725	1.000000	0.000007	0.000026	-0.000051	0.604708	-10.922128	-178.506197
52350	2.628406	0.237839	12.842691	-0.144625	-0.105821	3.297144	1.000000	0.000001	0.000017	-0.000097	0.605237	-10.925326	-178.509511
52351	2.507152	0.082259	12.885603	-0.021770	0.053293	3.314689	1.000000	-0.000015	0.000068	-0.000063	0.603213	-10.922724	-178.509419
52352	2.555182	0.139623	12.815116	-0.080814	-0.006708	3.255177	1.000000	-0.000006	0.000036	-0.000068	0.602274	-10.923732	-178.509420
52353	2.506465	0.081956	12.861778	-0.025867	0.052639	3.291166	1.000000	-0.000012	0.000061	-0.000080	0.600954	-10.921919	-178.510228
52354	2.425072	0.140653	12.878972	0.058744	-0.004044	3.293235	1.000000	-0.000010	0.000043	-0.000051	0.599193	-10.922153	-178.508247
52355	2.593884	0.166253	12.892278	-0.103982	-0.033887	3.338539	1.000000	0.000002	0.000068	-0.000079	0.599541	-10.919600	-178.509447
52356	2.390548	0.013623	12.855110	0.084017	0.123261	3.261964	1.000000	0.000001	0.000045	-0.000057	0.599118	-10.919579	-178.508072
52357	2.541903	0.264363	12.886938	-0.051763	-0.130789	3.324456	1.000000	0.000002	0.000062	-0.000074	0.599170	-10.917575	-178.508807
52358	2.436389	0.038982	12.858994	0.040049	0.096672	3.274722	1.000000	-0.000006	0.000042	-0.000074	0.598410	-10.917941	-178.509459
52359	2.513961	0.224549	12.837299	-0.035248	-0.091441	3.270013	1.000000	-0.000013	0.000067	-0.000052	0.596368	-10.915454	-178.507462
52360	2.462415	0.078445	12.861087	0.015338	0.056028	3.282114	1.000000	0.000002	0.000057	-0.000068	0.596298	-10.914147	-178.507391
52361	2.499425	0.171714	12.862564	-0.018412	-0.038270	3.291525	1.000000	-0.000003	0.000058	-0.000045	0.595174	-10.912719	-178.504342
52362	2.440043	0.093443	12.859759	0.036980	0.041260	3.276731	1.000000	-0.000002	0.000046	-0.000068	0.594674	-10.912571	-178.504306
52363	2.514371	0.158228	12.889269	-0.028694	-0.025012	3.320435	1.000000	0.000001	0.000051	-0.000062	0.594512	-10.911858	-178.504656
52364	2.430378	0.128736	12.883487	0.051611	0.006484	3.298561	1.000000	0.000002	0.000057	-0.000068	0.594444	-10.910552	-178.504584
52365	2.472438	0.187957	12.886067	0.012227	-0.053779	3.309659	1.000000	-0.000005	0.000053	-0.000085	0.594160	-10.909684	-178.506608
52366	2.463771	0.134096	12.862291	0.014732	-0.000076	3.284123	1.000000	0.000008	0.000037	-0.000062	0.594648	-10.910566	-178.505871
52367	2.441041	0.149374	12.884972	0.041727	-0.014545	3.302249	1.000000	-0.000012	0.000055	-0.000074	0.593104	-10.909395	-178.505592
52368	2.500363	0.105667	12.866523	-0.021330	0.027242	3.294913	1.000000	0.000005	0.000044	-0.000079	0.593690	-10.909507	-178.506847
52369	2.453035	0.169697	12.886213	0.030648	-0.035251	3.305944	1.000000	-0.000002	0.000046	-0.000068	0.593148	-10.909425	-178.505270
52370	2.444440	0.115681	12.862427	0.033110	0.018459	3.280413	1.000000	-0.000005	0.000042	-0.000074	0.592399	-10.909795	-178.505919
52371	2.504523	0.160628	12.891156	-0.018926	-0.027920	3.320447	1.000000	-0.000020	0.000030	-0.000069	0.589902	-10.911589	-178.505683
52372	2.442528	0.115866	12.862789	0.035527	0.017752	3.280407	1.000000	0.000002	0.000045	-0.000091	0.590413	-10.911575	-178.508277
52373	2.487801	0.141582	12.890803	-0.003003	-0.008656	3.316742	1.000000	0.000001	0.000051	-0.000062	0.590163	-10.910816	-178.508612
52374	2.471941	0.122137	12.890284	0.011719	0.010979	3.313035	1.000000	-0.000012	0.000055	-0.000074	0.588688	-10.909642	-178.509272
52375	2.451294	0.136851	12.888600	0.032176	-0.003385	3.307623	1.000000	0.000004	0.000027	-0.000062	0.588747	-10.911656	-178.508413
52376	2.471822	0.122254	12.866355	0.007574	0.010329	3.289517	1.000000	0.000001	0.000051	-0.000062	0.588511	-10.910995	-178.507685
52377	2.470554	0.122565	12.866595	0.008770	0.009964	3.289517	1.000000	-0.000002	0.000046	-0.000068	0.587999	-10.910789	-178.508101
52378	2.469473	0.122800	12.866800	0.009979	0.009605	3.289516	1.000000	-0.000006	0.000036	-0.000068	0.587080	-10.911803	-178.508096
52379	2.486884	0.141843	12.819132	-0.015429	-0.010612	3.246198	1.000000	0.000008	0.000043	-0.000068	0.587793	-10.912095	-178.507036
52380	2.469310	0.123218	12.842879	0.005839	0.008966	3.266002	1.000000	0.000008	0.000043	-0.000068	0.588466	-10.912336	-178.506947
52381	2.498114	0.129835	12.894457	-0.012547	0.002441	3.322163	1.000000	0.000001	0.000051	-0.000062	0.588198	-10.911713	-178.504926
52382	2.498989	0.129894	12.870343	-0.017908	0.002146	3.298652	1.000000	0.000015	0.000035	-0.000073	0.589779	-10.912856	-178.505477
52383	2.476092	0.145300	12.893016	0.009167	-0.012267	3.316736	1.000000	-0.000008	0.000065	-0.000074	0.588734	-10.910628	-178.504583
52384	2.532279	0.135422	12.849243	-0.054783	-0.004551	3.284289	1.000000	0.000005	0.000044	-0.000079	0.589334	-10.910744	-178.505832
52385	2.480684	0.111410	12.870283	-0.000797	0.021097	3.294942	1.000000	-0.000005	0.000042	-0.000074	0.588697	-10.911031	-178.508043
52386	2.474384	0.145790	12.869392	0.006208	-0.013257	3.293223	1.000000	-0.000002	0.000046	-0.000068	0.588214	-10.910889	-178.507999
52387	2.498084	0.097586	12.872610	-0.017664	0.034333	3.300380	1.000000	0.000004	0.000033	-0.000068	0.588403	-10.912220	-178.508312
52388	2.472174	0.146572	12.869808	0.008618	-0.013990	3.293220	1.000000	0.000002	0.000056	-0.000068	0.588352	-10.910920	-178.508232
52389	2.470946	0.147015	12.870039	0.009836	-0.014342	3.293219	1.000000	0.000008	0.000037	-0.000062	0.588886	-10.911828	-178.507482
52390	2.455538	0.127945	12.869417	0.024508	0.005326	3.289500	1.000000	0.000009	0.000037	-0.000096	0.590322	-10.912719	-178.510710
52391	2.488330	0.133737	12.872369	-0.007026	-0.001106	3.298662	1.000000	0.000002	0.000056	-0.000068	0.590241	-10.911358	-178.511092
52392	2.472568	0.114388	12.871818	0.007639	0.018563	3.294943	1.000000	-0.000002	0.000046	-0.000068	0.589763	-10.911217	-178.511047
52393	2.487775	0.134023	12.848535	-0.011217	-0.001753	3.275158	1.000000	0.000009	0.000049	-0.000073	0.590669	-10.910751	-178.512442
52394	2.486651	0.134571	12.848746	-0.010008	-0.002115	3.275159	1.000000	0.000008	0.000037	-0.000062	0.591176	-10.911637	-178.511697
52395	2.469287	0.115848	12.872435	0.011246	0.017509	3.294942	1.000000	0.000004	0.000033	-0.000068	0.591494	-10.913024	-178.511754
52396	2.462926	0.150379	12.871537	0.018294	-0.016835	3.293207	1.000000	0.000002	0.000056	-0.000068	0.591448	-10.911725	-178.511671
52397	2.483339	0.135915	12.849373	-0.006389	-0.003149	3.275161	1.000000	0.000008	0.000037	-0.000062	0.592110	-10.912588	-178.512026
52398	2.496791	0.156240	12.850362	-0.018615	-0.023551	3.278885	1.000000	0.000015	0.000035	-0.000073	0.593705	-10.913732	-178.512571
52399	2.479268	0.137543	12.874077	0.002647	-0.003938	3.298664	1.000000	-0.000005	0.000047	-0.000080	0.593139	-10.913484	-178.513443
52400	2.492512	0.157503	12.875111	-0.009571	-0.024343	3.302388	1.000000	-0.000002	0.000041	-0.000062	0.592488	-10.913988	-178.512744
52401	2.493471	0.157257	12.850994	-0.014959	-0.024666	3.278888	1.000000	-0.000005	0.000042	-0.000074	0.591655	-10.914416	-178.512112
52402	2.504532	0.177757	12.876380	-0.020551	-0.045141	3.306115	1.000000	0.000002	0.000056	-0.000068	0.591613	-10.913119	-178.512028
52403	2.508499	0.143808	12.877744	-0.025211	-0.011526	3.307860	1.000000	-0.000016	0.000040	-0.000069	0.589549	-10.913718	-178.511988
52404	2.509237	0.143347	12.853677	-0.030620	-0.011827	3.284364	1.000000	-0.000011	0.000061	-0.000080	0.588275	-10.911913	-178.513291
52405	2.505611	0.144119	12.878303	-0.022785	-0.012261	3.307864	1.000000	0.000008	0.000060	-0.000051	0.588529	-10.910217	-178.511102
52406	2.504166	0.144524	12.878579	-0.021571	-0.012625	3.307866	1.000000	0.000001	0.000051	-0.000062	0.588312	-10.909563	-178.510365
52407	2.490462	0.124537	12.853699	-0.013547	0.007096	3.280641	1.000000	-0.000012	0.000055	-0.000074	0.586698	-10.908533	-178.508213
52408	2.485057	0.125814	12.902587	0.000925	0.006611	3.327634	1.000000	0.000008	0.000043	-0.000068	0.587391	-10.908780	-178.508115
52409	2.456024	0.119483	12.827074	0.014952	0.012572	3.247932	1.000000	0.000001	0.000051	-0.000062	0.587111	-10.908188	-178.505901
52410	2.484640	0.126106	12.878737	-0.003270	0.005936	3.304139	1.000000	0.000001	0.000045	-0.000057	0.586719	-10.908178	-178.504512
52411	2.487769	0.125528	12.830285	-0.015326	0.005697	3.257151	1.000000	0.000007	0.000032	-0.000056	0.587061	-10.909745	-178.502900
52412	2.484636	0.126261	12.854809	-0.007479	0.005275	3.280646	1.000000	-0.000012	0.000050	-0.000069	0.585436	-10.909227	-178.502899
52413	2.497545	0.146215	12.855921	-0.019642	-0.015144	3.284381	1.000000	0.000002	0.000062	-0.000073	0.585635	-10.907366	-178.502697
52414	2.515939	0.132448	12.858117	-0.037735	-0.001610	3.289879	1.000000	0.000021	0.000033	-0.000050	0.587388	-10.908763	-178.500558
52415	2.473393	0.161980	12.878742	0.008729	-0.029818	3.302378	1.000000	-0.000022	0.000059	-0.000075	0.584802	-10.907188	-178.501825
52416	2.493609	0.147225	12.856674	-0.016012	-0.016227	3.284385	1.000000	0.000002	0.000056	-0.000068	0.584770	-10.905895	-178.501736
52417	2.463522	0.107971	12.855260	0.011971	0.023574	3.276912	1.000000	-0.000012	0.000050	-0.000069	0.583168	-10.905461	-178.500472
52418	2.488769	0.148135	12.881523	-0.006915	-0.017005	3.307877	1.000000	0.000005	0.000055	-0.000056	0.583210	-10.904293	-178.499043
52419	2.473151	0.128719	12.880922	0.007675	0.002754	3.304139	1.000000	-0.000005	0.000042	-0.000074	0.582665	-10.904705	-178.500146
52420	2.461033	-0.332765	13.256966	0.077492	0.469347	3.666492	1.000000	-0.000045	0.000061	-0.000081	0.577495	-10.902920	-178.501630
52421	1.638872	1.203756	13.033995	0.886676	-1.055407	3.306758	0.999998	-0.000181	0.000158	0.002180	0.506862	-10.892620	-178.236586
52422	0.131203	-1.394923	13.862106	2.442051	1.594941	3.811319	1.000000	0.000104	-0.000047	-0.000819	0.535071	-10.902448	-178.324307
52423	4.832674	0.499024	12.707643	-2.322817	-0.440640	3.585009	1.000000	0.000314	-0.000514	-0.000743	0.586126	-10.965589	-178.407206
52424	2.024100	0.263041	11.170583	0.144271	-0.147131	1.540974	1.000000	-0.000183	-0.000174	0.000144	0.560287	-10.990927	-178.382619
52425	3.246917	0.566017	13.645499	-0.574152	-0.448382	4.206292	1.000000	0.000001	0.000114	-0.000147	0.562099	-10.982886	-178.393811
52426	2.912246	0.008666	12.574850	-0.466508	0.102407	3.086149	1.000000	0.000051	0.000012	-0.000037	0.566971	-10.986714	-178.390221
52427	3.048982	0.531228	12.871004	-0.530329	-0.417663	3.407961	1.000000	0.000018	0.000183	-0.000299	0.574217	-10.970601	-178.419969
52428	2.790208	0.564368	12.922978	-0.268390	-0.442522	3.409992	1.000000	-0.000029	0.000112	-0.000092	0.571121	-10.962895	-178.422609
52429	3.127268	-0.214936	12.625321	-0.680857	0.321630	3.174142	1.000000	-0.000081	0.000157	-0.000134	0.563275	-10.949838	-178.433104
52430	2.259653	-0.169219	12.796124	0.200995	0.300709	3.177487	1.000000	-0.000028	0.000197	-0.000199	0.562732	-10.932260	-178.448188
52431	2.306703	0.122693	12.893579	0.178796	0.009816	3.284956	1.000000	0.000052	0.000114	-0.000128	0.570060	-10.924243	-178.457761
52432	2.383710	0.066130	12.877874	0.096011	0.064943	3.283596	1.000000	-0.000003	0.000172	-0.000158	0.571446	-10.909604	-178.468106
52433	1.661875	0.407614	12.858047	0.809081	-0.258020	3.130889	1.000000	-0.000014	0.000033	0.000028	0.567709	-10.911101	-178.458958
52434	2.562462	-0.340972	12.927233	-0.084207	0.466761	3.361942	1.000000	-0.000027	0.000128	-0.000063	0.564287	-10.901592	-178.458239
52435	1.803162	-0.036582	13.026792	0.688982	0.183897	3.319011	1.000000	0.000036	-0.000063	0.000053	0.565839	-10.914117	-178.446193
52436	2.651931	0.418374	12.723999	-0.185879	-0.297936	3.186720	1.000000	-0.000005	-0.000021	0.000011	0.563307	-10.921808	-178.436989
52437	2.214168	-0.238376	12.919182	0.263219	0.372496	3.289091	1.000000	-0.000023	-0.000009	-0.000030	0.559765	-10.927986	-178.434660
52438	3.184232	0.030834	12.777501	-0.705453	0.074960	3.336515	1.000000	0.000032	-0.000084	0.000064	0.560253	-10.942974	-178.419397
52439	2.353920	0.237557	12.872768	0.134475	-0.107028	3.274558	1.000000	0.000048	0.000104	-0.000128	0.567125	-10.936144	-178.428166
52440	2.942611	0.206773	12.802515	-0.457609	-0.091965	3.316983	1.000000	0.000046	-0.000009	-0.000026	0.571220	-10.942409	-178.423305
52441	3.045632	0.344869	12.760223	-0.562957	-0.233071	3.296349	1.000000	-0.000006	0.000122	-0.000062	0.570250	-10.933715	-178.423381
52442	2.224694	-0.093268	12.893952	0.253820	0.228925	3.267646	1.000000	0.000007	0.000078	-0.000079	0.571024	-10.929984	-178.424552
52443	3.026005	0.260819	12.884461	-0.525731	-0.146117	3.413663	1.000000	0.000028	0.000133	-0.000117	0.575319	-10.919719	-178.432474
52444	2.089993	0.118713	12.977652	0.403853	0.023202	3.326490	1.000000	0.000022	0.000152	-0.000123	0.578823	-10.907379	-178.438733
52445	2.615735	0.252805	12.899747	-0.125407	-0.125415	3.350822	1.000000	0.000013	0.000115	-0.000107	0.581248	-10.899197	-178.445792
52446	2.185742	0.169096	12.913418	0.294237	-0.030067	3.282157	1.000000	-0.000018	0.000171	-0.000131	0.580298	-10.884695	-178.452900
52447	1.886177	0.174226	12.887418	0.581944	-0.027609	3.200158	1.000000	0.000016	0.000041	-0.000079	0.582329	-10.885172	-178.455897
52448	2.465531	0.299808	12.838724	0.007497	-0.169004	3.262975	1.000000	-0.000009	0.000060	-0.000114	0.582048	-10.883391	-178.461157
52449	1.712706	0.058791	12.850284	0.742002	0.091533	3.129788	1.000000	-0.000024	0.000014	-0.000064	0.579088	-10.887060	-178.460855
52450	2.589406	0.146679	12.901989	-0.104791	-0.019066	3.346967	1.000000	-0.000012	-0.000041	-0.000069	0.577542	-10.896966	-178.461002
52451	2.219717	0.052796	12.895270	0.256007	0.084126	3.269564	1.000000	-0.000014	-0.000012	-0.000075	0.576096	-10.903380	-178.463511
52452	2.370696	0.216387	12.880803	0.111599	-0.083579	3.285506	1.000000	0.000013	-0.000038	-0.000068	0.577301	-10.912886	-178.463517
52453	2.817822	0.076601	12.849565	-0.335370	0.043843	3.338089	1.000000	-0.000016	-0.000012	-0.000041	0.574806	-10.919370	-178.461264
52454	2.273612	0.077526	12.850201	0.200218	0.056799	3.235672	1.000000	-0.000002	0.000007	-0.000017	0.573176	-10.923855	-178.455315
52455	2.908720	0.040021	12.882871	-0.416921	0.078070	3.387718	1.000000	0.000014	-0.000004	-0.000067	0.574683	-10.929428	-178.456615
52456	2.548242	0.088983	12.899000	-0.057745	0.039248	3.335726	1.000000	0.000026	0.000026	-0.000021	0.576410	-10.931711	-178.451137
52457	2.705954	0.129590	12.814482	-0.227248	-0.006434	3.283046	1.000000	0.000007	0.000055	-0.000090	0.577630	-10.930542	-178.454940
52458	2.706514	0.064243	12.914379	-0.211263	0.060844	3.380576	1.000000	0.000027	0.000071	-0.000078	0.580737	-10.927573	-178.456002
52459	2.422046	0.211175	12.862207	0.061368	-0.078365	3.276902	1.000000	0.000045	0.000088	-0.000077	0.586051	-10.922607	-178.458129
52460	2.650778	0.196553	12.859086	-0.165321	-0.069155	3.317020	1.000000	0.000005	0.000090	-0.000102	0.587135	-10.917474	-178.461931
52461	2.224365	0.232825	12.820917	0.245578	-0.094854	3.199177	1.000000	-0.000010	0.000111	-0.000062	0.585688	-10.909780	-178.462014
52462	2.434379	0.198477	12.865618	0.045638	-0.065622	3.282477	1.000000	-0.000004	0.000075	-0.000074	0.585140	-10.906316	-178.462577
52463	2.299783	0.143078	12.879689	0.177937	-0.006555	3.270285	1.000000	0.000009	0.000083	-0.000039	0.585288	-10.902029	-178.459740
52464	2.230315	0.253571	12.847171	0.242720	-0.116019	3.226332	1.000000	-0.000026	0.000043	-0.000069	0.582115	-10.902306	-178.459821
52465	2.458176	0.116847	12.895184	0.024390	0.014981	3.315193	1.000000	-0.000003	0.000030	-0.000051	0.581442	-10.903923	-178.459736
52466	2.238311	0.152586	12.923908	0.247011	-0.014971	3.302170	1.000000	-0.000021	0.000035	-0.000041	0.578222	-10.905087	-178.456490
52467	2.479525	0.068636	12.923030	0.008082	0.061955	3.346095	1.000000	-0.000023	0.000025	-0.000075	0.575711	-10.907454	-178.457742
52468	2.396033	0.070968	12.866484	0.080344	0.060736	3.274798	1.000000	0.000012	-0.000004	-0.000033	0.576093	-10.913093	-178.453716
52469	2.415712	0.057170	12.868548	0.062166	0.074181	3.280406	1.000000	0.000001	0.000006	-0.000085	0.576542	-10.917561	-178.456385
52470	2.621523	0.090346	12.862003	-0.139006	0.035413	3.313283	1.000000	-0.000013	-0.000001	-0.000086	0.575255	-10.922850	-178.458454
52471	2.498989	-0.000170	12.828160	-0.026494	0.128653	3.255954	1.000000	0.000002	-0.000006	-0.000108	0.576409	-10.928498	-178.464571
52472	2.689472	0.102704	12.867900	-0.201821	0.021877	3.332100	1.000000	0.000020	0.000006	-0.000101	0.579149	-10.932999	-178.468433
52473	2.614667	0.159808	12.811090	-0.136673	-0.033388	3.262719	1.000000	0.000021	0.000017	-0.000112	0.582359	-10.936142	-178.474539
52474	2.627150	0.147913	12.886204	-0.134513	-0.020160	3.338721	1.000000	0.000010	0.000031	-0.000090	0.583702	-10.937690	-178.477088
52475	2.654579	0.188381	12.888195	-0.159749	-0.060843	3.346288	1.000000	0.000022	0.000044	-0.000061	0.586062	-10.937715	-178.477272
52476	2.553730	0.171581	12.855233	-0.067531	-0.041868	3.294627	1.000000	-0.000012	0.000049	-0.000068	0.584483	-10.937215	-178.477260
52477	2.646645	0.167346	12.790570	-0.171235	-0.041207	3.248721	1.000000	0.000002	0.000051	-0.000062	0.584446	-10.936492	-178.477296
52478	2.539007	0.151908	12.830554	-0.058694	-0.022345	3.267405	1.000000	0.000014	0.000058	-0.000027	0.584894	-10.935058	-178.472489
52479	2.515596	0.166791	12.853078	-0.031340	-0.036442	3.285227	1.000000	-0.000013	0.000055	-0.000040	0.582752	-10.933804	-178.470365
52480	2.569968	0.157757	12.834121	-0.088880	-0.029481	3.276832	1.000000	0.000004	0.000061	-0.000028	0.582042	-10.931992	-178.465609
52481	2.460958	0.175224	12.824326	0.016228	-0.044341	3.246720	1.000000	0.000001	0.000068	-0.000045	0.581688	-10.929255	-178.464135
52482	2.547861	0.139260	12.882516	-0.059714	-0.010069	3.319964	1.000000	-0.000009	0.000071	-0.000045	0.579937	-10.926303	-178.461419
52483	2.500007	0.113502	12.854684	-0.019534	0.016308	3.283311	1.000000	0.000003	0.000079	-0.000056	0.579896	-10.922394	-178.460898
52484	2.481950	0.094451	12.878392	0.001660	0.036095	3.302978	1.000000	-0.000004	0.000047	-0.000079	0.579421	-10.922151	-178.462171
52485	2.550482	0.105646	12.860390	-0.069090	0.022889	3.298394	1.000000	0.000004	0.000073	-0.000085	0.580242	-10.918923	-178.465223
52486	2.467501	0.163433	12.876683	0.016479	-0.032391	3.299250	1.000000	-0.000003	0.000064	-0.000096	0.580316	-10.916759	-178.468443
52487	2.497534	0.169965	12.904315	-0.008149	-0.039239	3.332133	1.000000	0.000000	0.000063	-0.000085	0.580624	-10.914405	-178.471142
52488	2.481532	0.150458	12.903741	0.006249	-0.019400	3.328346	1.000000	-0.000006	0.000076	-0.000085	0.580031	-10.910826	-178.473036
52489	2.447959	0.144694	12.876772	0.033199	-0.013199	3.295456	1.000000	0.000001	0.000068	-0.000090	0.580461	-10.908014	-178.476097
52490	2.463764	0.131417	12.903497	0.021825	0.000110	3.324556	1.000000	0.000003	0.000062	-0.000073	0.580665	-10.906094	-178.476639
52491	2.384562	0.099468	12.848216	0.087694	0.033088	3.254978	1.000000	-0.000015	0.000067	-0.000063	0.578796	-10.903440	-178.476771
52492	2.389314	0.154126	12.872564	0.088773	-0.021416	3.280331	1.000000	0.000010	0.000054	-0.000079	0.579918	-10.902415	-178.477947
52493	2.375924	0.133899	12.847601	0.096314	-0.001456	3.253089	1.000000	-0.000026	0.000060	-0.000052	0.576597	-10.900686	-178.476983
52494	2.338511	0.128750	12.869091	0.136899	0.004671	3.267066	1.000000	0.000014	0.000035	-0.000039	0.577297	-10.901826	-178.473535
52495	2.374835	0.100941	12.897786	0.106111	0.031698	3.301833	1.000000	-0.000023	0.000036	-0.000052	0.574126	-10.902819	-178.471962
52496	2.376383	0.100340	12.873614	0.100496	0.031396	3.278383	1.000000	-0.000004	0.000018	-0.000040	0.572812	-10.905903	-178.468648
52497	2.447077	0.078222	12.905280	0.037153	0.051897	3.322627	1.000000	-0.000004	0.000018	-0.000040	0.571678	-10.908949	-178.466262
52498	2.445514	0.111703	12.855584	0.030962	0.017723	3.273862	1.000000	0.000014	0.000018	-0.000056	0.572805	-10.912023	-178.464828
52499	2.476622	0.118534	12.883036	0.006443	0.010830	3.306770	1.000000	0.000018	0.000023	-0.000050	0.574348	-10.914576	-178.463475
52500	2.560441	0.149952	12.865849	-0.077423	-0.022788	3.306074	1.000000	0.000008	0.000009	-0.000068	0.574987	-10.918690	-178.463418
52501	2.551179	0.096737	12.866230	-0.069377	0.030999	3.304171	1.000000	0.000017	0.000046	-0.000084	0.577180	-10.918382	-178.465789
52502	2.590112	0.157576	12.893585	-0.100748	-0.030083	3.339004	1.000000	0.000009	0.000048	-0.000073	0.578125	-10.918000	-178.466315
52503	2.601230	0.122612	12.822117	-0.126348	0.003577	3.270590	1.000000	-0.000004	0.000053	-0.000085	0.577911	-10.916982	-178.468429
52504	2.533455	0.166949	12.888982	-0.046387	-0.037927	3.323847	1.000000	0.000004	0.000073	-0.000084	0.578492	-10.913783	-178.470264
52505	2.513951	0.181070	12.862942	-0.032606	-0.051882	3.294725	1.000000	-0.000003	0.000081	-0.000079	0.578324	-10.909653	-178.472219
52506	2.463806	0.155777	12.859328	0.014278	-0.025445	3.281437	1.000000	-0.000003	0.000081	-0.000079	0.577991	-10.905560	-178.473418
52507	2.408107	0.164331	12.854499	0.067447	-0.032838	3.266246	1.000000	-0.000017	0.000074	-0.000080	0.576313	-10.902271	-178.475817
52508	2.356118	0.139458	12.875076	0.121165	-0.006415	3.276377	1.000000	0.000010	0.000054	-0.000079	0.577448	-10.901249	-178.476988
52509	2.334567	0.153788	12.873260	0.141771	-0.020386	3.270667	1.000000	-0.000024	0.000082	-0.000074	0.574747	-10.896958	-178.478229
52510	2.324734	0.100058	12.873740	0.149792	0.033408	3.268751	1.000000	0.000015	0.000024	-0.000061	0.576068	-10.899392	-178.477440
52511	2.343996	0.086250	12.875972	0.131561	0.046750	3.274441	1.000000	-0.000013	0.000016	-0.000069	0.574529	-10.902696	-178.478045
52512	2.411627	0.097830	12.882193	0.067703	0.033223	3.293446	1.000000	-0.000007	-0.000003	-0.000063	0.573411	-10.908237	-178.477431
52513	2.447950	0.103399	12.860961	0.029500	0.026350	3.279520	1.000000	0.000006	-0.000007	-0.000051	0.573676	-10.914180	-178.476008
52514	2.521701	0.081405	12.868279	-0.040670	0.046681	3.300450	1.000000	0.000010	-0.000014	-0.000068	0.574635	-10.920990	-178.475975
52515	2.572305	0.107093	12.847961	-0.092000	0.019511	3.290346	1.000000	-0.000002	-0.000010	-0.000080	0.574432	-10.927098	-178.477233
52516	2.636585	0.152721	12.828679	-0.156374	-0.027933	3.284056	1.000000	0.000014	0.000018	-0.000056	0.575570	-10.930173	-178.475794
52517	2.655938	0.139228	12.830904	-0.174606	-0.014629	3.289785	1.000000	0.000008	0.000015	-0.000073	0.576609	-10.933576	-178.477228
52518	2.635364	0.154103	12.828914	-0.153965	-0.028644	3.284083	1.000000	0.000022	0.000044	-0.000061	0.578784	-10.933690	-178.476357
52519	2.648323	0.174756	12.830092	-0.165883	-0.049267	3.287903	1.000000	0.000009	0.000043	-0.000067	0.579612	-10.933761	-178.476027
52520	2.638826	0.209831	12.853499	-0.151446	-0.083568	3.309430	1.000000	0.000010	0.000071	-0.000061	0.580321	-10.930806	-178.475181
52521	2.574746	0.164535	12.848883	-0.091586	-0.036750	3.292291	1.000000	-0.000010	0.000083	-0.000068	0.579103	-10.926290	-178.475416
52522	2.532891	0.193024	12.845022	-0.051502	-0.064365	3.280845	1.000000	0.000004	0.000090	-0.000067	0.579265	-10.921161	-178.475231
52523	2.494421	0.188095	12.866642	-0.010892	-0.058087	3.294735	1.000000	0.000003	0.000084	-0.000062	0.579400	-10.916684	-178.475184
52524	2.427987	0.143082	12.886284	0.055863	-0.011307	3.300995	1.000000	-0.000017	0.000074	-0.000080	0.577494	-10.913383	-178.476472
52525	2.428286	0.142475	12.862368	0.050189	-0.011596	3.277566	1.000000	-0.000024	0.000082	-0.000074	0.574794	-10.909180	-178.477702
52526	2.378458	0.116821	12.858614	0.096972	0.014976	3.264202	1.000000	0.000003	0.000062	-0.000073	0.575026	-10.907266	-178.478232
52527	2.396898	0.102935	12.861033	0.078700	0.028278	3.269931	1.000000	-0.000012	0.000044	-0.000063	0.573477	-10.907261	-178.477727
52528	2.393455	0.103512	12.885537	0.086795	0.027898	3.293346	1.000000	-0.000004	0.000041	-0.000074	0.572858	-10.907669	-178.478338
52529	2.465961	0.081385	12.893208	0.016587	0.048117	3.314376	1.000000	-0.000005	0.000036	-0.000068	0.572186	-10.908598	-178.478478
52530	2.453223	0.061224	12.868126	0.023953	0.068069	3.287141	1.000000	-0.000004	0.000041	-0.000074	0.571569	-10.909006	-178.479089
52531	2.474679	0.135447	12.869055	0.005442	-0.006670	3.292841	1.000000	0.000002	0.000028	-0.000073	0.571883	-10.910950	-178.480605
52532	2.511255	0.108435	12.897834	-0.025341	0.020132	3.327755	1.000000	0.000023	0.000027	-0.000078	0.574506	-10.912998	-178.481740
52533	2.509092	0.142079	12.848246	-0.031517	-0.014048	3.278988	1.000000	-0.000011	0.000055	-0.000074	0.573113	-10.911935	-178.482600
52534	2.525284	0.128949	12.874968	-0.042852	-0.000852	3.308160	1.000000	0.000023	0.000044	-0.000061	0.575301	-10.912049	-178.481722
52535	2.518251	0.163754	12.874005	-0.035255	-0.035060	3.306228	1.000000	0.000016	0.000052	-0.000056	0.576696	-10.911162	-178.480392
52536	2.482960	0.158429	12.871111	-0.001550	-0.028722	3.296655	1.000000	0.000003	0.000056	-0.000068	0.576751	-10.909891	-178.480271
52537	2.481506	0.158840	12.871386	-0.000374	-0.029063	3.296654	1.000000	0.000005	0.000055	-0.000056	0.576942	-10.908574	-178.478481
52538	2.446119	0.153400	12.868501	0.033325	-0.022712	3.287073	1.000000	0.000006	0.000061	-0.000062	0.577239	-10.906783	-178.477670
52539	2.446762	0.153445	12.844525	0.027580	-0.023007	3.263655	1.000000	0.000010	0.000071	-0.000061	0.578088	-10.903640	-178.476578
52540	2.408764	0.148109	12.865975	0.068188	-0.016671	3.277479	1.000000	-0.000025	0.000065	-0.000058	0.574723	-10.901371	-178.475284
52541	2.371340	0.142708	12.887309	0.108784	-0.010291	3.291297	1.000000	0.000008	0.000026	-0.000050	0.575121	-10.903501	-178.473816
52542	2.426380	0.134465	12.868582	0.051138	-0.003764	3.283235	1.000000	-0.000003	0.000053	-0.000085	0.574884	-10.902632	-178.475720
52543	2.391208	0.128874	12.865635	0.084812	0.002628	3.273635	1.000000	-0.000004	0.000047	-0.000079	0.574510	-10.902355	-178.477053
