// Start Time: Unknown
// Update Rate: 100.0Hz
// Filter Profile: human (46.1)
// Firmware Version: 4.4.0
PacketCounter	Acc_X	Acc_Y	Acc_Z	FreeAcc_X	FreeAcc_Y	FreeAcc_Z	OriInc_q0	OriInc_q1	OriInc_q2	OriInc_q3	Roll	Pitch	Yaw
56196	9.897087	0.016324	0.812587	0.000000	0.000000	0.117716	1.000000	0.000022	0.000029	0.000026	1.168181	-85.307017	-1.352775
56197	9.882340	0.035347	0.815783	0.010273	0.024888	0.103293	1.000000	0.000034	0.000057	0.000013	0.717250	-85.218093	-0.758828
56198	9.896967	0.015543	0.814072	0.013822	0.005504	0.117705	1.000000	0.000031	0.000008	0.000036	0.671020	-85.217232	-0.708896
56199	9.863624	0.019542	0.822507	0.003107	0.010115	0.085185	1.000000	0.000016	0.000047	0.000027	0.636084	-85.212318	-0.671832
56200	9.882181	0.033672	0.817778	0.010195	0.024875	0.103293	1.000000	0.000028	0.000036	0.000043	0.580489	-85.208291	-0.612830
56201	9.902613	0.015244	0.839820	-0.009351	0.007033	0.125479	1.000000	0.000013	0.000038	0.000022	0.552546	-85.204017	-0.583297
56202	9.878110	-0.001573	0.822453	0.006652	-0.009279	0.099596	1.000000	0.000026	0.000038	0.000031	0.512027	-85.199657	-0.539703
56203	9.890864	0.010970	0.793980	0.036829	0.003922	0.109931	1.000000	0.000028	0.000036	0.000043	0.457232	-85.195633	-0.481501
56204	9.872184	-0.004287	0.800163	0.029741	-0.010838	0.091822	1.000000	0.000043	0.000029	0.000012	0.445780	-85.192280	-0.465037
56205	9.876090	0.029620	0.797616	0.033238	0.023303	0.095520	1.000000	0.000007	0.000037	0.000017	0.423675	-85.188251	-0.442087
56206	9.883696	-0.001938	0.848775	-0.016483	-0.007738	0.107370	1.000000	0.000025	0.000026	0.000037	0.375622	-85.185282	-0.391026
56207	9.903490	0.022392	0.767286	0.066913	0.017112	0.120266	1.000000	0.000032	0.000032	0.000025	0.346473	-85.181904	-0.358036
56208	9.881746	0.029545	0.823181	0.010094	0.024840	0.103294	1.000000	0.000032	0.000039	0.000036	0.300382	-85.177495	-0.308126
56209	9.896351	0.009587	0.821612	0.013521	0.005402	0.117705	1.000000	0.000019	0.000038	0.000027	0.269952	-85.173851	-0.275353
56210	9.875831	0.026863	0.800905	0.033064	0.023236	0.095520	1.000000	0.000018	0.000026	0.000032	0.228106	-85.170903	-0.231242
56211	9.896254	0.008448	0.822789	0.013354	0.005321	0.117705	1.000000	0.000029	0.000029	0.000031	0.194822	-85.168524	-0.194518
56212	9.896222	0.007941	0.823184	0.013354	0.005321	0.117705	1.000000	0.000028	0.000011	0.000025	0.164020	-85.167304	-0.160344
56213	9.881519	0.026764	0.825992	0.009613	0.024615	0.103295	1.000000	0.000032	0.000039	0.000036	0.124506	-85.163990	-0.116990
56214	9.877493	-0.007946	0.829789	0.006074	-0.009530	0.099596	1.000000	0.000025	0.000020	0.000026	0.092732	-85.161723	-0.082191
56215	9.920520	0.022582	0.843012	-0.003048	0.021435	0.143588	1.000000	0.000012	0.000044	0.000033	0.056412	-85.157857	-0.044278
56216	9.875553	0.023477	0.804438	0.032501	0.022957	0.095523	1.000000	0.000022	0.000047	0.000032	0.015771	-85.152418	-0.000910
56217	9.890146	0.003482	0.802940	0.035798	0.003409	0.109935	1.000000	0.000015	0.000035	0.000033	-0.015587	-85.149862	0.032375
56218	9.890088	0.002923	0.803662	0.035797	0.003409	0.109935	1.000000	0.000019	0.000038	0.000027	-0.049178	-85.145502	0.068296
56219	9.914461	0.018562	0.822581	0.019448	0.019544	0.135818	1.000000	0.000015	0.000041	0.000044	-0.095315	-85.142738	0.116574
56220	9.875303	0.020986	0.807573	0.031906	0.022619	0.095526	1.000000	0.000029	0.000041	0.000025	-0.125801	-85.137988	0.150554
56221	9.914344	0.017537	0.824002	0.019086	0.019323	0.135819	1.000000	0.000013	0.000019	0.000016	-0.130534	-85.137868	0.156878
56222	9.889872	0.000732	0.806315	0.035092	0.003012	0.109937	1.000000	0.000025	0.000026	0.000037	-0.177663	-85.134856	0.207020
56223	9.889818	0.000114	0.806988	0.034708	0.002777	0.109939	1.000000	0.000036	0.000042	0.000030	-0.198090	-85.132271	0.231607
56224	9.880883	0.020511	0.833747	0.008070	0.023714	0.103298	1.000000	0.000025	0.000038	0.000031	-0.237230	-85.127848	0.273827
56225	9.856393	0.003672	0.816273	0.023617	0.007142	0.077418	1.000000	0.000022	0.000029	0.000026	-0.251818	-85.127191	0.290925
56226	9.908303	0.013219	0.803550	0.041333	0.017271	0.128053	1.000000	0.000015	0.000035	0.000033	-0.293839	-85.123141	0.334860
56227	9.887824	0.030318	0.782841	0.060184	0.034808	0.105881	1.000000	0.000018	0.000032	0.000044	-0.330572	-85.123469	0.373612
56228	9.895318	-0.001265	0.834013	0.010459	0.003766	0.117709	1.000000	0.000010	0.000028	0.000016	-0.351057	-85.120212	0.395275
56229	9.917936	0.047130	0.825913	0.020370	0.052336	0.139531	1.000000	0.000032	0.000039	0.000036	-0.373928	-85.119861	0.421402
56230	9.902329	0.009291	0.782390	0.063019	0.015093	0.120295	1.000000	0.000025	0.000020	0.000026	-0.405332	-85.117572	0.455801
56231	9.883624	-0.005993	0.788459	0.055230	-0.000086	0.102184	1.000000	0.000015	0.000035	0.000033	-0.418863	-85.117630	0.471145
56232	9.899134	0.030729	0.833192	0.012579	0.037161	0.121419	1.000000	0.000022	0.000029	0.000026	-0.451135	-85.114287	0.506062
56233	9.889291	-0.005571	0.813399	0.031191	0.001010	0.109951	1.000000	0.000022	0.000035	0.000038	-0.468564	-85.115705	0.525491
56234	9.891514	0.060534	0.783968	0.061360	0.067753	0.109609	1.000000	0.000019	0.000038	0.000027	-0.501789	-85.111339	0.560994
56235	9.874538	0.012681	0.817038	0.026658	0.019858	0.095547	1.000000	0.000018	0.000026	0.000032	-0.506238	-85.114095	0.567822
56236	9.893162	0.026783	0.812062	0.033729	0.034617	0.113666	1.000000	0.000035	0.000030	0.000036	-0.550301	-85.110696	0.615995
56237	9.887346	0.024638	0.789059	0.055851	0.032472	0.105914	1.000000	0.000019	0.000038	0.000027	-0.543532	-85.111994	0.611593
56238	9.893059	0.025702	0.813360	0.032743	0.034026	0.113671	1.000000	0.000012	0.000026	0.000027	-0.578776	-85.109089	0.648302
56239	9.868575	0.008851	0.795841	0.047797	0.017058	0.087800	1.000000	0.000025	0.000038	0.000031	-0.572707	-85.110264	0.647042
56240	9.892954	0.024621	0.814658	0.031767	0.033360	0.113677	1.000000	0.000022	0.000029	0.000026	-0.604771	-85.106938	0.681758
56241	9.883103	-0.011617	0.794902	0.050122	-0.003035	0.102211	1.000000	0.000025	0.000038	0.000031	-0.596595	-85.109521	0.677474
56242	9.887092	0.021987	0.792316	0.053653	0.031110	0.105931	1.000000	0.000022	0.000029	0.000026	-0.628598	-85.106199	0.712135
56243	9.907439	0.003787	0.814234	0.032791	0.012570	0.128092	1.000000	0.000023	0.000023	0.000014	-0.599023	-85.111123	0.686111
56244	9.887012	0.021014	0.793337	0.052351	0.030418	0.105940	1.000000	0.000014	0.000029	0.000050	-0.664192	-85.107747	0.753096
56245	9.886960	0.020283	0.794002	0.050778	0.029680	0.105950	1.000000	0.000019	0.000038	0.000027	-0.648184	-85.112522	0.740653
56246	9.879725	0.008254	0.847565	-0.002502	0.018024	0.103313	1.000000	0.000032	0.000032	0.000025	-0.677157	-85.108853	0.773452
56247	9.892596	0.020995	0.819099	0.026023	0.030472	0.113703	1.000000	0.000023	0.000041	0.000020	-0.651498	-85.113710	0.750700
56248	9.892542	0.020509	0.819762	0.025998	0.030473	0.113703	1.000000	0.000018	0.000026	0.000032	-0.692355	-85.110843	0.793800
56249	9.875261	0.015183	0.749281	0.093840	0.025055	0.090493	1.000000	0.000029	0.000029	0.000031	-0.677983	-85.116025	0.784935
56250	9.864880	0.025571	0.852391	-0.009195	0.035881	0.088914	1.000000	0.000022	0.000035	0.000038	-0.725428	-85.112117	0.835040
56251	9.886649	0.017174	0.797937	0.046499	0.027456	0.105978	1.000000	0.000026	0.000032	0.000020	-0.703293	-85.114838	0.813818
56252	9.892327	0.018240	0.822403	0.023358	0.029003	0.113714	1.000000	0.000029	0.000048	0.000037	-0.748738	-85.109507	0.862705
56253	9.871926	0.035363	0.801459	0.041182	0.046135	0.091589	1.000000	0.000010	0.000001	0.000039	-0.752961	-85.119582	0.865015
56254	9.892247	0.016916	0.823402	0.021553	0.028289	0.113720	1.000000	0.000026	0.000051	0.000026	-0.784097	-85.113994	0.899197
56255	9.877562	0.035955	0.826426	0.016814	0.046907	0.099327	1.000000	0.000010	0.000028	0.000016	-0.752366	-85.117852	0.869578
56256	9.892138	0.016032	0.824722	0.020285	0.027515	0.113725	1.000000	0.000025	0.000026	0.000037	-0.799523	-85.115061	0.919655
56257	9.873392	0.000691	0.830874	0.011819	0.011941	0.095589	1.000000	0.000025	0.000038	0.000031	-0.782878	-85.118893	0.907521
56258	9.910727	0.029568	0.820517	0.025863	0.041427	0.131871	1.000000	0.000022	0.000029	0.000026	-0.815257	-85.115843	0.942499
56259	9.891989	0.014460	0.826542	0.017348	0.025919	0.113734	1.000000	0.000029	0.000023	0.000019	-0.787188	-85.121749	0.916488
56260	9.877316	0.033380	0.829476	0.013773	0.045332	0.099339	1.000000	0.000029	0.000048	0.000037	-0.833156	-85.116544	0.965813
56261	9.891861	0.013366	0.828093	0.015971	0.025058	0.113739	1.000000	0.000019	0.000038	0.000026	-0.807875	-85.119837	0.946173
56262	9.890178	0.045296	0.801647	0.042546	0.057665	0.109771	1.000000	0.000017	0.000014	0.000038	-0.857216	-85.118571	0.997625
56263	9.877172	0.031589	0.831258	0.011233	0.043763	0.099349	1.000000	0.000022	0.000029	0.000026	-0.842821	-85.122030	0.981216
56264	9.904706	0.024776	0.800504	0.044825	0.037563	0.124174	1.000000	0.000019	0.000038	0.000026	-0.876383	-85.118031	1.016968
56265	9.890039	0.043607	0.803457	0.039215	0.056167	0.109793	1.000000	0.000022	0.000035	0.000038	-0.872424	-85.126253	1.013007
56266	9.871277	0.028314	0.809690	0.032082	0.041453	0.091643	1.000000	0.000019	0.000038	0.000026	-0.906395	-85.122376	1.049110
56267	9.871224	0.027829	0.810352	0.030749	0.040563	0.091651	1.000000	0.000022	0.000029	0.000026	-0.879170	-85.126842	1.026523
56268	9.889876	0.041967	0.805547	0.037684	0.055313	0.109804	1.000000	0.000042	0.000042	0.000035	-0.921880	-85.122530	1.074019
56269	9.891438	0.008864	0.833185	0.010071	0.022001	0.113754	1.000000	0.000012	0.000026	0.000027	-0.909769	-85.125211	1.058268
56270	9.885670	0.006763	0.810134	0.033084	0.020480	0.106048	1.000000	0.000019	0.000038	0.000026	-0.944009	-85.121378	1.094591
56271	9.889718	0.040242	0.807575	0.034622	0.053935	0.109823	1.000000	0.000028	0.000036	0.000043	-0.954128	-85.128934	1.102958
56272	9.891260	0.007049	0.835315	0.007849	0.021373	0.113757	1.000000	0.000036	0.000042	0.000030	-0.991824	-85.124767	1.144553
56273	9.870889	0.024429	0.814539	0.027204	0.038380	0.091670	1.000000	0.000016	0.000029	0.000021	-0.959308	-85.123018	1.116421
56274	9.861943	0.045027	0.841089	0.000478	0.059362	0.084982	1.000000	0.000019	0.000038	0.000026	-0.993762	-85.119247	1.152916
56275	9.891087	0.005724	0.837368	0.005753	0.019787	0.113762	1.000000	0.000026	0.000032	0.000020	-0.968099	-85.125655	1.128034
56276	9.889443	0.037718	0.811055	0.032273	0.052410	0.109839	1.000000	0.000022	0.000035	0.000038	-1.017588	-85.122289	1.179857
56277	9.898294	0.015998	0.785721	0.057393	0.030873	0.116541	1.000000	0.000038	0.000021	0.000035	-1.024103	-85.128618	1.183515
56278	9.876338	0.023492	0.841365	0.000493	0.038696	0.099377	1.000000	0.000007	0.000038	0.000017	-1.047578	-85.125125	1.207426
56279	9.864882	0.019739	0.794628	0.045166	0.034735	0.084002	1.000000	0.000031	0.000027	0.000042	-1.042866	-85.131201	1.210192
56280	9.898156	0.014291	0.787484	0.055520	0.030079	0.116554	1.000000	0.000028	0.000029	0.000031	-1.083210	-85.128676	1.253564
56281	9.889221	0.034891	0.813881	0.028062	0.050239	0.109863	1.000000	0.000029	0.000023	0.000019	-1.052054	-85.131052	1.226831
56282	9.898068	0.013467	0.788603	0.054504	0.029314	0.116562	1.000000	0.000013	0.000038	0.000022	-1.081211	-85.127614	1.257205
56283	9.870384	0.019425	0.820763	0.019978	0.034930	0.091700	1.000000	0.000029	0.000042	0.000025	-1.069855	-85.128092	1.245090
56284	9.883359	0.031935	0.792282	0.049956	0.048141	0.102185	1.000000	0.000035	0.000030	0.000036	-1.116169	-85.125566	1.295156
56285	9.870273	0.018391	0.822128	0.018206	0.034061	0.091707	1.000000	0.000007	0.000038	0.000017	-1.077050	-85.130729	1.262051
56286	9.892156	0.009882	0.767703	0.074766	0.026308	0.108902	1.000000	0.000025	0.000026	0.000037	-1.126140	-85.128697	1.313781
56287	9.870176	0.017257	0.823307	0.016387	0.033499	0.091712	1.000000	0.000028	0.000029	0.000031	-1.125999	-85.134886	1.313340
56288	9.883169	0.029810	0.794734	0.046327	0.046708	0.102210	1.000000	0.000032	0.000032	0.000025	-1.157577	-85.132263	1.348352
56289	9.903396	0.011508	0.816848	0.025204	0.027932	0.124275	1.000000	0.000022	0.000029	0.000026	-1.129866	-85.137537	1.329526
56290	9.903337	0.010950	0.817574	0.024994	0.027966	0.124275	1.000000	0.000012	0.000044	0.000033	-1.174535	-85.133599	1.375405
56291	9.883013	0.028266	0.796731	0.043048	0.045087	0.102232	1.000000	0.000035	0.000023	0.000024	-1.153365	-85.140268	1.360497
56292	9.888641	0.029414	0.821116	0.019696	0.046660	0.109901	1.000000	0.000016	0.000047	0.000027	-1.189072	-85.136076	1.397844
56293	9.890130	-0.003716	0.848605	-0.007282	0.013472	0.113772	1.000000	0.000010	0.000001	0.000039	-1.200268	-85.137727	1.406218
56294	9.882881	0.026565	0.798421	0.042289	0.044556	0.102238	1.000000	0.000026	0.000051	0.000026	-1.232986	-85.133120	1.441718
56295	9.897399	0.006588	0.797042	0.043944	0.024486	0.116628	1.000000	0.000028	0.000029	0.000031	-1.229631	-85.140322	1.442488
56296	9.882763	0.025585	0.799909	0.040242	0.043944	0.102249	1.000000	0.000023	0.000041	0.000020	-1.255875	-85.136888	1.471102
56297	9.888384	0.026737	0.824296	0.015220	0.044984	0.109916	1.000000	0.000028	0.000029	0.000031	-1.262898	-85.144539	1.478387
56298	9.882655	0.024592	0.801273	0.038103	0.043481	0.102260	1.000000	0.000019	0.000038	0.000026	-1.298380	-85.141525	1.515778
56299	9.902850	0.006079	0.823500	0.017338	0.024997	0.124299	1.000000	0.000018	0.000032	0.000044	-1.315488	-85.144139	1.534346
56300	9.873638	0.044367	0.828551	0.010161	0.063887	0.095542	1.000000	0.000029	0.000042	0.000025	-1.348016	-85.140756	1.569926
56301	9.883992	-0.009667	0.830330	0.009869	0.010007	0.106115	1.000000	0.000025	0.000020	0.000026	-1.357918	-85.139675	1.572560
56302	9.882449	0.022347	0.803882	0.036299	0.042640	0.102270	1.000000	0.000019	0.000038	0.000026	-1.393803	-85.136628	1.610267
56303	9.882388	0.021811	0.804640	0.035267	0.041933	0.102277	1.000000	0.000025	0.000039	0.000031	-1.385414	-85.138199	1.608281
56304	9.882328	0.021276	0.805397	0.035021	0.041978	0.102278	1.000000	0.000019	0.000038	0.000026	-1.421176	-85.135162	1.645880
56305	9.887938	0.022457	0.829751	0.010791	0.042856	0.109931	1.000000	0.000016	0.000029	0.000021	-1.403371	-85.138297	1.630676
56306	9.863476	0.005718	0.812117	0.026676	0.026651	0.084095	1.000000	0.000028	0.000029	0.000031	-1.444307	-85.136303	1.674554
56307	9.915507	0.015043	0.799576	0.042996	0.036348	0.134858	1.000000	0.000016	0.000029	0.000021	-1.453485	-85.139506	1.678348
56308	9.887792	0.020953	0.831535	0.009159	0.042670	0.109934	1.000000	0.000022	0.000036	0.000038	-1.504411	-85.136808	1.731382
56309	9.863332	0.004108	0.813872	0.023520	0.025626	0.084105	1.000000	0.000025	0.000020	0.000026	-1.484329	-85.144971	1.720517
56310	9.900790	0.032912	0.803604	0.037222	0.055079	0.120494	1.000000	0.000026	0.000051	0.000026	-1.517794	-85.140666	1.756623
56311	9.867418	0.037298	0.811833	0.025437	0.059571	0.087929	1.000000	0.000028	0.000011	0.000025	-1.535656	-85.147287	1.768820
56312	9.890855	-0.003798	0.784350	0.055178	0.019216	0.109047	1.000000	0.000025	0.000039	0.000031	-1.577875	-85.144408	1.813540
56313	9.872972	0.037835	0.836773	0.000386	0.060972	0.095566	1.000000	0.000025	0.000039	0.000031	-1.606180	-85.149492	1.834826
56314	9.887480	0.017874	0.835303	0.003523	0.041601	0.109942	1.000000	0.000016	0.000029	0.000021	-1.636372	-85.147853	1.866319
56315	9.881783	0.015766	0.812182	0.025350	0.039675	0.102316	1.000000	0.000028	0.000029	0.000031	-1.651536	-85.152097	1.880151
56316	9.915071	0.010288	0.805033	0.035460	0.035004	0.134892	1.000000	0.000028	0.000017	0.000037	-1.702216	-85.151769	1.933508
56317	9.881701	0.014470	0.813198	0.023453	0.039517	0.102322	1.000000	0.000032	0.000039	0.000036	-1.735367	-85.156492	1.962984
56318	9.861435	0.031829	0.792383	0.042848	0.057458	0.080323	1.000000	0.000007	0.000038	0.000017	-1.760840	-85.153966	1.988572
56319	9.900357	0.028138	0.809103	0.027177	0.053651	0.120534	1.000000	0.000018	0.000026	0.000032	-1.764827	-85.168092	2.001290
56320	9.881537	0.012968	0.815217	0.019849	0.039019	0.102332	1.000000	0.000019	0.000038	0.000026	-1.802197	-85.165628	2.040281
56321	9.885690	0.046537	0.812619	0.023612	0.072480	0.106162	1.000000	0.000025	0.000039	0.000031	-1.793605	-85.159964	2.034571
56322	9.894553	0.024844	0.787473	0.049840	0.051555	0.112924	1.000000	0.000028	0.000029	0.000031	-1.836107	-85.158435	2.079802
56323	9.875737	0.009640	0.793498	0.040711	0.036216	0.094731	1.000000	0.000018	0.000026	0.000032	-1.837498	-85.168000	2.087588
56324	9.881316	0.010878	0.817924	0.017205	0.037831	0.102341	1.000000	0.000037	0.000048	0.000013	-1.853510	-85.164559	2.107255
56325	9.900031	0.025049	0.813181	0.022208	0.052039	0.120555	1.000000	0.000025	0.000026	0.000037	-1.871595	-85.172931	2.128593
56326	9.899970	0.024470	0.813944	0.021831	0.052102	0.120556	1.000000	0.000026	0.000051	0.000026	-1.906263	-85.169180	2.165728
56327	9.856728	-0.006833	0.801856	0.029495	0.020675	0.076540	1.000000	0.000009	0.000016	0.000022	-1.905028	-85.176375	2.164895
56328	9.899873	0.023529	0.815150	0.019888	0.051679	0.120562	1.000000	0.000025	0.000039	0.000031	-1.948283	-85.174057	2.210537
56329	9.888560	0.019673	0.768424	0.065262	0.047785	0.105374	1.000000	0.000028	0.000029	0.000031	-1.933208	-85.176049	2.206653
56330	9.886619	0.009470	0.845573	-0.011539	0.037801	0.109951	1.000000	0.000022	0.000029	0.000026	-1.969712	-85.174848	2.245190
56331	9.880941	0.007171	0.822483	0.010138	0.036248	0.102357	1.000000	0.000018	0.000033	0.000044	-2.030120	-85.179554	2.294912
56332	9.879505	0.038970	0.796021	0.036444	0.068888	0.098604	1.000000	0.000022	0.000029	0.000026	-2.067180	-85.178396	2.333920
56333	9.880850	0.005957	0.823584	0.009151	0.035976	0.102359	1.000000	0.000038	0.000021	0.000035	-2.088535	-85.179368	2.354582
56334	9.899588	0.019993	0.818695	0.015714	0.050736	0.120574	1.000000	0.000019	0.000038	0.000026	-2.126234	-85.177146	2.393850
56335	9.854957	0.021044	0.779585	0.050527	0.051587	0.072815	1.000000	0.000015	0.000035	0.000033	-2.115662	-85.179674	2.394102
56336	9.899470	0.018837	0.820153	0.014181	0.050012	0.120580	1.000000	0.000025	0.000039	0.000031	-2.159061	-85.177413	2.439851
56337	9.871700	0.024838	0.852121	-0.021224	0.055864	0.095573	1.000000	0.000039	0.000033	0.000030	-2.167842	-85.184641	2.453224
56338	9.893745	0.016048	0.797777	0.035025	0.048073	0.113005	1.000000	0.000035	0.000030	0.000036	-2.216862	-85.183447	2.505674
56339	9.893689	0.015295	0.798484	0.033885	0.047607	0.113011	1.000000	0.000015	0.000042	0.000044	-2.244566	-85.185185	2.536097
56340	9.897908	0.048739	0.795621	0.037015	0.081802	0.116860	1.000000	0.000028	0.000011	0.000025	-2.280809	-85.186230	2.574973
56341	9.874804	-0.000404	0.805080	0.024646	0.032672	0.094796	1.000000	0.000026	0.000051	0.000026	-2.294265	-85.191268	2.590262
56342	9.902452	-0.007538	0.774717	0.057712	0.026436	0.119823	1.000000	0.000032	0.000039	0.000036	-2.344050	-85.189108	2.643089
56343	9.878950	0.032605	0.803159	0.027132	0.066716	0.098649	1.000000	0.000019	0.000020	0.000021	-2.360944	-85.190509	2.652803
56344	9.893437	0.012620	0.801657	0.030092	0.047350	0.113024	1.000000	0.000025	0.000039	0.000031	-2.405023	-85.188402	2.699130
56345	9.884461	0.033146	0.828079	0.002084	0.067899	0.106222	1.000000	0.000025	0.000026	0.000037	-2.425072	-85.193791	2.721607
56346	9.880137	-0.001582	0.832113	-0.001910	0.033848	0.102370	1.000000	0.000025	0.000039	0.000031	-2.469204	-85.191731	2.767984
56347	9.884360	0.031811	0.829333	0.000321	0.067381	0.106226	1.000000	0.000021	0.000023	0.000043	-2.487933	-85.196683	2.790645
56348	9.893243	0.009992	0.804077	0.026419	0.046454	0.113039	1.000000	0.000022	0.000029	0.000026	-2.525602	-85.195781	2.830183
56349	9.868782	-0.006817	0.786510	0.042369	0.030199	0.087251	1.000000	0.000032	0.000039	0.000036	-2.570260	-85.192726	2.864600
56350	9.878617	0.028368	0.807400	0.022327	0.065968	0.098666	1.000000	0.000025	0.000020	0.000026	-2.607920	-85.192843	2.904404
56351	9.872980	0.026238	0.784180	0.044302	0.064570	0.091112	1.000000	0.000022	0.000029	0.000026	-2.656249	-85.196338	2.935738
56352	9.884126	0.029009	0.832226	-0.002473	0.067802	0.106223	1.000000	0.000015	0.000035	0.000033	-2.704298	-85.194706	2.984733
56353	9.878463	0.026787	0.809337	0.020435	0.065874	0.098671	1.000000	0.000016	0.000047	0.000027	-2.712589	-85.190715	2.989552
56354	9.878410	0.026303	0.810003	0.019989	0.065962	0.098671	1.000000	0.000025	0.000020	0.000026	-2.750878	-85.190839	3.029877
56355	9.872766	0.024005	0.786938	0.042409	0.063878	0.091124	1.000000	0.000025	0.000045	0.000043	-2.771022	-85.189877	3.053967
56356	9.865092	0.012133	0.840364	-0.011305	0.052436	0.087995	1.000000	0.000028	0.000011	0.000025	-2.808960	-85.191047	3.094290
56357	9.892794	0.005047	0.809629	0.020834	0.045612	0.113056	1.000000	0.000019	0.000038	0.000026	-2.811827	-85.194373	3.099033
56358	9.911554	0.019149	0.804871	0.027317	0.060378	0.131290	1.000000	0.000032	0.000033	0.000025	-2.847287	-85.193106	3.137346
56359	9.872579	0.021912	0.789342	0.039900	0.063061	0.091140	1.000000	0.000015	0.000035	0.000033	-2.853521	-85.190661	3.144210
56360	9.891352	0.035862	0.784491	0.046388	0.077824	0.109376	1.000000	0.000018	0.000026	0.000032	-2.901153	-85.190061	3.193120
56361	9.911404	0.017389	0.806760	0.024949	0.059632	0.131301	1.000000	0.000015	0.000035	0.000033	-2.925752	-85.195403	3.216349
56362	9.872428	0.020130	0.791281	0.037365	0.062914	0.091151	1.000000	0.000019	0.000038	0.000026	-2.964711	-85.193495	3.256640
56363	9.896770	0.035932	0.810321	0.020590	0.078957	0.116930	1.000000	0.000023	0.000041	0.000020	-2.974682	-85.191884	3.261697
56364	9.877875	0.020853	0.816659	0.013195	0.064374	0.098693	1.000000	0.000029	0.000048	0.000037	-3.026000	-85.188773	3.315444
56365	9.891084	0.033026	0.787985	0.041593	0.076973	0.109404	1.000000	0.000010	0.000001	0.000039	-3.050199	-85.198405	3.343544
56366	9.886726	-0.001667	0.791918	0.037541	0.042941	0.105540	1.000000	0.000026	0.000051	0.000026	-3.086424	-85.195108	3.381881
56367	9.902125	0.035237	0.836807	-0.007958	0.080064	0.124470	1.000000	0.000025	0.000039	0.000031	-3.123899	-85.206489	3.417971
56368	9.905426	0.011809	0.788080	0.041235	0.057546	0.123794	1.000000	0.000009	0.000035	0.000028	-3.166521	-85.205111	3.460704
56369	9.883180	0.019647	0.843653	-0.015852	0.065097	0.106229	1.000000	0.000032	0.000033	0.000025	-3.169219	-85.204140	3.462082
56370	9.871991	0.015783	0.796810	0.030004	0.062024	0.091181	1.000000	0.000018	0.000026	0.000032	-3.217620	-85.203730	3.511665
56371	9.890773	0.029695	0.792003	0.036245	0.076158	0.109431	1.000000	0.000032	0.000039	0.000036	-3.226271	-85.203188	3.522450
56372	9.890706	0.029266	0.792860	0.035755	0.076251	0.109432	1.000000	0.000037	0.000048	0.000013	-3.244145	-85.200434	3.543583
56373	9.896214	0.030586	0.817299	0.011559	0.076851	0.116961	1.000000	0.000012	0.000026	0.000027	-3.213873	-85.203487	3.526048
56374	9.877327	0.015536	0.823381	0.004146	0.062269	0.098714	1.000000	0.000019	0.000038	0.000026	-3.252870	-85.201750	3.566369
56375	9.881605	0.049019	0.820685	0.005968	0.096205	0.102591	1.000000	0.000021	0.000036	0.000038	-3.294004	-85.207789	3.601642
56376	9.852817	-0.001937	0.806456	0.018135	0.045922	0.072955	1.000000	0.000018	0.000026	0.000032	-3.342217	-85.207464	3.651076
56377	9.910509	0.008698	0.817810	0.011536	0.057005	0.131341	1.000000	0.000028	0.000030	0.000031	-3.354757	-85.207411	3.663134
56378	9.877114	0.013236	0.825973	0.000788	0.061880	0.098718	1.000000	0.000023	0.000041	0.000020	-3.384834	-85.205418	3.694910
56379	9.895901	0.027291	0.821195	0.007007	0.076313	0.116970	1.000000	0.000018	0.000026	0.000032	-3.411685	-85.206349	3.717835
56380	9.910352	0.007207	0.819731	0.009825	0.056955	0.131343	1.000000	0.000022	0.000029	0.000026	-3.450903	-85.205704	3.758650
56381	9.871404	0.010049	0.804139	0.020984	0.059789	0.091218	1.000000	0.000019	0.000038	0.000026	-3.464636	-85.211602	3.774828
56382	9.890204	0.024107	0.799272	0.027384	0.074549	0.109472	1.000000	0.000025	0.000020	0.000026	-3.503838	-85.212058	3.815962
56383	9.856812	0.028590	0.807391	0.016083	0.078951	0.076850	1.000000	0.000022	0.000048	0.000032	-3.519064	-85.212744	3.830514
56384	9.884541	0.021360	0.776989	0.048972	0.072667	0.101981	1.000000	0.000022	0.000029	0.000026	-3.558475	-85.212169	3.871500
56385	9.894392	0.056565	0.797994	0.028950	0.108259	0.113361	1.000000	0.000012	0.000045	0.000033	-3.593037	-85.209540	3.894893
56386	9.889975	0.021932	0.802162	0.024831	0.074239	0.109481	1.000000	0.000022	0.000029	0.000026	-3.632632	-85.208951	3.936020
56387	9.889922	0.021448	0.802830	0.023812	0.074112	0.109484	1.000000	0.000019	0.000038	0.000026	-3.659804	-85.210379	3.955495
56388	9.895411	0.022562	0.827221	0.000112	0.075814	0.116976	1.000000	0.000035	0.000030	0.000036	-3.711618	-85.209650	4.010279
56389	9.870960	0.005535	0.809621	0.015701	0.059110	0.091232	1.000000	0.000011	0.000039	0.000050	-3.748557	-85.208943	4.047370
56390	9.895309	0.021112	0.828475	-0.001089	0.075474	0.116979	1.000000	0.000013	0.000019	0.000016	-3.776293	-85.209564	4.075463
56391	9.895252	0.020694	0.829174	-0.002194	0.074748	0.116984	1.000000	0.000033	0.000051	0.000030	-3.764649	-85.210115	4.073401
56392	9.889649	0.018493	0.806251	0.020466	0.073248	0.109498	1.000000	0.000022	0.000029	0.000026	-3.804297	-85.209553	4.114563
56393	9.889603	0.017971	0.806832	0.019101	0.072400	0.109507	1.000000	0.000028	0.000030	0.000031	-3.788207	-85.214100	4.113176
56394	9.875073	0.037026	0.809431	0.015274	0.091951	0.095134	1.000000	0.000032	0.000033	0.000025	-3.824431	-85.213194	4.152111
56395	9.908357	0.031545	0.802746	0.010610	0.011865	0.128171	1.000000	0.000029	0.000042	0.000025	1.408661	-85.307032	-1.438192
56396	9.889438	0.016566	0.808882	0.002989	-0.003155	0.109789	1.000000	0.000022	0.000029	0.000026	1.413490	-85.307441	-1.443142
56397	9.856057	0.020895	0.816787	-0.007901	0.001417	0.077175	1.000000	0.000017	0.000021	0.000050	1.385323	-85.309637	-1.424888
56398	9.889343	0.015231	0.810073	0.001558	-0.004243	0.109789	1.000000	0.000014	0.000050	0.000016	1.402913	-85.307612	-1.443599
56399	9.889289	0.014791	0.810738	0.001042	-0.004858	0.109788	1.000000	0.000021	0.000017	0.000032	1.404755	-85.308641	-1.430324
56400	9.874770	0.033766	0.813264	-0.002752	0.014190	0.095562	1.000000	0.000025	0.000039	0.000031	1.402160	-85.307975	-1.427454
56401	9.889183	0.013671	0.812052	-0.000339	-0.005997	0.109788	1.000000	0.000019	0.000038	0.000026	1.409562	-85.307774	-1.427803
56402	9.893519	0.047207	0.809355	0.002830	0.027520	0.113955	1.000000	0.000025	0.000039	0.000031	1.406968	-85.307107	-1.424934
56403	9.889063	0.012430	0.813522	-0.001416	-0.007101	0.109787	1.000000	0.000017	0.000033	0.000044	1.387126	-85.305844	-1.411437
56404	9.883499	0.010103	0.790355	0.021121	-0.009338	0.102341	1.000000	0.000035	0.000023	0.000024	1.396017	-85.306910	-1.418945
56405	9.902325	0.024149	0.785538	0.027583	0.004553	0.120737	1.000000	0.000019	0.000038	0.000026	1.401338	-85.305389	-1.425210
56406	9.855578	0.015933	0.822657	-0.013315	-0.003624	0.077168	1.000000	0.000025	0.000020	0.000026	1.407402	-85.306845	-1.431053
56407	9.883369	0.008589	0.792005	0.019217	-0.011054	0.102343	1.000000	0.000024	0.000027	0.000037	1.401400	-85.308165	-1.412466
56408	9.898765	0.045516	0.836530	-0.023991	0.025844	0.121404	1.000000	0.000016	0.000029	0.000021	1.412436	-85.308599	-1.424361
56409	9.883274	0.007498	0.793193	0.018022	-0.012170	0.102344	1.000000	0.000021	0.000036	0.000038	1.402542	-85.307660	-1.414516
56410	9.907612	0.023081	0.812168	0.001134	0.003438	0.128183	1.000000	0.000039	0.000033	0.000030	1.404015	-85.307650	-1.414213
56411	9.893105	0.042022	0.814677	-0.002817	0.022509	0.113968	1.000000	0.000014	0.000023	0.000038	1.390092	-85.309810	-1.413398
56412	9.888633	0.007364	0.818793	-0.007308	-0.012091	0.109780	1.000000	0.000029	0.000042	0.000025	1.396540	-85.308777	-1.419150
56413	9.868615	0.024533	0.797636	0.012110	0.005232	0.088132	1.000000	0.000017	0.000021	0.000050	1.370720	-85.310265	-1.388417
56414	9.883019	0.004252	0.796393	0.014577	-0.014915	0.102346	1.000000	0.000026	0.000051	0.000025	1.375956	-85.308184	-1.393299
56415	9.907344	0.020042	0.815516	-0.002307	0.000646	0.128184	1.000000	0.000026	0.000032	0.000020	1.392992	-85.308181	-1.401010
56416	9.873944	0.024648	0.823553	-0.013030	0.005257	0.095563	1.000000	0.000015	0.000035	0.000033	1.387588	-85.307901	-1.396492
56417	9.882845	0.002880	0.798554	0.012640	-0.016588	0.102346	1.000000	0.000026	0.000032	0.000020	1.401190	-85.307865	-1.419700
56418	9.887216	0.036430	0.795869	0.015833	0.016922	0.106548	1.000000	0.000029	0.000048	0.000037	1.391199	-85.306118	-1.409040
56419	9.907113	0.017809	0.818366	-0.005025	-0.001515	0.128183	1.000000	0.000020	0.000024	0.000043	1.371161	-85.307903	-1.401254
56420	9.882671	0.000980	0.800708	0.010561	-0.018210	0.102346	1.000000	0.000029	0.000042	0.000025	1.377619	-85.306869	-1.407016
56421	9.892544	0.036284	0.821742	-0.009534	0.017064	0.113974	1.000000	0.000019	0.000038	0.000026	1.377819	-85.306874	-1.436201
56422	9.853668	0.039185	0.805822	0.002960	0.019977	0.073932	1.000000	0.000018	0.000008	0.000026	1.382269	-85.309766	-1.441248
56423	9.868083	0.019112	0.804342	0.005320	-0.000234	0.088139	1.000000	0.000019	0.000038	0.000026	1.390069	-85.309552	-1.431512
56424	9.906859	0.015228	0.821480	-0.008481	-0.004240	0.128180	1.000000	0.000019	0.000038	0.000026	1.393702	-85.308907	-1.435609
56425	9.887905	0.000225	0.827571	-0.016157	-0.019227	0.109758	1.000000	0.000028	0.000030	0.000031	1.393187	-85.309655	-1.437012
56426	9.867917	0.017506	0.806413	0.003303	-0.001872	0.088140	1.000000	0.000015	0.000035	0.000033	1.387794	-85.309372	-1.432506
56427	9.892248	0.033032	0.825428	-0.013642	0.013747	0.113975	1.000000	0.000021	0.000036	0.000037	1.375725	-85.309374	-1.432329
56428	9.886712	0.030725	0.802342	0.008905	0.011479	0.106565	1.000000	0.000022	0.000029	0.000026	1.380576	-85.309778	-1.437303
56429	9.893149	-0.000240	0.854146	-0.042004	-0.019645	0.117157	1.000000	0.000034	0.000057	0.000013	1.403563	-85.306804	-1.471462
56430	9.881093	0.028104	0.780355	0.030830	0.008662	0.099160	1.000000	0.000024	0.000033	0.000049	1.376757	-85.306828	-1.444491
56431	9.900974	0.009493	0.802697	0.010018	-0.009829	0.120766	1.000000	0.000031	0.000020	0.000030	1.380995	-85.308430	-1.425855
56432	9.906408	0.010626	0.826980	-0.013836	-0.008648	0.128171	1.000000	0.000015	0.000035	0.000033	1.375612	-85.308145	-1.421360
56433	9.862046	0.011716	0.787581	0.021871	-0.007445	0.080736	1.000000	0.000025	0.000039	0.000031	1.373097	-85.307561	-1.427448
56434	9.906294	0.009435	0.828360	-0.015161	-0.009733	0.128168	1.000000	0.000018	0.000026	0.000032	1.368924	-85.308325	-1.423821
56435	9.880856	0.025039	0.783450	0.027394	0.005877	0.099172	1.000000	0.000019	0.000038	0.000026	1.373592	-85.308425	-1.427931
56436	9.900712	0.006594	0.805949	0.006602	-0.012563	0.120766	1.000000	0.000035	0.000030	0.000036	1.366043	-85.308771	-1.419031
56437	9.880752	0.023984	0.784794	0.026076	0.004760	0.099176	1.000000	0.000007	0.000038	0.000016	1.384556	-85.308250	-1.427132
56438	9.886162	0.025217	0.809285	0.002222	0.005943	0.106573	1.000000	0.000032	0.000039	0.000036	1.375803	-85.307547	-1.417370
56439	9.906011	0.006664	0.831765	-0.018598	-0.012558	0.128159	1.000000	0.000024	0.000027	0.000037	1.369077	-85.308447	-1.390767
56440	9.861682	0.007730	0.792167	0.017148	-0.011330	0.080742	1.000000	0.000028	0.000030	0.000031	1.367733	-85.308820	-1.388809
56441	9.886020	0.023389	0.811073	0.000211	0.004262	0.106574	1.000000	0.000022	0.000029	0.000026	1.372723	-85.309365	-1.397978
56442	9.885968	0.022841	0.811712	-0.000441	0.003718	0.106575	1.000000	0.000015	0.000035	0.000033	1.367353	-85.309078	-1.393495
56443	9.867003	0.007850	0.817668	-0.008093	-0.011251	0.088131	1.000000	0.000025	0.000020	0.000026	1.374598	-85.310856	-1.397496
56444	9.871453	0.041319	0.814706	-0.004859	0.022249	0.092388	1.000000	0.000021	0.000036	0.000037	1.363022	-85.310541	-1.386072
56445	9.885836	0.021130	0.813366	-0.002453	0.002040	0.106575	1.000000	0.000025	0.000020	0.000026	1.371377	-85.311979	-1.382366
56446	9.894747	-0.000667	0.788448	0.023159	-0.019858	0.113376	1.000000	0.000026	0.000051	0.000025	1.376664	-85.309889	-1.387300
56447	9.885718	0.020179	0.814830	-0.003819	0.000923	0.106574	1.000000	0.000012	0.000026	0.000027	1.380897	-85.311035	-1.381171
56448	9.885674	0.019638	0.815379	-0.004471	0.000380	0.106574	1.000000	0.000028	0.000030	0.000031	1.379557	-85.311407	-1.379218
56449	9.885616	0.019133	0.816085	-0.005171	-0.000173	0.106574	1.000000	0.000029	0.000042	0.000025	1.386759	-85.310643	-1.384414
56450	9.894529	-0.002671	0.791173	0.020440	-0.022072	0.113378	1.000000	0.000022	0.000029	0.000026	1.391628	-85.311042	-1.389408
56451	9.871099	0.037855	0.819153	-0.009530	0.018406	0.092392	1.000000	0.000019	0.000020	0.000021	1.402128	-85.312572	-1.415362
56452	9.880016	0.015984	0.794212	0.016074	-0.003502	0.099198	1.000000	0.000029	0.000048	0.000037	1.392173	-85.310815	-1.404742
56453	9.885395	0.017136	0.818805	-0.007851	-0.002314	0.106572	1.000000	0.000019	0.000039	0.000026	1.395631	-85.310528	-1.413415
56454	9.918696	0.011456	0.812169	0.001471	-0.008102	0.139207	1.000000	0.000012	0.000026	0.000027	1.397683	-85.311316	-1.416752
56455	9.898772	0.028798	0.791072	0.020961	0.009249	0.117659	1.000000	0.000032	0.000051	0.000030	1.398090	-85.309355	-1.409111
56456	9.885215	0.015545	0.821008	-0.009835	-0.003962	0.106570	1.000000	0.000028	0.000030	0.000031	1.396755	-85.309726	-1.407164
56457	9.870747	0.034526	0.823523	-0.013535	0.015112	0.092393	1.000000	0.000021	0.000036	0.000037	1.386961	-85.309465	-1.387159
56458	9.899524	-0.005253	0.820430	-0.008112	-0.024719	0.120742	1.000000	0.000016	0.000029	0.000021	1.398042	-85.309890	-1.399102
56459	9.890493	0.015621	0.846703	-0.035003	-0.003901	0.113931	1.000000	0.000025	0.000039	0.000031	1.396126	-85.309150	-1.394856
56460	9.865161	0.031131	0.801648	0.007737	0.011749	0.085030	1.000000	0.000027	0.000018	0.000037	1.386963	-85.310932	-1.385163
56461	9.884964	0.012669	0.824077	-0.013049	-0.006715	0.106564	1.000000	0.000019	0.000039	0.000026	1.390755	-85.310016	-1.391351
56462	9.865057	0.029971	0.802966	0.006483	0.010660	0.085032	1.000000	0.000032	0.000039	0.000036	1.382019	-85.309307	-1.381609
56463	9.898360	0.024138	0.796360	0.015825	0.004863	0.117672	1.000000	0.000018	0.000026	0.000032	1.377075	-85.309854	-1.386378
56464	9.898327	0.023538	0.796790	0.015173	0.004318	0.117673	1.000000	0.000021	0.000017	0.000032	1.374116	-85.311663	-1.383625
56465	9.907267	0.001590	0.771662	0.040699	-0.017616	0.124487	1.000000	0.000028	0.000030	0.000031	1.372874	-85.312349	-1.384372
56466	9.898238	0.022430	0.797928	0.013813	0.003227	0.117676	1.000000	0.000019	0.000039	0.000026	1.376565	-85.311694	-1.388529
56467	9.883781	0.041527	0.800452	0.010123	0.022307	0.103510	1.000000	0.000028	0.000030	0.000031	1.377500	-85.312146	-1.372715
56468	9.898124	0.021368	0.799368	0.012492	0.002109	0.117678	1.000000	0.000016	0.000048	0.000027	1.380001	-85.310440	-1.376024
56469	9.879118	0.006470	0.805431	0.004836	-0.012813	0.099202	1.000000	0.000025	0.000020	0.000026	1.386138	-85.312350	-1.384719
56470	9.883624	0.040035	0.802464	0.008093	0.020676	0.103515	1.000000	0.000019	0.000039	0.000026	1.389830	-85.311694	-1.388878
56471	9.879019	0.005447	0.806652	0.003579	-0.013913	0.099201	1.000000	0.000018	0.000026	0.000032	1.386526	-85.312179	-1.383454
56472	9.883521	0.038961	0.803777	0.006837	0.019575	0.103519	1.000000	0.000029	0.000042	0.000025	1.393038	-85.311133	-1.389273
56473	9.908701	0.022327	0.850127	-0.037273	0.002858	0.132370	1.000000	0.000028	0.000030	0.000031	1.391255	-85.311687	-1.394489
56474	9.892398	0.016572	0.779521	0.031730	-0.002906	0.110339	1.000000	0.000032	0.000033	0.000025	1.398959	-85.311692	-1.401159
56475	9.864420	0.022992	0.810982	-0.002044	0.003570	0.085039	1.000000	0.000027	0.000018	0.000037	1.390519	-85.313341	-1.390295
56476	9.897734	0.017071	0.804288	0.007228	-0.002266	0.117683	1.000000	0.000021	0.000036	0.000037	1.378973	-85.313017	-1.378904
56477	9.884131	0.003852	0.834096	-0.023551	-0.015468	0.106535	1.000000	0.000032	0.000033	0.000025	1.388604	-85.312958	-1.375258
56478	9.883230	0.035673	0.807500	0.002932	0.016282	0.103526	1.000000	0.000019	0.000039	0.000026	1.392309	-85.312301	-1.379431
56479	9.883180	0.035082	0.808144	0.002232	0.015725	0.103528	1.000000	0.000024	0.000027	0.000037	1.382951	-85.313305	-1.365118
56480	9.864163	0.020092	0.814174	-0.005334	0.000816	0.085038	1.000000	0.000019	0.000039	0.000026	1.386659	-85.312647	-1.369294
56481	9.897458	0.014321	0.807729	0.003897	-0.005038	0.117684	1.000000	0.000025	0.000039	0.000031	1.384974	-85.312141	-1.364569
56482	9.864054	0.018999	0.815524	-0.006665	-0.000279	0.085038	1.000000	0.000031	0.000021	0.000030	1.384837	-85.313556	-1.363482
56483	9.897356	0.013141	0.809000	0.002603	-0.006122	0.117683	1.000000	0.000029	0.000048	0.000037	1.374491	-85.311719	-1.359613
56484	9.878323	-0.001829	0.815155	-0.004963	-0.021025	0.099188	1.000000	0.000022	0.000029	0.000026	1.379386	-85.312111	-1.364635
56485	9.897249	0.012067	0.810319	0.001277	-0.007205	0.117683	1.000000	0.000012	0.000026	0.000027	1.381052	-85.313010	-1.373762
56486	9.897207	0.011460	0.810841	0.000624	-0.007749	0.117683	1.000000	0.000024	0.000027	0.000037	1.370697	-85.313735	-1.363224
56487	9.869201	0.017914	0.842368	-0.033146	-0.001237	0.092358	1.000000	0.000032	0.000033	0.000025	1.378834	-85.313722	-1.368865
56488	9.891710	0.008541	0.788331	0.022546	-0.010591	0.110359	1.000000	0.000011	0.000033	0.000039	1.364485	-85.313784	-1.355832
56489	9.882670	0.029332	0.814588	-0.004336	0.010307	0.103534	1.000000	0.000019	0.000039	0.000026	1.366740	-85.313289	-1.373277
56490	9.910579	0.021780	0.784330	0.028125	0.002683	0.128863	1.000000	0.000028	0.000030	0.000031	1.365421	-85.313652	-1.371349
56491	9.882576	0.028250	0.815758	-0.005680	0.009231	0.103534	1.000000	0.000031	0.000021	0.000030	1.364650	-85.315311	-1.378123
56492	9.877135	0.025984	0.792629	0.016894	0.006929	0.096218	1.000000	0.000029	0.000042	0.000025	1.371194	-85.314261	-1.383975
56493	9.901444	0.041577	0.811797	0.000011	0.022486	0.122041	1.000000	0.000032	0.000039	0.000036	1.362533	-85.313106	-1.378532
56494	9.877813	-0.007439	0.821278	-0.011514	-0.026420	0.099170	1.000000	0.000005	0.000013	0.000028	1.362979	-85.315326	-1.381085
56495	9.891357	0.004712	0.792788	0.017984	-0.014390	0.110364	1.000000	0.000020	0.000051	0.000020	1.374816	-85.313206	-1.394673
56496	9.876919	0.023896	0.795380	0.014375	0.004746	0.096223	1.000000	0.000028	0.000030	0.000031	1.373502	-85.313567	-1.392751
56497	9.882253	0.025076	0.819772	-0.009507	0.005985	0.103534	1.000000	0.000015	0.000036	0.000032	1.367206	-85.313298	-1.401587
56498	9.896564	0.004825	0.818717	-0.007212	-0.014241	0.117673	1.000000	0.000025	0.000039	0.000031	1.364721	-85.312607	-1.398834
56499	9.887519	0.025726	0.844930	-0.034081	0.006676	0.110840	1.000000	0.000022	0.000029	0.000026	1.369578	-85.313249	-1.406679
56500	9.882086	0.023365	0.821828	-0.011505	0.004359	0.103533	1.000000	0.000021	0.000036	0.000037	1.358060	-85.312917	-1.395320
56501	9.871271	0.019222	0.775068	0.034284	0.000265	0.088924	1.000000	0.000019	0.000039	0.000026	1.361616	-85.312342	-1.405236
56502	9.909972	0.015127	0.792122	0.020260	-0.003860	0.128882	1.000000	0.000030	0.000008	0.000036	1.353602	-85.315166	-1.396359
56503	9.876563	0.019918	0.799896	0.009775	0.000948	0.096230	1.000000	0.000030	0.000054	0.000019	1.368620	-85.312573	-1.408924
56504	9.862127	0.039061	0.802565	0.006191	0.020095	0.082096	1.000000	0.000021	0.000036	0.000037	1.357108	-85.312240	-1.397571
56505	9.890800	-0.000922	0.799714	0.011365	-0.019832	0.110364	1.000000	0.000015	0.000036	0.000032	1.352121	-85.312160	-1.393499
56506	9.872755	0.041403	0.851501	-0.041607	0.022570	0.096693	1.000000	0.000019	0.000039	0.000026	1.355865	-85.311495	-1.397712
56507	9.890678	-0.002052	0.801220	0.010092	-0.020929	0.110363	1.000000	0.000031	0.000039	0.000036	1.347805	-85.310581	-1.386206
56508	9.861901	0.036706	0.805445	0.003586	0.017913	0.082102	1.000000	0.000022	0.000029	0.000026	1.352714	-85.310969	-1.391243
56509	9.876208	0.016560	0.804344	0.005798	-0.002327	0.096232	1.000000	0.000019	0.000039	0.000026	1.356886	-85.310670	-1.391770
56510	9.909498	0.010779	0.798095	0.014982	-0.008247	0.128889	1.000000	0.000026	0.000051	0.000025	1.362280	-85.308564	-1.396813
56511	9.881444	0.017343	0.829657	-0.018799	-0.001620	0.103522	1.000000	0.000021	0.000017	0.000032	1.358882	-85.310717	-1.401293
56512	9.875328	0.047154	0.779078	0.031010	0.028276	0.093348	1.000000	0.000021	0.000036	0.000037	1.347383	-85.310382	-1.389955
56513	9.889629	0.026888	0.778051	0.033278	0.008032	0.107478	1.000000	0.000019	0.000039	0.000026	1.350919	-85.309711	-1.401910
56514	9.900295	0.029906	0.826198	-0.013840	0.011070	0.122051	1.000000	0.000018	0.000026	0.000032	1.346801	-85.310457	-1.398347
56515	9.889523	0.025786	0.779427	0.031989	0.006932	0.107483	1.000000	0.000016	0.000048	0.000027	1.350357	-85.308643	-1.396745
56516	9.913843	0.041443	0.798398	0.015016	0.022486	0.133302	1.000000	0.000028	0.000011	0.000025	1.357586	-85.311134	-1.403423
56517	9.909146	0.006862	0.802503	0.010366	-0.012075	0.128891	1.000000	0.000031	0.000039	0.000036	1.349358	-85.310359	-1.397238
56518	9.889386	0.024286	0.781211	0.030042	0.005290	0.107490	1.000000	0.000020	0.000032	0.000015	1.369522	-85.310414	-1.417840
56519	9.875679	0.011295	0.810904	-0.000763	-0.007767	0.096231	1.000000	0.000018	0.000026	0.000032	1.365578	-85.311195	-1.420114
56520	9.889295	0.023197	0.782406	0.028732	0.004195	0.107494	1.000000	0.000021	0.000036	0.000037	1.354086	-85.310857	-1.408784
56521	9.875579	0.009987	0.812138	-0.002066	-0.008855	0.096230	1.000000	0.000018	0.000026	0.000032	1.350212	-85.311591	-1.411145
56522	9.908222	0.036296	0.778218	0.034343	0.017398	0.126041	1.000000	0.000028	0.000030	0.000031	1.348908	-85.311947	-1.409237
56523	9.866486	0.030308	0.838782	-0.029451	0.011546	0.089384	1.000000	0.000028	0.000030	0.000031	1.348946	-85.312028	-1.400279
56524	9.908802	0.003069	0.806757	0.005827	-0.015914	0.128889	1.000000	0.000010	0.000029	0.000016	1.366316	-85.312471	-1.419247
56525	9.894419	0.022277	0.808991	0.002264	0.003252	0.114773	1.000000	0.000037	0.000021	0.000035	1.359852	-85.313964	-1.419178
56526	9.875340	0.007392	0.815063	-0.005300	-0.011584	0.096226	1.000000	0.000026	0.000051	0.000025	1.365274	-85.311853	-1.424251
56527	9.875285	0.006911	0.815736	-0.005968	-0.012141	0.096225	1.000000	0.000015	0.000017	0.000027	1.369573	-85.313783	-1.420818
56528	9.894256	0.020699	0.811021	0.000287	0.001608	0.114774	1.000000	0.000022	0.000048	0.000032	1.365963	-85.312031	-1.417284
56529	9.860833	0.025454	0.818851	-0.010209	0.006485	0.082111	1.000000	0.000018	0.000026	0.000032	1.362099	-85.313088	-1.413224
56530	9.888815	0.017831	0.788586	0.022166	-0.001285	0.107512	1.000000	0.000026	0.000032	0.000020	1.376060	-85.313112	-1.426889
56531	9.879763	0.038856	0.814688	-0.004630	0.019683	0.100664	1.000000	0.000028	0.000030	0.000031	1.375284	-85.313612	-1.422055
56532	9.888721	0.016854	0.789787	0.020836	-0.002379	0.107515	1.000000	0.000022	0.000029	0.000026	1.380216	-85.313995	-1.427116
56533	9.880295	0.005526	0.843394	-0.033228	-0.013605	0.103475	1.000000	0.000018	0.000045	0.000038	1.368004	-85.312759	-1.415549
56534	9.855242	0.020914	0.798316	0.009727	0.001962	0.074852	1.000000	0.000024	0.000027	0.000037	1.357675	-85.313471	-1.405042
56535	9.879556	0.036519	0.817304	-0.007288	0.017506	0.100667	1.000000	0.000026	0.000032	0.000020	1.371841	-85.313654	-1.421543
56536	9.888515	0.014554	0.792406	0.018171	-0.004564	0.107519	1.000000	0.000018	0.000026	0.000032	1.367740	-85.314395	-1.418000
56537	9.874133	0.033654	0.794773	0.014660	0.014603	0.093415	1.000000	0.000025	0.000039	0.000031	1.365961	-85.313643	-1.412928
56538	9.874080	0.033128	0.795449	0.014010	0.014060	0.093417	1.000000	0.000022	0.000029	0.000026	1.370896	-85.314025	-1.417994
56539	9.899006	0.016630	0.841860	-0.030269	-0.002602	0.122020	1.000000	0.000026	0.000032	0.000020	1.385742	-85.314084	-1.427189
56540	9.893008	0.046523	0.791508	0.019599	0.027239	0.111985	1.000000	0.000028	0.000049	0.000036	1.375919	-85.312300	-1.416708
56541	9.888239	0.011917	0.795883	0.014912	-0.007311	0.107523	1.000000	0.000012	0.000026	0.000027	1.378490	-85.313064	-1.424166
56542	9.888178	0.011429	0.796648	0.014259	-0.007855	0.107523	1.000000	0.000026	0.000051	0.000025	1.383927	-85.310949	-1.429253
56543	9.893432	0.012702	0.821176	-0.009679	-0.006585	0.114767	1.000000	0.000018	0.000027	0.000032	1.379790	-85.311926	-1.432893
56544	9.888068	0.010241	0.798035	0.012912	-0.008943	0.107524	1.000000	0.000021	0.000036	0.000037	1.368323	-85.311582	-1.421590
56545	9.873691	0.029413	0.800417	0.009399	0.010229	0.093427	1.000000	0.000026	0.000032	0.000020	1.383267	-85.311650	-1.428390
56546	9.864624	0.050502	0.826581	-0.017348	0.031228	0.086571	1.000000	0.000019	0.000039	0.000026	1.387055	-85.310977	-1.432650
56547	9.849223	0.012419	0.783407	0.024450	-0.006945	0.067618	1.000000	0.000032	0.000033	0.000025	1.395285	-85.310947	-1.442639
56548	9.888421	-0.023801	0.828271	-0.017000	-0.043315	0.110281	1.000000	0.000029	0.000042	0.000025	1.401872	-85.309884	-1.448538
56549	9.883043	-0.026016	0.805358	0.005574	-0.045680	0.103043	1.000000	-0.000007	0.000044	0.000018	1.414558	-85.308711	-1.463999
56550	9.879738	0.086314	0.873258	-0.062401	0.066680	0.105524	1.000000	0.000030	0.000008	0.000036	1.406556	-85.311527	-1.455143
56551	9.864351	0.048126	0.829968	-0.020606	0.028501	0.086573	1.000000	0.000026	0.000051	0.000025	1.412668	-85.309382	-1.458186
56552	9.916254	-0.033073	0.800209	0.013351	-0.052794	0.135707	1.000000	0.000024	0.000027	0.000037	1.402362	-85.310090	-1.447705
56553	9.906629	0.020005	0.798812	0.013865	0.000386	0.126106	1.000000	0.000028	0.000030	0.000031	1.401301	-85.310713	-1.445354
56554	9.906583	0.019484	0.799400	0.013211	-0.000159	0.126106	1.000000	0.000022	0.000030	0.000026	1.406246	-85.311091	-1.450431
56555	9.845091	0.031569	0.837860	-0.030192	0.012078	0.067989	1.000000	0.000015	0.000036	0.000032	1.401219	-85.311057	-1.445848
56556	9.925537	0.032508	0.795366	0.018747	0.013004	0.144693	1.000000	0.000047	0.000031	0.000046	1.381250	-85.311316	-1.423078
56557	9.867747	0.021140	0.784834	0.024745	0.001861	0.086213	1.000000	0.000013	0.000057	0.000027	1.383559	-85.308449	-1.422166
56558	9.905817	0.049135	0.774805	0.037873	0.029820	0.123389	1.000000	0.000030	0.000009	0.000036	1.375534	-85.311263	-1.413289
56559	9.867659	0.020080	0.785971	0.023447	0.000767	0.086216	1.000000	0.000017	0.000041	0.000015	1.395013	-85.310237	-1.436237
56560	9.858579	0.041232	0.812201	-0.003280	0.021788	0.079353	1.000000	0.000019	0.000039	0.000026	1.398816	-85.309560	-1.440512
56561	9.872830	0.021149	0.811224	-0.001113	0.001494	0.093437	1.000000	0.000020	0.000032	0.000015	1.419767	-85.309644	-1.458886
56562	9.906151	0.015358	0.804824	0.007946	-0.004546	0.126111	1.000000	0.000022	0.000030	0.000026	1.424717	-85.310020	-1.463969
56563	9.867974	-0.013692	0.816078	-0.006503	-0.033589	0.088924	1.000000	0.000022	0.000030	0.000026	1.430343	-85.310533	-1.466267
56564	9.897026	0.035956	0.831552	-0.019458	0.015924	0.119244	1.000000	0.000029	0.000042	0.000025	1.436937	-85.309467	-1.472173
56565	9.905993	0.013938	0.806793	0.005956	-0.006197	0.126112	1.000000	0.000012	0.000026	0.000027	1.439772	-85.310264	-1.473383
56566	9.920248	-0.006254	0.805712	0.008119	-0.026488	0.140190	1.000000	0.000032	0.000033	0.000025	1.447518	-85.310251	-1.480102
56567	9.867248	0.016595	0.791191	0.018185	-0.003608	0.086227	1.000000	0.000012	0.000026	0.000027	1.450034	-85.311126	-1.483478
56568	9.887293	-0.033966	0.841281	-0.030231	-0.054235	0.110196	1.000000	0.000022	0.000030	0.000026	1.454993	-85.311501	-1.488570
56569	9.891510	0.031665	0.810729	0.000542	0.011373	0.112035	1.000000	0.000018	0.000027	0.000032	1.450593	-85.312071	-1.497427
56570	9.891463	0.031146	0.811315	-0.000110	0.010829	0.112036	1.000000	0.000032	0.000033	0.000025	1.458343	-85.312057	-1.504151
56571	9.905715	0.010906	0.810245	0.002015	-0.009474	0.126111	1.000000	0.000018	0.000027	0.000032	1.454961	-85.312946	-1.491756
56572	9.877561	0.017654	0.841677	-0.031579	-0.002670	0.100634	1.000000	0.000029	0.000042	0.000025	1.461561	-85.311877	-1.497669
56573	9.886018	0.027820	0.789734	0.021139	0.007353	0.104837	1.000000	0.000026	0.000051	0.000025	1.467766	-85.309876	-1.493305
56574	9.872164	0.014813	0.819421	-0.009647	-0.005595	0.093431	1.000000	0.000030	0.000009	0.000036	1.459781	-85.312688	-1.484470
56575	9.885934	0.026697	0.790823	0.019810	0.006264	0.104841	1.000000	0.000029	0.000042	0.000025	1.466406	-85.311774	-1.491990
56576	9.891137	0.028019	0.815394	-0.004100	0.007549	0.112038	1.000000	0.000025	0.000039	0.000031	1.463989	-85.311064	-1.489313
56577	9.899633	0.038096	0.763207	0.048646	0.017568	0.116260	1.000000	0.000022	0.000030	0.000026	1.469091	-85.311415	-1.497427
56578	9.857659	0.032407	0.823687	-0.015070	0.011993	0.079359	1.000000	0.000015	0.000036	0.000032	1.463888	-85.311093	-1.493125
56579	9.899541	0.036980	0.764465	0.047357	0.016469	0.116269	1.000000	0.000012	0.000026	0.000027	1.465834	-85.311788	-1.508050
56580	9.852289	0.029415	0.801264	0.006903	0.009079	0.072168	1.000000	0.000028	0.000049	0.000036	1.456041	-85.309992	-1.497603
56581	9.905149	0.005374	0.817180	-0.004608	-0.014932	0.126103	1.000000	0.000024	0.000027	0.000037	1.446324	-85.310991	-1.479717
56582	9.861199	0.006771	0.777358	0.031597	-0.013608	0.079046	1.000000	0.000001	0.000050	0.000005	1.476711	-85.308983	-1.512688
56583	9.895994	0.026186	0.844102	-0.031992	0.005572	0.119223	1.000000	0.000018	0.000027	0.000032	1.473040	-85.309898	-1.506516
56584	9.904973	0.003964	0.819318	-0.006601	-0.016569	0.126099	1.000000	0.000021	0.000036	0.000037	1.461612	-85.309545	-1.495257
56585	9.866288	0.006941	0.803211	0.006352	-0.013409	0.086233	1.000000	0.000015	0.000036	0.000032	1.456855	-85.309223	-1.490472
56586	9.885762	-0.011549	0.826093	-0.014782	-0.031878	0.107474	1.000000	0.000025	0.000039	0.000031	1.454448	-85.308510	-1.487806
56587	9.890516	0.021873	0.823085	-0.011371	0.001556	0.112035	1.000000	0.000028	0.000030	0.000031	1.453334	-85.309025	-1.484613
56588	9.890468	0.021354	0.823673	-0.012023	0.001013	0.112035	1.000000	0.000022	0.000030	0.000026	1.458304	-85.309396	-1.489717
56589	9.881375	0.042336	0.849809	-0.038743	0.022078	0.105153	1.000000	0.000018	0.000045	0.000038	1.445741	-85.308167	-1.477473
56590	9.865992	0.004020	0.806863	0.003035	-0.016121	0.086230	1.000000	0.000052	0.000046	0.000034	1.442679	-85.306647	-1.471098
56591	9.890270	0.019450	0.826100	-0.014001	-0.000622	0.112032	1.000000	0.000011	0.000033	0.000039	1.428914	-85.306624	-1.456423
56592	9.890219	0.018796	0.826721	-0.014654	-0.001165	0.112031	1.000000	0.000028	0.000030	0.000031	1.427653	-85.306965	-1.454564
56593	9.879693	0.014481	0.779735	0.031200	-0.005391	0.097688	1.000000	0.000024	0.000027	0.000037	1.417345	-85.307791	-1.445492
56594	9.884882	0.015780	0.804155	0.007284	-0.004092	0.104859	1.000000	0.000013	0.000038	0.000021	1.427414	-85.307136	-1.456768
56595	9.884820	0.015249	0.804925	0.005696	-0.004947	0.104860	1.000000	0.000031	0.000040	0.000036	1.442396	-85.311760	-1.491040
56596	9.884760	0.014654	0.805666	0.005040	-0.005491	0.104860	1.000000	0.000009	0.000035	0.000027	1.443559	-85.311485	-1.493830
56597	9.884711	0.014044	0.806283	0.004379	-0.006036	0.104860	1.000000	0.000024	0.000027	0.000037	1.433367	-85.312234	-1.485080
56598	9.879431	0.011478	0.783099	0.026989	-0.008436	0.097698	1.000000	0.000011	0.000033	0.000039	1.419272	-85.312286	-1.472307
56599	9.865493	-0.001398	0.812951	-0.003821	-0.021316	0.086220	1.000000	0.000027	0.000045	0.000014	1.441143	-85.311010	-1.495434
56600	9.903647	0.026654	0.803127	0.009260	0.006524	0.123500	1.000000	0.000015	0.000036	0.000032	1.436074	-85.310704	-1.491259
56601	9.898752	-0.007985	0.807457	0.004455	-0.027992	0.118906	1.000000	0.000024	0.000027	0.000037	1.426072	-85.311571	-1.473440
56602	9.912978	-0.028268	0.806323	0.006539	-0.048318	0.132950	1.000000	0.000019	0.000020	0.000021	1.438526	-85.313047	-1.486415
56603	9.884402	0.010711	0.810110	0.000386	-0.009298	0.104858	1.000000	0.000031	0.000040	0.000036	1.429714	-85.312391	-1.478469
56604	9.884347	0.010231	0.810785	-0.000270	-0.009842	0.104858	1.000000	0.000010	0.000029	0.000016	1.447281	-85.312841	-1.497629
56605	9.870031	0.029502	0.813055	-0.003676	0.009403	0.090814	1.000000	0.000031	0.000040	0.000036	1.438312	-85.312200	-1.491936
56606	9.869969	0.028929	0.813827	-0.004330	0.008860	0.090814	1.000000	0.000019	0.000039	0.000026	1.442270	-85.311533	-1.496360
56607	9.903297	0.022993	0.807544	0.004614	0.002714	0.123505	1.000000	0.000029	0.000023	0.000019	1.457512	-85.312594	-1.508562
56608	9.875088	0.029921	0.838833	-0.028905	0.009635	0.097962	1.000000	0.000025	0.000039	0.000031	1.455231	-85.311898	-1.506015
56609	9.897972	0.020042	0.785131	0.026581	-0.000239	0.116360	1.000000	0.000021	0.000036	0.000037	1.443535	-85.311502	-1.503198
56610	9.903128	0.021258	0.809655	0.002654	0.001082	0.123506	1.000000	0.000025	0.000039	0.000031	1.441258	-85.310805	-1.500656
56611	9.897861	0.018831	0.786561	0.025269	-0.001329	0.116363	1.000000	0.000028	0.000030	0.000031	1.439611	-85.311154	-1.509571
56612	9.883902	0.005948	0.816231	-0.005525	-0.014175	0.104851	1.000000	0.000022	0.000030	0.000026	1.444703	-85.311542	-1.514791
56613	9.874477	0.059190	0.814638	-0.004754	0.039033	0.095435	1.000000	0.000012	0.000026	0.000027	1.447112	-85.312364	-1.511189
56614	9.883814	0.004850	0.817310	-0.006844	-0.015265	0.104848	1.000000	0.000024	0.000027	0.000037	1.436942	-85.313079	-1.500844
56615	9.902550	0.050544	0.785250	0.026760	0.030454	0.120994	1.000000	0.000022	0.000048	0.000031	1.433879	-85.311427	-1.483667
56616	9.883358	0.035727	0.791382	0.019246	0.015737	0.102337	1.000000	0.000015	0.000036	0.000032	1.428831	-85.311117	-1.479514
56617	9.907964	0.019097	0.838021	-0.025237	-0.000866	0.130640	1.000000	0.000028	0.000030	0.000031	1.427773	-85.311437	-1.477639
56618	9.864134	0.020342	0.797889	0.011085	0.000477	0.083678	1.000000	0.000018	0.000027	0.000032	1.423846	-85.312182	-1.474270
56619	9.878653	-0.032182	0.824360	-0.014275	-0.051960	0.100208	1.000000	0.000024	0.000027	0.000037	1.413973	-85.312874	-1.458280
56620	9.888367	0.035085	0.817649	-0.006640	0.015421	0.109475	1.000000	0.000028	0.000049	0.000036	1.404356	-85.311087	-1.448004
56621	9.878223	-0.001233	0.798276	0.011842	-0.020954	0.097709	1.000000	0.000013	0.000020	0.000016	1.422906	-85.312528	-1.471920
56622	9.888266	0.034131	0.818909	-0.007938	0.014334	0.109476	1.000000	0.000031	0.000040	0.000036	1.414403	-85.311797	-1.462421
56623	9.878122	-0.002341	0.799516	0.010512	-0.022037	0.097708	1.000000	0.000018	0.000027	0.000032	1.410045	-85.312624	-1.464715
56624	9.888162	0.032909	0.820213	-0.009262	0.013253	0.109476	1.000000	0.000025	0.000039	0.000031	1.407789	-85.311923	-1.462194
56625	9.883197	-0.001528	0.824750	-0.014094	-0.021246	0.104830	1.000000	0.000023	0.000042	0.000020	1.420602	-85.310992	-1.474815
56626	9.912377	0.047924	0.840152	-0.027012	0.028202	0.135270	1.000000	0.000020	0.000024	0.000043	1.401415	-85.312061	-1.455884
56627	9.882814	0.029339	0.798410	0.012023	0.009748	0.102356	1.000000	0.000022	0.000030	0.000026	1.406399	-85.312500	-1.460480
56628	9.887941	0.030723	0.822960	-0.011910	0.011082	0.109476	1.000000	0.000016	0.000048	0.000026	1.409279	-85.310772	-1.464166
56629	9.868752	0.015944	0.828811	-0.019421	-0.003614	0.090800	1.000000	0.000030	0.000009	0.000036	1.401305	-85.313610	-1.455060
56630	9.911130	-0.011844	0.797233	0.015426	-0.031497	0.130400	1.000000	0.000026	0.000051	0.000025	1.406971	-85.311495	-1.460370
56631	9.902022	0.009296	0.823301	-0.011208	-0.010354	0.123494	1.000000	0.000002	0.000023	0.000028	1.406382	-85.312727	-1.461442
56632	9.887745	0.028621	0.825395	-0.014548	0.008909	0.109475	1.000000	0.000026	0.000033	0.000020	1.420510	-85.312755	-1.475269
56633	9.877590	-0.007700	0.806033	0.003907	-0.027475	0.097699	1.000000	0.000015	0.000036	0.000032	1.415738	-85.312463	-1.461225
56634	9.901869	0.007754	0.825148	-0.013183	-0.011994	0.123490	1.000000	0.000018	0.000027	0.000032	1.411820	-85.313205	-1.457867
56635	9.868172	0.044845	0.805186	0.004084	0.025201	0.088349	1.000000	0.000022	0.000048	0.000031	1.408425	-85.311416	-1.452627
56636	9.896568	0.004844	0.802872	0.008788	-0.014963	0.116380	1.000000	0.000010	0.000029	0.000016	1.426020	-85.311861	-1.471814
56637	9.868322	0.011844	0.833975	-0.024676	-0.007955	0.090785	1.000000	0.000037	0.000021	0.000035	1.419479	-85.313258	-1.465575
56638	9.901414	0.037736	0.800145	0.011641	0.017903	0.121053	1.000000	-0.000001	0.000032	0.000029	1.417927	-85.313360	-1.466814
56639	9.848827	0.028606	0.812895	-0.005402	0.008890	0.069666	1.000000	0.000038	0.000033	0.000030	1.419615	-85.313464	-1.459470
56640	9.896382	0.002680	0.805172	0.006133	-0.017141	0.116378	1.000000	0.000028	0.000030	0.000031	1.418478	-85.313816	-1.457732
56641	9.901270	0.036126	0.802008	0.009641	0.016267	0.121058	1.000000	0.000022	0.000030	0.000026	1.423578	-85.314228	-1.459335
56642	9.876896	0.019548	0.784094	0.025428	-0.000296	0.095269	1.000000	0.000028	0.000030	0.000031	1.422443	-85.314580	-1.457599
56643	9.881783	0.052943	0.781020	0.028954	0.033112	0.099956	1.000000	0.000025	0.000039	0.000031	1.419946	-85.313833	-1.457978
56644	9.920512	0.016502	0.826110	-0.012938	-0.003301	0.142166	1.000000	0.000027	0.000018	0.000037	1.410889	-85.315598	-1.448413
56645	9.895909	0.032045	0.780736	0.030308	0.012203	0.113970	1.000000	0.000014	0.000051	0.000015	1.429022	-85.313554	-1.468655
56646	9.890691	0.029612	0.757666	0.052937	0.009770	0.106880	1.000000	0.000050	0.000022	0.000045	1.410244	-85.314869	-1.446744
56647	9.900975	0.032641	0.805780	0.005726	0.012999	0.121066	1.000000	0.000005	0.000033	0.000034	1.402129	-85.314864	-1.450474
56648	9.886915	0.019675	0.835529	-0.025056	0.000218	0.109458	1.000000	0.000021	0.000036	0.000037	1.390871	-85.314514	-1.439383
56649	9.881698	0.017176	0.812451	-0.002441	-0.002216	0.102368	1.000000	0.000009	0.000036	0.000027	1.392016	-85.314308	-1.441908
56650	9.881638	0.016627	0.813190	-0.003097	-0.002760	0.102367	1.000000	0.000025	0.000039	0.000031	1.389788	-85.313601	-1.439417
56651	9.876422	0.014103	0.790148	0.019512	-0.005196	0.095281	1.000000	0.000021	0.000036	0.000037	1.378655	-85.313379	-1.420685
56652	9.909753	0.007883	0.784014	0.028342	-0.011443	0.127987	1.000000	0.000022	0.000030	0.000026	1.383772	-85.313760	-1.425933
56653	9.848083	0.020528	0.822107	-0.014583	0.001311	0.069661	1.000000	0.000006	0.000045	0.000028	1.383918	-85.312493	-1.426973
56654	9.895436	0.026493	0.786919	0.024368	0.007290	0.113991	1.000000	0.000050	0.000022	0.000045	1.365126	-85.313805	-1.405050
56655	9.895569	-0.006185	0.815078	-0.003798	-0.025304	0.116362	1.000000	0.000013	0.000039	0.000021	1.375104	-85.313328	-1.417253
56656	9.881308	0.013178	0.817254	-0.007097	-0.006021	0.102364	1.000000	0.000022	0.000030	0.000026	1.380223	-85.313708	-1.422504
56657	9.895284	0.024922	0.788872	0.022371	0.005658	0.113997	1.000000	0.000025	0.000039	0.000031	1.377839	-85.312998	-1.422115
56658	9.876220	-0.021826	0.822392	-0.012606	-0.041050	0.097645	1.000000	0.000022	0.000030	0.000026	1.382959	-85.313378	-1.427367
56659	9.895181	0.023806	0.790206	0.021046	0.004567	0.114000	1.000000	0.000021	0.000036	0.000037	1.371836	-85.313095	-1.409147
56660	9.881090	0.011044	0.819913	-0.009732	-0.008196	0.102360	1.000000	0.000010	0.000029	0.000016	1.389459	-85.313538	-1.428364
56661	9.866824	0.030471	0.822200	-0.013011	0.011094	0.088367	1.000000	0.000026	0.000052	0.000025	1.395081	-85.311360	-1.436989
56662	9.900160	0.024346	0.816024	-0.004204	0.004827	0.121074	1.000000	0.000018	0.000008	0.000026	1.399612	-85.314241	-1.442138
56663	9.900120	0.023832	0.816523	-0.004869	0.004284	0.121074	1.000000	0.000035	0.000043	0.000030	1.400027	-85.313195	-1.440986
56664	9.875736	0.007214	0.798777	0.010936	-0.012267	0.095288	1.000000	0.000015	0.000036	0.000032	1.395040	-85.312872	-1.436899
56665	9.861485	0.026541	0.800939	0.007652	0.007027	0.081300	1.000000	0.000026	0.000033	0.000020	1.409040	-85.312918	-1.450803
56666	9.866561	0.027980	0.825441	-0.016294	0.008385	0.088364	1.000000	0.000025	0.000039	0.000031	1.406826	-85.312207	-1.448328
56667	9.856380	-0.008305	0.806105	0.002132	-0.028001	0.076565	1.000000	0.000010	0.000029	0.000016	1.424474	-85.312667	-1.468102
56668	9.885634	0.041206	0.821615	-0.010778	0.021400	0.107087	1.000000	0.000028	0.000049	0.000036	1.414918	-85.310867	-1.457891
56669	9.880581	0.006775	0.826079	-0.015651	-0.013086	0.102347	1.000000	0.000013	0.000020	0.000016	1.433727	-85.312408	-1.472937
56670	9.880406	0.038354	0.799083	0.011197	0.018407	0.100030	1.000000	0.000031	0.000040	0.000036	1.425262	-85.311665	-1.463480
56671	9.894551	0.017935	0.798206	0.013162	-0.001979	0.114015	1.000000	0.000031	0.000021	0.000030	1.425179	-85.313036	-1.464276
56672	9.894514	0.017312	0.798680	0.012506	-0.002525	0.114015	1.000000	0.000024	0.000027	0.000037	1.415037	-85.313738	-1.453967
56673	9.875265	0.002498	0.804605	0.005028	-0.017164	0.095286	1.000000	0.000031	0.000040	0.000036	1.406470	-85.312965	-1.447705
56674	9.880220	0.035880	0.801495	0.008591	0.016229	0.100036	1.000000	0.000022	0.000030	0.000026	1.411605	-85.313342	-1.452973
56675	9.894363	0.015526	0.800586	0.010536	-0.004158	0.114017	1.000000	0.000018	0.000027	0.000032	1.407519	-85.314100	-1.450087
56676	9.885252	0.036620	0.826411	-0.016019	0.017053	0.107088	1.000000	0.000034	0.000031	0.000036	1.400145	-85.314413	-1.441386
56677	9.889146	0.012423	0.778043	0.032519	-0.007159	0.106970	1.000000	0.000019	0.000039	0.000026	1.403935	-85.313729	-1.450962
56678	9.899327	0.015736	0.826280	-0.014730	-0.003878	0.121065	1.000000	0.000012	0.000026	0.000027	1.406304	-85.314492	-1.454626
56679	9.874956	-0.000800	0.808390	0.001085	-0.020421	0.095281	1.000000	0.000019	0.000039	0.000026	1.410260	-85.313808	-1.460893
56680	9.899218	0.014756	0.827606	-0.016044	-0.004965	0.121062	1.000000	0.000022	0.000030	0.000026	1.415399	-85.314183	-1.466166
56681	9.855561	0.016115	0.787318	0.020481	-0.003575	0.074263	1.000000	0.000028	0.000030	0.000031	1.414373	-85.314522	-1.462622
56682	9.894008	0.011875	0.805021	0.005940	-0.007973	0.114019	1.000000	0.000026	0.000033	0.000020	1.428540	-85.314541	-1.476491
56683	9.889997	0.035109	0.854684	-0.043895	0.015179	0.114125	1.000000	0.000022	0.000030	0.000026	1.433382	-85.314890	-1.486989
56684	9.879729	0.030787	0.807735	0.002047	0.010795	0.100047	1.000000	0.000009	0.000036	0.000027	1.434676	-85.314594	-1.489915
56685	9.902916	-0.011366	0.781784	0.029844	-0.031377	0.120952	1.000000	0.000031	0.000040	0.000036	1.425813	-85.313891	-1.483974
56686	9.879628	0.029503	0.809014	0.000730	0.009712	0.100049	1.000000	0.000017	0.000015	0.000038	1.413992	-85.316034	-1.472812
56687	9.869439	-0.006872	0.789616	0.019129	-0.026685	0.088237	1.000000	0.000033	0.000045	0.000019	1.429725	-85.314603	-1.489214
56688	9.884615	0.030457	0.834237	-0.023879	0.010552	0.107082	1.000000	0.000025	0.000039	0.000031	1.427532	-85.313886	-1.486761
56689	9.912836	0.022321	0.804551	0.008168	0.002292	0.132766	1.000000	0.000029	0.000042	0.000025	1.434413	-85.312762	-1.494615
56690	9.874295	0.025614	0.788160	0.021420	0.005608	0.093021	1.000000	0.000028	0.000030	0.000031	1.433305	-85.313103	-1.492910
56691	9.874244	0.024937	0.788820	0.020770	0.005064	0.093023	1.000000	0.000027	0.000037	0.000042	1.415738	-85.312686	-1.478161
56692	9.898507	0.040423	0.808016	0.003635	0.020516	0.118804	1.000000	0.000010	0.000029	0.000016	1.433400	-85.313122	-1.497417
56693	9.869103	-0.009928	0.793774	0.015188	-0.029949	0.088234	1.000000	0.000025	0.000020	0.000025	1.439380	-85.314629	-1.504763
56694	9.879192	0.025474	0.814467	-0.004510	0.005367	0.100051	1.000000	0.000026	0.000052	0.000025	1.445130	-85.312497	-1.510158
56695	9.893297	0.005092	0.813778	-0.002625	-0.015034	0.114012	1.000000	0.000008	0.000023	0.000033	1.438046	-85.313707	-1.508363
56696	9.873993	0.022396	0.792027	0.017466	0.002350	0.093030	1.000000	0.000025	0.000039	0.000031	1.435860	-85.312989	-1.505918
56697	9.893190	0.003960	0.815083	-0.003941	-0.016119	0.114010	1.000000	0.000022	0.000030	0.000026	1.440749	-85.313361	-1.516318
56698	9.893134	0.003437	0.815767	-0.004598	-0.016663	0.114009	1.000000	0.000025	0.000039	0.000031	1.438565	-85.312642	-1.513875
56699	9.893072	0.002755	0.816522	-0.005265	-0.017205	0.114007	1.000000	0.000027	0.000037	0.000042	1.420912	-85.312302	-1.493180
56700	9.854562	0.005947	0.799863	0.008017	-0.013875	0.074272	1.000000	0.000028	0.000011	0.000025	1.428217	-85.314790	-1.499947
56701	9.892992	0.001665	0.817495	-0.006596	-0.018289	0.114005	1.000000	0.000019	0.000039	0.000026	1.431996	-85.314203	-1.501868
56702	9.897990	0.035132	0.814562	-0.002980	0.015088	0.118814	1.000000	0.000026	0.000052	0.000025	1.437760	-85.312069	-1.507278
56703	9.854393	0.004597	0.801957	0.006024	-0.015494	0.074271	1.000000	0.000019	0.000020	0.000020	1.450027	-85.313607	-1.517725
56704	9.897889	0.034178	0.815829	-0.004306	0.014002	0.118815	1.000000	0.000021	0.000036	0.000037	1.438829	-85.313241	-1.506701
56705	9.878606	0.019388	0.821701	-0.011789	-0.000585	0.100046	1.000000	0.000024	0.000027	0.000037	1.428382	-85.314006	-1.495867
56706	9.873481	0.016763	0.798527	0.010862	-0.003072	0.093039	1.000000	0.000021	0.000036	0.000037	1.417188	-85.313640	-1.484846
56707	9.892654	-0.001694	0.821572	-0.010556	-0.021543	0.113995	1.000000	0.000016	0.000029	0.000021	1.428403	-85.313964	-1.503936
56708	9.873363	-0.016327	0.827465	-0.018028	-0.036129	0.095220	1.000000	0.000021	0.000036	0.000037	1.417211	-85.313598	-1.492918
56709	9.878393	0.017041	0.824316	-0.014400	-0.002754	0.100043	1.000000	0.000032	0.000033	0.000025	1.425064	-85.313586	-1.495625
56710	9.897563	0.030685	0.819912	-0.008243	0.010743	0.118817	1.000000	0.000026	0.000052	0.000025	1.430843	-85.311450	-1.501051
56711	9.853956	0.000077	0.807324	0.000777	-0.019827	0.074265	1.000000	0.000002	0.000023	0.000028	1.430468	-85.312646	-1.497460
56712	9.878220	0.015581	0.826411	-0.016376	-0.004384	0.100039	1.000000	0.000022	0.000030	0.000026	1.435630	-85.313014	-1.502758
56713	9.897404	0.029162	0.821890	-0.010220	0.009114	0.118817	1.000000	0.000035	0.000043	0.000030	1.435904	-85.311896	-1.504642
56714	9.878132	0.046569	0.800287	0.009912	0.026501	0.097878	1.000000	0.000019	0.000039	0.000026	1.439997	-85.311205	-1.509206
56715	9.892215	0.026190	0.799668	0.011750	0.006079	0.111823	1.000000	0.000025	0.000039	0.000031	1.437660	-85.310631	-1.495643
56716	9.867851	0.009537	0.781847	0.027598	-0.010447	0.086050	1.000000	0.000021	0.000037	0.000037	1.426484	-85.310262	-1.484641
56717	9.897154	0.026895	0.824970	-0.012868	0.006942	0.118815	1.000000	0.000019	0.000039	0.000026	1.430347	-85.309544	-1.493303
56718	9.872811	0.010305	0.806870	0.002980	-0.009584	0.093041	1.000000	0.000030	0.000009	0.000036	1.422368	-85.312352	-1.484490
56719	9.863686	0.031498	0.832568	-0.023509	0.011717	0.086089	1.000000	0.000035	0.000043	0.000030	1.422586	-85.311298	-1.486074
56720	9.911213	0.037412	0.797656	0.015271	0.017388	0.130615	1.000000	0.000026	0.000033	0.000020	1.436768	-85.311310	-1.499960
56721	9.882818	0.044678	0.828790	-0.018020	0.024665	0.104876	1.000000	0.000025	0.000039	0.000031	1.434181	-85.310640	-1.498627
56722	9.848293	-0.007770	0.790947	0.016845	-0.027726	0.067266	1.000000	0.000028	0.000030	0.000031	1.433090	-85.310974	-1.496943
56723	9.925189	0.015978	0.798334	0.015793	-0.004131	0.144556	1.000000	0.000009	0.000036	0.000027	1.434095	-85.310677	-1.504165
56724	9.815954	0.086549	0.816326	-0.010978	0.066733	0.037300	1.000000	0.000034	0.000031	0.000036	1.426745	-85.310978	-1.495493
56725	9.925082	0.014818	0.799682	0.014484	-0.005227	0.144557	1.000000	0.000019	0.000039	0.000026	1.430927	-85.310238	-1.503141
56726	9.919893	-0.019683	0.804323	0.009515	-0.039684	0.139696	1.000000	0.000031	0.000040	0.000036	1.422519	-85.309480	-1.493748
56727	9.877449	0.039249	0.809059	0.001363	0.019449	0.097899	1.000000	0.000008	0.000024	0.000033	1.415947	-85.310641	-1.485091
56728	9.863190	0.026468	0.838596	-0.029408	0.006853	0.086078	1.000000	0.000024	0.000027	0.000037	1.405842	-85.311328	-1.474827
56729	9.852969	-0.010027	0.819215	-0.011059	-0.029552	0.074234	1.000000	0.000028	0.000030	0.000031	1.404261	-85.311630	-1.482375
56730	9.896483	0.019587	0.833191	-0.021421	-0.000103	0.118803	1.000000	0.000026	0.000033	0.000020	1.418452	-85.311641	-1.496270
56731	9.886357	0.015236	0.786195	0.024546	-0.004581	0.104861	1.000000	0.000028	0.000030	0.000031	1.417187	-85.312011	-1.492337
56732	9.919692	0.009010	0.780318	0.033175	-0.011015	0.137592	1.000000	0.000017	0.000042	0.000015	1.436582	-85.310994	-1.512502
56733	9.866966	0.000276	0.792992	0.016435	-0.019678	0.086060	1.000000	0.000018	0.000046	0.000037	1.424379	-85.309547	-1.498232
56734	9.891193	0.015724	0.812482	-0.000737	-0.004247	0.111831	1.000000	0.000039	0.000046	0.000024	1.434000	-85.308078	-1.506003
56735	9.871871	0.001195	0.818365	-0.008193	-0.018791	0.093025	1.000000	0.000031	0.000021	0.000030	1.433687	-85.309452	-1.513108
56736	9.915401	0.030675	0.832201	-0.018562	0.010646	0.137600	1.000000	0.000018	0.000027	0.000032	1.429854	-85.310170	-1.509845
56737	9.866757	-0.001917	0.795590	0.013805	-0.021847	0.086060	1.000000	0.000028	0.000030	0.000031	1.428420	-85.310535	-1.508871
56738	9.910281	0.027617	0.809549	0.003434	0.007585	0.130639	1.000000	0.000022	0.000030	0.000026	1.433601	-85.310898	-1.514190
56739	9.866778	0.029001	0.769272	0.040151	0.008989	0.083991	1.000000	0.000022	0.000049	0.000031	1.430475	-85.309072	-1.512841
56740	9.905129	0.024576	0.787352	0.025443	0.004514	0.123683	1.000000	0.000009	0.000036	0.000027	1.431851	-85.308761	-1.515853
56741	9.890836	0.012020	0.816881	-0.005349	-0.008045	0.111827	1.000000	0.000038	0.000015	0.000024	1.441685	-85.310964	-1.517868
56742	9.890798	0.011532	0.817346	-0.006006	-0.008589	0.111826	1.000000	-0.000001	0.000032	0.000028	1.440315	-85.311040	-1.519295
56743	9.905005	0.023115	0.788964	0.023454	0.002881	0.123688	1.000000	0.000032	0.000033	0.000025	1.448330	-85.311011	-1.524233
56744	9.881594	0.032347	0.843830	-0.033098	0.012208	0.104860	1.000000	0.000015	0.000036	0.000032	1.443450	-85.310666	-1.520258
56745	9.890633	0.009988	0.819365	-0.007994	-0.010218	0.111823	1.000000	0.000032	0.000033	0.000025	1.451002	-85.310749	-1.523155
56746	9.885560	0.007568	0.796267	0.014670	-0.012740	0.104874	1.000000	0.000019	0.000039	0.000026	1.455135	-85.310051	-1.527761
56747	9.900696	0.044880	0.840786	-0.028298	0.024576	0.123675	1.000000	0.000025	0.000040	0.000031	1.452792	-85.309365	-1.524769
56748	9.852040	0.012376	0.804398	0.004102	-0.007902	0.072140	1.000000	0.000029	0.000042	0.000025	1.459671	-85.308279	-1.530960
56749	9.890387	0.007928	0.822357	-0.010626	-0.012388	0.111818	1.000000	0.000024	0.000027	0.000037	1.449429	-85.308935	-1.524910
56750	9.904606	0.019448	0.794051	0.018832	-0.000931	0.123698	1.000000	0.000039	0.000046	0.000024	1.459056	-85.307461	-1.532688
56751	9.890454	0.038812	0.795969	0.015726	0.018440	0.109790	1.000000	0.000011	0.000014	0.000033	1.453436	-85.309634	-1.525841
56752	9.885226	0.004316	0.800424	0.010724	-0.016002	0.104874	1.000000	0.000035	0.000043	0.000030	1.454059	-85.308515	-1.525048
56753	9.890347	0.037632	0.797349	0.014413	0.017350	0.109794	1.000000	0.000031	0.000040	0.000036	1.445655	-85.307760	-1.515351
56754	9.861896	0.044780	0.828448	-0.018797	0.024729	0.083997	1.000000	0.000021	0.000037	0.000037	1.434533	-85.307380	-1.504408
56755	9.909333	0.018331	0.821327	-0.007782	-0.001669	0.130639	1.000000	0.000021	0.000037	0.000037	1.423240	-85.306998	-1.495898
56756	9.865889	0.019667	0.780877	0.028982	-0.000247	0.084034	1.000000	0.000022	0.000030	0.000026	1.428431	-85.307357	-1.501228
56757	9.870628	-0.010892	0.833152	-0.022671	-0.030709	0.092972	1.000000	0.000018	0.000046	0.000037	1.416294	-85.305886	-1.488766
56758	9.870771	0.020346	0.806161	0.004353	0.000653	0.090969	1.000000	0.000024	0.000027	0.000037	1.406220	-85.306565	-1.478536
56759	9.885028	0.031875	0.777729	0.033809	0.012093	0.102874	1.000000	0.000026	0.000033	0.000020	1.420355	-85.306581	-1.491720
56760	9.884980	0.031420	0.778351	0.033154	0.011547	0.102877	1.000000	0.000028	0.000030	0.000031	1.419289	-85.306907	-1.490064
56761	9.884712	-0.001081	0.806759	0.004804	-0.020897	0.104869	1.000000	0.000025	0.000040	0.000031	1.417031	-85.306225	-1.487043
56762	9.903957	0.012366	0.802243	0.010933	-0.007474	0.123707	1.000000	0.000028	0.000030	0.000031	1.415966	-85.306550	-1.485389
56763	9.893700	-0.024111	0.783061	0.029222	-0.043897	0.111842	1.000000	0.000041	0.000043	0.000035	1.410064	-85.305521	-1.471908
56764	9.922907	-0.006676	0.826341	-0.011307	-0.026494	0.144528	1.000000	0.000029	0.000042	0.000025	1.416969	-85.304431	-1.478126
56765	9.884460	-0.003233	0.809832	0.002150	-0.023067	0.104866	1.000000	0.000019	0.000039	0.000026	1.420973	-85.303774	-1.478809
56766	9.875300	0.018058	0.835600	-0.024256	-0.001693	0.097889	1.000000	0.000024	0.000027	0.000037	1.410910	-85.304451	-1.468592
56767	9.894551	0.031456	0.831090	-0.018144	0.011727	0.116732	1.000000	0.000035	0.000043	0.000030	1.411440	-85.303400	-1.463893
56768	9.884526	0.026984	0.784263	0.027858	0.007200	0.102897	1.000000	0.000019	0.000039	0.000026	1.415604	-85.302696	-1.468532
56769	9.870383	0.046336	0.786294	0.024773	0.026588	0.089007	1.000000	0.000015	0.000036	0.000032	1.410674	-85.302415	-1.460888
56770	9.875061	0.015792	0.838470	-0.026902	-0.003863	0.097881	1.000000	0.000018	0.000027	0.000032	1.406872	-85.303125	-1.457660
56771	9.889352	0.027318	0.810007	0.002558	0.007562	0.109816	1.000000	0.000016	0.000029	0.000021	1.418126	-85.303470	-1.475009
56772	9.870235	0.044797	0.788239	0.022822	0.024955	0.089016	1.000000	0.000016	0.000048	0.000026	1.421260	-85.301704	-1.478954
56773	9.903302	0.006577	0.810354	0.003664	-0.013463	0.123706	1.000000	0.000007	0.000038	0.000016	1.438075	-85.301002	-1.501552
56774	9.894154	0.027977	0.835920	-0.022729	0.007924	0.116726	1.000000	0.000030	0.000009	0.000036	1.430090	-85.303800	-1.492743
56775	9.879197	0.021610	0.765077	0.046598	0.001388	0.096004	1.000000	0.000018	0.000054	0.000009	1.457243	-85.301417	-1.518383
56776	9.894034	0.027260	0.837367	-0.024052	0.006840	0.116724	1.000000	0.000022	0.000030	0.000026	1.462445	-85.301772	-1.523725
56777	9.850388	-0.003076	0.824459	-0.014923	-0.023599	0.072105	1.000000	0.000023	0.000023	0.000014	1.483876	-85.302831	-1.550459
56778	9.908299	0.038525	0.809434	0.004751	0.017699	0.128677	1.000000	0.000038	0.000034	0.000029	1.485560	-85.302766	-1.550393
56779	9.855525	0.029855	0.821819	-0.011863	0.009200	0.077076	1.000000	0.000031	0.000040	0.000036	1.477298	-85.302056	-1.535923
56780	9.902956	0.003476	0.814595	-0.000955	-0.017277	0.123701	1.000000	0.000028	0.000011	0.000025	1.484591	-85.304533	-1.542687
56781	9.879722	0.044704	0.841515	-0.029735	0.024066	0.102835	1.000000	0.000018	0.000046	0.000037	1.472268	-85.303113	-1.531881
56782	9.908117	0.036100	0.811775	0.002107	0.015518	0.128681	1.000000	0.000030	0.000009	0.000036	1.464297	-85.305910	-1.523088
56783	9.903112	0.033543	0.788552	0.024786	0.012967	0.121787	1.000000	0.000026	0.000052	0.000025	1.470131	-85.303744	-1.529462
56784	9.907997	0.035024	0.813278	0.000796	0.014427	0.128683	1.000000	0.000025	0.000040	0.000031	1.468048	-85.303002	-1.527127
56785	9.869594	0.038325	0.796566	0.014312	0.017882	0.089047	1.000000	0.000024	0.000027	0.000037	1.457985	-85.303713	-1.516382
56786	9.883613	0.017716	0.795941	0.016040	-0.002607	0.102926	1.000000	0.000021	0.000037	0.000037	1.446910	-85.303324	-1.505490
56787	9.874766	0.070989	0.793821	0.017365	0.050679	0.094044	1.000000	0.000019	0.000020	0.000020	1.459375	-85.304900	-1.509171
56788	9.883525	0.016641	0.797064	0.014707	-0.003693	0.102928	1.000000	0.000021	0.000037	0.000037	1.448301	-85.304511	-1.498280
56789	9.869396	0.035852	0.799131	0.011658	0.015709	0.089054	1.000000	0.000018	0.000046	0.000037	1.436297	-85.303134	-1.483440
56790	9.874277	0.037256	0.823794	-0.012333	0.017171	0.095941	1.000000	0.000019	0.000039	0.000026	1.440485	-85.302424	-1.488104
56791	9.883349	0.014845	0.799279	0.012728	-0.005330	0.102930	1.000000	0.000015	0.000017	0.000027	1.444150	-85.304217	-1.490094
56792	9.888249	0.016352	0.823662	-0.011266	-0.003869	0.109812	1.000000	0.000019	0.000039	0.000026	1.448341	-85.303507	-1.494760
56793	9.902252	-0.004045	0.823101	-0.009563	-0.024365	0.123682	1.000000	0.000022	0.000030	0.000026	1.453616	-85.303955	-1.495558
56794	9.883203	0.013401	0.801111	0.010744	-0.006964	0.102931	1.000000	0.000022	0.000030	0.000026	1.458836	-85.304307	-1.500919
56795	9.878217	0.010817	0.777852	0.031672	-0.009373	0.096059	1.000000	0.000024	0.000027	0.000037	1.439913	-85.315129	-1.531812
56796	9.868705	0.000247	0.831310	-0.022436	-0.019780	0.090925	1.000000	0.000009	0.000036	0.000027	1.441358	-85.314833	-1.534891
56797	9.897103	-0.008303	0.801814	0.009364	-0.028392	0.116800	1.000000	0.000031	0.000040	0.000036	1.433184	-85.314056	-1.523074
56798	9.878068	0.008926	0.779767	0.029694	-0.011009	0.096064	1.000000	0.000017	0.000015	0.000038	1.421378	-85.316203	-1.511940
56799	9.878024	0.008344	0.780333	0.029037	-0.011554	0.096065	1.000000	0.000029	0.000043	0.000025	1.428211	-85.315104	-1.522676
56800	9.887833	0.011853	0.828705	-0.018304	-0.008034	0.109799	1.000000	0.000028	0.000030	0.000031	1.427142	-85.315449	-1.521017
56801	9.897260	0.021234	0.776564	0.034469	0.001276	0.114954	1.000000	0.000025	0.000040	0.000031	1.424955	-85.314806	-1.508891
56802	9.863441	-0.005201	0.811437	-0.003062	-0.025063	0.084044	1.000000	0.000022	0.000030	0.000026	1.430168	-85.315185	-1.514241
56803	9.887678	0.010300	0.830584	-0.020304	-0.009663	0.109794	1.000000	0.000025	0.000021	0.000025	1.436281	-85.316644	-1.519955
56804	9.888000	0.041726	0.803426	0.006802	0.021633	0.107961	1.000000	0.000029	0.000043	0.000025	1.443214	-85.315574	-1.526197
56805	9.901983	0.021243	0.803019	0.008462	0.001132	0.121823	1.000000	0.000031	0.000040	0.000036	1.434507	-85.314906	-1.515004
56806	9.901921	0.020671	0.803803	0.007800	0.000587	0.121823	1.000000	0.000019	0.000039	0.000026	1.438704	-85.314222	-1.519673
56807	9.868465	0.026192	0.810914	-0.001964	0.006105	0.089072	1.000000	0.000032	0.000033	0.000024	1.446409	-85.314270	-1.522630
56808	9.916255	0.031746	0.776045	0.036569	0.011373	0.133865	1.000000	0.000019	0.000020	0.000020	1.458931	-85.315743	-1.535683
56809	9.892651	0.041284	0.830684	-0.019876	0.020959	0.114822	1.000000	0.000025	0.000040	0.000031	1.456616	-85.315060	-1.531048
56810	9.863395	0.022777	0.788980	0.019395	0.002447	0.082220	1.000000	0.000019	0.000039	0.000026	1.460815	-85.314375	-1.535720
56811	9.868258	0.024316	0.813490	-0.004628	0.003941	0.089072	1.000000	0.000022	0.000030	0.000026	1.465843	-85.314856	-1.532792
56812	9.873110	0.025852	0.838093	-0.028633	0.005430	0.095921	1.000000	0.000016	0.000049	0.000026	1.469020	-85.313107	-1.536776
56813	9.882588	0.035376	0.785936	0.024145	0.014724	0.101125	1.000000	0.000013	0.000020	0.000015	1.487718	-85.314652	-1.553527
56814	9.920863	0.030912	0.803855	0.009216	0.010139	0.140728	1.000000	0.000024	0.000027	0.000037	1.477646	-85.315347	-1.543302
56815	9.849110	0.040256	0.793347	0.013752	0.019710	0.068376	1.000000	0.000028	0.000030	0.000031	1.476544	-85.315689	-1.542793
56816	9.882045	0.001837	0.815370	-0.005613	-0.018742	0.102920	1.000000	0.000028	0.000030	0.000031	1.475486	-85.316031	-1.541148
56817	9.887318	0.035152	0.812091	-0.001862	0.014580	0.107976	1.000000	0.000025	0.000040	0.000031	1.473409	-85.315417	-1.531636
56818	9.887256	0.034581	0.812874	-0.002522	0.014036	0.107977	1.000000	0.000025	0.000040	0.000031	1.471332	-85.314696	-1.529305
56819	9.901234	0.014117	0.812366	-0.000869	-0.006481	0.121824	1.000000	0.000022	0.000030	0.000026	1.476544	-85.315089	-1.534581
56820	9.886720	0.001643	0.841966	-0.031628	-0.018881	0.109751	1.000000	0.000034	0.000031	0.000036	1.469205	-85.315396	-1.525927
56821	9.887109	0.032829	0.814734	-0.004518	0.012407	0.107979	1.000000	0.000024	0.000027	0.000037	1.458990	-85.316155	-1.514174
56822	9.906437	0.046071	0.810108	0.001568	0.025750	0.126891	1.000000	0.000024	0.000027	0.000037	1.448917	-85.316848	-1.503949
56823	9.887019	0.031622	0.815872	-0.005859	0.011320	0.107979	1.000000	0.000026	0.000033	0.000019	1.463100	-85.316983	-1.512178
56824	9.886971	0.031150	0.816463	-0.006520	0.010776	0.107979	1.000000	0.000018	0.000027	0.000032	1.459316	-85.317710	-1.508968
56825	9.882032	0.028521	0.793165	0.016158	0.008198	0.101149	1.000000	0.000018	0.000027	0.000032	1.455627	-85.318504	-1.499402
56826	9.896005	0.008030	0.792637	0.017805	-0.012326	0.114991	1.000000	0.000019	0.000039	0.000026	1.459850	-85.317816	-1.504099
56827	9.886817	0.029461	0.818398	-0.008515	0.009145	0.107979	1.000000	0.000015	0.000036	0.000032	1.454947	-85.317484	-1.501447
56828	9.608443	0.592310	0.603725	0.183860	0.573088	-0.185889	1.000000	0.000143	0.000106	0.000102	1.364593	-85.309381	-1.396966
56829	10.544903	-0.675065	0.821132	0.043546	-0.695749	0.762708	1.000000	0.000113	0.000022	0.000004	1.411508	-85.310619	-1.433584
56830	10.031596	-0.727942	0.703764	0.115419	-0.750752	0.241225	1.000000	-0.000700	-0.000215	-0.000299	1.798662	-85.338067	-1.905202
56831	8.779329	0.761826	1.058336	-0.339734	0.740938	-0.974550	0.999999	0.001176	0.000136	0.000245	1.622714	-85.327008	-1.607435
56832	10.097070	-0.454129	0.321969	0.505659	-0.474114	0.275932	1.000000	-0.000330	0.000431	0.000307	1.181760	-85.282250	-1.205576
56833	11.044828	0.529563	0.994778	-0.086348	0.508690	1.277489	1.000000	-0.000076	-0.000315	-0.000199	1.499395	-85.321543	-1.540669
56834	9.813406	0.202907	1.022598	-0.218242	0.181629	0.051855	1.000000	-0.000232	0.000062	-0.000065	1.601349	-85.317974	-1.672309
56835	9.500918	-0.122274	0.812768	-0.037370	-0.145323	-0.277465	1.000000	0.000010	-0.000244	-0.000141	1.851026	-85.349195	-1.925731
56836	9.101736	0.343078	0.806553	-0.061819	0.322046	-0.674729	1.000000	0.000504	0.000460	0.000353	1.435100	-85.301442	-1.453161
56837	9.899067	-0.534132	0.297850	0.513627	-0.554236	0.076426	1.000000	-0.000215	0.000027	0.000041	1.391759	-85.302097	-1.445776
56838	10.485640	0.298049	1.281856	-0.418868	0.277516	0.743266	1.000000	-0.000230	-0.000020	-0.000025	1.440184	-85.308066	-1.523439
56839	9.725011	-0.147941	0.799488	-0.002512	-0.168267	-0.055199	1.000000	0.000059	-0.000068	-0.000023	1.521270	-85.319514	-1.610497
56840	10.162117	0.182850	0.906256	-0.074036	0.160777	0.389862	1.000000	0.000073	0.000002	-0.000003	1.573182	-85.323018	-1.656809
56841	9.583794	-0.006202	0.766110	0.018018	-0.027368	-0.198375	1.000000	-0.000005	0.000049	0.000040	1.554764	-85.321275	-1.644957
56842	9.937837	0.234004	0.899135	-0.084946	0.212370	0.165864	1.000000	0.000124	0.000056	0.000042	1.547591	-85.318774	-1.626157
56843	9.520634	-0.324166	0.833252	-0.053704	-0.344869	-0.256535	1.000000	0.000019	0.000058	0.000031	1.543518	-85.315946	-1.622656
56844	10.176360	-0.074639	0.853319	-0.020031	-0.096875	0.399181	1.000000	0.000047	-0.000013	0.000023	1.556618	-85.321246	-1.633065
56845	9.825614	0.124950	0.882978	-0.078361	0.103514	0.052459	1.000000	0.000044	0.000034	0.000034	1.551821	-85.321083	-1.632838
56846	10.175236	0.133562	0.836324	-0.003454	0.111252	0.397127	1.000000	0.000025	0.000021	0.000025	1.558113	-85.322515	-1.638938
56847	9.557767	0.140551	0.962565	-0.179436	0.119878	-0.207968	1.000000	0.000012	0.000065	0.000038	1.544114	-85.318928	-1.627954
56848	10.073243	0.060544	0.840091	-0.015145	0.038826	0.295622	1.000000	0.000013	0.000031	0.000049	1.515016	-85.319255	-1.599915
56849	9.944259	-0.175470	0.762461	0.051511	-0.196714	0.160229	1.000000	0.000015	0.000055	0.000038	1.501919	-85.316702	-1.596506
56850	9.962055	0.015156	0.768278	0.047747	-0.005956	0.178844	1.000000	0.000021	0.000037	0.000037	1.490865	-85.316324	-1.585637
56851	9.695378	0.089166	0.891776	-0.097063	0.069028	-0.076703	1.000000	0.000004	0.000021	0.000039	1.475528	-85.317738	-1.573742
56852	9.993323	0.152984	0.801046	0.017726	0.132477	0.212965	1.000000	0.000012	0.000038	0.000061	1.430130	-85.317313	-1.529448
56853	9.867146	0.059095	0.885397	-0.076817	0.039240	0.093904	1.000000	-0.000001	0.000026	0.000017	1.445074	-85.318080	-1.562340
56854	9.852532	0.058012	0.713836	0.092775	0.037927	0.065332	1.000000	-0.000030	0.000020	0.000043	1.420384	-85.319629	-1.543649
56855	9.918164	-0.018655	0.757614	0.054298	-0.038483	0.134165	1.000000	0.000014	0.000043	0.000044	1.399320	-85.318518	-1.533197
56856	9.783367	-0.052884	0.738666	0.062185	-0.072355	-0.001796	1.000000	-0.000008	0.000032	0.000023	1.404426	-85.318629	-1.541829
56857	9.789883	0.038450	0.779963	0.021662	0.018974	0.008250	1.000000	0.000025	0.000021	0.000025	1.410904	-85.319972	-1.556661
56858	9.865781	0.003655	0.743018	0.064498	-0.016040	0.080811	1.000000	0.000021	0.000037	0.000037	1.399853	-85.319591	-1.545795
56859	9.893135	-0.068650	0.769167	0.040360	-0.088357	0.110065	1.000000	0.000048	0.000018	0.000023	1.412694	-85.321268	-1.564329
56860	9.889972	0.018646	0.762672	0.046570	-0.001215	0.106556	1.000000	0.000035	0.000024	0.000024	1.421672	-85.322314	-1.571951
56861	9.934202	0.079727	0.748813	0.063981	0.059698	0.149631	1.000000	0.000037	0.000022	0.000035	1.415491	-85.323568	-1.582722
56862	9.878440	-0.082099	0.799579	0.008240	-0.101715	0.097874	1.000000	0.000011	0.000034	0.000038	1.401709	-85.323572	-1.570289
56863	9.898406	-0.036890	0.767076	0.042244	-0.056727	0.115213	1.000000	0.000036	0.000017	0.000013	1.427365	-85.325314	-1.598626
56864	9.869804	-0.029174	0.797712	0.009278	-0.048955	0.089219	1.000000	0.000021	0.000037	0.000037	1.416311	-85.324931	-1.587759
56865	9.957122	0.029764	0.825404	-0.011081	0.009984	0.178620	1.000000	0.000037	0.000022	0.000035	1.410603	-85.326151	-1.588591
56866	9.904246	0.021373	0.837467	-0.027434	0.001833	0.126887	1.000000	0.000012	0.000046	0.000032	1.404878	-85.324739	-1.584111
56867	9.947863	0.050557	0.851841	-0.037929	0.031032	0.171589	1.000000	0.000015	0.000036	0.000032	1.400516	-85.324261	-1.588801
56868	9.856741	0.046210	0.846362	-0.039844	0.026981	0.080315	1.000000	0.000021	0.000037	0.000037	1.389472	-85.323877	-1.577944
56869	9.938067	0.045160	0.805702	0.007455	0.025696	0.158053	1.000000	0.000006	0.000045	0.000027	1.389804	-85.322541	-1.579584
56870	9.875517	0.032773	0.770112	0.037839	0.013309	0.092784	1.000000	0.000012	0.000027	0.000027	1.392347	-85.323292	-1.583430
56871	9.911929	-0.061527	0.771519	0.039100	-0.081149	0.129005	1.000000	0.000029	0.000043	0.000025	1.399249	-85.322111	-1.610903
56872	9.874771	0.000082	0.799547	0.008585	-0.019480	0.094377	1.000000	0.000039	0.000046	0.000023	1.408996	-85.320640	-1.618800
56873	9.885633	0.067419	0.792162	0.017117	0.047626	0.104733	1.000000	0.000029	0.000024	0.000019	1.424545	-85.321670	-1.631490
56874	9.852181	0.073162	0.799045	0.007545	0.053312	0.071967	1.000000	0.000029	0.000043	0.000025	1.431563	-85.320584	-1.637820
56875	9.860616	0.018918	0.802915	0.004461	-0.001082	0.080581	1.000000	0.000020	0.000052	0.000020	1.443738	-85.318398	-1.673515
56876	9.816878	-0.011184	0.789949	0.013647	-0.031356	0.035869	1.000000	0.000015	0.000011	0.000015	1.463586	-85.320960	-1.694290
56877	9.917542	-0.003860	0.844401	-0.032533	-0.024123	0.140655	1.000000	0.000031	0.000040	0.000036	1.455250	-85.320114	-1.706234
56878	9.841019	0.003725	0.810068	-0.004271	-0.016492	0.061602	1.000000	0.000026	0.000052	0.000025	1.461276	-85.317961	-1.711906
56879	9.879836	0.030960	0.800490	0.008633	0.010524	0.099563	1.000000	0.000015	0.000017	0.000027	1.465598	-85.319552	-1.742809
56880	9.888949	0.008253	0.776008	0.033456	-0.012224	0.106601	1.000000	0.000030	0.000028	0.000042	1.449254	-85.320195	-1.725595
56881	9.918622	0.057279	0.791411	0.020864	0.036991	0.137533	1.000000	0.000018	0.000046	0.000037	1.437552	-85.318659	-1.726917
56882	9.908751	0.046846	0.845019	-0.033290	0.027026	0.132048	1.000000	0.000011	0.000034	0.000038	1.423812	-85.318656	-1.714527
56883	9.894732	0.066191	0.846824	-0.036041	0.046530	0.118262	1.000000	0.000025	0.000040	0.000031	1.422030	-85.317843	-1.728492
56884	9.898341	0.009751	0.826638	-0.015901	-0.010048	0.120098	1.000000	0.000022	0.000030	0.000026	1.427309	-85.318204	-1.733913
56885	9.869686	0.017391	0.857440	-0.048791	-0.002118	0.094069	1.000000	0.000018	0.000046	0.000037	1.415421	-85.316681	-1.742612
56886	9.875128	0.050463	0.853941	-0.044773	0.031154	0.099272	1.000000	0.000042	0.000010	0.000046	1.394717	-85.319415	-1.719649
56887	9.884243	0.027747	0.829447	-0.019965	0.008382	0.106311	1.000000	0.000032	0.000033	0.000024	1.402771	-85.319321	-1.747237
56888	9.894488	0.063194	0.849901	-0.039294	0.043855	0.118261	1.000000	0.000038	0.000034	0.000029	1.404474	-85.319261	-1.747195
56889	9.850734	0.032856	0.836941	-0.030129	0.013591	0.073536	1.000000	0.000034	0.000031	0.000036	1.397581	-85.319446	-1.757099
56890	9.898031	0.006074	0.830382	-0.019861	-0.013283	0.120088	1.000000	0.000025	0.000040	0.000031	1.395600	-85.318705	-1.754869
56891	9.869364	0.013802	0.861199	-0.052732	-0.005297	0.094047	1.000000	0.000019	0.000039	0.000026	1.399927	-85.317938	-1.781295
56892	9.903431	0.038796	0.827551	-0.016462	0.019445	0.125303	1.000000	0.000020	0.000006	0.000038	1.389090	-85.321127	-1.770812
56893	9.893087	0.002251	0.808270	0.001532	-0.017134	0.113348	1.000000	0.000006	0.000045	0.000027	1.390460	-85.319564	-1.803249
56894	9.888221	-0.000337	0.785262	0.024227	-0.019914	0.106616	1.000000	0.000019	0.000039	0.000026	1.394786	-85.318858	-1.808050
56895	9.874223	0.019088	0.786981	0.021554	-0.000431	0.092842	1.000000	0.000024	0.000028	0.000037	1.385990	-85.319303	-1.826442
56896	9.878975	0.020571	0.811366	-0.002469	0.001281	0.099572	1.000000	0.000012	0.000027	0.000027	1.388557	-85.320047	-1.830315
56897	9.902744	0.009639	0.758088	0.052445	-0.010119	0.118892	1.000000	0.000005	0.000033	0.000033	1.382304	-85.319891	-1.848871
56898	9.897184	-0.024893	0.762722	0.047000	-0.044453	0.113663	1.000000	0.000014	0.000024	0.000038	1.369539	-85.320947	-1.837126
56899	9.887998	-0.003348	0.788065	0.020966	-0.022695	0.106617	1.000000	0.000019	0.000020	0.000020	1.382694	-85.322249	-1.882546
56900	9.901883	-0.023885	0.787707	0.022308	-0.043295	0.120387	1.000000	0.000028	0.000050	0.000036	1.373462	-85.320404	-1.872673
56901	9.902562	0.007300	0.760488	0.049816	-0.012361	0.118903	1.000000	0.000025	0.000021	0.000025	1.380073	-85.321702	-1.912452
56902	9.873910	0.015157	0.790977	0.016983	-0.004268	0.092850	1.000000	0.000045	0.000027	0.000023	1.391769	-85.322355	-1.921633
56903	9.912046	0.010571	0.809330	0.001776	-0.008866	0.132346	1.000000	0.000025	0.000040	0.000031	1.390207	-85.321529	-1.936699
56904	9.898048	0.030152	0.811126	-0.000874	0.010660	0.118580	1.000000	0.000036	0.000036	0.000018	1.407252	-85.321152	-1.952287
56905	9.893218	0.027698	0.787873	0.021843	0.007798	0.111865	1.000000	0.000035	0.000024	0.000024	1.417343	-85.322059	-1.974663
56906	9.892431	-0.004534	0.816248	-0.007027	-0.024213	0.113331	1.000000	0.000031	0.000021	0.000030	1.417299	-85.323444	-1.973706
56907	9.916638	0.010818	0.835495	-0.024228	-0.008739	0.139057	1.000000	0.000028	0.000031	0.000031	1.416681	-85.323733	-1.970716
56908	9.897877	0.028229	0.813280	-0.003507	0.008482	0.118582	1.000000	0.000022	0.000030	0.000026	1.421989	-85.324089	-1.976168
56909	9.884659	0.079296	0.787017	0.022066	0.059476	0.103367	1.000000	0.000023	0.000035	0.000048	1.396350	-85.323952	-1.940406
56910	9.883829	0.046964	0.815795	-0.006801	0.027464	0.104822	1.000000	0.000014	0.000051	0.000015	1.415085	-85.321863	-1.960235
56911	9.892924	0.024343	0.791662	0.017885	0.004531	0.111875	1.000000	0.000014	0.000024	0.000038	1.402875	-85.322809	-1.977565
56912	9.897658	0.025774	0.816022	-0.006141	0.006311	0.118582	1.000000	0.000018	0.000027	0.000032	1.399153	-85.323513	-1.974426
56913	9.893613	0.054870	0.764893	0.044794	0.034895	0.110438	1.000000	0.000019	0.000039	0.000026	1.403098	-85.322793	-2.000032
56914	9.892770	0.022674	0.793642	0.015891	0.002912	0.111879	1.000000	0.000029	0.000043	0.000025	1.410170	-85.321696	-2.006418
56915	9.887940	0.020049	0.770574	0.038599	0.000016	0.105178	1.000000	0.000015	0.000037	0.000032	1.405629	-85.321251	-2.038830
56916	9.892661	0.021632	0.795025	0.014574	0.001823	0.111881	1.000000	0.000035	0.000024	0.000024	1.414610	-85.322286	-2.046459
56917	9.883454	0.043310	0.820523	-0.011355	0.023712	0.104828	1.000000	0.000019	0.000039	0.000026	1.419307	-85.321509	-2.081419
56918	9.897323	0.022784	0.820161	-0.010106	0.003094	0.118580	1.000000	0.000012	0.000027	0.000027	1.421904	-85.322247	-2.085324
56919	9.873022	0.006363	0.802106	0.005751	-0.013488	0.092854	1.000000	0.000035	0.000043	0.000030	1.422574	-85.321052	-2.121898
56920	9.858234	-0.005898	0.831851	-0.025119	-0.025323	0.080518	1.000000	0.000015	0.000037	0.000032	1.417909	-85.320688	-2.118148
56921	9.901910	0.023105	0.846134	-0.035446	0.003878	0.125272	1.000000	0.000030	0.000028	0.000042	1.401697	-85.321282	-2.118675
56922	9.882362	0.008570	0.851973	-0.042962	-0.010329	0.106236	1.000000	0.000018	0.000046	0.000037	1.389780	-85.319814	-2.107282
56923	9.868377	0.027949	0.853798	-0.045528	0.009224	0.092486	1.000000	0.000015	0.000037	0.000032	1.384985	-85.319520	-2.100426
56924	9.868332	0.027307	0.854339	-0.046193	0.008691	0.092483	1.000000	0.000027	0.000018	0.000037	1.375904	-85.321250	-2.090873
56925	9.915599	0.000355	0.847811	-0.036239	-0.018357	0.139008	1.000000	0.000031	0.000040	0.000036	1.368250	-85.320397	-2.091016
56926	9.896864	0.017603	0.825816	-0.015428	-0.001194	0.118574	1.000000	0.000018	0.000046	0.000037	1.356353	-85.318927	-2.079643
56927	9.882067	0.005278	0.855406	-0.046296	-0.013000	0.106218	1.000000	0.000021	0.000018	0.000032	1.353758	-85.320652	-2.082686
56928	9.892024	0.014314	0.803073	0.006603	-0.004663	0.111889	1.000000	0.000022	0.000030	0.000026	1.359072	-85.321004	-2.088145
56929	9.892820	0.045447	0.775686	0.034258	0.026163	0.110507	1.000000	0.000024	0.000028	0.000037	1.349192	-85.321711	-2.064325
56930	9.891930	0.013172	0.804249	0.005261	-0.005737	0.111889	1.000000	0.000032	0.000033	0.000024	1.357226	-85.321678	-2.071341
56931	9.897473	0.046498	0.800775	0.009615	0.027460	0.117193	1.000000	0.000028	0.000031	0.000031	1.356928	-85.321825	-2.112918
56932	9.887093	0.010160	0.781559	0.027309	-0.009235	0.105211	1.000000	0.000023	0.000023	0.000014	1.378528	-85.322932	-2.134615
56933	9.887054	0.009692	0.782063	0.026647	-0.009790	0.105213	1.000000	0.000024	0.000028	0.000037	1.368990	-85.323538	-2.146879
56934	9.905665	-0.008855	0.805346	0.004463	-0.028005	0.125625	1.000000	0.000004	0.000014	0.000028	1.369816	-85.325724	-2.149845
56935	9.853574	0.014900	0.789117	0.016653	-0.004449	0.072431	1.000000	0.000023	0.000042	0.000020	1.385092	-85.324415	-2.205082
56936	9.891659	0.010287	0.807613	0.001319	-0.009008	0.111888	1.000000	0.000028	0.000031	0.000031	1.384102	-85.324728	-2.203514
56937	9.872099	-0.004005	0.813401	-0.006217	-0.023179	0.092836	1.000000	0.000019	0.000039	0.000026	1.388382	-85.324016	-2.213958
56938	9.886814	0.007109	0.785110	0.023339	-0.012520	0.105218	1.000000	0.000018	0.000027	0.000032	1.384679	-85.324713	-2.210840
56939	9.924892	0.002357	0.803652	0.008012	-0.017104	0.144671	1.000000	0.000022	0.000049	0.000031	1.382487	-85.322659	-2.280403
56940	9.906215	0.019770	0.781374	0.028906	-0.000007	0.124274	1.000000	0.000028	0.000012	0.000025	1.389688	-85.325142	-2.287087
56941	9.896120	0.009790	0.834811	-0.025345	-0.009200	0.118549	1.000000	0.000026	0.000052	0.000025	1.396064	-85.322865	-2.341661
56942	9.896941	0.040829	0.807632	0.002462	0.021498	0.117212	1.000000	0.000036	0.000029	0.000047	1.373415	-85.323450	-2.317429
56943	9.901629	0.042350	0.832005	-0.021524	0.023461	0.123875	1.000000	0.000029	0.000024	0.000019	1.389504	-85.324387	-2.371729
56944	9.892129	0.037722	0.784854	0.024514	0.017904	0.110554	1.000000	0.000032	0.000034	0.000024	1.397552	-85.324350	-2.378759
56945	9.896799	0.039344	0.809437	0.000532	0.019855	0.117216	1.000000	0.000025	0.000040	0.000031	1.397448	-85.323415	-2.408417
56946	9.916252	0.052534	0.805136	0.006769	0.032923	0.136278	1.000000	0.000025	0.000040	0.000031	1.395533	-85.322658	-2.406256
56947	9.844661	0.062434	0.794167	0.012205	0.042872	0.064051	1.000000	0.000025	0.000040	0.000031	1.394712	-85.321823	-2.433255
56948	9.891894	0.035445	0.787916	0.021898	0.015699	0.110564	1.000000	0.000021	0.000037	0.000037	1.383774	-85.321413	-2.422512
56949	9.882679	0.056936	0.813372	-0.003784	0.037817	0.103497	1.000000	0.000024	0.000028	0.000037	1.374485	-85.321931	-2.468913
56950	9.891800	0.034126	0.789155	0.020598	0.014600	0.110568	1.000000	-0.000002	0.000033	0.000028	1.373469	-85.321980	-2.470702
56951	9.876929	0.021997	0.818939	-0.010322	0.003009	0.098153	1.000000	0.000026	0.000052	0.000025	1.382286	-85.319667	-2.481296
56952	9.886026	-0.000720	0.795003	0.014054	-0.020212	0.105223	1.000000	0.000015	0.000037	0.000032	1.377670	-85.319293	-2.477598
56953	9.885968	-0.001329	0.795728	0.013389	-0.020760	0.105222	1.000000	0.000015	0.000037	0.000032	1.374221	-85.318888	-2.470306
56954	9.876748	0.020215	0.821174	-0.012326	0.001398	0.098151	1.000000	0.000024	0.000028	0.000037	1.364218	-85.319543	-2.460167
56955	9.890563	-0.000525	0.820991	-0.011296	-0.019242	0.111867	1.000000	0.000028	0.000050	0.000036	1.354876	-85.317472	-2.531274
56956	9.871924	0.016824	0.798741	0.009719	-0.002244	0.091506	1.000000	0.000015	0.000018	0.000027	1.358418	-85.319269	-2.535795
56957	9.876585	0.018377	0.823174	-0.014272	-0.000176	0.098149	1.000000	0.000031	0.000040	0.000036	1.351042	-85.318308	-2.568447
56958	9.870890	-0.016094	0.827800	-0.020247	-0.034398	0.092785	1.000000	0.000030	0.000009	0.000036	1.342872	-85.321097	-2.559479
56959	9.876501	0.017180	0.824207	-0.015600	-0.001226	0.098147	1.000000	0.000039	0.000046	0.000023	1.352785	-85.319523	-2.607067
56960	9.876431	0.016697	0.825057	-0.016271	-0.001755	0.098146	1.000000	0.000025	0.000040	0.000031	1.350895	-85.318762	-2.604932
56961	9.891204	0.027799	0.796843	0.013403	0.008588	0.110588	1.000000	0.000032	0.000034	0.000024	1.361058	-85.318499	-2.663099
56962	9.876318	0.015661	0.826420	-0.017579	-0.002829	0.098143	1.000000	0.000034	0.000031	0.000036	1.353772	-85.318767	-2.654515
56963	9.876265	0.015078	0.827062	-0.018229	-0.003346	0.098142	1.000000	0.000038	0.000034	0.000029	1.355975	-85.318539	-2.715781
56964	9.895745	0.028293	0.822678	-0.011922	0.009661	0.117224	1.000000	0.000009	0.000036	0.000027	1.357694	-85.318199	-2.719143
56965	9.885334	-0.008144	0.803529	0.005340	-0.027258	0.105214	1.000000	0.000025	0.000021	0.000025	1.365183	-85.319352	-2.830567
56966	9.900355	0.029458	0.847577	-0.036546	0.011336	0.123852	1.000000	0.000012	0.000027	0.000027	1.367821	-85.320079	-2.834516
56967	9.895601	0.026816	0.824463	-0.013879	0.008067	0.117223	1.000000	0.000016	0.000049	0.000026	1.371983	-85.318255	-2.824152
56968	9.895537	0.026337	0.825245	-0.014553	0.007539	0.117222	1.000000	0.000022	0.000030	0.000026	1.377329	-85.318597	-2.829645
56969	9.886115	0.021495	0.778054	0.031448	0.001558	0.103971	1.000000	0.000007	0.000024	0.000033	1.371050	-85.319694	-2.829357
56970	9.904614	0.003066	0.801655	0.008969	-0.016393	0.124298	1.000000	0.000023	0.000042	0.000020	1.384502	-85.318621	-2.842848
56971	9.871141	0.009023	0.808488	-0.000221	-0.010298	0.091506	1.000000	0.000029	0.000043	0.000025	1.392456	-85.317403	-2.875640
56972	9.909172	0.004449	0.827079	-0.015711	-0.014727	0.130918	1.000000	0.000010	0.000029	0.000016	1.410433	-85.317819	-2.895210
56973	9.885904	0.019678	0.780779	0.028791	-0.000630	0.103979	1.000000	0.000049	0.000023	0.000045	1.392880	-85.318966	-2.924088
56974	9.881190	0.016887	0.757344	0.051454	-0.003920	0.097363	1.000000	0.000025	0.000021	0.000025	1.399152	-85.320375	-2.930177
56975	9.885820	0.018603	0.781871	0.027480	-0.001749	0.103983	1.000000	0.000039	0.000046	0.000023	1.411445	-85.318645	-2.993046
56976	9.896134	0.054071	0.802332	0.009016	0.034155	0.116002	1.000000	0.000028	0.000031	0.000031	1.410485	-85.318948	-2.991512
56977	9.885714	0.017560	0.783236	0.026167	-0.002847	0.103986	1.000000	0.000028	0.000031	0.000031	1.409683	-85.319017	-3.073718
56978	9.871816	0.037018	0.784716	0.024047	0.016787	0.090294	1.000000	0.000024	0.000028	0.000037	1.399705	-85.319666	-3.063607
56979	9.909853	0.032221	0.803184	0.008631	0.012338	0.129702	1.000000	0.000022	0.000030	0.000026	1.407519	-85.319561	-3.209468
56980	9.890261	0.017932	0.808733	0.000880	-0.001645	0.110600	1.000000	0.000027	0.000018	0.000037	1.398457	-85.321277	-3.199942
56981	9.905094	0.028883	0.780434	0.030621	0.008369	0.123096	1.000000	0.000006	0.000046	0.000027	1.401715	-85.319748	-3.213287
56982	9.856748	0.023187	0.816045	-0.008916	0.003985	0.077806	1.000000	0.000012	0.000027	0.000027	1.404376	-85.320472	-3.217259
56983	9.880929	0.038518	0.835413	-0.025833	0.019778	0.103517	1.000000	0.000028	0.000031	0.000031	1.405034	-85.320723	-3.222868
56984	9.876210	0.035759	0.812179	-0.003183	0.016370	0.096912	1.000000	0.000005	0.000033	0.000033	1.397761	-85.320724	-3.217679
56985	9.885333	0.012841	0.788117	0.020864	-0.007244	0.103997	1.000000	0.000021	0.000037	0.000037	1.389527	-85.320196	-3.195095
56986	9.894604	0.016567	0.836609	-0.026468	-0.002004	0.117200	1.000000	0.000019	0.000040	0.000026	1.393980	-85.319465	-3.200027
56987	9.870310	0.000249	0.818618	-0.010862	-0.018887	0.091487	1.000000	0.000029	0.000043	0.000025	1.403160	-85.318191	-3.213444
56988	9.889813	0.013496	0.814280	-0.004469	-0.005964	0.110598	1.000000	0.000022	0.000030	0.000026	1.408525	-85.318528	-3.218958
56989	9.923152	0.006645	0.809152	0.003291	-0.013218	0.143393	1.000000	0.000026	0.000052	0.000025	1.414796	-85.316337	-3.249166
56990	9.885024	0.010308	0.792019	0.017502	-0.009907	0.104001	1.000000	0.000024	0.000028	0.000037	1.404832	-85.316983	-3.239070
56991	9.874717	0.000307	0.845484	-0.036893	-0.018083	0.098074	1.000000	0.000025	0.000040	0.000031	1.405004	-85.316091	-3.269386
56992	9.889571	0.011322	0.817253	-0.007165	-0.008082	0.110595	1.000000	0.000022	0.000030	0.000026	1.410369	-85.316427	-3.274900
56993	9.898695	-0.011392	0.793232	0.016812	-0.031736	0.117681	1.000000	0.000029	0.000043	0.000025	1.418461	-85.315121	-3.371943
56994	9.870965	0.028300	0.795708	0.013507	0.008101	0.090325	1.000000	0.000028	0.000031	0.000031	1.417513	-85.315419	-3.370423
56995	9.890492	0.041368	0.791230	0.019991	0.020944	0.109447	1.000000	0.000024	0.000028	0.000037	1.409466	-85.315852	-3.433632
56996	9.890449	0.040787	0.791803	0.019313	0.020422	0.109449	1.000000	0.000022	0.000030	0.000026	1.414835	-85.316188	-3.439151
56997	9.889301	0.008692	0.820548	-0.010516	-0.010709	0.110589	1.000000	0.000019	0.000040	0.000026	1.419431	-85.315427	-3.463715
56998	9.875410	0.028184	0.822141	-0.012468	0.008956	0.096914	1.000000	0.000011	0.000034	0.000038	1.405871	-85.315385	-3.451518
56999	9.908762	0.021187	0.816889	-0.004749	0.001633	0.129712	1.000000	0.000032	0.000034	0.000024	1.415310	-85.315287	-3.483895
57000	9.889136	0.006942	0.822549	-0.012552	-0.012286	0.110585	1.000000	0.000024	0.000028	0.000037	1.405354	-85.315930	-3.473809
57001	9.889089	0.006408	0.823119	-0.013214	-0.012819	0.110583	1.000000	0.000016	0.000030	0.000021	1.418564	-85.316131	-3.533247
57002	9.889032	0.005978	0.823806	-0.013894	-0.013338	0.110582	1.000000	0.000019	0.000040	0.000026	1.423029	-85.315397	-3.538192
57003	9.870503	0.023388	0.801580	0.007511	0.003316	0.090334	1.000000	0.000025	0.000040	0.000031	1.420677	-85.314589	-3.550811
57004	9.908495	0.018640	0.820181	-0.008117	-0.000982	0.129710	1.000000	0.000035	0.000024	0.000024	1.429652	-85.315608	-3.558441
57005	9.884226	0.002427	0.801981	0.007389	-0.017936	0.104002	1.000000	0.000007	0.000039	0.000016	1.447180	-85.314757	-3.665018
57006	9.889924	0.035731	0.798569	0.012665	0.015112	0.109470	1.000000	0.000031	0.000041	0.000036	1.439015	-85.313945	-3.655890
57007	9.903698	0.015064	0.798325	0.013207	-0.005659	0.123136	1.000000	0.000025	0.000021	0.000025	1.448635	-85.315158	-3.691136
57008	9.889838	0.034704	0.799681	0.011342	0.014018	0.109473	1.000000	0.000022	0.000030	0.000026	1.454015	-85.315491	-3.696665
57009	9.870204	0.020560	0.805324	0.003470	0.000139	0.090337	1.000000	0.000022	0.000030	0.000026	1.459494	-85.316021	-3.652517
57010	9.908194	0.015721	0.823879	-0.012180	-0.004149	0.129705	1.000000	0.000024	0.000028	0.000037	1.449549	-85.316661	-3.642443
57011	9.870098	0.019306	0.806664	0.002129	-0.000934	0.090337	1.000000	0.000028	0.000050	0.000036	1.443002	-85.314672	-3.636044
57012	9.889640	0.032416	0.802226	0.008594	0.011913	0.109478	1.000000	0.000028	0.000012	0.000025	1.450202	-85.317142	-3.642734
57013	9.889600	0.031860	0.802740	0.007950	0.011363	0.109480	1.000000	0.000031	0.000041	0.000036	1.443642	-85.316162	-3.677311
57014	9.884909	0.028997	0.779728	0.030584	0.007763	0.102919	1.000000	0.000018	0.000047	0.000037	1.431891	-85.314663	-3.666091
57015	9.909069	0.044190	0.799290	0.013761	0.023665	0.128626	1.000000	0.000018	0.000027	0.000032	1.428649	-85.315327	-3.703647
57016	9.879025	-0.005969	0.785236	0.023226	-0.026858	0.097434	1.000000	0.000022	0.000030	0.000026	1.434034	-85.315658	-3.709183
57017	9.893988	0.031588	0.829534	-0.018068	0.012381	0.116041	1.000000	0.000018	0.000047	0.000037	1.422296	-85.314146	-3.712616
57018	9.903117	0.008655	0.805595	0.005710	-0.011450	0.123138	1.000000	0.000028	0.000031	0.000031	1.421363	-85.314438	-3.711113
57019	9.884647	0.026072	0.783153	0.027194	0.005130	0.102931	1.000000	0.000022	0.000030	0.000026	1.427074	-85.314759	-3.709092
57020	9.889199	0.027689	0.807819	0.003202	0.007716	0.109486	1.000000	0.000028	0.000050	0.000036	1.418029	-85.312873	-3.699416
57021	9.869542	0.013471	0.813556	-0.004626	-0.006125	0.090335	1.000000	0.000025	0.000021	0.000025	1.423294	-85.314163	-3.780214
57022	9.893705	0.028754	0.833001	-0.021439	0.009827	0.116037	1.000000	0.000031	0.000041	0.000036	1.415151	-85.313346	-3.771110
57023	9.869430	0.012282	0.814926	-0.005955	-0.007197	0.090333	1.000000	0.000015	0.000037	0.000032	1.413382	-85.312734	-3.788551
57024	9.902784	0.005208	0.809707	0.001649	-0.014599	0.123135	1.000000	0.000018	0.000027	0.000032	1.409764	-85.313408	-3.785527
57025	9.869322	0.011207	0.816250	-0.007322	-0.008215	0.090332	1.000000	0.000023	0.000043	0.000020	1.422452	-85.312349	-3.808322
57026	9.869265	0.010690	0.816945	-0.008003	-0.008731	0.090331	1.000000	0.000024	0.000028	0.000037	1.412521	-85.312985	-3.798264
57027	9.902613	0.003605	0.811804	-0.000404	-0.016137	0.123133	1.000000	0.000035	0.000043	0.000030	1.412995	-85.311641	-3.894504
57028	9.888752	0.023118	0.813413	-0.002148	0.003564	0.109488	1.000000	0.000021	0.000037	0.000037	1.402177	-85.311206	-3.883889
57029	9.884106	0.020345	0.790112	0.020486	-0.000165	0.102948	1.000000	0.000025	0.000021	0.000025	1.409455	-85.312527	-3.903350
57030	9.873644	0.010622	0.843494	-0.034007	-0.007584	0.096865	1.000000	0.000019	0.000040	0.000026	1.413956	-85.311785	-3.908333
57031	9.888598	0.021373	0.815323	-0.004155	0.001989	0.109488	1.000000	0.000023	0.000035	0.000048	1.388843	-85.311494	-3.916346
57032	9.902337	0.000507	0.815169	-0.003802	-0.018748	0.123128	1.000000	0.000028	0.000031	0.000031	1.387919	-85.311783	-3.914852
57033	9.874708	0.040253	0.817376	-0.006592	0.021161	0.095849	1.000000	0.000022	0.000030	0.000026	1.394222	-85.312155	-3.843823
57034	9.902238	-0.000523	0.816380	-0.005154	-0.019799	0.123125	1.000000	0.000028	0.000031	0.000031	1.393300	-85.312444	-3.842332
57035	9.874605	0.039222	0.818672	-0.007910	0.020108	0.095850	1.000000	0.000019	0.000040	0.000026	1.399574	-85.311511	-3.883273
57036	9.892920	0.020791	0.842505	-0.030853	0.002570	0.116017	1.000000	0.000009	0.000036	0.000027	1.401400	-85.311152	-3.886744
57037	9.883696	0.015813	0.795325	0.015081	-0.004356	0.102957	1.000000	0.000037	0.000022	0.000035	1.394955	-85.312426	-3.908878
57038	9.874440	0.037605	0.820727	-0.009935	0.018570	0.095851	1.000000	0.000026	0.000052	0.000025	1.401273	-85.310228	-3.914843
57039	9.888170	0.016888	0.820604	-0.009599	-0.002191	0.109484	1.000000	0.000016	0.000015	0.000038	1.390913	-85.312366	-3.901300
57040	9.888134	0.016294	0.821055	-0.010282	-0.002706	0.109484	1.000000	0.000022	0.000030	0.000026	1.396313	-85.312692	-3.906852
57041	9.883497	0.013552	0.797840	0.012353	-0.006465	0.102959	1.000000	0.000015	0.000037	0.000032	1.393248	-85.312186	-3.937926
57042	9.869667	0.033088	0.799260	0.010660	0.013249	0.089330	1.000000	0.000018	0.000027	0.000032	1.389644	-85.312856	-3.934918
57043	9.903028	0.026039	0.794025	0.018167	0.005786	0.122138	1.000000	0.000022	0.000030	0.000026	1.395973	-85.313303	-3.894956
57044	9.887916	0.014053	0.823719	-0.013019	-0.004802	0.109480	1.000000	0.000028	0.000050	0.000036	1.386982	-85.311409	-3.885335
57045	9.869490	0.031417	0.801505	0.008561	0.011714	0.089334	1.000000	0.000019	0.000040	0.000026	1.390964	-85.310767	-3.858672
57046	9.878587	0.035161	0.849940	-0.038738	0.017603	0.102367	1.000000	0.000036	0.000029	0.000047	1.368411	-85.311319	-3.834554
57047	9.916566	0.003494	0.796256	0.016467	-0.016545	0.135769	1.000000	0.000036	0.000037	0.000018	1.387966	-85.310699	-3.885318
57048	9.869342	0.029737	0.803395	0.006560	0.010127	0.089337	1.000000	0.000031	0.000021	0.000030	1.387927	-85.312055	-3.884381
57049	9.902702	0.022629	0.798180	0.014093	0.002631	0.122146	1.000000	0.000015	0.000037	0.000032	1.385147	-85.311589	-3.875828
57050	9.893449	0.044446	0.823495	-0.010912	0.025565	0.115035	1.000000	0.000022	0.000030	0.000026	1.390554	-85.311913	-3.881388
57051	9.902605	0.021554	0.799417	0.012721	0.001569	0.122148	1.000000	0.000018	0.000028	0.000032	1.388974	-85.312598	-3.877015
57052	9.882902	0.007287	0.805260	0.004849	-0.012221	0.102961	1.000000	0.000015	0.000056	0.000037	1.376448	-85.310014	-3.865352
57053	9.878276	0.004487	0.782140	0.027463	-0.015961	0.096454	1.000000	0.000025	0.000021	0.000025	1.384674	-85.311538	-3.834025
57054	9.869041	0.026235	0.807203	0.002448	0.006961	0.089342	1.000000	0.000003	0.000021	0.000039	1.369391	-85.312933	-3.820945
57055	9.891879	0.009912	0.854839	-0.043839	-0.007371	0.115965	1.000000	0.000029	0.000043	0.000025	1.376998	-85.311770	-3.856366
57056	9.884015	0.036571	0.779666	0.031590	0.015978	0.102034	1.000000	0.000022	0.000030	0.000026	1.382406	-85.312092	-3.861928
57057	9.888523	0.038247	0.804212	0.007617	0.018674	0.108538	1.000000	0.000015	0.000037	0.000032	1.377880	-85.311615	-3.883839
57058	9.887142	0.006191	0.833046	-0.022570	-0.012119	0.109456	1.000000	0.000032	0.000034	0.000024	1.385973	-85.311554	-3.890920
57059	9.882526	0.003565	0.809884	0.000054	-0.015863	0.102957	1.000000	0.000013	0.000039	0.000021	1.396910	-85.310876	-3.893760
57060	9.887018	0.005241	0.834524	-0.023941	-0.013153	0.109452	1.000000	0.000021	0.000037	0.000037	1.386134	-85.310431	-3.883190
57061	9.886969	0.004575	0.835111	-0.024613	-0.013641	0.109449	1.000000	0.000037	0.000022	0.000035	1.379574	-85.311601	-3.934046
57062	9.868599	0.021969	0.812710	-0.002956	0.002840	0.089344	1.000000	0.000026	0.000052	0.000025	1.385937	-85.309396	-3.940056
57063	9.877734	-0.000933	0.788962	0.020665	-0.021213	0.096461	1.000000	0.000015	0.000037	0.000032	1.384841	-85.308857	-3.918298
57064	9.868477	0.020887	0.814222	-0.004300	0.001762	0.089343	1.000000	0.000012	0.000027	0.000027	1.387574	-85.309561	-3.922349
57065	9.886721	0.002479	0.838054	-0.027324	-0.015777	0.109439	1.000000	0.000029	0.000043	0.000025	1.395563	-85.308465	-3.904439
57066	9.883464	0.031238	0.786850	0.024825	0.010738	0.102061	1.000000	0.000031	0.000041	0.000036	1.387478	-85.307635	-3.895397
57067	9.901708	0.012807	0.810632	0.001827	-0.006823	0.122154	1.000000	0.000029	0.000024	0.000019	1.404773	-85.308519	-3.940079
57068	9.887910	0.032541	0.811966	0.000180	0.012911	0.108550	1.000000	0.000009	0.000036	0.000027	1.406646	-85.308151	-3.943598
57069	9.906138	0.014020	0.835877	-0.022850	-0.004593	0.128636	1.000000	0.000031	0.000041	0.000036	1.398346	-85.307289	-3.957716
57070	9.892313	0.033631	0.837531	-0.024485	0.015144	0.115033	1.000000	0.000026	0.000052	0.000025	1.404707	-85.305081	-3.963724
57071	9.863524	0.015119	0.795454	0.014297	-0.005180	0.082860	1.000000	0.000014	0.000018	0.000027	1.411209	-85.306625	-3.999362
57072	9.883140	0.028214	0.791021	0.020813	0.007540	0.102073	1.000000	0.000019	0.000040	0.000026	1.415759	-85.305872	-4.004396
57073	9.901364	0.009805	0.814872	-0.002225	-0.009975	0.122151	1.000000	0.000022	0.000030	0.000026	1.422447	-85.306027	-4.052764
57074	9.867901	0.015870	0.821294	-0.011035	-0.003459	0.089338	1.000000	0.000025	0.000040	0.000031	1.420684	-85.305234	-4.050764
57075	9.920913	0.022302	0.811277	0.003619	0.002204	0.141365	1.000000	0.000028	0.000031	0.000031	1.420783	-85.305461	-4.075501
57076	9.882930	0.026233	0.793707	0.018124	0.005423	0.102080	1.000000	0.000010	0.000029	0.000015	1.438833	-85.305857	-4.095145
57077	9.887403	0.027991	0.818286	-0.005853	0.008186	0.108553	1.000000	0.000031	0.000041	0.000036	1.432478	-85.304925	-4.078643
57078	9.896557	0.004895	0.794420	0.017676	-0.015888	0.115676	1.000000	0.000011	0.000034	0.000038	1.419062	-85.304858	-4.066599
57079	9.882765	0.024480	0.795807	0.016107	0.003849	0.102084	1.000000	0.000032	0.000034	0.000024	1.426919	-85.304699	-4.110208
57080	9.882716	0.024030	0.796440	0.015424	0.003335	0.102085	1.000000	0.000022	0.000030	0.000026	1.432341	-85.305015	-4.115785
57081	9.882663	0.023492	0.797105	0.014761	0.002795	0.102086	1.000000	0.000015	0.000037	0.000032	1.429526	-85.304475	-4.120550
57082	9.896345	0.002738	0.797063	0.014959	-0.017981	0.115677	1.000000	0.000028	0.000031	0.000031	1.428635	-85.304752	-4.119094
57083	9.887073	0.024539	0.822369	-0.009882	0.005060	0.108552	1.000000	0.000031	0.000041	0.000036	1.423073	-85.303736	-4.154774
57084	9.902179	0.035267	0.794127	0.019962	0.014406	0.121316	1.000000	0.000001	0.000024	0.000028	1.423158	-85.304819	-4.157343
57085	9.882455	0.021098	0.799755	0.012069	0.000671	0.102090	1.000000	0.000031	0.000041	0.000036	1.416300	-85.303899	-4.172297
57086	9.886895	0.022875	0.824554	-0.011920	0.003510	0.108550	1.000000	0.000014	0.000052	0.000015	1.435295	-85.301766	-4.192379
57087	9.882312	0.020156	0.801544	0.010731	-0.000393	0.102092	1.000000	0.000021	0.000037	0.000037	1.427063	-85.301117	-4.190727
57088	9.882261	0.019464	0.802190	0.010046	-0.000906	0.102092	1.000000	0.000024	0.000028	0.000037	1.417197	-85.301736	-4.180741
57089	9.886724	0.021127	0.826657	-0.013943	0.001959	0.108548	1.000000	0.000022	0.000030	0.000026	1.421167	-85.302061	-4.183775
57090	9.862475	0.004829	0.808484	0.001451	-0.015097	0.082860	1.000000	0.000035	0.000044	0.000030	1.422091	-85.300880	-4.183299
57091	9.886601	0.020197	0.828146	-0.015322	0.000887	0.108546	1.000000	0.000026	0.000033	0.000019	1.438543	-85.300885	-4.126424
57092	9.892493	0.053432	0.824677	-0.009661	0.033839	0.114201	1.000000	0.000028	0.000050	0.000036	1.429632	-85.298975	-4.116886
57093	9.877471	0.014644	0.781892	0.029919	-0.006781	0.095646	1.000000	0.000025	0.000021	0.000025	1.435762	-85.300443	-4.096211
57094	9.901630	0.029763	0.801168	0.013124	0.009219	0.121333	1.000000	0.000028	0.000016	0.000048	1.411467	-85.302436	-4.071195
57095	9.895620	-0.004616	0.806015	0.006110	-0.024778	0.115672	1.000000	0.000013	0.000039	0.000021	1.423441	-85.301673	-4.090739
57096	9.901532	0.028689	0.802408	0.011762	0.008172	0.121336	1.000000	0.000022	0.000030	0.000026	1.428873	-85.301986	-4.096327
57097	9.868071	0.034806	0.808771	0.003019	0.014748	0.088520	1.000000	0.000025	0.000040	0.000031	1.426639	-85.301210	-4.112330
57098	9.862042	0.000556	0.813767	-0.004015	-0.019225	0.082852	1.000000	0.000022	0.000030	0.000026	1.432072	-85.301523	-4.117919
57099	9.881683	0.013635	0.809388	0.002510	-0.006534	0.102095	1.000000	0.000022	0.000030	0.000026	1.436045	-85.301789	-4.150865
57100	9.901311	0.026614	0.805205	0.009035	0.006133	0.121340	1.000000	0.000028	0.000050	0.000036	1.427146	-85.299876	-4.141340
57101	9.881576	0.012273	0.810715	0.001152	-0.007586	0.102095	1.000000	0.000021	0.000004	0.000049	1.402829	-85.303247	-4.124034
57102	9.901232	0.025240	0.806222	0.007676	0.005077	0.121342	1.000000	0.000027	0.000046	0.000013	1.425377	-85.301800	-4.146176
57103	9.887461	0.045085	0.807645	0.006166	0.024836	0.107774	1.000000	0.000022	0.000030	0.000026	1.431193	-85.302099	-4.158018
57104	9.881427	0.010886	0.812552	-0.000901	-0.009129	0.102093	1.000000	0.000022	0.000030	0.000026	1.436633	-85.302410	-4.163613
57105	9.901068	0.023907	0.808275	0.005627	0.003535	0.121344	1.000000	0.000025	0.000040	0.000031	1.434597	-85.301582	-4.147981
57106	9.876837	0.007599	0.789965	0.021050	-0.013502	0.095661	1.000000	0.000025	0.000021	0.000025	1.440892	-85.302965	-4.154103
57107	9.882780	0.040681	0.786297	0.026803	0.019414	0.101351	1.000000	0.000014	0.000044	0.000043	1.419913	-85.301552	-4.187972
57108	9.863037	0.026504	0.791821	0.018904	0.005739	0.082099	1.000000	0.000027	0.000012	0.000025	1.427054	-85.304008	-4.194613
57109	9.905349	0.024039	0.834661	-0.020390	0.004805	0.127772	1.000000	0.000034	0.000058	0.000012	1.453772	-85.301106	-4.170199
57110	9.885569	0.009958	0.840556	-0.028279	-0.008873	0.108514	1.000000	0.000023	0.000035	0.000048	1.427786	-85.300950	-4.144151
57111	9.887052	0.040718	0.812870	0.000770	0.020696	0.107785	1.000000	0.000014	0.000018	0.000027	1.431984	-85.302584	-4.179704
57112	9.896241	0.017665	0.788774	0.024201	-0.003474	0.114924	1.000000	0.000024	0.000028	0.000037	1.422136	-85.303196	-4.169738
57113	9.867257	0.025971	0.818968	-0.007785	0.006505	0.088527	1.000000	0.000025	0.000040	0.000031	1.421115	-85.302287	-4.185247
57114	9.900601	0.018758	0.814104	-0.000465	-0.001140	0.121346	1.000000	0.000009	0.000037	0.000027	1.423057	-85.301907	-4.188838
57115	9.896082	0.016070	0.790809	0.022158	-0.005028	0.114928	1.000000	0.000029	0.000024	0.000019	1.438271	-85.302966	-4.191938
57116	9.886798	0.038035	0.816083	-0.002633	0.018124	0.107790	1.000000	0.000028	0.000050	0.000036	1.429396	-85.301049	-4.182438
57117	9.880710	0.003832	0.821284	-0.009733	-0.015839	0.102080	1.000000	0.000007	0.000039	0.000016	1.447446	-85.300333	-4.220785
57118	9.895917	0.014603	0.792900	0.020104	-0.006589	0.114932	1.000000	0.000029	0.000009	0.000036	1.439300	-85.303090	-4.211867
57119	9.882171	0.034133	0.794224	0.018636	0.013192	0.101380	1.000000	0.000025	0.000060	0.000036	1.430001	-85.300075	-4.177158
57120	9.900255	0.015627	0.818367	-0.004575	-0.004237	0.121344	1.000000	0.000022	0.000030	0.000025	1.435453	-85.300383	-4.182766
57121	9.882049	0.032981	0.795782	0.017243	0.012186	0.101384	1.000000	0.000021	0.000038	0.000037	1.424193	-85.300028	-4.133790
57122	9.895683	0.012258	0.795844	0.017356	-0.008621	0.114935	1.000000	0.000026	0.000033	0.000019	1.438619	-85.299993	-4.147927
57123	9.881935	0.032119	0.797231	0.015890	0.011141	0.101387	1.000000	0.000023	0.000043	0.000019	1.452856	-85.298829	-4.192319
57124	9.895550	0.011407	0.797515	0.015989	-0.009668	0.114937	1.000000	0.000028	0.000050	0.000036	1.443995	-85.296909	-4.182833
57125	9.899948	0.013116	0.822117	-0.007978	-0.006843	0.121341	1.000000	0.000025	0.000021	0.000025	1.453058	-85.298060	-4.209921
57126	9.846775	0.005619	0.833223	-0.023839	-0.013335	0.069242	1.000000	0.000023	0.000035	0.000048	1.427108	-85.297899	-4.183911
57127	9.886175	0.031995	0.823853	-0.010047	0.012407	0.107794	1.000000	0.000019	0.000021	0.000020	1.441776	-85.298963	-4.263801
57128	9.886448	0.004445	0.752236	0.059948	-0.018647	0.102139	1.000000	0.000028	0.000050	0.000036	1.432927	-85.297042	-4.254328
57129	9.899734	0.010658	0.824730	-0.010680	-0.008900	0.121337	1.000000	0.000028	0.000031	0.000031	1.431351	-85.297328	-4.279064
57130	9.866275	0.016917	0.830945	-0.019319	-0.002232	0.088513	1.000000	0.000026	0.000033	0.000019	1.445776	-85.297291	-4.293200
57131	9.896776	0.039025	0.773986	0.041125	0.016566	0.114285	1.000000	0.000023	0.000043	0.000019	1.462387	-85.295836	-4.350376
57132	9.899558	0.009368	0.826853	-0.012693	-0.010473	0.121333	1.000000	0.000034	0.000031	0.000036	1.455225	-85.296060	-4.341934
57133	9.881380	0.026741	0.804276	0.009249	0.005824	0.101400	1.000000	0.000019	0.000040	0.000026	1.462951	-85.295104	-4.368482
57134	9.909929	0.044234	0.847914	-0.030822	0.025330	0.133469	1.000000	0.000031	0.000041	0.000036	1.454951	-85.294254	-4.359530
57135	9.894945	0.005292	0.805050	0.008575	-0.015497	0.114938	1.000000	0.000026	0.000019	0.000037	1.446044	-85.296017	-4.311687
57136	9.881227	0.024866	0.806211	0.007175	0.004297	0.101403	1.000000	0.000015	0.000037	0.000032	1.441706	-85.295590	-4.308280
57137	9.861432	0.010832	0.811923	-0.000746	-0.009298	0.082114	1.000000	0.000019	0.000040	0.000026	1.444632	-85.294891	-4.348780
57138	9.881111	0.023854	0.807666	0.005797	0.003296	0.101404	1.000000	0.000022	0.000031	0.000025	1.450094	-85.295194	-4.354400
