// Start Time: Unknown
// Update Rate: 100.0Hz
// Filter Profile: human (46.1)
// Firmware Version: 4.4.0
PacketCounter	Acc_X	Acc_Y	Acc_Z	FreeAcc_X	FreeAcc_Y	FreeAcc_Z	OriInc_q0	OriInc_q1	OriInc_q2	OriInc_q3	Roll	Pitch	Yaw
51263	2.696022	-0.056186	12.778170	0.000000	0.000000	3.246919	1.000000	0.000009	0.000063	-0.000082	-0.253429	-11.917393	-175.492651
51264	2.684691	-0.050698	12.831986	-0.000000	-0.000000	3.297232	1.000000	0.000012	0.000058	-0.000070	-0.227906	-11.820085	-175.222157
51265	2.659221	-0.059077	12.784095	0.026578	0.007388	3.245156	1.000000	0.000003	0.000052	-0.000047	-0.240611	-11.866290	-175.375929
51266	2.661973	-0.063480	12.807933	0.026837	0.012290	3.269071	1.000000	0.000013	0.000068	-0.000087	-0.237067	-11.858579	-175.386160
51267	2.657442	-0.029198	12.815883	0.033862	-0.021021	3.275785	1.000000	0.000009	0.000063	-0.000082	-0.234884	-11.851320	-175.395404
51268	2.621835	-0.032694	12.821533	0.067665	-0.014213	3.274024	1.000000	0.000005	0.000072	-0.000080	-0.232435	-11.843050	-175.404811
51269	2.623079	-0.065852	12.814269	0.060608	0.018929	3.267310	1.000000	-0.000005	0.000055	-0.000076	-0.231151	-11.836591	-175.413762
51270	2.619036	-0.031840	12.822107	0.067631	-0.014202	3.274024	1.000000	0.000010	0.000036	-0.000074	-0.228208	-11.832536	-175.422396
51271	2.636154	-0.045910	12.815929	0.047116	-0.001034	3.271548	1.000000	0.000009	0.000063	-0.000082	-0.225160	-11.824885	-175.431992
51272	2.602433	-0.020911	12.852575	0.088201	-0.022455	3.300417	1.000000	-0.000000	0.000032	-0.000074	-0.223420	-11.821206	-175.440631
51273	2.600193	-0.049181	12.821634	0.080715	0.005800	3.269788	1.000000	-0.000002	0.000036	-0.000061	-0.221941	-11.816222	-175.447830
51274	2.619026	-0.034834	12.846506	0.067584	-0.009269	3.297941	1.000000	0.000010	0.000036	-0.000074	-0.219002	-11.812163	-175.456463
51275	2.594145	-0.043437	12.798476	0.080113	0.000926	3.245875	1.000000	-0.000012	0.000033	-0.000061	-0.218664	-11.806941	-175.463680
51276	2.631465	-0.043991	12.816899	0.046568	-0.000981	3.271550	1.000000	0.000007	0.000031	-0.000068	-0.216281	-11.803391	-175.471665
51277	2.611006	-0.057347	12.792360	0.059216	0.014115	3.243400	1.000000	0.000010	0.000026	-0.000057	-0.213513	-11.798375	-175.478405
51278	2.645592	-0.024264	12.818345	0.032692	-0.020923	3.275789	1.000000	-0.000008	0.000023	-0.000063	-0.212888	-11.795712	-175.485747
51279	2.632058	-0.076395	12.809787	0.038464	0.032214	3.264839	1.000000	0.000001	0.000054	-0.000071	-0.210657	-11.786924	-175.494106
51280	2.677551	-0.019370	12.813483	-0.001708	-0.027696	3.277547	1.000000	0.000007	0.000017	-0.000064	-0.208296	-11.784948	-175.501617
51281	2.679998	-0.052444	12.805992	-0.009360	0.005461	3.270831	1.000000	0.000006	0.000021	-0.000051	-0.206044	-11.779808	-175.507706
51282	2.694796	-0.033107	12.807303	-0.022750	-0.014509	3.275067	1.000000	0.000007	0.000031	-0.000068	-0.203668	-11.776253	-175.515689
51283	2.712424	-0.047194	12.801047	-0.043723	-0.001305	3.272585	1.000000	0.000013	0.000030	-0.000063	-0.200258	-11.770400	-175.523101
51284	2.730065	-0.061390	12.794790	-0.064135	0.011857	3.270104	1.000000	0.000002	0.000030	-0.000050	-0.198880	-11.766933	-175.528958
51285	2.755997	-0.018353	12.773765	-0.091565	-0.032943	3.254656	1.000000	0.000003	0.000027	-0.000063	-0.196729	-11.762175	-175.536432
51286	2.766771	-0.061454	12.813375	-0.098081	0.009993	3.295770	1.000000	-0.000004	0.000028	-0.000068	-0.195552	-11.758995	-175.544424
51287	2.739020	-0.036311	12.772922	-0.078088	-0.012932	3.250422	1.000000	0.000023	0.000037	-0.000050	-0.191632	-11.755158	-175.550234
51288	2.765014	-0.060314	12.813760	-0.097995	0.010033	3.295771	1.000000	-0.000002	0.000036	-0.000061	-0.190351	-11.751044	-175.557394
51289	2.763905	-0.060086	12.814000	-0.097512	0.010060	3.295775	1.000000	-0.000009	0.000051	-0.000071	-0.189758	-11.747351	-175.565629
51290	2.742869	-0.073721	12.789586	-0.084370	0.025126	3.267624	1.000000	0.000001	0.000054	-0.000071	-0.187921	-11.741167	-175.573908
51291	2.756929	-0.054423	12.791064	-0.096949	0.005142	3.271865	1.000000	0.000001	0.000054	-0.000071	-0.186421	-11.738509	-175.582128
51292	2.735804	-0.067869	12.766668	-0.083807	0.020208	3.243713	1.000000	0.000005	0.000059	-0.000076	-0.184036	-11.731819	-175.591054
51293	2.753974	-0.053459	12.791705	-0.095997	0.004929	3.271872	1.000000	-0.000002	0.000060	-0.000082	-0.183579	-11.729008	-175.600415
51294	2.703203	-0.076212	12.796058	-0.048799	0.031700	3.265876	1.000000	-0.000005	0.000056	-0.000076	-0.182420	-11.722683	-175.609338
51295	2.703026	-0.046799	12.827477	-0.040102	0.002955	3.296511	1.000000	0.000037	0.000055	-0.000072	-0.179272	-11.722407	-175.617445
51296	2.647624	-0.064146	12.808368	0.006838	0.024813	3.266596	1.000000	-0.000004	0.000091	-0.000077	-0.178034	-11.711996	-175.626462
51297	2.675215	-0.054513	12.780055	-0.025605	0.012954	3.244446	1.000000	0.000006	0.000069	-0.000093	-0.176407	-11.711188	-175.636869
51298	2.663482	-0.049207	12.833880	-0.004650	0.009575	3.294750	1.000000	0.000001	0.000068	-0.000075	-0.174643	-11.703458	-175.645589
51299	2.627826	-0.052900	12.839449	0.030133	0.016342	3.292981	1.000000	0.000011	0.000072	-0.000075	-0.172085	-11.699523	-175.654037
51300	2.637344	-0.028464	12.817455	0.016491	-0.008541	3.273305	1.000000	0.000005	0.000059	-0.000076	-0.169761	-11.692836	-175.662942
51301	2.621661	-0.018284	12.847674	0.038992	-0.017139	3.299686	1.000000	0.000001	0.000054	-0.000071	-0.170051	-11.694502	-175.670669
51302	2.620248	-0.017952	12.847962	0.039016	-0.017154	3.299686	1.000000	-0.000005	0.000056	-0.000076	-0.168942	-11.688247	-175.679578
51303	2.599210	-0.031589	12.823515	0.053107	-0.002575	3.271525	1.000000	0.000001	0.000054	-0.000071	-0.169685	-11.686173	-175.687848
51304	2.612061	-0.041076	12.793884	0.032463	0.005662	3.245143	1.000000	-0.000010	0.000055	-0.000058	-0.169628	-11.680080	-175.694609
51305	2.630433	-0.026677	12.818879	0.020321	-0.009301	3.273299	1.000000	0.000019	0.000043	-0.000061	-0.165780	-11.679534	-175.701158
51306	2.611009	-0.011555	12.825452	0.040786	-0.022483	3.275763	1.000000	-0.000005	0.000032	-0.000056	-0.165174	-11.676135	-175.707630
51307	2.658266	-0.016762	12.790548	-0.012698	-0.021165	3.251163	1.000000	-0.000002	0.000036	-0.000061	-0.164860	-11.676384	-175.714441
51308	2.623577	-0.020772	12.795886	0.021162	-0.014378	3.249381	1.000000	-0.000004	0.000028	-0.000068	-0.163819	-11.673437	-175.722390
51309	2.683707	-0.040711	12.831554	-0.031655	0.000631	3.296535	1.000000	-0.000001	0.000022	-0.000057	-0.168063	-11.674260	-175.729411
51310	2.674446	-0.030647	12.784655	-0.032137	-0.009212	3.248702	1.000000	-0.000012	0.000043	-0.000078	-0.167791	-11.669632	-175.738437
51311	2.682094	-0.040369	12.831892	-0.030446	0.000379	3.296538	1.000000	-0.000005	0.000018	-0.000052	-0.168396	-11.672560	-175.744028
51312	2.699936	-0.054717	12.825657	-0.050778	0.013485	3.294080	1.000000	-0.000000	0.000033	-0.000074	-0.166967	-11.669189	-175.752561
51313	2.713193	-0.064088	12.795967	-0.070452	0.021036	3.267713	1.000000	-0.000008	0.000048	-0.000083	-0.169519	-11.668041	-175.762174
51314	2.693700	-0.049081	12.802549	-0.049939	0.007799	3.270169	1.000000	0.000006	0.000031	-0.000068	-0.167532	-11.664864	-175.770015
51315	2.726544	-0.044284	12.797614	-0.081540	0.000724	3.271971	1.000000	0.000004	0.000049	-0.000060	-0.167559	-11.668945	-175.775691
51316	2.732643	-0.082241	12.813837	-0.088156	0.038671	3.289193	1.000000	0.000011	0.000048	-0.000054	-0.165391	-11.664040	-175.781859
51317	2.723948	-0.043397	12.798170	-0.079938	0.000492	3.271981	1.000000	-0.000007	0.000059	-0.000064	-0.165830	-11.663709	-175.788633
51318	2.707101	-0.061828	12.797268	-0.066406	0.020382	3.267735	1.000000	0.000019	0.000057	-0.000065	-0.162577	-11.657844	-175.796093
51319	2.709837	-0.066183	12.821121	-0.063607	0.025400	3.291665	1.000000	0.000000	0.000058	-0.000058	-0.161444	-11.662332	-175.801284
51320	2.685768	-0.046281	12.804225	-0.043302	0.007268	3.270193	1.000000	0.000004	0.000049	-0.000060	-0.159929	-11.657504	-175.808114
51321	2.684369	-0.046237	12.804519	-0.040534	0.006941	3.270202	1.000000	-0.000025	0.000061	-0.000057	-0.163877	-11.662706	-175.813256
51322	2.652312	-0.084134	12.802348	-0.013552	0.046805	3.261699	1.000000	0.000001	0.000044	-0.000054	-0.162941	-11.658560	-175.819430
51323	2.631507	-0.097794	12.777841	0.001640	0.061615	3.233531	1.000000	0.000001	0.000055	-0.000071	-0.163017	-11.661532	-175.826588
51324	2.646562	-0.049896	12.810465	-0.004171	0.013322	3.268391	1.000000	-0.000002	0.000050	-0.000065	-0.162180	-11.656801	-175.834069
51325	2.625850	-0.063647	12.785935	0.011027	0.026943	3.240222	1.000000	-0.000005	0.000042	-0.000072	-0.168341	-11.660940	-175.842424
51326	2.644085	-0.049304	12.810979	-0.001787	0.011758	3.268393	1.000000	-0.000002	0.000060	-0.000082	-0.167162	-11.655163	-175.851816
51327	2.609921	-0.024737	12.847478	0.041264	-0.011707	3.297162	1.000000	-0.000005	0.000042	-0.000072	-0.175790	-11.658102	-175.861118
51328	2.645825	-0.053659	12.835029	0.000703	0.014486	3.292313	1.000000	-0.000008	0.000048	-0.000083	-0.175410	-11.653821	-175.870637
51329	2.625089	-0.067456	12.810499	0.017275	0.028240	3.264141	1.000000	-0.000008	0.000048	-0.000083	-0.181538	-11.663483	-175.878116
51330	2.642734	-0.081593	12.804345	-0.002819	0.041250	3.261724	1.000000	0.000011	0.000022	-0.000070	-0.179434	-11.662330	-175.885980
51331	2.695539	-0.062594	12.824152	-0.047232	0.017968	3.291746	1.000000	0.000004	0.000023	-0.000075	-0.184235	-11.670092	-175.893515
51332	2.671094	-0.071136	12.775984	-0.034129	0.028008	3.239654	1.000000	0.000010	0.000036	-0.000074	-0.182232	-11.667536	-175.901813
51333	2.692812	-0.089888	12.793409	-0.050382	0.045409	3.261181	1.000000	0.000019	0.000043	-0.000061	-0.182695	-11.679482	-175.904068
51334	2.687528	-0.084223	12.770101	-0.050289	0.040352	3.237263	1.000000	0.000012	0.000044	-0.000067	-0.180621	-11.676227	-175.911526
51335	2.686496	-0.083465	12.770323	-0.047265	0.038125	3.237281	1.000000	0.000022	0.000037	-0.000050	-0.187955	-11.684683	-175.916885
51336	2.709217	-0.073667	12.818863	-0.059504	0.027687	3.289382	1.000000	0.000011	0.000038	-0.000037	-0.186931	-11.682353	-175.920850
51337	2.658655	-0.096397	12.822998	-0.010344	0.053863	3.283266	1.000000	0.000018	0.000071	-0.000069	-0.186637	-11.682863	-175.926406
51338	2.642916	-0.085847	12.853157	0.010905	0.045361	3.309578	1.000000	0.000029	0.000036	-0.000044	-0.183335	-11.680787	-175.931180
51339	2.614836	-0.060569	12.812630	0.033336	0.019679	3.264126	1.000000	0.000018	0.000057	-0.000065	-0.193100	-11.685365	-175.939622
51340	2.542603	-0.034995	12.830601	0.108509	-0.000089	3.267014	1.000000	0.000026	0.000042	-0.000055	-0.190095	-11.682831	-175.945625
51341	2.561095	-0.020059	12.855593	0.098061	-0.017514	3.295171	1.000000	0.000017	0.000035	-0.000068	-0.197776	-11.689478	-175.953021
51342	2.574653	-0.028801	12.825896	0.077843	-0.009489	3.268870	1.000000	0.000025	0.000030	-0.000075	-0.194552	-11.688387	-175.961286
51343	2.588574	-0.037712	12.796129	0.057843	-0.004100	3.242568	1.000000	-0.000001	0.000007	-0.000090	-0.205915	-11.690061	-175.976639
51344	2.652102	-0.023277	12.762452	-0.009555	-0.022884	3.222409	1.000000	0.000017	-0.000004	-0.000080	-0.203613	-11.692908	-175.985376
51345	2.705276	-0.004146	12.782214	-0.054939	-0.045364	3.252474	1.000000	-0.000005	0.000017	-0.000088	-0.205041	-11.697220	-175.992733
51346	2.730999	-0.056825	12.791956	-0.081482	0.005487	3.267414	1.000000	-0.000006	0.000006	-0.000071	-0.205591	-11.698919	-176.000481
51347	2.760438	-0.047028	12.763396	-0.114012	-0.007378	3.245393	1.000000	0.000008	0.000014	-0.000077	-0.208780	-11.704181	-176.008570
51348	2.783762	-0.037256	12.811812	-0.126062	-0.017988	3.297500	1.000000	0.000005	0.000010	-0.000071	-0.208225	-11.705610	-176.016272
51349	2.836712	-0.018234	12.831626	-0.171652	-0.041508	3.327583	1.000000	0.000000	0.000019	-0.000070	-0.214071	-11.708303	-176.025870
51350	2.805416	-0.055489	12.829295	-0.144298	-0.001909	3.319084	1.000000	0.000027	0.000038	-0.000068	-0.211097	-11.706467	-176.033164
51351	2.804344	-0.054860	12.829532	-0.142545	-0.004186	3.319103	1.000000	-0.000006	0.000046	-0.000060	-0.221252	-11.708246	-176.042772
51352	2.780357	-0.035274	12.812557	-0.121873	-0.022590	3.297533	1.000000	-0.000009	0.000051	-0.000071	-0.222561	-11.704971	-176.050337
51353	2.756238	-0.015292	12.795606	-0.100094	-0.040957	3.275969	1.000000	0.000025	0.000056	-0.000059	-0.220371	-11.706079	-176.056134
51354	2.735497	-0.028721	12.771083	-0.086468	-0.026212	3.247793	1.000000	-0.000001	0.000047	-0.000078	-0.220604	-11.703388	-176.064515
51355	2.715406	-0.013779	12.777704	-0.063654	-0.039824	3.250149	1.000000	0.000006	0.000071	-0.000056	-0.221300	-11.705655	-176.068686
51356	2.696047	0.029874	12.815446	-0.035158	-0.081697	3.283010	1.000000	0.000008	0.000054	-0.000065	-0.220800	-11.702218	-176.075572
51357	2.679287	0.011352	12.814502	-0.019539	-0.064668	3.278745	1.000000	0.000003	0.000063	-0.000064	-0.232918	-11.704003	-176.087166
51358	2.673679	0.016417	12.791251	-0.019280	-0.069936	3.254817	1.000000	-0.000014	0.000051	-0.000053	-0.235433	-11.700930	-176.092520
51359	2.657833	0.026143	12.821388	0.003945	-0.079470	3.281068	1.000000	-0.000000	0.000058	-0.000058	-0.240234	-11.704548	-176.099293
51360	2.655469	-0.002658	12.790604	-0.002831	-0.051603	3.250559	1.000000	-0.000039	0.000063	-0.000068	-0.245339	-11.700100	-176.106414
51361	2.673354	0.011166	12.815741	-0.012804	-0.065975	3.278747	1.000000	-0.000011	0.000055	-0.000058	-0.242589	-11.707251	-176.106452
51362	2.690817	-0.003380	12.809695	-0.032538	-0.053252	3.276426	1.000000	-0.000019	0.000034	-0.000067	-0.245387	-11.706243	-176.113441
51363	2.712394	-0.023144	12.827214	-0.048990	-0.036408	3.298045	1.000000	-0.000036	0.000058	-0.000057	-0.254473	-11.715007	-176.116847
51364	2.680561	-0.061680	12.824949	-0.021542	0.003091	3.289528	1.000000	-0.000025	0.000047	-0.000053	-0.258339	-11.712617	-176.122155
51365	2.693585	-0.071639	12.795411	-0.038804	0.010102	3.263301	1.000000	-0.000029	0.000067	-0.000068	-0.267128	-11.720343	-176.127374
51366	2.696421	-0.077041	12.819239	-0.037647	0.014444	3.287232	1.000000	-0.000038	0.000036	-0.000060	-0.272392	-11.719395	-176.133485
51367	2.679555	-0.096434	12.818297	-0.018912	0.033444	3.282983	1.000000	-0.000017	0.000092	-0.000065	-0.278836	-11.732288	-176.131208
51368	2.643936	-0.101129	12.823657	0.015675	0.039763	3.281012	1.000000	-0.000018	0.000046	-0.000047	-0.282234	-11.730378	-176.135791
51369	2.657959	-0.081988	12.825194	0.004604	0.018604	3.285278	1.000000	0.000004	0.000049	-0.000060	-0.286316	-11.734462	-176.143159
51370	2.612233	-0.081741	12.883882	0.060496	0.021380	3.333443	1.000000	-0.000016	0.000068	-0.000044	-0.289678	-11.730087	-176.147364
51371	2.620962	-0.086517	12.830825	0.042114	0.024912	3.283289	1.000000	-0.000014	0.000061	-0.000069	-0.290471	-11.735924	-176.148705
51372	2.578301	-0.052857	12.820067	0.083369	-0.006746	3.263915	1.000000	-0.000027	0.000039	-0.000060	-0.294674	-11.734930	-176.154758
51373	2.610410	-0.077157	12.784174	0.043510	0.014871	3.235423	1.000000	-0.000017	0.000042	-0.000060	-0.295121	-11.736480	-176.158491
51374	2.599100	-0.072674	12.837749	0.065651	0.010840	3.285556	1.000000	-0.000023	0.000030	-0.000061	-0.298762	-11.736574	-176.164722
51375	2.608508	-0.077545	12.784560	0.046523	0.013907	3.235414	1.000000	-0.000020	0.000048	-0.000071	-0.302076	-11.740565	-176.169695
51376	2.604142	-0.044184	12.792320	0.054440	-0.019749	3.241952	1.000000	-0.000021	0.000026	-0.000074	-0.305273	-11.741097	-176.177405
51377	2.640883	-0.073393	12.779895	0.016419	0.006682	3.237411	1.000000	-0.000029	0.000017	-0.000063	-0.307436	-11.751785	-176.175548
51378	2.644471	-0.078501	12.803563	0.017721	0.011000	3.261340	1.000000	-0.000015	0.000025	-0.000068	-0.309962	-11.752535	-176.182610
51379	2.671446	-0.074300	12.875669	0.007179	0.004688	3.337405	1.000000	-0.000025	0.000022	-0.000069	-0.315057	-11.756173	-176.190565
51380	2.651588	-0.088661	12.850911	0.020926	0.019361	3.309199	1.000000	-0.000018	0.000021	-0.000063	-0.318153	-11.757444	-176.196968
51381	2.617262	-0.093355	12.855966	0.055681	0.025965	3.307178	1.000000	-0.000017	0.000017	-0.000076	-0.319605	-11.759725	-176.204060
51382	2.643004	-0.050436	12.835136	0.029394	-0.019337	3.291796	1.000000	-0.000021	0.000026	-0.000074	-0.322795	-11.760357	-176.211775
51383	2.627259	-0.069597	12.833937	0.044857	-0.000246	3.287513	1.000000	-0.000017	0.000017	-0.000076	-0.327636	-11.767528	-176.217387
51384	2.607880	-0.083615	12.809080	0.058610	0.014427	3.259302	1.000000	-0.000004	-0.000011	-0.000080	-0.328680	-11.772501	-176.225766
51385	2.671495	-0.069397	12.775607	-0.008873	-0.004320	3.239428	1.000000	-0.000026	0.000010	-0.000088	-0.330919	-11.773696	-176.235892
51386	2.682368	-0.141291	12.784047	-0.021743	0.066287	3.250315	1.000000	-0.000006	0.000007	-0.000071	-0.332397	-11.776642	-176.243276
51387	2.708531	-0.098070	12.763135	-0.048754	0.021193	3.234939	1.000000	-0.000009	0.000002	-0.000066	-0.333264	-11.776932	-176.252092
51388	2.727073	-0.112300	12.756897	-0.068339	0.033845	3.232700	1.000000	-0.000000	0.000009	-0.000053	-0.334535	-11.779553	-176.257339
51389	2.749532	-0.131222	12.774264	-0.087157	0.052552	3.254394	1.000000	0.000007	0.000018	-0.000064	-0.329092	-11.782835	-176.257918
51390	2.745370	-0.097237	12.781993	-0.079192	0.018907	3.260921	1.000000	0.000005	0.000035	-0.000056	-0.329639	-11.782422	-176.263496
51391	2.786648	-0.101870	12.824342	-0.110146	0.020968	3.310840	1.000000	0.000015	0.000029	-0.000039	-0.330710	-11.787254	-176.264253
51392	2.778517	-0.062704	12.808478	-0.102635	-0.017487	3.293431	1.000000	0.000022	0.000012	-0.000066	-0.329087	-11.789586	-176.270983
51393	2.792909	-0.042940	12.809966	-0.114888	-0.038621	3.297718	1.000000	0.000004	0.000049	-0.000060	-0.332622	-11.788383	-176.279372
51394	2.802899	-0.018265	12.787956	-0.127823	-0.063926	3.278071	1.000000	0.000023	0.000034	-0.000063	-0.330934	-11.788201	-176.285738
51395	2.809434	-0.056110	12.804183	-0.132474	-0.026689	3.295513	1.000000	-0.000010	0.000052	-0.000071	-0.334097	-11.790801	-176.291076
51396	2.781164	-0.031620	12.763614	-0.112107	-0.049954	3.249879	1.000000	0.000001	0.000055	-0.000071	-0.334818	-11.788275	-176.298418
51397	2.764615	-0.050222	12.762596	-0.095086	-0.029919	3.245626	1.000000	0.000008	0.000054	-0.000065	-0.333166	-11.798399	-176.294391
51398	2.729734	-0.025681	12.799011	-0.052780	-0.051924	3.273997	1.000000	0.000010	0.000072	-0.000075	-0.332670	-11.794019	-176.302215
51399	2.732212	-0.030031	12.822923	-0.050906	-0.047967	3.297932	1.000000	0.000001	0.000055	-0.000071	-0.335047	-11.793525	-176.311983
51400	2.711205	-0.044104	12.798405	-0.037161	-0.033269	3.269716	1.000000	-0.000025	0.000082	-0.000090	-0.338257	-11.788054	-176.321625
51401	2.698175	-0.067906	12.821061	-0.021968	-0.008517	3.289366	1.000000	0.000004	0.000074	-0.000080	-0.336488	-11.785651	-176.328442
51402	2.662743	-0.072208	12.826305	0.012725	-0.002170	3.287288	1.000000	-0.000003	0.000051	-0.000065	-0.337748	-11.783759	-176.335143
51403	2.679984	-0.086325	12.820372	-0.005978	0.009909	3.285082	1.000000	-0.000004	0.000064	-0.000069	-0.341817	-11.783770	-176.343962
51404	2.655778	-0.066642	12.803338	0.014889	-0.008548	3.263351	1.000000	0.000005	0.000046	-0.000072	-0.342020	-11.782442	-176.351468
51405	2.654480	-0.066256	12.803610	0.016896	-0.008970	3.263348	1.000000	-0.000006	0.000056	-0.000076	-0.343331	-11.784728	-176.357198
51406	2.649044	-0.061029	12.780323	0.017312	-0.014273	3.239413	1.000000	0.000004	0.000049	-0.000060	-0.343988	-11.783014	-176.363223
51407	2.651879	-0.065316	12.804154	0.018215	-0.009637	3.263346	1.000000	0.000016	0.000049	-0.000072	-0.341239	-11.779052	-176.372934
51408	2.650431	-0.064786	12.804456	0.019133	-0.010147	3.263344	1.000000	-0.000004	0.000064	-0.000069	-0.342533	-11.775583	-176.380107
51409	2.656517	-0.102844	12.820787	0.014601	0.026711	3.280796	1.000000	-0.000002	0.000061	-0.000082	-0.346310	-11.777488	-176.388965
51410	2.628763	-0.049752	12.811293	0.042593	-0.024902	3.265525	1.000000	0.000000	0.000045	-0.000054	-0.347543	-11.776293	-176.394330
51411	2.684087	-0.063858	12.824038	-0.009227	-0.014616	3.289376	1.000000	0.000004	0.000060	-0.000076	-0.349313	-11.777534	-176.402125
51412	2.648833	-0.068026	12.829208	0.025480	-0.008286	3.287267	1.000000	0.000009	0.000051	-0.000078	-0.349020	-11.775725	-176.410263
51413	2.662587	-0.048455	12.830840	0.014901	-0.028396	3.291554	1.000000	-0.000006	0.000056	-0.000077	-0.349110	-11.781320	-176.411000
51414	2.642181	-0.062579	12.806172	0.028640	-0.013693	3.263324	1.000000	-0.000016	0.000039	-0.000073	-0.351749	-11.780898	-176.418517
51415	2.641057	-0.062195	12.806406	0.030354	-0.015069	3.263318	1.000000	0.000016	0.000049	-0.000072	-0.354884	-11.782446	-176.428654
51416	2.628591	-0.085777	12.828921	0.045162	0.009187	3.282958	1.000000	-0.000016	0.000063	-0.000093	-0.357128	-11.779294	-176.438596
51417	2.627231	-0.085335	12.829202	0.047224	0.007869	3.282952	1.000000	0.000019	0.000044	-0.000061	-0.359987	-11.783036	-176.445536
51418	2.607087	-0.099001	12.804477	0.060971	0.022558	3.254719	1.000000	-0.000001	0.000033	-0.000074	-0.360985	-11.783370	-176.453170
51419	2.606203	-0.098683	12.804660	0.061981	0.021465	3.254717	1.000000	-0.000002	0.000037	-0.000061	-0.364913	-11.783297	-176.463684
51420	2.635477	-0.060061	12.807565	0.036312	-0.019098	3.263298	1.000000	0.000005	0.000036	-0.000056	-0.365743	-11.783325	-176.469163
51421	2.608557	-0.102819	12.828587	0.065252	0.024710	3.278643	1.000000	0.000003	0.000028	-0.000063	-0.368838	-11.787681	-176.475640
51422	2.652630	-0.073592	12.801695	0.018588	-0.007480	3.261136	1.000000	0.000005	0.000036	-0.000056	-0.369697	-11.787738	-176.481108
51423	2.651876	-0.073134	12.801854	0.020729	-0.009014	3.261132	1.000000	0.000004	0.000024	-0.000075	-0.374943	-11.794035	-176.490643
51424	2.712198	-0.092033	12.838047	-0.031407	0.006251	3.309009	1.000000	-0.000000	0.000009	-0.000053	-0.376499	-11.797176	-176.495785
51425	2.684850	-0.067414	12.797200	-0.011019	-0.016617	3.263279	1.000000	0.000014	0.000027	-0.000075	-0.374137	-11.798588	-176.502276
51426	2.714271	-0.028392	12.800082	-0.036667	-0.057199	3.271867	1.000000	0.000013	0.000031	-0.000063	-0.373938	-11.799217	-176.508547
51427	2.736371	-0.046988	12.817615	-0.055057	-0.039143	3.293671	1.000000	0.000009	0.000026	-0.000057	-0.371238	-11.802867	-176.508900
51428	2.712736	-0.027182	12.800410	-0.034173	-0.057618	3.271872	1.000000	0.000010	0.000037	-0.000074	-0.371115	-11.802869	-176.516496
51429	2.749299	-0.055238	12.788229	-0.074669	-0.031817	3.267600	1.000000	0.000008	0.000040	-0.000061	-0.371035	-11.799998	-176.525639
51430	2.729530	-0.040566	12.794638	-0.053230	-0.045528	3.269737	1.000000	-0.000009	0.000038	-0.000067	-0.373209	-11.799825	-176.532427
51431	2.717333	-0.064328	12.817102	-0.038242	-0.021506	3.289382	1.000000	0.000001	0.000055	-0.000071	-0.375094	-11.798186	-176.541938
51432	2.750049	-0.059091	12.812520	-0.071032	-0.028931	3.291551	1.000000	-0.000001	0.000033	-0.000074	-0.376187	-11.798547	-176.549537
51433	2.711142	-0.058609	12.793982	-0.036118	-0.027244	3.265449	1.000000	0.000005	0.000046	-0.000072	-0.376150	-11.800741	-176.554450
51434	2.714011	-0.063026	12.817812	-0.034558	-0.023051	3.289390	1.000000	-0.000002	0.000047	-0.000078	-0.377252	-11.799547	-176.562533
51435	2.723461	-0.067196	12.764735	-0.054156	-0.019853	3.239396	1.000000	0.000004	0.000050	-0.000060	-0.377843	-11.802628	-176.565468
51436	2.711291	-0.090895	12.787191	-0.039281	0.004352	3.259040	1.000000	-0.000005	0.000043	-0.000073	-0.379497	-11.801990	-176.572900
51437	2.721108	-0.066582	12.765240	-0.051598	-0.021103	3.239404	1.000000	-0.000003	0.000051	-0.000065	-0.381758	-11.802937	-176.578874
51438	2.719835	-0.066230	12.765513	-0.050600	-0.021672	3.239407	1.000000	0.000004	0.000050	-0.000060	-0.382686	-11.801522	-176.584806
51439	2.708036	-0.061126	12.819085	-0.026713	-0.025959	3.289402	1.000000	0.000010	0.000037	-0.000074	-0.383296	-11.807093	-176.589163
51440	2.706865	-0.060417	12.819336	-0.025699	-0.026532	3.289403	1.000000	0.000012	0.000055	-0.000083	-0.382696	-11.805093	-176.597872
51441	2.705203	-0.088486	12.788497	-0.031769	0.000945	3.259061	1.000000	0.000003	0.000053	-0.000047	-0.385907	-11.806174	-176.603171
51442	2.703978	-0.059573	12.819949	-0.022995	-0.028047	3.289405	1.000000	-0.000004	0.000065	-0.000069	-0.387530	-11.803111	-176.610236
51443	2.702268	-0.059236	12.820311	-0.022216	-0.028774	3.289405	1.000000	-0.000000	0.000069	-0.000075	-0.389224	-11.798426	-176.621847
51444	2.696702	-0.053850	12.797054	-0.021799	-0.034104	3.265465	1.000000	0.000009	0.000051	-0.000078	-0.389213	-11.796952	-176.629890
51445	2.665119	-0.091712	12.794606	0.006468	0.005024	3.256863	1.000000	-0.000000	0.000069	-0.000075	-0.391936	-11.796129	-176.638683
51446	2.682533	-0.076926	12.819922	-0.005214	-0.010834	3.285105	1.000000	0.000004	0.000060	-0.000076	-0.392502	-11.793604	-176.646552
51447	2.658332	-0.057449	12.802783	0.015932	-0.029885	3.263250	1.000000	-0.000007	0.000046	-0.000060	-0.397353	-11.793687	-176.656270
51448	2.641736	-0.076366	12.801720	0.030251	-0.010464	3.258946	1.000000	0.000002	0.000077	-0.000068	-0.398410	-11.789163	-176.663131
51449	2.636355	-0.042428	12.809596	0.039424	-0.044928	3.265322	1.000000	0.000005	0.000046	-0.000072	-0.402437	-11.792426	-176.672793
51450	2.639020	-0.075428	12.802286	0.033286	-0.012364	3.258937	1.000000	0.000007	0.000044	-0.000049	-0.403423	-11.791757	-176.677353
51451	2.604094	-0.079946	12.807268	0.067879	-0.006143	3.256710	1.000000	0.000002	0.000042	-0.000067	-0.404734	-11.790507	-176.686577
51452	2.640856	-0.079347	12.826327	0.035753	-0.008877	3.282874	1.000000	0.000012	0.000045	-0.000067	-0.404733	-11.789719	-176.693264
51453	2.617006	-0.059708	12.809097	0.057684	-0.027290	3.260996	1.000000	-0.000001	0.000033	-0.000074	-0.405958	-11.794954	-176.697664
51454	2.653787	-0.087735	12.796989	0.017784	-0.001595	3.256853	1.000000	0.000010	0.000037	-0.000074	-0.406061	-11.795138	-176.705178
51455	2.649179	-0.053694	12.804697	0.026098	-0.035399	3.263220	1.000000	0.000004	0.000024	-0.000076	-0.406968	-11.797290	-176.713962
51456	2.667081	-0.067498	12.798749	0.006664	-0.022859	3.261152	1.000000	0.000004	0.000050	-0.000060	-0.408086	-11.795999	-176.719827
51457	2.685136	-0.081090	12.792775	-0.012365	-0.009883	3.259090	1.000000	0.000022	0.000013	-0.000066	-0.405142	-11.800871	-176.723137
51458	2.703507	-0.066018	12.817901	-0.023995	-0.025781	3.287338	1.000000	0.000003	0.000038	-0.000080	-0.405896	-11.800949	-176.731315
51459	2.702614	-0.065505	12.818092	-0.022853	-0.026241	3.287339	1.000000	0.000006	0.000032	-0.000068	-0.405909	-11.802174	-176.738064
51460	2.682794	-0.079353	12.793277	-0.009154	-0.011560	3.259091	1.000000	0.000006	0.000032	-0.000068	-0.406566	-11.802910	-176.744925
51461	2.711638	-0.068932	12.765165	-0.042213	-0.023831	3.237401	1.000000	0.000012	0.000045	-0.000067	-0.406958	-11.803490	-176.752665
51462	2.710780	-0.039788	12.796507	-0.033364	-0.052887	3.267702	1.000000	-0.000001	0.000034	-0.000074	-0.408274	-11.804101	-176.760187
51463	2.665066	-0.068246	12.823614	0.015207	-0.022198	3.285083	1.000000	0.000022	0.000038	-0.000050	-0.408931	-11.803380	-176.768793
51464	2.697752	-0.062777	12.819130	-0.017515	-0.029685	3.287340	1.000000	-0.000010	0.000052	-0.000071	-0.411373	-11.801850	-176.775978
51465	2.696693	-0.062378	12.819355	-0.017151	-0.030208	3.287339	1.000000	0.000013	0.000031	-0.000063	-0.410826	-11.799770	-176.786082
51466	2.672895	-0.042765	12.802090	0.003704	-0.048700	3.265436	1.000000	0.000001	0.000042	-0.000067	-0.412072	-11.799407	-176.792766
51467	2.709629	-0.070710	12.790048	-0.036172	-0.023078	3.261355	1.000000	0.000010	0.000037	-0.000074	-0.412526	-11.799693	-176.802116
51468	2.719697	-0.046114	12.768058	-0.049084	-0.048438	3.241716	1.000000	-0.000001	0.000034	-0.000074	-0.413877	-11.800265	-176.809626
51469	2.703709	-0.064975	12.766867	-0.034836	-0.029098	3.237412	1.000000	-0.000002	0.000047	-0.000078	-0.415505	-11.798905	-176.820364
51470	2.721764	-0.050135	12.792065	-0.046451	-0.045025	3.265664	1.000000	0.000004	0.000024	-0.000076	-0.416314	-11.800532	-176.828034
51471	2.713797	-0.078612	12.838054	-0.031007	-0.015856	3.309252	1.000000	0.000000	0.000056	-0.000071	-0.416006	-11.797828	-176.835958
51472	2.719527	-0.049026	12.792545	-0.044582	-0.045930	3.265667	1.000000	0.000020	0.000040	-0.000074	-0.414981	-11.797585	-176.843438
51473	2.707398	-0.072594	12.814975	-0.029570	-0.022337	3.285308	1.000000	-0.000010	0.000052	-0.000071	-0.419798	-11.796042	-176.854113
51474	2.721107	-0.052944	12.816656	-0.041836	-0.042989	3.289614	1.000000	0.000012	0.000045	-0.000067	-0.419901	-11.795256	-176.860766
51475	2.734835	-0.061719	12.787199	-0.061688	-0.034994	3.263649	1.000000	0.000005	0.000046	-0.000072	-0.419906	-11.795479	-176.868311
51476	2.718540	-0.080452	12.786072	-0.047370	-0.015605	3.259346	1.000000	0.000004	0.000060	-0.000077	-0.420669	-11.792974	-176.876116
51477	2.702226	-0.070687	12.816077	-0.024420	-0.025078	3.285314	1.000000	-0.000003	0.000051	-0.000065	-0.424506	-11.794901	-176.883226
51478	2.697102	-0.065464	12.792723	-0.024056	-0.030422	3.261367	1.000000	0.000003	0.000038	-0.000080	-0.425379	-11.794946	-176.891363
51479	2.670018	-0.108285	12.813728	0.004714	0.014080	3.276703	1.000000	0.000013	0.000057	-0.000047	-0.424248	-11.795078	-176.893002
51480	2.675325	-0.050179	12.799437	-0.001031	-0.044460	3.263378	1.000000	0.000003	0.000074	-0.000081	-0.425045	-11.791015	-176.901287
51481	2.658787	-0.069128	12.798347	0.013912	-0.024273	3.259070	1.000000	-0.000010	0.000052	-0.000071	-0.424133	-11.792382	-176.903406
51482	2.646608	-0.092841	12.820774	0.028913	-0.000176	3.278706	1.000000	0.000012	0.000045	-0.000067	-0.424246	-11.791652	-176.910057
51483	2.641472	-0.058724	12.828541	0.036843	-0.033306	3.285016	1.000000	0.000012	0.000045	-0.000067	-0.421250	-11.789766	-176.916355
51484	2.636326	-0.053309	12.805186	0.037201	-0.038637	3.261064	1.000000	0.000005	0.000046	-0.000073	-0.421994	-11.788894	-176.923679
51485	2.658023	-0.071886	12.822941	0.018021	-0.021762	3.283009	1.000000	-0.000002	0.000048	-0.000078	-0.424851	-11.785943	-176.936476
51486	2.653075	-0.066747	12.799545	0.018370	-0.027095	3.259059	1.000000	-0.000004	0.000029	-0.000069	-0.426797	-11.787044	-176.943319
51487	2.670766	-0.051858	12.824829	0.006764	-0.043159	3.287313	1.000000	0.000008	0.000065	-0.000082	-0.427491	-11.783834	-176.953894
51488	2.650821	-0.065733	12.800017	0.020393	-0.028467	3.259053	1.000000	0.000007	0.000019	-0.000064	-0.428246	-11.786124	-176.960231
51489	2.668923	-0.079392	12.794105	0.001047	-0.016269	3.257060	1.000000	0.000005	0.000046	-0.000073	-0.430486	-11.785580	-176.968437
51490	2.667929	-0.050309	12.825425	0.009960	-0.045393	3.287303	1.000000	0.000002	0.000028	-0.000063	-0.431816	-11.786808	-176.974602
51491	2.686061	-0.064165	12.819509	-0.008452	-0.032299	3.285318	1.000000	-0.000008	0.000035	-0.000080	-0.431524	-11.791886	-176.977286
51492	2.670193	-0.083143	12.818275	0.005869	-0.012911	3.281006	1.000000	0.000001	0.000042	-0.000067	-0.432856	-11.791553	-176.983944
51493	2.661166	-0.044419	12.802409	0.013557	-0.051875	3.263344	1.000000	0.000003	0.000038	-0.000080	-0.435827	-11.792198	-176.995878
51494	2.686980	-0.096478	12.812650	-0.012370	-0.001499	3.279028	1.000000	-0.000003	0.000051	-0.000066	-0.437740	-11.790796	-177.002364
51495	2.682014	-0.091320	12.789260	-0.011738	-0.006849	3.255079	1.000000	0.000002	0.000028	-0.000063	-0.439242	-11.793346	-177.009858
51496	2.662087	-0.076760	12.795545	0.009776	-0.020646	3.257050	1.000000	0.000004	0.000050	-0.000060	-0.440518	-11.792075	-177.015674
51497	2.699083	-0.075775	12.814687	-0.022607	-0.022803	3.283341	1.000000	0.000022	0.000013	-0.000066	-0.436431	-11.793566	-177.023334
51498	2.679254	-0.061044	12.820949	-0.001094	-0.036598	3.285309	1.000000	-0.000006	0.000057	-0.000077	-0.438442	-11.791493	-177.031142
51499	2.689141	-0.065166	12.767912	-0.021459	-0.032930	3.235445	1.000000	0.000006	0.000033	-0.000068	-0.436962	-11.794501	-177.035736
51500	2.677288	-0.060145	12.821364	0.001480	-0.037351	3.285307	1.000000	0.000006	0.000033	-0.000068	-0.437750	-11.795227	-177.042555
51501	2.695291	-0.045139	12.846591	-0.008928	-0.053554	3.313568	1.000000	0.000006	0.000033	-0.000068	-0.439763	-11.800777	-177.046887
51502	2.705558	-0.048996	12.793481	-0.029793	-0.050416	3.263710	1.000000	0.000014	0.000028	-0.000075	-0.439467	-11.802072	-177.054514
51503	2.708570	-0.053356	12.817287	-0.027804	-0.045929	3.287662	1.000000	-0.000007	0.000047	-0.000060	-0.439956	-11.802297	-177.058474
51504	2.707578	-0.052948	12.817498	-0.026754	-0.046574	3.287662	1.000000	0.000013	0.000031	-0.000063	-0.440108	-11.803188	-177.064622
51505	2.687578	-0.066930	12.792693	-0.012997	-0.032500	3.259395	1.000000	-0.000003	0.000062	-0.000082	-0.444480	-11.801205	-177.076481
51506	2.705251	-0.052046	12.817993	-0.024495	-0.048504	3.287659	1.000000	0.000002	0.000028	-0.000063	-0.445851	-11.802499	-177.082633
51507	2.741973	-0.051199	12.837219	-0.056159	-0.051248	3.313982	1.000000	0.000007	0.000055	-0.000065	-0.446157	-11.802103	-177.088275
51508	2.699200	-0.074856	12.763752	-0.030755	-0.025861	3.233501	1.000000	0.000008	0.000041	-0.000061	-0.446900	-11.801939	-177.094247
51509	2.705934	-0.084081	12.811213	-0.028538	-0.017397	3.281404	1.000000	-0.000003	0.000051	-0.000066	-0.449850	-11.799226	-177.106008
51510	2.681815	-0.064703	12.793914	-0.007746	-0.035876	3.259390	1.000000	0.000006	0.000043	-0.000085	-0.450258	-11.798799	-177.114776
51511	2.718281	-0.063852	12.813206	-0.039476	-0.038775	3.285721	1.000000	-0.000001	0.000059	-0.000058	-0.452342	-11.797521	-177.121291
51512	2.683382	-0.097102	12.786950	-0.012623	-0.004038	3.253141	1.000000	0.000020	0.000041	-0.000074	-0.451466	-11.797352	-177.128720
51513	2.715702	-0.062611	12.813759	-0.036827	-0.040119	3.285725	1.000000	-0.000003	0.000062	-0.000082	-0.453249	-11.797200	-177.135945
51514	2.725020	-0.009500	12.823021	-0.041834	-0.093998	3.296283	1.000000	-0.000000	0.000045	-0.000054	-0.455129	-11.796500	-177.141091
51515	2.734719	0.014983	12.801131	-0.054186	-0.119212	3.276648	1.000000	-0.000002	0.000048	-0.000078	-0.456129	-11.798233	-177.146374
51516	2.685012	-0.037973	12.773395	-0.014076	-0.064434	3.239745	1.000000	-0.000010	0.000052	-0.000071	-0.458765	-11.796765	-177.153505
51517	2.657671	-0.052650	12.825477	0.022355	-0.048840	3.285250	1.000000	-0.000007	0.000057	-0.000077	-0.460715	-11.795346	-177.164474
51518	2.664757	-0.119219	12.810726	0.008983	0.016865	3.272781	1.000000	0.000001	0.000042	-0.000067	-0.462155	-11.795067	-177.171096
51519	2.602104	-0.043232	12.836646	0.078745	-0.057331	3.284748	1.000000	-0.000009	0.000075	-0.000068	-0.468751	-11.791113	-177.183701
51520	2.650859	-0.142790	12.833494	0.025175	0.039333	3.292420	1.000000	0.000005	0.000047	-0.000073	-0.469684	-11.790302	-177.190963
51521	2.614894	-0.080256	12.776406	0.052318	-0.021424	3.228688	1.000000	0.000013	0.000032	-0.000063	-0.469114	-11.794222	-177.193044
51522	2.585241	-0.157021	12.866619	0.096217	0.056640	3.311548	1.000000	0.000001	0.000042	-0.000067	-0.470592	-11.793960	-177.199652
51523	2.673714	-0.097649	12.813439	0.002262	-0.006638	3.277097	1.000000	0.000013	0.000032	-0.000063	-0.468516	-11.797354	-177.200824
51524	2.624428	-0.121666	12.816654	0.050332	0.019620	3.270360	1.000000	0.000012	0.000021	-0.000046	-0.469219	-11.799488	-177.204956
51525	2.701891	-0.057702	12.816701	-0.022489	-0.048233	3.285730	1.000000	0.000015	0.000040	-0.000056	-0.470140	-11.797923	-177.216264
51526	2.671486	-0.095756	12.813918	0.005098	-0.008832	3.277094	1.000000	0.000010	0.000023	-0.000070	-0.470506	-11.799792	-177.223193
51527	2.704225	-0.061104	12.840656	-0.019245	-0.044935	3.309684	1.000000	0.000022	0.000039	-0.000050	-0.470155	-11.801451	-177.226499
51528	2.702944	-0.060506	12.840928	-0.018180	-0.045612	3.309683	1.000000	-0.000003	0.000062	-0.000082	-0.471767	-11.798944	-177.234915
51529	2.697834	-0.055192	12.817567	-0.017281	-0.050752	3.285729	1.000000	0.000013	0.000032	-0.000063	-0.471354	-11.802594	-177.237929
51530	2.730534	-0.049183	12.813270	-0.049958	-0.058320	3.288161	1.000000	0.000012	0.000056	-0.000084	-0.471221	-11.800765	-177.246490
51531	2.676706	-0.068418	12.792985	-0.002320	-0.037016	3.257451	1.000000	0.000005	0.000047	-0.000073	-0.473629	-11.801473	-177.255424
51532	2.675221	-0.039291	12.824340	0.006756	-0.066238	3.287603	1.000000	-0.000001	0.000044	-0.000091	-0.474791	-11.800992	-177.264824
51533	2.659601	-0.086886	12.791991	0.013072	-0.018177	3.253129	1.000000	-0.000002	0.000048	-0.000078	-0.475714	-11.800144	-177.273674
51534	2.658013	-0.057680	12.823363	0.022152	-0.047402	3.283276	1.000000	0.000015	0.000050	-0.000072	-0.475498	-11.798977	-177.280906
51535	2.679623	-0.076044	12.841254	0.003677	-0.030102	3.305356	1.000000	-0.000012	0.000055	-0.000095	-0.477053	-11.798014	-177.292085
51536	2.662690	-0.027871	12.778092	0.009601	-0.077895	3.239676	1.000000	0.000007	0.000019	-0.000064	-0.477995	-11.800444	-177.298349
51537	2.673948	-0.070377	12.818010	0.005355	-0.036087	3.281396	1.000000	0.000005	0.000047	-0.000073	-0.478961	-11.801142	-177.305613
51538	2.683930	-0.045552	12.796069	-0.007628	-0.061450	3.261757	1.000000	0.000017	0.000022	-0.000064	-0.478721	-11.803173	-177.311858
51539	2.702307	-0.058800	12.790212	-0.026527	-0.049113	3.259892	1.000000	0.000019	0.000030	-0.000057	-0.479089	-11.806524	-177.316697
51540	2.734993	-0.024210	12.816972	-0.051165	-0.085248	3.292490	1.000000	0.000002	0.000028	-0.000063	-0.480610	-11.807906	-177.322792
51541	2.715611	-0.038411	12.792016	-0.037523	-0.070670	3.264212	1.000000	0.000002	0.000028	-0.000063	-0.482815	-11.809785	-177.331051
51542	2.771770	-0.051491	12.805266	-0.089875	-0.060472	3.288780	1.000000	-0.000000	0.000020	-0.000070	-0.484434	-11.812107	-177.337972
51543	2.743404	0.001366	12.795368	-0.061704	-0.111782	3.272855	1.000000	0.000020	0.000067	-0.000058	-0.482544	-11.809945	-177.343048
51544	2.761012	-0.011996	12.789688	-0.081119	-0.099323	3.271005	1.000000	0.000005	0.000047	-0.000073	-0.483552	-11.809202	-177.350285
51545	2.725696	-0.017166	12.794506	-0.046025	-0.093222	3.268532	1.000000	-0.000020	0.000071	-0.000068	-0.487983	-11.806889	-177.358458
51546	2.694686	-0.056029	12.791833	-0.018448	-0.053825	3.259888	1.000000	-0.000014	0.000048	-0.000066	-0.491294	-11.806020	-177.364894
51547	2.693364	-0.055836	12.792112	-0.017456	-0.054306	3.259887	1.000000	0.000000	0.000056	-0.000071	-0.491926	-11.803906	-177.373887
51548	2.613473	-0.090409	12.823497	0.065163	-0.016535	3.274558	1.000000	0.000000	0.000056	-0.000071	-0.493510	-11.802096	-177.380959
51549	2.664987	-0.098724	12.813318	0.011921	-0.010782	3.275199	1.000000	-0.000003	0.000051	-0.000066	-0.494759	-11.800477	-177.388335
51550	2.645044	-0.113160	12.788466	0.025422	0.003947	3.246917	1.000000	-0.000010	0.000053	-0.000071	-0.497535	-11.799067	-177.395423
51551	2.643211	-0.084275	12.819861	0.035127	-0.024956	3.277028	1.000000	0.000000	0.000056	-0.000071	-0.497647	-11.799835	-177.396844
51552	2.680181	-0.111975	12.808155	-0.004780	0.000644	3.273363	1.000000	-0.000002	0.000037	-0.000062	-0.499755	-11.800165	-177.402770
51553	2.655870	-0.064081	12.821801	0.024028	-0.046292	3.281342	1.000000	0.000013	0.000032	-0.000063	-0.499691	-11.801168	-177.411916
51554	2.730745	-0.090810	12.829223	-0.048788	-0.022974	3.304144	1.000000	0.000012	0.000046	-0.000067	-0.500075	-11.800556	-177.418477
51555	2.687953	-0.086125	12.786698	-0.015801	-0.025778	3.253729	1.000000	0.000003	0.000050	-0.000060	-0.500521	-11.798733	-177.427381
51556	2.705200	-0.071090	12.812122	-0.027143	-0.041901	3.282011	1.000000	0.000000	0.000056	-0.000071	-0.502115	-11.796921	-177.434451
51557	2.714711	-0.046509	12.790293	-0.039821	-0.067028	3.262378	1.000000	-0.000002	0.000048	-0.000078	-0.502828	-11.797539	-177.441236
51558	2.679191	-0.022857	12.826107	0.003074	-0.089401	3.289969	1.000000	0.000005	0.000047	-0.000073	-0.503864	-11.796799	-177.448465
51559	2.720107	-0.055245	12.838047	-0.035672	-0.059368	3.310296	1.000000	-0.000006	0.000043	-0.000073	-0.506967	-11.797857	-177.458850
51560	2.695550	-0.036296	12.820719	-0.014944	-0.077827	3.288147	1.000000	-0.000013	0.000081	-0.000080	-0.509809	-11.793264	-177.466920
51561	2.649667	-0.094306	12.816528	0.026216	-0.018297	3.275170	1.000000	-0.000002	0.000059	-0.000095	-0.510775	-11.792760	-177.474748
51562	2.696771	-0.068880	12.813910	-0.019686	-0.045948	3.282011	1.000000	0.000008	0.000052	-0.000078	-0.511290	-11.791497	-177.482623
51563	2.650755	-0.098116	12.840737	0.029400	-0.015153	3.299123	1.000000	-0.000007	0.000057	-0.000077	-0.513896	-11.790359	-177.490604
51564	2.656389	-0.068755	12.795284	0.015537	-0.045119	3.255524	1.000000	0.000005	0.000047	-0.000073	-0.514962	-11.789632	-177.497822
51565	2.652723	-0.130720	12.833772	0.024509	0.017140	3.292992	1.000000	0.000001	0.000042	-0.000067	-0.514374	-11.790430	-177.500370
51566	2.691970	-0.067168	12.814929	-0.014982	-0.048321	3.282009	1.000000	0.000006	0.000033	-0.000069	-0.515413	-11.791306	-177.507095
51567	2.710103	-0.080664	12.809191	-0.034473	-0.035665	3.280214	1.000000	0.000007	0.000045	-0.000049	-0.515867	-11.790550	-177.512582
51568	2.698149	-0.104268	12.831534	-0.019298	-0.011711	3.299850	1.000000	0.000018	0.000045	-0.000061	-0.515635	-11.790077	-177.518461
51569	2.726868	-0.093316	12.803754	-0.052779	-0.024272	3.278427	1.000000	0.000016	0.000052	-0.000036	-0.517912	-11.788872	-177.525794
51570	2.687913	-0.093527	12.784812	-0.018830	-0.022671	3.251928	1.000000	0.000003	0.000050	-0.000060	-0.519447	-11.787738	-177.531526
51571	2.700667	-0.044895	12.817731	-0.022328	-0.071907	3.286327	1.000000	0.000014	0.000054	-0.000060	-0.519368	-11.788585	-177.534798
51572	2.670608	-0.111831	12.783840	-0.002900	-0.003907	3.247603	1.000000	0.000010	0.000049	-0.000054	-0.520261	-11.787588	-177.539857
51573	2.678824	-0.029724	12.824241	0.000190	-0.086819	3.288099	1.000000	0.000010	0.000060	-0.000071	-0.522295	-11.784742	-177.553080
51574	2.666655	-0.053300	12.846620	0.015379	-0.062882	3.307730	1.000000	0.000011	0.000046	-0.000067	-0.522748	-11.784144	-177.559616
51575	2.627581	-0.053404	12.827677	0.049421	-0.060898	3.281211	1.000000	0.000007	0.000066	-0.000082	-0.521649	-11.781788	-177.566973
51576	2.656098	-0.042569	12.799953	0.015894	-0.073106	3.259797	1.000000	0.000005	0.000047	-0.000073	-0.522748	-11.781063	-177.574180
51577	2.609286	-0.043174	12.857854	0.073658	-0.071184	3.306922	1.000000	0.000002	0.000075	-0.000081	-0.525452	-11.780153	-177.580172
51578	2.608657	-0.071334	12.827015	0.066600	-0.043286	3.276857	1.000000	0.000003	0.000025	-0.000076	-0.526626	-11.781982	-177.587707
51579	2.626998	-0.084794	12.821260	0.047294	-0.030745	3.275087	1.000000	0.000002	0.000039	-0.000080	-0.527365	-11.782706	-177.596215
51580	2.644666	-0.069676	12.846610	0.036029	-0.046926	3.303372	1.000000	-0.000003	0.000026	-0.000082	-0.529191	-11.784410	-177.604420
51581	2.708328	-0.082128	12.783286	-0.039275	-0.037069	3.254496	1.000000	-0.000001	0.000034	-0.000074	-0.529310	-11.785719	-177.609965
51582	2.654586	-0.073172	12.793747	0.016036	-0.044012	3.253680	1.000000	0.000014	0.000028	-0.000076	-0.529300	-11.787142	-177.617481
51583	2.714499	-0.090503	12.830884	-0.035440	-0.029150	3.302425	1.000000	0.000002	0.000028	-0.000063	-0.530132	-11.788119	-177.623627
51584	2.841248	-0.058245	12.766304	-0.171055	-0.066688	3.264808	1.000000	0.000012	0.000032	-0.000063	-0.530580	-11.789134	-177.629660
51585	2.761620	-0.093123	12.797400	-0.087795	-0.028801	3.279299	1.000000	-0.000005	0.000066	-0.000070	-0.532328	-11.788932	-177.633830
51586	2.842322	-0.062047	12.790559	-0.167392	-0.063409	3.288801	1.000000	0.000014	0.000054	-0.000060	-0.532722	-11.787418	-177.639527
51587	2.657070	-0.108591	12.811161	0.015872	-0.009389	3.271552	1.000000	0.000022	0.000075	-0.000051	-0.532066	-11.784876	-177.642308
51588	2.589338	-0.028081	12.813083	0.084841	-0.087307	3.258875	1.000000	-0.000001	0.000070	-0.000075	-0.533784	-11.781513	-177.649842
51589	2.645085	-0.069321	12.795736	0.024646	-0.048362	3.253651	1.000000	0.000012	0.000068	-0.000064	-0.533200	-11.779431	-177.654968
51590	2.522103	-0.042969	12.846111	0.155599	-0.070080	3.277625	1.000000	0.000002	0.000065	-0.000064	-0.534814	-11.776732	-177.661176
51591	2.593303	-0.064707	12.830163	0.082100	-0.051086	3.276741	1.000000	0.000011	0.000010	-0.000066	-0.533807	-11.780999	-177.665482
51592	2.587972	-0.030792	12.837774	0.090472	-0.085002	3.282792	1.000000	0.000003	0.000051	-0.000060	-0.535395	-11.779904	-177.671194
51593	2.598789	-0.034812	12.784746	0.069713	-0.081600	3.233121	1.000000	0.000001	0.000006	-0.000066	-0.536646	-11.786002	-177.675380
51594	2.688999	-0.041778	12.793899	-0.016240	-0.078455	3.260564	1.000000	0.000010	0.000024	-0.000070	-0.537191	-11.787987	-177.682234
51595	2.662331	-0.056323	12.845625	0.020495	-0.063245	3.305881	1.000000	0.000001	0.000017	-0.000083	-0.539110	-11.791172	-177.694152
51596	2.783311	-0.081567	12.795713	-0.108293	-0.042967	3.281975	1.000000	0.000005	0.000011	-0.000072	-0.540286	-11.794633	-177.701177
51597	2.721353	-0.034686	12.789874	-0.046207	-0.087286	3.263172	1.000000	-0.000001	0.000034	-0.000074	-0.540383	-11.797222	-177.705153
51598	2.762460	-0.066716	12.801970	-0.085206	-0.057164	3.283707	1.000000	0.000008	0.000052	-0.000078	-0.540988	-11.796011	-177.712996
51599	2.791414	-0.055828	12.774225	-0.118934	-0.069280	3.262364	1.000000	0.000002	0.000028	-0.000063	-0.542209	-11.796735	-177.722495
51600	2.692873	-0.077132	12.811055	-0.015749	-0.044656	3.278470	1.000000	-0.000009	0.000049	-0.000084	-0.544652	-11.795803	-177.731027
51601	2.751168	-0.056215	12.755481	-0.084159	-0.068284	3.235785	1.000000	-0.000013	0.000081	-0.000080	-0.547259	-11.790400	-177.741443
51602	2.666630	-0.058102	12.793975	0.005809	-0.063728	3.256207	1.000000	0.000001	0.000042	-0.000067	-0.548953	-11.790249	-177.747976
51603	2.707535	-0.090164	12.806134	-0.032882	-0.033072	3.276765	1.000000	0.000003	0.000061	-0.000077	-0.547764	-11.789370	-177.753506
51604	2.633833	-0.067621	12.822517	0.042946	-0.053138	3.277535	1.000000	-0.000000	0.000057	-0.000071	-0.549480	-11.787622	-177.760537
51605	2.632498	-0.067259	12.822793	0.043810	-0.053673	3.277530	1.000000	-0.000002	0.000048	-0.000079	-0.550407	-11.785845	-177.769325
51606	2.665759	-0.089869	12.787682	0.002947	-0.032677	3.250164	1.000000	0.000005	0.000059	-0.000053	-0.551937	-11.783813	-177.774200
51607	2.573454	-0.053399	12.809783	0.099401	-0.066044	3.252603	1.000000	0.000011	0.000010	-0.000066	-0.553231	-11.787906	-177.782048
51608	2.682469	-0.074179	12.813255	-0.007027	-0.049795	3.278459	1.000000	-0.000011	0.000053	-0.000072	-0.556146	-11.786563	-177.789094
51609	2.639506	-0.041322	12.801503	0.034587	-0.081209	3.257867	1.000000	0.000015	0.000004	-0.000055	-0.556050	-11.792782	-177.789937
51610	2.714948	-0.067590	12.809241	-0.038115	-0.058041	3.281103	1.000000	0.000001	0.000043	-0.000067	-0.557755	-11.792640	-177.796464
51611	2.747713	-0.061586	12.805169	-0.070752	-0.065661	3.283753	1.000000	-0.000003	0.000038	-0.000062	-0.559848	-11.793011	-177.806434
51612	2.709303	-0.062118	12.785990	-0.036890	-0.064006	3.257135	1.000000	0.000009	0.000027	-0.000057	-0.560885	-11.794595	-177.811788
51613	2.745999	-0.060712	12.805541	-0.068246	-0.067331	3.283758	1.000000	0.000001	0.000043	-0.000067	-0.563629	-11.795822	-177.818922
51614	2.725519	-0.046218	12.811674	-0.046642	-0.081198	3.285435	1.000000	0.000018	0.000056	-0.000078	-0.563090	-11.794196	-177.826731
51615	2.762457	-0.073612	12.800280	-0.086675	-0.055391	3.282089	1.000000	-0.000029	0.000065	-0.000082	-0.566696	-11.791126	-177.836160
51616	2.681194	-0.042036	12.769283	-0.012760	-0.084551	3.234836	1.000000	0.000004	0.000047	-0.000073	-0.567882	-11.790445	-177.843333
51617	2.688553	-0.079462	12.785729	-0.017904	-0.047349	3.252799	1.000000	0.000019	0.000042	-0.000074	-0.566543	-11.790927	-177.851600
51618	2.671495	-0.069733	12.815572	0.004660	-0.056672	3.278432	1.000000	-0.000003	0.000085	-0.000080	-0.568358	-11.785974	-177.859614
51619	2.632186	-0.070222	12.796551	0.038968	-0.054953	3.251788	1.000000	0.000008	0.000052	-0.000078	-0.568848	-11.786785	-177.865214
51620	2.649994	-0.083502	12.791001	0.019548	-0.042547	3.250121	1.000000	0.000003	0.000061	-0.000077	-0.570074	-11.784508	-177.872882
51621	2.604100	-0.112951	12.817601	0.068759	-0.011277	3.267074	1.000000	0.000011	0.000046	-0.000067	-0.568640	-11.785036	-177.879640
51622	2.646769	-0.053794	12.822568	0.030242	-0.072225	3.280074	1.000000	-0.000004	0.000026	-0.000082	-0.570532	-11.786782	-177.887814
51623	2.646575	-0.081823	12.791720	0.023267	-0.044022	3.250110	1.000000	0.000020	0.000064	-0.000071	-0.568791	-11.785189	-177.892653
51624	2.663627	-0.066364	12.817228	0.012135	-0.060290	3.278411	1.000000	-0.000001	0.000034	-0.000074	-0.570604	-11.785997	-177.899997
51625	2.712018	-0.069343	12.783675	-0.041640	-0.059222	3.255479	1.000000	-0.000001	0.000034	-0.000074	-0.571837	-11.788296	-177.905184
51626	2.681201	-0.079165	12.811746	-0.005850	-0.048477	3.276757	1.000000	0.000026	0.000030	-0.000052	-0.571065	-11.789610	-177.909830
51627	2.714193	-0.072613	12.807675	-0.038226	-0.055913	3.279450	1.000000	0.000012	0.000032	-0.000063	-0.570547	-11.791755	-177.912771
51628	2.723817	-0.047726	12.785858	-0.051308	-0.081254	3.259818	1.000000	0.000007	0.000056	-0.000066	-0.571669	-11.790153	-177.919109
51629	2.707009	-0.038129	12.815625	-0.028792	-0.090215	3.285428	1.000000	0.000004	0.000047	-0.000073	-0.571197	-11.789191	-177.927890
51630	2.706933	-0.066324	12.784769	-0.036002	-0.062269	3.255481	1.000000	0.000004	0.000037	-0.000056	-0.572825	-11.789728	-177.933074
51631	2.681578	-0.018628	12.798306	-0.006583	-0.109092	3.263088	1.000000	0.000007	0.000066	-0.000083	-0.572477	-11.789048	-177.936478
51632	2.718567	-0.045920	12.786982	-0.046521	-0.083565	3.259821	1.000000	-0.000012	0.000056	-0.000059	-0.575890	-11.787337	-177.942024
51633	2.653455	-0.061947	12.819359	0.023541	-0.065831	3.278369	1.000000	0.000004	0.000047	-0.000073	-0.577015	-11.789072	-177.946126
51634	2.666742	-0.041869	12.821217	0.011453	-0.086645	3.282702	1.000000	0.000004	0.000047	-0.000073	-0.578223	-11.788424	-177.953288
51635	2.666626	-0.070082	12.790375	0.004269	-0.058673	3.252764	1.000000	0.000001	0.000043	-0.000067	-0.579885	-11.788514	-177.961736
51636	2.612525	-0.061657	12.800624	0.059598	-0.065582	3.251661	1.000000	0.000002	0.000039	-0.000080	-0.581177	-11.788805	-177.969724
51637	2.683884	-0.082957	12.784986	-0.014244	-0.046887	3.251140	1.000000	0.000002	0.000039	-0.000080	-0.581884	-11.788282	-177.980647
51638	2.637221	-0.084003	12.842556	0.043094	-0.044759	3.297972	1.000000	-0.000003	0.000049	-0.000079	-0.583749	-11.787503	-177.988480
51639	2.685792	-0.086758	12.809037	-0.010759	-0.043655	3.275109	1.000000	0.000011	0.000010	-0.000066	-0.583558	-11.792387	-177.995011
51640	2.703299	-0.071311	12.834461	-0.021837	-0.059957	3.303418	1.000000	0.000004	0.000047	-0.000073	-0.584779	-11.791735	-178.002168
51641	2.680037	-0.081160	12.785804	-0.009626	-0.049523	3.251134	1.000000	-0.000011	0.000053	-0.000072	-0.587200	-11.790200	-178.010278
51642	2.750207	-0.073717	12.801311	-0.074931	-0.059653	3.280573	1.000000	0.000023	0.000036	-0.000063	-0.586562	-11.790862	-178.016238
51643	2.681680	-0.084646	12.809912	-0.006332	-0.046210	3.275103	1.000000	0.000008	0.000042	-0.000062	-0.586471	-11.791271	-178.022429
51644	2.733630	-0.092068	12.800156	-0.059461	-0.040776	3.276240	1.000000	0.000004	0.000047	-0.000073	-0.587697	-11.790617	-178.029583
51645	2.713192	-0.077783	12.806204	-0.037344	-0.054506	3.277842	1.000000	0.000008	0.000042	-0.000062	-0.588264	-11.792794	-178.030196
51646	2.711896	-0.077198	12.806482	-0.036241	-0.055246	3.277842	1.000000	0.000010	0.000060	-0.000071	-0.588880	-11.790667	-178.037174
51647	2.740388	-0.066180	12.778970	-0.069567	-0.067175	3.256621	1.000000	-0.000002	0.000060	-0.000059	-0.589927	-11.789912	-178.041216
51648	2.705323	-0.071444	12.783427	-0.034759	-0.060953	3.253872	1.000000	0.000019	0.000042	-0.000074	-0.589404	-11.789919	-178.048501
51649	2.707723	-0.075441	12.807376	-0.032386	-0.056924	3.277845	1.000000	0.000009	0.000064	-0.000059	-0.589349	-11.788489	-178.052208
51650	2.652989	-0.066900	12.817687	0.022949	-0.063824	3.276672	1.000000	0.000013	0.000065	-0.000077	-0.589432	-11.785827	-178.059838
51651	2.674555	-0.084678	12.835874	0.004419	-0.046907	3.299057	1.000000	0.000008	0.000052	-0.000078	-0.589986	-11.784057	-178.074565
51652	2.631943	-0.080562	12.793000	0.037161	-0.049696	3.248346	1.000000	0.000006	0.000056	-0.000066	-0.591149	-11.782470	-178.080885
51653	2.638160	-0.089539	12.840585	0.040558	-0.040711	3.296288	1.000000	0.000001	0.000043	-0.000067	-0.589752	-11.783433	-178.082571
51654	2.647763	-0.064907	12.818778	0.027449	-0.066041	3.276653	1.000000	-0.000006	0.000044	-0.000073	-0.592167	-11.783205	-178.089741
51655	2.609415	-0.065580	12.799446	0.061793	-0.063719	3.249903	1.000000	0.000017	0.000023	-0.000064	-0.589599	-11.787933	-178.086581
51656	2.679783	-0.057881	12.814994	-0.003463	-0.073898	3.279416	1.000000	0.000004	0.000048	-0.000073	-0.590826	-11.787299	-178.093731
51657	2.622729	-0.073568	12.770477	0.042487	-0.056319	3.224345	1.000000	-0.000004	0.000063	-0.000083	-0.591607	-11.785243	-178.105098
51658	2.673620	-0.052251	12.791843	-0.002237	-0.079619	3.255437	1.000000	0.000013	0.000018	-0.000059	-0.592119	-11.787945	-178.110568
51659	2.662268	-0.076005	12.814015	0.012948	-0.055692	3.275061	1.000000	0.000005	0.000034	-0.000069	-0.592954	-11.788320	-178.119276
51660	2.656444	-0.042007	12.821611	0.021412	-0.089644	3.280963	1.000000	0.000016	0.000037	-0.000069	-0.592968	-11.788871	-178.125901
51661	2.686854	-0.059475	12.762912	-0.020500	-0.073110	3.229892	1.000000	0.000002	0.000029	-0.000063	-0.594636	-11.791041	-178.134626
51662	2.672784	-0.026167	12.847286	0.011655	-0.106704	3.309268	1.000000	-0.000001	0.000046	-0.000055	-0.596870	-11.790544	-178.139632
51663	2.688570	-0.063486	12.787003	-0.017188	-0.069780	3.253862	1.000000	-0.000003	0.000037	-0.000099	-0.596958	-11.791377	-178.148005
51664	2.682668	-0.029777	12.794610	-0.008722	-0.103733	3.259757	1.000000	-0.000003	0.000038	-0.000062	-0.599267	-11.791821	-178.153839
51665	2.693996	-0.072012	12.834764	-0.012754	-0.062055	3.301807	1.000000	0.000018	0.000045	-0.000061	-0.598220	-11.791916	-178.159175
51666	2.689350	-0.066651	12.811295	-0.012708	-0.067287	3.277830	1.000000	0.000009	0.000028	-0.000058	-0.599313	-11.793550	-178.164485
51667	2.665495	-0.047724	12.793556	0.007668	-0.085643	3.255396	1.000000	0.000005	0.000034	-0.000069	-0.600524	-11.793688	-178.177123
51668	2.673208	-0.085338	12.810027	0.002476	-0.048684	3.273478	1.000000	0.000001	0.000043	-0.000067	-0.602305	-11.793586	-178.183609
51669	2.679205	-0.055851	12.764536	-0.011701	-0.078173	3.229873	1.000000	0.000005	0.000034	-0.000069	-0.602091	-11.794686	-178.188725
51670	2.667545	-0.079831	12.786770	0.003637	-0.054335	3.249498	1.000000	-0.000006	0.000044	-0.000073	-0.604519	-11.794459	-178.195886
51671	2.684710	-0.064471	12.812280	-0.007310	-0.070454	3.277817	1.000000	0.000014	0.000030	-0.000039	-0.604385	-11.796037	-178.199965
51672	2.669475	-0.083805	12.810815	0.006961	-0.051102	3.273467	1.000000	-0.000015	0.000037	-0.000086	-0.607536	-11.796628	-178.208631
51673	2.705900	-0.082107	12.830597	-0.024115	-0.054135	3.300258	1.000000	0.000018	0.000045	-0.000061	-0.606611	-11.798153	-178.205853
51674	2.715629	-0.057163	12.808775	-0.037246	-0.079458	3.280629	1.000000	0.000002	0.000029	-0.000063	-0.608357	-11.799665	-178.211832
51675	2.734159	-0.070525	12.803206	-0.056753	-0.066853	3.279104	1.000000	-0.000003	0.000038	-0.000062	-0.609633	-11.799803	-178.219753
51676	2.713929	-0.056510	12.809138	-0.035111	-0.080715	3.280627	1.000000	0.000002	0.000029	-0.000063	-0.611381	-11.801312	-178.225731
51677	2.751830	-0.083440	12.797829	-0.075058	-0.054980	3.277587	1.000000	0.000002	0.000040	-0.000080	-0.611609	-11.801722	-178.234879
51678	2.754538	-0.087824	12.821716	-0.072865	-0.051251	3.301566	1.000000	-0.000010	0.000039	-0.000068	-0.614578	-11.802041	-178.241380
51679	2.726398	-0.064392	12.780409	-0.053351	-0.073743	3.255134	1.000000	0.000006	0.000067	-0.000083	-0.613897	-11.799487	-178.247107
51680	2.710584	-0.083507	12.779068	-0.039089	-0.054387	3.250786	1.000000	0.000004	0.000048	-0.000073	-0.615148	-11.798844	-178.254241
51681	2.716970	-0.092310	12.826631	-0.035838	-0.045855	3.298740	1.000000	0.000012	0.000033	-0.000063	-0.614226	-11.799810	-178.260171
51682	2.712194	-0.086983	12.803191	-0.035825	-0.051072	3.274764	1.000000	0.000008	0.000053	-0.000079	-0.614942	-11.798621	-178.267960
51683	2.677036	-0.092571	12.807571	-0.000945	-0.044905	3.271920	1.000000	-0.000008	0.000058	-0.000077	-0.617762	-11.797152	-178.280100
51684	2.679297	-0.096820	12.831547	0.001259	-0.041183	3.295894	1.000000	0.000013	0.000055	-0.000060	-0.618300	-11.795687	-178.285724
51685	2.672891	-0.062767	12.839225	0.009731	-0.075025	3.301742	1.000000	0.000014	0.000051	-0.000073	-0.617828	-11.794574	-178.294439
51686	2.680166	-0.099970	12.855822	0.004560	-0.038090	3.319867	1.000000	0.000020	0.000064	-0.000071	-0.617300	-11.792021	-178.301372
51687	2.666564	-0.056471	12.816106	0.010647	-0.080888	3.277755	1.000000	0.000016	0.000027	-0.000052	-0.617301	-11.792952	-178.309057
51688	2.688645	-0.074422	12.834270	-0.007678	-0.064057	3.300233	1.000000	-0.000011	0.000053	-0.000072	-0.620322	-11.791652	-178.316054
51689	2.650114	-0.075400	12.814886	0.026255	-0.062159	3.273395	1.000000	0.000012	0.000033	-0.000063	-0.620387	-11.793811	-178.320261
51690	2.682618	-0.068662	12.811091	-0.006331	-0.069894	3.276250	1.000000	0.000013	0.000066	-0.000077	-0.620514	-11.791131	-178.327868
51691	2.676164	-0.034684	12.818764	0.002417	-0.103817	3.282081	1.000000	0.000007	0.000042	-0.000062	-0.621507	-11.792287	-178.334555
51692	2.676611	-0.062833	12.787907	-0.004979	-0.075806	3.252265	1.000000	0.000005	0.000034	-0.000069	-0.622742	-11.793247	-178.341173
51693	2.670479	-0.028994	12.795508	0.003388	-0.109608	3.258092	1.000000	0.000004	0.000048	-0.000073	-0.623253	-11.792051	-178.346158
51694	2.654818	-0.048266	12.794120	0.017642	-0.090252	3.253736	1.000000	-0.000001	0.000057	-0.000072	-0.625104	-11.790333	-178.353127
51695	2.666416	0.000393	12.827116	0.014295	-0.139756	3.287883	1.000000	-0.000006	0.000044	-0.000073	-0.627068	-11.790913	-178.358052
51696	2.671791	-0.061245	12.788923	-0.000507	-0.078521	3.252250	1.000000	0.000004	0.000048	-0.000073	-0.628348	-11.790262	-178.365170
51697	2.655011	-0.051722	12.818525	0.022614	-0.087468	3.277697	1.000000	0.000012	0.000033	-0.000063	-0.626913	-11.792905	-178.365398
51698	2.659022	-0.084576	12.811379	0.016323	-0.054999	3.271872	1.000000	-0.000006	0.000055	-0.000090	-0.628950	-11.791467	-178.374527
51699	2.652710	-0.050953	12.819004	0.024915	-0.088638	3.277685	1.000000	-0.000003	0.000038	-0.000062	-0.629829	-11.792315	-178.378913
51700	2.674724	-0.068879	12.837210	0.006609	-0.071830	3.300193	1.000000	0.000004	0.000048	-0.000073	-0.631106	-11.791668	-178.386029
51701	2.669959	-0.063830	12.813760	0.006642	-0.076568	3.276213	1.000000	-0.000003	0.000038	-0.000062	-0.631391	-11.792421	-178.392653
51702	2.688252	-0.077198	12.808302	-0.012795	-0.064209	3.274749	1.000000	-0.000004	0.000052	-0.000066	-0.633775	-11.791251	-178.398963
51703	2.687459	-0.076752	12.808472	-0.011411	-0.064710	3.274748	1.000000	0.000011	0.000010	-0.000066	-0.633312	-11.796129	-178.402840
51704	2.697308	-0.051841	12.786637	-0.024582	-0.090018	3.255118	1.000000	0.000003	0.000051	-0.000060	-0.635051	-11.795086	-178.408470
51705	2.723144	-0.074394	12.828505	-0.041859	-0.068354	3.301624	1.000000	0.000005	0.000023	-0.000052	-0.634820	-11.796782	-178.412738
51706	2.770094	-0.048100	12.826407	-0.087572	-0.096224	3.308880	1.000000	0.000003	0.000062	-0.000077	-0.636136	-11.794524	-178.420357
51707	2.750807	-0.062714	12.801334	-0.074201	-0.081253	3.280552	1.000000	0.000000	0.000043	-0.000068	-0.637739	-11.795605	-178.426414
51708	2.767535	-0.047337	12.826962	-0.085081	-0.097679	3.308886	1.000000	-0.000004	0.000052	-0.000066	-0.640127	-11.794438	-178.432719
51709	2.744437	-0.057403	12.778237	-0.072775	-0.087152	3.256577	1.000000	0.000001	0.000065	-0.000065	-0.641733	-11.793350	-178.435613
51710	2.728483	-0.076819	12.776910	-0.058534	-0.067789	3.252225	1.000000	-0.000006	0.000066	-0.000070	-0.644168	-11.790577	-178.442420
51711	2.710860	-0.067718	12.806662	-0.035649	-0.077094	3.277642	1.000000	-0.000010	0.000076	-0.000069	-0.646664	-11.787069	-178.445698
51712	2.645453	-0.084374	12.838655	0.033977	-0.059386	3.295781	1.000000	0.000004	0.000048	-0.000073	-0.647952	-11.786426	-178.452803
51713	2.645747	-0.112595	12.807863	0.026910	-0.031161	3.266009	1.000000	0.000003	0.000051	-0.000060	-0.648896	-11.787159	-178.455238
51714	2.605409	-0.085124	12.819503	0.069120	-0.058117	3.268861	1.000000	-0.000008	0.000058	-0.000077	-0.651409	-11.785333	-178.462870
51715	2.575595	-0.124322	12.816373	0.096238	-0.018280	3.260146	1.000000	0.000000	0.000043	-0.000068	-0.651600	-11.784203	-178.472896
51716	2.603215	-0.084214	12.819955	0.071089	-0.059267	3.268845	1.000000	0.000020	0.000028	-0.000070	-0.651091	-11.785814	-178.479619
51717	2.622031	-0.097038	12.814425	0.051447	-0.046750	3.267416	1.000000	0.000010	0.000025	-0.000070	-0.650969	-11.787014	-178.492029
51718	2.669539	-0.070356	12.812255	0.005745	-0.074634	3.274698	1.000000	0.000022	0.000014	-0.000066	-0.650418	-11.790231	-178.498244
51719	2.668871	-0.069593	12.812399	0.007097	-0.075025	3.274696	1.000000	0.000009	0.000039	-0.000074	-0.649538	-11.791733	-178.501135
51720	2.721276	-0.076244	12.802939	-0.046025	-0.069695	3.276217	1.000000	0.000015	0.000026	-0.000089	-0.649214	-11.793614	-178.510019
51721	2.727470	-0.046553	12.757431	-0.060047	-0.099115	3.232614	1.000000	-0.000002	0.000035	-0.000075	-0.649737	-11.795937	-178.509232
51722	2.733828	-0.055307	12.805004	-0.056590	-0.091018	3.280575	1.000000	0.000016	0.000038	-0.000069	-0.649804	-11.796482	-178.515801
51723	2.729159	-0.049887	12.781540	-0.057014	-0.096001	3.256593	1.000000	0.000012	0.000044	-0.000080	-0.649082	-11.794833	-178.526889
51724	2.727877	-0.049328	12.781816	-0.055908	-0.096755	3.256593	1.000000	-0.000001	0.000057	-0.000072	-0.650951	-11.793118	-178.533836
51725	2.729992	-0.053558	12.805830	-0.053416	-0.092604	3.280577	1.000000	0.000003	0.000062	-0.000077	-0.650106	-11.791753	-178.534166
51726	2.641363	-0.051956	12.819739	0.035598	-0.092396	3.276064	1.000000	-0.000001	0.000068	-0.000089	-0.651555	-11.788824	-178.543104
51727	2.643268	-0.056093	12.843786	0.038120	-0.088802	3.300036	1.000000	0.000006	0.000067	-0.000083	-0.652709	-11.787003	-178.550934
51728	2.604326	-0.057369	12.824364	0.071717	-0.086946	3.273084	1.000000	-0.000013	0.000057	-0.000059	-0.656225	-11.785319	-178.556415
51729	2.620974	-0.041626	12.850009	0.060901	-0.103107	3.301413	1.000000	0.000034	0.000037	-0.000075	-0.652669	-11.785971	-178.561158
51730	2.635798	-0.049747	12.820893	0.040263	-0.095184	3.276030	1.000000	-0.000001	0.000047	-0.000055	-0.654961	-11.785474	-178.566107
51731	2.583220	-0.070654	12.799633	0.087298	-0.073333	3.244710	1.000000	0.000012	0.000033	-0.000063	-0.656251	-11.788011	-178.570826
51732	2.649895	-0.057670	12.791933	0.021063	-0.088157	3.250643	1.000000	0.000002	0.000029	-0.000063	-0.658042	-11.789526	-178.576748
51733	2.633376	-0.048344	12.821396	0.044190	-0.097268	3.276002	1.000000	0.000006	0.000020	-0.000065	-0.657844	-11.793247	-178.577137
51734	2.696605	-0.030680	12.789976	-0.023238	-0.116515	3.257967	1.000000	0.000009	0.000028	-0.000058	-0.658988	-11.794887	-178.582378
51735	2.719037	-0.048495	12.808181	-0.041569	-0.099754	3.280568	1.000000	-0.000011	0.000028	-0.000088	-0.661530	-11.796221	-178.593103
51736	2.718429	-0.048134	12.808311	-0.040458	-0.100513	3.280566	1.000000	0.000006	0.000020	-0.000065	-0.662747	-11.798802	-178.599169
51737	2.762303	-0.016721	12.782504	-0.087376	-0.132545	3.263926	1.000000	0.000022	0.000014	-0.000066	-0.660816	-11.801822	-178.603268
51738	2.729623	-0.051062	12.755528	-0.061263	-0.097445	3.231227	1.000000	-0.000003	0.000038	-0.000062	-0.663188	-11.802270	-178.609035
51739	2.769352	-0.053843	12.799261	-0.091578	-0.096515	3.282181	1.000000	-0.000008	0.000059	-0.000078	-0.666079	-11.799698	-178.619656
51740	2.753853	-0.073402	12.797828	-0.077363	-0.077143	3.277826	1.000000	-0.000007	0.000044	-0.000073	-0.668572	-11.799473	-178.626755
51741	2.731195	-0.083730	12.748990	-0.065690	-0.066595	3.225504	1.000000	-0.000011	0.000054	-0.000072	-0.671764	-11.797705	-178.639828
51742	2.703304	-0.099004	12.800585	-0.028488	-0.051515	3.270476	1.000000	0.000006	0.000056	-0.000066	-0.673015	-11.796109	-178.646073
51743	2.660697	-0.095790	12.757451	0.004145	-0.053728	3.219509	1.000000	-0.000023	0.000075	-0.000093	-0.675571	-11.793716	-178.653220
51744	2.680517	-0.084990	12.806896	-0.005417	-0.065825	3.271831	1.000000	0.000016	0.000049	-0.000049	-0.676062	-11.792915	-178.657445
51745	2.625938	-0.077405	12.816688	0.050085	-0.072369	3.270175	1.000000	-0.000011	0.000054	-0.000072	-0.677994	-11.792341	-178.660544
51746	2.651356	-0.099962	12.858736	0.033075	-0.051250	3.316785	1.000000	0.000002	0.000051	-0.000060	-0.679779	-11.791296	-178.666128
51747	2.639403	-0.085528	12.787888	0.030668	-0.065397	3.244825	1.000000	0.000009	0.000039	-0.000075	-0.681450	-11.792379	-178.673439
51748	2.647535	-0.122980	12.804419	0.025536	-0.028542	3.263101	1.000000	0.000002	0.000029	-0.000063	-0.683264	-11.793891	-178.679338
51749	2.678546	-0.087630	12.831770	0.001889	-0.065155	3.295797	1.000000	0.000000	0.000043	-0.000068	-0.685013	-11.794734	-178.686512
51750	2.693431	-0.095777	12.802690	-0.018797	-0.057222	3.270469	1.000000	0.000026	0.000042	-0.000069	-0.683943	-11.794848	-178.693016
51751	2.692344	-0.095149	12.802924	-0.017616	-0.057773	3.270469	1.000000	-0.000007	0.000044	-0.000073	-0.685513	-11.794970	-178.702083
51752	2.701729	-0.070332	12.781209	-0.030840	-0.083062	3.250840	1.000000	0.000004	0.000048	-0.000073	-0.686849	-11.794321	-178.709142
51753	2.718279	-0.054518	12.806898	-0.041473	-0.099282	3.279183	1.000000	0.000017	0.000046	-0.000062	-0.685579	-11.794461	-178.714276
51754	2.720625	-0.058388	12.830864	-0.039122	-0.095663	3.303166	1.000000	0.000014	0.000052	-0.000073	-0.685738	-11.793386	-178.721310
51755	2.688957	-0.030241	12.765654	-0.021157	-0.122672	3.232535	1.000000	0.000014	0.000052	-0.000073	-0.685923	-11.792369	-178.729589
51756	2.696585	-0.067620	12.782310	-0.026279	-0.085828	3.250832	1.000000	-0.000001	0.000058	-0.000072	-0.687845	-11.790653	-178.736496
51757	2.663198	-0.049469	12.841204	0.018432	-0.103668	3.301446	1.000000	0.000007	0.000053	-0.000079	-0.687153	-11.789337	-178.739158
51758	2.658353	-0.044493	12.817766	0.018297	-0.108816	3.277453	1.000000	-0.000013	0.000046	-0.000079	-0.690320	-11.788989	-178.746916
51759	2.646363	-0.068626	12.840024	0.033826	-0.084872	3.297073	1.000000	0.000006	0.000067	-0.000083	-0.690343	-11.786530	-178.754872
51760	2.621847	-0.050113	12.822195	0.054256	-0.103101	3.274394	1.000000	-0.000003	0.000039	-0.000062	-0.692749	-11.786975	-178.760607
51761	2.663567	-0.081105	12.834931	0.015518	-0.073140	3.295746	1.000000	0.000019	0.000043	-0.000074	-0.691529	-11.787143	-178.766798
51762	2.635769	-0.057708	12.793337	0.034689	-0.095742	3.249078	1.000000	0.000002	0.000040	-0.000080	-0.692942	-11.787432	-178.774674
51763	2.654363	-0.070805	12.787958	0.015181	-0.083253	3.247763	1.000000	-0.000003	0.000039	-0.000062	-0.694582	-11.787695	-178.780362
51764	2.671206	-0.055027	12.813588	0.004460	-0.099790	3.276103	1.000000	0.000020	0.000029	-0.000070	-0.694123	-11.789291	-178.787019
51765	2.682917	-0.058577	12.760755	-0.017286	-0.095873	3.226824	1.000000	0.000002	0.000029	-0.000063	-0.694416	-11.791821	-178.784584
51766	2.723108	-0.060859	12.804471	-0.047311	-0.094964	3.277852	1.000000	0.000017	0.000024	-0.000065	-0.694486	-11.793968	-178.790581
51767	2.702668	-0.046768	12.810232	-0.025532	-0.109008	3.279147	1.000000	0.000007	0.000042	-0.000062	-0.696611	-11.794378	-178.795599
51768	2.698065	-0.041755	12.786747	-0.025688	-0.114145	3.255156	1.000000	-0.000003	0.000039	-0.000062	-0.699027	-11.794823	-178.801321
51769	2.740131	-0.072731	12.799449	-0.064242	-0.084047	3.276557	1.000000	0.000020	0.000018	-0.000053	-0.697424	-11.798580	-178.797690
51770	2.713881	-0.025428	12.812598	-0.035053	-0.131117	3.283497	1.000000	-0.000002	0.000072	-0.000076	-0.699409	-11.795247	-178.805088
51771	2.717967	-0.058486	12.805574	-0.041056	-0.098187	3.277850	1.000000	-0.000010	0.000040	-0.000068	-0.700353	-11.797241	-178.802117
51772	2.683097	-0.064664	12.809639	-0.006292	-0.091874	3.274771	1.000000	0.000002	0.000052	-0.000061	-0.702169	-11.796199	-178.807662
51773	2.681825	-0.064229	12.809908	-0.005081	-0.092411	3.274767	1.000000	0.000004	0.000048	-0.000073	-0.702500	-11.796019	-178.817145
51774	2.683920	-0.068499	12.833922	-0.002691	-0.088818	3.298750	1.000000	-0.000006	0.000067	-0.000071	-0.705016	-11.793239	-178.823881
51775	2.684498	-0.096789	12.803185	-0.010520	-0.060353	3.269121	1.000000	0.000007	0.000042	-0.000062	-0.704583	-11.792636	-178.831743
51776	2.663894	-0.082936	12.808958	0.011170	-0.074193	3.270393	1.000000	-0.000002	0.000035	-0.000075	-0.706532	-11.793476	-178.838942
51777	2.648780	-0.102240	12.807416	0.025268	-0.054547	3.266027	1.000000	0.000017	0.000046	-0.000062	-0.705428	-11.792715	-178.842297
51778	2.695338	-0.075436	12.805637	-0.020341	-0.082556	3.273475	1.000000	-0.000010	0.000051	-0.000085	-0.708075	-11.791815	-178.850687
51779	2.676632	-0.090335	12.780395	-0.007263	-0.067319	3.245123	1.000000	0.000005	0.000034	-0.000069	-0.708471	-11.793604	-178.853916
51780	2.696893	-0.079332	12.829770	-0.016641	-0.079534	3.297458	1.000000	-0.000003	0.000039	-0.000062	-0.710887	-11.794051	-178.859623
51781	2.692352	-0.074276	12.806272	-0.016848	-0.084217	3.273469	1.000000	0.000008	0.000039	-0.000075	-0.709679	-11.794349	-178.863087
51782	2.726782	-0.095915	12.771732	-0.058201	-0.063207	3.246956	1.000000	0.000002	0.000063	-0.000077	-0.711085	-11.792076	-178.870619
51783	2.723428	-0.066758	12.803046	-0.048418	-0.092397	3.276569	1.000000	0.000007	0.000042	-0.000062	-0.710292	-11.791510	-178.877656
51784	2.722469	-0.066176	12.803253	-0.047307	-0.093166	3.276568	1.000000	0.000012	0.000033	-0.000063	-0.710946	-11.792587	-178.883481
51785	2.701818	-0.052067	12.809018	-0.025798	-0.106718	3.277822	1.000000	0.000017	0.000046	-0.000062	-0.709731	-11.791411	-178.893743
51786	2.720077	-0.064833	12.803768	-0.045273	-0.094420	3.276566	1.000000	0.000002	0.000063	-0.000077	-0.711138	-11.789130	-178.901272
51787	2.665255	-0.057396	12.813398	0.010055	-0.101253	3.274699	1.000000	0.000007	0.000053	-0.000079	-0.712366	-11.787856	-178.909549
51788	2.663959	-0.056855	12.813670	0.011164	-0.102023	3.274692	1.000000	0.000004	0.000048	-0.000073	-0.713725	-11.787190	-178.916563
51789	2.659067	-0.051824	12.790241	0.010876	-0.107182	3.250696	1.000000	-0.000001	0.000058	-0.000072	-0.715859	-11.785130	-178.931792
51790	2.647287	-0.075900	12.812444	0.026355	-0.083450	3.270315	1.000000	0.000007	0.000042	-0.000062	-0.717107	-11.785133	-178.937462
51791	2.660053	-0.055578	12.814487	0.014281	-0.104357	3.274671	1.000000	-0.000001	0.000058	-0.000072	-0.718941	-11.782911	-178.948812
51792	2.641490	-0.070433	12.789204	0.027138	-0.089310	3.246312	1.000000	0.000006	0.000020	-0.000065	-0.720204	-11.785472	-178.954795
51793	2.642060	-0.045893	12.844121	0.038657	-0.114401	3.299881	1.000000	0.000004	0.000049	-0.000073	-0.720565	-11.785929	-178.958652
51794	2.673253	-0.062999	12.785858	-0.004039	-0.097712	3.249428	1.000000	-0.000002	0.000035	-0.000075	-0.722529	-11.786754	-178.965827
51795	2.679432	-0.071796	12.833472	-0.000218	-0.089691	3.297403	1.000000	0.000005	0.000034	-0.000069	-0.723315	-11.788019	-178.969868
51796	2.655304	-0.053449	12.815481	0.020156	-0.107868	3.274635	1.000000	-0.000003	0.000039	-0.000062	-0.725747	-11.788452	-178.975553
51797	2.707739	-0.059899	12.806407	-0.033148	-0.102556	3.276541	1.000000	0.000005	0.000034	-0.000069	-0.726553	-11.788632	-178.985422
51798	2.706930	-0.059458	12.806581	-0.032040	-0.103331	3.276538	1.000000	0.000001	0.000029	-0.000064	-0.728404	-11.790127	-178.991249
51799	2.706182	-0.059076	12.806740	-0.030739	-0.103548	3.276539	1.000000	0.000001	0.000029	-0.000064	-0.727753	-11.792458	-178.990546
51800	2.705304	-0.058392	12.806929	-0.029631	-0.104322	3.276535	1.000000	0.000020	0.000040	-0.000087	-0.726901	-11.792809	-178.999148
51801	2.704111	-0.057852	12.807183	-0.028507	-0.104965	3.276533	1.000000	-0.000012	0.000054	-0.000072	-0.729447	-11.791578	-179.005378
51802	2.712066	-0.095492	12.823858	-0.033603	-0.068182	3.294943	1.000000	0.000000	0.000044	-0.000068	-0.731352	-11.791455	-179.011713
51803	2.701757	-0.057253	12.807683	-0.026473	-0.106448	3.276525	1.000000	0.000000	0.000044	-0.000068	-0.732965	-11.790588	-179.024396
51804	2.663436	-0.058856	12.787927	0.006938	-0.104450	3.249375	1.000000	0.000000	0.000044	-0.000068	-0.734873	-11.790462	-179.030727
51805	2.699534	-0.056517	12.808155	-0.024117	-0.107788	3.276519	1.000000	0.000000	0.000044	-0.000068	-0.735830	-11.790918	-179.030429
51806	2.684203	-0.076132	12.806645	-0.009961	-0.088396	3.272151	1.000000	-0.000003	0.000061	-0.000059	-0.738261	-11.788783	-179.035783
51807	2.663232	-0.062366	12.812423	0.011851	-0.101829	3.273350	1.000000	0.000008	0.000039	-0.000075	-0.737259	-11.789662	-179.038743
51808	2.684143	-0.104019	12.776103	-0.016526	-0.060635	3.242591	1.000000	-0.000016	0.000038	-0.000087	-0.740524	-11.790238	-179.047264
51809	2.684689	-0.079733	12.831002	-0.005146	-0.085587	3.296133	1.000000	0.000005	0.000024	-0.000052	-0.740419	-11.792579	-179.051029
51810	2.710358	-0.063492	12.780071	-0.040372	-0.102113	3.251318	1.000000	0.000000	0.000055	-0.000085	-0.741917	-11.791224	-179.059352
51811	2.698835	-0.087534	12.802216	-0.025132	-0.078175	3.270943	1.000000	0.000008	0.000028	-0.000058	-0.742107	-11.791737	-179.067892
51812	2.711887	-0.067226	12.804213	-0.037070	-0.099121	3.275304	1.000000	-0.000007	0.000045	-0.000074	-0.744663	-11.791484	-179.074897
51813	2.696738	-0.086735	12.802664	-0.022622	-0.079490	3.270939	1.000000	0.000010	0.000048	-0.000068	-0.744348	-11.792192	-179.072200
51814	2.718904	-0.104160	12.821110	-0.040756	-0.062896	3.293744	1.000000	-0.000002	0.000036	-0.000075	-0.746320	-11.793007	-179.079344
51815	2.724778	-0.074323	12.775710	-0.055420	-0.092056	3.250128	1.000000	0.000027	0.000050	-0.000061	-0.743363	-11.792092	-179.086082
51816	2.707313	-0.064848	12.805193	-0.032359	-0.101574	3.275298	1.000000	0.000003	0.000049	-0.000073	-0.744744	-11.791407	-179.093054
51817	2.691945	-0.084242	12.803689	-0.018142	-0.081933	3.270931	1.000000	0.000009	0.000062	-0.000072	-0.744458	-11.789556	-179.098705
51818	2.670872	-0.070519	12.809464	0.003561	-0.095764	3.272102	1.000000	-0.000007	0.000045	-0.000074	-0.747015	-11.789303	-179.105700
51819	2.692919	-0.087997	12.827946	-0.014528	-0.078850	3.294918	1.000000	0.000010	0.000048	-0.000068	-0.746295	-11.788918	-179.111908
51820	2.696384	-0.029644	12.813585	-0.020259	-0.137342	3.280824	1.000000	0.000003	0.000049	-0.000073	-0.747678	-11.788231	-179.118874
51821	2.667265	-0.068922	12.810224	0.007271	-0.097429	3.272088	1.000000	0.000017	0.000046	-0.000062	-0.746293	-11.789313	-179.117501
51822	2.646270	-0.055128	12.815970	0.028978	-0.111255	3.273246	1.000000	-0.000005	0.000053	-0.000066	-0.748789	-11.788117	-179.123662
51823	2.664461	-0.068016	12.810813	0.009838	-0.098646	3.272077	1.000000	0.000005	0.000068	-0.000083	-0.748236	-11.786772	-179.124647
51824	2.662979	-0.067486	12.811124	0.010945	-0.099421	3.272071	1.000000	0.000003	0.000049	-0.000073	-0.749620	-11.786090	-179.131606
51825	2.695543	-0.060450	12.807698	-0.021534	-0.107102	3.275276	1.000000	-0.000003	0.000039	-0.000062	-0.751032	-11.786694	-179.135152
51826	2.677257	-0.075253	12.782343	-0.008782	-0.091997	3.246912	1.000000	0.000020	0.000029	-0.000070	-0.750598	-11.788261	-179.141710
51827	2.674069	-0.045848	12.813538	0.001327	-0.121389	3.276422	1.000000	0.000008	0.000039	-0.000075	-0.750006	-11.788817	-179.146058
51828	2.673128	-0.045296	12.813737	0.002435	-0.122165	3.276414	1.000000	0.000005	0.000035	-0.000069	-0.751332	-11.789752	-179.152496
51829	2.691827	-0.058013	12.808491	-0.016800	-0.109759	3.275261	1.000000	0.000010	0.000048	-0.000068	-0.751457	-11.790266	-179.149133
51830	2.693249	-0.086225	12.777678	-0.024669	-0.081606	3.245751	1.000000	-0.000002	0.000025	-0.000058	-0.753839	-11.792312	-179.154248
51831	2.689855	-0.057264	12.808908	-0.014688	-0.111084	3.275253	1.000000	-0.000001	0.000058	-0.000072	-0.754783	-11.790127	-179.162755
51832	2.718884	-0.045477	12.781788	-0.048595	-0.123303	3.254483	1.000000	0.000012	0.000033	-0.000063	-0.755465	-11.791182	-179.168498
51833	2.687575	-0.056406	12.809391	-0.012567	-0.112494	3.275243	1.000000	-0.000012	0.000054	-0.000072	-0.757965	-11.789454	-179.174892
51834	2.686522	-0.056102	12.809613	-0.011459	-0.113272	3.275237	1.000000	0.000008	0.000029	-0.000058	-0.759176	-11.791061	-179.179973
51835	2.691449	-0.088899	12.802528	-0.018071	-0.080355	3.269734	1.000000	-0.000000	0.000044	-0.000068	-0.758998	-11.790403	-179.184883
51836	2.690457	-0.088470	12.802740	-0.016965	-0.081132	3.269730	1.000000	0.000005	0.000035	-0.000069	-0.760327	-11.791331	-179.191306
51837	2.669881	-0.074779	12.808367	0.004939	-0.094592	3.270857	1.000000	0.000001	0.000030	-0.000064	-0.760606	-11.793642	-179.194335
51838	2.668900	-0.074280	12.808574	0.006046	-0.095368	3.270851	1.000000	0.000010	0.000048	-0.000068	-0.761347	-11.793072	-179.200585
51839	2.697754	-0.062476	12.781507	-0.027825	-0.107426	3.250099	1.000000	-0.000002	0.000058	-0.000072	-0.762597	-11.791508	-179.204540
51840	2.686331	-0.086617	12.803619	-0.012307	-0.083723	3.269719	1.000000	0.000006	0.000020	-0.000065	-0.763866	-11.794057	-179.210439
51841	2.665683	-0.072878	12.809252	0.009136	-0.097069	3.270837	1.000000	0.000003	0.000049	-0.000073	-0.763150	-11.792203	-179.220917
51842	2.684337	-0.085577	12.804044	-0.010371	-0.084810	3.269714	1.000000	0.000008	0.000040	-0.000075	-0.763951	-11.792571	-179.227990
51843	2.717065	-0.078268	12.800632	-0.042560	-0.092411	3.272968	1.000000	0.000005	0.000035	-0.000069	-0.763772	-11.794888	-179.227267
51844	2.710189	-0.044530	12.808116	-0.033841	-0.126417	3.278448	1.000000	0.000007	0.000043	-0.000062	-0.765040	-11.794869	-179.232848
51845	2.691662	-0.059527	12.782805	-0.021219	-0.111105	3.250080	1.000000	-0.000004	0.000050	-0.000079	-0.766302	-11.793773	-179.243304
51846	2.713772	-0.076861	12.801339	-0.039312	-0.094570	3.272963	1.000000	0.000008	0.000040	-0.000075	-0.767105	-11.794141	-179.250369
51847	2.692745	-0.063151	12.807040	-0.017611	-0.108207	3.274066	1.000000	-0.000002	0.000058	-0.000072	-0.768310	-11.792306	-179.257818
51848	2.688051	-0.058278	12.783571	-0.017926	-0.113262	3.250067	1.000000	-0.000004	0.000039	-0.000062	-0.770756	-11.792719	-179.263419
51849	2.676592	-0.082302	12.805687	-0.002121	-0.089454	3.269687	1.000000	0.000018	0.000043	-0.000075	-0.769903	-11.793830	-179.264316
51850	2.685834	-0.057044	12.784042	-0.015438	-0.114706	3.250057	1.000000	0.000003	0.000049	-0.000073	-0.771298	-11.793132	-179.271230
51851	2.688164	-0.061073	12.808012	-0.012854	-0.111040	3.274048	1.000000	0.000008	0.000040	-0.000075	-0.771343	-11.793708	-179.275021
51852	2.670650	-0.051940	12.837418	0.010301	-0.120574	3.299129	1.000000	0.000002	0.000052	-0.000061	-0.773208	-11.792621	-179.280443
51853	2.668403	-0.075597	12.782957	0.000966	-0.096578	3.245672	1.000000	0.000003	0.000049	-0.000073	-0.774210	-11.792102	-179.284926
51854	2.667944	-0.050975	12.837984	0.012563	-0.122045	3.299113	1.000000	0.000009	0.000062	-0.000072	-0.775026	-11.789900	-179.291662
51855	2.663284	-0.045966	12.814505	0.012450	-0.126988	3.275110	1.000000	-0.000000	0.000033	-0.000051	-0.776902	-11.791850	-179.287872
51856	2.682411	-0.058783	12.809229	-0.007066	-0.114746	3.274020	1.000000	0.000006	0.000021	-0.000065	-0.778180	-11.794395	-179.293736
51857	2.701340	-0.071492	12.803999	-0.026570	-0.102240	3.272938	1.000000	0.000003	0.000049	-0.000073	-0.778397	-11.793748	-179.298730
51858	2.646705	-0.064626	12.813231	0.028770	-0.108854	3.270716	1.000000	0.000007	0.000043	-0.000062	-0.779680	-11.793725	-179.304280
51859	2.679256	-0.057368	12.809896	-0.003562	-0.116309	3.274008	1.000000	-0.000000	0.000044	-0.000068	-0.779323	-11.794317	-179.306518
51860	2.678213	-0.056995	12.810116	-0.002455	-0.117089	3.274001	1.000000	0.000003	0.000038	-0.000057	-0.781129	-11.794852	-179.311405
51861	2.683152	-0.089842	12.803076	-0.008941	-0.084156	3.268557	1.000000	-0.000000	0.000044	-0.000068	-0.780881	-11.794921	-179.311706
51862	2.672493	-0.051761	12.786860	-0.001633	-0.122423	3.249996	1.000000	-0.000005	0.000053	-0.000067	-0.783395	-11.793713	-179.317794
51863	2.677944	-0.060611	12.834630	0.002535	-0.114241	3.297985	1.000000	-0.000002	0.000058	-0.000072	-0.783425	-11.792654	-179.321106
51864	2.693333	-0.068802	12.805701	-0.018436	-0.106267	3.272920	1.000000	0.000006	0.000021	-0.000065	-0.784697	-11.795198	-179.326955
51865	2.669386	-0.050483	12.787514	0.002007	-0.124108	3.249980	1.000000	0.000012	0.000034	-0.000063	-0.784458	-11.796912	-179.328440
51866	2.688062	-0.063100	12.782357	-0.017518	-0.111875	3.248916	1.000000	0.000005	0.000057	-0.000066	-0.785801	-11.795266	-179.334492
51867	2.656541	-0.074177	12.809911	0.018880	-0.100911	3.269590	1.000000	-0.000007	0.000045	-0.000074	-0.787136	-11.795967	-179.332486
51868	2.692557	-0.071390	12.830332	-0.012156	-0.104645	3.296900	1.000000	0.000015	0.000039	-0.000069	-0.787300	-11.796452	-179.338815
51869	2.650988	-0.068654	12.786619	0.019815	-0.106436	3.245581	1.000000	-0.000007	0.000045	-0.000074	-0.788611	-11.796945	-179.339061
51870	2.689380	-0.094568	12.776101	-0.020352	-0.081205	3.243479	1.000000	0.000012	0.000056	-0.000060	-0.789309	-11.795420	-179.344416
51871	2.682498	-0.060719	12.783537	-0.011240	-0.114996	3.248895	1.000000	0.000011	0.000011	-0.000066	-0.789048	-11.800402	-179.338542
51872	2.691197	-0.097934	12.800187	-0.016349	-0.078301	3.267470	1.000000	0.000003	0.000049	-0.000074	-0.790450	-11.799704	-179.345407
51873	2.700266	-0.073042	12.778588	-0.029757	-0.103429	3.247845	1.000000	-0.000012	0.000054	-0.000072	-0.793062	-11.798021	-179.356162
51874	2.686204	-0.068703	12.831678	-0.005071	-0.108711	3.296871	1.000000	0.000008	0.000029	-0.000058	-0.794280	-11.799622	-179.361157
51875	2.701709	-0.076858	12.802750	-0.025898	-0.100450	3.271837	1.000000	-0.000000	0.000044	-0.000068	-0.794904	-11.800205	-179.360425
51876	2.734172	-0.069531	12.799484	-0.058385	-0.108461	3.275175	1.000000	0.000003	0.000049	-0.000074	-0.796309	-11.799506	-179.367282
51877	2.679385	-0.062865	12.808657	-0.002700	-0.114552	3.272862	1.000000	0.000002	0.000052	-0.000061	-0.796160	-11.799802	-179.358404
51878	2.684283	-0.095583	12.801656	-0.009290	-0.082111	3.267454	1.000000	0.000008	0.000040	-0.000075	-0.796973	-11.800169	-179.365396
51879	2.714246	-0.059313	12.829354	-0.032457	-0.118803	3.300200	1.000000	0.000020	0.000041	-0.000050	-0.795590	-11.800981	-179.367103
51880	2.695711	-0.074265	12.804029	-0.019882	-0.103594	3.271823	1.000000	-0.000005	0.000064	-0.000084	-0.797706	-11.798541	-179.375159
51881	2.677842	-0.065140	12.833444	0.003431	-0.112685	3.296838	1.000000	0.000017	0.000047	-0.000062	-0.795873	-11.798378	-179.375933
51882	2.689726	-0.068424	12.780836	-0.019076	-0.108960	3.247820	1.000000	0.000011	0.000045	-0.000080	-0.796160	-11.798185	-179.383577
51883	2.692069	-0.072493	12.804806	-0.016563	-0.105372	3.271813	1.000000	-0.000004	0.000039	-0.000062	-0.798041	-11.798260	-179.390367
51884	2.671210	-0.058866	12.810383	0.005195	-0.119138	3.272821	1.000000	0.000015	0.000039	-0.000069	-0.798209	-11.798743	-179.396659
51885	2.687263	-0.042730	12.836237	-0.005379	-0.135645	3.301189	1.000000	0.000003	0.000049	-0.000074	-0.798391	-11.797087	-179.409407
51886	2.669010	-0.057846	12.810846	0.007180	-0.120427	3.272808	1.000000	-0.000002	0.000036	-0.000075	-0.800378	-11.797886	-179.416412
51887	2.687561	-0.070508	12.805764	-0.012428	-0.107711	3.271799	1.000000	0.000005	0.000068	-0.000083	-0.799045	-11.794738	-179.427264
51888	2.663012	-0.052091	12.787648	0.007832	-0.125711	3.248799	1.000000	0.000025	0.000032	-0.000052	-0.798442	-11.796013	-179.431513
51889	2.685238	-0.069203	12.806258	-0.010023	-0.108833	3.271792	1.000000	-0.000011	0.000051	-0.000085	-0.799185	-11.795866	-179.433773
51890	2.680607	-0.064273	12.782774	-0.010415	-0.113844	3.247788	1.000000	0.000005	0.000046	-0.000086	-0.800120	-11.795543	-179.442092
51891	2.716508	-0.061302	12.803287	-0.041092	-0.117275	3.275165	1.000000	0.000007	0.000043	-0.000062	-0.799720	-11.796767	-179.438341
51892	2.678933	-0.039215	12.837989	0.002828	-0.139786	3.301146	1.000000	-0.000004	0.000050	-0.000079	-0.801771	-11.795941	-179.445856
51893	2.694346	-0.047364	12.809122	-0.018326	-0.131483	3.276152	1.000000	0.000005	0.000035	-0.000069	-0.801612	-11.796388	-179.450644
51894	2.709906	-0.055553	12.780227	-0.039380	-0.123512	3.251159	1.000000	-0.000004	0.000039	-0.000062	-0.804064	-11.796799	-179.456146
51895	2.678420	-0.066801	12.807698	-0.003287	-0.112464	3.271764	1.000000	-0.000002	0.000058	-0.000072	-0.804550	-11.794555	-179.461262
51896	2.680633	-0.070859	12.831693	-0.000669	-0.109018	3.295756	1.000000	0.000011	0.000034	-0.000063	-0.805239	-11.795587	-179.466870
51897	2.672960	-0.061190	12.784390	-0.002547	-0.118054	3.247755	1.000000	0.000010	0.000037	-0.000051	-0.805534	-11.796351	-179.464755
51898	2.701217	-0.111766	12.795820	-0.028320	-0.068415	3.265409	1.000000	-0.000014	0.000058	-0.000060	-0.809171	-11.794629	-179.469969
51899	2.663349	-0.090011	12.830551	0.015827	-0.090746	3.291361	1.000000	0.000000	0.000056	-0.000048	-0.810747	-11.794038	-179.470541
51900	2.658726	-0.085017	12.807063	0.015417	-0.095747	3.267355	1.000000	0.000013	0.000042	-0.000056	-0.811384	-11.794125	-179.475310
51901	2.674085	-0.092912	12.778227	-0.005583	-0.087462	3.242380	1.000000	0.000015	0.000050	-0.000049	-0.810573	-11.793585	-179.477935
51902	2.650281	-0.050609	12.814764	0.025448	-0.130212	3.272691	1.000000	0.000005	0.000035	-0.000069	-0.811911	-11.794498	-179.484217
51903	2.665824	-0.058659	12.785892	0.004498	-0.121789	3.247720	1.000000	0.000007	0.000043	-0.000062	-0.811183	-11.794990	-179.484466
51904	2.637728	-0.074338	12.837080	0.042233	-0.106850	3.292295	1.000000	0.000002	0.000052	-0.000061	-0.813058	-11.793892	-179.489776
51905	2.643481	-0.044630	12.791728	0.027598	-0.135993	3.248669	1.000000	0.000006	0.000043	-0.000099	-0.812119	-11.794863	-179.492116
51906	2.639767	-0.015336	12.822883	0.037990	-0.165774	3.277997	1.000000	0.000009	0.000026	-0.000071	-0.812862	-11.796841	-179.498527
51907	2.678926	-0.041002	12.812377	-0.002089	-0.140386	3.276072	1.000000	-0.000004	0.000028	-0.000082	-0.813838	-11.799155	-179.501230
51908	2.678264	-0.040800	12.812516	-0.000979	-0.141166	3.276064	1.000000	-0.000015	0.000024	-0.000083	-0.817045	-11.801337	-179.509044
51909	2.663843	-0.060661	12.810769	0.012811	-0.121264	3.271680	1.000000	-0.000001	0.000033	-0.000088	-0.816636	-11.801584	-179.522098
51910	2.716793	-0.066330	12.802154	-0.040321	-0.116374	3.274151	1.000000	-0.000010	0.000015	-0.000084	-0.819249	-11.804826	-179.530048
51911	2.742207	-0.112353	12.789774	-0.067697	-0.070557	3.267873	1.000000	-0.000007	0.000045	-0.000074	-0.819924	-11.804286	-179.530699
51912	2.754865	-0.091939	12.791900	-0.079493	-0.091596	3.272255	1.000000	-0.000002	0.000036	-0.000075	-0.821905	-11.805074	-179.537648
51913	2.763378	-0.129379	12.808670	-0.084720	-0.054790	3.290932	1.000000	-0.000011	0.000052	-0.000085	-0.823884	-11.803654	-179.547148
51914	2.728696	-0.135973	12.812314	-0.050042	-0.048273	3.287497	1.000000	0.000018	0.000033	-0.000058	-0.823927	-11.804796	-179.552022
51915	2.755042	-0.094932	12.816349	-0.074697	-0.089255	3.296261	1.000000	0.000017	0.000047	-0.000062	-0.822615	-11.804485	-179.556953
51916	2.722955	-0.129909	12.789084	-0.049338	-0.053722	3.263501	1.000000	0.000015	0.000061	-0.000066	-0.822800	-11.802373	-179.562867
51917	2.708943	-0.062723	12.803835	-0.032669	-0.120489	3.274135	1.000000	0.000026	0.000054	-0.000049	-0.820202	-11.801160	-179.566987
51918	2.693579	-0.082091	12.802289	-0.018665	-0.101009	3.269749	1.000000	0.000012	0.000079	-0.000058	-0.820928	-11.797036	-179.571931
51919	2.669005	-0.039640	12.838918	0.012508	-0.143388	3.299988	1.000000	0.000026	0.000054	-0.000049	-0.818669	-11.796001	-179.574095
51920	2.640717	-0.016587	12.797048	0.031178	-0.165524	3.252906	1.000000	0.000027	0.000073	-0.000059	-0.817632	-11.792497	-179.579144
51921	2.656315	-0.000204	12.823008	0.020957	-0.182293	3.281276	1.000000	0.000010	0.000037	-0.000051	-0.818468	-11.793123	-179.579454
51922	2.621407	-0.006833	12.826657	0.055632	-0.175762	3.277804	1.000000	0.000001	0.000064	-0.000078	-0.819949	-11.790768	-179.586736
51923	2.616795	-0.001846	12.803159	0.055095	-0.180312	3.253795	1.000000	0.000004	0.000035	-0.000069	-0.819379	-11.791301	-179.592654
51924	2.622451	-0.010556	12.850884	0.059327	-0.172699	3.301779	1.000000	-0.000007	0.000046	-0.000074	-0.821956	-11.791015	-179.599438
51925	2.638023	-0.018785	12.822052	0.038217	-0.164347	3.276853	1.000000	-0.000002	0.000036	-0.000075	-0.822271	-11.791876	-179.605386
51926	2.676831	-0.044564	12.811710	-0.002026	-0.139224	3.275014	1.000000	-0.000011	0.000052	-0.000085	-0.824973	-11.790908	-179.613518
51927	2.679111	-0.073062	12.780895	-0.010385	-0.110880	3.245714	1.000000	-0.000010	0.000004	-0.000067	-0.827540	-11.794955	-179.624677
51928	2.678580	-0.072977	12.781007	-0.009281	-0.111659	3.245708	1.000000	-0.000016	0.000039	-0.000087	-0.830818	-11.795493	-179.632972
51929	2.707523	-0.123343	12.792424	-0.035304	-0.061833	3.263510	1.000000	0.000007	0.000018	-0.000078	-0.830532	-11.797414	-179.650014
51930	2.700431	-0.089711	12.799793	-0.026418	-0.095834	3.268795	1.000000	-0.000006	0.000042	-0.000087	-0.832642	-11.797504	-179.658276
51931	2.728998	-0.140062	12.811298	-0.052205	-0.046137	3.286609	1.000000	-0.000000	0.000044	-0.000068	-0.834047	-11.797284	-179.663035
51932	2.734831	-0.110493	12.765948	-0.067147	-0.075558	3.242990	1.000000	-0.000000	0.000044	-0.000068	-0.835984	-11.797108	-179.669111
51933	2.716909	-0.101524	12.795262	-0.043755	-0.084858	3.267890	1.000000	0.000012	0.000056	-0.000061	-0.835570	-11.795690	-179.672491
51934	2.695518	-0.087758	12.800842	-0.021976	-0.098593	3.268783	1.000000	0.000025	0.000054	-0.000049	-0.834995	-11.794360	-179.676321
51935	2.700813	-0.095973	12.848655	-0.017934	-0.090766	3.316782	1.000000	0.000013	0.000053	-0.000073	-0.834147	-11.792194	-179.686666
51936	2.689818	-0.057454	12.832370	-0.010623	-0.128953	3.298049	1.000000	0.000029	0.000048	-0.000037	-0.833448	-11.791541	-179.689139
51937	2.687889	-0.080947	12.778002	-0.020531	-0.104427	3.244774	1.000000	-0.000002	0.000081	-0.000069	-0.833474	-11.786957	-179.695045
51938	2.649792	-0.058868	12.812598	0.023513	-0.126932	3.270541	1.000000	0.000025	0.000032	-0.000052	-0.832876	-11.788194	-179.699170
51939	2.645603	-0.029454	12.843788	0.033830	-0.156378	3.299802	1.000000	0.000012	0.000057	-0.000061	-0.831887	-11.785932	-179.709747
51940	2.667783	-0.008168	12.769475	-0.003406	-0.177007	3.231288	1.000000	0.000005	0.000058	-0.000067	-0.833253	-11.784236	-179.715638
51941	2.625979	-0.043966	12.818652	0.047591	-0.141708	3.271394	1.000000	0.000015	0.000039	-0.000069	-0.832821	-11.785763	-179.716501
51942	2.658451	-0.036158	12.815563	0.015136	-0.149812	3.274889	1.000000	0.000003	0.000050	-0.000074	-0.834240	-11.785014	-179.723214
51943	2.654327	-0.031243	12.791968	0.014609	-0.154453	3.250881	1.000000	-0.000003	0.000014	-0.000078	-0.834804	-11.788181	-179.727484
51944	2.673529	-0.044409	12.786881	-0.004968	-0.142286	3.250000	1.000000	-0.000047	0.000049	-0.000085	-0.841617	-11.787467	-179.735531
51945	2.672345	-0.106851	12.825414	0.004378	-0.080834	3.288364	1.000000	0.000004	0.000002	-0.000092	-0.840733	-11.792115	-179.746876
51946	2.722030	-0.107564	12.793216	-0.050361	-0.080166	3.267008	1.000000	-0.000003	0.000048	-0.000092	-0.842326	-11.791626	-179.755762
51947	2.717779	-0.102594	12.769655	-0.050653	-0.084859	3.243008	1.000000	0.000002	0.000027	-0.000077	-0.842520	-11.794325	-179.752767
51948	2.753962	-0.099252	12.790269	-0.081499	-0.088808	3.270531	1.000000	0.000013	0.000031	-0.000076	-0.842746	-11.795701	-179.759738
51949	2.719414	-0.105945	12.793786	-0.046869	-0.081877	3.267010	1.000000	-0.000001	0.000045	-0.000068	-0.842963	-11.795374	-179.760877
51950	2.738127	-0.118546	12.788821	-0.066453	-0.069720	3.266153	1.000000	-0.000002	0.000059	-0.000072	-0.844978	-11.793555	-179.767434
51951	2.736539	-0.117945	12.789166	-0.065102	-0.070045	3.266158	1.000000	0.000018	0.000067	-0.000072	-0.842553	-11.791885	-179.763077
51952	2.708836	-0.070817	12.801860	-0.035486	-0.116981	3.272246	1.000000	0.000039	0.000030	-0.000040	-0.840660	-11.793351	-179.765778
51953	2.707688	-0.069769	12.802109	-0.034159	-0.117439	3.272246	1.000000	0.000022	0.000061	-0.000060	-0.838730	-11.792210	-179.760054
51954	2.702927	-0.040365	12.833397	-0.023601	-0.147275	3.301475	1.000000	0.000013	0.000065	-0.000053	-0.839401	-11.789682	-179.764385
51955	2.674756	-0.017720	12.791420	-0.004740	-0.168988	3.254312	1.000000	0.000018	0.000056	-0.000055	-0.838028	-11.789395	-179.756321
51956	2.656532	-0.008718	12.820729	0.018681	-0.178533	3.279146	1.000000	0.000003	0.000061	-0.000054	-0.839867	-11.787316	-179.760678
51957	2.658307	-0.012797	12.844812	0.021450	-0.174711	3.303142	1.000000	0.000005	0.000058	-0.000067	-0.839262	-11.785720	-179.761572
51958	2.636581	-0.023531	12.795654	0.032153	-0.163518	3.250739	1.000000	0.000007	0.000066	-0.000059	-0.840580	-11.783074	-179.766585
51959	2.638643	-0.027608	12.819677	0.034931	-0.159819	3.274733	1.000000	0.000001	0.000030	-0.000064	-0.841017	-11.784667	-179.767510
51960	2.640731	-0.056183	12.788965	0.026551	-0.131542	3.245500	1.000000	-0.000026	0.000057	-0.000085	-0.845491	-11.783059	-179.775454
51961	2.642770	-0.060314	12.812994	0.029467	-0.127766	3.269495	1.000000	0.000019	0.000041	-0.000088	-0.842908	-11.783996	-179.772647
51962	2.645056	-0.088439	12.782248	0.021074	-0.099488	3.240269	1.000000	-0.000013	0.000033	-0.000076	-0.846060	-11.785201	-179.779503
51963	2.667459	-0.105592	12.800997	0.002949	-0.082882	3.263441	1.000000	0.000001	0.000042	-0.000081	-0.846100	-11.784740	-179.793006
51964	2.680065	-0.084845	12.803151	-0.008786	-0.103960	3.267823	1.000000	0.000006	0.000032	-0.000082	-0.846966	-11.785992	-179.800623
51965	2.702670	-0.101648	12.821867	-0.026715	-0.087476	3.291001	1.000000	0.000009	0.000026	-0.000071	-0.846810	-11.788044	-179.803331
51966	2.681838	-0.088186	12.827246	-0.004907	-0.101172	3.291816	1.000000	0.000004	0.000035	-0.000070	-0.848149	-11.788914	-179.809452
51967	2.697446	-0.096043	12.798513	-0.026029	-0.092922	3.266994	1.000000	0.000011	0.000057	-0.000061	-0.847658	-11.787819	-179.810050
51968	2.699445	-0.099795	12.822561	-0.023282	-0.089555	3.290994	1.000000	0.000018	0.000044	-0.000075	-0.847311	-11.787675	-179.816794
51969	2.725446	-0.058631	12.826704	-0.047949	-0.130755	3.299766	1.000000	0.000010	0.000037	-0.000051	-0.847634	-11.787799	-179.820693
51970	2.693986	-0.094166	12.799256	-0.022832	-0.095079	3.266985	1.000000	0.000001	0.000053	-0.000061	-0.849525	-11.786656	-179.825838
51971	2.682893	-0.056166	12.782915	-0.015484	-0.133074	3.248172	1.000000	0.000005	0.000047	-0.000050	-0.850650	-11.786277	-179.829738
51972	2.721887	-0.057289	12.827466	-0.044614	-0.132965	3.299755	1.000000	0.000013	0.000042	-0.000056	-0.851298	-11.786315	-179.834319
51973	2.683769	-0.059515	12.807196	-0.011760	-0.130312	3.272163	1.000000	0.000011	0.000057	-0.000061	-0.851202	-11.784099	-179.835279
51974	2.682427	-0.058901	12.807480	-0.010657	-0.131095	3.272156	1.000000	0.000010	0.000049	-0.000068	-0.851978	-11.783450	-179.841208
51975	2.670780	-0.083217	12.829586	0.005129	-0.107206	3.291768	1.000000	-0.000004	0.000062	-0.000060	-0.853471	-11.782047	-179.836691
51976	2.666218	-0.078502	12.806082	0.004575	-0.112128	3.267757	1.000000	-0.000004	0.000040	-0.000063	-0.855935	-11.782415	-179.841983
51977	2.692275	-0.037577	12.810218	-0.019766	-0.153056	3.276530	1.000000	0.000011	0.000034	-0.000064	-0.854498	-11.784136	-179.837999
51978	2.664136	-0.077544	12.806522	0.006967	-0.113213	3.267747	1.000000	-0.000001	0.000056	-0.000085	-0.856048	-11.782684	-179.845963
51979	2.686379	-0.094323	12.825346	-0.011050	-0.096887	3.290958	1.000000	0.000013	0.000031	-0.000076	-0.855933	-11.783752	-179.853819
51980	2.692440	-0.064431	12.779959	-0.026090	-0.126252	3.247333	1.000000	0.000008	0.000041	-0.000075	-0.856759	-11.784048	-179.860556
51981	2.677788	-0.060056	12.832923	-0.001031	-0.131273	3.296120	1.000000	-0.000001	0.000045	-0.000068	-0.856952	-11.783484	-179.870603
51982	2.696952	-0.096664	12.773253	-0.031882	-0.094213	3.242158	1.000000	0.000004	0.000035	-0.000070	-0.858296	-11.784344	-179.876674
51983	2.706116	-0.047221	12.806362	-0.033992	-0.143871	3.275717	1.000000	0.000008	0.000041	-0.000075	-0.856784	-11.784675	-179.876330
51984	2.711715	-0.079925	12.799428	-0.040798	-0.111445	3.270548	1.000000	-0.000004	0.000040	-0.000063	-0.859245	-11.785037	-179.881599
51985	2.704191	-0.046316	12.806771	-0.031577	-0.145149	3.275709	1.000000	0.000013	0.000031	-0.000076	-0.858153	-11.787195	-179.878257
51986	2.693082	-0.094548	12.774085	-0.027265	-0.096532	3.242152	1.000000	0.000010	0.000049	-0.000068	-0.858930	-11.786539	-179.884149
51987	2.671600	-0.056999	12.834227	0.005867	-0.134752	3.296084	1.000000	0.000003	0.000050	-0.000074	-0.858553	-11.785868	-179.885621
51988	2.707304	-0.077684	12.800375	-0.036153	-0.113890	3.270541	1.000000	0.000009	0.000049	-0.000068	-0.859330	-11.785211	-179.891507
51989	2.682579	-0.059887	12.782055	-0.015831	-0.131277	3.247300	1.000000	-0.000002	0.000059	-0.000073	-0.859515	-11.784034	-179.886181
51990	2.704511	-0.076867	12.800971	-0.033773	-0.115052	3.270537	1.000000	0.000001	0.000053	-0.000061	-0.861410	-11.782881	-179.891264
51991	2.659658	-0.046308	12.787809	0.007076	-0.145376	3.248048	1.000000	-0.000001	0.000056	-0.000085	-0.861435	-11.781317	-179.898802
51992	2.685039	-0.067772	12.830464	-0.009177	-0.125032	3.295291	1.000000	-0.000004	0.000040	-0.000063	-0.863895	-11.781678	-179.904046
51993	2.683898	-0.067424	12.830704	-0.008077	-0.125474	3.295288	1.000000	0.000003	0.000050	-0.000074	-0.863792	-11.780810	-179.903890
51994	2.666091	-0.082554	12.805176	0.004124	-0.110048	3.266887	1.000000	0.000021	0.000038	-0.000063	-0.863320	-11.781331	-179.909196
51995	2.668155	-0.086482	12.829205	0.006970	-0.106418	3.290886	1.000000	-0.000006	0.000054	-0.000067	-0.864561	-11.780245	-179.909763
51996	2.640356	-0.064302	12.787047	0.025419	-0.128310	3.243617	1.000000	0.000008	0.000041	-0.000075	-0.865383	-11.780530	-179.916451
51997	2.662633	-0.081135	12.805904	0.007663	-0.111793	3.266870	1.000000	-0.000001	0.000045	-0.000068	-0.865958	-11.781033	-179.913415
51998	2.675061	-0.060363	12.808107	-0.004012	-0.132908	3.271254	1.000000	0.000011	0.000034	-0.000064	-0.866652	-11.782004	-179.918739
51999	2.677339	-0.064224	12.832091	-0.001024	-0.129144	3.295255	1.000000	0.000008	0.000041	-0.000075	-0.865552	-11.783034	-179.918484
52000	2.673194	-0.059088	12.808502	-0.001619	-0.134042	3.271242	1.000000	0.000013	0.000031	-0.000076	-0.865772	-11.784383	-179.925293
52001	2.672419	-0.058723	12.808666	-0.000642	-0.134555	3.271237	1.000000	-0.000011	0.000030	-0.000052	-0.868069	-11.785342	-179.930790
52002	2.674635	-0.062965	12.832661	0.002166	-0.131223	3.295234	1.000000	0.000003	0.000050	-0.000074	-0.869492	-11.784560	-179.937327
52003	2.693685	-0.075303	12.827750	-0.017531	-0.118925	3.294499	1.000000	0.000004	0.000036	-0.000070	-0.869852	-11.785074	-179.937308
52004	2.702733	-0.050185	12.806204	-0.030902	-0.144159	3.274879	1.000000	-0.000006	0.000054	-0.000067	-0.872396	-11.783795	-179.943041
52005	2.694908	-0.103243	12.797315	-0.024773	-0.091081	3.265369	1.000000	0.000004	0.000036	-0.000070	-0.872291	-11.785563	-179.935134
52006	2.690250	-0.074077	12.828478	-0.013979	-0.120954	3.294484	1.000000	0.000006	0.000055	-0.000080	-0.873198	-11.784209	-179.942317
52007	2.669313	-0.084974	12.779141	-0.003204	-0.109151	3.242080	1.000000	0.000001	0.000031	-0.000064	-0.873015	-11.786964	-179.931288
52008	2.704872	-0.081599	12.800050	-0.033890	-0.113325	3.269754	1.000000	-0.000006	0.000065	-0.000084	-0.875169	-11.784430	-179.939025
52009	2.670052	-0.088653	12.803449	0.000666	-0.106191	3.266076	1.000000	0.000011	0.000035	-0.000064	-0.874016	-11.785155	-179.940106
52010	2.682497	-0.067733	12.805653	-0.010981	-0.127323	3.270462	1.000000	0.000008	0.000041	-0.000075	-0.874836	-11.785434	-179.946745
52011	2.701503	-0.079990	12.800772	-0.030598	-0.114895	3.269749	1.000000	0.000002	0.000050	-0.000074	-0.874624	-11.784759	-179.951171
52012	2.680089	-0.066672	12.806163	-0.008744	-0.128519	3.270452	1.000000	0.000009	0.000049	-0.000068	-0.875400	-11.784089	-179.956977
52013	2.678910	-0.066125	12.806413	-0.007175	-0.128947	3.270449	1.000000	0.000006	0.000044	-0.000062	-0.875106	-11.785801	-179.938746
52014	2.694803	-0.073824	12.777731	-0.028551	-0.120996	3.245734	1.000000	0.000014	0.000040	-0.000069	-0.875279	-11.786198	-179.944675
52015	2.670034	-0.031655	12.813981	0.003090	-0.163452	3.275531	1.000000	0.000020	0.000042	-0.000051	-0.874172	-11.786426	-179.943902
52016	2.695819	-0.076905	12.801989	-0.024590	-0.118209	3.269732	1.000000	0.000002	0.000050	-0.000074	-0.875594	-11.785640	-179.950386
52017	2.701642	-0.047313	12.756664	-0.039609	-0.147246	3.226113	1.000000	-0.000004	0.000040	-0.000063	-0.876667	-11.786204	-179.948178
52018	2.710115	-0.060347	12.828271	-0.033316	-0.135730	3.298124	1.000000	0.000002	0.000050	-0.000074	-0.878090	-11.785417	-179.954655
52019	2.685463	-0.042659	12.809864	-0.013168	-0.153012	3.274808	1.000000	0.000002	0.000050	-0.000074	-0.877614	-11.784643	-179.957874
52020	2.701281	-0.050433	12.781211	-0.034560	-0.145063	3.250107	1.000000	0.000007	0.000041	-0.000075	-0.878433	-11.784919	-179.964478
52021	2.693292	-0.079267	12.826995	-0.017125	-0.116900	3.293721	1.000000	-0.000004	0.000040	-0.000063	-0.879161	-11.785819	-179.964745
52022	2.688990	-0.074410	12.803440	-0.017757	-0.121776	3.269710	1.000000	0.000004	0.000047	-0.000087	-0.880109	-11.785405	-179.972701
52023	2.684443	-0.069507	12.779936	-0.018486	-0.126293	3.245702	1.000000	-0.000003	0.000059	-0.000073	-0.880546	-11.783162	-179.981094
52024	2.683184	-0.069230	12.780202	-0.017384	-0.127072	3.245696	1.000000	-0.000004	0.000040	-0.000063	-0.883003	-11.783513	-179.986228
52025	2.665116	-0.060398	12.809319	0.006402	-0.136242	3.270375	1.000000	0.000018	0.000045	-0.000075	-0.881149	-11.783990	-179.982712
52026	2.704236	-0.085358	12.799392	-0.034031	-0.111388	3.269019	1.000000	-0.000006	0.000054	-0.000067	-0.883692	-11.782705	-179.988369
52027	2.682733	-0.072208	12.804765	-0.012066	-0.124420	3.269692	1.000000	0.000009	0.000049	-0.000068	-0.881941	-11.782415	-179.992662
52028	2.661357	-0.058923	12.810107	0.009808	-0.138013	3.270355	1.000000	0.000006	0.000044	-0.000062	-0.883232	-11.782310	-179.997750
52029	2.680371	-0.071116	12.805266	-0.009999	-0.125514	3.269683	1.000000	0.000009	0.000049	-0.000068	-0.881927	-11.781016	179.996197
52030	2.658926	-0.057780	12.810617	0.011875	-0.139106	3.270342	1.000000	0.000009	0.000049	-0.000068	-0.882700	-11.780336	179.990452
52031	2.654728	-0.052847	12.787037	0.011374	-0.143692	3.246329	1.000000	0.000001	0.000031	-0.000064	-0.883319	-11.782287	179.995687
52032	2.693534	-0.053917	12.831792	-0.017491	-0.143871	3.298068	1.000000	-0.000013	0.000055	-0.000073	-0.886507	-11.780881	179.989351
52033	2.668828	-0.036334	12.813359	0.002681	-0.161160	3.274717	1.000000	0.000016	0.000048	-0.000062	-0.884923	-11.780486	179.987603
52034	2.664564	-0.093410	12.828230	0.010172	-0.104288	3.289264	1.000000	0.000019	0.000031	-0.000071	-0.884487	-11.781933	179.981609
52035	2.670523	-0.063417	12.782884	-0.004821	-0.133165	3.245646	1.000000	0.000009	0.000049	-0.000068	-0.883257	-11.781699	179.985068
52036	2.659304	-0.087686	12.804877	0.010739	-0.109477	3.265247	1.000000	0.000004	0.000036	-0.000070	-0.884587	-11.782536	179.979179
52037	2.688074	-0.051076	12.832948	-0.011424	-0.146581	3.298045	1.000000	-0.000008	0.000046	-0.000074	-0.885531	-11.783602	179.987146
52038	2.674142	-0.095165	12.776473	-0.009254	-0.101947	3.240583	1.000000	0.000011	0.000046	-0.000081	-0.885829	-11.783296	179.979939
52039	2.689658	-0.078712	12.802506	-0.019029	-0.118714	3.268985	1.000000	0.000001	0.000031	-0.000064	-0.886227	-11.784816	179.983258
52040	2.665408	-0.061210	12.783962	0.001091	-0.136359	3.245614	1.000000	-0.000003	0.000037	-0.000076	-0.888203	-11.785537	179.976688
52041	2.687895	-0.077883	12.802881	-0.016666	-0.119697	3.268979	1.000000	0.000011	0.000035	-0.000064	-0.886309	-11.787074	179.981414
52042	2.686872	-0.077217	12.803100	-0.015562	-0.120475	3.268973	1.000000	0.000011	0.000046	-0.000081	-0.886604	-11.786765	179.974222
52043	2.685730	-0.076619	12.803343	-0.014384	-0.120749	3.268972	1.000000	0.000006	0.000044	-0.000063	-0.885635	-11.786965	179.970195
52044	2.684598	-0.076204	12.803583	-0.013279	-0.121525	3.268966	1.000000	-0.000001	0.000045	-0.000068	-0.887566	-11.786738	179.964465
52045	2.680355	-0.071221	12.780015	-0.014174	-0.126038	3.244957	1.000000	0.000014	0.000040	-0.000069	-0.886220	-11.786185	179.954333
52046	2.698646	-0.059140	12.829928	-0.022187	-0.139066	3.297363	1.000000	0.000001	0.000065	-0.000078	-0.887725	-11.783744	179.947413
52047	2.674620	-0.065849	12.756762	-0.013580	-0.131330	3.220941	1.000000	-0.000001	0.000034	-0.000051	-0.888545	-11.785394	179.957223
52048	2.696448	-0.058549	12.830393	-0.019799	-0.140293	3.297353	1.000000	-0.000004	0.000040	-0.000063	-0.890991	-11.785736	179.952171
52049	2.692246	-0.053514	12.806816	-0.020357	-0.144637	3.273346	1.000000	0.000019	0.000042	-0.000088	-0.887893	-11.786325	179.953665
52050	2.691167	-0.052718	12.807047	-0.019252	-0.145414	3.273339	1.000000	0.000013	0.000043	-0.000057	-0.888529	-11.786326	179.949352
52051	2.686838	-0.047663	12.783497	-0.019599	-0.149783	3.249332	1.000000	0.000009	0.000049	-0.000068	-0.887141	-11.786916	179.960160
52052	2.672302	-0.067524	12.781721	-0.005841	-0.130149	3.244923	1.000000	0.000002	0.000050	-0.000074	-0.888553	-11.786111	179.953797
52053	2.674363	-0.071496	12.805752	-0.002770	-0.126345	3.268927	1.000000	0.000004	0.000036	-0.000070	-0.887578	-11.787593	179.960092
52054	2.706772	-0.063376	12.802988	-0.035119	-0.134772	3.272714	1.000000	-0.000005	0.000051	-0.000080	-0.889636	-11.786671	179.953039
52055	2.681957	-0.045957	12.784528	-0.014903	-0.152041	3.249312	1.000000	-0.000003	0.000060	-0.000073	-0.890157	-11.785137	179.954938
52056	2.704031	-0.062469	12.803571	-0.032810	-0.135994	3.272707	1.000000	0.000018	0.000045	-0.000075	-0.889800	-11.784937	179.948494
52057	2.672608	-0.073958	12.830586	0.003453	-0.124687	3.292910	1.000000	0.000009	0.000038	-0.000051	-0.889343	-11.785131	179.942706
52058	2.704932	-0.065927	12.827851	-0.028890	-0.133124	3.296706	1.000000	-0.000013	0.000056	-0.000073	-0.892523	-11.783716	179.936459
52059	2.670981	-0.097594	12.776393	-0.005910	-0.100778	3.239887	1.000000	0.000004	0.000036	-0.000070	-0.891997	-11.785308	179.942171
52060	2.682482	-0.052521	12.833346	-0.005661	-0.147020	3.297293	1.000000	0.000006	0.000044	-0.000063	-0.893276	-11.785190	179.937199
52061	2.654854	-0.092922	12.829480	0.020722	-0.106570	3.288482	1.000000	-0.000001	0.000045	-0.000069	-0.893494	-11.784949	179.935001
52062	2.694195	-0.055478	12.781194	-0.027863	-0.143560	3.248679	1.000000	0.000006	0.000044	-0.000063	-0.894772	-11.784829	179.930036
52063	2.692876	-0.055075	12.781474	-0.026586	-0.143981	3.248677	1.000000	-0.000003	0.000060	-0.000073	-0.895179	-11.783552	179.938247
52064	2.701318	-0.067759	12.853088	-0.020053	-0.132584	3.320690	1.000000	0.000021	0.000016	-0.000066	-0.894634	-11.786624	179.932901
52065	2.663629	-0.070512	12.832472	0.012727	-0.129334	3.292859	1.000000	-0.000006	0.000066	-0.000084	-0.895027	-11.784165	179.931474
52066	2.709815	-0.066179	12.777164	-0.044052	-0.133175	3.248083	1.000000	0.000002	0.000039	-0.000057	-0.896819	-11.784619	179.927189
52067	2.654997	-0.060922	12.785360	0.011358	-0.138542	3.244833	1.000000	0.000000	0.000042	-0.000081	-0.896259	-11.784878	179.926751
52068	2.677289	-0.077407	12.804384	-0.006545	-0.122526	3.268256	1.000000	0.000011	0.000046	-0.000081	-0.896545	-11.784553	179.919653
52069	2.659076	-0.068692	12.833427	0.017306	-0.131625	3.292831	1.000000	-0.000003	0.000037	-0.000076	-0.896931	-11.785623	179.922142
52070	2.675098	-0.076479	12.804848	-0.004232	-0.123721	3.268245	1.000000	0.000008	0.000052	-0.000055	-0.898169	-11.784552	179.918037
52071	2.691076	-0.084132	12.776284	-0.025744	-0.115426	3.243668	1.000000	0.000007	0.000041	-0.000075	-0.897210	-11.784900	179.914839
52072	2.689320	-0.059279	12.831165	-0.012775	-0.141262	3.296647	1.000000	0.000012	0.000032	-0.000077	-0.897402	-11.786212	179.908290
52073	2.692301	-0.087618	12.800495	-0.021691	-0.112426	3.267669	1.000000	-0.000020	0.000045	-0.000062	-0.899374	-11.785968	179.910881
52074	2.691217	-0.087336	12.800725	-0.020586	-0.113199	3.267664	1.000000	0.000014	0.000040	-0.000069	-0.899526	-11.786330	179.905168
52075	2.673141	-0.078602	12.829727	0.003075	-0.122116	3.292229	1.000000	0.000001	0.000031	-0.000064	-0.898982	-11.787280	179.899213
52076	2.669003	-0.073700	12.806136	0.002352	-0.126936	3.268215	1.000000	0.000009	0.000049	-0.000068	-0.899741	-11.786576	179.893635
52077	2.685169	-0.081403	12.777544	-0.018928	-0.118650	3.243651	1.000000	0.000001	0.000031	-0.000064	-0.899823	-11.789036	179.905635
52078	2.677028	-0.047957	12.784831	-0.009582	-0.152581	3.248603	1.000000	0.000002	0.000050	-0.000074	-0.901228	-11.788217	179.899367
52079	2.686225	-0.085011	12.801789	-0.014780	-0.115631	3.267651	1.000000	0.000001	0.000031	-0.000064	-0.900725	-11.789986	179.904206
52080	2.698381	-0.064162	12.804080	-0.026262	-0.136853	3.272053	1.000000	0.000002	0.000050	-0.000074	-0.902128	-11.789165	179.897946
52081	2.697256	-0.063677	12.804319	-0.025057	-0.137217	3.272051	1.000000	0.000009	0.000038	-0.000051	-0.901416	-11.790031	179.906001
52082	2.696249	-0.063124	12.804534	-0.023951	-0.137988	3.272045	1.000000	0.000007	0.000041	-0.000075	-0.902209	-11.790273	179.899619
52083	2.691188	-0.033845	12.835627	-0.012700	-0.167422	3.300999	1.000000	0.000014	0.000040	-0.000069	-0.900322	-11.790719	179.900304
52084	2.677782	-0.077897	12.779116	-0.010968	-0.122664	3.243623	1.000000	0.000002	0.000051	-0.000074	-0.901723	-11.789896	179.894059
52085	2.675645	-0.053232	12.834050	0.001951	-0.148199	3.296576	1.000000	0.000006	0.000044	-0.000063	-0.901605	-11.789146	179.887958
52086	2.684621	-0.027573	12.812547	-0.011361	-0.173467	3.276969	1.000000	0.000026	0.000041	-0.000082	-0.900114	-11.789410	179.880833
52087	2.677456	-0.080465	12.803656	-0.005857	-0.120214	3.267617	1.000000	-0.000010	0.000050	-0.000062	-0.901306	-11.789003	179.885185
52088	2.692688	-0.064018	12.829763	-0.015472	-0.137408	3.296026	1.000000	0.000012	0.000032	-0.000077	-0.901488	-11.790304	179.878697
52089	2.688640	-0.059272	12.806152	-0.016043	-0.141680	3.272018	1.000000	-0.000018	0.000043	-0.000075	-0.902795	-11.791004	179.885327
52090	2.687511	-0.058952	12.806391	-0.014937	-0.142450	3.272011	1.000000	0.000010	0.000046	-0.000081	-0.903072	-11.790663	179.878312
52091	2.722942	-0.054874	12.827554	-0.045476	-0.146640	3.299902	1.000000	0.000006	0.000044	-0.000063	-0.902896	-11.790182	179.869976
52092	2.685229	-0.057877	12.806874	-0.012811	-0.143667	3.272000	1.000000	0.000006	0.000044	-0.000063	-0.904162	-11.790045	179.865124
52093	2.691396	-0.090424	12.800037	-0.019883	-0.110868	3.267070	1.000000	0.000004	0.000036	-0.000070	-0.903582	-11.791277	179.868523
52094	2.683155	-0.057066	12.807313	-0.010478	-0.144789	3.271989	1.000000	-0.000008	0.000047	-0.000075	-0.906141	-11.790908	179.862279
52095	2.678934	-0.052173	12.783739	-0.011169	-0.149127	3.247980	1.000000	0.000019	0.000042	-0.000051	-0.904033	-11.791173	179.867889
52096	2.714261	-0.048251	12.804936	-0.041610	-0.153659	3.275880	1.000000	-0.000013	0.000056	-0.000073	-0.907201	-11.789740	179.861781
52097	2.682710	-0.060246	12.831871	-0.005228	-0.142152	3.295983	1.000000	0.000011	0.000035	-0.000064	-0.905829	-11.790628	179.860388
52098	2.665333	-0.075719	12.806214	0.006560	-0.126477	3.267557	1.000000	0.000005	0.000056	-0.000080	-0.906713	-11.789217	179.853529
52099	2.680198	-0.059146	12.832401	-0.003029	-0.143302	3.295971	1.000000	0.000002	0.000051	-0.000074	-0.906366	-11.788303	179.847258
52100	2.696242	-0.066884	12.803888	-0.024652	-0.135426	3.271456	1.000000	-0.000001	0.000045	-0.000069	-0.908276	-11.788046	179.841735
52101	2.664625	-0.078841	12.830824	0.011920	-0.123966	3.291547	1.000000	0.000002	0.000051	-0.000074	-0.907898	-11.787866	179.853423
52102	2.673523	-0.053290	12.809343	-0.001381	-0.149240	3.271943	1.000000	0.000021	0.000039	-0.000064	-0.907390	-11.788325	179.848519
52103	2.689779	-0.060684	12.780794	-0.022911	-0.140944	3.247439	1.000000	0.000007	0.000041	-0.000075	-0.906251	-11.788870	179.854625
52104	2.691623	-0.064767	12.804871	-0.019931	-0.137688	3.271440	1.000000	-0.000013	0.000056	-0.000073	-0.909417	-11.787432	179.848548
52105	2.674319	-0.080460	12.779196	-0.007864	-0.121411	3.243020	1.000000	0.000012	0.000032	-0.000077	-0.906960	-11.789859	179.865532
52106	2.689587	-0.063647	12.805304	-0.017401	-0.138645	3.271434	1.000000	0.000014	0.000040	-0.000070	-0.907096	-11.790201	179.859947
52107	2.691505	-0.067459	12.829366	-0.014383	-0.134933	3.295439	1.000000	0.000002	0.000051	-0.000074	-0.906439	-11.789447	179.857605
52108	2.707645	-0.075236	12.800853	-0.036035	-0.127076	3.270944	1.000000	-0.000005	0.000040	-0.000063	-0.908857	-11.789766	179.852783
52109	2.673137	-0.082811	12.803915	-0.001568	-0.119600	3.267008	1.000000	0.000007	0.000041	-0.000076	-0.907867	-11.789818	179.849671
52110	2.705506	-0.074364	12.801311	-0.033853	-0.128218	3.270938	1.000000	-0.000001	0.000046	-0.000069	-0.909772	-11.789556	179.844192
52111	2.691113	-0.094483	12.799485	-0.020178	-0.108072	3.266524	1.000000	-0.000002	0.000057	-0.000086	-0.909413	-11.788197	179.845910
52112	2.679827	-0.056420	12.782904	-0.012584	-0.145993	3.247398	1.000000	0.000021	0.000017	-0.000066	-0.908835	-11.791240	179.840757
52113	2.684906	-0.064633	12.830763	-0.007397	-0.138150	3.295411	1.000000	-0.000007	0.000066	-0.000085	-0.908385	-11.789733	179.853821
52114	2.693647	-0.039207	12.809320	-0.020675	-0.163438	3.275811	1.000000	0.000018	0.000034	-0.000058	-0.908382	-11.790765	179.849636
52115	2.696877	-0.067263	12.778683	-0.029742	-0.134561	3.246922	1.000000	-0.000001	0.000046	-0.000069	-0.907905	-11.790870	179.855094
52116	2.708915	-0.046348	12.781010	-0.041127	-0.155833	3.251332	1.000000	0.000004	0.000036	-0.000070	-0.909193	-11.791670	179.849513
52117	2.680543	-0.062684	12.831685	-0.002550	-0.140150	3.295392	1.000000	0.000006	0.000044	-0.000063	-0.908043	-11.792588	179.865650
52118	2.676536	-0.057797	12.808066	-0.003338	-0.144929	3.271377	1.000000	0.000007	0.000030	-0.000058	-0.909194	-11.794084	179.861447
52119	2.698602	-0.074410	12.827256	-0.021001	-0.128506	3.294926	1.000000	-0.000013	0.000079	-0.000071	-0.909881	-11.790868	179.873200
52120	2.673702	-0.057204	12.808661	-0.000889	-0.145891	3.271366	1.000000	0.000011	0.000035	-0.000064	-0.910518	-11.791784	179.868342
52121	2.705871	-0.048719	12.806128	-0.033365	-0.154371	3.275326	1.000000	-0.000007	0.000066	-0.000085	-0.911808	-11.788391	179.848965
52122	2.688706	-0.064256	12.780420	-0.021688	-0.138629	3.246896	1.000000	0.000021	0.000017	-0.000066	-0.911220	-11.791431	179.843858
52123	2.677926	-0.088485	12.802294	-0.005931	-0.114229	3.266486	1.000000	0.000006	0.000045	-0.000063	-0.909608	-11.792297	179.858349
52124	2.689889	-0.067431	12.804640	-0.017288	-0.135514	3.270897	1.000000	0.000007	0.000042	-0.000076	-0.910379	-11.792515	179.852138
52125	2.712237	-0.083831	12.823787	-0.034958	-0.119202	3.294461	1.000000	-0.000001	0.000046	-0.000069	-0.910131	-11.793025	179.866626
52126	2.674695	-0.087094	12.802979	-0.002392	-0.116039	3.266471	1.000000	0.000004	0.000036	-0.000070	-0.911411	-11.793822	179.861091
52127	2.683669	-0.061701	12.781491	-0.015651	-0.140835	3.246881	1.000000	0.000006	0.000045	-0.000063	-0.910404	-11.793618	179.859728
52128	2.685501	-0.065628	12.805570	-0.012632	-0.137589	3.270881	1.000000	0.000002	0.000051	-0.000074	-0.911784	-11.792770	179.853662
52129	2.697179	-0.044846	12.807976	-0.023934	-0.158619	3.275296	1.000000	-0.000013	0.000056	-0.000073	-0.913744	-11.791393	179.855685
52130	2.686021	-0.069436	12.829924	-0.008463	-0.134843	3.294876	1.000000	0.000011	0.000035	-0.000064	-0.914376	-11.792304	179.850869
52131	2.682085	-0.064430	12.806292	-0.009343	-0.139218	3.270866	1.000000	0.000011	0.000035	-0.000064	-0.913255	-11.792898	179.845333
52132	2.667976	-0.084365	12.804399	0.004209	-0.119445	3.266440	1.000000	0.000009	0.000050	-0.000068	-0.913989	-11.792163	179.839985
52133	2.682840	-0.067680	12.830599	-0.005299	-0.136457	3.294861	1.000000	0.000005	0.000045	-0.000063	-0.913972	-11.791609	179.833393
52134	2.678803	-0.062675	12.806988	-0.006114	-0.141221	3.270847	1.000000	0.000018	0.000034	-0.000058	-0.913957	-11.792630	179.829293
52135	2.677471	-0.062027	12.807269	-0.005149	-0.141568	3.270843	1.000000	0.000003	0.000070	-0.000084	-0.913079	-11.788989	179.815056
52136	2.696490	-0.074089	12.802679	-0.024959	-0.129746	3.270419	1.000000	-0.000005	0.000041	-0.000063	-0.915482	-11.789296	179.810348
52137	2.687778	-0.040658	12.809966	-0.015270	-0.163141	3.275253	1.000000	0.000008	0.000061	-0.000086	-0.913650	-11.787626	179.811073
52138	2.690947	-0.068611	12.779389	-0.024576	-0.134782	3.246406	1.000000	0.000011	0.000035	-0.000064	-0.914280	-11.788528	179.806284
52139	2.679991	-0.092945	12.801295	-0.009119	-0.110548	3.265991	1.000000	0.000007	0.000042	-0.000076	-0.912986	-11.788616	179.804288
52140	2.674525	-0.063763	12.832355	0.002411	-0.140430	3.294820	1.000000	0.000007	0.000042	-0.000076	-0.913751	-11.788820	179.798138
52141	2.690952	-0.071280	12.803860	-0.019426	-0.132127	3.270405	1.000000	0.000004	0.000036	-0.000070	-0.912861	-11.789237	179.790327
52142	2.689948	-0.070824	12.804073	-0.018319	-0.132888	3.270399	1.000000	0.000000	0.000043	-0.000082	-0.914271	-11.789323	179.783480
52143	2.668420	-0.057803	12.809178	0.003639	-0.145877	3.270797	1.000000	0.000019	0.000042	-0.000051	-0.912669	-11.789069	179.780155
52144	2.700842	-0.049114	12.806653	-0.028606	-0.154607	3.274811	1.000000	-0.000003	0.000038	-0.000076	-0.914590	-11.789736	179.773981
52145	2.704359	-0.077238	12.776018	-0.038025	-0.125804	3.245984	1.000000	0.000011	0.000035	-0.000064	-0.913255	-11.790261	179.767168
52146	2.698801	-0.048182	12.807087	-0.026479	-0.155691	3.274802	1.000000	-0.000005	0.000052	-0.000080	-0.915280	-11.789280	179.760460
52147	2.668591	-0.084546	12.779248	-0.002622	-0.119022	3.241949	1.000000	0.000005	0.000045	-0.000063	-0.915044	-11.788426	179.755259
52148	2.696417	-0.047386	12.807592	-0.024421	-0.156884	3.274792	1.000000	-0.000001	0.000046	-0.000069	-0.916932	-11.788140	179.749928
52149	2.658738	-0.050788	12.786748	0.008057	-0.153245	3.246748	1.000000	0.000002	0.000051	-0.000074	-0.916468	-11.787123	179.745274
52150	2.680822	-0.067046	12.806008	-0.009813	-0.137449	3.270361	1.000000	0.000010	0.000058	-0.000061	-0.917168	-11.785420	179.740817
52151	2.689648	-0.041623	12.784559	-0.022841	-0.162225	3.250775	1.000000	0.000000	0.000031	-0.000064	-0.916594	-11.787605	179.753656
52152	2.675634	-0.061796	12.782639	-0.009322	-0.142432	3.246345	1.000000	0.000002	0.000051	-0.000074	-0.917971	-11.786734	179.747676
52153	2.697851	-0.078063	12.801880	-0.027131	-0.126398	3.269969	1.000000	0.000003	0.000048	-0.000087	-0.917729	-11.786367	179.752987
52154	2.693659	-0.073246	12.778302	-0.027984	-0.131142	3.245957	1.000000	-0.000002	0.000046	-0.000069	-0.919616	-11.786077	179.747683
52155	2.690998	-0.048624	12.833204	-0.014371	-0.156561	3.298767	1.000000	0.000005	0.000045	-0.000063	-0.918667	-11.786044	179.751404
52156	2.676941	-0.068676	12.831292	-0.000861	-0.136763	3.294336	1.000000	0.000007	0.000042	-0.000076	-0.919427	-11.786233	179.745318
52157	2.690308	-0.071855	12.779016	-0.024447	-0.132468	3.245951	1.000000	-0.000002	0.000046	-0.000069	-0.919189	-11.786533	179.754826
