// Start Time: Unknown
// Update Rate: 100.0Hz
// Filter Profile: human (46.1)
// Firmware Version: 4.4.0
PacketCounter	Acc_X	Acc_Y	Acc_Z	FreeAcc_X	FreeAcc_Y	FreeAcc_Z	OriInc_q0	OriInc_q1	OriInc_q2	OriInc_q3	Roll	Pitch	Yaw
46855	9.884115	-0.242721	0.720907	0.000000	0.000000	0.100655	1.000000	0.000020	0.000034	0.000025	-18.599450	-85.601575	16.007906
46856	9.899264	-0.262084	0.721651	0.005657	-0.004032	0.116303	1.000000	0.000003	0.000043	0.000004	-19.539911	-85.538460	17.053576
46857	9.857906	-0.264070	0.713393	0.011403	-0.007040	0.074517	1.000000	0.000034	0.000023	0.000031	-19.567198	-85.534801	17.084814
46858	9.867409	-0.256920	0.735106	-0.008754	0.001707	0.085397	1.000000	0.000018	0.000033	0.000017	-19.576620	-85.531202	17.096016
46859	9.892122	-0.268768	0.756797	-0.028444	-0.008291	0.111938	1.000000	0.000014	0.000023	0.000019	-19.590165	-85.527944	17.111181
46860	9.872962	-0.284276	0.715067	0.011638	-0.025745	0.090177	1.000000	0.000018	0.000033	0.000017	-19.595484	-85.523668	17.118602
46861	9.892007	-0.269492	0.758040	-0.028436	-0.008289	0.111938	1.000000	0.000020	0.000034	0.000025	-19.610771	-85.519001	17.136209
46862	9.898923	-0.264467	0.725446	0.005560	-0.003994	0.116303	1.000000	0.000012	0.000041	0.000035	-19.638176	-85.513140	17.165050
46863	9.867110	-0.258914	0.738419	-0.008730	0.001725	0.085397	1.000000	0.000005	0.000036	0.000004	-19.625097	-85.509153	17.152534
46864	9.921006	-0.278709	0.693391	0.039905	-0.018424	0.136328	1.000000	0.000020	0.000018	0.000035	-19.662516	-85.505697	17.192317
46865	9.857470	-0.267321	0.718193	0.011323	-0.006985	0.074517	1.000000	0.000005	0.000020	0.000014	-19.670804	-85.503041	17.201215
46866	9.923466	-0.277464	0.748876	-0.014136	-0.013939	0.142843	1.000000	0.000016	0.000040	0.000017	-19.675709	-85.498072	17.207903
46867	9.872560	-0.287025	0.719517	0.011648	-0.025676	0.090177	1.000000	0.000018	0.000033	0.000017	-19.680947	-85.493845	17.215243
46868	9.898605	-0.266525	0.729027	0.005535	-0.003870	0.116303	1.000000	0.000012	0.000022	0.000011	-19.689824	-85.491014	17.225505
46869	9.866808	-0.260881	0.741756	-0.008756	0.001849	0.085397	1.000000	0.000011	0.000031	0.000019	-19.699800	-85.486949	17.236791
46870	9.898511	-0.267098	0.730085	0.005519	-0.003799	0.116303	1.000000	0.000012	0.000022	0.000011	-19.708582	-85.484096	17.246958
46871	9.898451	-0.267488	0.730762	0.005519	-0.003799	0.116303	1.000000	0.000026	0.000045	0.000031	-19.725314	-85.478018	17.266713
46872	9.873647	-0.256286	0.710348	0.025182	0.006277	0.089762	1.000000	0.000008	0.000028	0.000004	-19.721625	-85.474856	17.263877
46873	9.866587	-0.262127	0.744243	-0.008799	0.001997	0.085397	1.000000	0.000022	0.000027	0.000025	-19.739931	-85.470991	17.284813
46874	9.905297	-0.262948	0.699326	0.039424	0.000623	0.120668	1.000000	0.000020	0.000034	0.000025	-19.760443	-85.466478	17.307625
46875	9.876011	-0.255384	0.766613	-0.028885	0.010790	0.096277	1.000000	0.000021	0.000026	0.000017	-19.768891	-85.463054	17.318485
46876	9.914725	-0.256036	0.721772	0.019324	0.009400	0.131548	1.000000	0.000023	0.000043	0.000015	-19.770583	-85.458123	17.322723
46877	9.872006	-0.290321	0.725770	0.011474	-0.025344	0.090178	1.000000	0.000020	0.000034	0.000025	-19.785435	-85.453453	17.339895
46878	9.899413	-0.237781	0.723059	0.018869	0.028191	0.115887	1.000000	0.000018	0.000017	0.000027	-19.818540	-85.451043	17.375204
46879	9.878924	-0.285623	0.693551	0.045346	-0.021000	0.094544	1.000000	0.000023	0.000043	0.000015	-19.815492	-85.445852	17.374743
46880	9.889756	-0.246128	0.703353	0.038699	0.019514	0.105008	1.000000	0.000017	0.000042	0.000025	-19.835002	-85.441433	17.396301
46881	9.867469	-0.233002	0.737406	0.004371	0.033960	0.084981	1.000000	0.000011	0.000031	0.000019	-19.844718	-85.437373	17.407332
46882	9.882600	-0.252602	0.738084	0.004483	0.015199	0.100642	1.000000	0.000021	0.000036	0.000033	-19.871741	-85.433606	17.436941
46883	9.873010	-0.260759	0.717533	0.024520	0.006470	0.089764	1.000000	0.000015	0.000025	0.000027	-19.894430	-85.429902	17.461476
46884	9.914239	-0.259538	0.727174	0.018458	0.009413	0.131550	1.000000	0.000016	0.000040	0.000017	-19.898131	-85.426714	17.467027
46885	9.872896	-0.261661	0.718775	0.024207	0.006402	0.089764	1.000000	0.000020	0.000018	0.000035	-19.933805	-85.423372	17.505076
46886	9.897553	-0.273773	0.740534	0.004145	-0.003686	0.116304	1.000000	0.000010	0.000040	0.000027	-19.951538	-85.420248	17.524092
46887	9.872782	-0.262739	0.719946	0.023837	0.006312	0.089765	1.000000	0.000025	0.000019	0.000025	-19.972762	-85.417194	17.548267
46888	9.887921	-0.282314	0.720440	0.023838	-0.012505	0.105427	1.000000	0.000022	0.000027	0.000025	-19.991772	-85.415371	17.570104
46889	9.875160	-0.261670	0.775407	-0.030527	0.010668	0.096272	1.000000	0.000008	0.000022	0.000029	-20.018967	-85.411833	17.598361
46890	9.902995	-0.302385	0.721591	0.023936	-0.031313	0.121088	1.000000	0.000016	0.000040	0.000017	-20.020065	-85.408277	17.601426
46891	9.887751	-0.283656	0.722241	0.023592	-0.012588	0.105428	1.000000	0.000022	0.000027	0.000025	-20.037730	-85.404406	17.621743
46892	9.871116	-0.297188	0.735025	0.009230	-0.025590	0.090180	1.000000	0.000018	0.000033	0.000017	-20.052128	-85.402498	17.637969
46893	9.887634	-0.284406	0.723546	0.023169	-0.012584	0.105429	1.000000	0.000027	0.000037	0.000023	-20.061753	-85.397671	17.650720
46894	9.898479	-0.244963	0.733376	0.016144	0.027954	0.115892	1.000000	0.000022	0.000051	0.000023	-20.082770	-85.394328	17.673638
46895	9.887491	-0.285213	0.725180	0.022580	-0.012507	0.105430	1.000000	0.000014	0.000023	0.000019	-20.095647	-85.391099	17.688135
46896	9.887444	-0.285675	0.725638	0.021948	-0.012472	0.105431	1.000000	0.000008	0.000022	0.000029	-20.139007	-85.390985	17.732608
46897	9.881742	-0.259416	0.747145	0.001555	0.014983	0.100643	1.000000	0.000016	0.000016	0.000019	-20.155289	-85.388581	17.750821
46898	9.898276	-0.246539	0.735593	0.015147	0.028016	0.115894	1.000000	0.000011	0.000047	0.000009	-20.152861	-85.385042	17.749657
46899	9.888696	-0.254376	0.715227	0.035180	0.019288	0.105022	1.000000	0.000018	0.000033	0.000017	-20.157664	-85.380863	17.756565
46900	9.888641	-0.254715	0.715866	0.034574	0.019245	0.105024	1.000000	0.000011	0.000031	0.000019	-20.177372	-85.380212	17.777175
46901	9.870579	-0.300451	0.740897	0.007028	-0.025496	0.090182	1.000000	0.000018	0.000033	0.000017	-20.182227	-85.376044	17.784126
46902	9.888529	-0.255340	0.717190	0.033941	0.019210	0.105026	1.000000	0.000025	0.000035	0.000015	-20.193348	-85.375158	17.798193
46903	9.888478	-0.255652	0.717779	0.033926	0.019210	0.105026	1.000000	0.000014	0.000023	0.000019	-20.206278	-85.371969	17.812739
46904	9.888429	-0.256014	0.718321	0.033317	0.019107	0.105029	1.000000	0.000011	0.000031	0.000019	-20.221769	-85.371441	17.830147
46905	9.871781	-0.269559	0.731071	0.019366	0.006099	0.089775	1.000000	0.000022	0.000027	0.000025	-20.239519	-85.367652	17.850535
46906	9.897840	-0.249162	0.740555	0.012739	0.027733	0.115898	1.000000	0.000012	0.000022	0.000011	-20.246949	-85.367839	17.858083
46907	9.896363	-0.281782	0.753322	-0.000871	-0.004000	0.116304	1.000000	0.000013	0.000032	0.000027	-20.265957	-85.363382	17.878603
46908	9.871625	-0.270667	0.732755	0.018002	0.005868	0.089778	1.000000	0.000018	0.000033	0.000017	-20.280121	-85.364013	17.894257
46909	9.863506	-0.246344	0.699855	0.051627	0.028875	0.078508	1.000000	0.000016	0.000016	0.000019	-20.296485	-85.361640	17.912524
46910	9.856365	-0.252205	0.733680	0.016912	0.024470	0.074119	1.000000	0.000018	0.000033	0.000017	-20.308848	-85.361705	17.923958
46911	9.897589	-0.250943	0.743299	0.011113	0.027483	0.115901	1.000000	0.000014	0.000023	0.000019	-20.322034	-85.358531	17.938686
46912	9.890437	-0.256824	0.777186	-0.023506	0.022939	0.111507	1.000000	0.000036	0.000031	0.000021	-20.325924	-85.358348	17.948683
46913	9.886545	-0.291620	0.735462	0.016896	-0.013242	0.105440	1.000000	0.000008	0.000022	0.000029	-20.353197	-85.354901	17.976955
46914	9.887923	-0.259854	0.723895	0.029844	0.018299	0.105041	1.000000	0.000024	0.000044	0.000023	-20.360525	-85.353196	17.985342
46915	9.887860	-0.260319	0.724584	0.029820	0.018303	0.105041	1.000000	0.000015	0.000025	0.000027	-20.383225	-85.349596	18.009804
46916	9.882142	-0.233994	0.746260	0.008815	0.045450	0.100246	1.000000	0.000018	0.000033	0.000017	-20.380211	-85.349372	18.012011
46917	9.887758	-0.261116	0.725692	0.029168	0.017997	0.105044	1.000000	0.000025	0.000019	0.000025	-20.401457	-85.346429	18.036170
46918	9.871106	-0.274566	0.738277	0.014713	0.004663	0.089784	1.000000	0.000012	0.000022	0.000011	-20.393643	-85.347090	18.030696
46919	9.904270	-0.248672	0.714657	0.042543	0.030675	0.120308	1.000000	0.000015	0.000049	0.000025	-20.401301	-85.340945	18.040042
46920	9.878097	-0.269959	0.706333	0.047653	0.008623	0.094191	1.000000	0.000020	0.000018	0.000035	-20.436768	-85.343745	18.077923
46921	9.862886	-0.251283	0.706800	0.047292	0.027353	0.078534	1.000000	0.000025	0.000035	0.000015	-20.437216	-85.339538	18.081249
46922	9.904099	-0.249989	0.716566	0.040411	0.030021	0.120319	1.000000	0.000018	0.000033	0.000017	-20.443034	-85.341906	18.089330
46923	9.902571	-0.282706	0.729572	0.026771	-0.001712	0.120710	1.000000	0.000019	0.000043	0.000033	-20.463831	-85.336199	18.112340
46924	9.887353	-0.264131	0.730097	0.025497	0.016662	0.105056	1.000000	0.000018	0.000017	0.000027	-20.485897	-85.339157	18.137713
46925	9.887311	-0.264540	0.730530	0.025448	0.016662	0.105056	1.000000	0.000021	0.000026	0.000017	-20.494650	-85.335997	18.148876
46926	9.894393	-0.259375	0.697764	0.058777	0.020610	0.109474	1.000000	0.000011	0.000031	0.000019	-20.495484	-85.336058	18.150591
46927	9.845927	-0.266663	0.722819	0.030561	0.013335	0.063280	1.000000	0.000025	0.000051	0.000005	-20.475352	-85.330632	18.133300
46928	9.918899	-0.271443	0.720724	0.038139	0.010242	0.135987	1.000000	0.000003	0.000037	0.000029	-20.489404	-85.330850	18.148744
46929	9.862423	-0.254487	0.712092	0.043574	0.025978	0.078554	1.000000	0.000020	0.000018	0.000035	-20.525065	-85.327761	18.186773
46930	9.894159	-0.261011	0.700469	0.056467	0.020007	0.109489	1.000000	0.000021	0.000026	0.000017	-20.547086	-85.332233	18.206110
46931	9.886959	-0.266844	0.734437	0.022428	0.015735	0.105065	1.000000	0.000009	0.000038	0.000019	-20.554224	-85.327711	18.214184
46932	9.862270	-0.255671	0.713786	0.041675	0.025338	0.078564	1.000000	0.000014	0.000023	0.000019	-20.549610	-85.327831	18.213803
46933	9.877368	-0.275253	0.714434	0.041934	0.006608	0.094218	1.000000	0.000013	0.000032	0.000027	-20.569283	-85.323627	18.234974
46934	9.893939	-0.262595	0.702978	0.054043	0.019376	0.109503	1.000000	0.000009	0.000038	0.000019	-20.600077	-85.329184	18.261991
46935	9.909040	-0.281953	0.703663	0.054280	0.000650	0.125157	1.000000	0.000010	0.000021	0.000004	-20.595529	-85.327227	18.258528
46936	9.862059	-0.257072	0.716198	0.038523	0.024798	0.078578	1.000000	0.000003	0.000037	0.000029	-20.620800	-85.329358	18.284010
46937	9.903250	-0.256032	0.726104	0.032604	0.027796	0.120354	1.000000	0.000017	0.000042	0.000025	-20.633251	-85.324336	18.298369
46938	9.869915	-0.282663	0.751038	0.003555	0.001427	0.089795	1.000000	0.000007	0.000021	0.000021	-20.652387	-85.328647	18.319959
46939	9.886518	-0.269849	0.739267	0.017372	0.014432	0.105077	1.000000	0.000022	0.000017	0.000009	-20.656384	-85.326981	18.326372
46940	9.876992	-0.277820	0.718633	0.036214	0.005394	0.094242	1.000000	0.000003	0.000037	0.000029	-20.682096	-85.329120	18.352122
46941	9.903044	-0.257533	0.728381	0.029957	0.027124	0.120364	1.000000	0.000025	0.000035	0.000015	-20.684261	-85.325300	18.357088
46942	9.871215	-0.251707	0.740928	0.014898	0.032694	0.089430	1.000000	0.000015	0.000015	0.000011	-20.698635	-85.328233	18.365338
46943	9.886315	-0.271292	0.741444	0.015093	0.013970	0.105082	1.000000	0.000017	0.000026	0.000035	-20.732678	-85.324629	18.401263
46944	9.912364	-0.251105	0.751196	0.007999	0.035280	0.131206	1.000000	0.000031	0.000046	0.000021	-20.726498	-85.324750	18.402868
46945	9.893345	-0.266695	0.709764	0.048011	0.017838	0.109537	1.000000	0.000006	0.000046	0.000019	-20.731385	-85.319690	18.408316
46946	9.870973	-0.253407	0.743565	0.012766	0.031930	0.089435	1.000000	0.000009	0.000014	0.000021	-20.748205	-85.323392	18.427945
46947	9.886065	-0.273022	0.744137	0.012951	0.013202	0.105086	1.000000	0.000013	0.000032	0.000027	-20.769348	-85.319498	18.450501
46948	9.886005	-0.273435	0.744788	0.011749	0.012825	0.105088	1.000000	0.000018	0.000033	0.000017	-20.774984	-85.322586	18.460246
46949	9.854160	-0.267775	0.757395	-0.002582	0.018572	0.074146	1.000000	0.000015	0.000025	0.000027	-20.799663	-85.319535	18.486663
46950	9.885887	-0.274383	0.745996	0.010911	0.012523	0.105089	1.000000	0.000028	0.000038	0.000031	-20.813032	-85.318707	18.501963
46951	9.863507	-0.261256	0.779731	-0.023487	0.026995	0.084975	1.000000	0.000011	0.000015	0.000029	-20.845832	-85.316617	18.536006
46952	9.902436	-0.262177	0.734960	0.023476	0.025275	0.120386	1.000000	0.000003	0.000043	0.000004	-20.839465	-85.318984	18.526622
46953	9.877783	-0.250943	0.714320	0.043109	0.035297	0.093912	1.000000	0.000034	0.000023	0.000031	-20.868061	-85.316021	18.559022
46954	9.885664	-0.275953	0.748370	0.007901	0.011975	0.105093	1.000000	0.000007	0.000037	0.000011	-20.877581	-85.320679	18.568968
46955	9.907937	-0.289985	0.715814	0.042008	-0.002483	0.125217	1.000000	0.000022	0.000027	0.000025	-20.898377	-85.317613	18.592240
46956	9.902213	-0.263625	0.737444	0.020412	0.024623	0.120395	1.000000	0.000011	0.000031	0.000019	-20.910875	-85.320983	18.608228
46957	9.881707	-0.311500	0.707937	0.046787	-0.024546	0.099101	1.000000	0.000022	0.000027	0.000025	-20.931837	-85.317976	18.631682
46958	9.902113	-0.264522	0.738470	0.019097	0.024298	0.120398	1.000000	0.000018	0.000017	0.000027	-20.960220	-85.321980	18.664520
46959	9.902068	-0.264905	0.738927	0.018924	0.024306	0.120399	1.000000	0.000028	0.000028	0.000015	-20.967278	-85.319322	18.674664
46960	9.877432	-0.253668	0.718200	0.037904	0.034055	0.093938	1.000000	0.000011	0.000031	0.000019	-20.976031	-85.320150	18.683647
46961	9.885297	-0.278797	0.752153	0.004052	0.011053	0.105096	1.000000	0.000020	0.000018	0.000035	-21.014620	-85.317685	18.724467
46962	9.859114	-0.299968	0.743704	0.010250	-0.010795	0.078975	1.000000	0.000016	0.000040	0.000017	-21.005579	-85.312750	18.709287
46963	9.892390	-0.274145	0.720159	0.037872	0.015199	0.109586	1.000000	0.000018	0.000033	0.000017	-21.013853	-85.309397	18.719464
46964	9.892332	-0.274607	0.720775	0.036735	0.015041	0.109590	1.000000	0.000024	0.000028	0.000033	-21.055494	-85.311604	18.759238
46965	9.892276	-0.275095	0.721367	0.036561	0.015055	0.109591	1.000000	0.000011	0.000031	0.000019	-21.068744	-85.308455	18.773559
46966	9.908890	-0.262420	0.709905	0.049011	0.028047	0.124905	1.000000	0.000027	0.000037	0.000023	-21.111364	-85.311552	18.808373
46967	9.882713	-0.283588	0.701380	0.055004	0.006350	0.098786	1.000000	0.000011	0.000015	0.000029	-21.146165	-85.309748	18.844195
46968	9.882667	-0.284047	0.701850	0.054748	0.006175	0.098788	1.000000	0.000036	0.000031	0.000021	-21.147689	-85.307228	18.845006
46969	9.845137	-0.251615	0.735559	0.020052	0.039422	0.062996	1.000000	0.000003	0.000037	0.000029	-21.171942	-85.303001	18.869319
46970	9.884112	-0.252647	0.690865	0.066772	0.037855	0.098463	1.000000	0.000019	0.000024	0.000009	-21.198693	-85.307946	18.890932
46971	9.876832	-0.258321	0.724760	0.032613	0.033631	0.093958	1.000000	0.000018	0.000033	0.000017	-21.208324	-85.304724	18.902238
46972	9.876771	-0.258682	0.725458	0.031267	0.033237	0.093964	1.000000	0.000027	0.000037	0.000023	-21.220726	-85.308022	18.923824
46973	9.869476	-0.264429	0.759438	-0.002901	0.029007	0.089452	1.000000	0.000010	0.000029	0.000011	-21.225731	-85.305474	18.929541
46974	9.908460	-0.265473	0.714756	0.042787	0.027285	0.124936	1.000000	0.000013	0.000032	0.000027	-21.284916	-85.314742	18.990525
46975	9.886051	-0.252172	0.748470	0.008331	0.041796	0.104771	1.000000	0.000014	0.000023	0.000019	-21.303347	-85.312659	19.010187
46976	9.893235	-0.247104	0.715839	0.041084	0.045787	0.109299	1.000000	0.000006	0.000046	0.000019	-21.315008	-85.314134	19.021788
46977	9.883738	-0.254988	0.695351	0.060930	0.037079	0.098504	1.000000	0.000019	0.000024	0.000009	-21.319660	-85.312400	19.028241
46978	9.885883	-0.253106	0.750369	0.004454	0.041399	0.104775	1.000000	0.000022	0.000027	0.000025	-21.382142	-85.322207	19.090085
46979	9.874813	-0.293463	0.741973	0.010656	0.000969	0.094304	1.000000	0.000008	0.000022	0.000029	-21.415405	-85.319970	19.123963
46980	9.885780	-0.254079	0.751393	0.002608	0.041091	0.104777	1.000000	0.000011	0.000031	0.000019	-21.438075	-85.325251	19.150666
46981	9.892978	-0.249091	0.718704	0.036298	0.045367	0.109319	1.000000	0.000013	0.000032	0.000027	-21.463355	-85.322138	19.177063
46982	9.876217	-0.262654	0.731546	0.021680	0.032261	0.093992	1.000000	0.000010	0.000040	0.000027	-21.486642	-85.321098	19.193394
46983	9.891259	-0.282370	0.732418	0.021658	0.013547	0.109637	1.000000	0.000031	0.000030	0.000031	-21.515657	-85.318004	19.225576
46984	9.885539	-0.256028	0.753903	-0.000169	0.040686	0.104779	1.000000	0.000016	0.000016	0.000019	-21.543089	-85.324352	19.257580
46985	9.883313	-0.258542	0.700061	0.053595	0.036227	0.098549	1.000000	0.000020	0.000050	0.000015	-21.543007	-85.319883	19.259320
46986	9.874377	-0.296674	0.746488	0.005551	-0.000039	0.094308	1.000000	0.000007	0.000031	0.000037	-21.564974	-85.318065	19.280686
46987	9.883181	-0.259625	0.701524	0.052856	0.035956	0.098554	1.000000	0.000020	0.000034	0.000025	-21.585925	-85.314854	19.303495
46988	9.890954	-0.284685	0.735633	0.018858	0.012775	0.109643	1.000000	0.000022	0.000027	0.000025	-21.595858	-85.312834	19.310395
46989	9.875797	-0.265914	0.736031	0.018336	0.031548	0.094002	1.000000	0.000011	0.000031	0.000019	-21.612172	-85.310217	19.327520
46990	9.907531	-0.272552	0.724900	0.031495	0.025339	0.124983	1.000000	0.000016	0.000050	0.000033	-21.619207	-85.309528	19.342439
46991	9.868380	-0.272155	0.770864	-0.016861	0.026887	0.089444	1.000000	0.000011	0.000021	0.000004	-21.620498	-85.308671	19.344460
46992	9.866192	-0.274625	0.716837	0.036436	0.022245	0.083231	1.000000	0.000022	0.000027	0.000025	-21.644421	-85.309186	19.364929
46993	9.907375	-0.273611	0.726635	0.030167	0.025242	0.124988	1.000000	0.000022	0.000027	0.000025	-21.669063	-85.306785	19.391704
46994	9.884933	-0.260321	0.760352	-0.005582	0.039422	0.104783	1.000000	0.000013	0.000032	0.000027	-21.701140	-85.311363	19.427787
46995	9.875451	-0.268432	0.739751	0.014211	0.030716	0.094011	1.000000	0.000022	0.000027	0.000025	-21.726015	-85.309030	19.454808
46996	9.884819	-0.261217	0.761521	-0.007428	0.039316	0.104782	1.000000	0.000011	0.000031	0.000019	-21.761594	-85.313711	19.486380
46997	9.875346	-0.269203	0.740869	0.012354	0.030610	0.094014	1.000000	0.000014	0.000023	0.000019	-21.782276	-85.312058	19.508161
46998	9.908717	-0.243636	0.717295	0.040328	0.056088	0.124706	1.000000	0.000019	0.000043	0.000033	-21.762272	-85.305602	19.495504
46999	9.858519	-0.283050	0.754142	-0.001564	0.017190	0.078669	1.000000	0.000016	0.000006	0.000004	-21.771255	-85.306428	19.505813
47000	9.923739	-0.263516	0.718232	0.039024	0.037040	0.140353	1.000000	0.000020	0.000018	0.000035	-21.811782	-85.310362	19.550349
47001	9.875167	-0.270836	0.742656	0.010760	0.029863	0.094018	1.000000	0.000005	0.000020	0.000013	-21.827619	-85.309331	19.566328
47002	9.882415	-0.265674	0.709992	0.044056	0.033948	0.098604	1.000000	0.000030	0.000045	0.000013	-21.823412	-85.307929	19.559078
47003	9.906865	-0.277498	0.732097	0.023873	0.023967	0.125008	1.000000	0.000021	0.000026	0.000017	-21.839349	-85.306133	19.576922
47004	9.882312	-0.266244	0.711217	0.041994	0.033950	0.098613	1.000000	0.000021	0.000026	0.000017	-21.886725	-85.312346	19.617129
47005	9.901098	-0.251320	0.754096	0.001473	0.051462	0.120133	1.000000	0.000014	0.000023	0.000019	-21.907844	-85.310760	19.639298
47006	9.859823	-0.253109	0.745303	0.004666	0.048288	0.078385	1.000000	0.000021	0.000026	0.000017	-21.968425	-85.323271	19.702212
47007	9.880530	-0.299509	0.725125	0.024848	0.002089	0.098910	1.000000	0.000020	0.000034	0.000025	-21.991174	-85.320411	19.726702
47008	9.910339	-0.244872	0.777147	-0.022826	0.059883	0.130885	1.000000	0.000017	0.000042	0.000025	-22.014460	-85.320732	19.745888
47009	9.882039	-0.268226	0.714250	0.037120	0.033694	0.098634	1.000000	0.000022	0.000027	0.000025	-22.041085	-85.318686	19.774528
47010	9.891397	-0.261030	0.736011	0.015483	0.042386	0.109387	1.000000	0.000029	0.000029	0.000023	-22.086359	-85.323144	19.813934
47011	9.876257	-0.242194	0.736421	0.014911	0.061171	0.093748	1.000000	0.000018	0.000033	0.000017	-22.100482	-85.320828	19.829491
47012	9.874558	-0.274785	0.749279	-0.000932	0.029217	0.094026	1.000000	0.000025	0.000019	0.000025	-22.157092	-85.330203	19.888827
47013	9.866757	-0.250592	0.716206	0.032437	0.052225	0.083012	1.000000	0.000021	0.000026	0.000017	-22.175367	-85.328771	19.908838
47014	9.898513	-0.257243	0.705000	0.045085	0.046095	0.114024	1.000000	0.000019	0.000043	0.000033	-22.203384	-85.331137	19.941707
47015	9.881719	-0.270840	0.717693	0.030844	0.033167	0.098657	1.000000	0.000011	0.000015	0.000029	-22.244148	-85.330362	19.983157
47016	9.881674	-0.271350	0.718115	0.029513	0.032905	0.098662	1.000000	0.000022	0.000027	0.000025	-22.274886	-85.334234	20.015045
47017	9.891035	-0.264075	0.739779	0.009002	0.041689	0.109398	1.000000	0.000005	0.000020	0.000013	-22.293670	-85.333666	20.033767
47018	9.866496	-0.252796	0.719030	0.028093	0.051417	0.083029	1.000000	0.000013	0.000048	0.000017	-22.290632	-85.332894	20.030300
47019	9.883168	-0.240159	0.707751	0.041531	0.064421	0.098404	1.000000	0.000002	0.000036	0.000021	-22.311290	-85.330285	20.050484
47020	9.874106	-0.278120	0.753984	-0.008518	0.028026	0.094025	1.000000	0.000014	0.000023	0.000019	-22.351349	-85.341274	20.100622
47021	9.881397	-0.273037	0.721277	0.025008	0.032287	0.098676	1.000000	0.000007	0.000037	0.000011	-22.358402	-85.339105	20.107821
47022	9.864592	-0.286451	0.734035	0.010394	0.018950	0.083300	1.000000	0.000024	0.000028	0.000033	-22.377290	-85.339674	20.131316
47023	9.871884	-0.281421	0.701366	0.043918	0.023211	0.087956	1.000000	0.000005	0.000036	0.000003	-22.375079	-85.337997	20.129048
47024	9.896305	-0.293302	0.723376	0.022850	0.013044	0.114319	1.000000	0.000008	0.000022	0.000029	-22.417666	-85.340886	20.166582
47025	9.896251	-0.293762	0.723919	0.022417	0.013082	0.114320	1.000000	0.000036	0.000031	0.000021	-22.436877	-85.338939	20.189348
47026	9.890520	-0.267308	0.745486	0.000686	0.040340	0.109407	1.000000	0.000004	0.000029	0.000021	-22.468389	-85.343273	20.219352
47027	9.896139	-0.294662	0.725091	0.020542	0.012884	0.114324	1.000000	0.000024	0.000028	0.000033	-22.506473	-85.341182	20.259609
47028	9.865944	-0.256657	0.725201	0.019986	0.050020	0.083056	1.000000	0.000035	0.000030	0.000013	-22.483500	-85.339209	20.242173
47029	9.884677	-0.241641	0.768238	-0.020687	0.067545	0.104491	1.000000	0.000018	0.000033	0.000017	-22.499143	-85.337270	20.259262
47030	9.865822	-0.257353	0.726618	0.018310	0.049920	0.083060	1.000000	0.000026	0.000045	0.000031	-22.533395	-85.338211	20.290158
47031	9.865759	-0.257815	0.727304	0.017867	0.049959	0.083061	1.000000	0.000014	0.000023	0.000019	-22.557749	-85.337235	20.315440
47032	9.891863	-0.237647	0.736861	0.011537	0.071299	0.109166	1.000000	0.000008	0.000022	0.000029	-22.558783	-85.334511	20.318183
47033	9.897485	-0.264857	0.716521	0.031392	0.043841	0.114087	1.000000	0.000014	0.000039	0.000009	-22.561485	-85.332272	20.321784
47034	9.874987	-0.251383	0.750248	-0.005982	0.058376	0.093775	1.000000	0.000024	0.000028	0.000033	-22.667498	-85.345670	20.421954
47035	9.890001	-0.270976	0.751028	-0.006281	0.039667	0.109408	1.000000	0.000019	0.000024	0.000009	-22.678589	-85.345136	20.434510
47036	9.874884	-0.252050	0.751375	-0.006500	0.058041	0.093776	1.000000	0.000002	0.000036	0.000021	-22.662341	-85.341427	20.419246
47037	9.856060	-0.267741	0.709532	0.033287	0.040585	0.072367	1.000000	0.000007	0.000021	0.000021	-22.691874	-85.340674	20.448881
47038	9.897227	-0.266742	0.719386	0.027469	0.043246	0.114102	1.000000	0.000004	0.000029	0.000021	-22.676073	-85.335566	20.429955
47039	9.865350	-0.260898	0.731743	0.013029	0.049083	0.083073	1.000000	0.000014	0.000023	0.000019	-22.700703	-85.334628	20.455470
47040	9.895421	-0.299734	0.732763	0.013156	0.011089	0.114339	1.000000	0.000022	0.000027	0.000025	-22.687887	-85.332735	20.450747
47041	9.880300	-0.281033	0.733145	0.012544	0.029881	0.098708	1.000000	0.000003	0.000037	0.000029	-22.718560	-85.329868	20.481141
47042	9.887632	-0.276131	0.700471	0.044727	0.033833	0.103412	1.000000	0.000021	0.000025	0.000017	-22.751574	-85.336535	20.515799
47043	9.880189	-0.281805	0.734336	0.010322	0.029664	0.098711	1.000000	0.000011	0.000031	0.000019	-22.772434	-85.334848	20.537260
47044	9.896913	-0.269188	0.722782	0.022803	0.042481	0.114117	1.000000	0.000014	0.000023	0.000019	-22.807744	-85.339112	20.567675
47045	9.870705	-0.290190	0.714271	0.028645	0.020817	0.088017	1.000000	0.000027	0.000036	0.000023	-22.828689	-85.336690	20.590994
47046	9.906173	-0.262269	0.745314	-0.000397	0.051271	0.124813	1.000000	0.000025	0.000035	0.000015	-22.892000	-85.346510	20.647608
47047	9.881692	-0.251051	0.724391	0.019101	0.061314	0.098492	1.000000	0.000025	0.000019	0.000025	-22.925976	-85.345891	20.683733
47048	9.887324	-0.278370	0.703922	0.039451	0.033828	0.103434	1.000000	0.000022	0.000027	0.000025	-22.941471	-85.341489	20.685836
47049	9.881591	-0.251868	0.725483	0.018706	0.061387	0.098493	1.000000	0.000025	0.000035	0.000015	-22.953868	-85.339605	20.700277
47050	9.890907	-0.244660	0.747328	-0.002542	0.070092	0.109181	1.000000	0.000024	0.000028	0.000033	-23.003160	-85.341438	20.742383
47051	9.864700	-0.265756	0.738729	0.003282	0.048433	0.083084	1.000000	0.000014	0.000023	0.000019	-23.029060	-85.340641	20.769003
47052	9.890808	-0.245554	0.748349	-0.004058	0.070072	0.109181	1.000000	0.000022	0.000027	0.000025	-23.065903	-85.342495	20.798574
47053	9.847807	-0.279589	0.751936	-0.012055	0.035471	0.067670	1.000000	0.000020	0.000034	0.000025	-23.092630	-85.340300	20.826679
47054	9.881319	-0.254045	0.728428	-0.000595	0.011093	0.098694	1.000000	0.000018	0.000033	0.000017	-20.015420	-85.522200	17.527839
47055	9.903724	-0.268288	0.696123	0.032761	-0.004102	0.119041	1.000000	0.000009	0.000038	0.000019	-20.009030	-85.521423	17.520484
47056	9.873787	-0.260059	0.762976	-0.035775	0.006351	0.093882	1.000000	0.000016	0.000016	0.000019	-20.013869	-85.522926	17.524001
47057	9.871795	-0.262696	0.708982	0.017666	0.001192	0.088004	1.000000	0.000025	0.000035	0.000015	-20.001469	-85.522635	17.512532
47058	9.894400	-0.306847	0.743528	-0.016912	-0.040840	0.114255	1.000000	0.000013	0.000032	0.000027	-20.010633	-85.522399	17.519789
47059	9.886724	-0.282746	0.710570	0.016400	-0.018373	0.103540	1.000000	0.000011	0.000031	0.000019	-20.007746	-85.522423	17.516243
47060	9.880988	-0.256310	0.732118	-0.004297	0.008896	0.098695	1.000000	0.000013	0.000032	0.000027	-20.014277	-85.521697	17.525174
47061	9.929569	-0.250034	0.708815	0.022778	0.015287	0.145250	1.000000	0.000021	0.000025	0.000017	-20.010141	-85.522365	17.521481
47062	9.888321	-0.251821	0.699902	0.028386	0.012173	0.103522	1.000000	0.000015	0.000025	0.000027	-20.022896	-85.522847	17.530291
47063	9.901546	-0.303620	0.713250	0.013942	-0.038674	0.119071	1.000000	0.000023	0.000043	0.000015	-20.006986	-85.521755	17.515006
47064	9.886444	-0.284753	0.713654	0.013310	-0.020186	0.103541	1.000000	0.000022	0.000027	0.000025	-20.014501	-85.521907	17.516866
47065	9.873112	-0.233701	0.701599	0.026520	0.029911	0.088000	1.000000	0.000025	0.000035	0.000015	-20.002101	-85.521617	17.505398
47066	9.880657	-0.258543	0.735781	-0.008126	0.006736	0.098695	1.000000	0.000014	0.000023	0.000019	-20.006440	-85.522810	17.505696
47067	9.912454	-0.265182	0.724466	0.005093	0.000314	0.129742	1.000000	0.000014	0.000023	0.000019	-20.007056	-85.523636	17.505959
47068	9.871203	-0.266961	0.715611	0.010809	-0.002804	0.088014	1.000000	0.000020	0.000034	0.000025	-20.008477	-85.522660	17.503464
47069	9.872911	-0.235243	0.703912	0.024033	0.028451	0.088010	1.000000	0.000020	0.000034	0.000025	-20.010709	-85.522081	17.506046
47070	9.865417	-0.240898	0.737672	-0.010545	0.024102	0.083168	1.000000	0.000008	0.000012	0.000013	-20.010195	-85.524312	17.510579
47071	9.895434	-0.279826	0.738814	-0.011177	-0.013955	0.114218	1.000000	0.000012	0.000041	0.000035	-20.023549	-85.522643	17.523396
47072	9.870986	-0.268605	0.717979	0.008334	-0.004288	0.088016	1.000000	0.000008	0.000028	0.000004	-20.000705	-85.523479	17.502933
47073	9.906445	-0.240670	0.748989	-0.018679	0.025731	0.124895	1.000000	0.000028	0.000038	0.000031	-20.008067	-85.522297	17.511656
47074	9.897029	-0.248758	0.728486	0.000780	0.016561	0.114220	1.000000	0.000018	0.000033	0.000017	-20.001634	-85.522327	17.506582
47075	9.870804	-0.269663	0.720082	0.006436	-0.005400	0.088017	1.000000	0.000016	0.000040	0.000017	-19.990472	-85.521394	17.495252
47076	9.880088	-0.262423	0.742020	-0.014226	0.003024	0.098690	1.000000	0.000013	0.000032	0.000027	-19.995309	-85.520568	17.499963
47077	9.895063	-0.282070	0.742914	-0.014862	-0.016195	0.114209	1.000000	0.000021	0.000025	0.000017	-19.991169	-85.521237	17.496265
47078	9.879977	-0.263318	0.743187	-0.015474	0.002285	0.098688	1.000000	0.000014	0.000033	0.000035	-20.008570	-85.520376	17.511952
47079	9.879913	-0.263629	0.743920	-0.016096	0.001912	0.098687	1.000000	0.000020	0.000040	-0.000001	-19.972905	-85.520178	17.476486
47080	9.885532	-0.290783	0.723794	0.003493	-0.026129	0.103535	1.000000	0.000003	0.000037	0.000029	-19.977596	-85.518534	17.489177
47081	9.887264	-0.259071	0.712086	0.016718	0.005125	0.103555	1.000000	0.000036	0.000031	0.000021	-19.973841	-85.518442	17.487669
47082	9.894750	-0.284027	0.746340	-0.017849	-0.018070	0.114201	1.000000	0.000013	0.000032	0.000027	-19.980568	-85.517885	17.494567
47083	9.879667	-0.265272	0.746604	-0.018452	0.000406	0.098683	1.000000	0.000022	0.000027	0.000025	-19.986301	-85.518108	17.500957
47084	9.896441	-0.252674	0.735096	-0.005272	0.012814	0.114224	1.000000	0.000010	0.000029	0.000011	-19.974442	-85.518706	17.495735
47085	9.887046	-0.260640	0.714538	0.014227	0.003639	0.103559	1.000000	0.000027	0.000036	0.000023	-19.971923	-85.517971	17.494362
47086	9.896333	-0.253293	0.736345	-0.006526	0.012075	0.114224	1.000000	0.000012	0.000022	0.000011	-19.963478	-85.519278	17.484614
47087	9.886945	-0.261284	0.715689	0.012972	0.002900	0.103561	1.000000	0.000020	0.000034	0.000025	-19.965703	-85.518700	17.487191
47088	9.879385	-0.267069	0.749691	-0.021613	-0.001436	0.098677	1.000000	0.000003	0.000037	0.000029	-19.974929	-85.517701	17.491424
47089	9.894339	-0.286775	0.750715	-0.022265	-0.020661	0.114187	1.000000	0.000036	0.000031	0.000021	-19.971176	-85.517611	17.489919
47090	9.888576	-0.230527	0.705321	0.024970	0.033414	0.103603	1.000000	0.000013	0.000032	0.000027	-19.977781	-85.517049	17.498905
47091	9.854846	-0.256861	0.730118	-0.003300	0.007498	0.072503	1.000000	0.000020	0.000034	0.000025	-19.980001	-85.516472	17.501476
47092	9.869803	-0.276492	0.731131	-0.003929	-0.011729	0.088012	1.000000	0.000018	0.000033	0.000017	-19.971781	-85.516202	17.493895
47093	9.894097	-0.288390	0.753283	-0.024710	-0.022153	0.114178	1.000000	0.000021	0.000025	0.000017	-19.967638	-85.516872	17.490196
47094	9.910892	-0.275727	0.741696	-0.011553	-0.009745	0.129731	1.000000	0.000012	0.000022	0.000011	-19.960233	-85.518349	17.479283
47095	9.878978	-0.269834	0.754043	-0.025962	-0.004029	0.098666	1.000000	0.000012	0.000041	0.000035	-19.973556	-85.516683	17.492070
47096	9.877100	-0.272545	0.700268	0.027511	-0.009242	0.092913	1.000000	0.000022	0.000033	-0.000001	-19.941230	-85.517144	17.461371
47097	9.869539	-0.278111	0.734068	-0.007057	-0.013575	0.088008	1.000000	0.000019	0.000018	0.000035	-19.965080	-85.517881	17.485601
47098	9.886332	-0.265704	0.722498	0.006166	-0.001180	0.103568	1.000000	0.000011	0.000031	0.000019	-19.961995	-85.517765	17.484561
47099	9.869427	-0.279005	0.735235	-0.008277	-0.014316	0.088006	1.000000	0.000027	0.000036	0.000023	-19.959474	-85.517032	17.483186
47100	9.886217	-0.266450	0.723796	0.004926	-0.001918	0.103569	1.000000	0.000021	0.000025	0.000017	-19.955888	-85.517655	17.481200
47101	9.886171	-0.266758	0.724311	0.004303	-0.002292	0.103569	1.000000	0.000021	0.000025	0.000017	-19.951740	-85.518326	17.477495
47102	9.871111	-0.247814	0.724540	0.003757	0.016204	0.088066	1.000000	0.000018	0.000033	0.000017	-19.944148	-85.518025	17.468300
47103	9.912233	-0.246932	0.734688	-0.003224	0.018534	0.129785	1.000000	0.000006	0.000030	0.000029	-19.955839	-85.517763	17.478751
47104	9.878472	-0.273161	0.759459	-0.031435	-0.007347	0.098648	1.000000	0.000025	0.000035	0.000015	-19.942731	-85.517202	17.463022
47105	9.902804	-0.255467	0.714656	0.015705	0.008982	0.119140	1.000000	0.000019	0.000018	0.000035	-19.966579	-85.517939	17.487250
47106	9.870892	-0.249529	0.726929	0.001304	0.014729	0.088069	1.000000	0.000014	0.000039	0.000009	-19.946960	-85.517534	17.460495
47107	9.902688	-0.256116	0.716028	0.014440	0.008244	0.119142	1.000000	0.000016	0.000040	0.000017	-19.935790	-85.516603	17.449157
47108	9.902623	-0.256478	0.716799	0.013837	0.007869	0.119143	1.000000	0.000027	0.000036	0.000023	-19.932704	-85.515756	17.451959
47109	9.885714	-0.269691	0.729444	-0.000602	-0.005256	0.103569	1.000000	0.000012	0.000022	0.000011	-19.923412	-85.517030	17.442102
47110	9.893209	-0.264813	0.696702	0.032738	-0.001689	0.108504	1.000000	0.000013	0.000032	0.000027	-19.930260	-85.516503	17.445213
47111	9.885602	-0.270537	0.730648	-0.001830	-0.005999	0.103568	1.000000	0.000020	0.000034	0.000025	-19.932471	-85.515928	17.447777
47112	9.887415	-0.238788	0.718723	0.011438	0.025245	0.103652	1.000000	0.000016	0.000016	0.000019	-19.936845	-85.517516	17.449074
47113	9.876190	-0.279072	0.710455	0.017058	-0.015554	0.092929	1.000000	0.000003	0.000037	0.000029	-19.945011	-85.516454	17.455695
47114	9.876131	-0.279434	0.711141	0.016498	-0.015931	0.092929	1.000000	0.000017	0.000032	0.000009	-19.925972	-85.516420	17.430953
47115	9.885389	-0.272077	0.732956	-0.004254	-0.007488	0.103567	1.000000	0.000022	0.000027	0.000025	-19.931691	-85.516645	17.437330
47116	9.885335	-0.272487	0.733533	-0.004913	-0.007851	0.103566	1.000000	0.000011	0.000031	0.000019	-19.930290	-85.516855	17.434408
47117	9.890963	-0.299801	0.713360	0.014513	-0.035911	0.108422	1.000000	0.000027	0.000036	0.000023	-19.927766	-85.516124	17.433032
47118	9.902076	-0.260341	0.722926	0.007661	0.004145	0.119152	1.000000	0.000016	0.000040	0.000017	-19.916830	-85.515147	17.426626
47119	9.885150	-0.273569	0.735614	-0.006775	-0.008967	0.103564	1.000000	0.000014	0.000023	0.000019	-19.917405	-85.515975	17.426849
47120	9.892669	-0.268754	0.702839	0.026541	-0.005411	0.108521	1.000000	0.000022	0.000027	0.000025	-19.923682	-85.516215	17.438456
47121	9.879354	-0.247355	0.757621	-0.028074	0.017979	0.098704	1.000000	0.000014	0.000039	0.000009	-19.902634	-85.515730	17.417028
47122	9.894279	-0.267004	0.758756	-0.028758	-0.001260	0.114192	1.000000	0.000021	0.000036	0.000033	-19.914557	-85.514576	17.427991
47123	9.877499	-0.250725	0.704483	0.024781	0.012341	0.093037	1.000000	0.000022	0.000027	0.000025	-19.920272	-85.514803	17.434362
47124	9.869869	-0.256327	0.738361	-0.009750	0.008057	0.088072	1.000000	0.000018	0.000033	0.000017	-19.912327	-85.514489	17.419680
47125	9.875503	-0.283572	0.718184	0.009668	-0.020008	0.092931	1.000000	0.000018	0.000033	0.000017	-19.904661	-85.514360	17.412153
47126	9.892330	-0.270947	0.706760	0.022864	-0.007647	0.108529	1.000000	0.000010	0.000029	0.000011	-19.892126	-85.514768	17.395868
47127	9.879009	-0.249506	0.761399	-0.031738	0.015768	0.098697	1.000000	0.000014	0.000023	0.000019	-19.892692	-85.515597	17.396082
47128	9.884648	-0.276752	0.741153	-0.012320	-0.012292	0.103555	1.000000	0.000025	0.000035	0.000015	-19.880713	-85.515267	17.380272
47129	9.909064	-0.259070	0.696407	0.034809	0.003960	0.124134	1.000000	0.000008	0.000022	0.000029	-19.895878	-85.515808	17.394502
47130	9.860261	-0.265897	0.720659	0.006671	-0.002982	0.077446	1.000000	0.000024	0.000034	0.000007	-19.873850	-85.515952	17.376138
47131	9.884485	-0.277702	0.742964	-0.014188	-0.013408	0.103551	1.000000	0.000018	0.000033	0.000017	-19.866179	-85.515823	17.368606
47132	9.884423	-0.278038	0.743674	-0.014809	-0.013775	0.103550	1.000000	0.000009	0.000038	0.000019	-19.860180	-85.515026	17.362383
47133	9.869378	-0.259178	0.743917	-0.015325	0.004730	0.088067	1.000000	0.000022	0.000027	0.000025	-19.865889	-85.515254	17.368749
47134	9.884313	-0.278857	0.744829	-0.016036	-0.014517	0.103547	1.000000	0.000014	0.000023	0.000019	-19.866336	-85.515969	17.371635
47135	9.874967	-0.286888	0.724219	0.003477	-0.023713	0.092927	1.000000	0.000034	0.000039	0.000021	-19.859092	-85.515082	17.366335
47136	9.876825	-0.255100	0.712317	0.016741	0.007527	0.093059	1.000000	0.000016	0.000016	0.000019	-19.864977	-85.516845	17.367755
47137	9.886060	-0.247835	0.734128	-0.004017	0.015978	0.103677	1.000000	0.000017	0.000042	0.000025	-19.863672	-85.515471	17.366497
47138	9.869101	-0.261093	0.746914	-0.018419	0.002893	0.088063	1.000000	0.000018	0.000033	0.000017	-19.855724	-85.515199	17.361207
47139	9.891637	-0.275429	0.714678	0.014783	-0.012471	0.108539	1.000000	0.000010	0.000029	0.000011	-19.842894	-85.515672	17.347508
47140	9.883973	-0.280909	0.748552	-0.019813	-0.016712	0.103536	1.000000	0.000011	0.000031	0.000019	-19.841859	-85.515829	17.334388
47141	9.885826	-0.249176	0.736818	-0.006508	0.014508	0.103678	1.000000	0.000017	0.000042	0.000025	-19.840558	-85.514455	17.333134
47142	9.893112	-0.274107	0.771345	-0.041198	-0.008618	0.114145	1.000000	0.000017	0.000042	0.000025	-19.839933	-85.513075	17.331784
47143	9.891394	-0.276800	0.717506	0.012256	-0.013944	0.108541	1.000000	0.000025	0.000025	-0.000001	-19.811291	-85.514479	17.303957
47144	9.885657	-0.250153	0.738760	-0.008358	0.013403	0.103678	1.000000	0.000019	0.000018	0.000035	-19.835142	-85.515105	17.331188
47145	9.900574	-0.270042	0.739742	-0.009110	-0.005855	0.119150	1.000000	0.000003	0.000037	0.000029	-19.843277	-85.514045	17.337778
47146	9.883891	-0.253692	0.685432	0.044469	0.007710	0.098086	1.000000	0.000021	0.000025	0.000017	-19.840111	-85.514732	17.330740
47147	9.891191	-0.278615	0.719600	0.009773	-0.015421	0.108541	1.000000	0.000027	0.000021	0.000033	-19.859199	-85.515317	17.351002
47148	9.902357	-0.239306	0.728794	0.002930	0.024637	0.119305	1.000000	0.000007	0.000021	0.000021	-19.865670	-85.516380	17.358971
47149	9.883467	-0.284739	0.753774	-0.025430	-0.020027	0.103518	1.000000	0.000022	0.000027	0.000025	-19.871378	-85.516609	17.365335
47150	9.876073	-0.260813	0.720624	0.008033	0.002365	0.093072	1.000000	0.000024	0.000028	0.000033	-19.887334	-85.516326	17.381215
47151	9.890982	-0.280630	0.721685	0.007271	-0.016897	0.108541	1.000000	0.000020	0.000034	0.000025	-19.889523	-85.515753	17.383757
47152	9.892873	-0.248752	0.709840	0.020580	0.014327	0.108707	1.000000	0.000008	0.000028	0.000003	-19.867690	-85.516696	17.363567
47153	9.890871	-0.281150	0.723006	0.006017	-0.017634	0.108541	1.000000	0.000017	0.000042	0.000025	-19.866369	-85.515323	17.362293
47154	9.900085	-0.273779	0.744906	-0.014736	-0.009168	0.119141	1.000000	0.000019	0.000024	0.000009	-19.852568	-85.516364	17.347982
47155	9.885072	-0.254828	0.744956	-0.015214	0.009349	0.103674	1.000000	0.000015	0.000025	0.000027	-19.862992	-85.516749	17.358267
47156	9.875750	-0.262943	0.724269	0.004302	0.000151	0.093075	1.000000	0.000011	0.000031	0.000019	-19.860687	-85.516776	17.359690
47157	9.899925	-0.274983	0.746579	-0.016610	-0.010282	0.119137	1.000000	0.000013	0.000032	0.000027	-19.867597	-85.516361	17.366156
47158	9.867973	-0.269034	0.758898	-0.030870	-0.004447	0.088031	1.000000	0.000017	0.000042	0.000025	-19.866674	-85.514921	17.364389
47159	9.892479	-0.251480	0.714361	0.016239	0.011732	0.108718	1.000000	0.000020	0.000034	0.000025	-19.868862	-85.514350	17.366929
47160	9.890467	-0.283873	0.727460	0.001652	-0.020215	0.108537	1.000000	0.000008	0.000028	0.000003	-19.847374	-85.515350	17.345334
47161	9.852837	-0.250721	0.760377	-0.032600	0.013343	0.072564	1.000000	0.000022	0.000027	0.000025	-19.853077	-85.515580	17.351693
47162	9.907288	-0.271671	0.716586	0.014221	-0.008268	0.124182	1.000000	0.000018	0.000033	0.000017	-19.845334	-85.515304	17.339858
47163	9.869652	-0.238665	0.749524	-0.020023	0.025297	0.088208	1.000000	0.000015	0.000025	0.000027	-19.855752	-85.515690	17.350137
47164	9.880990	-0.293094	0.708537	0.019315	-0.030529	0.097943	1.000000	0.000020	0.000034	0.000025	-19.858839	-85.515162	17.356212
47165	9.893757	-0.251089	0.772446	-0.041583	0.014500	0.114256	1.000000	0.000010	0.000029	0.000011	-19.845992	-85.515636	17.342496
47166	9.901389	-0.246186	0.739583	-0.008299	0.017991	0.119316	1.000000	0.000026	0.000011	0.000017	-19.850600	-85.518053	17.345586
47167	9.907048	-0.273695	0.719123	0.011058	-0.010117	0.124185	1.000000	0.000003	0.000021	0.000039	-19.880340	-85.518307	17.373805
47168	9.906985	-0.274309	0.719754	0.010435	-0.010483	0.124185	1.000000	0.000017	0.000042	0.000025	-19.879455	-85.516924	17.381972
47169	9.886267	-0.228352	0.740881	-0.010006	0.035773	0.103861	1.000000	0.000014	0.000039	0.000009	-19.858367	-85.516443	17.360508
47170	9.874973	-0.268475	0.732780	-0.004436	-0.005010	0.093074	1.000000	0.000022	0.000027	0.000025	-19.864516	-85.516678	17.372969
47171	9.891851	-0.256099	0.721373	0.008727	0.007299	0.108732	1.000000	0.000020	0.000034	0.000025	-19.866699	-85.516108	17.375505
47172	9.865604	-0.277078	0.712761	0.014458	-0.014581	0.082489	1.000000	0.000022	0.000027	0.000025	-19.873264	-85.516380	17.380496
47173	9.874800	-0.269877	0.734595	-0.006313	-0.006120	0.093072	1.000000	0.000013	0.000032	0.000027	-19.880160	-85.515966	17.386947
47174	9.867065	-0.275280	0.768409	-0.040870	-0.010325	0.087991	1.000000	0.000018	0.000023	0.000001	-19.856830	-85.517514	17.359811
47175	9.868992	-0.243334	0.756684	-0.027532	0.020881	0.088201	1.000000	0.000029	0.000053	0.000021	-19.842548	-85.515030	17.346866
47176	9.873056	-0.273375	0.682269	0.045899	-0.012226	0.087575	1.000000	0.000014	0.000033	0.000035	-19.860131	-85.514166	17.353986
47177	9.906451	-0.277759	0.725767	0.004796	-0.013822	0.124185	1.000000	0.000005	0.000020	0.000013	-19.855509	-85.515599	17.348004
47178	9.882203	-0.266408	0.704667	0.024523	-0.004129	0.098158	1.000000	0.000023	0.000043	0.000015	-19.839606	-85.514403	17.329625
47179	9.900640	-0.251341	0.747822	-0.016397	0.013182	0.119314	1.000000	0.000014	0.000023	0.000019	-19.840141	-85.515235	17.329808
47180	9.898594	-0.283823	0.760783	-0.030983	-0.018763	0.119090	1.000000	0.000014	0.000023	0.000019	-19.840777	-85.516013	17.336253
47181	9.906242	-0.279097	0.728099	0.002326	-0.015309	0.124184	1.000000	0.000020	0.000034	0.000025	-19.842957	-85.515444	17.338785
47182	9.881988	-0.267847	0.707139	0.022043	-0.005611	0.098163	1.000000	0.000023	0.000043	0.000015	-19.827737	-85.514332	17.317031
47183	9.898412	-0.285000	0.762710	-0.032857	-0.019868	0.119082	1.000000	0.000011	0.000015	0.000029	-19.846373	-85.515676	17.335033
47184	9.859240	-0.254594	0.740911	-0.012945	0.008744	0.077618	1.000000	0.000022	0.000027	0.000025	-19.853098	-85.515912	17.336305
47185	9.917264	-0.240978	0.739344	-0.006348	0.023632	0.134987	1.000000	0.000006	0.000046	0.000019	-19.843067	-85.514342	17.325011
47186	9.891013	-0.261973	0.730697	-0.000589	0.001758	0.108738	1.000000	0.000029	0.000013	0.000033	-19.865801	-85.515635	17.347976
47187	9.866781	-0.250919	0.709487	0.019140	0.011445	0.082726	1.000000	0.000010	0.000039	0.000027	-19.869156	-85.514421	17.350584
47188	9.868243	-0.248763	0.764644	-0.035542	0.016108	0.088184	1.000000	0.000021	0.000025	0.000017	-19.864527	-85.514959	17.354136
47189	9.892868	-0.231208	0.719973	0.011549	0.032206	0.108980	1.000000	0.000020	0.000034	0.000025	-19.866697	-85.514390	17.356660
47190	9.875849	-0.244406	0.732654	-0.002843	0.019178	0.093298	1.000000	0.000018	0.000033	0.000017	-19.859006	-85.514207	17.350013
47191	9.858841	-0.257651	0.745142	-0.017244	0.006149	0.077613	1.000000	0.000011	0.000015	0.000029	-19.877647	-85.515551	17.368020
47192	9.890679	-0.264556	0.734280	-0.004296	-0.000476	0.108737	1.000000	0.000020	0.000050	0.000015	-19.858489	-85.513676	17.353091
47193	9.898351	-0.259697	0.701717	0.029012	0.002960	0.113861	1.000000	0.000005	0.000020	0.000013	-19.853858	-85.515109	17.347100
47194	9.873604	-0.278109	0.747489	-0.019309	-0.013870	0.093047	1.000000	0.000007	0.000031	0.000037	-19.875279	-85.514334	17.358955
47195	9.892546	-0.233746	0.723567	0.007837	0.029971	0.108990	1.000000	0.000004	0.000028	0.000021	-19.876992	-85.514522	17.359215
47196	9.905382	-0.285559	0.737241	-0.006993	-0.020876	0.124172	1.000000	0.000009	0.000038	0.000019	-19.870684	-85.513747	17.352468
47197	9.890395	-0.266735	0.737316	-0.007401	-0.002336	0.108735	1.000000	0.000001	0.000020	0.000031	-19.890500	-85.514446	17.370550
47198	9.881106	-0.274989	0.716655	0.012149	-0.011559	0.098175	1.000000	0.000010	0.000039	0.000027	-19.893479	-85.513125	17.369013
47199	9.881041	-0.275526	0.717344	0.011526	-0.011932	0.098175	1.000000	0.000006	0.000030	0.000029	-19.905053	-85.512868	17.379346
47200	9.878948	-0.308101	0.730310	-0.003104	-0.043859	0.097911	1.000000	0.000016	0.000016	0.000019	-19.909794	-85.514533	17.383048
47201	9.886650	-0.303347	0.697533	0.030202	-0.040441	0.103051	1.000000	0.000036	0.000031	0.000021	-19.906081	-85.514454	17.381585
47202	9.856738	-0.265205	0.697185	0.030038	-0.002977	0.072189	1.000000	0.000021	0.000035	0.000033	-19.918542	-85.513388	17.385663
47203	9.890053	-0.269543	0.740867	-0.011124	-0.004556	0.108731	1.000000	0.000035	0.000030	0.000013	-19.904965	-85.513755	17.374126
47204	9.906978	-0.257026	0.729487	0.002041	0.007716	0.124433	1.000000	0.000037	0.000031	0.000021	-19.901537	-85.513600	17.363120
47205	9.904867	-0.289419	0.742628	-0.012598	-0.024211	0.124158	1.000000	0.000035	0.000030	0.000013	-19.887957	-85.513966	17.351579
47206	9.889884	-0.270359	0.742826	-0.012976	-0.005657	0.108728	1.000000	0.000041	0.000041	0.000019	-19.876318	-85.512871	17.336924
47207	9.865692	-0.258971	0.721632	0.006797	0.004028	0.082748	1.000000	0.000022	0.000017	0.000009	-19.865807	-85.514793	17.326951
47208	9.874861	-0.251579	0.743472	-0.013974	0.012526	0.093299	1.000000	0.000017	0.000042	0.000025	-19.864863	-85.513390	17.325771
47209	9.889708	-0.271106	0.744886	-0.014843	-0.006768	0.108725	1.000000	0.000017	0.000047	-0.000001	-19.825660	-85.512400	17.286479
47210	9.882499	-0.246956	0.711800	0.018721	0.015551	0.098460	1.000000	0.000008	0.000022	0.000029	-19.841222	-85.512893	17.294234
47211	9.874673	-0.252532	0.745632	-0.015832	0.011420	0.093297	1.000000	0.000002	0.000036	0.000021	-19.839384	-85.512281	17.290640
47212	9.897296	-0.267175	0.713694	0.017219	-0.004108	0.113888	1.000000	-0.000001	0.000043	0.000021	-19.834844	-85.510868	17.284701
47213	9.865322	-0.261105	0.725905	0.003075	0.001819	0.082750	1.000000	0.000013	0.000032	0.000027	-19.841699	-85.510457	17.291111
47214	9.882242	-0.248781	0.714732	0.016224	0.014078	0.098467	1.000000	-0.000003	0.000051	0.000021	-19.833707	-85.508257	17.274413
47215	9.865195	-0.261902	0.727349	0.001826	0.001085	0.082751	1.000000	0.000008	0.000012	0.000013	-19.832586	-85.510491	17.272236
47216	9.897054	-0.268797	0.716432	0.014716	-0.005585	0.113891	1.000000	0.000017	0.000042	0.000025	-19.831752	-85.509121	17.279375
47217	9.896995	-0.269006	0.717175	0.014092	-0.005959	0.113892	1.000000	0.000022	0.000032	-0.000001	-19.799632	-85.509731	17.247772
47218	9.889162	-0.274119	0.751019	-0.020464	-0.010071	0.108712	1.000000	0.000026	0.000026	0.000007	-19.781518	-85.510692	17.221863
47219	9.879911	-0.282074	0.730247	-0.000933	-0.019314	0.098170	1.000000	0.000032	0.000021	0.000023	-19.786026	-85.511572	17.228127
47220	9.906068	-0.261922	0.740018	-0.007923	0.001803	0.124433	1.000000	0.000028	0.000028	0.000015	-19.777137	-85.512000	17.215321
47221	9.874103	-0.255635	0.752096	-0.022049	0.007747	0.093289	1.000000	0.000025	0.000035	0.000015	-19.764732	-85.511722	17.203856
47222	9.900246	-0.235560	0.762026	-0.029040	0.028864	0.119552	1.000000	0.000031	0.000030	0.000031	-19.775568	-85.511274	17.215621
47223	9.920804	-0.282170	0.742569	-0.010058	-0.018241	0.139847	1.000000	0.000020	0.000040	-0.000001	-19.739905	-85.511082	17.180173
47224	9.873930	-0.256606	0.754034	-0.023906	0.006647	0.093286	1.000000	-0.000006	0.000018	0.000033	-19.765081	-85.511943	17.199109
47225	9.890879	-0.244492	0.742556	-0.010755	0.018881	0.109015	1.000000	0.000014	0.000033	0.000035	-19.781802	-85.511090	17.215597
47226	9.920629	-0.283732	0.744314	-0.011940	-0.019345	0.139843	1.000000	0.000013	0.000032	0.000027	-19.789083	-85.510653	17.218630
47227	9.881561	-0.253268	0.722525	0.008159	0.009265	0.098482	1.000000	-0.000003	0.000026	0.000023	-19.795448	-85.510997	17.222746
47228	9.873695	-0.258949	0.756317	-0.026370	0.005168	0.093280	1.000000	0.000000	0.000029	0.000039	-19.820958	-85.510334	17.246038
47229	9.872245	-0.262145	0.702472	0.027093	-0.000361	0.087953	1.000000	0.000009	0.000038	0.000019	-19.814410	-85.509568	17.238533
47230	9.887095	-0.281809	0.703653	0.026189	-0.019665	0.103366	1.000000	-0.000004	0.000025	0.000015	-19.811029	-85.510295	17.227434
47231	9.873517	-0.260228	0.758194	-0.028227	0.004061	0.093276	1.000000	0.000020	0.000034	0.000025	-19.813182	-85.509729	17.229940
47232	9.840158	-0.256762	0.715863	0.011765	0.004864	0.056808	1.000000	0.000017	0.000042	0.000025	-19.812003	-85.508322	17.226673
47233	9.896103	-0.275364	0.727001	0.004165	-0.011899	0.113896	1.000000	0.000037	0.000031	0.000021	-19.808303	-85.508247	17.225225
47234	9.864129	-0.269128	0.739074	-0.009931	-0.005922	0.082744	1.000000	0.000044	0.000033	0.000019	-19.800422	-85.507999	17.215008
47235	9.873256	-0.261753	0.761068	-0.030711	0.002593	0.093269	1.000000	0.000034	0.000039	0.000021	-19.793196	-85.507123	17.209730
47236	9.895922	-0.276286	0.729108	0.002293	-0.013005	0.113895	1.000000	0.000042	0.000032	0.000011	-19.775312	-85.507295	17.179240
47237	9.905051	-0.268860	0.751068	-0.018487	-0.004486	0.124418	1.000000	0.000027	0.000036	0.000023	-19.772773	-85.506575	17.177852
47238	9.890104	-0.249908	0.751021	-0.018785	0.014081	0.109011	1.000000	0.000016	0.000016	0.000019	-19.776631	-85.508121	17.182246
47239	9.897882	-0.245268	0.718426	0.014520	0.017400	0.114238	1.000000	0.000015	0.000049	0.000025	-19.771729	-85.505955	17.177092
47240	9.904872	-0.270164	0.752959	-0.020338	-0.005598	0.124414	1.000000	0.000008	0.000022	0.000029	-19.786860	-85.506448	17.193218
47241	9.863711	-0.271954	0.743602	-0.014260	-0.008505	0.082737	1.000000	0.000000	0.000029	0.000039	-19.812908	-85.505905	17.217437
47242	9.895568	-0.279173	0.732809	-0.001412	-0.015235	0.113892	1.000000	0.000013	0.000032	0.000027	-19.819383	-85.505392	17.220111
47243	9.897645	-0.247593	0.720884	0.012054	0.015911	0.114244	1.000000	-0.000013	0.000032	0.000025	-19.826873	-85.505092	17.224252
47244	9.880560	-0.260807	0.733450	-0.002326	0.002965	0.098489	1.000000	0.000004	0.000028	0.000021	-19.828515	-85.505198	17.225213
47245	9.871329	-0.268823	0.712757	0.017209	-0.006302	0.087973	1.000000	0.000010	0.000029	0.000011	-19.815635	-85.505677	17.211470
47246	9.884836	-0.290960	0.659546	0.070350	-0.030825	0.098102	1.000000	0.000003	0.000043	0.000003	-19.786179	-85.504969	17.179683
47247	9.886105	-0.288404	0.714799	0.015640	-0.025983	0.103374	1.000000	0.000017	0.000032	0.000009	-19.768614	-85.505292	17.162052
47248	9.888213	-0.256670	0.702647	0.029117	0.005167	0.103737	1.000000	0.000039	0.000008	0.000031	-19.790356	-85.507293	17.188308
47249	9.859806	-0.309525	0.706429	0.020791	-0.048190	0.077099	1.000000	0.000028	0.000043	0.000005	-19.759892	-85.506505	17.159070
47250	9.895133	-0.281564	0.737752	-0.006369	-0.018200	0.113885	1.000000	0.000037	0.000031	0.000021	-19.755922	-85.506346	17.166538
47251	9.871017	-0.270316	0.716501	0.013498	-0.008521	0.087977	1.000000	0.000029	0.000029	0.000023	-19.756906	-85.506428	17.168976
47252	9.906349	-0.242553	0.747657	-0.013684	0.021473	0.124763	1.000000	0.000029	0.000029	0.000023	-19.758453	-85.506479	17.172717
47253	9.880084	-0.263468	0.738896	-0.007907	-0.000364	0.098487	1.000000	0.000015	0.000025	0.000027	-19.768797	-85.506870	17.182920
47254	9.880017	-0.263979	0.739607	-0.008539	-0.000724	0.098486	1.000000	0.000008	0.000047	0.000027	-19.769556	-85.504891	17.181871
47255	9.896998	-0.251723	0.728301	0.004599	0.011472	0.114256	1.000000	0.000025	0.000019	0.000025	-19.778747	-85.505928	17.192021
47256	9.879898	-0.264972	0.740835	-0.009765	-0.001466	0.098485	1.000000	0.000003	0.000037	0.000029	-19.786306	-85.504756	17.187633
47257	9.891164	-0.225737	0.750277	-0.016445	0.038572	0.109371	1.000000	0.000003	0.000037	0.000029	-19.794262	-85.503703	17.194046
47258	9.908150	-0.213460	0.738987	-0.003287	0.050763	0.125145	1.000000	0.000011	0.000031	0.000019	-19.790859	-85.503637	17.190487
47259	9.888878	-0.258564	0.764119	-0.031779	0.006317	0.108986	1.000000	0.000010	0.000029	0.000011	-19.777968	-85.504116	17.176732
47260	9.887544	-0.261512	0.710231	0.021696	0.000709	0.103757	1.000000	0.000018	0.000033	0.000017	-19.770068	-85.503935	17.168269
47261	9.887483	-0.261822	0.710963	0.021072	0.000336	0.103758	1.000000	0.000016	0.000040	0.000017	-19.758824	-85.503015	17.156866
47262	9.864654	-0.247903	0.744311	-0.013121	0.015257	0.083092	1.000000	0.000013	0.000032	0.000027	-19.765765	-85.502582	17.167700
47263	9.885189	-0.294749	0.724809	0.005719	-0.031915	0.103367	1.000000	0.000014	0.000023	0.000019	-19.766249	-85.503418	17.167832
47264	9.887326	-0.262873	0.712760	0.019216	-0.000776	0.103762	1.000000	0.000033	0.000028	0.000005	-19.742674	-85.504174	17.151394
47265	9.887268	-0.263131	0.713465	0.018593	-0.001150	0.103763	1.000000	0.000017	0.000042	0.000025	-19.741283	-85.502811	17.150055
47266	9.875862	-0.303388	0.705452	0.024014	-0.041920	0.092868	1.000000	0.000022	0.000027	0.000025	-19.747874	-85.503096	17.157024
47267	9.902021	-0.283403	0.715381	0.016978	-0.020840	0.119150	1.000000	0.000020	0.000034	0.000025	-19.750004	-85.502533	17.159508
47268	9.894054	-0.288874	0.749303	-0.017565	-0.024864	0.113857	1.000000	0.000020	0.000034	0.000025	-19.752274	-85.501931	17.157999
47269	9.879120	-0.270005	0.749345	-0.017829	-0.006282	0.098472	1.000000	0.000013	0.000032	0.000027	-19.759072	-85.501524	17.164353
47270	9.869898	-0.278232	0.728780	0.001733	-0.015553	0.087978	1.000000	0.000010	0.000039	0.000027	-19.762035	-85.500228	17.175267
47271	9.903017	-0.282687	0.772500	-0.039590	-0.017086	0.124342	1.000000	0.000011	0.000015	0.000029	-19.780558	-85.501576	17.193154
47272	9.903920	-0.253832	0.705976	0.028005	0.008809	0.119563	1.000000	0.000017	0.000042	0.000025	-19.778949	-85.500125	17.195236
47273	9.871913	-0.247910	0.718070	0.013994	0.014841	0.088391	1.000000	-0.000008	0.000036	0.000048	-19.815885	-85.498493	17.229452
47274	9.854776	-0.261215	0.730748	-0.000377	0.001926	0.072596	1.000000	0.000032	0.000037	0.000013	-19.799346	-85.498050	17.210880
47275	9.880943	-0.241162	0.740670	-0.007419	0.023001	0.098881	1.000000	0.000008	0.000022	0.000029	-19.814333	-85.498597	17.224927
47276	9.895757	-0.260928	0.741803	-0.008399	0.003671	0.114260	1.000000	0.000028	0.000028	0.000015	-19.805296	-85.499058	17.224157
47277	9.895707	-0.261134	0.742399	-0.009023	0.003298	0.114259	1.000000	0.000017	0.000032	0.000009	-19.787738	-85.499384	17.206535
47278	9.886511	-0.269084	0.721692	0.010516	-0.005962	0.103773	1.000000	0.000021	0.000025	0.000017	-19.784471	-85.500107	17.206780
47279	9.886455	-0.269417	0.722328	0.009892	-0.006335	0.103774	1.000000	0.000009	0.000038	0.000019	-19.777883	-85.499344	17.199237
47280	9.886403	-0.269675	0.722950	0.009267	-0.006701	0.103774	1.000000	0.000019	0.000024	0.000009	-19.764342	-85.500469	17.190197
47281	9.895490	-0.262263	0.744889	-0.011531	0.001822	0.114257	1.000000	0.000017	0.000042	0.000025	-19.762930	-85.499107	17.188838
47282	9.901141	-0.289628	0.725005	0.007652	-0.026405	0.119148	1.000000	0.000024	0.000034	0.000007	-19.740886	-85.499246	17.171004
47283	9.869141	-0.283310	0.737021	-0.006340	-0.020359	0.087967	1.000000	0.000003	0.000037	0.000029	-19.748806	-85.498194	17.177381
47284	9.886159	-0.271036	0.725771	0.006779	-0.008181	0.103775	1.000000	0.000018	0.000033	0.000017	-19.741572	-85.498059	17.169609
47285	9.894042	-0.266560	0.693182	0.040072	-0.004909	0.109107	1.000000	0.000007	0.000031	0.000037	-19.762853	-85.497364	17.189858
47286	9.886044	-0.272257	0.726883	0.005539	-0.008923	0.103775	1.000000	0.000012	0.000016	0.000037	-19.791336	-85.498215	17.215257
47287	9.871127	-0.253477	0.726887	0.005298	0.009669	0.088405	1.000000	0.000015	0.000049	0.000024	-19.786377	-85.496054	17.210050
47288	9.888149	-0.241284	0.715653	0.018418	0.021840	0.104220	1.000000	0.000008	0.000022	0.000029	-19.801709	-85.496577	17.224830
47289	9.885852	-0.273864	0.728886	0.003671	-0.010035	0.103775	1.000000	0.000017	0.000042	0.000025	-19.800281	-85.495216	17.223456
47290	9.888026	-0.242305	0.717012	0.017167	0.021103	0.104224	1.000000	0.000031	0.000030	0.000031	-19.811912	-85.494881	17.234527
47291	9.894858	-0.267059	0.751552	-0.017762	-0.001872	0.114248	1.000000	0.000025	0.000035	0.000015	-19.799534	-85.494610	17.223092
47292	9.879942	-0.248049	0.751663	-0.017991	0.016726	0.098880	1.000000	0.000017	0.000042	0.000025	-19.798252	-85.493221	17.223492
47293	9.894726	-0.267726	0.753053	-0.019006	-0.002614	0.114245	1.000000	0.000017	0.000031	0.000009	-19.780711	-85.493548	17.205887
47294	9.896908	-0.236018	0.741221	-0.005504	0.028520	0.114702	1.000000	0.000026	0.000045	0.000030	-19.784976	-85.491596	17.212807
47295	9.870625	-0.256745	0.732533	0.000318	0.006717	0.088409	1.000000	0.000011	0.000021	0.000003	-19.765803	-85.493321	17.192864
47296	9.885430	-0.276422	0.733625	-0.000703	-0.012620	0.103773	1.000000	0.000008	0.000022	0.000029	-19.781164	-85.493880	17.211866
47297	9.902470	-0.264288	0.722289	0.012406	-0.000464	0.119598	1.000000	0.000028	0.000038	0.000030	-19.788436	-85.492722	17.220501
47298	9.876180	-0.285165	0.713628	0.018235	-0.022262	0.093305	1.000000	0.000011	0.000031	0.000019	-19.785543	-85.492723	17.213441
47299	9.893221	-0.272935	0.702366	0.031344	-0.010109	0.109134	1.000000	0.000003	0.000037	0.000029	-19.793419	-85.491672	17.219774
47300	9.885176	-0.278436	0.736277	-0.003194	-0.014102	0.103770	1.000000	0.000013	0.000032	0.000027	-19.800537	-85.491264	17.232292
47301	9.885113	-0.278896	0.736953	-0.003817	-0.014475	0.103769	1.000000	0.000002	0.000036	0.000021	-19.798590	-85.490656	17.228593
47302	9.883913	-0.282092	0.683141	0.049655	-0.020115	0.098676	1.000000	0.000020	0.000034	0.000025	-19.801132	-85.490096	17.233007
47303	9.875876	-0.287563	0.716856	0.015118	-0.024113	0.093306	1.000000	0.000011	0.000015	0.000029	-19.819617	-85.491444	17.250854
47304	9.870115	-0.260968	0.737889	-0.005287	0.003395	0.088410	1.000000	0.000022	0.000027	0.000025	-19.825819	-85.491690	17.257520
47305	9.875776	-0.288428	0.717898	0.013867	-0.024852	0.093306	1.000000	0.000025	0.000035	0.000015	-19.813447	-85.491421	17.246092
47306	9.869998	-0.261682	0.739203	-0.006523	0.002654	0.088409	1.000000	0.000020	0.000034	0.000025	-19.815579	-85.490811	17.249431
47307	9.869938	-0.262064	0.739874	-0.007145	0.002282	0.088409	1.000000	0.000018	0.000033	0.000017	-19.807859	-85.490695	17.241858
47308	9.901826	-0.269172	0.729273	0.005551	-0.004543	0.119604	1.000000	0.000013	0.000032	0.000027	-19.814898	-85.490245	17.240013
47309	9.869813	-0.262880	0.741241	-0.008383	0.001546	0.088408	1.000000	0.000016	0.000040	0.000017	-19.803637	-85.489331	17.228597
47310	9.902819	-0.267062	0.785128	-0.049791	0.000016	0.124671	1.000000	0.000012	0.000022	0.000011	-19.794667	-85.490580	17.213816
47311	9.901662	-0.270272	0.731098	0.003681	-0.005657	0.119604	1.000000	0.000017	0.000026	0.000035	-19.814768	-85.490530	17.233984
47312	9.869651	-0.263926	0.743024	-0.010239	0.000444	0.088406	1.000000	0.000003	0.000043	0.000003	-19.785196	-85.489807	17.197419
47313	9.901544	-0.270939	0.732444	0.002439	-0.006398	0.119604	1.000000	0.000034	0.000023	0.000031	-19.799536	-85.490250	17.213725
47314	9.877545	-0.259820	0.711087	0.022443	0.003300	0.093802	1.000000	0.000010	0.000039	0.000027	-19.802416	-85.488966	17.217429
47315	9.869473	-0.265172	0.744953	-0.012091	-0.000671	0.088404	1.000000	0.000021	0.000025	0.000017	-19.798236	-85.489650	17.213697
47316	9.901367	-0.272217	0.734356	0.000579	-0.007512	0.119603	1.000000	0.000009	0.000038	0.000019	-19.792045	-85.488879	17.204523
47317	9.884179	-0.285221	0.746990	-0.013771	-0.020389	0.103750	1.000000	0.000018	0.000033	0.000017	-19.784323	-85.488764	17.196948
47318	9.886412	-0.253626	0.735127	-0.000243	0.010733	0.104256	1.000000	0.000019	0.000043	0.000032	-19.793522	-85.486994	17.208397
47319	9.886343	-0.254212	0.735852	-0.000866	0.010361	0.104256	1.000000	0.000006	0.000030	0.000029	-19.804898	-85.486743	17.218532
47320	9.886286	-0.254670	0.736463	-0.001493	0.009997	0.104256	1.000000	0.000037	0.000031	0.000021	-19.801916	-85.486683	17.218397
47321	9.877126	-0.262708	0.715827	0.018072	0.000714	0.093812	1.000000	0.000000	0.000035	0.000013	-19.790136	-85.486520	17.204657
47322	9.869042	-0.267898	0.749663	-0.016456	-0.003245	0.088397	1.000000	0.000028	0.000027	0.000015	-19.781392	-85.487017	17.199537
47323	9.886130	-0.255539	0.738254	-0.003357	0.008882	0.104257	1.000000	0.000014	0.000023	0.000019	-19.781853	-85.487856	17.199648
47324	9.883765	-0.287997	0.751383	-0.018152	-0.022965	0.103738	1.000000	0.000022	0.000027	0.000025	-19.788240	-85.488126	17.207595
47325	9.921365	-0.228303	0.769941	-0.031271	0.038464	0.141003	1.000000	0.000015	0.000024	0.000027	-19.798512	-85.488521	17.217725
47326	9.885982	-0.256836	0.739773	-0.005237	0.007781	0.104257	1.000000	0.000021	0.000025	0.000017	-19.794925	-85.489208	17.215219
47327	9.903065	-0.244509	0.728489	0.007858	0.019903	0.120123	1.000000	0.000009	0.000038	0.000019	-19.788297	-85.488448	17.207640
47328	9.876760	-0.265310	0.719906	0.013703	-0.001870	0.093818	1.000000	0.000017	0.000042	0.000025	-19.787344	-85.487105	17.207623
47329	9.909701	-0.269645	0.763934	-0.027754	-0.003407	0.130033	1.000000	0.000011	0.000031	0.000019	-19.784262	-85.487145	17.203889
47330	9.876646	-0.266177	0.721155	0.012455	-0.002610	0.093820	1.000000	0.000008	0.000022	0.000029	-19.799506	-85.487700	17.222580
47331	9.877633	-0.263899	0.776206	-0.042268	0.002347	0.098820	1.000000	0.000013	0.000032	0.000027	-19.806230	-85.487296	17.228861
47332	9.893685	-0.254465	0.710357	0.024919	0.009142	0.109694	1.000000	0.000021	0.000025	0.000017	-19.802474	-85.487999	17.229041
47333	9.885586	-0.259716	0.744057	-0.009611	0.005188	0.104256	1.000000	0.000014	0.000023	0.000019	-19.802936	-85.488838	17.229153
47334	9.876446	-0.267857	0.723261	0.009959	-0.004090	0.093822	1.000000	0.000022	0.000027	0.000025	-19.808849	-85.489079	17.241996
47335	9.891208	-0.287659	0.724486	0.008880	-0.023455	0.109157	1.000000	0.000014	0.000023	0.000019	-19.809312	-85.489919	17.242109
47336	9.867248	-0.276306	0.703195	0.028913	-0.013742	0.083392	1.000000	0.000020	0.000050	0.000015	-19.789924	-85.488032	17.224345
47337	9.861464	-0.249582	0.724497	0.008554	0.013787	0.078490	1.000000	0.000034	0.000023	0.000031	-19.804267	-85.488476	17.240653
47338	9.891030	-0.288759	0.726478	0.007015	-0.024570	0.109156	1.000000	0.000010	0.000029	0.000011	-19.791436	-85.488947	17.232708
47339	9.876176	-0.269617	0.726297	0.006851	-0.005949	0.093824	1.000000	0.000021	0.000025	0.000017	-19.787251	-85.489634	17.228973
47340	9.900010	-0.281611	0.748962	-0.014425	-0.016407	0.119582	1.000000	0.000009	0.000038	0.000019	-19.780661	-85.488834	17.223549
47341	9.876061	-0.270357	0.727579	0.005612	-0.006691	0.093824	1.000000	0.000022	0.000027	0.000025	-19.786286	-85.489077	17.229832
47342	9.890802	-0.290215	0.728998	0.004517	-0.026052	0.109154	1.000000	0.000017	0.000042	0.000025	-19.785518	-85.487749	17.228611
47343	9.907903	-0.278033	0.717693	0.017596	-0.013942	0.125040	1.000000	-0.000000	0.000019	0.000023	-19.795251	-85.488896	17.236397
47344	9.884978	-0.264043	0.750574	-0.016469	0.001115	0.104248	1.000000	0.000008	0.000022	0.000029	-19.810798	-85.489462	17.247780
47345	9.898733	-0.286587	0.697316	0.036540	-0.023594	0.114619	1.000000	0.000033	0.000028	0.000005	-19.787523	-85.490287	17.226344
47346	9.902046	-0.251990	0.739714	-0.004014	0.012858	0.120137	1.000000	0.000015	0.000024	0.000027	-19.798349	-85.490677	17.237302
47347	9.858589	-0.285511	0.742719	-0.011842	-0.021383	0.077931	1.000000	0.000015	0.000024	0.000027	-19.808619	-85.491074	17.247429
47348	9.916741	-0.272310	0.741525	-0.005732	-0.006888	0.135462	1.000000	0.000018	0.000033	0.000017	-19.800820	-85.490935	17.246551
47349	9.884725	-0.265848	0.753273	-0.019582	-0.000740	0.104242	1.000000	0.000021	0.000025	0.000017	-19.796633	-85.491622	17.242814
47350	9.875595	-0.273868	0.732579	-0.000011	-0.010014	0.093823	1.000000	0.000025	0.000035	0.000015	-19.784951	-85.491394	17.236336
47351	9.892704	-0.261644	0.721322	0.013064	0.002090	0.109721	1.000000	0.000006	0.000030	0.000029	-19.796302	-85.491145	17.246446
47352	9.884552	-0.266993	0.755130	-0.021461	-0.001845	0.104238	1.000000	0.000011	0.000031	0.000019	-19.793615	-85.491178	17.241765
47353	9.877804	-0.243205	0.721667	0.012297	0.020350	0.094401	1.000000	0.000019	0.000018	0.000035	-19.817255	-85.491930	17.265773
47354	9.910688	-0.247613	0.765612	-0.029218	0.018803	0.130551	1.000000	0.000016	0.000040	0.000017	-19.806616	-85.491015	17.253867
47355	9.890105	-0.295438	0.736320	-0.003613	-0.030865	0.109140	1.000000	0.000021	0.000025	0.000017	-19.802430	-85.491703	17.250130
47356	9.892436	-0.263735	0.724226	0.009957	0.000239	0.109724	1.000000	0.000011	0.000031	0.000019	-19.799242	-85.491670	17.244615
47357	9.868516	-0.252426	0.702850	0.030026	0.009959	0.083996	1.000000	0.000009	0.000038	0.000019	-19.792575	-85.490913	17.236998
47358	9.884198	-0.269385	0.758909	-0.025196	-0.004060	0.104229	1.000000	0.000017	0.000042	0.000025	-19.791680	-85.489574	17.242355
47359	9.869348	-0.250382	0.758798	-0.025329	0.014573	0.088910	1.000000	0.000014	0.000023	0.000019	-19.792130	-85.490415	17.242455
47360	9.892202	-0.265368	0.726820	0.007461	-0.001240	0.109727	1.000000	0.000034	0.000023	0.000031	-19.806857	-85.490830	17.260720
47361	9.892157	-0.265675	0.727332	0.006837	-0.001614	0.109727	1.000000	0.000008	0.000028	0.000003	-19.784118	-85.491760	17.236916
47362	9.877322	-0.246645	0.727083	0.006711	0.017028	0.094413	1.000000	0.000010	0.000024	0.000037	-19.809384	-85.491837	17.257153
47363	9.882991	-0.274385	0.707048	0.025800	-0.011264	0.099322	1.000000	0.000022	0.000027	0.000025	-19.815011	-85.492082	17.263437
47364	9.874813	-0.279717	0.740862	-0.008724	-0.015185	0.093813	1.000000	0.000020	0.000034	0.000025	-19.817342	-85.491532	17.266833
47365	9.901011	-0.259737	0.750796	-0.015865	0.005817	0.120132	1.000000	0.000023	0.000018	0.000017	-19.816722	-85.493020	17.266962
47366	9.874705	-0.280580	0.741975	-0.009984	-0.015922	0.093810	1.000000	0.000012	0.000041	0.000034	-19.830535	-85.491442	17.284006
47367	9.891835	-0.268272	0.730738	0.003081	-0.003834	0.109728	1.000000	0.000025	0.000025	-0.000001	-19.802085	-85.492867	17.256390
47368	9.891784	-0.268578	0.731323	0.002449	-0.004201	0.109728	1.000000	0.000014	0.000033	0.000034	-19.819259	-85.492057	17.273870
47369	9.867884	-0.257417	0.709879	0.022540	0.005525	0.084019	1.000000	0.000011	0.000031	0.000019	-19.816142	-85.492100	17.270103
47370	9.891663	-0.269471	0.732623	0.001200	-0.004941	0.109728	1.000000	0.000002	0.000036	0.000021	-19.814546	-85.491493	17.264382
47371	9.891600	-0.269904	0.733322	0.000576	-0.005315	0.109728	1.000000	0.000020	0.000034	0.000025	-19.816605	-85.490939	17.266798
47372	9.891538	-0.270388	0.733984	-0.000043	-0.005684	0.109728	1.000000	0.000013	0.000032	0.000027	-19.823412	-85.490501	17.268723
47373	9.882430	-0.278567	0.713227	0.019544	-0.014973	0.099331	1.000000	0.000014	0.000023	0.000019	-19.823862	-85.491343	17.268823
47374	9.900475	-0.263533	0.756530	-0.021503	0.002489	0.120123	1.000000	0.000026	0.000045	0.000030	-19.827858	-85.489394	17.277385
47375	9.899508	-0.266981	0.702625	0.031981	-0.003263	0.115262	1.000000	0.000011	0.000015	0.000029	-19.846321	-85.490743	17.295206
47376	9.884696	-0.247866	0.702269	0.031871	0.015384	0.099960	1.000000	0.000008	0.000028	0.000003	-19.824199	-85.491683	17.270732
47377	9.899416	-0.267646	0.703666	0.030729	-0.004005	0.115266	1.000000	0.000014	0.000033	0.000034	-19.840696	-85.490837	17.286994
47378	9.876430	-0.253537	0.736761	-0.003264	0.011109	0.094423	1.000000	0.000025	0.000035	0.000015	-19.828456	-85.490540	17.274979
47379	9.876379	-0.253843	0.737344	-0.003887	0.010737	0.094423	1.000000	0.000014	0.000023	0.000019	-19.828904	-85.491382	17.275078
47380	9.893535	-0.241599	0.725996	0.009152	0.022816	0.110360	1.000000	0.000011	0.000031	0.000019	-19.826622	-85.491519	17.277786
47381	9.891038	-0.273980	0.739358	-0.005676	-0.009020	0.109724	1.000000	0.000009	0.000038	0.000019	-19.819926	-85.490764	17.270141
47382	9.881928	-0.282137	0.718768	0.013914	-0.018303	0.099335	1.000000	0.000020	0.000034	0.000025	-19.822433	-85.490205	17.272002
47383	9.902398	-0.235126	0.749351	-0.012933	0.030619	0.120751	1.000000	0.000006	0.000030	0.000029	-19.833746	-85.489957	17.282073
47384	9.890858	-0.275153	0.741340	-0.007554	-0.010130	0.109721	1.000000	0.000022	0.000032	-0.000001	-19.802106	-85.490616	17.256045
47385	9.890796	-0.275359	0.742081	-0.008178	-0.010503	0.109721	1.000000	0.000017	0.000042	0.000025	-19.800591	-85.489265	17.254587
47386	9.875971	-0.256339	0.741929	-0.008269	0.008145	0.094423	1.000000	0.000014	0.000023	0.000019	-19.801071	-85.490090	17.256894
47387	9.890687	-0.276148	0.743245	-0.009423	-0.011248	0.109719	1.000000	0.000004	0.000028	0.000021	-19.802572	-85.490287	17.256946
47388	9.898805	-0.271764	0.710654	0.023838	-0.008091	0.115283	1.000000	0.000013	0.000032	0.000027	-19.809750	-85.489919	17.266444
47389	9.889710	-0.279948	0.689965	0.043433	-0.017381	0.104902	1.000000	0.000011	0.000031	0.000019	-19.806622	-85.489963	17.262667
47390	9.875752	-0.257815	0.744325	-0.010768	0.006667	0.094422	1.000000	0.000006	0.000035	0.000003	-19.780792	-85.490095	17.235499
47391	9.907674	-0.264911	0.733948	0.001744	-0.000292	0.125665	1.000000	0.000020	0.000034	0.000025	-19.782847	-85.489543	17.237911
47392	9.907620	-0.265471	0.734477	0.001115	-0.000659	0.125665	1.000000	0.000019	0.000018	0.000035	-19.807037	-85.490313	17.262400
47393	9.892814	-0.246649	0.734078	0.001031	0.017991	0.110374	1.000000	0.000008	0.000022	0.000029	-19.821917	-85.490865	17.276338
47394	9.881252	-0.286850	0.726147	0.006420	-0.022755	0.099334	1.000000	0.000013	0.000048	0.000017	-19.807083	-85.489130	17.262154
47395	9.883648	-0.255217	0.714277	0.020010	0.008331	0.100000	1.000000	0.000020	0.000034	0.000025	-19.809132	-85.488578	17.264561
47396	9.890161	-0.279939	0.748809	-0.015041	-0.014583	0.109707	1.000000	-0.000000	0.000019	0.000023	-19.818668	-85.489681	17.269578
47397	9.890109	-0.280422	0.749315	-0.015665	-0.014955	0.109706	1.000000	0.000013	0.000032	0.000027	-19.825340	-85.489282	17.275808
47398	9.875285	-0.261471	0.749233	-0.015744	0.003709	0.094416	1.000000	0.000017	0.000042	0.000025	-19.824574	-85.487940	17.275191
47399	9.898181	-0.276535	0.717473	0.016972	-0.012182	0.115293	1.000000	0.000025	0.000019	0.000025	-19.833772	-85.488986	17.285347
47400	9.866146	-0.269984	0.729109	0.003225	-0.005949	0.084044	1.000000	0.000014	0.000039	0.000009	-19.813168	-85.488559	17.266111
47401	9.907088	-0.269347	0.740218	-0.004508	-0.004006	0.125664	1.000000	0.000006	0.000046	0.000019	-19.802887	-85.487007	17.254582
47402	9.883250	-0.258172	0.718716	0.015644	0.005734	0.100009	1.000000	0.000019	0.000018	0.000035	-19.826687	-85.487767	17.280602
47403	9.871690	-0.298420	0.710605	0.021024	-0.035013	0.088959	1.000000	0.000018	0.000033	0.000017	-19.818929	-85.487661	17.272995
47404	9.900386	-0.246412	0.707923	0.028049	0.017414	0.115980	1.000000	0.000014	0.000023	0.000019	-19.819859	-85.488573	17.275943
47405	9.880609	-0.291405	0.733061	-0.000460	-0.026837	0.099326	1.000000	0.000020	0.000034	0.000025	-19.821901	-85.488022	17.278343
47406	9.877319	-0.232583	0.741453	-0.006539	0.032197	0.095097	1.000000	0.000021	0.000025	0.000017	-19.818256	-85.488774	17.279243
47407	9.897746	-0.279546	0.722281	0.011943	-0.015157	0.115296	1.000000	0.000014	0.000023	0.000019	-19.818695	-85.489618	17.279333
47408	9.865700	-0.273034	0.734000	-0.001778	-0.008915	0.084042	1.000000	0.000006	0.000046	0.000019	-19.808632	-85.488049	17.264831
47409	9.877157	-0.233525	0.743315	-0.008401	0.031084	0.095099	1.000000	0.000019	0.000024	0.000009	-19.794641	-85.489185	17.251085
47410	9.897576	-0.280443	0.724270	0.010077	-0.016271	0.115296	1.000000	0.000027	0.000036	0.000023	-19.792239	-85.488436	17.248353
47411	9.882769	-0.261460	0.724118	0.010022	0.002390	0.100018	1.000000	0.000013	0.000032	0.000027	-19.798900	-85.488038	17.254572
47412	9.858954	-0.250206	0.702582	0.030196	0.012130	0.074382	1.000000	0.000011	0.000031	0.000019	-19.795802	-85.488084	17.249927
47413	9.882651	-0.262224	0.725449	0.008775	0.001644	0.100019	1.000000	0.000016	0.000040	0.000017	-19.784463	-85.487179	17.238441
47414	9.899838	-0.249968	0.714318	0.021807	0.013685	0.116002	1.000000	0.000018	0.000033	0.000017	-19.776879	-85.487088	17.232682
47415	9.882543	-0.262963	0.726657	0.007526	0.000899	0.100020	1.000000	0.000011	0.000015	0.000029	-19.795305	-85.488440	17.250465
47416	9.891507	-0.255612	0.748481	-0.013333	0.009452	0.110377	1.000000	0.000025	0.000035	0.000015	-19.783370	-85.488213	17.241993
47417	9.890674	-0.259025	0.694659	0.040158	0.003646	0.105652	1.000000	0.000014	0.000033	0.000034	-19.799828	-85.487372	17.258216
47418	9.858632	-0.252546	0.706245	0.026453	0.009905	0.074395	1.000000	0.000019	0.000024	0.000009	-19.786258	-85.488534	17.244894
47419	9.908597	-0.244072	0.738438	-0.001555	0.020746	0.126363	1.000000	0.000017	0.000031	0.000009	-19.768683	-85.488873	17.227265
47420	9.899538	-0.252137	0.717699	0.018043	0.011456	0.116012	1.000000	0.000022	0.000027	0.000025	-19.774971	-85.489158	17.234162
47421	9.873214	-0.272912	0.708917	0.023997	-0.010247	0.089671	1.000000	0.000017	0.000042	0.000024	-19.773433	-85.487810	17.232683
47422	9.864894	-0.278014	0.742900	-0.010519	-0.014100	0.084030	1.000000	0.000014	0.000039	0.000009	-19.752624	-85.487394	17.211438
47423	9.899363	-0.253261	0.719726	0.016163	0.010336	0.116016	1.000000	0.000011	0.000015	0.000029	-19.771041	-85.488746	17.229211
47424	9.882052	-0.266121	0.732165	0.001885	-0.002438	0.100023	1.000000	0.000028	0.000043	0.000005	-19.740969	-85.487992	17.200419
47425	9.881991	-0.266327	0.732905	0.001262	-0.002811	0.100023	1.000000	0.000011	0.000031	0.000019	-19.737814	-85.488039	17.196616
47426	9.867199	-0.247385	0.732682	0.001223	0.015861	0.084756	1.000000	0.000014	0.000033	0.000034	-19.754625	-85.487241	17.211629
47427	9.881869	-0.267342	0.734180	0.000007	-0.003554	0.100023	1.000000	0.000011	0.000031	0.000019	-19.751469	-85.487288	17.207825
47428	9.881819	-0.267673	0.734741	-0.000631	-0.003925	0.100023	1.000000	0.000021	0.000025	0.000017	-19.747725	-85.488057	17.206822
47429	9.899031	-0.255507	0.723486	0.012395	0.008100	0.116024	1.000000	0.000020	0.000034	0.000025	-19.749761	-85.487509	17.209217
47430	9.881702	-0.268537	0.735999	-0.001879	-0.004669	0.100022	1.000000	0.000013	0.000032	0.000027	-19.756555	-85.487120	17.215628
47431	9.896374	-0.288371	0.737465	-0.003103	-0.024087	0.115285	1.000000	0.000028	0.000027	0.000015	-19.747745	-85.487662	17.208070
47432	9.890594	-0.261561	0.758425	-0.023378	0.003520	0.110362	1.000000	0.000008	0.000022	0.000029	-19.763686	-85.488296	17.226055
47433	9.905271	-0.281622	0.759705	-0.024604	-0.015899	0.125622	1.000000	0.000019	0.000018	0.000035	-19.787298	-85.489053	17.250030
47434	9.866063	-0.253869	0.682630	0.050333	0.007438	0.080090	1.000000	0.000017	0.000031	0.000009	-19.769723	-85.489386	17.231630
47435	9.881439	-0.270618	0.738761	-0.005012	-0.006523	0.100020	1.000000	0.000024	0.000044	0.000022	-19.763561	-85.487887	17.226328
47436	9.866646	-0.251595	0.738664	-0.005030	0.012158	0.084760	1.000000	0.000020	0.000034	0.000025	-19.766032	-85.487348	17.228401
47437	9.889595	-0.266836	0.706966	0.027619	-0.003801	0.105695	1.000000	0.000017	0.000026	0.000035	-19.786054	-85.487307	17.248487
47438	9.881261	-0.272039	0.740620	-0.006887	-0.007632	0.100018	1.000000	0.000012	0.000022	0.000011	-19.776953	-85.488601	17.237372
47439	9.898480	-0.259886	0.729444	0.006133	0.004382	0.116032	1.000000	0.000026	0.000045	0.000030	-19.780587	-85.486659	17.242072
47440	9.890120	-0.265162	0.763340	-0.028386	0.000557	0.110350	1.000000	0.000022	0.000027	0.000025	-19.786992	-85.486977	17.251352
47441	9.889371	-0.268518	0.709447	0.025108	-0.005286	0.105701	1.000000	0.000000	0.000035	0.000013	-19.775053	-85.486823	17.237459
47442	9.898307	-0.261032	0.731375	0.004250	0.003275	0.116033	1.000000	0.000021	0.000025	0.000017	-19.771246	-85.487483	17.231961
47443	9.898251	-0.261364	0.732009	0.003626	0.002901	0.116034	1.000000	0.000009	0.000038	0.000019	-19.764497	-85.486733	17.224265
47444	9.886638	-0.301554	0.724035	0.008975	-0.037831	0.104937	1.000000	0.000015	0.000024	0.000027	-19.775161	-85.487148	17.234130
47445	9.866139	-0.255270	0.744161	-0.010642	0.008832	0.084759	1.000000	0.000018	0.000033	0.000017	-19.767384	-85.487045	17.226505
47446	9.880118	-0.278197	0.691158	0.042221	-0.016070	0.095380	1.000000	0.000024	0.000028	0.000033	-19.783344	-85.486888	17.244078
47447	9.907023	-0.255325	0.755558	-0.019122	0.010348	0.126361	1.000000	0.000008	0.000012	0.000013	-19.782154	-85.489129	17.241832
47448	9.871729	-0.283692	0.725174	0.007104	-0.020260	0.089682	1.000000	0.000037	0.000031	0.000021	-19.778713	-85.489022	17.239291
47449	9.897945	-0.263755	0.735285	-0.000122	0.000675	0.116035	1.000000	0.000011	0.000031	0.000019	-19.775539	-85.489070	17.235469
47450	9.871615	-0.284479	0.726418	0.005854	-0.021002	0.089682	1.000000	0.000013	0.000032	0.000027	-19.782506	-85.488687	17.242101
47451	9.900419	-0.232608	0.723747	0.012897	0.031362	0.116817	1.000000	0.000021	0.000025	0.000017	-19.778310	-85.489382	17.238357
47452	9.880481	-0.277421	0.748981	-0.015643	-0.012805	0.100003	1.000000	0.000016	0.000040	0.000017	-19.767784	-85.488520	17.226922
47453	9.874029	-0.253612	0.715628	0.018247	0.009318	0.090467	1.000000	0.000013	0.000032	0.000027	-19.774412	-85.488125	17.233108
47454	9.873961	-0.254195	0.716351	0.014816	0.008459	0.090474	1.000000	0.000012	0.000041	0.000034	-19.814668	-85.502883	17.266446
47455	9.903963	-0.290412	0.773322	-0.041226	-0.024529	0.125550	1.000000	0.000025	0.000025	-0.000001	-19.786244	-85.504361	17.238920
47456	9.873865	-0.254756	0.717480	0.013561	0.007716	0.090476	1.000000	0.000008	0.000022	0.000029	-19.801570	-85.504926	17.250429
47457	9.897492	-0.266960	0.740214	-0.007964	-0.002781	0.116031	1.000000	0.000022	0.000027	0.000025	-19.807274	-85.505222	17.256848
47458	9.897440	-0.267442	0.740729	-0.008601	-0.003149	0.116031	1.000000	0.000015	0.000024	0.000027	-19.818175	-85.505688	17.270309
47459	9.873715	-0.256176	0.719035	0.011666	0.006600	0.090479	1.000000	0.000011	0.000031	0.000019	-19.815052	-85.505781	17.266596
47460	9.882632	-0.248785	0.740957	-0.009203	0.015168	0.100789	1.000000	0.000004	0.000028	0.000021	-19.816708	-85.505986	17.263913
47461	9.873611	-0.256988	0.720172	0.010412	0.005855	0.090481	1.000000	0.000022	0.000027	0.000025	-19.822414	-85.506282	17.270333
47462	9.879922	-0.281552	0.754792	-0.024750	-0.016996	0.099978	1.000000	0.000003	0.000027	0.000013	-19.814415	-85.506955	17.259693
47463	9.888210	-0.277272	0.722153	0.008493	-0.013952	0.105721	1.000000	0.000017	0.000026	0.000035	-19.834584	-85.506958	17.279982
47464	9.865115	-0.263091	0.754931	-0.025343	0.001325	0.084736	1.000000	0.000022	0.000027	0.000025	-19.840336	-85.507210	17.284534
47465	9.873403	-0.258663	0.722419	0.007901	0.004366	0.090484	1.000000	0.000014	0.000039	0.000009	-19.819128	-85.506800	17.263034
47466	9.882307	-0.251220	0.744462	-0.012983	0.012940	0.100788	1.000000	0.000013	0.000032	0.000027	-19.826452	-85.506475	17.268861
47467	9.882249	-0.251652	0.745086	-0.013613	0.012567	0.100788	1.000000	0.000011	0.000031	0.000019	-19.823323	-85.506569	17.265143
47468	9.888538	-0.276136	0.779772	-0.048780	-0.010279	0.110265	1.000000	0.000010	0.000029	0.000011	-19.810464	-85.507069	17.251860
47469	9.873180	-0.260036	0.724978	0.005379	0.002880	0.090486	1.000000	0.000020	0.000034	0.000025	-19.812553	-85.506568	17.254366
47470	9.905139	-0.267316	0.714660	0.017706	-0.004209	0.121780	1.000000	0.000019	0.000024	0.000009	-19.798599	-85.507715	17.244476
47471	9.887772	-0.280224	0.726989	0.003452	-0.016934	0.105719	1.000000	0.000017	0.000026	0.000035	-19.818767	-85.507719	17.264764
47472	9.873017	-0.261304	0.726733	0.003499	0.001764	0.090487	1.000000	0.000017	0.000041	0.000024	-19.817452	-85.506392	17.262442
47473	9.863996	-0.269486	0.706114	0.023118	-0.007552	0.080191	1.000000	0.000011	0.000031	0.000019	-19.814318	-85.506487	17.258719
47474	9.872898	-0.262041	0.728085	0.002241	0.001021	0.090488	1.000000	0.000018	0.000033	0.000017	-19.806788	-85.506407	17.251376
47475	9.879158	-0.286646	0.762829	-0.032940	-0.021825	0.099945	1.000000	0.000013	0.000032	0.000027	-19.813492	-85.506057	17.257696
47476	9.881745	-0.255026	0.750609	-0.019271	0.009222	0.100782	1.000000	0.000012	0.000022	0.000011	-19.804581	-85.507391	17.250101
47477	9.904757	-0.270069	0.718907	0.013285	-0.006823	0.121785	1.000000	0.000011	0.000031	0.000019	-19.801444	-85.507486	17.246374
47478	9.864313	-0.268128	0.763587	-0.034143	-0.003865	0.084709	1.000000	0.000018	0.000033	0.000017	-19.793711	-85.507386	17.239121
47479	9.904645	-0.270884	0.720131	0.012027	-0.007572	0.121786	1.000000	0.000017	0.000026	0.000035	-19.813875	-85.507390	17.259403
47480	9.872577	-0.264400	0.731575	-0.001541	-0.001208	0.090488	1.000000	0.000011	0.000031	0.000019	-19.811358	-85.507513	17.258470
47481	9.881470	-0.256928	0.753572	-0.022424	0.007362	0.100777	1.000000	0.000025	0.000035	0.000015	-19.798983	-85.507306	17.247108
47482	9.889797	-0.252699	0.720999	0.010812	0.010390	0.106564	1.000000	0.000010	0.000024	0.000037	-19.824291	-85.507458	17.273302
47483	9.880792	-0.261085	0.700212	0.030435	0.001071	0.096278	1.000000	0.000013	0.000032	0.000027	-19.830989	-85.507108	17.279617
47484	9.890236	-0.250795	0.776730	-0.044579	0.015196	0.111059	1.000000	0.000021	0.000035	0.000032	-19.843393	-85.506188	17.294672
47485	9.872279	-0.266832	0.734705	-0.004700	-0.003065	0.090487	1.000000	0.000011	0.000031	0.000019	-19.840252	-85.506284	17.290943
47486	9.904236	-0.274267	0.724463	0.007582	-0.010172	0.121788	1.000000	0.000013	0.000032	0.000027	-19.847606	-85.505943	17.296393
47487	9.857490	-0.248156	0.734972	-0.005267	0.015273	0.075266	1.000000	0.000028	0.000027	0.000015	-19.838860	-85.506536	17.288958
47488	9.883716	-0.228302	0.745145	-0.012533	0.036181	0.101633	1.000000	0.000003	0.000037	0.000028	-19.846620	-85.505493	17.293537
47489	9.886174	-0.290972	0.683779	0.046203	-0.029187	0.101226	1.000000	0.000014	0.000039	0.000009	-19.825404	-85.505085	17.272031
47490	9.880927	-0.261005	0.759266	-0.028108	0.004031	0.100764	1.000000	0.000026	0.000020	0.000033	-19.845013	-85.505745	17.292261
47491	9.880335	-0.264619	0.705315	0.025384	-0.001908	0.096292	1.000000	0.000020	0.000034	0.000025	-19.847088	-85.505245	17.294752
47492	9.871868	-0.269797	0.739132	-0.009109	-0.005661	0.090482	1.000000	0.000013	0.000032	0.000027	-19.853847	-85.504870	17.302079
47493	9.889162	-0.257728	0.727894	0.003869	0.006292	0.106573	1.000000	0.000021	0.000025	0.000017	-19.849719	-85.505613	17.298461
47494	9.880703	-0.262826	0.761550	-0.030623	0.002545	0.100757	1.000000	0.000015	0.000024	0.000027	-19.860267	-85.506032	17.305914
47495	9.880111	-0.266398	0.707782	0.022869	-0.003402	0.096298	1.000000	0.000015	0.000049	0.000024	-19.855072	-85.503937	17.300541
47496	9.880054	-0.266805	0.708429	0.022243	-0.003771	0.096299	1.000000	0.000016	0.000016	0.000019	-19.859474	-85.505592	17.304272
47497	9.880529	-0.264116	0.763357	-0.032511	0.001432	0.100752	1.000000	0.000022	0.000027	0.000025	-19.865177	-85.505891	17.310691
47498	9.895140	-0.284016	0.764900	-0.033845	-0.018019	0.115961	1.000000	0.000011	0.000031	0.000019	-19.862045	-85.505903	17.306275
47499	9.888838	-0.260166	0.731410	0.000106	0.004059	0.106574	1.000000	0.000018	0.000033	0.000017	-19.854281	-85.505849	17.298724
47500	9.862500	-0.280745	0.722430	0.006137	-0.017583	0.080203	1.000000	0.000014	0.000023	0.000019	-19.854701	-85.506692	17.297082
47501	9.888742	-0.260776	0.732494	-0.001148	0.003312	0.106575	1.000000	0.000010	0.000029	0.000011	-19.841713	-85.507233	17.283300
47502	9.879764	-0.268789	0.711716	0.018492	-0.006009	0.096306	1.000000	0.000028	0.000027	0.000015	-19.833150	-85.507750	17.271927
47503	9.888637	-0.261311	0.733720	-0.002398	0.002570	0.106575	1.000000	0.000009	0.000038	0.000019	-19.826362	-85.507049	17.264252
47504	9.879652	-0.269551	0.712973	0.017227	-0.006754	0.096307	1.000000	0.000008	0.000022	0.000029	-19.841665	-85.507661	17.281198
47505	9.880102	-0.266800	0.767938	-0.037527	-0.001533	0.100734	1.000000	0.000019	0.000024	0.000009	-19.827691	-85.508849	17.267530
47506	9.903148	-0.282027	0.736267	-0.005023	-0.017633	0.121779	1.000000	0.000017	0.000026	0.000035	-19.848016	-85.508828	17.289011
47507	9.888429	-0.263086	0.735887	-0.004923	0.001080	0.106574	1.000000	0.000020	0.000034	0.000025	-19.850082	-85.508329	17.291494
47508	9.888366	-0.263543	0.736571	-0.005544	0.000707	0.106574	1.000000	0.000020	0.000034	0.000025	-19.851972	-85.507774	17.291943
47509	9.888312	-0.263948	0.737144	-0.006175	0.000333	0.106573	1.000000	0.000014	0.000023	0.000019	-19.852451	-85.508668	17.292131
47510	9.888259	-0.264354	0.737718	-0.006806	-0.000038	0.106573	1.000000	0.000020	0.000034	0.000025	-19.854786	-85.508159	17.295558
47511	9.870832	-0.277416	0.750074	-0.021036	-0.012717	0.090458	1.000000	0.000003	0.000022	0.000039	-19.884161	-85.508463	17.323448
47512	9.928616	-0.267750	0.694951	0.038655	-0.004220	0.143745	1.000000	0.000003	0.000043	0.000003	-19.854199	-85.507825	17.291856
47513	9.879167	-0.273509	0.718171	0.011568	-0.010113	0.096313	1.000000	0.000019	0.000018	0.000035	-19.877993	-85.508626	17.316065
47514	9.890758	-0.234249	0.727246	0.005017	0.029871	0.107490	1.000000	0.000018	0.000033	0.000017	-19.870673	-85.508543	17.310347
47515	9.902630	-0.286038	0.741663	-0.010700	-0.020989	0.121768	1.000000	0.000011	0.000031	0.000019	-19.867509	-85.508640	17.306594
47516	9.873273	-0.247359	0.740308	-0.009834	0.016825	0.091372	1.000000	0.000018	0.000033	0.000017	-19.859933	-85.508549	17.300541
47517	9.887866	-0.267346	0.741891	-0.011212	-0.002641	0.106569	1.000000	0.000017	0.000026	0.000035	-19.880084	-85.508553	17.320809
47518	9.878894	-0.275639	0.721103	0.008424	-0.011970	0.096314	1.000000	0.000011	0.000031	0.000019	-19.877051	-85.508636	17.317746
47519	9.896206	-0.263651	0.710064	0.021387	-0.000046	0.112439	1.000000	0.000026	0.000045	0.000030	-19.880683	-85.506746	17.322505
47520	9.896141	-0.264160	0.710784	0.020756	-0.000416	0.112441	1.000000	0.000022	0.000027	0.000025	-19.886809	-85.507030	17.325970
47521	9.896098	-0.264516	0.711249	0.020124	-0.000792	0.112442	1.000000	0.000005	0.000020	0.000013	-19.882068	-85.508519	17.319931
47522	9.872928	-0.249991	0.744025	-0.013611	0.014602	0.091371	1.000000	0.000025	0.000044	0.000022	-19.876462	-85.507074	17.314795
47523	9.878599	-0.277645	0.724368	0.005267	-0.013827	0.096314	1.000000	0.000021	0.000025	0.000017	-19.872333	-85.507819	17.311176
47524	9.863897	-0.258516	0.724030	0.005392	0.004900	0.081122	1.000000	0.000017	0.000041	0.000024	-19.871101	-85.506538	17.311405
47525	9.904771	-0.258204	0.735321	-0.002676	0.006679	0.122694	1.000000	0.000011	0.000031	0.000019	-19.867931	-85.506635	17.307647
47526	9.863790	-0.259276	0.725211	0.004139	0.004155	0.081123	1.000000	0.000016	0.000016	0.000019	-19.872170	-85.508294	17.308813
47527	9.904668	-0.258966	0.736433	-0.003935	0.005932	0.122694	1.000000	0.000015	0.000049	0.000024	-19.866926	-85.506202	17.303393
47528	9.886801	-0.275056	0.694297	0.035955	-0.012363	0.102205	1.000000	0.000038	0.000008	0.000031	-19.889370	-85.508370	17.327154
47529	9.886750	-0.275514	0.694835	0.035323	-0.012738	0.102207	1.000000	0.000006	0.000045	0.000018	-19.878892	-85.506874	17.315494
47530	9.887109	-0.272794	0.749958	-0.019441	-0.007467	0.106553	1.000000	0.000018	0.000017	0.000027	-19.893428	-85.508156	17.331184
47531	9.863519	-0.261578	0.728075	0.000969	0.002297	0.081124	1.000000	0.000013	0.000032	0.000027	-19.900083	-85.507808	17.337455
47532	9.895491	-0.269068	0.717953	0.013152	-0.004888	0.112452	1.000000	0.000018	0.000033	0.000017	-19.892811	-85.507743	17.330427
47533	9.886939	-0.274010	0.751752	-0.021336	-0.008581	0.106549	1.000000	0.000018	0.000033	0.000017	-19.885029	-85.507692	17.322858
47534	9.895393	-0.269604	0.719107	0.011888	-0.005632	0.112454	1.000000	0.000022	0.000016	0.000009	-19.875180	-85.509674	17.312153
47535	9.886451	-0.277804	0.698178	0.031526	-0.014971	0.102217	1.000000	0.000017	0.000026	0.000035	-19.895326	-85.509678	17.332416
47536	9.872153	-0.255682	0.752324	-0.022461	0.009414	0.091361	1.000000	0.000017	0.000041	0.000024	-19.894393	-85.508436	17.332112
47537	9.895218	-0.270824	0.721049	0.009981	-0.006750	0.112455	1.000000	0.000003	0.000043	0.000003	-19.864241	-85.507832	17.300370
47538	9.886653	-0.275708	0.754883	-0.024514	-0.010429	0.106540	1.000000	0.000022	0.000027	0.000025	-19.870622	-85.508166	17.307326
47539	9.863065	-0.264464	0.733154	-0.004088	-0.000663	0.081124	1.000000	0.000010	0.000039	0.000026	-19.873619	-85.507022	17.309642
47540	9.912447	-0.259546	0.711270	0.021660	0.004410	0.128609	1.000000	0.000021	0.000025	0.000017	-19.869905	-85.507752	17.301826
47541	9.877579	-0.284769	0.735429	-0.006137	-0.020509	0.096302	1.000000	0.000020	0.000034	0.000025	-19.871952	-85.507256	17.304290
47542	9.880292	-0.253437	0.723322	0.007608	0.010502	0.097279	1.000000	0.000023	0.000037	0.000040	-19.894148	-85.505847	17.325179
47543	9.894864	-0.273364	0.724933	0.006182	-0.008979	0.112456	1.000000	0.000011	0.000020	0.000003	-19.874967	-85.507634	17.305299
47544	9.871680	-0.258766	0.757461	-0.027515	0.006460	0.091351	1.000000	0.000008	0.000022	0.000029	-19.890470	-85.508269	17.320821
47545	9.894762	-0.274125	0.726045	0.004910	-0.009723	0.112456	1.000000	0.000032	0.000046	0.000020	-19.879651	-85.506678	17.311727
47546	9.894699	-0.274583	0.726729	0.004277	-0.010098	0.112456	1.000000	0.000008	0.000022	0.000029	-19.894571	-85.507284	17.326086
47547	9.894650	-0.275114	0.727198	0.003645	-0.010472	0.112456	1.000000	0.000015	0.000024	0.000027	-19.904875	-85.507734	17.336302
47548	9.877181	-0.287957	0.739526	-0.010567	-0.023107	0.096292	1.000000	0.000011	0.000031	0.000019	-19.901856	-85.507825	17.327318
47549	9.879920	-0.256451	0.727328	0.003186	0.007891	0.097283	1.000000	0.000013	0.000032	0.000027	-19.908497	-85.507479	17.333574
47550	9.885958	-0.281019	0.761988	-0.032104	-0.014875	0.106512	1.000000	0.000016	0.000016	0.000019	-19.912987	-85.509159	17.335263
47551	9.888362	-0.252677	0.695169	0.035778	0.010433	0.103230	1.000000	0.000020	0.000034	0.000025	-19.915025	-85.508664	17.337718
47552	9.897180	-0.245337	0.717286	0.014868	0.019038	0.113454	1.000000	0.000017	0.000041	0.000024	-19.913963	-85.507396	17.335118
47553	9.894321	-0.277676	0.730684	-0.000155	-0.012706	0.112454	1.000000	0.000016	0.000016	0.000019	-19.918109	-85.509089	17.339268
47554	9.897082	-0.246150	0.718359	0.013616	0.018292	0.113457	1.000000	0.000020	0.000034	0.000025	-19.920294	-85.508530	17.338257
47555	9.885330	-0.286187	0.710553	0.018864	-0.022426	0.102235	1.000000	0.000014	0.000039	0.000009	-19.899007	-85.508130	17.316684
47556	9.894153	-0.278692	0.732572	-0.002044	-0.013818	0.112453	1.000000	0.000022	0.000027	0.000025	-19.905108	-85.508431	17.323086
47557	9.902981	-0.271399	0.754427	-0.022951	-0.005215	0.122668	1.000000	0.000008	0.000022	0.000029	-19.920012	-85.509030	17.337100
47558	9.879430	-0.260175	0.732642	-0.002497	0.004556	0.097286	1.000000	0.000017	0.000041	0.000024	-19.919206	-85.507792	17.336602
47559	9.870493	-0.268331	0.711970	0.017147	-0.004796	0.087071	1.000000	0.000028	0.000027	0.000015	-19.910483	-85.508391	17.329192
47560	9.885044	-0.288268	0.713679	0.015701	-0.024285	0.102236	1.000000	0.000003	0.000037	0.000028	-19.917884	-85.507334	17.333961
47561	9.911294	-0.268678	0.723830	0.008367	-0.003434	0.128630	1.000000	0.000019	0.000018	0.000035	-19.941682	-85.508135	17.358171
47562	9.893806	-0.281455	0.736195	-0.005842	-0.016051	0.112448	1.000000	0.000022	0.000041	0.000007	-19.916075	-85.507600	17.333198
47563	9.879142	-0.262226	0.735784	-0.005643	0.002692	0.097285	1.000000	0.000015	0.000024	0.000027	-19.926375	-85.508050	17.343410
47564	9.879095	-0.262656	0.736261	-0.006277	0.002325	0.097285	1.000000	0.000014	0.000023	0.000019	-19.927334	-85.508956	17.341691
47565	9.893650	-0.282545	0.737868	-0.007744	-0.017167	0.112444	1.000000	0.000011	0.000031	0.000019	-19.924135	-85.509057	17.337905
47566	9.878991	-0.263364	0.737408	-0.007537	0.001582	0.097284	1.000000	0.000011	0.000031	0.000019	-19.921175	-85.509139	17.329950
47567	9.878932	-0.263769	0.738054	-0.008168	0.001209	0.097284	1.000000	0.000020	0.000034	0.000025	-19.923204	-85.508645	17.332397
47568	9.887440	-0.259741	0.705597	0.025036	0.004099	0.103267	1.000000	0.000014	0.000033	0.000034	-19.940649	-85.507912	17.351065
47569	9.887676	-0.257128	0.760648	-0.029721	0.009455	0.107488	1.000000	0.000008	0.000022	0.000029	-19.955549	-85.508511	17.365074
47570	9.893359	-0.284824	0.740895	-0.010918	-0.019015	0.112438	1.000000	0.000017	0.000031	0.000009	-19.938444	-85.508888	17.346719
47571	9.855236	-0.253779	0.718086	0.010422	0.009870	0.071923	1.000000	0.000016	0.000040	0.000017	-19.926968	-85.508045	17.335162
47572	9.887214	-0.261239	0.708206	0.022499	0.002614	0.103274	1.000000	0.000016	0.000040	0.000017	-19.916072	-85.507268	17.330948
47573	9.896014	-0.253840	0.730293	0.001587	0.011223	0.113477	1.000000	0.000013	0.000032	0.000027	-19.922694	-85.506924	17.337185
47574	9.878502	-0.266628	0.742771	-0.012612	-0.001378	0.097279	1.000000	0.000016	0.000040	0.000017	-19.911655	-85.506084	17.322482
47575	9.893033	-0.286598	0.744553	-0.014096	-0.020875	0.112430	1.000000	0.000006	0.000030	0.000029	-19.922868	-85.505888	17.332507
47576	9.910436	-0.274623	0.733288	-0.001170	-0.009015	0.128630	1.000000	0.000005	0.000020	0.000013	-19.918598	-85.507413	17.327692
47577	9.854894	-0.256129	0.721929	0.006624	0.007646	0.071928	1.000000	0.000033	0.000022	0.000031	-19.933208	-85.507918	17.344318
47578	9.886887	-0.263673	0.711856	0.018708	0.000378	0.103282	1.000000	0.000007	0.000037	0.000011	-19.916673	-85.507626	17.320461
47579	9.878236	-0.268599	0.745591	-0.015769	-0.003234	0.097274	1.000000	0.000015	0.000024	0.000027	-19.926969	-85.508078	17.330669
47580	9.886779	-0.264510	0.713052	0.017439	-0.000360	0.103285	1.000000	0.000020	0.000034	0.000025	-19.929941	-85.507598	17.331339
47581	9.860657	-0.281909	0.758613	-0.030601	-0.016190	0.081064	1.000000	0.000020	0.000034	0.000025	-19.931964	-85.507106	17.333780
47582	9.869206	-0.277746	0.726061	0.002617	-0.013326	0.087078	1.000000	0.000014	0.000023	0.000019	-19.932673	-85.507972	17.331663
47583	9.927513	-0.265095	0.725633	0.007962	0.000603	0.144836	1.000000	0.000009	0.000038	0.000019	-19.925785	-85.507277	17.323892
47584	9.886561	-0.266033	0.715500	0.014915	-0.001847	0.103288	1.000000	0.000030	0.000020	0.000015	-19.921282	-85.508675	17.321887
47585	9.886510	-0.266490	0.716037	0.014284	-0.002221	0.103289	1.000000	0.000014	0.000033	0.000034	-19.937721	-85.507885	17.338144
47586	9.886449	-0.266971	0.716696	0.013652	-0.002592	0.103290	1.000000	0.000018	0.000033	0.000017	-19.930184	-85.507833	17.330318
47587	9.895243	-0.259468	0.738724	-0.007262	0.006026	0.113479	1.000000	0.000018	0.000033	0.000017	-19.922382	-85.507787	17.322730
47588	9.854287	-0.260550	0.728606	-0.000290	0.003580	0.071932	1.000000	0.000024	0.000028	0.000032	-19.938047	-85.507618	17.338183
47589	9.868813	-0.280579	0.730297	-0.001798	-0.015924	0.087074	1.000000	0.000011	0.000031	0.000019	-19.934835	-85.507720	17.334383
47590	9.886452	-0.265339	0.773629	-0.042991	0.001693	0.107443	1.000000	0.000004	0.000028	0.000021	-19.936224	-85.507938	17.331848
47591	9.903642	-0.256713	0.707974	0.024062	0.007752	0.119514	1.000000	0.000031	0.000030	0.000030	-19.947156	-85.507647	17.344500
47592	9.871537	-0.250031	0.719183	0.010764	0.014302	0.088155	1.000000	0.000022	0.000027	0.000025	-19.952781	-85.507906	17.350529
47593	9.894908	-0.262177	0.742241	-0.011036	0.003790	0.113476	1.000000	0.000011	0.000031	0.000019	-19.949565	-85.508009	17.346726
47594	9.909433	-0.282160	0.743906	-0.012558	-0.015714	0.128613	1.000000	0.000015	0.000024	0.000027	-19.960029	-85.508462	17.352887
47595	9.880215	-0.243510	0.742359	-0.011410	0.022180	0.098338	1.000000	0.000025	0.000044	0.000022	-19.953760	-85.507026	17.347544
47596	9.885885	-0.271255	0.722843	0.007346	-0.006318	0.103295	1.000000	0.000011	0.000031	0.000019	-19.951189	-85.507152	17.345853
47597	9.885832	-0.271660	0.723416	0.006714	-0.006692	0.103295	1.000000	0.000022	0.000027	0.000025	-19.956889	-85.507457	17.352267
47598	9.885784	-0.272066	0.723916	0.006080	-0.007060	0.103295	1.000000	0.000014	0.000023	0.000019	-19.957865	-85.508354	17.352471
47599	9.877090	-0.277062	0.757571	-0.028392	-0.010636	0.097241	1.000000	0.000031	0.000030	0.000030	-19.968796	-85.508064	17.365121
47600	9.885676	-0.273029	0.725025	0.004810	-0.007805	0.103296	1.000000	0.000022	0.000027	0.000025	-19.974866	-85.508402	17.372567
47601	9.876966	-0.277970	0.758862	-0.029661	-0.011379	0.097236	1.000000	0.000006	0.000045	0.000018	-19.964255	-85.506913	17.360777
47602	9.903036	-0.261415	0.714709	0.017104	0.003648	0.119531	1.000000	0.000021	0.000025	0.000017	-19.960259	-85.507634	17.356152
47603	9.871111	-0.251304	0.780410	-0.050304	0.016019	0.092273	1.000000	0.000020	0.000034	0.000025	-19.962265	-85.507143	17.358576
47604	9.867959	-0.286971	0.739300	-0.011259	-0.021494	0.087057	1.000000	0.000018	0.000017	0.000027	-19.975890	-85.508357	17.366160
47605	9.894222	-0.267291	0.749523	-0.018625	-0.000671	0.113466	1.000000	0.000017	0.000041	0.000024	-19.974195	-85.507070	17.364588
47606	9.885344	-0.275409	0.728648	0.001017	-0.010039	0.103295	1.000000	-0.000001	0.000009	0.000008	-19.968800	-85.510016	17.359849
47607	9.885294	-0.275763	0.729185	0.000385	-0.010413	0.103294	1.000000	0.000026	0.000045	0.000030	-19.972337	-85.508135	17.364514
47608	9.856103	-0.236946	0.727641	0.001581	0.027498	0.073040	1.000000	0.000008	0.000028	0.000003	-19.949580	-85.509117	17.340164
47609	9.893996	-0.268656	0.752010	-0.021166	-0.002155	0.113460	1.000000	0.000020	0.000044	0.000040	-19.967525	-85.506937	17.358637
47610	9.893931	-0.269237	0.752661	-0.021796	-0.002522	0.113459	1.000000	0.000007	0.000021	0.000021	-19.972903	-85.507966	17.359407
47611	9.870489	-0.257920	0.730694	-0.001221	0.007243	0.088168	1.000000	0.000020	0.000034	0.000025	-19.974904	-85.507476	17.361827
47612	9.893819	-0.269971	0.753868	-0.023043	-0.003267	0.113456	1.000000	0.000017	0.000031	0.000009	-19.956866	-85.507780	17.340885
47613	9.884935	-0.278041	0.733182	-0.003386	-0.012647	0.103291	1.000000	0.000009	0.000038	0.000019	-19.949938	-85.507087	17.333076
47614	9.887815	-0.246369	0.721019	0.010472	0.018307	0.104419	1.000000	0.000024	0.000033	0.000007	-19.927505	-85.507253	17.305890
47615	9.876128	-0.283065	0.767833	-0.038473	-0.016563	0.097199	1.000000	0.000015	0.000049	0.000024	-19.922126	-85.505170	17.300339
47616	9.902241	-0.266720	0.723700	0.008288	-0.001588	0.119543	1.000000	0.000008	0.000022	0.000029	-19.936781	-85.505724	17.309672
47617	9.911012	-0.259408	0.745573	-0.012633	0.007050	0.129702	1.000000	0.000022	0.000027	0.000025	-19.942474	-85.506030	17.316079
47618	9.875821	-0.287783	0.715042	0.013767	-0.023524	0.093129	1.000000	0.000014	0.000023	0.000019	-19.942929	-85.506898	17.310509
47619	9.896356	-0.240677	0.745472	-0.012955	0.025451	0.114583	1.000000	0.000013	0.000032	0.000027	-19.949509	-85.506556	17.316705
47620	9.875709	-0.288617	0.716238	0.012505	-0.024269	0.093129	1.000000	0.000018	0.000033	0.000017	-19.941768	-85.506499	17.308640
47621	9.878609	-0.257076	0.703973	0.026362	0.006676	0.094272	1.000000	0.000029	0.000029	0.000023	-19.942880	-85.506658	17.311268
47622	9.884409	-0.281507	0.738930	-0.009053	-0.015992	0.103283	1.000000	0.000016	0.000040	0.000017	-19.932138	-85.505837	17.302029
47623	9.893050	-0.277383	0.706417	0.024150	-0.013211	0.109391	1.000000	0.000025	0.000019	0.000025	-19.941525	-85.506939	17.312425
47624	9.893004	-0.277840	0.706881	0.023505	-0.013576	0.109392	1.000000	0.000022	0.000026	0.000025	-19.948189	-85.507294	17.317319
47625	9.860989	-0.267627	0.772699	-0.043849	-0.001100	0.082052	1.000000	0.000021	0.000050	0.000014	-19.928394	-85.505511	17.297954
47626	9.869617	-0.263480	0.740426	-0.010638	0.001686	0.088165	1.000000	0.000020	0.000034	0.000025	-19.930773	-85.504970	17.292430
47627	9.901623	-0.271211	0.730454	0.001322	-0.005675	0.119544	1.000000	0.000015	0.000024	0.000027	-19.941041	-85.505424	17.302609
47628	9.887024	-0.252069	0.729837	0.001648	0.013114	0.104433	1.000000	0.000011	0.000031	0.000019	-19.938547	-85.505497	17.296264
47629	9.878163	-0.260297	0.709026	0.021307	0.003718	0.094286	1.000000	0.000022	0.000026	0.000025	-19.944238	-85.505804	17.302669
47630	9.901465	-0.272477	0.732131	-0.000584	-0.006780	0.119544	1.000000	0.000004	0.000028	0.000021	-19.946159	-85.506100	17.300573
47631	9.851737	-0.281196	0.700473	0.026781	-0.018205	0.067869	1.000000	0.000028	0.000027	0.000015	-19.937457	-85.506706	17.293186
47632	9.878015	-0.261412	0.710679	0.019399	0.002609	0.094290	1.000000	0.000022	0.000026	0.000025	-19.943791	-85.507027	17.300225
47633	9.892593	-0.278056	0.766916	-0.036322	-0.011025	0.113411	1.000000	0.000011	0.000031	0.000019	-19.940544	-85.507132	17.296392
47634	9.886710	-0.254397	0.733281	-0.002151	0.010895	0.104436	1.000000	0.000020	0.000034	0.000025	-19.943081	-85.506619	17.292678
47635	9.901191	-0.274353	0.735128	-0.003754	-0.008633	0.119542	1.000000	0.000018	0.000033	0.000017	-19.935256	-85.506577	17.285070
47636	9.886597	-0.255156	0.734544	-0.003411	0.010152	0.104436	1.000000	0.000022	0.000026	0.000025	-19.941158	-85.506868	17.289058
47637	9.874755	-0.295325	0.726594	0.001730	-0.030553	0.093119	1.000000	0.000022	0.000026	0.000025	-19.946850	-85.507175	17.295463
47638	9.863152	-0.244190	0.713142	0.016610	0.019534	0.079194	1.000000	0.000007	0.000037	0.000011	-19.929864	-85.506847	17.272923
47639	9.912765	-0.236034	0.746021	-0.012039	0.030211	0.130859	1.000000	0.000028	0.000027	0.000015	-19.921160	-85.507453	17.265533
47640	9.892134	-0.283880	0.716588	0.013387	-0.019521	0.109401	1.000000	0.000016	0.000016	0.000019	-19.925758	-85.509136	17.267357
47641	9.892088	-0.284185	0.717098	0.012754	-0.019895	0.109401	1.000000	0.000026	0.000035	0.000015	-19.913347	-85.508946	17.255966
47642	9.892032	-0.284667	0.717685	0.012127	-0.020269	0.109401	1.000000	0.000010	0.000024	0.000036	-19.937913	-85.509056	17.274313
47643	9.880441	-0.233785	0.704165	0.027014	0.029814	0.095491	1.000000	0.000020	0.000034	0.000024	-19.939899	-85.508568	17.276717
47644	9.886173	-0.258293	0.739140	-0.008436	0.007185	0.104436	1.000000	0.000020	0.000034	0.000024	-19.942181	-85.508060	17.274314
47645	9.883104	-0.290654	0.752707	-0.023603	-0.024483	0.103242	1.000000	0.000013	0.000032	0.000026	-19.948740	-85.507719	17.280488
47646	9.880265	-0.235202	0.706161	0.025120	0.028698	0.095499	1.000000	0.000020	0.000034	0.000024	-19.951205	-85.507276	17.280037
47647	9.877202	-0.267438	0.719688	0.009950	-0.002969	0.094304	1.000000	0.000028	0.000027	0.000015	-19.942503	-85.507884	17.272651
47648	9.845081	-0.260454	0.730782	-0.003229	0.003694	0.062913	1.000000	0.000011	0.000031	0.000019	-19.939774	-85.508029	17.269968
47649	9.888606	-0.319811	0.734936	-0.006864	-0.054164	0.108198	1.000000	0.000011	0.000025	0.000044	-19.974246	-85.507737	17.303949
47650	9.862507	-0.249242	0.720280	0.009061	0.015083	0.079211	1.000000	0.000022	0.000041	0.000007	-19.948429	-85.507150	17.270456
47651	9.944168	-0.248469	0.742698	-0.007087	0.018723	0.162252	1.000000	0.000015	0.000024	0.000027	-19.958693	-85.507605	17.280629
47652	9.917780	-0.269100	0.733585	-0.000975	-0.002819	0.135825	1.000000	0.000013	0.000032	0.000026	-19.965449	-85.507287	17.282818
47653	9.824530	-0.215835	0.752813	-0.024638	0.049217	0.042853	1.000000	0.000013	0.000032	0.000026	-19.971999	-85.506946	17.288983
47654	9.891324	-0.290258	0.725158	0.005657	-0.026638	0.109392	1.000000	0.000006	0.000030	0.000028	-19.823786	-85.503689	17.146387
47655	9.937867	-0.317704	0.716315	0.016541	-0.053232	0.155870	1.000000	0.000011	0.000015	0.000029	-19.841955	-85.505083	17.163954
47656	9.821340	-0.249289	0.767340	-0.039939	0.014922	0.041645	1.000000	0.000017	0.000041	0.000024	-19.840550	-85.503816	17.167583
47657	9.876635	-0.272133	0.725676	0.004774	-0.008593	0.094304	1.000000	0.000011	0.000031	0.000019	-19.836957	-85.503915	17.163401
47658	9.902917	-0.252370	0.735972	-0.002623	0.012193	0.120739	1.000000	0.000011	0.000031	0.000019	-19.833950	-85.504064	17.159820
47659	9.862004	-0.253248	0.725753	0.004521	0.009829	0.079221	1.000000	0.000009	0.000038	0.000019	-19.826668	-85.503367	17.151655
47660	9.931830	-0.292287	0.739757	-0.005929	-0.026893	0.150904	1.000000	0.000029	0.000029	0.000023	-19.828439	-85.503562	17.157791
47661	9.882149	-0.300848	0.708052	0.021512	-0.038296	0.099265	1.000000	0.000015	0.000030	0.000001	-19.800638	-85.504404	17.129802
47662	9.820996	-0.254528	0.716701	0.010403	0.006736	0.037706	1.000000	0.000011	0.000031	0.000019	-19.797766	-85.504533	17.121228
47663	9.911419	-0.249648	0.706063	0.028035	0.013393	0.126936	1.000000	0.000034	0.000033	0.000046	-19.828009	-85.503355	17.153589
47664	9.893786	-0.262536	0.718555	0.013869	0.000911	0.110621	1.000000	0.000032	0.000046	0.000020	-19.817390	-85.501780	17.142644
47665	9.934559	-0.262373	0.730384	0.005448	0.002513	0.152137	1.000000	0.000006	0.000045	0.000018	-19.806422	-85.500287	17.130499
47666	9.911196	-0.247571	0.762935	-0.027976	0.018250	0.130856	1.000000	0.000014	0.000023	0.000019	-19.806597	-85.501154	17.127011
47667	9.876032	-0.275896	0.732434	-0.001548	-0.012326	0.094302	1.000000	0.000002	0.000036	0.000020	-19.803873	-85.500605	17.122600
47668	9.861463	-0.256677	0.731864	-0.001145	0.006478	0.079225	1.000000	0.000011	0.000031	0.000019	-19.800677	-85.500706	17.114446
47669	9.916760	-0.276191	0.744646	-0.010610	-0.011097	0.135814	1.000000	0.000013	0.000032	0.000026	-19.806892	-85.500361	17.120272
47670	9.922432	-0.304155	0.725173	0.008010	-0.039690	0.140775	1.000000	0.000003	0.000037	0.000028	-19.814783	-85.499396	17.131681
47671	9.893358	-0.265262	0.723428	0.009453	-0.001715	0.110626	1.000000	0.000006	0.000035	0.000003	-19.787879	-85.499589	17.103491
47672	9.846727	-0.238436	0.733243	-0.002616	0.024165	0.064152	1.000000	0.000019	0.000024	0.000009	-19.773716	-85.500743	17.081622
47673	9.884494	-0.273605	0.703197	0.028494	-0.011518	0.100517	1.000000	0.000014	0.000033	0.000034	-19.789745	-85.499954	17.097464
47674	9.843551	-0.271208	0.747303	-0.018446	-0.007853	0.062894	1.000000	0.000014	0.000023	0.000019	-19.790082	-85.500854	17.088787
47675	9.916423	-0.278442	0.748293	-0.014409	-0.013343	0.135807	1.000000	0.000022	0.000026	0.000025	-19.795423	-85.501158	17.094839
47676	9.875531	-0.279324	0.737870	-0.007226	-0.015683	0.094294	1.000000	0.000021	0.000025	0.000017	-19.791339	-85.501907	17.086458
47677	9.878550	-0.247914	0.725545	0.006729	0.015210	0.095559	1.000000	0.000021	0.000035	0.000032	-19.802808	-85.500970	17.098544
47678	9.892987	-0.268098	0.727446	0.005050	-0.004346	0.110628	1.000000	0.000031	0.000030	0.000030	-19.813261	-85.500647	17.107068
47679	9.878427	-0.249001	0.726844	0.005479	0.014457	0.095561	1.000000	0.000020	0.000034	0.000024	-19.814909	-85.500156	17.109134
47680	9.878360	-0.249456	0.727598	0.004849	0.014090	0.095562	1.000000	0.000017	0.000041	0.000024	-19.813635	-85.498871	17.100288
47681	9.892798	-0.269262	0.729583	0.003155	-0.005468	0.110629	1.000000	0.000023	0.000032	-0.000001	-19.781301	-85.499567	17.068572
47682	9.910338	-0.257209	0.718413	0.016065	0.006236	0.126970	1.000000	0.000025	0.000019	0.000025	-19.790187	-85.500609	17.068575
47683	9.883951	-0.277764	0.709165	0.022197	-0.015287	0.100528	1.000000	0.000022	0.000026	0.000025	-19.795523	-85.500914	17.074622
47684	9.878156	-0.250797	0.729895	0.002347	0.012593	0.095564	1.000000	0.000013	0.000032	0.000026	-19.802288	-85.500560	17.074822
47685	9.919015	-0.254144	0.687025	0.047995	0.008115	0.133220	1.000000	0.000018	0.000033	0.000017	-19.794122	-85.500514	17.066871
47686	9.892548	-0.270984	0.732328	0.000003	-0.007332	0.110628	1.000000	0.000011	0.000020	0.000003	-19.775443	-85.502318	17.036753
47687	9.883657	-0.275493	0.766077	-0.034452	-0.010705	0.104376	1.000000	0.000012	0.000046	0.000009	-19.750086	-85.501123	17.010822
47688	9.898176	-0.298891	0.713545	0.017939	-0.036334	0.115592	1.000000	0.000033	0.000022	0.000031	-19.765180	-85.501670	17.028941
47689	9.892392	-0.271845	0.734111	-0.001898	-0.008452	0.110627	1.000000	0.000005	0.000020	0.000013	-19.759982	-85.503159	17.022443
47690	9.892342	-0.272172	0.734662	-0.002517	-0.008826	0.110626	1.000000	0.000002	0.000036	0.000020	-19.757110	-85.502539	17.014630
47691	9.895382	-0.240668	0.722472	0.011473	0.022049	0.111921	1.000000	0.000016	0.000040	0.000016	-19.745255	-85.501696	17.002697
47692	9.892218	-0.272777	0.736110	-0.003772	-0.009576	0.110625	1.000000	0.000010	0.000029	0.000011	-19.731819	-85.502196	16.983601
47693	9.886417	-0.245599	0.756914	-0.023600	0.018313	0.105659	1.000000	0.000009	0.000038	0.000018	-19.724518	-85.501501	16.975417
47694	9.892097	-0.273482	0.737477	-0.005032	-0.010323	0.110624	1.000000	0.000013	0.000032	0.000026	-19.731057	-85.501134	16.977290
47695	9.883278	-0.281757	0.716925	0.014630	-0.019779	0.100534	1.000000	0.000029	0.000053	0.000020	-19.716253	-85.498757	16.963924
47696	9.859873	-0.266897	0.749422	-0.018714	-0.003943	0.079208	1.000000	0.000016	0.000016	0.000019	-19.719961	-85.500417	16.969092
47697	9.886282	-0.250611	0.705275	0.028006	0.010716	0.101842	1.000000	0.000006	0.000045	0.000018	-19.708982	-85.498925	16.956938
47698	9.891843	-0.274971	0.740311	-0.007557	-0.011814	0.110621	1.000000	0.000014	0.000023	0.000019	-19.709790	-85.499831	16.942818
47699	9.894912	-0.243523	0.727932	0.006453	0.019051	0.111931	1.000000	0.000020	0.000034	0.000024	-19.711441	-85.499341	16.944885
47700	9.882991	-0.283601	0.720149	0.011468	-0.021646	0.100534	1.000000	0.000018	0.000033	0.000017	-19.703874	-85.499303	16.931275
47701	9.909279	-0.263820	0.730534	0.004075	-0.000885	0.126984	1.000000	0.000018	0.000033	0.000017	-19.695706	-85.499256	16.923323
47702	9.859521	-0.269058	0.753267	-0.022500	-0.006159	0.079199	1.000000	0.000020	0.000034	0.000024	-19.697823	-85.498783	16.926283
47703	9.877077	-0.257225	0.742165	-0.009601	0.005513	0.095567	1.000000	0.000014	0.000023	0.000019	-19.697876	-85.499680	16.926041
47704	9.865017	-0.293813	0.788734	-0.058692	-0.029048	0.087954	1.000000	0.000011	0.000031	0.000019	-19.694336	-85.499730	16.919424
47705	9.876965	-0.258030	0.743374	-0.010851	0.004767	0.095566	1.000000	0.000003	0.000037	0.000028	-19.701393	-85.498739	16.924995
47706	9.876904	-0.258382	0.744055	-0.011491	0.004402	0.095565	1.000000	0.000017	0.000031	0.000009	-19.684342	-85.499175	16.909033
47707	9.908940	-0.266120	0.734285	0.000278	-0.003126	0.126984	1.000000	0.000006	0.000030	0.000028	-19.695076	-85.498980	16.918575
47708	9.885684	-0.254805	0.712116	0.021066	0.006606	0.101863	1.000000	0.000014	0.000023	0.000019	-19.695662	-85.499887	16.915946
47709	9.891222	-0.279158	0.747018	-0.014514	-0.015911	0.110607	1.000000	0.000011	0.000031	0.000019	-19.692033	-85.499989	16.911729
47710	9.891176	-0.279460	0.747519	-0.015145	-0.016281	0.110606	1.000000	0.000005	0.000020	0.000013	-19.687036	-85.501460	16.898393
47711	9.873517	-0.292041	0.759576	-0.029302	-0.028691	0.094224	1.000000	0.000025	0.000019	0.000025	-19.696049	-85.502564	16.908409
47712	9.894226	-0.248422	0.735557	-0.001756	0.014208	0.111942	1.000000	0.000017	0.000041	0.000024	-19.694947	-85.501333	16.903019
47713	9.899911	-0.276397	0.716083	0.016765	-0.014463	0.116911	1.000000	0.000008	0.000022	0.000029	-19.709365	-85.501935	16.916537
47714	9.876492	-0.261454	0.748439	-0.016542	0.001435	0.095559	1.000000	0.000031	0.000035	0.000005	-19.682732	-85.502033	16.881353
47715	9.917430	-0.264682	0.705666	0.029024	-0.003186	0.133296	1.000000	0.000011	0.000031	0.000019	-19.679097	-85.502135	16.877130
47716	9.853189	-0.250363	0.726976	0.003638	0.010789	0.070449	1.000000	0.000024	0.000028	0.000032	-19.694806	-85.502004	16.897035
47717	9.890794	-0.282211	0.751524	-0.019584	-0.018881	0.110593	1.000000	0.000021	0.000025	0.000017	-19.690310	-85.502756	16.893049
47718	9.885175	-0.258650	0.717779	0.014746	0.002872	0.101876	1.000000	0.000029	0.000037	0.000030	-19.697914	-85.501703	16.899642
47719	9.870654	-0.239482	0.717079	0.015270	0.021696	0.086841	1.000000	0.000014	0.000023	0.000019	-19.697961	-85.502602	16.899394
47720	9.908244	-0.271281	0.741749	-0.007984	-0.007963	0.126978	1.000000	0.000017	0.000041	0.000024	-19.697278	-85.501405	16.898476
47721	9.867370	-0.272231	0.731335	-0.000686	-0.010263	0.085486	1.000000	0.000033	0.000022	0.000031	-19.711575	-85.501919	16.914781
47722	9.884950	-0.260472	0.720210	0.012194	0.001392	0.101880	1.000000	0.000011	0.000031	0.000019	-19.708974	-85.502070	16.909353
47723	9.899357	-0.280426	0.722155	0.010402	-0.018185	0.116913	1.000000	0.000018	0.000033	0.000017	-19.700792	-85.502026	16.901388
47724	9.884838	-0.261204	0.721486	0.010925	0.000645	0.101881	1.000000	0.000013	0.000032	0.000026	-19.707467	-85.501724	16.906065
47725	9.884783	-0.261532	0.722117	0.010295	0.000269	0.101882	1.000000	0.000017	0.000031	0.000009	-19.689461	-85.502124	16.888076
47726	9.876024	-0.269641	0.701251	0.029951	-0.009204	0.091823	1.000000	0.000014	0.000023	0.000019	-19.690324	-85.503059	16.889753
47727	9.875763	-0.266390	0.756274	-0.024790	-0.003379	0.095541	1.000000	0.000017	0.000031	0.000009	-19.672310	-85.503458	16.871756
47728	9.902276	-0.250032	0.712213	0.021891	0.011176	0.118285	1.000000	0.000026	0.000035	0.000015	-19.660690	-85.503363	16.868107
47729	9.899034	-0.282425	0.725791	0.006575	-0.020419	0.116912	1.000000	0.000011	0.000025	0.000044	-19.694752	-85.503080	16.901669
47730	9.878780	-0.235762	0.745083	-0.012017	0.026726	0.096913	1.000000	0.000008	0.000028	0.000003	-19.671868	-85.504082	16.878186
47731	9.898933	-0.283056	0.726925	0.005308	-0.021167	0.116911	1.000000	0.000018	0.000033	0.000017	-19.663680	-85.504038	16.870215
47732	9.878105	-0.429018	0.594642	0.128574	-0.174097	0.090230	1.000000	0.000017	0.000031	0.000009	-19.646304	-85.504483	16.860954
47733	9.993713	0.159615	0.415757	0.343691	0.407558	0.176727	1.000000	0.000052	0.000055	0.000047	-19.665425	-85.500840	16.884217
47734	9.651033	-0.969632	0.914977	-0.232649	-0.703634	-0.098236	1.000000	0.000117	0.000041	-0.000042	-19.562283	-85.502112	16.782536
47735	9.792961	-0.881856	0.658862	0.037142	-0.626574	0.021939	1.000000	0.000035	0.000000	-0.000025	-19.510465	-85.507167	16.732716
47736	10.351452	0.366428	0.920180	-0.121723	0.645588	0.565268	1.000000	0.000050	0.000067	0.000088	-19.581052	-85.500695	16.791586
47737	9.709585	0.309977	0.812610	-0.064817	0.570528	-0.081154	1.000000	-0.000007	0.000056	0.000078	-19.648707	-85.495752	16.856758
47738	10.947120	-0.086878	0.790401	0.031752	0.201504	1.161378	1.000000	-0.000033	0.000037	-0.000021	-19.593899	-85.496743	16.793669
47739	9.082493	-0.619266	0.630782	0.025013	-0.381483	-0.695292	1.000000	-0.000041	0.000030	-0.000060	-19.489244	-85.499900	16.682132
47740	9.768843	-0.115349	0.612893	0.118514	0.135923	-0.025619	1.000000	-0.000004	0.000030	0.000056	-19.539595	-85.498777	16.733718
47741	9.303910	-0.080476	0.817395	-0.117769	0.171262	-0.474906	1.000000	0.000004	0.000101	0.000079	-19.585175	-85.488973	16.777967
47742	10.326559	-0.334334	0.773926	-0.009547	-0.060043	0.548049	1.000000	-0.000014	-0.000030	0.000073	-19.688565	-85.493530	16.873673
47743	10.219275	-0.264577	0.736104	0.022874	0.005399	0.436453	1.000000	-0.000044	0.000041	-0.000027	-19.624169	-85.494283	16.802097
47744	9.932156	-0.347734	0.828179	-0.094521	-0.080246	0.159231	1.000000	-0.000034	0.000021	-0.000011	-19.590653	-85.496515	16.747682
47745	9.241929	-0.225060	0.729722	-0.042447	0.021578	-0.539386	1.000000	0.000006	0.000040	0.000044	-19.617314	-85.494643	16.773256
47746	9.989192	-0.192939	0.721295	0.023926	0.070643	0.204092	1.000000	0.000050	0.000038	0.000050	-19.649085	-85.492783	16.799332
47747	9.612559	-0.523724	0.829062	-0.127629	-0.262580	-0.154650	1.000000	0.000074	0.000042	0.000019	-19.632548	-85.491624	16.789339
47748	10.348648	-0.439633	0.806015	-0.045455	-0.163182	0.575227	1.000000	0.000066	-0.000010	0.000018	-19.642191	-85.496127	16.797480
47749	9.793213	-0.181020	0.797387	-0.066473	0.081726	0.014037	1.000000	0.000041	0.000030	0.000003	-19.614295	-85.496882	16.772310
47750	9.786616	0.084050	0.758631	-0.015551	0.344426	-0.002408	1.000000	0.000033	0.000017	0.000056	-19.666434	-85.497000	16.815029
47751	9.924323	-0.275124	0.695924	0.039889	-0.013795	0.139720	1.000000	0.000007	0.000056	0.000033	-19.671332	-85.493831	16.818862
47752	10.073295	-0.587376	0.750752	-0.018478	-0.319101	0.300559	1.000000	0.000025	0.000029	0.000040	-19.697655	-85.493368	16.850627
47753	9.909023	-0.348052	0.701839	0.029413	-0.086047	0.126839	1.000000	0.000019	0.000018	0.000035	-19.720991	-85.494178	16.874359
47754	10.029141	-0.291625	0.688333	0.054508	-0.027502	0.244091	1.000000	0.000030	0.000028	0.000023	-19.722629	-85.494375	16.878826
47755	9.577417	-0.131820	0.785285	-0.068278	0.126808	-0.203305	1.000000	0.000025	0.000029	0.000040	-19.747544	-85.493798	16.904849
47756	10.094431	-0.122149	0.711476	0.044555	0.144986	0.306386	1.000000	0.000004	0.000023	0.000046	-19.786167	-85.493628	16.929797
47757	9.815703	-0.296604	0.721869	0.004779	-0.034606	0.033930	1.000000	-0.000012	0.000042	0.000040	-19.808248	-85.491690	16.948689
47758	10.040820	-0.254903	0.699253	0.046392	0.011295	0.255566	1.000000	-0.000012	0.000032	0.000024	-19.815009	-85.491461	16.957179
47759	9.783022	-0.385004	0.684786	0.034913	-0.125126	0.000967	1.000000	0.000011	0.000015	0.000029	-19.833097	-85.492858	16.974659
47760	9.713027	-0.342871	0.725748	-0.009328	-0.082618	-0.066907	1.000000	0.000019	0.000024	0.000009	-19.819746	-85.494102	16.955321
47761	9.877224	-0.253962	0.710541	0.022484	0.008946	0.093287	1.000000	0.000026	0.000035	0.000015	-19.807036	-85.493918	16.943636
47762	9.935637	-0.241672	0.710770	0.027332	0.022415	0.151209	1.000000	0.000026	0.000035	0.000015	-19.794975	-85.493729	16.920294
47763	9.935587	-0.241953	0.711375	0.026699	0.022037	0.151211	1.000000	0.000021	0.000025	0.000017	-19.790503	-85.494485	16.916332
47764	10.001893	-0.312821	0.738962	0.000742	-0.046076	0.221238	1.000000	0.000020	0.000039	-0.000001	-19.754642	-85.494353	16.858674
47765	9.853917	-0.242791	0.690473	0.041529	0.017514	0.068272	1.000000	0.000020	0.000039	-0.000001	-19.718630	-85.494259	16.822995
47766	9.944440	-0.237766	0.680574	0.058638	0.023675	0.157649	1.000000	0.000022	0.000041	0.000007	-19.692338	-85.493667	16.777845
47767	9.824170	-0.294992	0.695199	0.032269	-0.035516	0.040350	1.000000	0.000031	0.000030	0.000030	-19.702931	-85.493390	16.790152
47768	9.929106	-0.310155	0.686568	0.048060	-0.048580	0.144724	1.000000	0.000003	0.000037	0.000028	-19.710366	-85.492410	16.778222
47769	9.912156	-0.231619	0.692879	0.044502	0.029816	0.126211	1.000000	0.000011	0.000030	0.000019	-19.706700	-85.492517	16.773970
47770	9.828066	-0.173581	0.678266	0.055793	0.085221	0.039759	1.000000	-0.000005	0.000044	0.000038	-19.724725	-85.490436	16.775224
47771	9.917769	-0.260375	0.674366	0.062240	0.000660	0.131197	1.000000	-0.000004	0.000035	0.000030	-19.736186	-85.489594	16.784395
47772	9.795004	-0.258523	0.696011	0.031667	0.001067	0.010365	1.000000	0.000012	0.000041	0.000034	-19.749675	-85.488093	16.780425
47773	9.879775	-0.226655	0.706099	0.029746	0.035607	0.094772	1.000000	0.000007	0.000031	0.000036	-19.770095	-85.487457	16.799851
47774	9.847983	-0.223263	0.662466	0.070991	0.036084	0.059756	1.000000	0.000011	0.000030	0.000019	-19.766544	-85.487568	16.786132
47775	9.835595	-0.259709	0.709211	0.021725	0.001830	0.051839	1.000000	0.000034	0.000038	0.000020	-19.759121	-85.486794	16.780739
