// Start Time: Unknown
// Update Rate: 100.0Hz
// Filter Profile: human (46.1)
// Firmware Version: 4.4.0
PacketCounter	Acc_X	Acc_Y	Acc_Z	FreeAcc_X	FreeAcc_Y	FreeAcc_Z	OriInc_q0	OriInc_q1	OriInc_q2	OriInc_q3	Roll	Pitch	Yaw
43057	9.592628	-0.437696	-2.228932	0.000000	0.000000	0.045214	1.000000	-0.000004	0.000035	0.000039	-168.900895	-76.676409	-172.218965
43058	9.595642	-0.462590	-2.230849	-0.000000	-0.000000	0.049718	1.000000	-0.000005	0.000041	0.000046	-168.297674	-76.641752	-172.396568
43059	9.585742	-0.462159	-2.252425	0.026202	-0.004323	0.044936	1.000000	-0.000010	0.000028	0.000042	-168.588249	-76.659957	-172.324562
43060	9.608742	-0.489419	-2.210058	-0.008914	-0.043691	0.058980	1.000000	-0.000003	0.000029	0.000033	-168.570364	-76.662488	-172.343354
43061	9.583890	-0.469765	-2.197056	-0.021222	-0.027604	0.030964	1.000000	0.000019	0.000035	0.000041	-168.544229	-76.665079	-172.368378
43062	9.626063	-0.469171	-2.161879	-0.063152	-0.038971	0.064023	1.000000	-0.000007	0.000011	0.000022	-168.533638	-76.665779	-172.380136
43063	9.584026	-0.470825	-2.196234	-0.021203	-0.027587	0.030964	1.000000	-0.000012	0.000029	0.000027	-168.518845	-76.668587	-172.396709
43064	9.584046	-0.471285	-2.196048	-0.021203	-0.027587	0.030964	1.000000	-0.000009	-0.000009	0.000026	-168.508661	-76.666990	-172.408245
43065	9.593208	-0.442744	-2.225434	-0.005661	0.009124	0.045208	1.000000	-0.000004	0.000004	0.000030	-168.493882	-76.666953	-172.423909
43066	9.573971	-0.470900	-2.218388	0.001151	-0.018877	0.026192	1.000000	-0.000011	-0.000008	0.000011	-168.490605	-76.665824	-172.428617
43067	9.583121	-0.442163	-2.247872	0.016695	0.017839	0.040436	1.000000	0.000005	-0.000008	0.000022	-168.479406	-76.664634	-172.439451
43068	9.583067	-0.442470	-2.248042	0.016695	0.017839	0.040436	1.000000	-0.000026	-0.000008	0.000015	-168.476173	-76.663349	-172.445805
43069	9.605114	-0.438930	-2.257894	0.019414	0.023830	0.063953	1.000000	-0.000020	-0.000002	0.000012	-168.472415	-76.662964	-172.452048
43070	9.599390	-0.390855	-2.252522	0.000374	0.067883	0.054952	1.000000	-0.000010	0.000012	0.000008	-168.468721	-76.664130	-172.456989
43071	9.614355	-0.410269	-2.286989	0.034913	0.060436	0.078197	1.000000	-0.000013	0.000004	0.000024	-168.459913	-76.663925	-172.467634
43072	9.589433	-0.390323	-2.274412	0.022686	0.076488	0.050181	1.000000	0.000006	0.000017	0.000025	-168.445689	-76.665281	-172.481516
43073	9.589494	-0.390760	-2.274078	0.022622	0.076282	0.050182	1.000000	-0.000002	0.000017	0.000020	-168.439857	-76.666263	-172.488024
43074	9.598779	-0.362217	-2.303011	0.038127	0.112954	0.064428	1.000000	0.000006	0.000023	0.000032	-168.422042	-76.668122	-172.505679
43075	9.574736	-0.372639	-2.238512	-0.012056	0.083247	0.026941	1.000000	-0.000006	0.000036	0.000025	-168.417423	-76.670531	-172.511732
43076	9.586885	-0.368129	-2.270111	0.012968	0.097891	0.045687	1.000000	-0.000027	0.000003	0.000028	-168.407017	-76.670252	-172.525619
43077	9.577723	-0.397814	-2.240437	-0.002665	0.060589	0.031444	1.000000	0.000004	0.000035	0.000045	-168.397388	-76.671896	-172.535865
43078	9.589913	-0.393485	-2.271844	0.022359	0.075232	0.050191	1.000000	-0.000011	0.000024	0.000021	-168.386503	-76.674068	-172.548357
43079	9.575068	-0.375007	-2.236693	-0.012336	0.081824	0.026953	1.000000	-0.000002	0.000034	0.000054	-168.377404	-76.675144	-172.558973
43080	9.567995	-0.398830	-2.261108	0.019502	0.068469	0.026680	1.000000	0.000003	0.000015	0.000048	-168.352821	-76.675708	-172.583940
43081	9.592995	-0.419961	-2.273110	0.031568	0.051432	0.054699	1.000000	-0.000003	0.000023	0.000026	-168.362388	-76.676071	-172.575720
43082	9.590207	-0.396429	-2.270087	0.022049	0.073460	0.050205	1.000000	0.000000	0.000016	0.000034	-168.344706	-76.677106	-172.593864
43083	9.603120	-0.422564	-2.250083	0.009003	0.041647	0.059472	1.000000	-0.000016	0.000027	0.000051	-168.346846	-76.676741	-172.595083
43084	9.583200	-0.420681	-2.294138	0.053640	0.058993	0.049939	1.000000	-0.000002	0.000017	0.000020	-168.336057	-76.678249	-172.606419
43085	9.625370	-0.420145	-2.258891	0.011414	0.046399	0.082997	1.000000	-0.000010	0.000034	0.000048	-168.340343	-76.678364	-172.604838
43086	9.593374	-0.423458	-2.270864	0.031029	0.049111	0.054713	1.000000	0.000022	0.000022	0.000042	-168.315537	-76.679902	-172.627717
43087	9.591351	-0.430344	-2.216164	-0.016665	0.024487	0.040724	1.000000	-0.000012	0.000029	0.000027	-168.332834	-76.679549	-172.612900
43088	9.581443	-0.429777	-2.237915	0.005653	0.033160	0.035962	1.000000	0.000008	0.000022	0.000046	-168.308075	-76.680926	-172.637416
43089	9.581544	-0.430662	-2.237314	0.005277	0.031835	0.035966	1.000000	-0.000005	0.000041	0.000046	-168.314858	-76.681279	-172.632937
43090	9.613760	-0.429053	-2.224063	-0.014341	0.029116	0.064249	1.000000	-0.000004	0.000035	0.000039	-168.293263	-76.684286	-172.655618
43091	9.572518	-0.461163	-2.206656	-0.010500	-0.006157	0.021688	1.000000	0.000011	0.000030	0.000029	-168.307754	-76.684384	-172.641089
43092	9.591878	-0.434006	-2.213168	-0.017318	0.021826	0.040730	1.000000	-0.000018	0.000029	0.000036	-168.289800	-76.686735	-172.661635
43093	9.562765	-0.461234	-2.227624	0.011564	0.001217	0.016930	1.000000	0.000001	0.000048	0.000043	-168.296306	-76.688626	-172.656048
43094	9.594913	-0.459471	-2.214667	-0.008056	-0.001511	0.045211	1.000000	-0.000018	-0.000003	0.000027	-168.286008	-76.687673	-172.668759
43095	9.575697	-0.487880	-2.207237	-0.001426	-0.030621	0.026162	1.000000	0.000010	0.000041	0.000042	-168.288491	-76.689429	-172.667124
43096	9.585071	-0.459470	-2.236057	0.014076	0.006034	0.040455	1.000000	-0.000022	0.000010	0.000026	-168.277893	-76.689964	-172.680581
43097	9.587917	-0.484037	-2.238528	0.023475	-0.017032	0.044930	1.000000	-0.000013	0.000010	0.000031	-168.289349	-76.688888	-172.671720
43098	9.617213	-0.458059	-2.223045	-0.005662	0.002267	0.068735	1.000000	-0.000017	0.000023	0.000030	-168.275007	-76.690746	-172.688465
43099	9.575204	-0.459615	-2.257537	0.036051	0.012744	0.035703	1.000000	-0.000022	0.000010	0.000026	-168.287077	-76.689291	-172.679862
43100	9.604480	-0.433384	-2.242205	0.006914	0.032040	0.059509	1.000000	-0.000001	0.000006	0.000007	-168.283497	-76.689801	-172.683616
43101	9.592430	-0.438670	-2.209854	-0.018307	0.016482	0.040738	1.000000	0.000002	0.000036	0.000030	-168.288220	-76.691274	-172.679519
43102	9.591813	-0.408872	-2.261080	0.019515	0.061809	0.050290	1.000000	-0.000004	-0.000002	0.000023	-168.277920	-76.690495	-172.690529
43103	9.601804	-0.410545	-2.238689	-0.003177	0.052088	0.055048	1.000000	-0.000002	0.000018	0.000020	-168.291997	-76.689065	-172.677099
43104	9.579743	-0.414646	-2.228721	-0.005877	0.046149	0.031521	1.000000	0.000001	0.000010	0.000027	-168.277928	-76.689584	-172.691426
43105	9.589081	-0.386072	-2.257822	0.009412	0.081756	0.045838	1.000000	-0.000007	0.000011	0.000022	-168.292707	-76.688300	-172.678514
43106	9.599112	-0.387788	-2.235252	-0.012908	0.073075	0.050587	1.000000	-0.000003	0.000023	0.000026	-168.278344	-76.690303	-172.693577
43107	9.589219	-0.387073	-2.257065	0.009236	0.080572	0.045848	1.000000	-0.000009	0.000022	0.000035	-168.289544	-76.690103	-172.685117
43108	9.561542	-0.343150	-2.241707	-0.012500	0.118707	0.013392	1.000000	0.000000	0.000016	0.000034	-168.271873	-76.691124	-172.703224
43109	9.599291	-0.389377	-2.234206	-0.013263	0.070481	0.050605	1.000000	-0.000038	0.000011	0.000015	-168.302934	-76.689909	-172.677586
43110	9.589342	-0.388629	-2.256278	0.009054	0.079158	0.045860	1.000000	0.000012	0.000009	0.000047	-168.278491	-76.689785	-172.701314
43111	9.611483	-0.385577	-2.265729	0.011709	0.083552	0.069402	1.000000	-0.000025	0.000017	0.000018	-168.309466	-76.689936	-172.673373
43112	9.614363	-0.410116	-2.268011	0.021225	0.061511	0.073859	1.000000	-0.000009	0.000022	0.000035	-168.291739	-76.691616	-172.692567
43113	9.582346	-0.413118	-2.280200	0.040558	0.062700	0.045596	1.000000	0.000000	0.000016	0.000034	-168.312327	-76.689804	-172.673484
43114	9.599511	-0.392304	-2.232750	-0.013605	0.067367	0.050626	1.000000	-0.000006	0.000015	0.000043	-168.291278	-76.690494	-172.695742
43115	9.592413	-0.415699	-2.257283	0.018137	0.052406	0.050347	1.000000	-0.000011	0.000024	0.000021	-168.320300	-76.690936	-172.668624
43116	9.567557	-0.395872	-2.244575	0.005920	0.068519	0.022364	1.000000	0.000003	0.000015	0.000048	-168.295801	-76.691479	-172.693437
43117	9.595324	-0.441235	-2.259210	0.027308	0.028713	0.054804	1.000000	-0.000009	0.000022	0.000035	-168.318102	-76.689953	-172.673051
43118	9.589766	-0.393673	-2.253598	0.008265	0.072782	0.045909	1.000000	0.000009	0.000010	0.000033	-168.300643	-76.690291	-172.689836
43119	9.570538	-0.422176	-2.246057	0.014944	0.043245	0.026831	1.000000	0.000010	0.000042	0.000042	-168.314747	-76.691958	-172.675995
43120	9.592750	-0.419298	-2.255187	0.017634	0.049147	0.050365	1.000000	0.000000	0.000016	0.000034	-168.297188	-76.692966	-172.693932
43121	9.592824	-0.419931	-2.254752	0.017278	0.047536	0.050374	1.000000	-0.000003	0.000029	0.000033	-168.318358	-76.692233	-172.673316
43122	9.573607	-0.448281	-2.247159	0.024098	0.019584	0.031279	1.000000	-0.000003	0.000029	0.000033	-168.300512	-76.694711	-172.691972
43123	9.612912	-0.423763	-2.209264	-0.027761	0.028598	0.059846	1.000000	-0.000014	0.000016	0.000037	-168.320482	-76.692163	-172.673793
43124	9.573745	-0.449547	-2.246317	0.023698	0.018024	0.031283	1.000000	-0.000003	0.000029	0.000033	-168.302650	-76.694626	-172.692423
43125	9.561058	-0.424786	-2.265556	0.036245	0.047409	0.022121	1.000000	-0.000005	0.000009	0.000036	-168.317934	-76.692395	-172.679704
43126	9.586640	-0.476207	-2.225802	0.010637	-0.014056	0.040451	1.000000	-0.000016	0.000048	0.000033	-168.299655	-76.697009	-172.700294
43127	9.591152	-0.429739	-2.197567	-0.030699	0.019943	0.036314	1.000000	-0.000011	0.000024	0.000021	-168.323769	-76.698309	-172.676416
43128	9.586864	-0.477213	-2.224623	0.010659	-0.015458	0.040449	1.000000	0.000005	0.000029	0.000038	-168.302521	-76.700641	-172.697551
43129	9.584159	-0.453798	-2.221483	0.000874	0.005259	0.036018	1.000000	-0.000009	0.000022	0.000035	-168.317045	-76.699828	-172.682257
43130	9.594199	-0.455578	-2.198725	-0.021449	-0.003447	0.040745	1.000000	-0.000006	0.000030	0.000018	-168.306254	-76.702785	-172.693867
43131	9.603705	-0.426955	-2.227439	-0.006206	0.032185	0.055131	1.000000	-0.000012	0.000030	0.000027	-168.315729	-76.703307	-172.688530
43132	9.606567	-0.451488	-2.229657	0.003310	0.010132	0.059558	1.000000	-0.000016	0.000017	0.000023	-168.305232	-76.704632	-172.701120
43133	9.603861	-0.427738	-2.226615	-0.006477	0.031171	0.055134	1.000000	0.000003	0.000024	0.000017	-168.318452	-76.704675	-172.688769
43134	9.601161	-0.404258	-2.223505	-0.016003	0.053200	0.050709	1.000000	0.000022	0.000022	0.000042	-168.293829	-76.706166	-172.711330
43135	9.581838	-0.432511	-2.216284	-0.009275	0.024346	0.031596	1.000000	-0.000020	-0.000002	0.000012	-168.313313	-76.704420	-172.697089
43136	9.623319	-0.401376	-2.232897	-0.013421	0.058148	0.074255	1.000000	-0.000016	0.000011	0.000017	-168.306386	-76.705238	-172.705949
43137	9.561995	-0.430420	-2.260531	0.035053	0.040808	0.022155	1.000000	-0.000007	0.000011	0.000022	-168.317557	-76.703456	-172.698738
43138	9.598479	-0.381657	-2.220175	-0.025945	0.073384	0.046297	1.000000	0.000001	0.000010	0.000027	-168.303609	-76.703935	-172.712871
43139	9.588575	-0.380944	-2.242179	-0.003721	0.081101	0.041584	1.000000	0.000000	0.000016	0.000034	-168.309967	-76.703691	-172.708265
43140	9.610700	-0.377746	-2.251781	-0.001041	0.086973	0.065126	1.000000	-0.000026	-0.000008	0.000015	-168.306925	-76.702358	-172.714343
43141	9.576420	-0.386791	-2.209952	-0.028689	0.065305	0.022770	1.000000	-0.000010	0.000034	0.000048	-168.312552	-76.704490	-172.707646
43142	9.591450	-0.406623	-2.244111	0.005834	0.057822	0.046010	1.000000	-0.000007	0.000011	0.000022	-168.302155	-76.705141	-172.719086
43143	9.569347	-0.410757	-2.234244	0.002841	0.050639	0.022474	1.000000	0.000009	0.000010	0.000033	-168.316429	-76.702786	-172.699728
43144	9.591496	-0.407685	-2.243721	0.005517	0.056499	0.046018	1.000000	-0.000022	0.000010	0.000026	-168.306148	-76.703254	-172.712696
43145	9.581606	-0.406957	-2.265683	0.027598	0.063918	0.041309	1.000000	-0.000000	0.000022	0.000041	-168.316216	-76.702471	-172.700121
43146	9.601028	-0.379960	-2.272325	0.020745	0.091814	0.060443	1.000000	0.000000	0.000016	0.000034	-168.298881	-76.703405	-172.717700
43147	9.591656	-0.409696	-2.242673	0.005108	0.053943	0.046033	1.000000	0.000014	0.000023	0.000037	-168.308541	-76.703280	-172.704118
43148	9.571866	-0.407907	-2.286720	0.049728	0.071324	0.036604	1.000000	-0.000015	0.000027	0.000051	-168.284084	-76.705057	-172.730833
43149	9.603987	-0.406269	-2.273762	0.030176	0.067214	0.064872	1.000000	-0.000007	0.000011	0.000022	-168.305814	-76.705322	-172.706660
43150	9.591838	-0.411691	-2.241526	0.005159	0.052619	0.046040	1.000000	-0.000009	0.000022	0.000035	-168.288506	-76.706924	-172.725199
43151	9.584725	-0.435061	-2.266078	0.036270	0.037990	0.045739	1.000000	-0.000008	0.000017	0.000029	-168.304327	-76.702896	-172.707396
43152	9.591967	-0.412766	-2.240780	0.004400	0.051299	0.046047	1.000000	-0.000003	0.000023	0.000026	-168.290494	-76.704750	-172.721625
43153	9.594797	-0.437442	-2.243000	0.013697	0.027977	0.050454	1.000000	-0.000009	0.000022	0.000035	-168.304038	-76.704175	-172.704797
43154	9.613850	-0.379988	-2.300820	0.044606	0.101169	0.079332	1.000000	-0.000039	0.000054	0.000037	-168.286148	-76.709181	-172.727468
43155	9.567916	-0.424588	-2.174976	-0.045983	0.019796	0.008377	1.000000	0.000073	0.000030	0.000044	-168.280092	-76.709996	-172.726262
43156	9.580351	-0.454767	-2.342412	0.114996	0.045512	0.059574	1.000000	-0.000076	0.000016	0.000023	-168.277091	-76.711061	-172.737964
43157	9.601966	-0.386876	-2.267190	0.019173	0.084297	0.060513	1.000000	0.000004	0.000035	0.000045	-168.281507	-76.711430	-172.730438
43158	9.604830	-0.411870	-2.269187	0.028679	0.062220	0.064909	1.000000	-0.000010	0.000034	0.000048	-168.257141	-76.713962	-172.756279
43159	9.612587	-0.420223	-2.191994	-0.041433	0.028985	0.055479	1.000000	0.000016	0.000042	0.000034	-168.264808	-76.714237	-172.743037
43160	9.578525	-0.463888	-2.285701	0.066867	0.019723	0.045451	1.000000	-0.000009	0.000028	0.000042	-168.244113	-76.716239	-172.764995
43161	9.595721	-0.443174	-2.237916	0.012312	0.023237	0.050468	1.000000	-0.000018	0.000034	0.000043	-168.248802	-76.716046	-172.760815
43162	9.583589	-0.448696	-2.205468	-0.012712	0.008631	0.031619	1.000000	-0.000017	0.000023	0.000030	-168.235245	-76.717691	-172.776318
43163	9.576502	-0.472035	-2.229895	0.019392	-0.005598	0.031307	1.000000	0.000011	0.000030	0.000029	-168.240653	-76.721201	-172.771584
43164	9.608610	-0.470299	-2.216929	-0.000270	-0.008508	0.059560	1.000000	0.000002	0.000005	0.000021	-168.231024	-76.721053	-172.780852
43165	9.613758	-0.488805	-2.273240	0.055921	-0.008117	0.078101	1.000000	0.000029	0.000049	0.000037	-168.224539	-76.721290	-172.784847
43166	9.598920	-0.470325	-2.237964	0.021363	-0.000677	0.054860	1.000000	0.000006	0.000023	0.000032	-168.207452	-76.722927	-172.801308
43167	9.576832	-0.474265	-2.228004	0.018049	-0.007248	0.031309	1.000000	-0.000024	0.000011	0.000011	-168.219894	-76.719696	-172.792101
43168	9.598613	-0.440598	-2.288961	0.058456	0.043881	0.064635	1.000000	0.000007	0.000011	0.000019	-168.210003	-76.720299	-172.801028
43169	9.583696	-0.421759	-2.254104	0.023559	0.050657	0.041397	1.000000	0.000012	0.000018	0.000016	-168.215596	-76.719280	-172.795594
43170	9.593655	-0.423465	-2.231538	0.001205	0.041900	0.046092	1.000000	0.000007	0.000011	0.000019	-168.205690	-76.719875	-172.804543
43171	9.581058	-0.398267	-2.250947	0.012771	0.072141	0.037018	1.000000	-0.000024	0.000011	0.000011	-168.211030	-76.713392	-172.807420
43172	9.600549	-0.371086	-2.257537	0.005857	0.099991	0.056187	1.000000	0.000028	0.000029	0.000040	-168.186586	-76.715408	-172.828913
43173	9.597920	-0.347593	-2.254369	-0.004460	0.121079	0.051814	1.000000	-0.000011	0.000024	0.000021	-168.197147	-76.712384	-172.815346
43174	9.566319	-0.380398	-2.215157	-0.022638	0.078603	0.013776	1.000000	-0.000024	0.000011	0.000011	-168.194158	-76.713035	-172.820852
43175	9.603488	-0.396568	-2.259052	0.014793	0.076164	0.060587	1.000000	-0.000006	0.000021	0.000049	-168.189921	-76.715120	-172.826938
43176	9.588582	-0.378058	-2.224087	-0.019779	0.083615	0.037339	1.000000	-0.000031	0.000022	0.000033	-168.176263	-76.716500	-172.844273
43177	9.588619	-0.378512	-2.223853	-0.019384	0.082844	0.037346	1.000000	-0.000013	0.000004	0.000024	-168.186364	-76.718145	-172.836946
43178	9.603987	-0.428474	-2.206702	-0.022675	0.029998	0.050794	1.000000	-0.000016	0.000017	0.000023	-168.176304	-76.719223	-172.848823
43179	9.584214	-0.426119	-2.251079	0.021723	0.046474	0.041422	1.000000	-0.000035	0.000004	0.000022	-168.192944	-76.717069	-172.833097
43180	9.606384	-0.423025	-2.260543	0.024347	0.052267	0.064979	1.000000	-0.000014	0.000016	0.000038	-168.176000	-76.717665	-172.851755
43181	9.616301	-0.425175	-2.238031	0.001642	0.042468	0.069671	1.000000	0.000012	0.000009	0.000047	-168.177229	-76.714546	-172.843348
43182	9.591470	-0.405410	-2.225442	-0.010611	0.058639	0.041738	1.000000	-0.000009	0.000022	0.000035	-168.160184	-76.715938	-172.861437
43183	9.561785	-0.401921	-2.292153	0.057014	0.083945	0.027686	1.000000	-0.000009	-0.000009	0.000026	-168.174310	-76.717730	-172.845173
43184	9.593817	-0.400201	-2.279491	0.037332	0.081001	0.055930	1.000000	0.000001	0.000010	0.000027	-168.161101	-76.718021	-172.858172
43185	9.611271	-0.409735	-2.180552	-0.054960	0.039277	0.051118	1.000000	0.000009	0.000010	0.000033	-168.166890	-76.715537	-172.849921
43186	9.606479	-0.426928	-2.259402	0.024150	0.049204	0.064995	1.000000	0.000015	0.000017	0.000031	-168.150067	-76.716464	-172.864996
43187	9.559227	-0.380095	-2.288469	0.046976	0.104297	0.023334	1.000000	-0.000044	0.000041	0.000033	-168.150721	-76.719571	-172.871941
43188	9.598875	-0.386187	-2.198918	-0.042314	0.069333	0.042067	1.000000	0.000049	0.000004	0.000039	-168.127143	-76.718852	-172.889909
43189	9.592004	-0.444151	-2.359425	0.126267	0.066104	0.074192	1.000000	-0.000012	0.000035	0.000034	-168.140031	-76.725589	-172.871987
43190	9.601678	-0.411607	-2.200907	-0.032054	0.046094	0.046445	1.000000	-0.000047	-0.000004	0.000034	-168.130920	-76.724171	-172.886352
43191	9.550222	-0.442178	-2.206260	-0.006108	0.020263	-0.000990	1.000000	0.000018	0.000041	0.000048	-168.122369	-76.723666	-172.891376
43192	9.629094	-0.431394	-2.453626	0.200560	0.108792	0.130842	1.000000	-0.000076	0.000053	0.000039	-168.108364	-76.728496	-172.914223
43193	9.606002	-0.302021	-2.086616	-0.171716	0.113565	0.019814	1.000000	0.000006	0.000055	0.000041	-168.110421	-76.736434	-172.907367
43194	9.556675	-0.561562	-2.480947	0.285505	-0.002461	0.072603	1.000000	0.000181	0.000008	0.000022	-168.079776	-76.736675	-172.917021
43195	9.538550	-0.449992	-2.171144	-0.030328	0.003788	-0.019865	1.000000	-0.000205	0.000063	0.000046	-168.095747	-76.743286	-172.925340
43196	9.594396	-0.339466	-2.001103	-0.234258	0.052768	-0.008891	1.000000	0.000134	0.000019	0.000031	-168.064915	-76.744589	-172.940679
43197	9.554634	-0.569897	-2.424890	0.238157	-0.027441	0.058404	1.000000	-0.000009	0.000022	0.000035	-168.067713	-76.744165	-172.934900
43198	9.615196	-0.442604	-2.176090	-0.044925	0.011522	0.055499	1.000000	-0.000071	0.000023	0.000021	-168.065085	-76.746097	-172.945357
43199	9.605327	-0.441652	-2.198254	-0.022372	0.019353	0.050821	1.000000	0.000036	-0.000008	0.000029	-168.071479	-76.745253	-172.929072
43200	9.561562	-0.513966	-2.263498	0.070543	-0.026401	0.026285	1.000000	-0.000007	0.000005	0.000015	-168.065790	-76.745355	-172.935119
43201	9.630178	-0.463131	-2.210342	-0.009365	0.002261	0.078740	1.000000	-0.000008	0.000017	0.000029	-168.074169	-76.750608	-172.925893
43202	9.570381	-0.390669	-2.259288	0.026227	0.088755	0.028077	1.000000	-0.000002	0.000018	0.000020	-168.064738	-76.752093	-172.935210
43203	9.602725	-0.419253	-2.194890	-0.031271	0.040092	0.046474	1.000000	-0.000013	0.000004	0.000024	-168.063378	-76.750907	-172.946227
43204	9.605148	-0.413277	-2.248980	0.016018	0.063333	0.060676	1.000000	-0.000001	0.000006	0.000007	-168.061162	-76.751398	-172.948014
43205	9.563299	-0.414585	-2.283566	0.057507	0.073708	0.027765	1.000000	-0.000010	0.000034	0.000048	-168.067976	-76.750565	-172.928683
43206	9.592790	-0.388899	-2.267567	0.028307	0.092739	0.051658	1.000000	-0.000029	0.000036	0.000023	-168.058212	-76.754031	-172.941459
43207	9.582682	-0.353635	-2.153384	-0.085405	0.089490	0.014551	1.000000	0.000015	0.000017	0.000031	-168.058100	-76.754493	-172.939030
43208	9.563605	-0.416295	-2.281974	0.057472	0.072873	0.027771	1.000000	-0.000018	0.000029	0.000036	-168.041545	-76.756824	-172.957453
43209	9.578338	-0.401767	-2.180023	-0.044805	0.053406	0.018569	1.000000	-0.000018	0.000029	0.000036	-168.038214	-76.753845	-172.963562
43210	9.593381	-0.421642	-2.214162	-0.010280	0.045856	0.041806	1.000000	-0.000014	0.000016	0.000038	-168.021977	-76.754653	-172.981236
43211	9.595516	-0.381532	-2.132057	-0.098906	0.057368	0.023577	1.000000	-0.000002	0.000018	0.000020	-168.024036	-76.756237	-172.981367
43212	9.571303	-0.426326	-2.203937	-0.012868	0.039485	0.018244	1.000000	0.000003	0.000015	0.000048	-168.000762	-76.756729	-173.004334
43213	9.573683	-0.420657	-2.258250	0.033073	0.061709	0.032471	1.000000	-0.000028	-0.000028	0.000018	-168.021503	-76.744650	-172.978798
43214	9.605686	-0.418943	-2.245628	0.013411	0.058682	0.060708	1.000000	-0.000009	0.000022	0.000035	-168.005117	-76.746210	-172.995961
43215	9.571199	-0.427893	-2.204086	-0.015406	0.037945	0.018246	1.000000	-0.000015	-0.000016	0.000028	-168.000969	-76.736504	-173.007438
43216	9.593075	-0.394526	-2.265388	0.024932	0.089028	0.051702	1.000000	-0.000010	-0.000003	0.000032	-167.988658	-76.735203	-173.020589
43217	9.595689	-0.419157	-2.268177	0.035266	0.066050	0.056049	1.000000	-0.000009	-0.000009	0.000026	-168.004652	-76.737483	-172.999096
43218	9.588450	-0.442405	-2.293188	0.067119	0.052704	0.055723	1.000000	-0.000004	0.000004	0.000030	-167.992259	-76.737051	-173.011664
43219	9.573244	-0.393409	-2.310089	0.071185	0.104514	0.042377	1.000000	-0.000010	0.000003	0.000039	-168.003813	-76.740976	-172.994803
43220	9.617795	-0.417470	-2.277720	0.038798	0.070670	0.079621	1.000000	0.000004	0.000003	0.000035	-167.988069	-76.740437	-173.009786
43221	9.598095	-0.415383	-2.322041	0.082196	0.087674	0.070298	1.000000	0.000006	0.000023	0.000032	-167.979251	-76.734867	-173.020874
43222	9.578716	-0.443746	-2.314403	0.089092	0.059775	0.051068	1.000000	0.000030	0.000049	0.000037	-167.955163	-76.739341	-173.041434
43223	9.588756	-0.445831	-2.291240	0.066615	0.050129	0.055739	1.000000	-0.000021	0.000042	0.000035	-167.958519	-76.741578	-173.035446
43224	9.603316	-0.401000	-2.240590	0.002855	0.076600	0.056398	1.000000	0.000010	0.000036	0.000036	-167.938360	-76.744587	-173.054192
43225	9.574077	-0.427970	-2.255205	0.031943	0.056503	0.032506	1.000000	0.000002	0.000042	0.000037	-167.942258	-76.746965	-173.041524
43226	9.584078	-0.430007	-2.232175	0.009627	0.047655	0.037170	1.000000	-0.000012	0.000035	0.000034	-167.925725	-76.749994	-173.059171
43227	9.599166	-0.449862	-2.266107	0.043246	0.038977	0.060418	1.000000	-0.000003	0.000029	0.000033	-167.935209	-76.746407	-173.039738
43228	9.574439	-0.429850	-2.253308	0.030998	0.055147	0.032517	1.000000	-0.000018	0.000029	0.000036	-167.918991	-76.748575	-173.057632
43229	9.619026	-0.453892	-2.220614	-0.001412	0.020632	0.069740	1.000000	-0.000005	0.000010	0.000036	-167.919002	-76.748083	-173.056906
43230	9.574735	-0.461511	-2.201006	-0.006728	0.008985	0.022599	1.000000	0.000002	0.000036	0.000031	-167.902556	-76.751224	-173.072706
43231	9.599465	-0.452195	-2.264375	0.043186	0.037315	0.060425	1.000000	-0.000007	0.000005	0.000015	-167.915588	-76.750988	-173.055147
43232	9.609354	-0.453827	-2.241867	0.020871	0.028450	0.065084	1.000000	-0.000010	0.000018	0.000014	-167.910194	-76.752497	-173.061039
43233	9.596937	-0.428680	-2.261106	0.032348	0.058305	0.056108	1.000000	-0.000003	0.000023	0.000026	-167.916074	-76.746637	-173.051805
43234	9.597004	-0.429183	-2.260726	0.032320	0.058218	0.056109	1.000000	-0.000008	0.000017	0.000029	-167.903790	-76.747600	-173.064467
43235	9.582125	-0.410485	-2.225667	-0.001257	0.064940	0.032869	1.000000	0.000017	0.000037	0.000027	-167.907148	-76.756103	-173.055925
43236	9.594562	-0.406096	-2.257030	0.023669	0.079414	0.051787	1.000000	-0.000016	0.000017	0.000023	-167.898428	-76.757296	-173.065892
43237	9.592039	-0.382171	-2.253838	0.014418	0.100091	0.047476	1.000000	-0.000002	0.000039	0.000002	-167.929461	-76.762750	-173.018904
43238	9.582481	-0.411620	-2.223924	-0.000940	0.063394	0.032879	1.000000	0.000004	0.000035	0.000045	-167.906423	-76.765448	-173.041056
43239	9.579951	-0.388041	-2.220699	-0.010281	0.084316	0.028569	1.000000	-0.000019	0.000024	0.000015	-167.927696	-76.768553	-173.013256
43240	9.589873	-0.389926	-2.197963	-0.032582	0.075415	0.033225	1.000000	-0.000000	0.000022	0.000041	-167.908644	-76.769958	-173.031819
43241	9.609502	-0.362957	-2.204434	-0.040623	0.102202	0.052488	1.000000	-0.000003	0.000023	0.000026	-167.916164	-76.764994	-173.018004
43242	9.570457	-0.418669	-2.190241	-0.026721	0.046499	0.013971	1.000000	-0.000008	0.000017	0.000029	-167.904337	-76.766016	-173.030009
43243	9.612238	-0.388044	-2.206482	-0.030842	0.079142	0.056813	1.000000	-0.000036	0.000010	0.000029	-167.917583	-76.766949	-173.016591
43244	9.592710	-0.416174	-2.199344	-0.023893	0.051237	0.037551	1.000000	0.000000	0.000016	0.000034	-167.902337	-76.767819	-173.031099
43245	9.575692	-0.438174	-2.246368	0.029075	0.046021	0.032570	1.000000	-0.000005	0.000010	0.000036	-167.901147	-76.760386	-173.029652
43246	9.602478	-0.388520	-2.228121	-0.009809	0.086923	0.052170	1.000000	-0.000005	0.000010	0.000036	-167.886117	-76.760384	-173.044557
43247	9.592636	-0.387607	-2.250366	0.012442	0.095110	0.047528	1.000000	-0.000026	-0.000002	0.000021	-167.894834	-76.758971	-173.036999
43248	9.565839	-0.438352	-2.268438	0.051285	0.053993	0.027927	1.000000	-0.000004	0.000004	0.000030	-167.883467	-76.758475	-173.048071
43249	9.575575	-0.409969	-2.297515	0.065555	0.089690	0.042562	1.000000	-0.000005	0.000010	0.000036	-167.885481	-76.751953	-173.043985
43250	9.585440	-0.412033	-2.274967	0.043235	0.080766	0.047207	1.000000	0.000000	0.000016	0.000034	-167.870297	-76.752722	-173.058390
43251	9.595322	-0.414087	-2.252340	0.019865	0.070968	0.051859	1.000000	0.000015	0.000017	0.000031	-167.873946	-76.746964	-173.045593
43252	9.578319	-0.436067	-2.299301	0.074014	0.066463	0.046889	1.000000	-0.000014	0.000016	0.000038	-167.858864	-76.747536	-173.061551
43253	9.607785	-0.410524	-2.283537	0.043413	0.084939	0.070809	1.000000	-0.000009	0.000023	0.000035	-167.848885	-76.741115	-173.077062
43254	9.563480	-0.417945	-2.263971	0.038111	0.073310	0.023652	1.000000	-0.000011	0.000024	0.000021	-167.840481	-76.742929	-173.085812
43255	9.588426	-0.439135	-2.275524	0.050179	0.055691	0.051548	1.000000	-0.000007	0.000048	0.000038	-167.852159	-76.745560	-173.061043
43256	9.595784	-0.417143	-2.249810	0.018230	0.068772	0.051878	1.000000	0.000005	0.000029	0.000038	-167.833263	-76.747530	-173.078615
43257	9.573675	-0.421230	-2.239757	0.014294	0.062050	0.028306	1.000000	-0.000017	0.000023	0.000030	-167.839129	-76.741087	-173.071658
43258	9.578925	-0.439569	-2.296107	0.071048	0.063309	0.046931	1.000000	-0.000011	0.000030	0.000027	-167.827273	-76.743336	-173.083926
43259	9.576453	-0.446406	-2.241502	0.023617	0.039072	0.032615	1.000000	0.000000	0.000016	0.000034	-167.829692	-76.742415	-173.075513
43260	9.596178	-0.419421	-2.247705	0.016559	0.066721	0.051895	1.000000	-0.000010	0.000055	0.000031	-167.813634	-76.747457	-173.091938
43261	9.596334	-0.419868	-2.246955	0.016114	0.065204	0.051906	1.000000	-0.000011	0.000024	0.000021	-167.839685	-76.746100	-173.048038
43262	9.566998	-0.446533	-2.261945	0.045349	0.046144	0.027996	1.000000	-0.000009	0.000023	0.000035	-167.824765	-76.747347	-173.063005
43263	9.579484	-0.472574	-2.241929	0.031598	0.014243	0.036927	1.000000	-0.000002	0.000018	0.000020	-167.836898	-76.741747	-173.039659
43264	9.596551	-0.421370	-2.245745	0.014879	0.063889	0.051917	1.000000	0.000006	0.000023	0.000032	-167.822001	-76.743096	-173.052876
43265	9.589372	-0.414186	-2.321842	0.084004	0.094991	0.061647	1.000000	-0.000016	0.000017	0.000023	-167.840496	-76.741845	-173.021609
43266	9.569301	-0.407914	-2.178649	-0.044923	0.055372	0.009702	1.000000	0.000006	0.000017	0.000025	-167.829380	-76.742688	-173.030813
43267	9.569939	-0.412263	-2.365500	0.128000	0.111832	0.052423	1.000000	-0.000010	0.000049	0.000024	-167.830856	-76.744303	-173.029528
43268	9.593852	-0.425684	-2.001973	-0.206641	-0.018967	-0.005137	1.000000	0.000026	0.000030	0.000026	-167.815838	-76.746591	-173.040482
43269	9.568215	-0.484356	-2.394416	0.179002	0.053585	0.060694	1.000000	-0.000012	0.000036	0.000034	-167.820977	-76.748413	-173.026997
43270	9.621398	-0.380258	-2.170317	-0.072385	0.078031	0.057209	1.000000	-0.000081	0.000009	0.000025	-167.820836	-76.748349	-173.035219
43271	9.604474	-0.401898	-2.217120	-0.017482	0.072932	0.052273	1.000000	0.000036	0.000044	0.000021	-167.824479	-76.756373	-173.018697
43272	9.587607	-0.454182	-2.212140	-0.000851	0.023023	0.037263	1.000000	0.000002	0.000036	0.000031	-167.809466	-76.759224	-173.032345
43273	9.614533	-0.404593	-2.193472	-0.040197	0.062837	0.056897	1.000000	-0.000015	0.000022	0.000044	-167.813895	-76.757703	-173.020396
43274	9.587779	-0.455571	-2.211111	-0.001284	0.021799	0.037266	1.000000	-0.000003	0.000029	0.000033	-167.799181	-76.759727	-173.034330
43275	9.585291	-0.431991	-2.207890	-0.011143	0.043110	0.032983	1.000000	-0.000026	0.000029	0.000031	-167.801419	-76.760564	-173.035042
43276	9.582734	-0.408185	-2.205026	-0.020862	0.064969	0.028699	1.000000	-0.000011	-0.000008	0.000011	-167.801819	-76.758966	-173.034419
43277	9.572979	-0.407142	-2.227073	0.002593	0.072702	0.024093	1.000000	0.000002	0.000036	0.000031	-167.815908	-76.768495	-173.003075
43278	9.585441	-0.402795	-2.258609	0.027412	0.087157	0.043067	1.000000	-0.000018	-0.000003	0.000027	-167.809327	-76.767136	-173.010360
43279	9.580220	-0.385584	-2.201768	-0.029773	0.084620	0.024438	1.000000	0.000012	0.000003	0.000041	-167.813657	-76.763625	-172.995697
43280	9.568397	-0.425390	-2.305792	0.081176	0.081717	0.038129	1.000000	-0.000013	0.000010	0.000031	-167.803285	-76.763567	-173.006276
43281	9.595221	-0.406013	-2.236057	0.004784	0.076784	0.047695	1.000000	-0.000027	0.000004	0.000028	-167.800033	-76.763516	-173.015667
43282	9.627251	-0.404546	-2.223095	-0.014935	0.073468	0.075899	1.000000	0.000000	0.000016	0.000034	-167.785892	-76.764114	-173.028537
43283	9.597905	-0.431306	-2.238061	0.013081	0.054002	0.051978	1.000000	-0.000012	0.000036	0.000034	-167.778826	-76.759175	-173.040219
43284	9.607764	-0.433243	-2.215375	-0.009249	0.044958	0.056589	1.000000	-0.000013	0.000004	0.000024	-167.772049	-76.758579	-173.047069
43285	9.578374	-0.429635	-2.282201	0.057911	0.070926	0.042763	1.000000	0.000012	0.000009	0.000047	-167.765962	-76.760062	-173.047103
43286	9.565988	-0.435291	-2.250063	0.032988	0.056156	0.023783	1.000000	-0.000023	0.000022	0.000039	-167.751708	-76.761150	-173.062829
43287	9.590818	-0.456582	-2.261969	0.045092	0.038832	0.051653	1.000000	0.000001	0.000010	0.000028	-167.763579	-76.760030	-173.036147
43288	9.610517	-0.429542	-2.268494	0.037955	0.066396	0.070974	1.000000	-0.000002	0.000023	0.000026	-167.752822	-76.761581	-173.045846
43289	9.558927	-0.459586	-2.274054	0.064481	0.041151	0.023459	1.000000	-0.000008	0.000017	0.000029	-167.755228	-76.760983	-173.044692
43290	9.603410	-0.453258	-2.292795	0.069614	0.052430	0.070644	1.000000	-0.000008	0.000017	0.000029	-167.744708	-76.761716	-173.054779
43291	9.585875	-0.410316	-2.255413	0.024602	0.080880	0.043128	1.000000	-0.000027	0.000004	0.000028	-167.755529	-76.756184	-173.042417
43292	9.595714	-0.412270	-2.232792	0.002276	0.071813	0.047733	1.000000	-0.000003	0.000029	0.000033	-167.741179	-76.758201	-173.055848
43293	9.576194	-0.410038	-2.277060	0.045923	0.088723	0.038538	1.000000	-0.000005	0.000010	0.000036	-167.743443	-76.752713	-173.048535
43294	9.568954	-0.463933	-2.250139	0.040369	0.029931	0.028081	1.000000	0.000019	0.000035	0.000041	-167.721920	-76.755170	-173.066717
43295	9.605814	-0.385195	-2.260632	0.016495	0.106808	0.062474	1.000000	-0.000019	0.000018	0.000009	-167.731996	-76.756607	-173.058226
43296	9.579019	-0.435712	-2.278341	0.055467	0.065828	0.042812	1.000000	-0.000011	0.000030	0.000028	-167.721188	-76.758771	-173.068983
43297	9.596248	-0.384574	-2.281885	0.038476	0.114629	0.057887	1.000000	-0.000012	0.000036	0.000034	-167.725383	-76.760174	-173.056615
43298	9.566820	-0.441711	-2.245271	0.030351	0.050123	0.023824	1.000000	-0.000003	0.000029	0.000033	-167.711130	-76.762164	-173.069906
43299	9.586637	-0.414688	-2.251369	0.023247	0.076515	0.043166	1.000000	-0.000024	0.000049	0.000028	-167.729344	-76.766175	-173.037166
43300	9.609012	-0.411799	-2.260145	0.025767	0.082049	0.066764	1.000000	-0.000003	0.000029	0.000033	-167.715225	-76.768171	-173.050262
43301	9.579707	-0.438623	-2.274885	0.053597	0.062536	0.042844	1.000000	0.000015	0.000048	0.000040	-167.702709	-76.763144	-173.066103
43302	9.599396	-0.442115	-2.229541	0.009008	0.044520	0.052030	1.000000	-0.000011	0.000024	0.000021	-167.695763	-76.764758	-173.072731
43303	9.574754	-0.421916	-2.216667	-0.004296	0.060169	0.024177	1.000000	-0.000007	0.000048	0.000038	-167.686359	-76.762810	-173.081751
43304	9.574889	-0.422444	-2.215984	-0.004376	0.059991	0.024178	1.000000	-0.000011	0.000024	0.000021	-167.679403	-76.764391	-173.088389
43305	9.584774	-0.424299	-2.193087	-0.027295	0.050214	0.028770	1.000000	-0.000006	0.000036	0.000025	-167.683779	-76.763480	-173.074047
43306	9.597330	-0.419862	-2.224416	-0.002547	0.064665	0.047783	1.000000	-0.000016	0.000017	0.000023	-167.677082	-76.764227	-173.081040
43307	9.594852	-0.396235	-2.221352	-0.012345	0.086148	0.043530	1.000000	0.000006	0.000023	0.000032	-167.671494	-76.765143	-173.084787
43308	9.562890	-0.398708	-2.233929	0.007251	0.089196	0.015347	1.000000	-0.000027	0.000004	0.000028	-167.665233	-76.764265	-173.092616
43309	9.587728	-0.419947	-2.245745	0.019215	0.071942	0.043209	1.000000	0.000002	0.000036	0.000031	-167.670134	-76.765189	-173.072295
43310	9.597544	-0.421916	-2.223102	-0.003121	0.062823	0.047794	1.000000	-0.000018	-0.000003	0.000027	-167.664114	-76.763638	-173.078801
43311	9.592492	-0.374319	-2.217499	-0.022766	0.105894	0.039296	1.000000	-0.000001	0.000028	0.000047	-167.661120	-76.763793	-173.072882
43312	9.565648	-0.425364	-2.235212	0.016258	0.064972	0.019619	1.000000	-0.000000	0.000022	0.000041	-167.643848	-76.764685	-173.088819
43313	9.585400	-0.398556	-2.241659	0.008981	0.092142	0.038973	1.000000	0.000000	0.000016	0.000034	-167.638541	-76.764572	-173.092759
43314	9.565760	-0.426727	-2.234473	0.016043	0.064271	0.019624	1.000000	-0.000008	0.000023	0.000035	-167.624759	-76.765639	-173.106101
43315	9.585523	-0.399780	-2.240918	0.008332	0.091152	0.038983	1.000000	-0.000008	0.000017	0.000029	-167.628941	-76.763019	-173.098276
43316	9.565836	-0.427907	-2.233925	0.015396	0.063283	0.019631	1.000000	-0.000010	0.000003	0.000039	-167.615825	-76.761772	-173.111145
43317	9.610352	-0.421924	-2.252570	0.019618	0.074402	0.066838	1.000000	-0.000010	0.000034	0.000048	-167.594134	-76.758920	-173.140749
43318	9.580959	-0.448620	-2.267652	0.048928	0.055482	0.042911	1.000000	0.000007	0.000011	0.000019	-167.587632	-76.759097	-173.144800
43319	9.610424	-0.423045	-2.252052	0.017993	0.073535	0.066848	1.000000	-0.000010	-0.000003	0.000032	-167.586280	-76.748587	-173.151528
43320	9.588189	-0.427043	-2.242433	0.015332	0.067660	0.043247	1.000000	0.000000	0.000016	0.000034	-167.572643	-76.748888	-173.163689
43321	9.600706	-0.422722	-2.274001	0.038860	0.081739	0.062288	1.000000	-0.000007	0.000011	0.000022	-167.571937	-76.741717	-173.168128
43322	9.578510	-0.426555	-2.264249	0.036195	0.075867	0.038686	1.000000	-0.000008	0.000017	0.000029	-167.561778	-76.742151	-173.177704
43323	9.600766	-0.423781	-2.273551	0.038971	0.080436	0.062298	1.000000	0.000004	0.000003	0.000035	-167.573518	-76.742307	-173.147041
43324	9.568818	-0.426349	-2.286076	0.058558	0.083518	0.034129	1.000000	-0.000003	0.000029	0.000033	-167.559548	-76.744063	-173.159932
43325	9.581188	-0.452436	-2.265925	0.044609	0.051719	0.042952	1.000000	-0.000011	0.000024	0.000021	-167.565579	-76.737361	-173.155186
43326	9.600970	-0.425297	-2.272405	0.037326	0.079204	0.062315	1.000000	-0.000007	0.000011	0.000022	-167.559222	-76.737266	-173.160734
43327	9.586021	-0.406519	-2.237571	0.002825	0.085954	0.039032	1.000000	0.000006	0.000023	0.000032	-167.556114	-76.738806	-173.162598
43328	9.591368	-0.424971	-2.293896	0.059485	0.087377	0.057760	1.000000	0.000011	0.000030	0.000030	-167.542123	-76.740667	-173.173813
43329	9.566726	-0.404754	-2.281152	0.047071	0.103414	0.029915	1.000000	-0.000011	0.000030	0.000028	-167.533332	-76.742261	-173.191979
43330	9.586333	-0.408241	-2.235922	0.002462	0.085313	0.039038	1.000000	-0.000003	0.000029	0.000033	-167.519339	-76.743979	-173.204918
43331	9.579223	-0.431442	-2.260304	0.033152	0.071099	0.038732	1.000000	0.000008	0.000037	0.000022	-167.530325	-76.739395	-173.184416
43332	9.599090	-0.404334	-2.266463	0.025855	0.098575	0.058102	1.000000	-0.000020	0.000030	0.000022	-167.523407	-76.741421	-173.192005
43333	9.589421	-0.403225	-2.288418	0.048065	0.108224	0.053539	1.000000	-0.000007	0.000011	0.000022	-167.494302	-76.742073	-173.248519
43334	9.577005	-0.408559	-2.256151	0.023146	0.093410	0.034490	1.000000	0.000002	0.000036	0.000031	-167.479943	-76.744571	-173.261265
43335	9.609127	-0.407267	-2.242609	0.004419	0.089013	0.062663	1.000000	-0.000012	0.000036	0.000034	-167.492651	-76.752718	-173.238370
43336	9.567257	-0.438742	-2.225721	0.008933	0.055483	0.019686	1.000000	-0.000003	0.000029	0.000033	-167.478627	-76.754441	-173.251377
43337	9.587398	-0.381464	-2.283297	0.038424	0.128237	0.049323	1.000000	0.000002	0.000042	0.000037	-167.466621	-76.753957	-173.271993
43338	9.577540	-0.411098	-2.253417	0.023232	0.091428	0.034508	1.000000	0.000002	0.000036	0.000031	-167.452331	-76.756477	-173.284650
43339	9.575161	-0.387500	-2.250115	0.012009	0.112915	0.030279	1.000000	-0.000026	0.000029	0.000031	-167.445660	-76.749900	-173.294864
43340	9.606989	-0.416743	-2.185104	-0.045144	0.063863	0.048168	1.000000	0.000010	0.000042	0.000043	-167.424144	-76.752691	-173.314052
43341	9.590402	-0.408100	-2.283435	0.046500	0.104737	0.053584	1.000000	-0.000007	0.000011	0.000022	-167.429436	-76.753465	-173.313868
43342	9.572410	-0.426042	-2.142757	-0.072506	0.042749	0.005504	1.000000	-0.000015	0.000049	0.000033	-167.414736	-76.757285	-173.329068
43343	9.590365	-0.439621	-2.230666	0.009482	0.058148	0.043315	1.000000	-0.000003	0.000029	0.000033	-167.418433	-76.761713	-173.321410
43344	9.590464	-0.440312	-2.230105	0.009368	0.057959	0.043316	1.000000	0.000005	0.000029	0.000038	-167.400892	-76.763225	-173.337078
43345	9.590550	-0.440941	-2.229611	0.009552	0.057120	0.043321	1.000000	-0.000017	0.000023	0.000030	-167.407930	-76.765557	-173.332996
43346	9.575570	-0.422295	-2.194813	-0.025077	0.064292	0.020029	1.000000	0.000003	0.000009	0.000042	-167.391112	-76.764783	-173.348137
43347	9.580864	-0.440801	-2.251527	0.031313	0.065325	0.038778	1.000000	-0.000004	0.000004	0.000030	-167.390185	-76.761882	-173.352646
43348	9.590315	-0.473325	-2.177391	-0.028369	0.010591	0.033037	1.000000	0.000011	0.000030	0.000030	-167.376135	-76.763718	-173.364019
43349	9.610504	-0.415873	-2.235115	0.000816	0.083534	0.062712	1.000000	-0.000011	0.000024	0.000021	-167.369407	-76.760103	-173.377017
43350	9.578248	-0.448703	-2.196220	-0.016913	0.041064	0.024262	1.000000	-0.000005	0.000010	0.000036	-167.356042	-76.759472	-173.389631
43351	9.558811	-0.446272	-2.240776	0.027347	0.058783	0.015177	1.000000	0.000002	0.000005	0.000021	-167.349667	-76.757875	-173.406404
43352	9.598011	-0.422186	-2.202846	-0.024452	0.068335	0.043647	1.000000	-0.000018	-0.000003	0.000027	-167.343695	-76.756113	-173.413006
43353	9.575712	-0.425897	-2.193497	-0.027108	0.062149	0.020038	1.000000	-0.000003	-0.000008	0.000017	-167.349933	-76.753770	-173.409433
43354	9.568772	-0.418590	-2.270049	0.042070	0.094500	0.030027	1.000000	-0.000010	0.000003	0.000039	-167.336767	-76.752325	-173.422532
43355	9.590645	-0.446078	-2.228180	0.007106	0.053691	0.043342	1.000000	-0.000040	-0.000015	0.000012	-167.359523	-76.748813	-173.398538
43356	9.600658	-0.417479	-2.257418	0.022056	0.090117	0.058192	1.000000	0.000004	0.000003	0.000035	-167.346357	-76.747511	-173.409935
43357	9.603143	-0.442162	-2.259973	0.031021	0.067275	0.062425	1.000000	-0.000007	0.000011	0.000022	-167.354729	-76.743241	-173.400835
43358	9.558971	-0.418641	-2.292446	0.063142	0.101353	0.025516	1.000000	-0.000035	-0.000002	0.000016	-167.355840	-76.741814	-173.402108
43359	9.590954	-0.417343	-2.279446	0.042794	0.097358	0.053676	1.000000	0.000003	0.000015	0.000049	-167.346396	-76.738198	-173.408839
43360	9.593455	-0.442149	-2.281890	0.052393	0.075176	0.057901	1.000000	-0.000007	0.000011	0.000022	-167.340030	-76.738030	-173.414560
43361	9.578488	-0.423223	-2.247135	0.019343	0.081630	0.034603	1.000000	-0.000016	0.000017	0.000023	-167.356537	-76.747290	-173.392978
43362	9.568840	-0.422159	-2.269100	0.041476	0.090409	0.030068	1.000000	-0.000002	0.000024	0.000026	-167.346306	-76.748479	-173.402089
43363	9.588733	-0.395173	-2.275348	0.033938	0.117357	0.049475	1.000000	0.000003	0.000030	0.000024	-167.347856	-76.748834	-173.398065
43364	9.571682	-0.413595	-3.014916	0.723544	0.342635	0.199154	1.000000	-0.000028	0.000068	0.000033	-167.332664	-76.754815	-173.415267
43365	9.588833	-0.447070	-1.157123	-0.976213	-0.296509	-0.197927	1.000000	0.000334	-0.000036	0.000022	-167.308268	-76.744404	-173.394894
43366	9.549849	-0.309328	-2.650460	0.359670	0.322948	0.091180	1.000000	-0.000674	0.000116	0.000046	-167.355915	-76.755405	-173.423562
43367	9.628321	-0.403254	-2.182395	-0.055881	0.079329	0.067627	1.000000	0.000573	0.000051	0.000026	-167.293532	-76.761830	-173.415163
43368	9.536951	-0.610895	-2.848437	0.644659	0.104664	0.137874	1.000000	-0.000367	0.000082	0.000037	-167.313680	-76.769284	-173.435995
43369	9.649941	-0.163327	-1.666700	-0.609781	0.136240	-0.038459	1.000000	0.000147	-0.000007	0.000025	-167.337548	-76.772244	-173.369109
43370	9.528584	-0.522285	-2.331184	0.144188	0.018709	0.009735	1.000000	0.000051	0.000023	0.000036	-167.316981	-76.773208	-173.382424
43371	9.517910	-0.392141	-2.183821	-0.032435	0.093504	-0.040090	1.000000	-0.000132	0.000040	0.000040	-167.325111	-76.765169	-173.387428
43372	9.562959	-0.355440	-2.253655	0.009751	0.150194	0.017513	1.000000	0.000015	0.000017	0.000031	-167.311876	-76.765477	-173.397489
43373	9.587700	-0.376943	-2.265613	0.021050	0.133088	0.045351	1.000000	0.000056	-0.000001	0.000024	-167.310701	-76.758611	-173.390028
43374	9.604278	-0.482075	-2.200038	-0.009312	0.012311	0.052123	1.000000	-0.000012	-0.000017	0.000042	-167.298748	-76.754826	-173.401967
43375	9.588201	-0.442843	-2.350101	0.118968	0.099087	0.068036	1.000000	-0.000081	0.000047	0.000041	-167.293694	-76.756060	-173.423522
43376	9.626592	-0.384913	-2.175434	-0.068611	0.096214	0.063444	1.000000	0.000043	0.000024	0.000030	-167.276651	-76.757112	-173.434209
43377	9.605347	-0.423045	-2.301618	0.064076	0.101406	0.072894	1.000000	0.000015	0.000017	0.000031	-167.294519	-76.754329	-173.398107
43378	9.577391	-0.439658	-2.183429	-0.032554	0.048272	0.020099	1.000000	0.000011	0.000030	0.000030	-167.280951	-76.756074	-173.408890
43379	9.620624	-0.443588	-2.334830	0.097154	0.092785	0.096226	1.000000	-0.000024	0.000055	0.000034	-167.284928	-76.753163	-173.402802
43380	9.582507	-0.393917	-2.154092	-0.075730	0.081934	0.016213	1.000000	-0.000034	0.000030	0.000026	-167.278525	-76.754943	-173.411537
43381	9.566278	-0.480322	-2.285223	0.075424	0.043561	0.034091	1.000000	0.000029	0.000061	0.000050	-167.269219	-76.750566	-173.408045
43382	9.572672	-0.424456	-2.123316	-0.092434	0.043933	0.001293	1.000000	0.000006	0.000023	0.000032	-167.256011	-76.751418	-173.419049
43383	9.588279	-0.413917	-2.208640	-0.021307	0.081494	0.035024	1.000000	-0.000035	0.000041	0.000039	-167.254138	-76.751139	-173.424086
43384	9.573421	-0.490128	-2.206759	0.005340	0.009713	0.023992	1.000000	-0.000016	0.000017	0.000023	-167.248206	-76.751523	-173.430214
43385	9.590821	-0.438953	-2.210715	-0.012674	0.058386	0.039227	1.000000	0.000005	-0.000008	0.000022	-167.258106	-76.743684	-173.419386
43386	9.610155	-0.442490	-2.166038	-0.057290	0.040124	0.048231	1.000000	-0.000004	0.000004	0.000030	-167.249170	-76.742380	-173.427202
43387	9.603371	-0.435190	-2.242485	0.011684	0.071903	0.058359	1.000000	-0.000019	0.000003	0.000033	-167.257304	-76.740020	-173.411477
43388	9.576693	-0.455150	-2.312450	0.088009	0.076780	0.049056	1.000000	-0.000022	-0.000021	0.000016	-167.259825	-76.736285	-173.409630
43389	9.593496	-0.434403	-2.265515	0.035414	0.079798	0.053863	1.000000	0.000003	-0.000028	0.000026	-167.278279	-76.741507	-173.379622
43390	9.573583	-0.462432	-2.258953	0.042552	0.051982	0.034428	1.000000	0.000009	0.000010	0.000033	-167.265706	-76.740889	-173.389536
43391	9.581324	-0.409801	-2.285219	0.047111	0.109984	0.045183	1.000000	-0.000035	0.000004	0.000022	-167.271861	-76.736752	-173.390167
43392	9.593935	-0.405312	-2.316878	0.071703	0.124409	0.064314	1.000000	-0.000007	0.000011	0.000022	-167.266288	-76.736480	-173.394858
43393	9.581354	-0.410603	-2.284947	0.046869	0.108853	0.045197	1.000000	0.000010	0.000004	0.000026	-167.274839	-76.735132	-173.382371
43394	9.588666	-0.388500	-2.259563	0.014721	0.121569	0.045512	1.000000	-0.000011	0.000030	0.000028	-167.265160	-76.736836	-173.391750
43395	9.577202	-0.427858	-2.363194	0.125495	0.118550	0.059534	1.000000	-0.000006	0.000037	0.000025	-167.270348	-76.738626	-173.382219
43396	9.591842	-0.383164	-2.312457	0.061335	0.144198	0.060162	1.000000	-0.000017	0.000029	0.000037	-167.257257	-76.740007	-173.395809
43397	9.598778	-0.391612	-2.235087	-0.008512	0.110775	0.050029	1.000000	-0.000004	0.000062	0.000028	-167.253190	-76.741975	-173.398910
43398	9.576661	-0.395483	-2.224849	-0.011149	0.104936	0.026401	1.000000	0.000006	0.000023	0.000032	-167.240247	-76.742814	-173.409617
43399	9.591797	-0.415430	-2.258765	0.022789	0.096781	0.049730	1.000000	-0.000012	0.000036	0.000034	-167.240921	-76.742148	-173.405264
43400	9.582274	-0.414422	-2.280397	0.044874	0.105596	0.045242	1.000000	-0.000029	0.000042	0.000030	-167.230897	-76.745167	-173.417093
43401	9.601749	-0.417814	-2.235050	-0.000773	0.086436	0.054233	1.000000	-0.000019	0.000024	0.000016	-167.246635	-76.739914	-173.399524
43402	9.564520	-0.402126	-2.190701	-0.037913	0.087919	0.007279	1.000000	0.000012	0.000024	0.000023	-167.237211	-76.741035	-173.405885
43403	9.601897	-0.418684	-2.234251	-0.001457	0.085525	0.054241	1.000000	0.000001	0.000011	0.000028	-167.238363	-76.737924	-173.408886
43404	9.585037	-0.440338	-2.281310	0.052636	0.081414	0.049453	1.000000	-0.000017	0.000029	0.000037	-167.225364	-76.739240	-173.422377
43405	9.570067	-0.421516	-2.246464	0.018678	0.087801	0.026134	1.000000	-0.000007	0.000011	0.000022	-167.239780	-76.742458	-173.407445
43406	9.612287	-0.391329	-2.262252	0.013720	0.120738	0.069226	1.000000	0.000006	0.000023	0.000032	-167.226978	-76.743266	-173.417988
43407	9.592480	-0.419258	-2.255151	0.020736	0.092409	0.049777	1.000000	-0.000002	0.000018	0.000020	-167.234122	-76.742591	-173.411306
43408	9.605201	-0.415003	-2.286418	0.045303	0.106822	0.068930	1.000000	-0.000004	0.000035	0.000040	-167.217433	-76.744557	-173.426963
43409	9.592661	-0.420519	-2.254150	0.020852	0.091958	0.049781	1.000000	0.000001	0.000016	0.000034	-167.205398	-76.746816	-173.449932
43410	9.590332	-0.396943	-2.251010	0.010922	0.113698	0.045610	1.000000	-0.000011	0.000030	0.000028	-167.195871	-76.748484	-173.459180
43411	9.602520	-0.423170	-2.230723	-0.002576	0.081778	0.054272	1.000000	-0.000012	0.000036	0.000034	-167.196686	-76.744902	-173.459304
43412	9.585748	-0.444969	-2.277420	0.051520	0.077669	0.049489	1.000000	0.000010	0.000042	0.000043	-167.176211	-76.747488	-173.477266
43413	9.580506	-0.427912	-2.219838	-0.006606	0.075050	0.030646	1.000000	-0.000012	0.000036	0.000034	-167.176135	-76.741913	-173.477625
43414	9.592683	-0.454345	-2.199494	-0.019198	0.043786	0.039292	1.000000	0.000005	0.000035	0.000045	-167.155948	-76.743651	-173.495928
43415	9.583115	-0.453364	-2.221381	0.001571	0.052053	0.034822	1.000000	-0.000039	0.000017	0.000021	-167.164062	-76.736047	-173.489545
43416	9.571131	-0.428041	-2.240691	0.013851	0.082843	0.026185	1.000000	-0.000017	0.000023	0.000030	-167.154862	-76.736809	-173.499091
43417	9.624829	-0.454078	-2.185356	-0.040289	0.038097	0.067405	1.000000	0.000001	0.000011	0.000028	-167.171227	-76.738157	-173.471743
43418	9.583251	-0.454783	-2.220503	0.001532	0.050390	0.034831	1.000000	0.000001	0.000011	0.000028	-167.162520	-76.737588	-173.478664
43419	9.583276	-0.455246	-2.220300	0.002243	0.049804	0.034834	1.000000	-0.000007	0.000011	0.000022	-167.168498	-76.741999	-173.472439
43420	9.595930	-0.450980	-2.251929	0.026792	0.064210	0.054004	1.000000	0.000004	0.000003	0.000035	-167.156571	-76.740461	-173.482346
43421	9.586296	-0.449833	-2.274155	0.048555	0.072434	0.049544	1.000000	-0.000009	0.000012	0.000008	-167.172507	-76.738403	-173.467278
43422	9.615883	-0.424370	-2.258266	0.018854	0.090679	0.073489	1.000000	-0.000005	0.000010	0.000037	-167.160406	-76.737528	-173.478411
43423	9.581571	-0.402397	-2.268352	0.029357	0.115457	0.041228	1.000000	-0.000016	0.000011	0.000017	-167.171721	-76.741124	-173.469265
43424	9.581587	-0.402798	-2.268215	0.029206	0.115214	0.041232	1.000000	-0.000004	0.000004	0.000030	-167.163350	-76.739778	-173.476507
43425	9.559326	-0.406579	-2.258566	0.026673	0.108940	0.017601	1.000000	-0.000002	0.000024	0.000026	-167.165948	-76.740969	-173.473073
43426	9.581688	-0.403696	-2.267628	0.028997	0.114274	0.041243	1.000000	-0.000016	0.000011	0.000017	-167.164330	-76.740802	-173.474702
43427	9.606432	-0.425032	-2.279394	0.041097	0.097444	0.069045	1.000000	0.000006	0.000023	0.000032	-167.156201	-76.741183	-173.493856
43428	9.584190	-0.428936	-2.269635	0.038473	0.091625	0.045409	1.000000	-0.000014	0.000016	0.000038	-167.143917	-76.741002	-173.506270
43429	9.581871	-0.405298	-2.266567	0.029003	0.112219	0.041267	1.000000	-0.000025	0.000023	0.000024	-167.168772	-76.744209	-173.466096
43430	9.591626	-0.407334	-2.243629	0.006634	0.102898	0.045733	1.000000	0.000003	0.000036	0.000031	-167.155784	-76.746480	-173.477276
43431	9.562143	-0.433670	-2.258888	0.036823	0.083472	0.021788	1.000000	-0.000022	0.000010	0.000026	-167.171240	-76.750121	-173.457160
43432	9.591780	-0.408198	-2.242816	0.007124	0.101683	0.045745	1.000000	-0.000020	0.000030	0.000022	-167.165579	-76.751963	-173.463404
43433	9.572603	-0.405495	-2.287061	0.051644	0.119189	0.036827	1.000000	-0.000002	0.000024	0.000026	-167.167471	-76.753989	-173.460747
43434	9.582338	-0.407615	-2.264179	0.029282	0.109860	0.041293	1.000000	-0.000003	0.000029	0.000033	-167.154812	-76.755474	-173.472235
43435	9.569768	-0.413115	-2.231871	0.003604	0.094363	0.022121	1.000000	-0.000009	0.000029	0.000042	-167.151434	-76.751377	-173.469972
43436	9.595214	-0.404194	-2.294820	0.052831	0.123414	0.060492	1.000000	0.000011	0.000030	0.000030	-167.138738	-76.752983	-173.479811
43437	9.589898	-0.387046	-2.237462	-0.003121	0.120379	0.041636	1.000000	0.000006	0.000023	0.000032	-167.154626	-76.758542	-173.450800
43438	9.585092	-0.434275	-2.264805	0.038594	0.085288	0.045465	1.000000	-0.000011	0.000024	0.000021	-167.149295	-76.759722	-173.455645
43439	9.605113	-0.407385	-2.271032	0.030689	0.111862	0.064979	1.000000	-0.000008	0.000023	0.000035	-167.153498	-76.757588	-173.448537
43440	9.582878	-0.411266	-2.261230	0.028079	0.106046	0.041338	1.000000	-0.000008	0.000023	0.000035	-167.141254	-76.758255	-173.460211
43441	9.573339	-0.410330	-2.283114	0.050418	0.114076	0.036894	1.000000	-0.000003	0.000029	0.000033	-167.150186	-76.760800	-173.445845
43442	9.592692	-0.414229	-2.237801	0.005851	0.095619	0.045807	1.000000	-0.000001	0.000028	0.000047	-167.130773	-76.761781	-173.463961
43443	9.604744	-0.440731	-2.217710	-0.007414	0.063648	0.054404	1.000000	-0.000014	0.000016	0.000038	-167.133106	-76.756953	-173.457847
43444	9.580202	-0.420419	-2.204946	-0.019848	0.079794	0.026624	1.000000	0.000005	0.000056	0.000027	-167.119651	-76.761531	-173.469233
43445	9.595379	-0.440236	-2.238763	0.015520	0.071528	0.049960	1.000000	-0.000007	0.000011	0.000022	-167.135654	-76.766616	-173.448452
43446	9.593091	-0.416730	-2.235625	0.005548	0.093227	0.045830	1.000000	-0.000009	0.000035	0.000049	-167.116102	-76.768276	-173.467751
43447	9.595550	-0.441502	-2.237782	0.015116	0.070375	0.049969	1.000000	-0.000011	0.000024	0.000021	-167.126456	-76.768281	-173.460522
43448	9.570961	-0.421078	-2.225259	0.002681	0.086523	0.022194	1.000000	0.000006	0.000023	0.000032	-167.114321	-76.769099	-173.470378
43449	9.595684	-0.442517	-2.237004	0.013893	0.069102	0.049979	1.000000	-0.000007	0.000011	0.000022	-167.125837	-76.762838	-173.455804
43450	9.586123	-0.441388	-2.259061	0.035960	0.077949	0.045536	1.000000	-0.000002	0.000024	0.000026	-167.117250	-76.763816	-173.462987
43451	9.593451	-0.419322	-2.233594	0.003342	0.089584	0.045865	1.000000	-0.000022	0.000016	0.000032	-167.131715	-76.760751	-173.447024
43452	9.593506	-0.419769	-2.233277	0.003197	0.089316	0.045867	1.000000	-0.000002	0.000018	0.000020	-167.126915	-76.761229	-173.450230
43453	9.561640	-0.421922	-2.245921	0.023398	0.092047	0.017782	1.000000	-0.000008	0.000023	0.000035	-167.131263	-76.764952	-173.444253
43454	9.571308	-0.424015	-2.223209	0.001050	0.082660	0.022227	1.000000	0.000007	0.000011	0.000019	-167.126714	-76.764772	-173.446159
43455	9.581719	-0.395583	-2.251915	0.015106	0.118673	0.037320	1.000000	-0.000008	0.000023	0.000035	-167.121359	-76.761492	-173.459713
43456	9.586478	-0.444390	-2.256963	0.034639	0.074484	0.045567	1.000000	-0.000016	0.000017	0.000023	-167.116653	-76.761831	-173.464534
43457	9.606504	-0.417540	-2.263291	0.026298	0.101178	0.065107	1.000000	0.000001	0.000016	0.000034	-167.116088	-76.756766	-173.463060
43458	9.574642	-0.419684	-2.275940	0.045907	0.104491	0.037022	1.000000	-0.000011	0.000024	0.000021	-167.111127	-76.757899	-173.467508
43459	9.593926	-0.423355	-2.230792	0.001448	0.085027	0.045905	1.000000	-0.000014	0.000016	0.000038	-167.123929	-76.757744	-173.448260
43460	9.594000	-0.423996	-2.230352	0.001302	0.084754	0.045908	1.000000	0.000011	0.000030	0.000030	-167.111752	-76.759326	-173.457503
43461	9.594037	-0.424523	-2.230092	0.001709	0.084083	0.045913	1.000000	-0.000018	-0.000003	0.000027	-167.119486	-76.760235	-173.457726
43462	9.572520	-0.397456	-2.271963	0.036134	0.124016	0.032932	1.000000	-0.000027	0.000025	0.000010	-167.121629	-76.761750	-173.456829
43463	9.584535	-0.423627	-2.251903	0.023743	0.091604	0.041494	1.000000	0.000009	0.000016	0.000040	-167.133707	-76.761601	-173.432627
43464	9.591860	-0.401785	-2.226428	-0.008454	0.104154	0.041818	1.000000	-0.000008	0.000023	0.000035	-167.121960	-76.762248	-173.443748
43465	9.607004	-0.421773	-2.260382	0.025413	0.095570	0.065165	1.000000	-0.000003	0.000030	0.000033	-167.134154	-76.760312	-173.418230
43466	9.604750	-0.398194	-2.257228	0.015411	0.117245	0.061059	1.000000	-0.000008	0.000017	0.000029	-167.126199	-76.760457	-173.425366
43467	9.595215	-0.397185	-2.279235	0.037754	0.125287	0.056643	1.000000	0.000006	0.000023	0.000032	-167.135974	-76.762377	-173.411728
43468	9.582527	-0.402506	-2.247248	0.012963	0.110343	0.037420	1.000000	-0.000027	0.000004	0.000028	-167.132131	-76.761088	-173.416892
43469	9.582585	-0.403157	-2.246886	0.013293	0.109220	0.037432	1.000000	0.000005	0.000035	0.000045	-167.135758	-76.765116	-173.404606
43470	9.575449	-0.426320	-2.271305	0.045213	0.096129	0.037111	1.000000	-0.000014	0.000037	0.000020	-167.130671	-76.767760	-173.409513
43471	9.585946	-0.397731	-2.299874	0.059371	0.131848	0.052253	1.000000	-0.000007	0.000011	0.000022	-167.140805	-76.764282	-173.396553
43472	9.592462	-0.406226	-2.223028	-0.009809	0.098598	0.041874	1.000000	0.000006	0.000023	0.000032	-167.129216	-76.765065	-173.405782
43473	9.598003	-0.424562	-2.279428	0.045937	0.099655	0.060795	1.000000	-0.000017	0.000023	0.000030	-167.131974	-76.760833	-173.403921
43474	9.585349	-0.429853	-2.247255	0.021155	0.084703	0.041562	1.000000	-0.000002	0.000024	0.000027	-167.123910	-76.761781	-173.410516
43475	9.605429	-0.402943	-2.253493	0.013145	0.111544	0.061128	1.000000	-0.000016	0.000017	0.000023	-167.126846	-76.759335	-173.410168
43476	9.583212	-0.406618	-2.243582	0.010560	0.105745	0.037473	1.000000	0.000008	0.000043	0.000029	-167.114509	-76.762389	-173.419955
43477	9.576063	-0.429786	-2.268061	0.043053	0.091772	0.037162	1.000000	-0.000008	0.000023	0.000035	-167.127287	-76.765799	-173.401494
43478	9.582591	-0.438536	-2.190989	-0.026116	0.058502	0.026759	1.000000	0.000005	0.000035	0.000045	-167.108325	-76.767547	-173.418447
43479	9.583520	-0.408629	-2.241902	0.011312	0.103356	0.037498	1.000000	-0.000016	0.000017	0.000023	-167.121902	-76.771020	-173.406038
43480	9.583591	-0.409066	-2.241518	0.011170	0.103065	0.037501	1.000000	-0.000002	0.000024	0.000027	-167.113943	-76.771987	-173.412535
43481	9.595541	-0.435336	-2.221520	-0.001875	0.070832	0.046018	1.000000	-0.000013	0.000010	0.000031	-167.125856	-76.767434	-173.397113
43482	9.606030	-0.406914	-2.250214	0.012734	0.107154	0.061178	1.000000	-0.000002	0.000024	0.000027	-167.117947	-76.768388	-173.403549
43483	9.578808	-0.457445	-2.268274	0.051406	0.065601	0.041294	1.000000	0.000000	0.000022	0.000041	-167.127227	-76.764174	-173.382366
43484	9.596587	-0.406535	-2.271796	0.033927	0.114701	0.056786	1.000000	-0.000016	0.000017	0.000023	-167.123173	-76.764484	-173.386442
43485	9.586206	-0.435984	-2.242414	0.018264	0.077374	0.041628	1.000000	-0.000008	0.000023	0.000035	-167.119913	-76.760244	-173.399438
43486	9.586257	-0.436502	-2.242097	0.018116	0.077078	0.041630	1.000000	-0.000007	0.000011	0.000022	-167.116081	-76.759862	-173.402259
43487	9.599078	-0.432294	-2.273437	0.042745	0.091014	0.060893	1.000000	0.000005	0.000029	0.000039	-167.112393	-76.761706	-173.405135
43488	9.596831	-0.408865	-2.270347	0.032716	0.112666	0.056814	1.000000	-0.000005	0.000010	0.000037	-167.101618	-76.760824	-173.414833
43489	9.588707	-0.462555	-2.243809	0.028800	0.053105	0.045724	1.000000	-0.000008	0.000017	0.000029	-167.115119	-76.766826	-173.392724
43490	9.574576	-0.413159	-2.260467	0.031076	0.105877	0.033161	1.000000	-0.000022	0.000016	0.000032	-167.107688	-76.766826	-173.401008
43491	9.606551	-0.412244	-2.247016	0.011073	0.101046	0.061244	1.000000	0.000014	0.000023	0.000037	-167.114073	-76.766375	-173.383872
43492	9.584244	-0.416017	-2.237444	0.008503	0.095255	0.037582	1.000000	-0.000027	0.000004	0.000028	-167.110703	-76.765072	-173.388551
43493	9.608916	-0.437525	-2.249233	0.020135	0.077785	0.065333	1.000000	0.000006	0.000023	0.000032	-167.115780	-76.762188	-173.387918
43494	9.552416	-0.418622	-2.249958	0.027441	0.097638	0.009529	1.000000	-0.000021	0.000011	0.000026	-167.112172	-76.761684	-173.392199
43495	9.614022	-0.391789	-2.220691	-0.023900	0.111238	0.061595	1.000000	0.000003	0.000030	0.000024	-167.115385	-76.752807	-173.380946
43496	9.597259	-0.413144	-2.267760	0.030216	0.107360	0.056881	1.000000	-0.000016	0.000017	0.000023	-167.111520	-76.753077	-173.384850
43497	9.574969	-0.416831	-2.258126	0.026787	0.100845	0.033227	1.000000	0.000001	0.000016	0.000034	-167.116545	-76.747516	-173.377802
43498	9.606934	-0.415796	-2.244723	0.006858	0.096830	0.061290	1.000000	-0.000016	0.000017	0.000023	-167.112715	-76.747768	-173.381667
43499	9.575109	-0.417775	-2.257358	0.026625	0.099661	0.033239	1.000000	0.000003	0.000030	0.000024	-167.119660	-76.749894	-173.377751
43500	9.597502	-0.415198	-2.266356	0.028884	0.104832	0.056912	1.000000	-0.000010	0.000003	0.000039	-167.109400	-76.748159	-173.387560
43501	9.597539	-0.415726	-2.266105	0.027996	0.103705	0.056926	1.000000	-0.000011	0.000024	0.000021	-167.123917	-76.744473	-173.369298
43502	9.585795	-0.390577	-2.285223	0.040129	0.134534	0.048477	1.000000	0.000005	0.000035	0.000045	-167.105424	-76.746137	-173.385760
43503	9.600025	-0.441272	-2.267708	0.037548	0.080364	0.061007	1.000000	-0.000008	0.000023	0.000035	-167.114046	-76.746004	-173.374130
43504	9.575471	-0.420920	-2.255236	0.025081	0.096525	0.033275	1.000000	0.000006	0.000023	0.000032	-167.103048	-76.746686	-173.382757
43505	9.585124	-0.423172	-2.232324	0.002643	0.086761	0.037664	1.000000	-0.000003	0.000030	0.000033	-167.097904	-76.747211	-173.399640
43506	9.585231	-0.423725	-2.231760	0.002486	0.086449	0.037667	1.000000	-0.000011	0.000030	0.000028	-167.090191	-76.748750	-173.406940
43507	9.598105	-0.419446	-2.263021	0.026571	0.100174	0.056967	1.000000	0.000007	0.000017	0.000025	-167.097633	-76.746427	-173.401841
43508	9.585365	-0.424813	-2.230982	0.001816	0.085200	0.037678	1.000000	0.000001	0.000016	0.000034	-167.086940	-76.746288	-173.410830
43509	9.575868	-0.423840	-2.253005	0.024544	0.093298	0.033307	1.000000	0.000006	0.000023	0.000032	-167.097957	-76.750543	-173.391620
43510	9.600558	-0.445629	-2.264599	0.036696	0.076503	0.061041	1.000000	-0.000006	0.000022	0.000050	-167.080143	-76.750588	-173.408695
43511	9.595116	-0.428517	-2.207330	-0.020650	0.073862	0.042073	1.000000	-0.000011	0.000024	0.000021	-167.085049	-76.748342	-173.412785
43512	9.588873	-0.421000	-2.283472	0.048161	0.106602	0.052619	1.000000	0.000001	0.000016	0.000034	-167.074419	-76.748208	-173.421722
43513	9.598475	-0.423217	-2.260746	0.025353	0.095958	0.057012	1.000000	-0.000008	0.000017	0.000029	-167.094542	-76.744884	-173.395311
43514	9.576174	-0.426881	-2.251128	0.022791	0.090184	0.033340	1.000000	-0.000008	0.000017	0.000029	-167.087500	-76.744924	-173.401517
43515	9.600858	-0.448472	-2.262765	0.035065	0.072739	0.061075	1.000000	0.000006	0.000023	0.000032	-167.093107	-76.745901	-173.394083
43516	9.585900	-0.429846	-2.227715	0.000416	0.079704	0.037724	1.000000	-0.000004	0.000041	0.000046	-167.074635	-76.748226	-173.411587
43517	9.608342	-0.427339	-2.236514	0.002499	0.083993	0.061410	1.000000	-0.000007	0.000011	0.000022	-167.092158	-76.746287	-173.393294
43518	9.598861	-0.425941	-2.258595	0.024525	0.092879	0.057043	1.000000	-0.000027	0.000025	0.000010	-167.095450	-76.747693	-173.391171
43519	9.586136	-0.431142	-2.226448	-0.000531	0.077271	0.037743	1.000000	0.000000	0.000022	0.000041	-167.096144	-76.745767	-173.393736
43520	9.578921	-0.454309	-2.251151	0.031400	0.064212	0.037424	1.000000	-0.000017	0.000023	0.000030	-167.089001	-76.746475	-173.401091
43521	9.584036	-0.408263	-2.222798	-0.010818	0.097843	0.033711	1.000000	0.000006	0.000029	0.000039	-167.092688	-76.746822	-173.391782
43522	9.608729	-0.429855	-2.234371	0.001329	0.081018	0.061435	1.000000	-0.000016	0.000017	0.000023	-167.089315	-76.747039	-173.395198
43523	9.586424	-0.433439	-2.224762	-0.002053	0.074416	0.037765	1.000000	-0.000008	0.000017	0.000029	-167.101028	-76.741708	-173.385791
43524	9.574708	-0.408216	-2.244000	0.010060	0.105247	0.029367	1.000000	0.000012	0.000030	0.000030	-167.090120	-76.743160	-173.393697
43525	9.599380	-0.429892	-2.255639	0.022401	0.087945	0.057094	1.000000	-0.000019	0.000009	0.000040	-167.092572	-76.742870	-173.393702
43526	9.577069	-0.433543	-2.246043	0.019846	0.082178	0.033417	1.000000	-0.000011	0.000024	0.000021	-167.088984	-76.743885	-173.396702
43527	9.587726	-0.405045	-2.274578	0.033973	0.117609	0.048716	1.000000	-0.000017	0.000023	0.000030	-167.102079	-76.741855	-173.382971
43528	9.577214	-0.434551	-2.245229	0.019148	0.080682	0.033431	1.000000	0.000001	0.000017	0.000034	-167.091805	-76.741681	-173.391521
43529	9.597377	-0.407856	-2.251472	0.010612	0.106856	0.053091	1.000000	-0.000008	0.000017	0.000029	-167.104577	-76.736199	-173.376720
43530	9.590157	-0.430810	-2.276236	0.042543	0.093804	0.052775	1.000000	-0.000025	0.000024	0.000025	-167.101151	-76.737054	-173.381224
43531	9.590221	-0.431319	-2.275872	0.042831	0.092801	0.052783	1.000000	-0.000014	0.000016	0.000038	-167.109184	-76.738883	-173.376082
43532	9.588054	-0.407805	-2.272705	0.032751	0.114411	0.048758	1.000000	0.000012	0.000030	0.000030	-167.098437	-76.740322	-173.383823
43533	9.599887	-0.434260	-2.252641	0.020165	0.082258	0.057147	1.000000	-0.000019	0.000009	0.000040	-167.104641	-76.737909	-173.372177
43534	9.597720	-0.410747	-2.249483	0.010082	0.103864	0.053124	1.000000	0.000003	0.000036	0.000031	-167.093709	-76.740021	-173.381154
43535	9.612890	-0.430701	-2.283397	0.044319	0.095327	0.076499	1.000000	-0.000008	0.000017	0.000029	-167.109905	-76.738959	-173.361294
43536	9.588322	-0.410190	-2.271141	0.031847	0.111508	0.048794	1.000000	-0.000013	0.000010	0.000031	-167.103605	-76.738146	-173.367369
43537	9.595679	-0.388262	-2.245621	-0.000336	0.123373	0.049127	1.000000	-0.000003	0.000030	0.000033	-167.105919	-76.739490	-173.372388
43538	9.568349	-0.438607	-2.263709	0.039136	0.082963	0.029144	1.000000	-0.000002	0.000024	0.000027	-167.099077	-76.740300	-173.377743
43539	9.598109	-0.413474	-2.247320	0.007994	0.100127	0.053164	1.000000	0.000003	0.000030	0.000024	-167.104022	-76.734182	-173.372623
43540	9.598220	-0.414027	-2.246744	0.007825	0.099786	0.053168	1.000000	-0.000003	0.000030	0.000033	-167.093475	-76.735458	-173.381856
43541	9.600549	-0.438677	-2.248962	0.018231	0.077046	0.057193	1.000000	-0.000010	0.000024	0.000021	-167.103573	-76.739881	-173.373591
43542	9.576053	-0.418255	-2.236399	0.005762	0.093233	0.029492	1.000000	0.000005	0.000035	0.000045	-167.085807	-76.741475	-173.389344
43543	9.588977	-0.414135	-2.267659	0.030481	0.107060	0.048848	1.000000	-0.000021	0.000011	0.000026	-167.095928	-76.742257	-173.393800
43544	9.600756	-0.440548	-2.247715	0.018054	0.075543	0.057205	1.000000	0.000009	0.000016	0.000040	-167.082417	-76.741879	-173.404736
43545	9.589094	-0.415512	-2.266911	0.029730	0.105897	0.048862	1.000000	-0.000003	0.000035	0.000040	-167.078873	-76.740796	-173.418374
43546	9.600938	-0.441953	-2.246662	0.017298	0.074379	0.057215	1.000000	-0.000017	0.000023	0.000030	-167.072178	-76.741458	-173.425322
43547	9.578642	-0.445559	-2.236965	0.014495	0.067861	0.033535	1.000000	-0.000017	0.000023	0.000030	-167.084179	-76.740133	-173.410798
43548	9.598909	-0.418984	-2.242879	0.006788	0.094866	0.053217	1.000000	0.000011	0.000042	0.000043	-167.066202	-76.742529	-173.426152
43549	9.591758	-0.442226	-2.267285	0.037958	0.081429	0.052904	1.000000	-0.000012	0.000036	0.000034	-167.062707	-76.739720	-173.440871
43550	9.576818	-0.423289	-2.232173	0.003314	0.088398	0.029538	1.000000	0.000000	0.000038	0.000017	-167.058931	-76.742304	-173.442841
43551	9.608777	-0.422288	-2.218612	-0.016977	0.083576	0.057565	1.000000	-0.000004	0.000004	0.000030	-167.068343	-76.738493	-173.436878
43552	9.611042	-0.446969	-2.221022	-0.007231	0.061282	0.061574	1.000000	-0.000011	0.000030	0.000028	-167.061441	-76.739939	-173.443421
43553	9.599417	-0.421640	-2.240209	0.005677	0.091138	0.053253	1.000000	-0.000002	0.000024	0.000027	-167.081831	-76.744851	-173.411998
43554	9.586608	-0.426979	-2.208141	-0.019045	0.076154	0.033891	1.000000	0.000001	0.000017	0.000034	-167.071993	-76.744639	-173.420166
43555	9.567670	-0.424090	-2.252599	0.024095	0.093470	0.025252	1.000000	-0.000004	0.000025	0.000012	-167.089855	-76.739260	-173.402949
43556	9.597408	-0.399081	-2.236313	-0.005808	0.111215	0.049270	1.000000	0.000003	0.000015	0.000049	-167.073103	-76.738521	-173.417946
43557	9.612554	-0.419140	-2.270348	0.029319	0.102899	0.072650	1.000000	-0.000010	0.000024	0.000021	-167.088794	-76.743767	-173.405442
43558	9.579534	-0.451540	-2.231938	0.012151	0.060583	0.033586	1.000000	-0.000004	-0.000002	0.000023	-167.086792	-76.741759	-173.406079
43559	9.577351	-0.427846	-2.229014	0.001987	0.081576	0.029597	1.000000	-0.000016	0.000023	0.000030	-167.095240	-76.741505	-173.407527
43560	9.588084	-0.399306	-2.257645	0.016450	0.117795	0.044980	1.000000	-0.000015	0.000011	0.000017	-167.096273	-76.741168	-173.406430
43561	9.599828	-0.425592	-2.237695	0.003940	0.085808	0.053301	1.000000	-0.000014	0.000016	0.000038	-167.097553	-76.740002	-173.410018
43562	9.588172	-0.400354	-2.257084	0.016031	0.116642	0.044995	1.000000	-0.000008	0.000017	0.000029	-167.091359	-76.739968	-173.415449
43563	9.597722	-0.402544	-2.234346	-0.007040	0.106360	0.049323	1.000000	-0.000022	0.000017	0.000032	-167.100376	-76.735132	-173.411204
43564	9.580945	-0.423971	-2.281741	0.047073	0.102542	0.044689	1.000000	0.000018	0.000004	0.000032	-167.091146	-76.733543	-173.416697
43565	9.590454	-0.426189	-2.259165	0.024269	0.092465	0.049013	1.000000	-0.000007	0.000011	0.000022	-167.099320	-76.729984	-173.416896
43566	9.578844	-0.400855	-2.278410	0.036359	0.123299	0.040717	1.000000	0.000003	0.000036	0.000031	-167.088873	-76.732040	-173.425490
43567	9.600125	-0.428926	-2.235784	0.001662	0.081887	0.053335	1.000000	-0.000022	0.000017	0.000032	-167.098230	-76.730934	-173.421521
43568	9.566111	-0.406752	-2.245871	0.011388	0.107348	0.021346	1.000000	-0.000008	0.000023	0.000036	-167.088387	-76.731367	-173.430793
43569	9.613149	-0.425402	-2.266662	0.025067	0.094955	0.072742	1.000000	-0.000008	0.000023	0.000036	-167.097168	-76.726678	-173.418268
43570	9.598110	-0.406586	-2.231945	-0.009573	0.101927	0.049368	1.000000	-0.000013	0.000010	0.000031	-167.091386	-76.725795	-173.423944
43571	9.590836	-0.429536	-2.256904	0.022174	0.088371	0.049055	1.000000	0.000007	0.000011	0.000019	-167.100774	-76.723897	-173.421992
43572	9.588694	-0.405760	-2.253898	0.012079	0.109960	0.045077	1.000000	-0.000016	0.000017	0.000023	-167.098236	-76.724007	-173.424685
43573	9.581513	-0.428859	-2.278441	0.043878	0.096297	0.044767	1.000000	0.000002	0.000048	0.000044	-167.095068	-76.725853	-173.429812
43574	9.598379	-0.408700	-2.230402	-0.010583	0.099394	0.049392	1.000000	-0.000004	-0.000002	0.000023	-167.093287	-76.723796	-173.430301
43575	9.566536	-0.410690	-2.243344	0.008669	0.102178	0.021404	1.000000	-0.000009	0.000029	0.000042	-167.097314	-76.721909	-173.426131
43576	9.583911	-0.454889	-2.279919	0.052875	0.072523	0.048765	1.000000	0.000003	0.000030	0.000024	-167.090759	-76.723443	-173.430693
43577	9.600795	-0.434653	-2.231799	-0.001462	0.074966	0.053390	1.000000	0.000006	0.000023	0.000032	-167.097604	-76.724276	-173.421918
43578	9.576297	-0.414201	-2.219387	-0.013917	0.091194	0.025717	1.000000	-0.000008	0.000023	0.000036	-167.087927	-76.724683	-173.431047
43579	9.591474	-0.434251	-2.253292	0.020424	0.082748	0.049108	1.000000	-0.000003	0.000030	0.000033	-167.096706	-76.725716	-173.423284
43580	9.591552	-0.434753	-2.252859	0.020249	0.082381	0.049111	1.000000	-0.000030	0.000017	0.000027	-167.094379	-76.725688	-173.427466
43581	9.554165	-0.418893	-2.208726	-0.017651	0.083361	0.002034	1.000000	0.000003	0.000036	0.000031	-167.097868	-76.721942	-173.428766
43582	9.589556	-0.411584	-2.249172	0.009058	0.102945	0.045156	1.000000	-0.000007	0.000011	0.000022	-167.095721	-76.721350	-173.430041
43583	9.591759	-0.436419	-2.251656	0.018818	0.079844	0.049135	1.000000	0.000003	0.000015	0.000049	-167.099231	-76.720178	-173.418373
43584	9.589672	-0.412963	-2.248423	0.008713	0.101423	0.045172	1.000000	-0.000005	0.000037	0.000026	-167.092600	-76.722376	-173.424063
43585	9.589781	-0.413518	-2.247856	0.007401	0.100240	0.045185	1.000000	-0.000008	0.000023	0.000036	-167.100229	-76.715668	-173.415823
43586	9.582559	-0.436492	-2.272587	0.039328	0.087179	0.044871	1.000000	-0.000010	0.000024	0.000021	-167.097655	-76.716545	-173.417924
43587	9.599421	-0.416140	-2.224532	-0.014569	0.089546	0.049482	1.000000	-0.000016	0.000023	0.000030	-167.110650	-76.719984	-173.403227
43588	9.592146	-0.439214	-2.249465	0.017361	0.076487	0.049164	1.000000	-0.000010	0.000003	0.000039	-167.101964	-76.718067	-173.411595
43589	9.587880	-0.391398	-2.243615	-0.002109	0.119399	0.041255	1.000000	-0.000014	0.000037	0.000020	-167.115950	-76.723292	-173.403440
43590	9.592268	-0.440102	-2.248770	0.017575	0.075126	0.049174	1.000000	-0.000018	-0.000002	0.000027	-167.114539	-76.721080	-173.405258
43591	9.578505	-0.390680	-2.265481	0.019822	0.127372	0.036991	1.000000	0.000006	0.000029	0.000039	-167.115091	-76.722223	-173.414493
43592	9.590209	-0.417255	-2.245339	0.007391	0.095785	0.045230	1.000000	0.000001	0.000017	0.000034	-167.105888	-76.721936	-173.422124
43593	9.575169	-0.398355	-2.210622	-0.027290	0.102089	0.021855	1.000000	-0.000016	0.000017	0.000023	-167.120651	-76.721292	-173.408087
43594	9.583008	-0.440689	-2.269879	0.039097	0.081668	0.044919	1.000000	-0.000008	0.000017	0.000029	-167.114994	-76.721191	-173.413057
43595	9.590395	-0.418797	-2.244258	0.006070	0.093157	0.045256	1.000000	-0.000003	0.000030	0.000033	-167.123856	-76.717599	-173.399894
43596	9.601219	-0.390553	-2.272869	0.020478	0.129321	0.060748	1.000000	-0.000010	0.000003	0.000039	-167.115308	-76.715679	-173.408145
43597	9.612869	-0.417091	-2.252916	0.007718	0.096885	0.068983	1.000000	0.000006	0.000023	0.000032	-167.126048	-76.713763	-173.389096
43598	9.590558	-0.420491	-2.243245	0.005197	0.091181	0.045275	1.000000	-0.000027	0.000025	0.000010	-167.130721	-76.715014	-173.385729
43599	9.581195	-0.419210	-2.265186	0.026831	0.099346	0.041018	1.000000	-0.000009	0.000029	0.000042	-167.134940	-76.713286	-173.382063
43600	9.590759	-0.421540	-2.242188	0.004472	0.089690	0.045289	1.000000	-0.000011	0.000030	0.000028	-167.128900	-76.714648	-173.387811
43601	9.601621	-0.393145	-2.270725	0.018812	0.125173	0.060805	1.000000	-0.000013	0.000010	0.000031	-167.140495	-76.712954	-173.376757
43602	9.577929	-0.427314	-2.209838	-0.020456	0.073655	0.025853	1.000000	-0.000002	0.000024	0.000027	-167.134710	-76.713636	-173.381209
43603	9.581507	-0.421573	-2.263427	0.026194	0.096728	0.041046	1.000000	0.000014	0.000029	0.000044	-167.128796	-76.714871	-173.396826
43604	9.583725	-0.446382	-2.265737	0.035949	0.074395	0.044989	1.000000	-0.000030	0.000017	0.000027	-167.126893	-76.714802	-173.400623
43605	9.591078	-0.424311	-2.240299	0.003632	0.085967	0.045322	1.000000	-0.000007	0.000011	0.000022	-167.143180	-76.713610	-173.380336
43606	9.613546	-0.421656	-2.249176	0.005785	0.090890	0.069041	1.000000	-0.000010	0.000024	0.000021	-167.140959	-76.714481	-173.382128
43607	9.589091	-0.401087	-2.236716	-0.006620	0.106376	0.041402	1.000000	0.000006	0.000029	0.000039	-167.147471	-76.715269	-173.372393
43608	9.591307	-0.425897	-2.239017	0.003140	0.084039	0.045339	1.000000	-0.000008	0.000017	0.000029	-167.142071	-76.715143	-173.377121
43609	9.581948	-0.424751	-2.260963	0.024756	0.092200	0.041093	1.000000	-0.000011	0.000036	0.000034	-167.149774	-76.714306	-173.370249
43610	9.582068	-0.425368	-2.260340	0.024574	0.091812	0.041097	1.000000	-0.000003	0.000030	0.000033	-167.140389	-76.715475	-173.378487
43611	9.604577	-0.422835	-2.269032	0.025399	0.096088	0.064828	1.000000	-0.000010	0.000024	0.000021	-167.150400	-76.708275	-173.367284
43612	9.591731	-0.428192	-2.236760	0.000711	0.081111	0.045364	1.000000	-0.000004	0.000041	0.000047	-167.133578	-76.710406	-173.383294
43613	9.582375	-0.427114	-2.258709	0.021767	0.089261	0.041127	1.000000	-0.000007	0.000011	0.000022	-167.148037	-76.703859	-173.367561
43614	9.607003	-0.448759	-2.270197	0.033847	0.072217	0.068777	1.000000	0.000003	0.000036	0.000031	-167.138421	-76.705799	-173.375396
43615	9.608741	-0.409030	-2.187722	-0.054810	0.081810	0.049951	1.000000	-0.000030	0.000011	0.000020	-167.159914	-76.706279	-173.354204
43616	9.582617	-0.428413	-2.257436	0.021473	0.087342	0.041145	1.000000	-0.000011	0.000030	0.000028	-167.154140	-76.707601	-173.359718
43617	9.592144	-0.430562	-2.234533	-0.000445	0.077168	0.045396	1.000000	-0.000002	0.000018	0.000020	-167.165830	-76.709911	-173.356701
43618	9.614632	-0.427983	-2.243330	0.001692	0.082062	0.069120	1.000000	-0.000002	0.000024	0.000027	-167.160299	-76.710560	-173.360944
43619	9.580728	-0.405483	-2.253444	0.010840	0.106692	0.037251	1.000000	-0.000010	0.000018	0.000014	-167.183722	-76.707016	-173.333079
43620	9.605356	-0.427063	-2.264938	0.022920	0.089632	0.064895	1.000000	-0.000017	0.000029	0.000037	-167.174581	-76.708020	-173.342767
43621	9.560663	-0.433836	-2.245821	0.018282	0.077990	0.017459	1.000000	0.000002	0.000048	0.000044	-167.175220	-76.711571	-173.342192
43622	9.612914	-0.405993	-2.238434	-0.009391	0.100808	0.065232	1.000000	-0.000007	0.000011	0.000022	-167.173794	-76.710911	-173.342797
43623	9.577577	-0.414047	-2.197266	-0.036491	0.079998	0.022030	1.000000	-0.000004	0.000025	0.000012	-167.188985	-76.711000	-173.337283
43624	9.605746	-0.429110	-2.262894	0.022256	0.086795	0.064922	1.000000	-0.000008	0.000017	0.000029	-167.183853	-76.710831	-173.341771
43625	9.602232	-0.436235	-2.208494	-0.023844	0.061868	0.049676	1.000000	-0.000005	0.000016	0.000043	-167.190536	-76.714061	-173.337640
43626	9.579850	-0.439980	-2.199001	-0.026347	0.056191	0.025954	1.000000	0.000001	0.000017	0.000034	-167.181930	-76.713716	-173.344727
43627	9.571927	-0.408208	-2.272422	0.031855	0.110481	0.033078	1.000000	-0.000016	0.000023	0.000030	-167.185631	-76.710923	-173.351300
43628	9.581473	-0.410625	-2.249346	0.009492	0.100786	0.037315	1.000000	0.000011	0.000042	0.000043	-167.168994	-76.713174	-173.365487
43629	9.583707	-0.435410	-2.251460	0.020147	0.077633	0.041229	1.000000	-0.000010	0.000024	0.000021	-167.189956	-76.718667	-173.342770
43630	9.604046	-0.408635	-2.257696	0.012333	0.104449	0.061056	1.000000	-0.000018	-0.000002	0.000027	-167.189235	-76.716403	-173.343986
43631	9.581647	-0.412176	-2.248321	0.009254	0.098060	0.037342	1.000000	0.000006	0.000023	0.000032	-167.196788	-76.713052	-173.334308
43632	9.583824	-0.436854	-2.250683	0.019018	0.075705	0.041246	1.000000	-0.000016	0.000017	0.000023	-167.195304	-76.713078	-173.336053
43633	9.568770	-0.417867	-2.215981	-0.016330	0.081975	0.017855	1.000000	-0.000008	0.000017	0.000029	-167.206120	-76.708207	-173.328034
43634	9.572401	-0.411922	-2.269751	0.030143	0.105433	0.033139	1.000000	-0.000008	0.000017	0.000029	-167.201156	-76.708033	-173.332380
43635	9.615807	-0.437160	-2.236513	-0.001766	0.068919	0.069220	1.000000	-0.000005	0.000010	0.000037	-167.214435	-76.708407	-173.319543
43636	9.568932	-0.419766	-2.214922	-0.016529	0.079945	0.017871	1.000000	-0.000004	0.000042	0.000047	-167.198033	-76.710528	-173.335172
43637	9.613863	-0.414558	-2.232783	-0.012600	0.089282	0.065339	1.000000	-0.000005	0.000010	0.000037	-167.207700	-76.705935	-173.321842
43638	9.570547	-0.390575	-2.265455	0.019293	0.124181	0.029284	1.000000	0.000006	0.000023	0.000032	-167.199018	-76.706379	-173.328376
43639	9.574791	-0.439573	-2.270636	0.039198	0.079197	0.037075	1.000000	-0.000005	0.000010	0.000037	-167.208428	-76.705804	-173.319711
43640	9.604570	-0.414754	-2.254349	0.009192	0.096679	0.061139	1.000000	-0.000008	0.000017	0.000029	-167.203583	-76.705629	-173.323932
43641	9.574864	-0.440630	-2.270122	0.038694	0.077660	0.037090	1.000000	-0.000007	0.000011	0.000022	-167.220125	-76.703711	-173.308293
43642	9.614069	-0.417411	-2.231363	-0.013487	0.085823	0.065368	1.000000	-0.000008	0.000017	0.000029	-167.215317	-76.703533	-173.312479
43643	9.591709	-0.421116	-2.221760	-0.017112	0.079462	0.041644	1.000000	-0.000000	0.000028	0.000048	-167.213834	-76.697153	-173.310502
43644	9.582369	-0.420022	-2.243786	0.004868	0.088361	0.037437	1.000000	-0.000016	0.000017	0.000023	-167.212567	-76.697144	-173.312030
43645	9.614278	-0.419293	-2.230108	-0.015927	0.083195	0.065387	1.000000	0.000006	0.000023	0.000032	-167.218864	-76.692838	-173.306366
43646	9.582521	-0.421035	-2.242946	0.003751	0.086853	0.037451	1.000000	-0.000010	0.000024	0.000021	-167.217337	-76.693626	-173.307515
43647	9.584703	-0.445768	-2.245187	0.013431	0.063922	0.041339	1.000000	0.000006	0.000029	0.000039	-167.218985	-76.693605	-173.310209
43648	9.605119	-0.419338	-2.251159	0.005580	0.090692	0.061198	1.000000	0.000001	0.000017	0.000034	-167.210750	-76.693207	-173.316957
43649	9.566020	-0.443579	-2.289292	0.057158	0.081106	0.032947	1.000000	-0.000016	0.000023	0.000030	-167.220568	-76.691899	-173.310278
43650	9.582838	-0.423537	-2.241119	0.002663	0.084007	0.037476	1.000000	0.000006	0.000029	0.000039	-167.208344	-76.692799	-173.320547
43651	9.607451	-0.445225	-2.252520	0.014591	0.066203	0.065095	1.000000	-0.000019	0.000025	0.000016	-167.226674	-76.692515	-173.306949
43652	9.573634	-0.422705	-2.262560	0.024314	0.091824	0.033291	1.000000	-0.000003	0.000030	0.000033	-167.217993	-76.693600	-173.314560
43653	9.605563	-0.422117	-2.248746	0.004195	0.086722	0.061235	1.000000	0.000006	0.000023	0.000032	-167.224214	-76.693263	-173.313137
43654	9.592603	-0.427484	-2.216682	-0.020467	0.071757	0.041696	1.000000	-0.000008	0.000023	0.000036	-167.215849	-76.693539	-173.321082
43655	9.551421	-0.427404	-2.252133	0.020730	0.084216	0.009578	1.000000	-0.000015	0.000012	0.000017	-167.229822	-76.688765	-173.314369
43656	9.581242	-0.402392	-2.235743	-0.009302	0.101655	0.033644	1.000000	-0.000002	0.000024	0.000027	-167.224917	-76.689345	-173.318064
43657	9.596451	-0.422407	-2.269604	0.024946	0.093124	0.057070	1.000000	-0.000003	0.000030	0.000033	-167.233875	-76.690103	-173.305546
43658	9.572024	-0.401707	-2.257254	0.012500	0.109435	0.029470	1.000000	-0.000016	0.000017	0.000023	-167.232806	-76.690062	-173.306928
43659	9.603934	-0.401140	-2.243498	-0.007238	0.104115	0.057412	1.000000	0.000014	0.000029	0.000044	-167.238122	-76.692221	-173.295978
43660	9.574215	-0.427186	-2.259255	0.022408	0.085846	0.033350	1.000000	-0.000027	0.000004	0.000028	-167.237676	-76.690568	-173.298013
43661	9.581577	-0.405300	-2.233783	-0.009931	0.097272	0.033688	1.000000	0.000006	0.000023	0.000032	-167.248856	-76.690372	-173.284721
43662	9.583696	-0.429991	-2.236216	-0.000163	0.074893	0.037550	1.000000	-0.000021	0.000011	0.000026	-167.248162	-76.689526	-173.286360
43663	9.604133	-0.403444	-2.242236	-0.007781	0.100918	0.057445	1.000000	0.000006	0.000029	0.000039	-167.254729	-76.691400	-173.277142
43664	9.572365	-0.405230	-2.255177	0.011905	0.104611	0.029523	1.000000	-0.000021	0.000011	0.000026	-167.254071	-76.690557	-173.278744
43665	9.596906	-0.426972	-2.266825	0.024783	0.086740	0.057129	1.000000	0.000001	0.000017	0.000034	-167.266093	-76.694396	-173.266148
43666	9.579780	-0.383940	-2.229382	-0.019802	0.115677	0.029871	1.000000	-0.000008	0.000017	0.000029	-167.261675	-76.694187	-173.269990
43667	9.597051	-0.428131	-2.265995	0.024656	0.085190	0.057143	1.000000	0.000003	0.000036	0.000031	-167.271044	-76.697087	-173.261519
43668	9.595058	-0.404473	-2.262862	0.014497	0.106711	0.053299	1.000000	-0.000027	0.000004	0.000028	-167.270751	-76.695452	-173.263402
43669	9.574730	-0.432252	-2.256106	0.021913	0.078401	0.033413	1.000000	0.000005	0.000035	0.000046	-167.273156	-76.695922	-173.261726
43670	9.582194	-0.410455	-2.230191	-0.010415	0.090587	0.033751	1.000000	-0.000014	0.000037	0.000020	-167.271532	-76.698201	-173.263419
43671	9.574947	-0.433365	-2.254973	0.021384	0.076879	0.033426	1.000000	-0.000005	0.000010	0.000037	-167.280084	-76.695663	-173.258290
43672	9.597425	-0.431017	-2.263861	0.023478	0.081640	0.057175	1.000000	-0.000008	0.000017	0.000029	-167.275769	-76.695452	-173.262037
43673	9.575028	-0.434558	-2.254401	0.021025	0.075177	0.033440	1.000000	0.000001	0.000017	0.000034	-167.289162	-76.694669	-173.241081
43674	9.573042	-0.410969	-2.251259	0.010862	0.096694	0.029606	1.000000	-0.000002	0.000024	0.000027	-167.284604	-76.695266	-173.244419
43675	9.567835	-0.457984	-2.278846	0.052477	0.061150	0.033117	1.000000	-0.000002	0.000018	0.000020	-167.296447	-76.693166	-173.239901
43676	9.595638	-0.409111	-2.259566	0.012459	0.100468	0.053367	1.000000	-0.000015	0.000028	0.000051	-167.281295	-76.693629	-173.255617
43677	9.573248	-0.412710	-2.250063	0.010516	0.094092	0.029631	1.000000	-0.000007	0.000011	0.000022	-167.301339	-76.695484	-173.236107
43678	9.575378	-0.437383	-2.252367	0.020298	0.071702	0.033468	1.000000	0.000003	0.000036	0.000031	-167.292827	-76.697387	-173.242932
43679	9.610997	-0.430299	-2.292596	0.046553	0.090257	0.076807	1.000000	-0.000008	0.000017	0.000029	-167.305719	-76.695061	-173.227246
43680	9.571817	-0.445021	-2.197459	-0.026981	0.046245	0.018064	1.000000	0.000001	0.000017	0.000034	-167.298031	-76.694660	-173.233486
43681	9.605351	-0.413796	-2.235120	-0.011008	0.086841	0.057576	1.000000	-0.000008	0.000017	0.000029	-167.307626	-76.690608	-173.225451
43682	9.585017	-0.441480	-2.228301	-0.003504	0.059272	0.037656	1.000000	-0.000003	0.000030	0.000033	-167.299461	-76.691690	-173.232574
43683	9.605562	-0.414986	-2.233991	-0.011382	0.085329	0.057588	1.000000	-0.000020	0.000042	0.000036	-167.306676	-76.693745	-173.230745
43684	9.553420	-0.444022	-2.240410	0.016012	0.061937	0.009753	1.000000	0.000017	0.000016	0.000046	-167.292012	-76.692959	-173.242212
43685	9.596327	-0.414516	-2.255654	0.009909	0.093132	0.053442	1.000000	-0.000038	0.000012	0.000015	-167.313810	-76.689188	-173.226573
43686	9.564544	-0.415922	-2.268795	0.029606	0.096869	0.025537	1.000000	0.000007	0.000011	0.000019	-167.313381	-76.688586	-173.224604
43687	9.596404	-0.415299	-2.255182	0.010221	0.091687	0.053456	1.000000	-0.000014	0.000016	0.000038	-167.321833	-76.691604	-173.229080
43688	9.596483	-0.415875	-2.254738	0.010028	0.091242	0.053460	1.000000	0.000004	0.000030	0.000024	-167.317201	-76.692998	-173.231890
43689	9.583464	-0.421022	-2.222749	-0.014419	0.075636	0.033872	1.000000	-0.000021	0.000011	0.000026	-167.333899	-76.692796	-173.218085
43690	9.598608	-0.440957	-2.256921	0.019806	0.067744	0.057289	1.000000	-0.000013	0.000010	0.000031	-167.330159	-76.691770	-173.221931
43691	9.592882	-0.423875	-2.199832	-0.036998	0.064819	0.038036	1.000000	0.000001	0.000017	0.000034	-167.337144	-76.690726	-173.224213
43692	9.596716	-0.418017	-2.253349	0.009423	0.088221	0.053488	1.000000	-0.000020	0.000042	0.000036	-167.328696	-76.693180	-173.233739
43693	9.621292	-0.439763	-2.264737	0.021327	0.070287	0.081063	1.000000	-0.000021	0.000011	0.000026	-167.345279	-76.691027	-173.215932
43694	9.574382	-0.421831	-2.243538	0.006614	0.081487	0.029747	1.000000	-0.000007	0.000011	0.000022	-167.345043	-76.690309	-173.215481
43695	9.598940	-0.443730	-2.254966	0.019050	0.063603	0.057318	1.000000	0.000020	0.000036	0.000042	-167.346696	-76.693556	-173.216205
43696	9.576567	-0.447359	-2.245339	0.016585	0.058005	0.033565	1.000000	-0.000008	0.000017	0.000029	-167.342761	-76.693339	-173.219621
43697	9.572591	-0.399596	-2.239439	-0.004120	0.100926	0.025964	1.000000	-0.000008	0.000023	0.000036	-167.347031	-76.689841	-173.226194
43698	9.589789	-0.443895	-2.276190	0.040068	0.071053	0.053187	1.000000	-0.000014	0.000016	0.000038	-167.339673	-76.689304	-173.233849
43699	9.593424	-0.428595	-2.196554	-0.039102	0.058793	0.038066	1.000000	0.000007	0.000017	0.000026	-167.349593	-76.687454	-173.227341
43700	9.587880	-0.420764	-2.272778	0.029485	0.091528	0.049400	1.000000	-0.000016	0.000017	0.000023	-167.349221	-76.687412	-173.228095
43701	9.597302	-0.423067	-2.249910	0.007439	0.081023	0.053551	1.000000	0.000006	0.000023	0.000032	-167.360137	-76.689128	-173.218503
43702	9.574909	-0.426768	-2.240355	0.004976	0.075432	0.029796	1.000000	0.000009	0.000022	0.000047	-167.345520	-76.689023	-173.231022
43703	9.574943	-0.427369	-2.240093	0.003582	0.074244	0.029806	1.000000	-0.000007	0.000005	0.000016	-167.364054	-76.680349	-173.209964
43704	9.595409	-0.400764	-2.246302	-0.004319	0.100884	0.049775	1.000000	-0.000005	0.000010	0.000037	-167.357003	-76.679111	-173.216273
43705	9.574992	-0.428375	-2.239691	0.003226	0.072702	0.029817	1.000000	-0.000001	0.000018	0.000020	-167.372670	-76.678936	-173.200630
43706	9.597540	-0.425973	-2.248346	0.005296	0.077379	0.053582	1.000000	-0.000002	0.000030	0.000033	-167.364864	-76.679997	-173.207455
43707	9.575193	-0.429570	-2.238604	0.003170	0.071037	0.029830	1.000000	0.000011	0.000036	0.000037	-167.373297	-76.683134	-173.190776
43708	9.597720	-0.427252	-2.247334	0.005240	0.075708	0.053595	1.000000	-0.000027	0.000004	0.000028	-167.373634	-76.681469	-173.192099
43709	9.565952	-0.428745	-2.260455	0.024751	0.078768	0.025712	1.000000	-0.000010	0.000024	0.000021	-167.390563	-76.680592	-173.173436
43710	9.586532	-0.402155	-2.266220	0.016839	0.105393	0.045694	1.000000	0.000003	0.000036	0.000031	-167.382544	-76.682462	-173.179821
43711	9.588615	-0.426906	-2.268529	0.026923	0.082272	0.049489	1.000000	0.000001	0.000011	0.000028	-167.397693	-76.682812	-173.160174
43712	9.596023	-0.405113	-2.242895	-0.005419	0.094404	0.049838	1.000000	-0.000002	0.000030	0.000033	-167.389995	-76.683878	-173.166878
43713	9.573645	-0.408648	-2.233292	-0.008055	0.088244	0.026084	1.000000	-0.000008	0.000023	0.000036	-167.396610	-76.682625	-173.166633
43714	9.611319	-0.425810	-2.276296	0.028416	0.085425	0.073272	1.000000	-0.000002	0.000024	0.000027	-167.392667	-76.683191	-173.169429
43715	9.573810	-0.409656	-2.232402	-0.008336	0.086751	0.026097	1.000000	-0.000025	0.000024	0.000025	-167.407036	-76.684020	-173.160488
43716	9.587042	-0.405457	-2.263475	0.015894	0.100769	0.045744	1.000000	0.000012	0.000030	0.000030	-167.399317	-76.685206	-173.165545
43717	9.564673	-0.408843	-2.253857	0.013346	0.094558	0.021990	1.000000	-0.000010	0.000024	0.000021	-167.414611	-76.684928	-173.154621
43718	9.566694	-0.433413	-2.256423	0.023132	0.072137	0.025767	1.000000	-0.000018	-0.000002	0.000027	-167.415309	-76.682574	-173.154556
43719	9.576063	-0.435747	-2.233682	0.001225	0.061623	0.029894	1.000000	-0.000002	0.000030	0.000033	-167.426273	-76.685783	-173.143388
43720	9.598620	-0.433569	-2.242277	0.003290	0.066264	0.053664	1.000000	0.000000	0.000023	0.000041	-167.415457	-76.685857	-173.152992
43721	9.598705	-0.434280	-2.241775	0.002864	0.065133	0.053671	1.000000	-0.000002	0.000030	0.000033	-167.423888	-76.685113	-173.144876
43722	9.576319	-0.437805	-2.232182	0.000414	0.059565	0.029906	1.000000	-0.000008	0.000023	0.000036	-167.416620	-76.685371	-173.151812
43723	9.587536	-0.409667	-2.260621	0.015038	0.094905	0.045804	1.000000	0.000009	0.000016	0.000040	-167.422876	-76.686502	-173.146114
43724	9.598866	-0.436262	-2.240700	0.002664	0.063107	0.053685	1.000000	-0.000013	0.000004	0.000025	-167.423386	-76.684961	-173.145597
43725	9.589574	-0.434986	-2.262935	0.025003	0.071355	0.049579	1.000000	-0.000008	0.000023	0.000036	-167.433812	-76.686916	-173.131938
43726	9.589647	-0.435634	-2.262501	0.024811	0.070887	0.049583	1.000000	-0.000008	0.000023	0.000036	-167.426608	-76.687184	-173.138814
43727	9.610212	-0.409093	-2.268444	0.017439	0.096811	0.069604	1.000000	-0.000016	0.000018	0.000023	-167.444905	-76.689900	-173.118638
43728	9.587819	-0.412475	-2.258911	0.014992	0.091249	0.045838	1.000000	-0.000002	0.000030	0.000033	-167.437450	-76.690983	-173.125121
43729	9.599200	-0.438968	-2.238741	0.002168	0.058803	0.053711	1.000000	-0.000016	0.000018	0.000023	-167.452170	-76.687836	-173.110905
43730	9.587959	-0.413430	-2.258143	0.014148	0.089671	0.045854	1.000000	-0.000007	0.000017	0.000029	-167.448759	-76.687606	-173.113829
43731	9.597365	-0.415748	-2.235196	-0.007848	0.079359	0.049969	1.000000	0.000004	0.000031	0.000025	-167.457360	-76.690611	-173.119735
43732	9.588138	-0.414780	-2.257131	0.014125	0.088264	0.045867	1.000000	0.000002	0.000027	0.000062	-167.436011	-76.690699	-173.139978
43733	9.588190	-0.415581	-2.256764	0.013634	0.087171	0.045877	1.000000	-0.000007	0.000011	0.000022	-167.451031	-76.687787	-173.127771
43734	9.586365	-0.446781	-2.205144	-0.023151	0.040900	0.034061	1.000000	-0.000008	0.000023	0.000036	-167.443934	-76.688056	-173.134562
43735	9.588323	-0.416679	-2.255998	0.013440	0.085576	0.045892	1.000000	-0.000002	0.000024	0.000027	-167.457226	-76.689312	-173.116482
43736	9.610846	-0.414272	-2.264812	0.015498	0.090178	0.069670	1.000000	-0.000013	0.000004	0.000025	-167.457910	-76.687778	-173.115814
43737	9.605087	-0.397050	-2.207655	-0.041102	0.087371	0.050363	1.000000	-0.000011	0.000030	0.000028	-167.465994	-76.689527	-173.119594
43738	9.567988	-0.445063	-2.248657	0.020758	0.056659	0.025874	1.000000	-0.000016	0.000018	0.000023	-167.466203	-76.689489	-173.119816
43739	9.590565	-0.442695	-2.257230	0.022800	0.060570	0.049656	1.000000	-0.000011	0.000036	0.000035	-167.475860	-76.690679	-173.109767
43740	9.588726	-0.419140	-2.253826	0.012621	0.082056	0.045923	1.000000	0.000012	0.000030	0.000030	-167.468489	-76.691877	-173.114518
43741	9.588797	-0.419653	-2.253429	0.011683	0.080913	0.045933	1.000000	-0.000007	0.000011	0.000022	-167.483450	-76.686395	-173.095602
43742	9.588882	-0.420157	-2.252974	0.011490	0.080436	0.045937	1.000000	0.000003	0.000036	0.000031	-167.475895	-76.688270	-173.101573
43743	9.590931	-0.444903	-2.255240	0.020976	0.057385	0.049679	1.000000	-0.000022	0.000017	0.000032	-167.487139	-76.685679	-173.091825
43744	9.579720	-0.419423	-2.274655	0.032954	0.088257	0.041861	1.000000	-0.000007	0.000017	0.000029	-167.483910	-76.685437	-173.094601
43745	9.589103	-0.421825	-2.251722	0.010008	0.077739	0.045961	1.000000	-0.000017	0.000029	0.000037	-167.491305	-76.682540	-173.085082
43746	9.611678	-0.419611	-2.260297	0.012054	0.082317	0.069744	1.000000	-0.000008	0.000023	0.000036	-167.484370	-76.682790	-173.091721
43747	9.587312	-0.398936	-2.248032	0.000323	0.097998	0.042248	1.000000	-0.000022	0.000023	0.000039	-167.498272	-76.686518	-173.073048
43748	9.591300	-0.447932	-2.253073	0.020128	0.053600	0.049703	1.000000	0.000012	0.000030	0.000030	-167.491020	-76.687702	-173.077670
43749	9.589422	-0.424268	-2.249904	0.010802	0.074433	0.045985	1.000000	-0.000007	0.000011	0.000022	-167.510422	-76.691525	-173.056607
43750	9.587560	-0.400594	-2.246677	0.000610	0.095909	0.042268	1.000000	0.000003	0.000036	0.000031	-167.502993	-76.693408	-173.062444
43751	9.598902	-0.427100	-2.226436	-0.011676	0.063539	0.050080	1.000000	-0.000016	0.000018	0.000023	-167.516837	-76.693308	-173.055781
43752	9.614102	-0.447186	-2.260391	0.022533	0.055542	0.073500	1.000000	0.000000	0.000023	0.000041	-167.506471	-76.693391	-173.064972
43753	9.587790	-0.402262	-2.245398	0.000272	0.093351	0.042293	1.000000	-0.000001	0.000018	0.000020	-167.521859	-76.694009	-173.053075
43754	9.567282	-0.429744	-2.238846	0.007841	0.065864	0.022230	1.000000	-0.000013	0.000010	0.000031	-167.519062	-76.692976	-173.056068
43755	9.587897	-0.403307	-2.244754	-0.000113	0.091902	0.042306	1.000000	-0.000002	0.000030	0.000033	-167.523987	-76.693623	-173.058703
43756	9.576741	-0.432794	-2.215399	-0.014704	0.055016	0.026318	1.000000	-0.000002	0.000030	0.000033	-167.516909	-76.694702	-173.064860
43757	9.569488	-0.400780	-2.288810	0.043755	0.109176	0.034167	1.000000	-0.000021	0.000011	0.000026	-167.531330	-76.693025	-173.055329
43758	9.590029	-0.429172	-2.246381	0.009243	0.067929	0.046034	1.000000	0.000010	0.000010	0.000033	-167.524979	-76.691920	-173.059331
43759	9.569524	-0.456918	-2.239723	0.016686	0.039830	0.025964	1.000000	-0.000008	0.000029	0.000042	-167.529575	-76.691509	-173.056102
43760	9.612669	-0.427706	-2.254555	0.010971	0.071370	0.069830	1.000000	-0.000002	0.000024	0.000027	-167.526284	-76.692083	-173.058322
43761	9.569673	-0.458141	-2.238835	0.016451	0.038388	0.025970	1.000000	0.000001	0.000017	0.000035	-167.531898	-76.692124	-173.063161
43762	9.603477	-0.427130	-2.276417	0.032900	0.079321	0.065769	1.000000	-0.000005	0.000010	0.000037	-167.525666	-76.690900	-173.068744
43763	9.597684	-0.410123	-2.219206	-0.024091	0.076420	0.046430	1.000000	-0.000002	0.000030	0.000033	-167.531673	-76.690152	-173.064637
43764	9.590401	-0.433110	-2.244038	0.007876	0.063367	0.046065	1.000000	0.000001	0.000017	0.000035	-167.525181	-76.689731	-173.069842
43765	9.588544	-0.409445	-2.240876	-0.002158	0.084255	0.042374	1.000000	-0.000010	0.000024	0.000021	-167.540638	-76.690962	-173.056143
43766	9.588650	-0.410077	-2.240307	-0.002348	0.083765	0.042378	1.000000	0.000005	0.000035	0.000046	-167.526417	-76.692350	-173.068753
43767	9.613140	-0.431944	-2.251739	0.009599	0.065792	0.069870	1.000000	-0.000015	0.000006	0.000010	-167.547635	-76.690367	-173.050806
43768	9.566270	-0.413732	-2.230597	-0.005056	0.077230	0.018603	1.000000	-0.000002	0.000024	0.000027	-167.544435	-76.690940	-173.052964
43769	9.611365	-0.408651	-2.248175	-0.001113	0.086216	0.066189	1.000000	-0.000002	0.000030	0.000033	-167.550402	-76.689666	-173.051604
43770	9.588949	-0.412188	-2.238637	-0.003537	0.080709	0.042404	1.000000	-0.000014	0.000022	0.000045	-167.540316	-76.689624	-173.062261
43771	9.613422	-0.434277	-2.250086	0.008720	0.062721	0.069891	1.000000	0.000001	0.000017	0.000035	-167.548138	-76.690078	-173.054810
43772	9.589080	-0.413568	-2.237824	-0.003700	0.079182	0.042416	1.000000	-0.000002	0.000030	0.000033	-167.541247	-76.691149	-173.060830
43773	9.600325	-0.440256	-2.217722	-0.016172	0.046731	0.050168	1.000000	-0.000019	0.000010	0.000040	-167.549559	-76.688687	-173.057478
43774	9.591100	-0.438930	-2.239917	0.005799	0.055642	0.046113	1.000000	-0.000010	0.000024	0.000021	-167.549955	-76.689443	-173.056934
43775	9.580014	-0.413396	-2.259137	0.017363	0.085902	0.038383	1.000000	-0.000002	0.000030	0.000033	-167.557441	-76.687744	-173.046249
43776	9.602609	-0.411221	-2.267672	0.019398	0.090410	0.062179	1.000000	-0.000008	0.000023	0.000036	-167.550883	-76.688002	-173.052582
43777	9.589449	-0.416537	-2.235689	-0.004727	0.074947	0.042449	1.000000	-0.000008	0.000023	0.000036	-167.559639	-76.690463	-173.049005
43778	9.591431	-0.441368	-2.238021	0.005083	0.052484	0.046131	1.000000	0.000006	0.000023	0.000032	-167.553034	-76.690844	-173.053707
43779	9.589577	-0.417710	-2.234922	-0.005520	0.073351	0.042460	1.000000	-0.000021	0.000011	0.000026	-167.567903	-76.687189	-173.040275
43780	9.582250	-0.440568	-2.259954	0.026450	0.060300	0.042091	1.000000	0.000001	0.000017	0.000035	-167.561605	-76.686758	-173.045315
43781	9.602923	-0.414093	-2.265822	0.018652	0.086108	0.062219	1.000000	-0.000010	0.000024	0.000021	-167.579024	-76.688039	-173.027955
43782	9.593720	-0.412616	-2.287999	0.040619	0.095024	0.058178	1.000000	-0.000007	0.000011	0.000022	-167.580018	-76.687296	-173.026420
43783	9.580538	-0.417938	-2.256078	0.015810	0.079586	0.038438	1.000000	-0.000000	0.000029	0.000048	-167.578936	-76.686117	-173.029326
43784	9.603133	-0.415846	-2.264607	0.017840	0.084074	0.062238	1.000000	-0.000002	0.000024	0.000027	-167.575934	-76.686678	-173.031307
43785	9.591874	-0.445123	-2.235377	0.003796	0.046476	0.046162	1.000000	0.000004	0.000025	0.000018	-167.596335	-76.690108	-173.000819
43786	9.580800	-0.419588	-2.254657	0.015755	0.077361	0.038456	1.000000	-0.000008	0.000023	0.000036	-167.589914	-76.690371	-173.007011
43787	9.590137	-0.422026	-2.231707	-0.006392	0.066846	0.042506	1.000000	-0.000016	0.000024	0.000030	-167.602514	-76.691568	-172.994744
43788	9.605377	-0.442117	-2.265511	0.027806	0.058783	0.065929	1.000000	0.000012	0.000030	0.000030	-167.595765	-76.692755	-172.998935
43789	9.581035	-0.421392	-2.253321	0.014435	0.074744	0.038478	1.000000	-0.000005	0.000010	0.000037	-167.599990	-76.685624	-173.000106
43790	9.571802	-0.420070	-2.275638	0.036401	0.083665	0.034447	1.000000	-0.000007	0.000011	0.000022	-167.601085	-76.684873	-172.998471
43791	9.579241	-0.398193	-2.249956	0.003310	0.095139	0.034833	1.000000	-0.000011	0.000030	0.000028	-167.609882	-76.681474	-172.991439
43792	9.590467	-0.424744	-2.229772	-0.009032	0.063244	0.042528	1.000000	-0.000007	0.000017	0.000029	-167.607261	-76.681216	-172.993680
43793	9.611132	-0.398302	-2.235750	-0.017497	0.089027	0.062678	1.000000	0.000001	0.000011	0.000028	-167.619622	-76.677130	-172.972836
43794	9.590537	-0.425881	-2.229253	-0.009891	0.061587	0.042537	1.000000	-0.000013	0.000016	0.000038	-167.613575	-76.676564	-172.979300
43795	9.581318	-0.424619	-2.251514	0.011790	0.070044	0.038517	1.000000	0.000001	0.000011	0.000028	-167.622040	-76.673608	-172.976844
43796	9.581360	-0.425079	-2.251248	0.011595	0.069538	0.038520	1.000000	-0.000016	0.000018	0.000023	-167.622988	-76.673528	-172.976400
43797	9.581447	-0.425720	-2.250755	0.010997	0.068478	0.038528	1.000000	-0.000009	0.000035	0.000049	-167.621831	-76.672007	-172.983192
43798	9.590740	-0.428257	-2.227926	-0.011357	0.058542	0.042554	1.000000	-0.000004	-0.000002	0.000023	-167.623494	-76.669735	-172.980607
43799	9.604029	-0.424143	-2.259262	0.012625	0.071919	0.062342	1.000000	-0.000008	0.000023	0.000036	-167.629265	-76.668485	-172.980210
43800	9.602236	-0.400467	-2.256034	0.002417	0.093378	0.058699	1.000000	-0.000010	0.000024	0.000021	-167.629973	-76.669202	-172.979372
43801	9.590913	-0.429748	-2.226891	-0.011960	0.055978	0.042569	1.000000	-0.000007	0.000017	0.000029	-167.641431	-76.669525	-172.972081
43802	9.615357	-0.451673	-2.238364	0.000062	0.038456	0.070019	1.000000	-0.000007	0.000017	0.000029	-167.638918	-76.669251	-172.974234
43803	9.589151	-0.406541	-2.223447	-0.023201	0.076455	0.038933	1.000000	0.000013	0.000018	0.000017	-167.649032	-76.664162	-172.966856
43804	9.611701	-0.404159	-2.232250	-0.021195	0.080896	0.062741	1.000000	-0.000027	0.000004	0.000028	-167.650619	-76.662455	-172.967091
43805	9.570739	-0.403577	-2.268017	0.021076	0.093759	0.030919	1.000000	-0.000010	0.000024	0.000021	-167.665946	-76.664806	-172.956701
43806	9.581965	-0.430124	-2.247709	0.008729	0.061850	0.038575	1.000000	-0.000011	0.000036	0.000035	-167.659256	-76.666525	-172.963592
43807	9.604594	-0.427908	-2.256148	0.010813	0.065814	0.062387	1.000000	-0.000002	0.000024	0.000027	-167.668482	-76.667104	-172.962077
43808	9.612065	-0.406101	-2.230330	-0.021552	0.077842	0.062765	1.000000	-0.000011	0.000030	0.000028	-167.665541	-76.668320	-172.965072
43809	9.604802	-0.428968	-2.255062	0.010599	0.064242	0.062398	1.000000	-0.000002	0.000030	0.000034	-167.673334	-76.669997	-172.958364
43810	9.580524	-0.408119	-2.242702	-0.001809	0.080760	0.034962	1.000000	-0.000011	0.000030	0.000028	-167.670416	-76.671215	-172.961339
43811	9.603115	-0.405862	-2.251325	0.000053	0.084647	0.058778	1.000000	-0.000013	0.000010	0.000031	-167.681314	-76.668920	-172.951332
43812	9.548876	-0.409983	-2.255574	0.017611	0.083696	0.007161	1.000000	-0.000001	0.000018	0.000020	-167.682355	-76.668940	-172.949157
43813	9.603248	-0.406966	-2.250555	-0.000314	0.083053	0.058792	1.000000	-0.000009	0.000035	0.000049	-167.683023	-76.669944	-172.947625
43814	9.590030	-0.412269	-2.218593	-0.024870	0.068169	0.038989	1.000000	-0.000007	0.000011	0.000022	-167.684367	-76.669160	-172.945793
43815	9.573478	-0.433208	-2.266101	0.028787	0.063978	0.034619	1.000000	-0.000008	0.000023	0.000036	-167.691418	-76.666244	-172.935987
43816	9.603457	-0.408722	-2.249347	-0.001384	0.080922	0.058809	1.000000	-0.000002	0.000024	0.000027	-167.688773	-76.666762	-172.937652
43817	9.582865	-0.436249	-2.242686	0.006178	0.052942	0.038628	1.000000	-0.000008	0.000023	0.000036	-167.696742	-76.666254	-172.928262
43818	9.590317	-0.414530	-2.216931	-0.026192	0.064953	0.039008	1.000000	-0.000002	0.000024	0.000027	-167.694121	-76.666771	-172.929903
43819	9.581155	-0.413230	-2.239067	-0.003884	0.073340	0.035019	1.000000	0.000001	0.000017	0.000035	-167.702861	-76.667915	-172.922390
43820	9.603736	-0.410993	-2.247740	-0.001886	0.077744	0.058835	1.000000	-0.000016	0.000018	0.000023	-167.704071	-76.667819	-172.921730
43821	9.581254	-0.414142	-2.238478	-0.004099	0.071763	0.035031	1.000000	-0.000007	0.000011	0.000022	-167.719679	-76.667689	-172.905371
43822	9.605707	-0.436218	-2.249812	0.007917	0.054194	0.062460	1.000000	0.000006	0.000035	0.000046	-167.706113	-76.669033	-172.917395
43823	9.603919	-0.412695	-2.246646	-0.002504	0.075087	0.058855	1.000000	-0.000012	0.000004	0.000025	-167.721122	-76.665852	-172.903432
43824	9.581416	-0.415920	-2.237455	-0.004895	0.069653	0.035045	1.000000	-0.000007	0.000017	0.000029	-167.718849	-76.665567	-172.905376
43825	9.594756	-0.411878	-2.268726	0.018759	0.082939	0.054880	1.000000	-0.000019	0.000010	0.000040	-167.725826	-76.660935	-172.897037
43826	9.604014	-0.414305	-2.245942	-0.003594	0.072968	0.058871	1.000000	-0.000001	0.000018	0.000020	-167.727025	-76.660944	-172.894704
43827	9.581555	-0.417501	-2.236561	-0.005825	0.067111	0.035063	1.000000	-0.000016	0.000024	0.000030	-167.735754	-76.661879	-172.897386
43828	9.590875	-0.419823	-2.213519	-0.028179	0.057141	0.039051	1.000000	-0.000005	0.000031	0.000019	-167.736490	-76.663386	-172.895918
43829	9.604296	-0.415531	-2.244509	-0.003848	0.070448	0.058889	1.000000	-0.000010	0.000024	0.000021	-167.751267	-76.664757	-172.882911
43830	9.604326	-0.415929	-2.244308	-0.004046	0.069926	0.058893	1.000000	-0.000018	-0.000002	0.000027	-167.753337	-76.662355	-172.881663
43831	9.581821	-0.419355	-2.235076	-0.006391	0.064069	0.035083	1.000000	0.000000	0.000029	0.000048	-167.751103	-76.662761	-172.893281
43832	9.583752	-0.444317	-2.237306	0.003429	0.041576	0.038684	1.000000	-0.000002	0.000030	0.000034	-167.744898	-76.663783	-172.898693
43833	9.602701	-0.393710	-2.240263	-0.014081	0.089415	0.055314	1.000000	-0.000016	0.000018	0.000024	-167.759895	-76.666353	-172.891550
43834	9.606449	-0.442587	-2.245395	0.005753	0.044946	0.062508	1.000000	-0.000002	0.000030	0.000034	-167.753710	-76.667381	-172.896950
43835	9.580326	-0.397611	-2.230387	-0.016900	0.082942	0.031509	1.000000	0.000001	0.000017	0.000035	-167.760601	-76.665174	-172.889305
43836	9.604745	-0.419580	-2.241834	-0.004892	0.065337	0.058924	1.000000	-0.000016	0.000018	0.000024	-167.761975	-76.665076	-172.888517
43837	9.582238	-0.422997	-2.232600	-0.007889	0.059456	0.035110	1.000000	0.000012	0.000009	0.000048	-167.759285	-76.659518	-172.894560
43838	9.563892	-0.419983	-2.277218	0.036228	0.077833	0.027168	1.000000	0.000003	0.000037	0.000031	-167.752859	-76.661339	-172.899562
43839	9.597561	-0.443834	-2.265941	0.025832	0.050272	0.058557	1.000000	-0.000016	0.000018	0.000024	-167.765914	-76.659455	-172.891749
43840	9.573267	-0.422899	-2.253785	0.013433	0.066837	0.031152	1.000000	0.000006	0.000023	0.000032	-167.759985	-76.659776	-172.895869
43841	9.594052	-0.396495	-2.259581	0.005718	0.092669	0.051396	1.000000	-0.000016	0.000018	0.000024	-167.774881	-76.661096	-172.886030
43842	9.595931	-0.421133	-2.262047	0.015534	0.070168	0.054984	1.000000	-0.000007	0.000017	0.000029	-167.772780	-76.660804	-172.887854
43843	9.573461	-0.424380	-2.252683	0.012966	0.064238	0.031170	1.000000	-0.000002	0.000024	0.000027	-167.782940	-76.659849	-172.879310
43844	9.596067	-0.422237	-2.261267	0.014950	0.068589	0.054996	1.000000	0.000001	0.000017	0.000035	-167.777330	-76.659366	-172.883764
43845	9.564393	-0.423572	-2.274447	0.034560	0.072097	0.027218	1.000000	-0.000024	0.000024	0.000025	-167.791711	-76.658606	-172.869202
43846	9.582904	-0.427882	-2.228808	-0.009953	0.052660	0.035147	1.000000	0.000003	0.000037	0.000031	-167.785367	-76.660423	-172.874129
43847	9.592195	-0.430363	-2.205761	-0.032181	0.042188	0.039114	1.000000	-0.000007	0.000017	0.000029	-167.795946	-76.660495	-172.867176
43848	9.596433	-0.424457	-2.259295	0.014115	0.065440	0.055019	1.000000	-0.000003	0.000036	0.000040	-167.786166	-76.662015	-172.876347
43849	9.594712	-0.400914	-2.255998	0.003758	0.086407	0.051453	1.000000	-0.000007	0.000017	0.000029	-167.795666	-76.660524	-172.871481
43850	9.574045	-0.428411	-2.249435	0.011396	0.059036	0.031205	1.000000	0.000007	0.000023	0.000032	-167.789837	-76.660842	-172.875516
43851	9.589292	-0.448675	-2.283226	0.045676	0.050300	0.054650	1.000000	-0.000008	0.000029	0.000043	-167.794660	-76.661894	-172.867846
43852	9.574240	-0.429685	-2.248362	0.011124	0.057423	0.031215	1.000000	-0.000005	0.000031	0.000019	-167.795637	-76.663393	-172.866182
43853	9.619440	-0.424602	-2.265762	0.015003	0.066122	0.078874	1.000000	-0.000010	0.000024	0.000021	-167.808316	-76.662139	-172.853862
43854	9.581783	-0.408293	-2.222185	-0.021726	0.068386	0.031611	1.000000	-0.000005	0.000010	0.000037	-167.803079	-76.660847	-172.858599
43855	9.596976	-0.428523	-2.256221	0.012561	0.059728	0.055057	1.000000	0.000001	0.000017	0.000035	-167.809723	-76.660753	-172.856871
43856	9.595239	-0.404925	-2.253039	0.002341	0.081172	0.051498	1.000000	-0.000002	0.000024	0.000027	-167.807483	-76.661258	-172.858201
43857	9.561169	-0.436991	-2.215110	-0.014263	-0.026327	0.011402	1.000000	-0.000004	0.000004	0.000030	-169.455865	-76.607298	-171.471988
43858	9.617862	-0.403353	-2.261476	0.004368	0.018506	0.075683	1.000000	-0.000008	0.000023	0.000036	-169.453456	-76.607429	-171.474685
43859	9.574619	-0.433623	-2.245990	0.009722	-0.013557	0.031374	1.000000	-0.000028	0.000016	0.000041	-169.451259	-76.606675	-171.482058
43860	9.586262	-0.405455	-2.274255	0.023967	0.021907	0.047942	1.000000	0.000012	0.000030	0.000030	-169.448597	-76.607706	-171.482673
43861	9.574760	-0.434789	-2.245164	0.009322	-0.014877	0.031373	1.000000	-0.000021	0.000011	0.000026	-169.453527	-76.606684	-171.481657
43862	9.597362	-0.432606	-2.253796	0.011311	-0.010861	0.055234	1.000000	0.000007	0.000023	0.000032	-169.451045	-76.606915	-171.482742
43863	9.582281	-0.413557	-2.219058	-0.023201	-0.003562	0.031845	1.000000	-0.000024	0.000024	0.000025	-169.455639	-76.607444	-171.486530
43864	9.588325	-0.431569	-2.275562	0.033109	-0.002776	0.051354	1.000000	-0.000007	0.000011	0.000022	-169.460535	-76.606512	-171.481613
43865	9.580599	-0.390348	-2.215615	-0.033544	0.017154	0.028440	1.000000	0.000001	0.000023	0.000041	-169.454555	-76.606454	-171.487026
43866	9.595827	-0.410494	-2.249522	0.000573	0.008532	0.051829	1.000000	-0.000016	0.000018	0.000024	-169.459338	-76.606225	-171.483254
43867	9.620238	-0.432425	-2.260885	0.012536	-0.009502	0.079094	1.000000	-0.000016	0.000024	0.000030	-169.460590	-76.606763	-171.497256
43868	9.575171	-0.438288	-2.242728	0.007957	-0.019500	0.031366	1.000000	-0.000012	0.000005	0.000025	-169.465666	-76.605030	-171.492809
43869	9.573424	-0.414634	-2.239666	-0.002184	0.001881	0.027966	1.000000	0.000007	0.000023	0.000032	-169.463151	-76.605224	-171.493219
43870	9.605220	-0.414662	-2.225636	-0.022392	-0.003523	0.055703	1.000000	-0.000005	0.000022	0.000050	-169.453719	-76.604917	-171.502864
43871	9.614478	-0.417311	-2.202588	-0.044836	-0.013599	0.059573	1.000000	0.000004	0.000031	0.000025	-169.454299	-76.605828	-171.488619
43872	9.575458	-0.440829	-2.241003	0.007102	-0.022137	0.031361	1.000000	-0.000002	0.000024	0.000027	-169.455353	-76.606230	-171.487045
43873	9.573742	-0.417228	-2.237825	-0.003051	-0.000754	0.027966	1.000000	-0.000013	0.000016	0.000038	-169.452961	-76.605499	-171.490083
43874	9.620675	-0.436702	-2.258205	0.011056	-0.014137	0.079090	1.000000	-0.000013	0.000016	0.000038	-169.450725	-76.604832	-171.493257
43875	9.596408	-0.415722	-2.246082	-0.001233	0.002586	0.051832	1.000000	-0.000010	0.000024	0.000021	-169.455326	-76.605620	-171.503812
43876	9.605612	-0.418193	-2.223279	-0.023628	-0.007487	0.055698	1.000000	-0.000010	0.000003	0.000039	-169.453385	-76.603450	-171.506310
43877	9.596484	-0.416791	-2.245558	-0.001630	0.001267	0.051832	1.000000	0.000004	0.000025	0.000018	-169.457801	-76.604160	-171.505990
43878	9.574012	-0.419985	-2.236153	-0.004015	-0.004046	0.027965	1.000000	0.000007	0.000023	0.000032	-169.455308	-76.604391	-171.507084
43879	9.605801	-0.419826	-2.222157	-0.024240	-0.009464	0.055695	1.000000	-0.000007	0.000017	0.000029	-169.456364	-76.603926	-171.505732
43880	9.574117	-0.421034	-2.235506	-0.004429	-0.005363	0.027964	1.000000	-0.000021	0.000011	0.000026	-169.461322	-76.602897	-171.502433
43881	9.594944	-0.394696	-2.241395	-0.012347	0.020668	0.048449	1.000000	-0.000013	0.000016	0.000038	-169.459204	-76.602442	-171.517438
43882	9.596756	-0.419555	-2.243881	-0.002615	-0.002038	0.051832	1.000000	0.000001	0.000017	0.000035	-169.456892	-76.601873	-171.519002
43883	9.587661	-0.418202	-2.266038	0.019355	0.006714	0.047974	1.000000	-0.000002	0.000024	0.000027	-169.457796	-76.602148	-171.512698
43884	9.628615	-0.419852	-2.229488	-0.023055	-0.008132	0.079558	1.000000	-0.000016	0.000018	0.000024	-169.462569	-76.601921	-171.508934
43885	9.596930	-0.421123	-2.242842	-0.003231	-0.004022	0.051831	1.000000	-0.000005	0.000010	0.000037	-169.460456	-76.600623	-171.515780
43886	9.587793	-0.419721	-2.265199	0.018762	0.004729	0.047976	1.000000	-0.000021	0.000011	0.000026	-169.465412	-76.599595	-171.512484
43887	9.606158	-0.424210	-2.219780	-0.025825	-0.014755	0.055684	1.000000	0.000015	0.000023	0.000038	-169.459287	-76.599682	-171.519995
43888	9.598846	-0.447170	-2.244617	0.006103	-0.028048	0.055204	1.000000	-0.000002	0.000030	0.000034	-169.456674	-76.600617	-171.522240
43889	9.597194	-0.423616	-2.241244	-0.004065	-0.006667	0.051830	1.000000	-0.000002	0.000030	0.000034	-169.453944	-76.601369	-171.515321
43890	9.597289	-0.424189	-2.240729	-0.004266	-0.007330	0.051829	1.000000	-0.000002	0.000024	0.000027	-169.454986	-76.601772	-171.513757
43891	9.574788	-0.427448	-2.231411	-0.006631	-0.012618	0.027956	1.000000	0.000001	0.000017	0.000035	-169.452620	-76.601284	-171.522005
43892	9.597429	-0.425431	-2.239892	-0.004657	-0.008650	0.051828	1.000000	-0.000002	0.000030	0.000034	-169.450003	-76.602219	-171.524253
43893	9.588377	-0.423982	-2.261927	0.017335	0.000108	0.047980	1.000000	-0.000010	0.000024	0.000021	-169.454539	-76.602800	-171.521905
43894	9.597639	-0.426423	-2.238802	-0.005060	-0.009972	0.051826	1.000000	-0.000011	0.000036	0.000035	-169.451806	-76.604439	-171.525300
43895	9.588574	-0.424980	-2.260905	0.016932	-0.001211	0.047980	1.000000	-0.000007	0.000011	0.000022	-169.456568	-76.603514	-171.523349
43896	9.611201	-0.422770	-2.269494	0.018903	0.002751	0.071854	1.000000	-0.000002	0.000024	0.000027	-169.457606	-76.603917	-171.521788
43897	9.588670	-0.425967	-2.260314	0.016559	-0.002534	0.047981	1.000000	-0.000018	0.000004	0.000034	-169.459258	-76.602105	-171.532193
43898	9.597822	-0.428473	-2.237629	-0.005837	-0.012613	0.051823	1.000000	0.000001	0.000011	0.000028	-169.460594	-76.601004	-171.529955
43899	9.605268	-0.406908	-2.211951	-0.038159	-0.000647	0.052303	1.000000	0.000001	0.000023	0.000041	-169.454669	-76.601029	-171.538420
43900	9.611380	-0.425246	-2.268275	0.018136	0.000096	0.071856	1.000000	-0.000002	0.000030	0.000034	-169.452045	-76.601965	-171.540673
43901	9.588916	-0.428260	-2.258838	0.015744	-0.005176	0.047981	1.000000	-0.000027	0.000025	0.000010	-169.463518	-76.602778	-171.528068
43902	9.598169	-0.430708	-2.235710	-0.006652	-0.015258	0.051819	1.000000	0.000006	0.000035	0.000046	-169.453688	-76.604075	-171.536803
43903	9.598247	-0.431289	-2.235262	-0.006929	-0.015924	0.051817	1.000000	-0.000015	0.000012	0.000017	-169.461829	-76.602847	-171.505202
43904	9.605734	-0.409496	-2.209452	-0.039268	-0.003977	0.052297	1.000000	-0.000011	0.000036	0.000035	-169.459088	-76.604487	-171.508603
43905	9.564980	-0.408802	-2.245141	0.002735	0.009620	0.020751	1.000000	-0.000007	0.000017	0.000029	-169.460176	-76.604051	-171.507883
43906	9.598492	-0.432817	-2.233914	-0.007540	-0.017907	0.051814	1.000000	-0.000002	0.000024	0.000027	-169.461208	-76.604454	-171.506326
43907	9.587709	-0.407174	-2.253206	0.004496	0.012912	0.044630	1.000000	-0.000002	0.000024	0.000027	-169.462063	-76.604854	-171.507350
43908	9.566983	-0.434713	-2.246473	0.012080	-0.014396	0.024102	1.000000	-0.000003	0.000042	0.000047	-169.452109	-76.606856	-171.517238
43909	9.610462	-0.405888	-2.261114	0.006233	0.016196	0.068510	1.000000	-0.000018	-0.000002	0.000027	-169.457210	-76.604204	-171.508606
43910	9.597071	-0.411025	-2.229323	-0.018321	0.001493	0.048461	1.000000	0.000003	0.000037	0.000031	-169.454390	-76.605940	-171.510401
43911	9.598907	-0.435780	-2.231556	-0.008577	-0.021209	0.051806	1.000000	-0.000016	0.000024	0.000030	-169.455412	-76.606200	-171.509317
43912	9.552088	-0.417466	-2.210557	-0.023056	-0.009029	0.000702	1.000000	0.000001	0.000017	0.000035	-169.453081	-76.605632	-171.510899
43913	9.601636	-0.406121	-2.281998	0.027604	0.022991	0.064689	1.000000	-0.000010	0.000024	0.000021	-169.457493	-76.606223	-171.510852
43914	9.588265	-0.411311	-2.250087	0.003053	0.008292	0.044636	1.000000	0.000001	0.000023	0.000041	-169.451497	-76.606188	-171.516250
43915	9.588347	-0.411892	-2.249630	0.002793	0.007636	0.044636	1.000000	0.000004	0.000025	0.000018	-169.455665	-76.606536	-171.496184
43916	9.597539	-0.414379	-2.226688	-0.019594	-0.002473	0.048459	1.000000	-0.000028	0.000016	0.000041	-169.453474	-76.605778	-171.500990
43917	9.590222	-0.437245	-2.251558	0.012377	-0.015722	0.047975	1.000000	0.000003	0.000037	0.000031	-169.450614	-76.607692	-171.514143
43918	9.590267	-0.437915	-2.251235	0.012176	-0.016384	0.047974	1.000000	-0.000001	-0.000003	0.000038	-169.448771	-76.604820	-171.515510
43919	9.586852	-0.390220	-2.245423	-0.007953	0.027041	0.041303	1.000000	0.000007	0.000023	0.000033	-169.446043	-76.604988	-171.516242
43920	9.581257	-0.437203	-2.273084	0.033947	-0.008254	0.044154	1.000000	-0.000010	0.000030	0.000028	-169.446949	-76.606097	-171.515841
43921	9.581341	-0.437711	-2.272635	0.033715	-0.008905	0.044155	1.000000	-0.000007	0.000017	0.000029	-169.447884	-76.605521	-171.508375
43922	9.590527	-0.440202	-2.249683	0.011329	-0.019017	0.047970	1.000000	-0.000002	0.000024	0.000027	-169.448905	-76.605925	-171.506828
43923	9.587176	-0.392336	-2.243668	-0.008805	0.024405	0.041309	1.000000	0.000007	0.000017	0.000026	-169.449860	-76.605584	-171.504440
43924	9.581539	-0.439199	-2.271512	0.033103	-0.010881	0.044155	1.000000	-0.000016	0.000018	0.000024	-169.454616	-76.605362	-171.500689
43925	9.589014	-0.417499	-2.245751	0.000764	0.001047	0.044640	1.000000	0.000007	0.000023	0.000033	-169.452010	-76.605658	-171.507412
43926	9.580010	-0.416159	-2.267734	0.022748	0.009838	0.040829	1.000000	0.000003	0.000037	0.000031	-169.449175	-76.607396	-171.509220
43927	9.598317	-0.420621	-2.222157	-0.021788	-0.009719	0.048450	1.000000	-0.000021	0.000011	0.000026	-169.454126	-76.606598	-171.519791
43928	9.589243	-0.419179	-2.244463	0.000198	-0.000933	0.044640	1.000000	0.000001	0.000017	0.000035	-169.451783	-76.606032	-171.521382
43929	9.580189	-0.417935	-2.266647	0.022169	0.007864	0.040832	1.000000	0.000001	0.000023	0.000041	-169.445506	-76.605928	-171.527421
43930	9.596738	-0.398379	-2.218454	-0.032364	0.010344	0.045125	1.000000	-0.000004	0.000004	0.000030	-169.447018	-76.604029	-171.525658
43931	9.598466	-0.423043	-2.221053	-0.022613	-0.012360	0.048445	1.000000	-0.000001	0.000018	0.000020	-169.451654	-76.603867	-171.519546
43932	9.589464	-0.421700	-2.243046	-0.000628	-0.003570	0.044639	1.000000	-0.000003	0.000042	0.000047	-169.441672	-76.605872	-171.529457
43933	9.589583	-0.422328	-2.242415	-0.000776	-0.004227	0.044639	1.000000	-0.000010	0.000024	0.000021	-169.446334	-76.606770	-171.542857
43934	9.589638	-0.422854	-2.242082	-0.000978	-0.004889	0.044638	1.000000	0.000010	0.000010	0.000034	-169.444105	-76.605499	-171.543304
43935	9.580580	-0.421542	-2.264326	0.021006	0.003903	0.040837	1.000000	-0.000008	0.000023	0.000036	-169.441476	-76.605625	-171.548109
43936	9.591434	-0.448380	-2.244196	0.008570	-0.028251	0.047951	1.000000	-0.000013	0.000017	0.000038	-169.439201	-76.604966	-171.551314
43937	9.601585	-0.396071	-2.269712	0.012826	0.029187	0.061414	1.000000	0.000001	0.000017	0.000035	-169.436847	-76.604546	-171.562220
43938	9.580753	-0.423390	-2.263249	0.020426	0.001921	0.040838	1.000000	-0.000010	0.000024	0.000021	-169.441406	-76.605125	-171.558012
43939	9.589961	-0.425732	-2.240155	-0.001974	-0.008182	0.044636	1.000000	-0.000004	0.000031	0.000019	-169.445620	-76.606457	-171.552827
43940	9.621705	-0.425639	-2.226140	-0.022218	-0.013738	0.072321	1.000000	-0.000010	0.000003	0.000039	-169.443651	-76.604293	-171.555349
43941	9.567480	-0.429526	-2.230571	-0.004556	-0.014053	0.020745	1.000000	0.000004	0.000037	0.000031	-169.440521	-76.605847	-171.550439
43942	9.581061	-0.425442	-2.261560	0.019577	-0.000709	0.040840	1.000000	-0.000007	0.000011	0.000022	-169.445387	-76.604921	-171.545547
43943	9.603709	-0.423365	-2.270111	0.021545	0.003182	0.064731	1.000000	-0.000008	0.000023	0.000036	-169.442894	-76.605204	-171.556867
43944	9.590303	-0.428530	-2.238159	-0.002992	-0.011480	0.044633	1.000000	-0.000010	0.000030	0.000028	-169.443782	-76.606317	-171.556481
43945	9.590369	-0.429048	-2.237775	-0.003271	-0.012136	0.044632	1.000000	-0.000013	0.000011	0.000031	-169.444691	-76.604658	-171.534723
43946	9.590432	-0.429639	-2.237393	-0.003472	-0.012798	0.044631	1.000000	-0.000002	0.000030	0.000034	-169.442027	-76.605598	-171.537010
43947	9.602335	-0.401509	-2.265577	0.010679	0.022592	0.061434	1.000000	0.000001	0.000017	0.000035	-169.439584	-76.604989	-171.537061
43948	9.597966	-0.408763	-2.211241	-0.036033	-0.001541	0.045118	1.000000	0.000001	0.000017	0.000035	-169.437229	-76.604424	-171.538663
