// Start Time: Unknown
// Update Rate: 100.0Hz
// Filter Profile: human (46.1)
// Firmware Version: 4.4.0
PacketCounter	Acc_X	Acc_Y	Acc_Z	FreeAcc_X	FreeAcc_Y	FreeAcc_Z	OriInc_q0	OriInc_q1	OriInc_q2	OriInc_q3	Roll	Pitch	Yaw
15269	2.549609	-0.088217	12.792664	-0.000000	-0.000000	3.231872	1.000000	0.000108	0.000152	0.000246	-0.398466	-11.280020	-174.778599
15270	2.601305	0.010368	12.798233	0.000000	0.000000	3.247239	1.000000	0.000103	0.000138	0.000211	0.042969	-11.497057	-172.666875
15271	2.475493	-0.072625	12.807124	0.098013	0.043554	3.231248	1.000000	0.000079	0.000153	0.000236	-0.177396	-11.379705	-173.704700
15272	2.551046	-0.027314	12.987602	0.060920	-0.005412	3.422971	1.000000	0.000107	0.000131	0.000218	-0.170116	-11.364662	-173.679323
15273	2.428856	-0.134368	12.947702	0.156389	0.114463	3.360119	1.000000	0.000085	0.000158	0.000253	-0.165558	-11.346229	-173.650002
15274	2.449286	-0.117559	12.966974	0.137826	0.096501	3.383029	1.000000	0.000104	0.000154	0.000314	-0.160888	-11.328460	-173.613394
15275	2.234956	-0.113240	12.986657	0.346958	0.116656	3.360282	1.000000	0.000108	0.000131	0.000352	-0.156786	-11.312896	-173.572202
15276	2.273656	-0.140619	12.955907	0.296682	0.140030	3.337871	1.000000	0.000129	0.000118	0.000395	-0.151076	-11.299226	-173.526077
15277	2.228428	-0.105226	12.887204	0.327923	0.109357	3.261619	1.000000	0.000117	0.000089	0.000411	-0.147741	-11.286850	-173.477923
15278	2.272186	-0.011347	12.844744	0.285348	0.011387	3.228357	1.000000	0.000123	0.000072	0.000400	-0.142742	-11.278433	-173.431188
15279	2.262598	0.044060	12.841934	0.297576	-0.041682	3.223657	1.000000	0.000132	0.000068	0.000400	-0.137585	-11.266435	-173.384310
15280	2.354219	0.105877	12.892421	0.223310	-0.111360	3.290969	1.000000	0.000108	0.000073	0.000383	-0.133961	-11.257990	-173.339564
15281	2.421666	0.031979	12.959920	0.158500	-0.044043	3.370558	1.000000	0.000077	0.000099	0.000359	-0.133238	-11.240358	-173.297721
15282	2.299502	0.044302	12.884275	0.261759	-0.043462	3.272564	1.000000	0.000092	0.000089	0.000279	-0.129000	-11.230070	-173.265201
15283	2.277375	0.031770	12.890022	0.278463	-0.027704	3.274016	1.000000	0.000078	0.000106	0.000253	-0.124927	-11.209706	-173.235782
15284	2.204541	0.070541	12.951883	0.363147	-0.055959	3.320524	1.000000	0.000070	0.000101	0.000212	-0.121723	-11.198131	-173.211070
15285	2.154190	0.066619	12.987754	0.413433	-0.044967	3.346104	1.000000	0.000052	0.000089	0.000184	-0.118095	-11.176305	-173.189986
15286	2.076830	0.107934	12.925098	0.479582	-0.078137	3.269626	1.000000	0.000033	0.000065	0.000145	-0.117636	-11.168873	-173.173109
15287	2.049836	0.060886	12.934852	0.496908	-0.027798	3.274262	1.000000	0.000023	0.000037	0.000130	-0.114589	-11.147520	-173.158603
15288	2.105857	0.037724	12.975208	0.446604	-0.010946	3.324759	1.000000	-0.000012	0.000024	0.000115	-0.118536	-11.144776	-173.145137
15289	2.094680	0.001369	12.955673	0.443919	0.025835	3.303693	1.000000	-0.000003	-0.000013	0.000044	-0.115552	-11.122888	-173.140774
15290	2.049659	-0.054910	12.869886	0.465302	0.084600	3.210922	1.000000	-0.000041	-0.000033	0.000000	-0.120277	-11.126720	-173.140715
15291	2.078551	-0.096397	12.867509	0.426912	0.121694	3.214414	1.000000	-0.000044	-0.000099	-0.000054	-0.120026	-11.108932	-173.148049
15292	2.243066	-0.138481	12.911961	0.273263	0.144493	3.289744	1.000000	-0.000059	-0.000131	-0.000087	-0.124881	-11.123926	-173.158158
15293	2.425655	-0.225356	12.906439	0.079685	0.208236	3.319755	1.000000	-0.000065	-0.000161	-0.000114	-0.127110	-11.106247	-173.172505
15294	2.565761	-0.309450	12.859415	-0.071087	0.274013	3.300791	1.000000	-0.000062	-0.000185	-0.000155	-0.130716	-11.127507	-173.190555
15295	2.797069	-0.391293	12.817971	-0.316136	0.325940	3.304893	1.000000	-0.000062	-0.000164	-0.000126	-0.137095	-11.116130	-173.203217
15296	2.952703	-0.437088	12.814182	-0.469739	0.353077	3.331415	1.000000	-0.000044	-0.000141	-0.000112	-0.139647	-11.132342	-173.216200
15297	2.987502	-0.470732	12.734579	-0.523733	0.378333	3.260141	1.000000	-0.000037	-0.000083	-0.000106	-0.150359	-11.123580	-173.226201
15298	3.041490	-0.495379	12.750389	-0.574087	0.397347	3.286206	1.000000	0.000007	-0.000074	-0.000092	-0.147478	-11.132102	-173.236865
15299	3.020312	-0.446973	12.675511	-0.563410	0.347027	3.208557	1.000000	0.000014	-0.000038	-0.000059	-0.161305	-11.122574	-173.240124
15300	3.025000	-0.475463	12.727234	-0.560866	0.376927	3.260282	1.000000	0.000041	-0.000009	-0.000058	-0.155330	-11.123592	-173.246855
15301	3.075384	-0.410916	12.736160	-0.601658	0.303088	3.278636	1.000000	0.000066	0.000003	-0.000049	-0.171870	-11.116379	-173.248584
15302	3.033122	-0.379815	12.767626	-0.551472	0.279687	3.301199	1.000000	0.000075	0.000031	-0.000034	-0.162487	-11.112843	-173.252521
15303	2.965458	-0.364126	12.780797	-0.481047	0.267255	3.301140	1.000000	0.000096	0.000061	0.000011	-0.183633	-11.109063	-173.247285
15304	2.885593	-0.264610	12.739036	-0.401631	0.179214	3.244351	1.000000	0.000117	0.000070	0.000027	-0.170810	-11.100982	-173.244192
15305	2.754752	-0.259564	12.716360	-0.275394	0.184547	3.196999	1.000000	0.000113	0.000040	0.000079	-0.192033	-11.111467	-173.227987
15306	2.741595	-0.210493	12.790134	-0.243912	0.140876	3.266641	1.000000	0.000112	0.000029	0.000148	-0.182544	-11.107993	-173.210718
15307	2.783022	-0.123084	12.823921	-0.262818	0.046555	3.307605	1.000000	0.000127	-0.000014	0.000163	-0.198900	-11.129315	-173.185797
15308	2.913395	0.027658	12.783191	-0.379639	-0.116722	3.292306	1.000000	0.000130	-0.000028	0.000164	-0.187802	-11.132366	-173.166565
15309	3.023194	0.133087	12.775821	-0.469307	-0.239627	3.306053	1.000000	0.000111	-0.000014	0.000146	-0.214537	-11.155683	-173.143691
15310	3.072403	0.166266	12.812720	-0.506556	-0.275714	3.351677	1.000000	0.000098	0.000025	0.000094	-0.205477	-11.152697	-173.132679
15311	3.091074	0.181178	12.807584	-0.516656	-0.296887	3.350394	1.000000	0.000047	0.000053	0.000040	-0.229106	-11.180338	-173.117301
15312	2.997927	0.185244	12.701738	-0.447656	-0.291027	3.228438	1.000000	0.000060	0.000073	0.000006	-0.222456	-11.171914	-173.116543
15313	2.962895	0.193085	12.708526	-0.404674	-0.296862	3.228431	1.000000	0.000021	0.000067	-0.000015	-0.238488	-11.199987	-173.120197
15314	2.934250	0.114771	12.746736	-0.380703	-0.214845	3.260613	1.000000	0.000003	0.000081	-0.000033	-0.237609	-11.190618	-173.124000
15315	2.919914	0.047451	12.755878	-0.366658	-0.146803	3.267243	1.000000	-0.000010	0.000094	-0.000039	-0.245022	-11.217179	-173.134627
15316	2.878106	0.020553	12.767128	-0.329520	-0.115308	3.270187	1.000000	-0.000005	0.000103	-0.000041	-0.244900	-11.205367	-173.139300
15317	2.822495	0.013825	12.779430	-0.268055	-0.101646	3.271590	1.000000	-0.000019	0.000109	-0.000052	-0.247938	-11.230123	-173.150969
15318	2.714052	0.000233	12.803373	-0.162062	-0.075599	3.273964	1.000000	-0.000021	0.000097	-0.000063	-0.249254	-11.219039	-173.158256
15319	2.683050	0.008655	12.834098	-0.120635	-0.078413	3.298079	1.000000	-0.000048	0.000116	-0.000081	-0.246997	-11.237357	-173.168358
15320	2.677121	0.032691	12.883202	-0.104715	-0.101506	3.344959	1.000000	-0.000028	0.000060	-0.000096	-0.248345	-11.230520	-173.179451
15321	2.718259	0.034752	12.824319	-0.149386	-0.109628	3.295286	1.000000	-0.000052	0.000081	-0.000145	-0.253650	-11.257956	-173.198235
15322	2.649339	0.052450	12.736900	-0.099263	-0.121875	3.195989	1.000000	-0.000074	0.000087	-0.000193	-0.258067	-11.248128	-173.220695
15323	2.583333	0.008868	12.729456	-0.036607	-0.070178	3.176018	1.000000	-0.000094	0.000079	-0.000264	-0.257078	-11.270943	-173.248137
15324	2.551275	-0.046325	12.816106	0.003496	-0.011194	3.254967	1.000000	-0.000093	0.000053	-0.000329	-0.260556	-11.265197	-173.286513
15325	2.547153	-0.142129	12.900564	0.016057	0.086760	3.337406	1.000000	-0.000119	0.000035	-0.000344	-0.260114	-11.280540	-173.327748
15326	2.785623	-0.156210	12.852130	-0.227535	0.071397	3.336628	1.000000	-0.000106	0.000007	-0.000305	-0.265634	-11.280109	-173.363289
15327	2.743926	-0.242632	12.818370	-0.196660	0.159640	3.295876	1.000000	-0.000113	0.000029	-0.000313	-0.277854	-11.306935	-173.405888
15328	2.975860	-0.295432	12.874920	-0.418599	0.185316	3.397044	1.000000	-0.000134	0.000084	-0.000298	-0.286805	-11.297866	-173.440610
15329	2.742671	-0.333120	12.826438	-0.200613	0.247405	3.304068	1.000000	-0.000091	0.000076	-0.000276	-0.290418	-11.317372	-173.468434
15330	2.737630	-0.272873	12.746928	-0.206207	0.185533	3.224809	1.000000	-0.000107	0.000092	-0.000326	-0.295697	-11.307613	-173.506360
15331	2.614785	-0.294299	12.699090	-0.095111	0.216171	3.153994	1.000000	-0.000107	0.000103	-0.000339	-0.313202	-11.318425	-173.554192
15332	2.610712	-0.358322	12.755607	-0.089250	0.280083	3.208960	1.000000	-0.000097	0.000094	-0.000376	-0.316310	-11.308595	-173.597907
15333	2.628120	-0.350275	12.851334	-0.082241	0.267746	3.306308	1.000000	-0.000092	0.000103	-0.000377	-0.336203	-11.323922	-173.648174
15334	2.576775	-0.382139	12.814669	-0.045110	0.303685	3.260464	1.000000	-0.000080	0.000106	-0.000347	-0.338073	-11.312728	-173.688559
15335	2.509085	-0.488641	12.863090	0.022054	0.414934	3.295353	1.000000	-0.000060	0.000109	-0.000337	-0.350493	-11.324606	-173.727279
15336	2.442364	-0.563299	12.883451	0.080781	0.496375	3.302680	1.000000	-0.000041	0.000101	-0.000258	-0.350030	-11.314125	-173.757186
15337	2.316701	-0.527501	12.856077	0.208771	0.469488	3.251005	1.000000	0.000004	0.000079	-0.000235	-0.369708	-11.342956	-173.782866
15338	2.243907	-0.515790	12.845048	0.277722	0.466153	3.225794	1.000000	0.000012	0.000030	-0.000126	-0.366243	-11.340621	-173.797344
15339	2.280554	-0.399622	12.827293	0.256235	0.341657	3.214886	1.000000	0.000030	-0.000026	-0.000110	-0.389200	-11.364302	-173.811503
15340	2.403034	-0.345465	12.847566	0.148031	0.276570	3.258482	1.000000	0.000052	-0.000070	-0.000059	-0.382757	-11.373457	-173.817944
15341	2.545101	-0.309018	12.890424	0.025723	0.221596	3.328328	1.000000	0.000061	-0.000096	-0.000032	-0.403731	-11.389368	-173.829615
15342	2.696806	-0.289345	12.807680	-0.133319	0.186931	3.277020	1.000000	0.000081	-0.000130	-0.000018	-0.395050	-11.405432	-173.831238
15343	2.830175	-0.256813	12.802539	-0.255741	0.135812	3.298263	1.000000	0.000082	-0.000124	0.000042	-0.419209	-11.425002	-173.837741
15344	2.958275	-0.226390	12.773586	-0.380069	0.093806	3.295093	1.000000	0.000105	-0.000103	0.000069	-0.409988	-11.437955	-173.829094
15345	3.020219	-0.150991	12.729190	-0.432717	0.007239	3.263608	1.000000	0.000132	-0.000106	0.000055	-0.432302	-11.473114	-173.825262
15346	3.072828	-0.053470	12.709687	-0.475199	-0.093051	3.254325	1.000000	0.000107	-0.000070	0.000109	-0.423879	-11.482238	-173.811970
15347	3.100300	0.027770	12.671761	-0.494725	-0.180086	3.222226	1.000000	0.000115	-0.000049	0.000118	-0.438904	-11.506477	-173.800909
15348	3.088282	0.081720	12.644470	-0.481580	-0.230798	3.192758	1.000000	0.000116	-0.000032	0.000110	-0.429559	-11.511233	-173.787420
15349	3.122967	0.103955	12.710519	-0.494653	-0.257896	3.264386	1.000000	0.000096	0.000002	0.000096	-0.442913	-11.530737	-173.781148
15350	3.109863	0.152585	12.784050	-0.462181	-0.302263	3.333471	1.000000	0.000090	0.000019	0.000052	-0.435310	-11.529648	-173.774472
15351	3.081684	0.194929	12.786195	-0.426090	-0.343605	3.329684	1.000000	0.000099	0.000026	0.000039	-0.447083	-11.544484	-173.786279
15352	3.033347	0.223178	12.793770	-0.375581	-0.365237	3.327217	1.000000	0.000046	0.000069	0.000008	-0.443666	-11.537730	-173.784759
15353	3.056422	0.240002	12.812605	-0.389746	-0.387027	3.350157	1.000000	0.000032	0.000038	-0.000000	-0.459369	-11.550619	-173.806052
15354	2.987568	0.226721	12.753027	-0.337027	-0.367380	3.278077	1.000000	-0.000000	0.000058	-0.000030	-0.460524	-11.545039	-173.808918
15355	3.008704	0.184239	12.727569	-0.360050	-0.330497	3.257829	1.000000	-0.000024	0.000063	-0.000047	-0.478062	-11.575056	-173.819805
15356	2.963133	0.154119	12.714700	-0.322708	-0.297089	3.236263	1.000000	-0.000049	0.000062	-0.000070	-0.484066	-11.569186	-173.827222
15357	3.008722	0.126682	12.707787	-0.369001	-0.276141	3.238898	1.000000	-0.000061	0.000059	-0.000099	-0.493026	-11.579704	-173.857006
15358	3.028938	0.051663	12.710453	-0.397387	-0.205282	3.246129	1.000000	-0.000070	0.000075	-0.000112	-0.500517	-11.572436	-173.869353
15359	2.984550	-0.098656	12.733246	-0.359957	-0.052678	3.260968	1.000000	-0.000094	0.000090	-0.000087	-0.513370	-11.594375	-173.882828
15360	2.970675	-0.167804	12.742317	-0.353935	0.015367	3.267611	1.000000	-0.000075	0.000108	-0.000109	-0.521540	-11.583214	-173.894827
15361	2.931648	-0.284261	12.760854	-0.316852	0.132548	3.279172	1.000000	-0.000081	0.000088	-0.000094	-0.539161	-11.615607	-173.908109
15362	2.884608	-0.346942	12.776087	-0.276404	0.197760	3.285183	1.000000	-0.000073	0.000099	-0.000071	-0.548094	-11.605550	-173.915672
15363	2.855433	-0.453966	12.741637	-0.261999	0.305052	3.246685	1.000000	-0.000059	0.000092	-0.000060	-0.557529	-11.622419	-173.928386
15364	2.838393	-0.466273	12.771209	-0.242772	0.317910	3.272329	1.000000	-0.000025	0.000100	-0.000051	-0.561471	-11.612192	-173.933523
15365	2.788872	-0.439951	12.778967	-0.182145	0.293055	3.269908	1.000000	-0.000001	0.000084	-0.000020	-0.581926	-11.646249	-173.941576
15366	2.754273	-0.401829	12.757600	-0.150573	0.257864	3.241610	1.000000	0.000003	0.000077	-0.000014	-0.583671	-11.638702	-173.942319
15367	2.724925	-0.361400	12.759972	-0.111770	0.219688	3.237675	1.000000	0.000016	0.000054	0.000006	-0.590431	-11.663838	-173.941978
15368	2.743264	-0.347094	12.755014	-0.130059	0.203459	3.236376	1.000000	0.000032	0.000038	-0.000000	-0.589204	-11.660752	-173.941052
15369	2.747921	-0.312550	12.751026	-0.124095	0.167339	3.233156	1.000000	0.000021	0.000042	-0.000024	-0.598799	-11.693897	-173.941539
15370	2.787808	-0.225977	12.785169	-0.147468	0.077823	3.273782	1.000000	0.000041	0.000013	-0.000029	-0.595962	-11.693935	-173.943923
15371	2.864721	-0.201582	12.792419	-0.210423	0.042480	3.296361	1.000000	0.000035	0.000014	-0.000041	-0.614565	-11.726881	-173.957849
15372	2.921943	-0.191071	12.804932	-0.262731	0.026634	3.320127	1.000000	0.000022	0.000027	-0.000047	-0.613556	-11.725391	-173.962331
15373	2.935194	-0.210332	12.804090	-0.269844	0.044432	3.322362	1.000000	0.000016	0.000022	-0.000065	-0.617311	-11.760294	-173.959202
15374	3.001947	-0.190634	12.763791	-0.341452	0.017678	3.296297	1.000000	0.000012	0.000041	-0.000084	-0.616626	-11.757382	-173.968069
15375	2.995818	-0.192072	12.740274	-0.335662	0.017620	3.272167	1.000000	0.000004	0.000062	-0.000092	-0.628075	-11.776040	-173.984814
15376	2.994016	-0.191136	12.740712	-0.335205	0.017038	3.272180	1.000000	0.000018	0.000082	-0.000126	-0.625792	-11.768469	-173.998530
15377	2.953420	-0.185809	12.723658	-0.295016	0.014778	3.247230	1.000000	0.000017	0.000108	-0.000116	-0.632317	-11.782263	-174.014588
15378	2.863955	-0.185837	12.742012	-0.207091	0.024228	3.246875	1.000000	0.000005	0.000149	-0.000143	-0.631100	-11.767223	-174.030436
15379	2.750091	-0.175301	12.814309	-0.075874	0.024612	3.294330	1.000000	0.000007	0.000161	-0.000133	-0.639933	-11.785581	-174.041649
15380	2.688463	-0.183738	12.802704	-0.022724	0.039308	3.270461	1.000000	0.000030	0.000150	-0.000121	-0.636422	-11.770442	-174.054855
15381	2.604012	-0.149798	12.816800	0.066236	0.014279	3.266651	1.000000	0.000022	0.000150	-0.000102	-0.637153	-11.772323	-174.067335
15382	2.509829	-0.125228	12.883672	0.170759	0.000343	3.312660	1.000000	0.000041	0.000136	-0.000084	-0.633349	-11.758835	-174.076145
15383	2.440511	-0.079740	12.868543	0.243248	-0.038909	3.283158	1.000000	0.000025	0.000125	-0.000088	-0.639500	-11.774370	-174.083300
15384	2.396776	0.013364	12.843861	0.287719	-0.126930	3.249112	1.000000	0.000045	0.000096	-0.000092	-0.635075	-11.765573	-174.093054
15385	2.395278	0.041381	12.916687	0.312235	-0.155123	3.319652	1.000000	0.000034	0.000056	-0.000063	-0.643778	-11.790981	-174.097969
15386	2.422734	0.033883	12.886936	0.277998	-0.150491	3.296240	1.000000	0.000016	0.000033	-0.000078	-0.643143	-11.789597	-174.105909
15387	2.475811	0.073667	12.847668	0.226816	-0.196900	3.268117	1.000000	0.000010	0.000013	-0.000063	-0.650573	-11.810280	-174.112936
15388	2.503475	0.034056	12.845814	0.195954	-0.160476	3.272393	1.000000	0.000006	-0.000001	-0.000043	-0.652039	-11.812911	-174.116740
15389	2.542761	0.061926	12.835391	0.159937	-0.193219	3.269889	1.000000	0.000003	-0.000024	-0.000041	-0.657204	-11.821033	-174.129906
15390	2.604562	0.015653	12.827269	0.094719	-0.153978	3.275099	1.000000	-0.000015	-0.000021	-0.000046	-0.661117	-11.826097	-174.133947
15391	2.662806	0.024989	12.839685	0.044066	-0.169232	3.299067	1.000000	-0.000027	-0.000024	-0.000020	-0.664449	-11.837523	-174.136634
15392	2.720168	-0.023728	12.807638	-0.021582	-0.127554	3.280011	1.000000	0.000001	-0.000047	-0.000038	-0.666701	-11.845660	-174.139764
15393	2.791719	-0.066029	12.847134	-0.083329	-0.091922	3.333853	1.000000	-0.000038	-0.000011	-0.000002	-0.669769	-11.861248	-174.135406
15394	2.867128	-0.133096	12.838099	-0.164245	-0.034157	3.341277	1.000000	-0.000028	-0.000009	-0.000052	-0.675027	-11.865108	-174.140205
15395	2.895642	-0.142015	12.808146	-0.196301	-0.029504	3.317968	1.000000	-0.000029	0.000017	-0.000042	-0.681459	-11.875193	-174.145979
15396	2.904133	-0.164709	12.783498	-0.211773	-0.009201	3.295860	1.000000	-0.000028	0.000034	-0.000050	-0.686779	-11.874246	-174.150591
15397	2.912047	-0.187316	12.758982	-0.226618	0.011007	3.273766	1.000000	-0.000032	0.000064	-0.000083	-0.692622	-11.872671	-174.165509
15398	2.833170	-0.210884	12.752009	-0.154641	0.041339	3.250981	1.000000	-0.000007	0.000076	-0.000074	-0.694962	-11.866994	-174.172974
15399	2.822034	-0.188711	12.777236	-0.136329	0.020242	3.273116	1.000000	-0.000036	0.000082	-0.000103	-0.698100	-11.866858	-174.186501
15400	2.761190	-0.230110	12.793270	-0.079609	0.066660	3.276778	1.000000	-0.000010	0.000111	-0.000102	-0.700117	-11.857196	-174.197253
15401	2.743860	-0.241365	12.822848	-0.059100	0.080769	3.302282	1.000000	-0.000007	0.000098	-0.000101	-0.695201	-11.852550	-174.210448
15402	2.679221	-0.226437	12.859443	0.010934	0.071975	3.324644	1.000000	-0.000009	0.000107	-0.000083	-0.697534	-11.843455	-174.219010
15403	2.642261	-0.251639	12.894178	0.051231	0.100627	3.351352	1.000000	-0.000008	0.000113	-0.000078	-0.698990	-11.841421	-174.228490
15404	2.596636	-0.249470	12.853129	0.085435	0.102015	3.301807	1.000000	0.000005	0.000100	-0.000071	-0.700001	-11.833094	-174.235659
15405	2.575527	-0.231188	12.830709	0.104154	0.085428	3.275312	1.000000	0.000005	0.000090	-0.000058	-0.701785	-11.837793	-174.241038
15406	2.544813	-0.222366	12.861044	0.139819	0.079471	3.298610	1.000000	0.000002	0.000071	-0.000074	-0.703106	-11.832806	-174.248527
15407	2.538254	-0.224027	12.837565	0.141367	0.081842	3.274303	1.000000	0.000012	0.000073	-0.000069	-0.701355	-11.833481	-174.256823
15408	2.555225	-0.241104	12.860844	0.126919	0.097256	3.300781	1.000000	0.000021	0.000064	-0.000051	-0.701001	-11.829430	-174.261523
15409	2.545139	-0.213263	12.785369	0.122102	0.072307	3.224518	1.000000	0.000005	0.000047	-0.000060	-0.690076	-11.823239	-174.273677
15410	2.553504	-0.208127	12.833299	0.123886	0.066762	3.273086	1.000000	0.000027	0.000041	-0.000067	-0.688599	-11.821813	-174.280322
15411	2.533831	-0.189224	12.810579	0.139452	0.049258	3.246607	1.000000	0.000030	0.000038	-0.000079	-0.689704	-11.818436	-174.291690
15412	2.557267	-0.172085	12.829460	0.122089	0.030452	3.269684	1.000000	0.000024	0.000022	-0.000083	-0.688253	-11.819161	-174.300206
15413	2.586386	-0.121144	12.844081	0.101518	-0.023063	3.289360	1.000000	0.000029	0.000021	-0.000071	-0.688444	-11.818631	-174.310257
15414	2.628977	-0.121764	12.885804	0.068936	-0.025801	3.338924	1.000000	0.000026	0.000003	-0.000088	-0.686669	-11.821667	-174.319246
15415	2.682358	-0.081415	12.846614	0.012910	-0.072032	3.311024	1.000000	0.000025	0.000018	-0.000065	-0.689622	-11.821067	-174.327087
15416	2.719907	-0.084221	12.864554	-0.020165	-0.072325	3.336309	1.000000	0.000035	0.000030	-0.000073	-0.687241	-11.820966	-174.334338
15417	2.686590	-0.045517	12.842658	0.012164	-0.108325	3.307596	1.000000	0.000011	0.000019	-0.000058	-0.691368	-11.824273	-174.339916
15418	2.701586	-0.001488	12.785699	-0.009609	-0.153998	3.254404	1.000000	0.000025	0.000018	-0.000065	-0.690369	-11.825663	-174.346190
15419	2.682288	0.016992	12.762879	0.004827	-0.171004	3.227894	1.000000	0.000002	0.000028	-0.000076	-0.692216	-11.818722	-174.358162
15420	2.685620	-0.011947	12.814943	0.009609	-0.142391	3.279872	1.000000	0.000001	0.000022	-0.000082	-0.693588	-11.819611	-174.366423
15421	2.747097	-0.026195	12.779167	-0.059085	-0.134760	3.257610	1.000000	-0.000017	0.000032	-0.000081	-0.696183	-11.818581	-174.378192
15422	2.769738	-0.041530	12.826135	-0.072953	-0.121851	3.308393	1.000000	-0.000004	0.000030	-0.000088	-0.697901	-11.818612	-174.387226
15423	2.763314	-0.075130	12.830574	-0.068797	-0.088788	3.311815	1.000000	-0.000008	0.000048	-0.000053	-0.703330	-11.818049	-174.391307
15424	2.737369	-0.122936	12.840153	-0.046354	-0.039555	3.316445	1.000000	-0.000024	0.000037	-0.000057	-0.708121	-11.817260	-174.396668
15425	2.731602	-0.125081	12.816527	-0.045359	-0.038236	3.292164	1.000000	0.000005	0.000047	-0.000060	-0.711947	-11.818101	-174.400890
15426	2.705553	-0.172522	12.826125	-0.022911	0.010992	3.296798	1.000000	-0.000008	0.000048	-0.000053	-0.715104	-11.816101	-174.405793
15427	2.729338	-0.124742	12.817012	-0.044489	-0.039596	3.292163	1.000000	-0.000011	0.000036	-0.000064	-0.717739	-11.811841	-174.415146
15428	2.723716	-0.126774	12.793357	-0.044154	-0.037817	3.267882	1.000000	-0.000001	0.000037	-0.000059	-0.719897	-11.811061	-174.420689
15429	2.770144	-0.152721	12.786667	-0.094056	-0.016662	3.271148	1.000000	-0.000013	0.000045	-0.000046	-0.721351	-11.806856	-174.430245
15430	2.754077	-0.164373	12.815924	-0.074015	-0.004153	3.296636	1.000000	-0.000006	0.000060	-0.000042	-0.724533	-11.803429	-174.433887
15431	2.742791	-0.200324	12.796540	-0.071494	0.031406	3.275795	1.000000	-0.000005	0.000034	-0.000052	-0.729074	-11.799551	-174.438066
15432	2.732296	-0.177802	12.821545	-0.054390	0.009677	3.297843	1.000000	0.000012	0.000057	-0.000037	-0.730269	-11.796429	-174.441103
15433	2.726356	-0.179729	12.797959	-0.055610	0.011901	3.273559	1.000000	-0.000009	0.000042	-0.000058	-0.730830	-11.788504	-174.453504
15434	2.735117	-0.143328	12.817888	-0.057185	-0.025523	3.294400	1.000000	0.000011	0.000062	-0.000056	-0.731681	-11.784801	-174.458741
15435	2.719706	-0.122996	12.819076	-0.040395	-0.044675	3.292160	1.000000	-0.000010	0.000047	-0.000077	-0.734226	-11.783889	-174.468327
15436	2.708307	-0.158765	12.799717	-0.037160	-0.008664	3.271327	1.000000	-0.000001	0.000059	-0.000085	-0.735743	-11.780538	-174.476999
15437	2.739689	-0.196071	12.822095	-0.067520	0.026476	3.300100	1.000000	-0.000006	0.000050	-0.000084	-0.732195	-11.777590	-174.497517
15438	2.708861	-0.245812	12.807837	-0.045620	0.078182	3.280473	1.000000	-0.000008	0.000059	-0.000066	-0.735024	-11.774219	-174.503988
15439	2.722251	-0.233768	12.779177	-0.062151	0.064014	3.255010	1.000000	0.000002	0.000050	-0.000103	-0.737834	-11.779906	-174.512118
15440	2.687548	-0.227272	12.785426	-0.026925	0.060463	3.253961	1.000000	-0.000006	0.000050	-0.000084	-0.740003	-11.777640	-174.520631
15441	2.661925	-0.216334	12.839439	0.009485	0.051949	3.301467	1.000000	0.000005	0.000069	-0.000086	-0.740774	-11.773712	-174.531231
15442	2.675092	-0.204107	12.810827	-0.008887	0.038050	3.275993	1.000000	0.000005	0.000058	-0.000073	-0.741955	-11.770564	-174.538500
15443	2.654236	-0.217354	12.816226	0.012700	0.051987	3.277194	1.000000	0.000013	0.000058	-0.000092	-0.747396	-11.776153	-174.538239
15444	2.696233	-0.186520	12.830238	-0.023228	0.017385	3.299087	1.000000	0.000015	0.000059	-0.000068	-0.747618	-11.772882	-174.544880
15445	2.666073	-0.177525	12.860349	0.014481	0.011791	3.322292	1.000000	0.000013	0.000047	-0.000079	-0.746566	-11.779574	-174.556683
15446	2.679686	-0.164874	12.831655	-0.003874	-0.002111	3.296822	1.000000	0.000031	0.000044	-0.000074	-0.744759	-11.778107	-174.563987
15447	2.693260	-0.151997	12.802974	-0.021485	-0.016398	3.271355	1.000000	0.000032	0.000050	-0.000068	-0.745012	-11.779060	-174.568201
15448	2.702430	-0.083364	12.794872	-0.026486	-0.085566	3.264423	1.000000	0.000010	0.000067	-0.000074	-0.745592	-11.775003	-174.575612
15449	2.682306	-0.064749	12.772175	-0.009874	-0.101691	3.237868	1.000000	0.000031	0.000044	-0.000074	-0.741300	-11.776394	-174.589732
15450	2.685824	-0.061466	12.796280	-0.008437	-0.104909	3.262141	1.000000	0.000016	0.000044	-0.000091	-0.740837	-11.774980	-174.599048
15451	2.704043	-0.046603	12.791457	-0.026282	-0.121876	3.260944	1.000000	0.000022	0.000049	-0.000073	-0.742551	-11.772527	-174.602141
15452	2.688044	-0.057625	12.820659	-0.006177	-0.109412	3.286404	1.000000	-0.000001	0.000048	-0.000072	-0.744465	-11.770583	-174.609219
15453	2.638482	-0.062972	12.855800	0.049157	-0.100264	3.310753	1.000000	0.000000	0.000055	-0.000066	-0.748877	-11.771339	-174.610658
15454	2.641957	-0.086986	12.807495	0.033156	-0.077425	3.264481	1.000000	0.000006	0.000053	-0.000054	-0.750486	-11.768866	-174.615695
15455	2.640316	-0.060010	12.880243	0.052870	-0.104528	3.335005	1.000000	-0.000011	0.000058	-0.000090	-0.755048	-11.771782	-174.620259
15456	2.663327	-0.069962	12.826847	0.018205	-0.097385	3.287557	1.000000	0.000017	0.000039	-0.000072	-0.754986	-11.770926	-174.627351
15457	2.624323	-0.065847	12.809083	0.053686	-0.098015	3.262155	1.000000	-0.000017	0.000032	-0.000081	-0.757098	-11.774614	-174.638424
15458	2.656274	-0.103277	12.831429	0.023697	-0.064200	3.291028	1.000000	-0.000001	0.000038	-0.000058	-0.759382	-11.773962	-174.643917
15459	2.664723	-0.125182	12.806930	0.008285	-0.043459	3.269053	1.000000	-0.000005	0.000045	-0.000065	-0.760158	-11.772686	-174.653921
15460	2.715953	-0.148718	12.824248	-0.040363	-0.025341	3.296759	1.000000	-0.000015	0.000033	-0.000057	-0.764110	-11.772572	-174.659235
15461	2.677142	-0.144877	12.806436	-0.003489	-0.026858	3.271354	1.000000	0.000002	0.000024	-0.000057	-0.769116	-11.782876	-174.656032
15462	2.705740	-0.094544	12.821180	-0.023586	-0.080036	3.290964	1.000000	-0.000006	0.000028	-0.000057	-0.772086	-11.783345	-174.661351
15463	2.699846	-0.128259	12.825523	-0.020566	-0.047116	3.294449	1.000000	-0.000007	0.000022	-0.000063	-0.777280	-11.780705	-174.661620
15464	2.727871	-0.136146	12.795939	-0.054662	-0.042498	3.271313	1.000000	0.000005	0.000047	-0.000060	-0.778954	-11.779020	-174.667257
15465	2.726373	-0.167273	12.824202	-0.048609	-0.011874	3.299092	1.000000	0.000006	0.000021	-0.000070	-0.782417	-11.787338	-174.666697
15466	2.726216	-0.135548	12.796298	-0.051234	-0.044307	3.271321	1.000000	-0.000023	0.000043	-0.000051	-0.787461	-11.786067	-174.671338
15467	2.753236	-0.175302	12.794874	-0.080499	-0.007656	3.275983	1.000000	0.000000	0.000055	-0.000066	-0.788496	-11.789384	-174.678484
15468	2.737107	-0.186767	12.824087	-0.060326	0.004772	3.301434	1.000000	-0.000010	0.000053	-0.000071	-0.791536	-11.787065	-174.685500
15469	2.735851	-0.186473	12.824359	-0.059010	0.004065	3.301440	1.000000	0.000005	0.000047	-0.000060	-0.793254	-11.787237	-174.689920
15470	2.729849	-0.188284	12.800794	-0.058718	0.005859	3.277170	1.000000	0.000000	0.000065	-0.000079	-0.794978	-11.783506	-174.697887
15471	2.708973	-0.201865	12.806162	-0.038314	0.021527	3.278345	1.000000	0.000000	0.000055	-0.000066	-0.794234	-11.784966	-174.709896
15472	2.698139	-0.179325	12.831148	-0.021053	-0.000273	3.300284	1.000000	0.000005	0.000047	-0.000060	-0.795931	-11.783354	-174.715523
15473	2.706445	-0.200873	12.806712	-0.035934	0.020383	3.278354	1.000000	0.000013	0.000053	-0.000073	-0.795042	-11.783630	-174.724832
15474	2.685474	-0.214356	12.812094	-0.016365	0.035346	3.279522	1.000000	-0.000002	0.000074	-0.000062	-0.797443	-11.778867	-174.730756
15475	2.693611	-0.177795	12.832120	-0.017512	-0.001559	3.300289	1.000000	0.000010	0.000056	-0.000061	-0.795914	-11.777506	-174.742386
15476	2.654187	-0.173589	12.814392	0.017163	-0.002576	3.274833	1.000000	0.000009	0.000050	-0.000066	-0.796936	-11.775548	-174.748807
15477	2.691168	-0.176618	12.832649	-0.014359	-0.002751	3.300293	1.000000	0.000007	0.000038	-0.000077	-0.797222	-11.780925	-174.757406
15478	2.672070	-0.126617	12.781741	-0.001908	-0.051143	3.245883	1.000000	0.000021	0.000043	-0.000079	-0.796558	-11.779861	-174.765259
15479	2.699362	-0.107052	12.824727	-0.017878	-0.072486	3.293268	1.000000	0.000027	0.000052	-0.000080	-0.794623	-11.780017	-174.774029
15480	2.678756	-0.120284	12.830022	0.001699	-0.057523	3.294423	1.000000	0.000005	0.000047	-0.000060	-0.796315	-11.778438	-174.779658
15481	2.692344	-0.108141	12.801377	-0.014628	-0.071464	3.268992	1.000000	-0.000001	0.000049	-0.000072	-0.799411	-11.785658	-174.782552
15482	2.700887	-0.071260	12.821308	-0.015985	-0.108974	3.289743	1.000000	0.000026	0.000046	-0.000085	-0.798093	-11.784283	-174.791190
15483	2.675883	-0.086616	12.802687	0.003986	-0.092156	3.266615	1.000000	0.000011	0.000041	-0.000084	-0.801993	-11.787617	-174.788837
15484	2.708255	-0.091795	12.797100	-0.029474	-0.090088	3.267827	1.000000	0.000009	0.000050	-0.000066	-0.803057	-11.785745	-174.795241
15485	2.678023	-0.083064	12.827078	0.008126	-0.095597	3.290878	1.000000	0.000007	0.000049	-0.000090	-0.801760	-11.791432	-174.807305
15486	2.686388	-0.104605	12.802658	-0.007324	-0.075267	3.268977	1.000000	0.000003	0.000052	-0.000078	-0.803154	-11.789427	-174.815115
15487	2.727813	-0.105448	12.844848	-0.038370	-0.078343	3.318748	1.000000	-0.000002	0.000042	-0.000077	-0.805780	-11.793195	-174.819109
15488	2.669249	-0.115565	12.832046	0.014958	-0.063632	3.294387	1.000000	-0.000001	0.000049	-0.000072	-0.807851	-11.791560	-174.826124
15489	2.667863	-0.115210	12.832338	0.016790	-0.063171	3.294387	1.000000	0.000001	0.000061	-0.000061	-0.804909	-11.792924	-174.842522
15490	2.681220	-0.102907	12.803755	-0.001588	-0.077055	3.268969	1.000000	0.000013	0.000053	-0.000073	-0.805291	-11.790766	-174.849722
15491	2.641239	-0.130477	12.814044	0.037991	-0.046716	3.271244	1.000000	0.000001	0.000050	-0.000047	-0.809722	-11.794577	-174.846295
15492	2.692789	-0.121923	12.803511	-0.014105	-0.060356	3.271350	1.000000	0.000000	0.000055	-0.000066	-0.811800	-11.792274	-174.852684
15493	2.677243	-0.101799	12.804596	0.003624	-0.079618	3.268953	1.000000	-0.000004	0.000051	-0.000059	-0.814999	-11.794876	-174.854527
15494	2.676016	-0.101442	12.804855	0.004577	-0.080361	3.268948	1.000000	0.000010	0.000045	-0.000048	-0.816407	-11.793630	-174.858731
15495	2.664633	-0.110462	12.857852	0.026688	-0.070448	3.318617	1.000000	0.000003	0.000041	-0.000065	-0.818247	-11.797914	-174.861735
15496	2.677810	-0.130014	12.857273	0.011914	-0.052684	3.321014	1.000000	-0.000004	0.000040	-0.000046	-0.821331	-11.797232	-174.865759
15497	2.687041	-0.120459	12.804732	-0.005666	-0.063599	3.271341	1.000000	-0.000015	0.000044	-0.000070	-0.823879	-11.802886	-174.872286
15498	2.685298	-0.152158	12.833054	-0.001091	-0.032693	3.299146	1.000000	-0.000019	0.000047	-0.000058	-0.828310	-11.801551	-174.877699
15499	2.699051	-0.140318	12.804401	-0.018376	-0.046420	3.273747	1.000000	-0.000001	0.000038	-0.000058	-0.830450	-11.806103	-174.880655
15500	2.716835	-0.157729	12.827695	-0.032444	-0.031228	3.300428	1.000000	-0.000016	0.000038	-0.000076	-0.834201	-11.805847	-174.888110
15501	2.697199	-0.140113	12.804794	-0.016415	-0.047458	3.273746	1.000000	-0.000005	0.000034	-0.000052	-0.835272	-11.806193	-174.895322
15502	2.709750	-0.191525	12.832310	-0.027563	0.001952	3.303976	1.000000	-0.000020	0.000052	-0.000077	-0.839377	-11.804351	-174.902926
15503	2.728011	-0.177093	12.827556	-0.044062	-0.014005	3.302855	1.000000	0.000016	0.000033	-0.000077	-0.837672	-11.809954	-174.911929
15504	2.698842	-0.195091	12.784953	-0.025846	0.006112	3.255447	1.000000	0.000002	0.000035	-0.000070	-0.839405	-11.810050	-174.918784
15505	2.702521	-0.192593	12.809017	-0.022476	0.003033	3.279720	1.000000	-0.000017	0.000032	-0.000081	-0.842733	-11.818007	-174.924882
15506	2.668006	-0.186451	12.814993	0.012894	-0.000508	3.278413	1.000000	0.000018	0.000046	-0.000066	-0.842813	-11.816882	-174.931285
15507	2.704873	-0.189325	12.833372	-0.018815	0.000306	3.303991	1.000000	-0.000001	0.000049	-0.000072	-0.839314	-11.820232	-174.949781
15508	2.699260	-0.191209	12.809725	-0.018548	0.002144	3.279726	1.000000	0.000003	0.000041	-0.000065	-0.841037	-11.819666	-174.956018
15509	2.736880	-0.162417	12.799996	-0.053215	-0.029024	3.277504	1.000000	0.000017	0.000040	-0.000072	-0.837334	-11.826921	-174.970279
15510	2.702233	-0.155916	12.805993	-0.017837	-0.032564	3.276181	1.000000	0.000012	0.000047	-0.000078	-0.837709	-11.825676	-174.978101
15511	2.705665	-0.152631	12.830117	-0.014715	-0.035233	3.300450	1.000000	0.000035	0.000037	-0.000067	-0.833392	-11.832025	-174.988409
15512	2.723919	-0.137691	12.825377	-0.032373	-0.051674	3.299341	1.000000	0.000004	0.000047	-0.000060	-0.835103	-11.830816	-174.994028
15513	2.727760	-0.103395	12.821444	-0.033385	-0.085773	3.295795	1.000000	-0.000001	0.000049	-0.000072	-0.833713	-11.833809	-175.007483
15514	2.702687	-0.119233	12.802800	-0.014459	-0.068217	3.272632	1.000000	0.000013	0.000053	-0.000073	-0.834080	-11.831902	-175.014685
15515	2.725114	-0.102112	12.822017	-0.030421	-0.086663	3.295797	1.000000	0.000013	0.000053	-0.000073	-0.832272	-11.834412	-175.025322
15516	2.690056	-0.095799	12.828073	0.004971	-0.090201	3.294443	1.000000	0.000005	0.000064	-0.000067	-0.833658	-11.831298	-175.031886
15517	2.664839	-0.111807	12.809450	0.024717	-0.071822	3.271276	1.000000	-0.000007	0.000050	-0.000083	-0.832672	-11.833729	-175.046462
15518	2.702223	-0.083200	12.799784	-0.011599	-0.103953	3.269074	1.000000	0.000002	0.000046	-0.000084	-0.834011	-11.832743	-175.054911
15519	2.666855	-0.108321	12.833861	0.027700	-0.076126	3.295527	1.000000	0.000026	0.000052	-0.000080	-0.833983	-11.831845	-175.056973
15520	2.670593	-0.073692	12.829939	0.025775	-0.111072	3.291962	1.000000	-0.000001	0.000049	-0.000071	-0.836015	-11.830509	-175.063999
15521	2.659870	-0.109577	12.810501	0.029714	-0.074724	3.271249	1.000000	-0.000007	0.000050	-0.000083	-0.837467	-11.832390	-175.072222
15522	2.682344	-0.092735	12.829710	0.012822	-0.093749	3.294413	1.000000	0.000009	0.000050	-0.000066	-0.838501	-11.830878	-175.078632
15523	2.657428	-0.108689	12.811016	0.032159	-0.075901	3.271237	1.000000	-0.000002	0.000043	-0.000077	-0.839441	-11.832225	-175.086058
15524	2.665173	-0.103739	12.859048	0.034693	-0.081815	3.319758	1.000000	-0.000001	0.000049	-0.000071	-0.841479	-11.830908	-175.093082
15525	2.688219	-0.145278	12.833869	0.005159	-0.042604	3.300435	1.000000	-0.000001	0.000038	-0.000058	-0.843013	-11.838234	-175.098783
15526	2.658615	-0.105406	12.835595	0.037631	-0.080354	3.295477	1.000000	-0.000002	0.000043	-0.000077	-0.845040	-11.837659	-175.106433
15527	2.681717	-0.146863	12.810412	0.007681	-0.041870	3.276164	1.000000	0.000003	0.000041	-0.000065	-0.849019	-11.842558	-175.104968
15528	2.690008	-0.110262	12.830359	0.006551	-0.079417	3.296854	1.000000	-0.000001	0.000049	-0.000071	-0.851078	-11.841300	-175.111983
15529	2.679349	-0.146456	12.810913	0.010320	-0.042975	3.276159	1.000000	-0.000022	0.000050	-0.000046	-0.854773	-11.842611	-175.116346
15530	2.697544	-0.132148	12.806202	-0.007310	-0.059417	3.275072	1.000000	0.000012	0.000036	-0.000065	-0.855472	-11.842753	-175.122596
15531	2.681646	-0.143444	12.835265	0.013920	-0.046667	3.300415	1.000000	0.000004	0.000047	-0.000059	-0.855822	-11.845158	-175.128469
15532	2.680477	-0.143128	12.835512	0.014953	-0.047401	3.300411	1.000000	-0.000006	0.000045	-0.000065	-0.858547	-11.844286	-175.134694
15533	2.674784	-0.145156	12.811881	0.015839	-0.045149	3.276146	1.000000	-0.000000	0.000055	-0.000066	-0.859158	-11.845303	-175.141534
15534	2.687797	-0.164568	12.811412	0.001146	-0.027376	3.278641	1.000000	-0.000001	0.000049	-0.000071	-0.861219	-11.844086	-175.148547
15535	2.667322	-0.178480	12.816598	0.021336	-0.011512	3.279717	1.000000	-0.000004	0.000047	-0.000041	-0.860507	-11.845569	-175.158087
15536	2.675427	-0.141839	12.836580	0.020233	-0.049062	3.300398	1.000000	0.000013	0.000053	-0.000073	-0.860892	-11.843811	-175.165277
15537	2.684400	-0.163282	12.812141	0.005131	-0.028075	3.278638	1.000000	0.000006	0.000021	-0.000069	-0.859658	-11.847671	-175.175027
15538	2.683451	-0.162850	12.812345	0.006168	-0.028803	3.278636	1.000000	-0.000000	0.000055	-0.000066	-0.861715	-11.845764	-175.181419
15539	2.701554	-0.148372	12.807669	-0.010887	-0.045662	3.277561	1.000000	-0.000001	0.000038	-0.000058	-0.866175	-11.848099	-175.178580
15540	2.685846	-0.159756	12.836678	0.009614	-0.033293	3.302891	1.000000	0.000011	0.000030	-0.000071	-0.866861	-11.849007	-175.185454
15541	2.695360	-0.149587	12.784157	-0.009058	-0.043879	3.253299	1.000000	0.000008	0.000044	-0.000072	-0.865277	-11.851020	-175.195978
15542	2.713173	-0.166402	12.807528	-0.022934	-0.028716	3.280075	1.000000	0.000011	0.000030	-0.000070	-0.865956	-11.851938	-175.202853
15543	2.717202	-0.131937	12.803538	-0.024900	-0.063302	3.276489	1.000000	0.000003	0.000041	-0.000065	-0.866031	-11.851427	-175.209595
15544	2.720569	-0.129040	12.827665	-0.023045	-0.066646	3.300748	1.000000	0.000011	0.000041	-0.000084	-0.866395	-11.851109	-175.218032
15545	2.700451	-0.142442	12.832773	-0.002495	-0.051301	3.301814	1.000000	0.000014	0.000028	-0.000083	-0.865081	-11.856227	-175.226906
15546	2.714353	-0.129991	12.804162	-0.020924	-0.065128	3.276487	1.000000	-0.000001	0.000049	-0.000071	-0.867138	-11.855062	-175.233918
15547	2.713204	-0.129635	12.804409	-0.019738	-0.064588	3.276492	1.000000	-0.000002	0.000043	-0.000077	-0.863568	-11.855727	-175.252250
15548	2.712033	-0.129168	12.804662	-0.018694	-0.065314	3.276490	1.000000	0.000009	0.000050	-0.000066	-0.864604	-11.854371	-175.258654
15549	2.715831	-0.094629	12.800713	-0.020286	-0.098742	3.272907	1.000000	0.000012	0.000036	-0.000065	-0.858648	-11.856548	-175.278715
15550	2.699873	-0.106034	12.829763	0.000248	-0.086373	3.298221	1.000000	-0.000007	0.000050	-0.000083	-0.860995	-11.855221	-175.287145
15551	2.712925	-0.125412	12.829320	-0.013935	-0.067591	3.300756	1.000000	0.000005	0.000053	-0.000054	-0.858430	-11.856053	-175.300558
15552	2.711668	-0.124647	12.829593	-0.012887	-0.068309	3.300753	1.000000	0.000025	0.000046	-0.000085	-0.857072	-11.855211	-175.309188
15553	2.695942	-0.104199	12.830604	0.004033	-0.087327	3.298214	1.000000	0.000001	0.000061	-0.000060	-0.858224	-11.853388	-175.313669
15554	2.694572	-0.103964	12.830894	0.005081	-0.088046	3.298209	1.000000	-0.000011	0.000047	-0.000077	-0.861225	-11.852426	-175.321315
15555	2.688865	-0.105975	12.807270	0.006006	-0.085409	3.273949	1.000000	0.000004	0.000058	-0.000073	-0.859550	-11.853635	-175.334167
15556	2.682711	-0.139366	12.811730	0.010005	-0.051912	3.277538	1.000000	0.000007	0.000044	-0.000072	-0.860530	-11.853009	-175.341211
15557	2.672055	-0.085337	12.808499	0.024167	-0.104920	3.271395	1.000000	-0.000006	0.000045	-0.000065	-0.861396	-11.853913	-175.348671
15558	2.680295	-0.138745	12.812243	0.012452	-0.052914	3.277532	1.000000	-0.000006	0.000056	-0.000078	-0.863740	-11.851905	-175.356479
15559	2.664774	-0.118497	12.813195	0.029346	-0.071714	3.274979	1.000000	0.000015	0.000034	-0.000077	-0.861844	-11.853226	-175.364745
15560	2.687215	-0.101605	12.832456	0.012581	-0.090756	3.298185	1.000000	-0.000019	0.000058	-0.000071	-0.865864	-11.851066	-175.371756
15561	2.672412	-0.140175	12.789080	0.015577	-0.051257	3.253266	1.000000	-0.000005	0.000041	-0.000046	-0.865725	-11.854163	-175.382404
15562	2.675658	-0.137426	12.813226	0.017482	-0.054594	3.277519	1.000000	0.000012	0.000047	-0.000078	-0.866032	-11.853196	-175.390236
15563	2.674446	-0.136892	12.813485	0.019514	-0.054843	3.277515	1.000000	-0.000001	0.000049	-0.000071	-0.866292	-11.856547	-175.400196
15564	2.673217	-0.136547	12.813745	0.020571	-0.055555	3.277511	1.000000	-0.000001	0.000049	-0.000071	-0.868275	-11.855447	-175.407231
15565	2.657188	-0.148105	12.842781	0.041292	-0.042354	3.302804	1.000000	-0.000002	0.000043	-0.000077	-0.866521	-11.855958	-175.420182
15566	2.680901	-0.157880	12.789637	0.006246	-0.034996	3.255813	1.000000	-0.000000	0.000055	-0.000066	-0.868508	-11.854156	-175.426594
15567	2.669253	-0.166887	12.842578	0.027814	-0.024602	3.305361	1.000000	0.000015	0.000034	-0.000077	-0.865512	-11.855526	-175.438160
15568	2.682810	-0.185964	12.842067	0.013164	-0.006801	3.307927	1.000000	0.000002	0.000035	-0.000070	-0.867111	-11.856011	-175.445050
15569	2.658493	-0.170590	12.795199	0.028423	-0.019495	3.256843	1.000000	-0.000005	0.000063	-0.000072	-0.863842	-11.854802	-175.463403
15570	2.680666	-0.153673	12.814530	0.011680	-0.038525	3.280064	1.000000	0.000004	0.000047	-0.000059	-0.865452	-11.853879	-175.469048
15571	2.689645	-0.175269	12.790161	-0.002267	-0.017816	3.258381	1.000000	0.000003	0.000041	-0.000065	-0.866412	-11.860672	-175.480197
15572	2.678603	-0.152824	12.814972	0.015379	-0.039667	3.280057	1.000000	0.000002	0.000035	-0.000070	-0.867994	-11.861193	-175.487095
15573	2.677765	-0.152170	12.815155	0.016694	-0.039787	3.280055	1.000000	0.000021	0.000032	-0.000065	-0.865034	-11.863340	-175.496545
15574	2.710471	-0.156981	12.809801	-0.016616	-0.037670	3.281609	1.000000	-0.000002	0.000043	-0.000077	-0.866963	-11.862992	-175.504219
15575	2.680398	-0.117237	12.811436	0.016470	-0.074392	3.276444	1.000000	0.000005	0.000053	-0.000054	-0.864275	-11.864485	-175.519096
15576	2.708250	-0.155980	12.810283	-0.013862	-0.038059	3.281611	1.000000	0.000014	0.000028	-0.000082	-0.864143	-11.865885	-175.527422
15577	2.716321	-0.118937	12.830243	-0.014234	-0.075548	3.302257	1.000000	0.000013	0.000054	-0.000073	-0.864387	-11.867121	-175.532941
15578	2.706001	-0.154567	12.810775	-0.011078	-0.039405	3.281610	1.000000	0.000007	0.000044	-0.000071	-0.865309	-11.866607	-175.540001
15579	2.713963	-0.117712	12.830753	-0.011938	-0.077071	3.302251	1.000000	0.000007	0.000044	-0.000071	-0.866805	-11.866667	-175.542067
15580	2.727792	-0.105091	12.802209	-0.030434	-0.090830	3.276976	1.000000	0.000016	0.000040	-0.000072	-0.866721	-11.866668	-175.549134
15581	2.707488	-0.118601	12.807308	-0.010336	-0.075319	3.277993	1.000000	0.000012	0.000048	-0.000078	-0.864795	-11.867528	-175.560001
15582	2.729716	-0.101259	12.826645	-0.027034	-0.094357	3.301229	1.000000	0.000013	0.000054	-0.000073	-0.865077	-11.865954	-175.567217
15583	2.724192	-0.103065	12.802992	-0.026266	-0.092115	3.276976	1.000000	-0.000002	0.000043	-0.000077	-0.865864	-11.868365	-175.576399
15584	2.708162	-0.114615	12.832007	-0.005608	-0.079768	3.302239	1.000000	0.000004	0.000047	-0.000059	-0.867472	-11.867523	-175.582043
15585	2.702742	-0.116386	12.808331	-0.004438	-0.077698	3.277983	1.000000	0.000011	0.000041	-0.000084	-0.867501	-11.871811	-175.591722
15586	2.705942	-0.113578	12.832485	-0.002444	-0.081048	3.302232	1.000000	-0.000006	0.000046	-0.000065	-0.870114	-11.871182	-175.597981
15587	2.685986	-0.095999	12.809488	0.013371	-0.097215	3.275364	1.000000	-0.000002	0.000049	-0.000071	-0.870249	-11.870088	-175.603671
15588	2.718467	-0.100901	12.804226	-0.019922	-0.095101	3.276965	1.000000	0.000007	0.000044	-0.000071	-0.871182	-11.869611	-175.610724
15589	2.698101	-0.114736	12.809324	0.000542	-0.080024	3.277969	1.000000	-0.000002	0.000049	-0.000071	-0.873000	-11.871756	-175.616441
15590	2.677662	-0.128729	12.814433	0.020299	-0.065032	3.278970	1.000000	-0.000007	0.000050	-0.000083	-0.875292	-11.870615	-175.624883
15591	2.695094	-0.145724	12.837971	0.006927	-0.049986	3.305839	1.000000	-0.000001	0.000055	-0.000066	-0.877871	-11.870280	-175.626778
15592	2.694204	-0.113784	12.810153	0.004117	-0.082247	3.277955	1.000000	-0.000002	0.000049	-0.000071	-0.879836	-11.869309	-175.633814
15593	2.673775	-0.128086	12.815251	0.024118	-0.066512	3.278956	1.000000	-0.000023	0.000050	-0.000046	-0.881572	-11.869549	-175.643011
15594	2.724975	-0.150515	12.833279	-0.023939	-0.048547	3.307460	1.000000	0.000012	0.000048	-0.000078	-0.881853	-11.868733	-175.650843
15595	2.675545	-0.125131	12.839701	0.027426	-0.070622	3.303195	1.000000	-0.000010	0.000053	-0.000071	-0.885117	-11.868105	-175.654141
15596	2.703180	-0.164291	12.838670	-0.002890	-0.034313	3.308458	1.000000	-0.000010	0.000053	-0.000071	-0.888100	-11.866627	-175.661165
15597	2.668180	-0.158672	12.844436	0.032551	-0.037064	3.306820	1.000000	0.000003	0.000052	-0.000078	-0.885973	-11.865478	-175.673660
15598	2.696358	-0.165996	12.815294	-0.001675	-0.032300	3.284206	1.000000	-0.000006	0.000046	-0.000065	-0.888594	-11.864873	-175.679910
15599	2.676488	-0.148448	12.792259	0.014319	-0.048949	3.257313	1.000000	-0.000003	0.000043	-0.000077	-0.891025	-11.865222	-175.681477
15600	2.694102	-0.165381	12.815776	0.000646	-0.033808	3.284202	1.000000	-0.000002	0.000049	-0.000071	-0.892994	-11.864258	-175.688507
15601	2.640028	-0.174073	12.826328	0.055125	-0.021063	3.283544	1.000000	-0.000002	0.000049	-0.000071	-0.892573	-11.865018	-175.698762
15602	2.691567	-0.164700	12.816317	0.003168	-0.034659	3.284199	1.000000	-0.000001	0.000055	-0.000066	-0.894556	-11.863353	-175.705166
15603	2.656638	-0.158960	12.822049	0.039063	-0.036989	3.282542	1.000000	0.000007	0.000044	-0.000071	-0.890335	-11.865233	-175.723831
15604	2.678936	-0.141703	12.841398	0.022431	-0.056050	3.305797	1.000000	0.000007	0.000044	-0.000071	-0.891268	-11.864795	-175.730876
15605	2.654446	-0.157758	12.822518	0.041687	-0.038225	3.282530	1.000000	0.000011	0.000042	-0.000083	-0.890927	-11.866714	-175.739317
15606	2.653426	-0.157005	12.822738	0.042777	-0.038927	3.282525	1.000000	0.000016	0.000040	-0.000071	-0.890848	-11.866793	-175.746368
15607	2.675872	-0.139882	12.842057	0.026637	-0.057710	3.305782	1.000000	-0.000011	0.000036	-0.000063	-0.893010	-11.869487	-175.752605
15608	2.675419	-0.107634	12.814142	0.023792	-0.089951	3.277883	1.000000	0.000034	0.000031	-0.000072	-0.890900	-11.870598	-175.759673
15609	2.684396	-0.160557	12.817874	0.011984	-0.037273	3.284187	1.000000	-0.000010	0.000042	-0.000058	-0.891129	-11.869834	-175.767858
15610	2.707102	-0.111899	12.809125	-0.008574	-0.087876	3.279555	1.000000	0.000005	0.000043	-0.000095	-0.891721	-11.869588	-175.777711
15611	2.706056	-0.111177	12.809353	-0.006972	-0.088278	3.279554	1.000000	0.000016	0.000040	-0.000071	-0.890474	-11.872014	-175.786042
15612	2.715363	-0.132646	12.785006	-0.022548	-0.067801	3.257970	1.000000	-0.000007	0.000039	-0.000070	-0.893067	-11.872156	-175.792916
15613	2.689115	-0.122368	12.838517	0.015322	-0.076785	3.304771	1.000000	0.000003	0.000041	-0.000065	-0.895391	-11.874042	-175.794232
15614	2.698175	-0.143881	12.814225	-0.000257	-0.056310	3.283191	1.000000	0.000004	0.000058	-0.000072	-0.896709	-11.872053	-175.801417
15615	2.705587	-0.107104	12.834287	-0.000295	-0.093799	3.303783	1.000000	0.000005	0.000053	-0.000054	-0.898218	-11.874381	-175.805498
15616	2.715005	-0.128229	12.809929	-0.015876	-0.073323	3.282210	1.000000	0.000032	0.000019	-0.000083	-0.896079	-11.876936	-175.813809
15617	2.718810	-0.093647	12.805931	-0.017215	-0.107990	3.278554	1.000000	-0.000016	0.000044	-0.000070	-0.898797	-11.879006	-175.819509
15618	2.717243	-0.124976	12.834287	-0.012152	-0.077169	3.306453	1.000000	0.000008	0.000050	-0.000066	-0.899766	-11.877918	-175.825915
15619	2.696942	-0.138860	12.839331	0.008603	-0.061831	3.307423	1.000000	0.000003	0.000041	-0.000065	-0.900165	-11.882310	-175.835679
15620	2.714945	-0.124100	12.834782	-0.008961	-0.078236	3.306449	1.000000	-0.000002	0.000049	-0.000071	-0.902134	-11.881436	-175.842703
15621	2.709500	-0.126130	12.811115	-0.009154	-0.076329	3.282199	1.000000	-0.000002	0.000049	-0.000071	-0.904309	-11.879175	-175.843980
15622	2.708307	-0.125863	12.811370	-0.008050	-0.077036	3.282196	1.000000	-0.000006	0.000046	-0.000064	-0.906945	-11.878657	-175.850215
15623	2.673603	-0.120174	12.816991	0.028238	-0.080605	3.280462	1.000000	0.000015	0.000034	-0.000077	-0.907424	-11.883035	-175.854386
15624	2.701792	-0.127402	12.787934	-0.006028	-0.075829	3.257943	1.000000	-0.000018	0.000070	-0.000060	-0.911483	-11.879733	-175.860133
15625	2.685614	-0.139421	12.816913	0.014749	-0.063284	3.283151	1.000000	-0.000007	0.000029	-0.000057	-0.913363	-11.881214	-175.861154
15626	2.703609	-0.124649	12.812374	-0.002811	-0.079697	3.282182	1.000000	0.000008	0.000062	-0.000079	-0.914050	-11.878917	-175.869107
15627	2.683164	-0.138561	12.817435	0.016832	-0.064535	3.283143	1.000000	-0.000003	0.000043	-0.000077	-0.915244	-11.878219	-175.874520
15628	2.682050	-0.138297	12.817671	0.017939	-0.065244	3.283138	1.000000	-0.000006	0.000046	-0.000064	-0.917895	-11.877714	-175.880746
15629	2.676356	-0.171932	12.822081	0.021962	-0.030899	3.286807	1.000000	0.000002	0.000046	-0.000083	-0.915382	-11.877257	-175.893359
15630	2.679680	-0.137587	12.818175	0.020103	-0.065808	3.283132	1.000000	-0.000007	0.000051	-0.000083	-0.917703	-11.876225	-175.901770
15631	2.693041	-0.156966	12.817826	0.005973	-0.047454	3.285842	1.000000	-0.000004	0.000047	-0.000040	-0.918316	-11.877771	-175.909718
15632	2.711142	-0.141949	12.813277	-0.011587	-0.063864	3.284881	1.000000	0.000023	0.000034	-0.000096	-0.916903	-11.878619	-175.919561
15633	2.720342	-0.163211	12.789002	-0.027171	-0.043408	3.263353	1.000000	-0.000005	0.000063	-0.000072	-0.919394	-11.876291	-175.921970
15634	2.674933	-0.135871	12.819184	0.025031	-0.068097	3.283112	1.000000	-0.000002	0.000038	-0.000058	-0.921682	-11.876667	-175.927419
15635	2.703101	-0.174569	12.818201	-0.005695	-0.031175	3.288553	1.000000	0.000007	0.000044	-0.000071	-0.919668	-11.874624	-175.934987
15636	2.691452	-0.152112	12.843002	0.012142	-0.053074	3.310071	1.000000	0.000002	0.000052	-0.000078	-0.920991	-11.873394	-175.942776
15637	2.667211	-0.136800	12.796003	0.027291	-0.067472	3.258851	1.000000	0.000008	0.000051	-0.000066	-0.924776	-11.873848	-175.937761
15638	2.684907	-0.153334	12.819576	0.013726	-0.052389	3.285817	1.000000	0.000009	0.000036	-0.000089	-0.925058	-11.874549	-175.946800
15639	2.679626	-0.155154	12.795878	0.014238	-0.050224	3.261571	1.000000	0.000005	0.000053	-0.000054	-0.926111	-11.875125	-175.950251
15640	2.682496	-0.152403	12.820092	0.016386	-0.053636	3.285809	1.000000	-0.000002	0.000049	-0.000071	-0.928114	-11.874272	-175.957247
15641	2.651694	-0.144580	12.849640	0.053334	-0.060225	3.308256	1.000000	-0.000002	0.000049	-0.000071	-0.932060	-11.875129	-175.954697
15642	2.684663	-0.117452	12.816425	0.016082	-0.089662	3.282108	1.000000	0.000019	0.000037	-0.000083	-0.931362	-11.875646	-175.963108
15643	2.664573	-0.131217	12.821390	0.035807	-0.073935	3.283055	1.000000	0.000003	0.000041	-0.000065	-0.929753	-11.875711	-175.973555
15644	2.686882	-0.113934	12.840780	0.019306	-0.093067	3.306341	1.000000	0.000007	0.000033	-0.000058	-0.931045	-11.876609	-175.978995
15645	2.685917	-0.113517	12.840986	0.020117	-0.093470	3.306337	1.000000	-0.000003	0.000043	-0.000076	-0.931564	-11.875226	-175.984439
15646	2.695222	-0.134991	12.816710	0.004469	-0.072988	3.284838	1.000000	0.000008	0.000051	-0.000066	-0.932578	-11.874176	-175.990808
15647	2.717396	-0.117474	12.836136	-0.011947	-0.092141	3.308128	1.000000	0.000015	0.000034	-0.000077	-0.932625	-11.875355	-175.993219
15648	2.678558	-0.114369	12.817730	0.022477	-0.092912	3.282076	1.000000	-0.000011	0.000042	-0.000058	-0.935960	-11.875233	-175.998638
15649	2.711054	-0.119107	12.812668	-0.010420	-0.090533	3.283883	1.000000	0.000007	0.000056	-0.000084	-0.935322	-11.875322	-176.005986
15650	2.699458	-0.096552	12.837426	0.007464	-0.112443	3.305361	1.000000	0.000011	0.000031	-0.000070	-0.935942	-11.876568	-176.012824
15651	2.708713	-0.149455	12.841214	-0.003453	-0.060270	3.311816	1.000000	0.000007	0.000045	-0.000071	-0.936264	-11.879484	-176.018878
15652	2.707996	-0.117257	12.813332	-0.006352	-0.092471	3.283872	1.000000	0.000011	0.000037	-0.000065	-0.936909	-11.880033	-176.025088
15653	2.706913	-0.116768	12.813565	-0.005244	-0.093012	3.283869	1.000000	-0.000002	0.000049	-0.000071	-0.938159	-11.879202	-176.029437
15654	2.705795	-0.116505	12.813803	-0.004129	-0.093727	3.283864	1.000000	-0.000007	0.000040	-0.000070	-0.940823	-11.879442	-176.036256
15655	2.704618	-0.116207	12.814055	-0.002856	-0.094417	3.283859	1.000000	0.000004	0.000053	-0.000054	-0.942471	-11.878741	-176.037092
15656	2.694936	-0.152216	12.794515	0.000126	-0.058212	3.263324	1.000000	-0.000004	0.000037	-0.000082	-0.944462	-11.879327	-176.045313
15657	2.702037	-0.146903	12.842650	0.003266	-0.064231	3.311797	1.000000	0.000012	0.000054	-0.000072	-0.944183	-11.877378	-176.047105
15658	2.696942	-0.117449	12.790871	-0.000718	-0.093705	3.259607	1.000000	-0.000020	0.000047	-0.000058	-0.948554	-11.876768	-176.052503
15659	2.665903	-0.141511	12.848450	0.040085	-0.068210	3.309945	1.000000	0.000003	0.000041	-0.000064	-0.949370	-11.877814	-176.056340
15660	2.713475	-0.134072	12.814729	-0.012902	-0.079177	3.286616	1.000000	-0.000002	0.000049	-0.000071	-0.951410	-11.876987	-176.063305
15661	2.659416	-0.143213	12.825005	0.041149	-0.066230	3.285697	1.000000	-0.000002	0.000049	-0.000071	-0.950330	-11.876014	-176.073065
15662	2.710985	-0.133443	12.815262	-0.010755	-0.079918	3.286614	1.000000	0.000000	0.000050	-0.000047	-0.952704	-11.875006	-176.077223
15663	2.690531	-0.179381	12.848318	0.012845	-0.033602	3.315493	1.000000	-0.000012	0.000036	-0.000063	-0.956721	-11.874680	-176.074688
15664	2.690018	-0.147366	12.820388	0.009935	-0.065793	3.287535	1.000000	0.000014	0.000028	-0.000082	-0.956683	-11.876281	-176.082909
15665	2.669885	-0.161193	12.825335	0.030369	-0.050476	3.288459	1.000000	0.000001	0.000057	-0.000096	-0.956590	-11.877581	-176.093786
15666	2.687556	-0.146220	12.820917	0.012835	-0.066922	3.287527	1.000000	0.000004	0.000053	-0.000054	-0.958319	-11.876215	-176.098718
15667	2.696916	-0.167634	12.796677	-0.002239	-0.045862	3.266085	1.000000	0.000007	0.000045	-0.000071	-0.956969	-11.878827	-176.107531
15668	2.700032	-0.133196	12.792791	-0.004057	-0.080778	3.262360	1.000000	-0.000001	0.000055	-0.000066	-0.959035	-11.877308	-176.113862
15669	2.679460	-0.178970	12.825868	0.019940	-0.033751	3.291239	1.000000	-0.000003	0.000043	-0.000076	-0.958656	-11.878198	-176.123356
15670	2.682787	-0.144713	12.821933	0.018125	-0.068667	3.287511	1.000000	-0.000007	0.000040	-0.000070	-0.961332	-11.878464	-176.130154
15671	2.681624	-0.144083	12.822183	0.019909	-0.069079	3.287507	1.000000	0.000025	0.000053	-0.000079	-0.958892	-11.880211	-176.133571
15672	2.684597	-0.140935	12.846373	0.022146	-0.072532	3.311736	1.000000	0.000002	0.000035	-0.000070	-0.960548	-11.880996	-176.140373
15673	2.689930	-0.164858	12.798183	0.005682	-0.048897	3.266073	1.000000	-0.000000	0.000061	-0.000060	-0.960923	-11.880495	-176.147624
15674	2.696895	-0.127945	12.818291	0.004990	-0.086550	3.286575	1.000000	0.000012	0.000054	-0.000072	-0.961311	-11.879139	-176.154736
15675	2.676905	-0.110323	12.795143	0.020992	-0.102582	3.259524	1.000000	0.000002	0.000041	-0.000064	-0.961220	-11.880600	-176.162997
15676	2.694532	-0.127059	12.818797	0.007523	-0.087567	3.286567	1.000000	-0.000008	0.000051	-0.000083	-0.963602	-11.879650	-176.171346
15677	2.674324	-0.141259	12.823739	0.027527	-0.071852	3.287478	1.000000	0.000002	0.000041	-0.000064	-0.962204	-11.880973	-176.181964
15678	2.681766	-0.104250	12.843742	0.026844	-0.109507	3.307973	1.000000	0.000015	0.000034	-0.000077	-0.962179	-11.881912	-176.189550
15679	2.714583	-0.108581	12.838714	-0.006060	-0.107434	3.309879	1.000000	0.000002	0.000041	-0.000064	-0.963738	-11.883440	-176.191832
15680	2.671468	-0.139654	12.824352	0.031233	-0.073947	3.287458	1.000000	0.000002	0.000035	-0.000070	-0.965395	-11.884243	-176.198627
15681	2.704173	-0.112511	12.791299	-0.006096	-0.103026	3.261405	1.000000	0.000003	0.000069	-0.000085	-0.964928	-11.881152	-176.206257
15682	2.687810	-0.124283	12.820235	0.014815	-0.090756	3.286539	1.000000	-0.000007	0.000040	-0.000070	-0.967605	-11.881448	-176.213044
15683	2.705578	-0.141031	12.843873	0.000849	-0.075863	3.313597	1.000000	0.000002	0.000041	-0.000064	-0.969629	-11.879225	-176.213637
15684	2.700387	-0.143074	12.820163	0.000834	-0.073834	3.289361	1.000000	-0.000002	0.000049	-0.000071	-0.971681	-11.878439	-176.220574
15685	2.680115	-0.157299	12.825109	0.020955	-0.058405	3.290264	1.000000	-0.000002	0.000049	-0.000071	-0.971988	-11.879310	-176.229019
15686	2.702278	-0.108260	12.816525	0.000504	-0.109054	3.285612	1.000000	0.000012	0.000043	-0.000059	-0.972679	-11.879199	-176.234561
15687	2.682045	-0.122563	12.821459	0.020464	-0.093479	3.286513	1.000000	-0.000021	0.000052	-0.000076	-0.974296	-11.879118	-176.245175
15688	2.691575	-0.144136	12.797226	0.004723	-0.072979	3.265118	1.000000	0.000010	0.000042	-0.000083	-0.974646	-11.879189	-176.253520
15689	2.694585	-0.140976	12.821407	0.007240	-0.076319	3.289345	1.000000	0.000016	0.000040	-0.000071	-0.974154	-11.880506	-176.259511
15690	2.697541	-0.138227	12.845594	0.009522	-0.079792	3.313571	1.000000	-0.000014	0.000045	-0.000046	-0.978198	-11.880120	-176.263478
15691	2.711298	-0.125899	12.817226	-0.009218	-0.093108	3.288439	1.000000	0.000002	0.000052	-0.000077	-0.977872	-11.878801	-176.270859
15692	2.691132	-0.140101	12.822141	0.010554	-0.078092	3.289332	1.000000	-0.000002	0.000038	-0.000058	-0.980217	-11.879263	-176.276234
15693	2.723820	-0.144672	12.817186	-0.022885	-0.075699	3.291287	1.000000	-0.000002	0.000049	-0.000071	-0.980503	-11.877705	-176.282508
15694	2.669967	-0.122542	12.799206	0.027158	-0.094850	3.262238	1.000000	-0.000006	0.000052	-0.000059	-0.983237	-11.876583	-176.288029
15695	2.687561	-0.139308	12.822899	0.013908	-0.079618	3.289320	1.000000	-0.000003	0.000043	-0.000076	-0.984224	-11.877352	-176.293415
15696	2.690357	-0.136377	12.847120	0.016202	-0.083097	3.313544	1.000000	0.000012	0.000054	-0.000072	-0.984630	-11.876006	-176.300497
15697	2.719180	-0.143045	12.818190	-0.018323	-0.077985	3.291280	1.000000	0.000005	0.000021	-0.000069	-0.984325	-11.877939	-176.303672
15698	2.676116	-0.174339	12.803770	0.018917	-0.044467	3.268833	1.000000	-0.000010	0.000060	-0.000065	-0.987426	-11.875948	-176.309962
15699	2.697929	-0.156969	12.823330	0.002955	-0.063756	3.292166	1.000000	0.000011	0.000037	-0.000064	-0.988529	-11.878177	-176.309685
15700	2.682065	-0.137065	12.824074	0.019803	-0.082933	3.289292	1.000000	-0.000002	0.000049	-0.000071	-0.990593	-11.877406	-176.316600
15701	2.691659	-0.158472	12.799856	0.004058	-0.062150	3.267931	1.000000	0.000007	0.000045	-0.000071	-0.990395	-11.877338	-176.322741
15702	2.660668	-0.150677	12.829237	0.040727	-0.068351	3.290169	1.000000	0.000008	0.000051	-0.000066	-0.991465	-11.876364	-176.329033
15703	2.708327	-0.142810	12.795709	-0.012048	-0.079239	3.267036	1.000000	0.000008	0.000040	-0.000052	-0.992498	-11.877872	-176.328463
15704	2.711144	-0.139796	12.819927	-0.009735	-0.082728	3.291260	1.000000	0.000012	0.000054	-0.000072	-0.992918	-11.876535	-176.335530
15705	2.672398	-0.136813	12.801324	0.024546	-0.083099	3.265035	1.000000	0.000005	0.000021	-0.000069	-0.992905	-11.878915	-176.341957
15706	2.705300	-0.141397	12.796365	-0.008691	-0.081109	3.267028	1.000000	-0.000015	0.000050	-0.000064	-0.996653	-11.878009	-176.348079
15707	2.693034	-0.151015	12.849202	0.013832	-0.070921	3.316365	1.000000	-0.000002	0.000049	-0.000071	-0.995661	-11.879075	-176.357537
15708	2.706822	-0.138469	12.820855	-0.004872	-0.084613	3.291251	1.000000	0.000003	0.000047	-0.000059	-0.997388	-11.878478	-176.363043
15709	2.709631	-0.135752	12.845071	-0.002112	-0.087828	3.315475	1.000000	-0.000007	0.000046	-0.000064	-0.998987	-11.880040	-176.367717
15710	2.659775	-0.111236	12.850969	0.049105	-0.109709	3.310564	1.000000	0.000002	0.000052	-0.000077	-1.000403	-11.878919	-176.375398
15711	2.703202	-0.137456	12.821630	-0.001180	-0.086272	3.291241	1.000000	-0.000003	0.000043	-0.000076	-1.001409	-11.878330	-176.377818
15712	2.706040	-0.134661	12.845839	0.001156	-0.089770	3.315462	1.000000	0.000003	0.000047	-0.000059	-1.003139	-11.877738	-176.383317
15713	2.682139	-0.119571	12.798645	0.015949	-0.103392	3.264106	1.000000	0.000010	0.000042	-0.000083	-1.003653	-11.879317	-176.385678
15714	2.711828	-0.097144	12.866169	0.002075	-0.128200	3.335898	1.000000	-0.000001	0.000055	-0.000065	-1.005756	-11.877858	-176.391947
15715	2.683566	-0.116316	12.823151	0.019523	-0.107376	3.288318	1.000000	-0.000002	0.000049	-0.000071	-1.006810	-11.877577	-176.393469
15716	2.712223	-0.123072	12.794320	-0.014921	-0.102623	3.266119	1.000000	0.000007	0.000045	-0.000071	-1.007869	-11.877333	-176.400362
15717	2.681235	-0.115520	12.823646	0.021798	-0.108834	3.288303	1.000000	-0.000007	0.000046	-0.000064	-1.010682	-11.876943	-176.400429
15718	2.698749	-0.132231	12.847398	0.008419	-0.093899	3.315431	1.000000	-0.000001	0.000055	-0.000065	-1.012793	-11.875486	-176.406689
15719	2.678730	-0.114919	12.824175	0.024298	-0.109953	3.288289	1.000000	0.000002	0.000041	-0.000064	-1.013121	-11.876721	-176.411753
15720	2.696380	-0.131508	12.847903	0.010924	-0.095021	3.315421	1.000000	-0.000002	0.000049	-0.000071	-1.015209	-11.875976	-176.418634
15721	2.691292	-0.133393	12.824178	0.011042	-0.092650	3.291193	1.000000	0.000015	0.000040	-0.000071	-1.013938	-11.877218	-176.422883
15722	2.705070	-0.152407	12.823926	-0.003556	-0.074934	3.294108	1.000000	-0.000016	0.000044	-0.000070	-1.017676	-11.877050	-176.429603
15723	2.685156	-0.135214	12.800674	0.012123	-0.090866	3.266961	1.000000	0.000007	0.000045	-0.000071	-1.016783	-11.877121	-176.435475
15724	2.706681	-0.149359	12.848395	-0.000011	-0.078729	3.318325	1.000000	-0.000006	0.000052	-0.000059	-1.019550	-11.876039	-176.440948
15725	2.682702	-0.134686	12.801194	0.014673	-0.092123	3.266949	1.000000	-0.000007	0.000046	-0.000064	-1.021539	-11.876953	-176.443535
15726	2.700357	-0.151261	12.824933	0.001311	-0.077200	3.294095	1.000000	0.000007	0.000045	-0.000071	-1.022609	-11.876721	-176.450410
15727	2.684491	-0.131263	12.825625	0.018450	-0.096020	3.291160	1.000000	0.000009	0.000036	-0.000088	-1.021527	-11.878804	-176.457770
15728	2.694360	-0.152518	12.801409	0.002609	-0.075513	3.269866	1.000000	0.000003	0.000048	-0.000059	-1.023277	-11.878234	-176.463240
15729	2.696985	-0.149912	12.825658	0.004961	-0.078817	3.294084	1.000000	-0.000015	0.000056	-0.000059	-1.026109	-11.876591	-176.467446
15730	2.676607	-0.164455	12.830561	0.024723	-0.063782	3.294939	1.000000	-0.000002	0.000055	-0.000065	-1.028231	-11.875150	-176.473687
15731	2.694310	-0.149356	12.826226	0.007369	-0.079624	3.294078	1.000000	0.000006	0.000045	-0.000071	-1.026473	-11.875710	-176.484021
15732	2.708093	-0.168240	12.825994	-0.007229	-0.061913	3.297016	1.000000	0.000002	0.000041	-0.000064	-1.028197	-11.875851	-176.490109
15733	2.677190	-0.129052	12.827174	0.025823	-0.099543	3.291122	1.000000	0.000007	0.000051	-0.000065	-1.029591	-11.876839	-176.491713
15734	2.675879	-0.128401	12.827454	0.026960	-0.100268	3.291114	1.000000	0.000017	0.000053	-0.000060	-1.029700	-11.875703	-176.497330
15735	2.689629	-0.147359	12.827232	0.013049	-0.082362	3.294057	1.000000	-0.000012	0.000036	-0.000063	-1.032386	-11.879445	-176.497966
15736	2.703525	-0.134760	12.798907	-0.005698	-0.096048	3.268979	1.000000	0.000012	0.000054	-0.000072	-1.032840	-11.878157	-176.504976
15737	2.672572	-0.158497	12.856235	0.035447	-0.070654	3.319117	1.000000	0.000012	0.000016	-0.000093	-1.031980	-11.882323	-176.509484
15738	2.705727	-0.130896	12.823258	-0.001922	-0.100107	3.293189	1.000000	0.000007	0.000051	-0.000065	-1.033090	-11.881406	-176.515714
15739	2.704504	-0.130539	12.823519	-0.000417	-0.100484	3.293187	1.000000	-0.000007	0.000046	-0.000064	-1.034385	-11.882734	-176.520031
15740	2.699372	-0.132628	12.799806	-0.000549	-0.098403	3.268962	1.000000	0.000007	0.000051	-0.000065	-1.035495	-11.881821	-176.526257
15741	2.702015	-0.129752	12.824052	0.001806	-0.101700	3.293177	1.000000	-0.000002	0.000049	-0.000071	-1.036532	-11.880909	-176.532274
15742	2.689817	-0.107571	12.848736	0.019963	-0.123662	3.314422	1.000000	0.000001	0.000046	-0.000083	-1.037961	-11.880543	-176.540519
15743	2.684803	-0.109585	12.824997	0.020142	-0.121631	3.290195	1.000000	0.000002	0.000041	-0.000064	-1.040031	-11.882009	-176.539405
15744	2.717611	-0.113628	12.820188	-0.013074	-0.119705	3.292314	1.000000	0.000015	0.000040	-0.000071	-1.040101	-11.882312	-176.546248
15745	2.693372	-0.130473	12.801092	0.005406	-0.101374	3.268938	1.000000	-0.000019	0.000070	-0.000060	-1.042190	-11.879322	-176.550788
15746	2.706781	-0.149535	12.800966	-0.009195	-0.083678	3.271909	1.000000	0.000011	0.000048	-0.000077	-1.042629	-11.878755	-176.558402
15747	2.660734	-0.122708	12.830660	0.043329	-0.108198	3.291007	1.000000	-0.000007	0.000046	-0.000064	-1.044990	-11.878382	-176.559622
15748	2.708484	-0.114702	12.797333	-0.009795	-0.119236	3.268079	1.000000	0.000006	0.000045	-0.000071	-1.046086	-11.878182	-176.566454
15749	2.688418	-0.128873	12.802150	0.010250	-0.103689	3.268917	1.000000	0.000006	0.000045	-0.000071	-1.045024	-11.879371	-176.572197
15750	2.691334	-0.126018	12.826335	0.012688	-0.107233	3.293127	1.000000	-0.000003	0.000032	-0.000063	-1.047395	-11.880623	-176.578097
15751	2.682337	-0.162230	12.806723	0.015496	-0.070165	3.272734	1.000000	-0.000002	0.000055	-0.000065	-1.046059	-11.879848	-176.588865
15752	2.685206	-0.127831	12.802834	0.013764	-0.105084	3.268903	1.000000	0.000001	0.000035	-0.000070	-1.047773	-11.880733	-176.595540
15753	2.702847	-0.144524	12.826623	0.000126	-0.089854	3.296106	1.000000	-0.000015	0.000056	-0.000059	-1.049908	-11.877790	-176.599899
15754	2.682862	-0.127234	12.803332	0.015706	-0.106179	3.268892	1.000000	0.000019	0.000038	-0.000083	-1.049296	-11.878434	-176.608126
15755	2.685773	-0.124042	12.827520	0.017868	-0.109540	3.293102	1.000000	0.000005	0.000039	-0.000076	-1.049458	-11.877698	-176.610160
15756	2.680752	-0.157653	12.831871	0.021878	-0.076073	3.296925	1.000000	-0.000003	0.000043	-0.000076	-1.051545	-11.877703	-176.617602
15757	2.698674	-0.111081	12.799437	0.000302	-0.123551	3.268043	1.000000	-0.000007	0.000046	-0.000064	-1.052564	-11.877803	-176.624430
15758	2.674552	-0.159664	12.808384	0.022923	-0.074306	3.272700	1.000000	-0.000000	0.000050	-0.000047	-1.055016	-11.876921	-176.628447
15759	2.692293	-0.144644	12.804077	0.005927	-0.090547	3.271865	1.000000	-0.000003	0.000043	-0.000076	-1.056060	-11.879065	-176.632799
15760	2.691289	-0.144320	12.804291	0.007068	-0.091274	3.271859	1.000000	-0.000004	0.000037	-0.000082	-1.058122	-11.879788	-176.640856
15761	2.690049	-0.144006	12.804556	0.008359	-0.091753	3.271855	1.000000	-0.000001	0.000061	-0.000060	-1.059234	-11.878367	-176.642446
15762	2.707625	-0.160344	12.828378	-0.004923	-0.076896	3.299074	1.000000	0.000009	0.000036	-0.000088	-1.059624	-11.879224	-176.651277
15763	2.684038	-0.145341	12.781039	0.009165	-0.089726	3.247635	1.000000	0.000005	0.000039	-0.000076	-1.057738	-11.879260	-176.661884
15764	2.694577	-0.137487	12.853205	0.014284	-0.098941	3.320268	1.000000	0.000002	0.000042	-0.000064	-1.059483	-11.879435	-176.667914
15765	2.681885	-0.176063	12.809590	0.016005	-0.058917	3.275681	1.000000	0.000002	0.000042	-0.000064	-1.057308	-11.881470	-176.677819
15766	2.703492	-0.126641	12.801186	-0.004331	-0.109613	3.271014	1.000000	0.000016	0.000058	-0.000078	-1.057122	-11.879831	-176.685553
15767	2.668353	-0.121546	12.806419	0.030981	-0.112495	3.268812	1.000000	-0.000004	0.000043	-0.000076	-1.057033	-11.879147	-176.692329
15768	2.700977	-0.157300	12.829817	0.001968	-0.079228	3.299061	1.000000	0.000003	0.000048	-0.000059	-1.058799	-11.878615	-176.697732
15769	2.703893	-0.122474	12.825912	0.000090	-0.113926	3.295214	1.000000	0.000028	0.000033	-0.000083	-1.056138	-11.879103	-176.702255
15770	2.680203	-0.139125	12.806674	0.018502	-0.096034	3.271814	1.000000	-0.000011	0.000043	-0.000057	-1.059551	-11.879147	-176.707500
15771	2.712917	-0.143463	12.801971	-0.015078	-0.093758	3.274021	1.000000	-0.000003	0.000049	-0.000071	-1.059902	-11.876949	-176.715421
15772	2.681631	-0.136183	12.831167	0.021760	-0.099947	3.296015	1.000000	-0.000003	0.000049	-0.000071	-1.062015	-11.876249	-176.722213
15773	2.680479	-0.135683	12.831413	0.022785	-0.100303	3.296010	1.000000	0.000010	0.000042	-0.000083	-1.060746	-11.875964	-176.730011
15774	2.713124	-0.139674	12.826738	-0.010429	-0.098403	3.298223	1.000000	-0.000002	0.000055	-0.000065	-1.062889	-11.874553	-176.736177
15775	2.677938	-0.134693	12.831954	0.025010	-0.101094	3.296000	1.000000	0.000011	0.000048	-0.000077	-1.060357	-11.873934	-176.749485
15776	2.691695	-0.153465	12.831814	0.010405	-0.083409	3.299031	1.000000	-0.000003	0.000049	-0.000071	-1.062468	-11.873231	-176.756273
15777	2.694618	-0.118860	12.827898	0.008947	-0.117865	3.295176	1.000000	0.000013	0.000028	-0.000082	-1.060481	-11.876208	-176.763127
15778	2.689735	-0.120975	12.804138	0.008732	-0.115747	3.270959	1.000000	-0.000015	0.000056	-0.000058	-1.064294	-11.874669	-176.768512
15779	2.673402	-0.133178	12.832915	0.029911	-0.102617	3.295978	1.000000	-0.000004	0.000043	-0.000076	-1.062289	-11.875299	-176.786718
15780	2.683637	-0.122892	12.780636	0.009721	-0.113433	3.246743	1.000000	0.000005	0.000039	-0.000076	-1.063340	-11.875811	-176.794127
15781	2.705064	-0.136781	12.828471	-0.001658	-0.100816	3.298208	1.000000	-0.000002	0.000055	-0.000065	-1.062841	-11.876771	-176.803677
15782	2.699974	-0.138870	12.804758	-0.001880	-0.098694	3.273994	1.000000	0.000001	0.000047	-0.000083	-1.064263	-11.876418	-176.811859
15783	2.698793	-0.138593	12.805010	-0.000479	-0.099281	3.273989	1.000000	-0.000005	0.000047	-0.000040	-1.066811	-11.877088	-176.814699
15784	2.686474	-0.116439	12.829628	0.017774	-0.121261	3.295136	1.000000	0.000015	0.000041	-0.000071	-1.066868	-11.877399	-176.821480
15785	2.696555	-0.137624	12.805492	0.001740	-0.100216	3.273982	1.000000	-0.000003	0.000049	-0.000071	-1.066677	-11.876577	-176.831991
15786	2.702896	-0.132365	12.853738	0.005629	-0.106637	3.322393	1.000000	-0.000003	0.000049	-0.000071	-1.068781	-11.875887	-176.838767
15787	2.712933	-0.153659	12.829615	-0.010363	-0.085361	3.301246	1.000000	0.000006	0.000045	-0.000071	-1.066554	-11.875817	-176.851229
15788	2.674165	-0.151245	12.810754	0.023754	-0.085865	3.274769	1.000000	0.000002	0.000042	-0.000064	-1.068280	-11.875997	-176.857230
15789	2.695753	-0.133593	12.830465	0.008081	-0.105085	3.298173	1.000000	-0.000004	0.000043	-0.000076	-1.069862	-11.877880	-176.864416
15790	2.690742	-0.135725	12.806735	0.007842	-0.102955	3.273959	1.000000	-0.000004	0.000054	-0.000089	-1.071663	-11.876663	-176.873359
15791	2.693407	-0.132672	12.830967	0.010528	-0.106041	3.298163	1.000000	0.000014	0.000034	-0.000076	-1.069537	-11.878516	-176.883384
15792	2.703338	-0.154079	12.806876	-0.005453	-0.085501	3.277023	1.000000	-0.000019	0.000070	-0.000059	-1.073751	-11.875414	-176.888905
15793	2.671797	-0.146941	12.836049	0.031285	-0.091309	3.298946	1.000000	0.000010	0.000042	-0.000083	-1.072327	-11.875058	-176.900981
15794	2.689615	-0.131378	12.831776	0.013816	-0.107811	3.298146	1.000000	0.000015	0.000041	-0.000071	-1.072383	-11.875371	-176.907747
15795	2.665933	-0.148158	12.812505	0.032337	-0.089301	3.274727	1.000000	-0.000004	0.000043	-0.000076	-1.071821	-11.876255	-176.919076
15796	2.683635	-0.164480	12.836361	0.019139	-0.074471	3.302007	1.000000	0.000006	0.000045	-0.000071	-1.072900	-11.876070	-176.925840
15797	2.663712	-0.147165	12.812979	0.034790	-0.090254	3.274715	1.000000	0.000012	0.000043	-0.000059	-1.071470	-11.876935	-176.936049
15798	2.700365	-0.148591	12.832326	0.002984	-0.091202	3.301211	1.000000	-0.000005	0.000037	-0.000081	-1.073511	-11.877673	-176.944056
15799	2.695459	-0.150724	12.808577	0.002950	-0.088841	3.277002	1.000000	0.000004	0.000054	-0.000053	-1.074357	-11.877473	-176.948196
15800	2.713025	-0.135491	12.804363	-0.014521	-0.105341	3.276211	1.000000	0.000003	0.000048	-0.000059	-1.076117	-11.876955	-176.953556
15801	2.678164	-0.130547	12.809425	0.021102	-0.108424	3.273900	1.000000	0.000013	0.000028	-0.000082	-1.074930	-11.879357	-176.964953
15802	2.696000	-0.146732	12.833265	0.007921	-0.093601	3.301192	1.000000	-0.000003	0.000049	-0.000071	-1.077037	-11.878680	-176.971707
15803	2.694843	-0.114727	12.805403	0.004939	-0.125524	3.273103	1.000000	0.000006	0.000045	-0.000071	-1.077612	-11.879247	-176.977566
15804	2.667321	-0.165651	12.790258	0.026163	-0.073415	3.253554	1.000000	0.000001	0.000047	-0.000082	-1.079044	-11.878909	-176.985713
15805	2.692504	-0.145317	12.834015	0.011619	-0.094856	3.301180	1.000000	0.000006	0.000045	-0.000071	-1.076596	-11.879355	-176.996086
15806	2.710214	-0.130062	12.829777	-0.005850	-0.111358	3.300395	1.000000	-0.000002	0.000044	-0.000052	-1.079005	-11.879213	-177.000663
15807	2.709199	-0.129593	12.829996	-0.004631	-0.111610	3.300393	1.000000	0.000009	0.000036	-0.000088	-1.077288	-11.880535	-177.012588
15808	2.692776	-0.110128	12.830639	0.012247	-0.130742	3.297279	1.000000	-0.000019	0.000070	-0.000059	-1.081507	-11.877444	-177.018087
15809	2.698804	-0.134055	12.782623	-0.005430	-0.106715	3.251981	1.000000	0.000011	0.000054	-0.000072	-1.079231	-11.875296	-177.029216
15810	2.701324	-0.131033	12.806883	-0.002863	-0.110307	3.276178	1.000000	0.000002	0.000042	-0.000064	-1.080959	-11.875490	-177.035185
15811	2.700209	-0.130459	12.807124	-0.001492	-0.110765	3.276174	1.000000	0.000016	0.000047	-0.000065	-1.079917	-11.876191	-177.045688
15812	2.699116	-0.129996	12.807359	-0.000349	-0.111487	3.276168	1.000000	-0.000008	0.000040	-0.000069	-1.082640	-11.876599	-177.052277
15813	2.682845	-0.142081	12.836074	0.020747	-0.099047	3.301138	1.000000	0.000001	0.000053	-0.000077	-1.082910	-11.875196	-177.061641
15814	2.681555	-0.141706	12.836348	0.021892	-0.099771	3.301130	1.000000	-0.000003	0.000049	-0.000070	-1.085019	-11.874520	-177.068376
15815	2.699230	-0.126469	12.832129	0.004524	-0.116044	3.300355	1.000000	0.000002	0.000042	-0.000064	-1.085761	-11.875204	-177.073065
15816	2.675391	-0.143183	12.812870	0.022845	-0.098114	3.276916	1.000000	0.000020	0.000061	-0.000085	-1.084936	-11.873200	-177.081492
15817	2.723084	-0.166201	12.808010	-0.026045	-0.077316	3.282398	1.000000	-0.000017	0.000044	-0.000069	-1.086549	-11.873423	-177.092109
15818	2.691835	-0.127601	12.808915	0.006555	-0.114856	3.276137	1.000000	0.000005	0.000039	-0.000076	-1.087602	-11.873956	-177.099459
15819	2.698137	-0.122187	12.857156	0.010781	-0.120778	3.324536	1.000000	-0.000003	0.000049	-0.000070	-1.087240	-11.874260	-177.109127
15820	2.700825	-0.148662	12.785089	-0.008145	-0.094450	3.255062	1.000000	-0.000012	0.000054	-0.000070	-1.090375	-11.873090	-177.115853
15821	2.691996	-0.124261	12.833670	0.011773	-0.118870	3.300325	1.000000	0.000001	0.000036	-0.000069	-1.089985	-11.874765	-177.125234
15822	2.698639	-0.148076	12.785557	-0.005715	-0.095419	3.255056	1.000000	-0.000003	0.000049	-0.000070	-1.092095	-11.874095	-177.131956
15823	2.701126	-0.145049	12.809822	-0.002385	-0.098327	3.279256	1.000000	0.000016	0.000047	-0.000065	-1.089229	-11.877136	-177.146602
15824	2.692182	-0.120357	12.858422	0.017403	-0.123229	3.324506	1.000000	-0.000003	0.000049	-0.000070	-1.091335	-11.876475	-177.153325
15825	2.698576	-0.144408	12.810366	-0.000020	-0.099087	3.279250	1.000000	-0.000015	0.000056	-0.000058	-1.092102	-11.875483	-177.163964
15826	2.667107	-0.137327	12.839405	0.036932	-0.105333	3.301053	1.000000	0.000015	0.000041	-0.000071	-1.092153	-11.875818	-177.170682
15827	2.730190	-0.147842	12.806094	-0.031936	-0.097546	3.281636	1.000000	-0.000007	0.000046	-0.000064	-1.093384	-11.876208	-177.178531
15828	2.679936	-0.155802	12.839564	0.023640	-0.088021	3.304188	1.000000	-0.000003	0.000049	-0.000070	-1.095488	-11.875550	-177.185249
15829	2.697546	-0.108689	12.807260	0.001725	-0.135210	3.275330	1.000000	0.000019	0.000044	-0.000077	-1.092195	-11.875338	-177.196634
15830	2.673907	-0.157249	12.816061	0.024390	-0.085976	3.279981	1.000000	-0.000011	0.000049	-0.000052	-1.095623	-11.874715	-177.201181
15831	2.706795	-0.161082	12.811528	-0.008622	-0.083347	3.282384	1.000000	0.000014	0.000035	-0.000076	-1.092499	-11.876776	-177.217903
15832	2.656756	-0.136992	12.816815	0.042584	-0.105121	3.276812	1.000000	0.000009	0.000042	-0.000082	-1.092892	-11.876953	-177.226011
15833	2.693097	-0.106819	12.808212	0.006712	-0.136924	3.275310	1.000000	-0.000015	0.000056	-0.000058	-1.094701	-11.876617	-177.238143
15834	2.703445	-0.159707	12.812252	-0.004951	-0.085051	3.282375	1.000000	0.000014	0.000035	-0.000076	-1.094714	-11.877667	-177.245475
15835	2.694484	-0.103253	12.832707	0.010654	-0.140830	3.299495	1.000000	0.000011	0.000055	-0.000072	-1.093289	-11.877261	-177.254422
15836	2.685784	-0.139367	12.813110	0.013227	-0.104475	3.279202	1.000000	-0.000002	0.000056	-0.000065	-1.095421	-11.875899	-177.260508
15837	2.718457	-0.143146	12.808643	-0.019790	-0.102357	3.281623	1.000000	0.000006	0.000045	-0.000070	-1.095661	-11.876555	-177.267544
15838	2.653191	-0.131693	12.842347	0.051525	-0.111262	3.300955	1.000000	0.000011	0.000037	-0.000064	-1.096356	-11.877272	-177.273474
15839	2.723489	-0.105594	12.829026	-0.018754	-0.140347	3.301900	1.000000	-0.000013	0.000059	-0.000089	-1.096842	-11.876416	-177.285134
15840	2.681255	-0.137701	12.814077	0.018151	-0.106632	3.279179	1.000000	0.000005	0.000022	-0.000068	-1.098115	-11.878928	-177.291534
15841	2.714131	-0.141526	12.809578	-0.015022	-0.104276	3.281614	1.000000	-0.000007	0.000063	-0.000071	-1.098693	-11.876876	-177.299626
15842	2.675210	-0.139572	12.790576	0.018966	-0.104738	3.254972	1.000000	0.000002	0.000042	-0.000064	-1.100413	-11.877098	-177.305551
15843	2.715263	-0.106792	12.805999	-0.014839	-0.139739	3.277687	1.000000	-0.000003	0.000049	-0.000070	-1.101978	-11.880004	-177.315199
15844	2.710450	-0.172163	12.838497	-0.006365	-0.075005	3.309718	1.000000	-0.000003	0.000049	-0.000070	-1.104081	-11.879366	-177.321896
15845	2.694041	-0.121044	12.810935	0.006466	-0.125013	3.278412	1.000000	0.000006	0.000045	-0.000070	-1.103447	-11.880978	-177.329686
15846	2.692928	-0.152136	12.839303	0.012035	-0.094460	3.306522	1.000000	0.000000	0.000047	-0.000082	-1.104870	-11.880681	-177.337774
15847	2.691610	-0.120146	12.811454	0.009001	-0.126151	3.278400	1.000000	0.000003	0.000054	-0.000053	-1.105348	-11.880577	-177.342112
15848	2.671885	-0.134697	12.816066	0.028776	-0.111102	3.279122	1.000000	0.000005	0.000022	-0.000068	-1.106623	-11.883107	-177.348501
15849	2.704787	-0.138448	12.811588	-0.004149	-0.108944	3.281584	1.000000	-0.000002	0.000062	-0.000059	-1.107781	-11.882285	-177.358736
15850	2.669475	-0.133766	12.816578	0.031340	-0.112307	3.279106	1.000000	0.000013	0.000046	-0.000089	-1.107535	-11.882116	-177.367587
15851	2.705954	-0.134774	12.836131	-0.000386	-0.112717	3.305770	1.000000	0.000002	0.000042	-0.000064	-1.106649	-11.882241	-177.378548
15852	2.682441	-0.120351	12.788627	0.013435	-0.126027	3.254175	1.000000	-0.000004	0.000043	-0.000076	-1.108721	-11.882323	-177.385855
15853	2.703863	-0.133966	12.836581	0.001754	-0.113499	3.305763	1.000000	0.000011	0.000037	-0.000064	-1.106419	-11.882463	-177.392962
15854	2.661630	-0.134469	12.793463	0.034191	-0.111037	3.254889	1.000000	-0.000010	0.000045	-0.000088	-1.108835	-11.882384	-177.401661
15855	2.694344	-0.138279	12.789043	0.001266	-0.108589	3.257372	1.000000	0.000003	0.000054	-0.000053	-1.108320	-11.882477	-177.409464
15856	2.678202	-0.150113	12.817669	0.022571	-0.096455	3.282278	1.000000	0.000024	0.000025	-0.000058	-1.107603	-11.884580	-177.414591
15857	2.695996	-0.134540	12.813483	0.005049	-0.112833	3.281551	1.000000	-0.000009	0.000051	-0.000082	-1.109547	-11.883569	-177.419252
15858	2.691139	-0.136762	12.789734	0.004666	-0.110637	3.257354	1.000000	0.000002	0.000048	-0.000058	-1.111304	-11.883101	-177.424528
15859	2.708787	-0.152885	12.813719	-0.008180	-0.095539	3.284759	1.000000	0.000006	0.000045	-0.000070	-1.110953	-11.883837	-177.434274
15860	2.692379	-0.133382	12.814255	0.008683	-0.114669	3.281533	1.000000	-0.000003	0.000049	-0.000070	-1.113059	-11.883211	-177.440944
15861	2.676136	-0.145418	12.842892	0.029801	-0.102318	3.306435	1.000000	0.000010	0.000037	-0.000064	-1.112727	-11.883088	-177.442903
15862	2.667862	-0.149970	12.795091	0.027867	-0.097198	3.258047	1.000000	0.000002	0.000048	-0.000058	-1.114488	-11.882620	-177.448171
15863	2.700617	-0.153520	12.790692	-0.005234	-0.094830	3.260556	1.000000	0.000010	0.000049	-0.000077	-1.112909	-11.882604	-177.460775
15864	2.687770	-0.131393	12.815243	0.013174	-0.116881	3.281510	1.000000	0.000002	0.000048	-0.000058	-1.114670	-11.882137	-177.466040
15865	2.686382	-0.131068	12.815538	0.014755	-0.117615	3.281502	1.000000	-0.000002	0.000062	-0.000059	-1.116989	-11.881974	-177.472410
15866	2.669834	-0.111513	12.816088	0.031618	-0.136743	3.278258	1.000000	0.000009	0.000042	-0.000082	-1.117395	-11.882182	-177.480457
15867	2.680299	-0.132521	12.792055	0.015553	-0.116107	3.257298	1.000000	0.000007	0.000051	-0.000065	-1.118416	-11.881537	-177.484036
15868	2.682664	-0.129476	12.816333	0.018261	-0.119758	3.281478	1.000000	0.000006	0.000045	-0.000070	-1.119506	-11.881410	-177.490684
15869	2.693185	-0.150551	12.792294	0.016447	0.030462	3.260855	1.000000	0.000006	0.000045	-0.000070	-0.547871	-11.977663	-173.444343
15870	2.683869	-0.126094	12.840856	0.038241	0.007792	3.306196	1.000000	-0.000007	0.000052	-0.000058	-0.549126	-11.976928	-173.443047
15871	2.694421	-0.147276	12.816813	0.020591	0.027497	3.285065	1.000000	0.000008	0.000036	-0.000088	-0.547068	-11.977726	-173.469015
15872	2.674366	-0.130259	12.793320	0.037028	0.012534	3.257764	1.000000	-0.000002	0.000062	-0.000059	-0.547717	-11.975903	-173.467855
15873	2.729503	-0.116188	12.808591	-0.011572	-0.007347	3.284011	1.000000	0.000013	0.000029	-0.000081	-0.546638	-11.978895	-173.445231
15874	2.706214	-0.133411	12.789152	0.005276	0.012033	3.260324	1.000000	-0.000017	0.000050	-0.000064	-0.548887	-11.978369	-173.444561
15875	2.712137	-0.128128	12.837449	0.009978	0.006593	3.308747	1.000000	0.000006	0.000045	-0.000070	-0.548421	-11.977945	-173.439560
15876	2.676957	-0.123710	12.842321	0.045635	0.006183	3.306173	1.000000	-0.000003	0.000050	-0.000070	-0.548998	-11.977530	-173.439658
15877	2.672220	-0.157415	12.846698	0.047158	0.040459	3.309787	1.000000	0.000006	0.000051	-0.000065	-0.547400	-11.976532	-173.474613
15878	2.708305	-0.126908	12.838270	0.013548	0.005971	3.308744	1.000000	-0.000003	0.000056	-0.000065	-0.548016	-11.975412	-173.474081
15879	2.666072	-0.127455	12.795079	0.045621	0.010602	3.257739	1.000000	0.000014	0.000035	-0.000076	-0.547038	-11.976778	-173.449987
15880	2.680281	-0.145979	12.795057	0.029817	0.027540	3.260838	1.000000	-0.000003	0.000050	-0.000070	-0.547618	-11.976362	-173.450084
15881	2.701296	-0.128093	12.814991	0.015483	0.007670	3.284530	1.000000	-0.000003	0.000050	-0.000070	-0.547745	-11.976146	-173.459541
15882	2.681400	-0.142563	12.819597	0.034110	0.024497	3.285043	1.000000	0.000019	0.000044	-0.000077	-0.545623	-11.976333	-173.460406
15883	2.657952	-0.127955	12.772030	0.048596	0.012187	3.233512	1.000000	0.000001	0.000042	-0.000064	-0.545528	-11.976248	-173.465458
15884	2.713208	-0.145447	12.815475	0.001998	0.024070	3.287636	1.000000	0.000006	0.000045	-0.000070	-0.545082	-11.976324	-173.465555
15885	2.696829	-0.125956	12.815953	0.020281	0.006429	3.284524	1.000000	0.000001	0.000042	-0.000064	-0.545953	-11.976854	-173.435238
15886	2.695694	-0.125582	12.816195	0.021506	0.006142	3.284522	1.000000	0.000002	0.000048	-0.000058	-0.546191	-11.976609	-173.433939
15887	2.694631	-0.125055	12.816424	0.022332	0.005882	3.284521	1.000000	0.000008	0.000036	-0.000088	-0.544679	-11.975989	-173.447378
15888	2.708858	-0.143560	12.816417	0.006515	0.022796	3.287637	1.000000	0.000002	0.000048	-0.000058	-0.544918	-11.975743	-173.446077
15889	2.669948	-0.141830	12.797264	0.040020	0.025003	3.260815	1.000000	-0.000002	0.000062	-0.000059	-0.545493	-11.972547	-173.445262
15890	2.687509	-0.157732	12.821325	0.026028	0.039340	3.288142	1.000000	0.000018	0.000038	-0.000082	-0.543338	-11.973436	-173.446753
15891	2.683006	-0.159743	12.797512	0.025357	0.041892	3.263932	1.000000	-0.000008	0.000040	-0.000069	-0.543241	-11.973884	-173.486322
15892	2.692372	-0.120211	12.841685	0.029903	0.002118	3.308718	1.000000	0.000006	0.000045	-0.000070	-0.542801	-11.973958	-173.486416
15893	2.702879	-0.141372	12.817703	0.012159	0.021702	3.287635	1.000000	-0.000003	0.000056	-0.000065	-0.542958	-11.972474	-173.497207
15894	2.686298	-0.121951	12.818203	0.030422	0.004210	3.284505	1.000000	0.000006	0.000045	-0.000070	-0.542519	-11.972547	-173.497299
15895	2.696975	-0.143102	12.794190	0.012618	0.023932	3.263426	1.000000	-0.000004	0.000043	-0.000076	-0.541925	-11.972269	-173.534011
15896	2.702758	-0.137538	12.842509	0.017531	0.018486	3.311839	1.000000	0.000011	0.000055	-0.000071	-0.540884	-11.971252	-173.534238
15897	2.698041	-0.139378	12.818744	0.016591	0.020817	3.287631	1.000000	0.000015	0.000041	-0.000070	-0.539053	-11.970444	-173.545663
15898	2.662897	-0.134953	12.823536	0.052239	0.020448	3.284990	1.000000	-0.000003	0.000050	-0.000070	-0.539648	-11.970023	-173.545753
15899	2.710890	-0.157580	12.819054	0.001800	0.037401	3.290767	1.000000	-0.000003	0.000056	-0.000065	-0.540362	-11.968025	-173.539753
15900	2.697733	-0.104050	12.815424	0.019715	-0.014424	3.283995	1.000000	0.000005	0.000039	-0.000076	-0.539888	-11.968800	-173.540473
15901	2.674686	-0.152642	12.824068	0.038626	0.036920	3.288118	1.000000	0.000014	0.000041	-0.000070	-0.537595	-11.969206	-173.564694
15902	2.707433	-0.124550	12.791640	0.003211	0.004952	3.262928	1.000000	-0.000013	0.000048	-0.000076	-0.539183	-11.968996	-173.565411
15903	2.690960	-0.136907	12.820259	0.023512	0.019154	3.287623	1.000000	0.000003	0.000054	-0.000053	-0.539666	-11.967285	-173.554682
15904	2.708257	-0.121281	12.816239	0.007354	0.001727	3.287133	1.000000	0.000011	0.000055	-0.000071	-0.538633	-11.966265	-173.554906
15905	2.684954	-0.138433	12.796770	0.023862	0.021366	3.263414	1.000000	0.000000	0.000036	-0.000069	-0.537688	-11.966480	-173.592184
15906	2.687498	-0.135428	12.821001	0.026951	0.018494	3.287618	1.000000	0.000005	0.000039	-0.000076	-0.537218	-11.967253	-173.592901
15907	2.686343	-0.135097	12.821247	0.027949	0.018248	3.287616	1.000000	-0.000007	0.000052	-0.000058	-0.538175	-11.965542	-173.601767
15908	2.666484	-0.149975	12.825807	0.046558	0.035092	3.288097	1.000000	0.000001	0.000042	-0.000064	-0.538390	-11.965995	-173.601089
15909	2.714657	-0.140984	12.793176	-0.005959	0.020369	3.266080	1.000000	-0.000009	0.000040	-0.000069	-0.539326	-11.966435	-173.607195
15910	2.683142	-0.134202	12.821926	0.031562	0.017430	3.287609	1.000000	0.000010	0.000038	-0.000064	-0.538511	-11.967380	-173.606516
15911	2.678582	-0.136122	12.798130	0.030835	0.019640	3.263402	1.000000	0.000010	0.000049	-0.000077	-0.537833	-11.966738	-173.590542
15912	2.696343	-0.152030	12.822189	0.016890	0.033954	3.290765	1.000000	0.000000	0.000036	-0.000069	-0.538010	-11.967894	-173.590493
15913	2.676623	-0.135221	12.798549	0.032942	0.019342	3.263398	1.000000	0.000000	0.000036	-0.000069	-0.536629	-11.967661	-173.646712
15914	2.697533	-0.117158	12.818539	0.018662	-0.000667	3.287122	1.000000	0.000004	0.000060	-0.000047	-0.536970	-11.965999	-173.644142
15915	2.689461	-0.153514	12.798888	0.018376	0.036176	3.266558	1.000000	-0.000004	0.000044	-0.000076	-0.536534	-11.966441	-173.676283
15916	2.691726	-0.150558	12.823176	0.021483	0.033297	3.290760	1.000000	0.000006	0.000051	-0.000065	-0.536153	-11.965801	-173.675737
15917	2.712561	-0.132452	12.843187	0.007005	0.013466	3.314489	1.000000	-0.000004	0.000050	-0.000070	-0.535846	-11.964550	-173.707826
15918	2.673787	-0.130836	12.823915	0.040759	0.015675	3.287586	1.000000	0.000001	0.000053	-0.000077	-0.535814	-11.963737	-173.708672
15919	2.703093	-0.136619	12.795672	0.005530	0.018059	3.266083	1.000000	0.000015	0.000047	-0.000065	-0.534314	-11.962999	-173.709599
15920	2.686675	-0.117094	12.796086	0.023780	0.000561	3.262908	1.000000	0.000000	0.000036	-0.000069	-0.534495	-11.964153	-173.709546
15921	2.685598	-0.116761	12.796315	0.024896	0.000305	3.262906	1.000000	-0.000004	0.000050	-0.000070	-0.534880	-11.963277	-173.716957
15922	2.684577	-0.147929	12.824705	0.028378	0.031755	3.290751	1.000000	0.000005	0.000045	-0.000070	-0.534462	-11.963340	-173.717038
15923	2.671493	-0.125897	12.849168	0.048621	0.011803	3.311769	1.000000	0.000005	0.000045	-0.000070	-0.533461	-11.963823	-173.731808
15924	2.728212	-0.172314	12.796525	-0.022448	0.051166	3.272448	1.000000	-0.000004	0.000050	-0.000070	-0.534076	-11.963394	-173.731888
15925	2.677702	-0.149133	12.801405	0.030049	0.033685	3.266543	1.000000	0.000010	0.000038	-0.000064	-0.532779	-11.963589	-173.748028
15926	2.676550	-0.148807	12.801650	0.031267	0.033394	3.266541	1.000000	-0.000013	0.000054	-0.000070	-0.534426	-11.962669	-173.748107
15927	2.678816	-0.145621	12.825936	0.034170	0.030443	3.290740	1.000000	0.000033	0.000039	-0.000065	-0.531165	-11.962481	-173.741656
15928	2.681132	-0.142319	12.850213	0.037307	0.027559	3.314938	1.000000	-0.000004	0.000050	-0.000070	-0.531783	-11.962051	-173.741735
15929	2.695352	-0.129175	12.822113	0.019254	0.012625	3.290277	1.000000	0.000013	0.000029	-0.000081	-0.530721	-11.964079	-173.723936
15930	2.706405	-0.150190	12.798104	0.001509	0.032108	3.269270	1.000000	-0.000002	0.000045	-0.000052	-0.531633	-11.964208	-173.721857
15931	2.727323	-0.132068	12.818112	-0.012843	0.012029	3.293014	1.000000	0.000005	0.000045	-0.000070	-0.531337	-11.963707	-173.716751
15932	2.704131	-0.149306	12.798595	0.003820	0.031479	3.269271	1.000000	0.000005	0.000045	-0.000070	-0.530927	-11.963767	-173.716828
15933	2.709644	-0.112054	12.818774	0.006670	-0.005722	3.289816	1.000000	0.000011	0.000044	-0.000058	-0.530092	-11.964060	-173.715312
15934	2.671012	-0.110443	12.799424	0.040381	-0.003438	3.262867	1.000000	-0.000004	0.000050	-0.000070	-0.530715	-11.963629	-173.715389
15935	2.688592	-0.126341	12.823561	0.026304	0.010722	3.290266	1.000000	0.000010	0.000049	-0.000077	-0.530183	-11.962476	-173.698990
15936	2.702764	-0.144802	12.823663	0.010463	0.027593	3.293470	1.000000	-0.000004	0.000050	-0.000070	-0.530808	-11.962045	-173.699066
15937	2.679504	-0.162252	12.804151	0.026948	0.047262	3.269720	1.000000	0.000002	0.000048	-0.000058	-0.530037	-11.961119	-173.735766
15938	2.696947	-0.146610	12.800142	0.010806	0.029808	3.269271	1.000000	0.000005	0.000045	-0.000070	-0.529631	-11.961177	-173.735841
15939	2.695727	-0.146101	12.800404	0.011793	0.029487	3.269271	1.000000	0.000006	0.000051	-0.000065	-0.529271	-11.959503	-173.737855
15940	2.660355	-0.142113	12.805101	0.047428	0.029194	3.266503	1.000000	-0.000013	0.000054	-0.000070	-0.530930	-11.958580	-173.737930
15941	2.696287	-0.111336	12.796864	0.013665	-0.005247	3.265610	1.000000	0.000009	0.000049	-0.000077	-0.528889	-11.957151	-173.778355
15942	2.698780	-0.139738	12.849284	0.019096	0.023595	3.317663	1.000000	0.000005	0.000039	-0.000076	-0.528444	-11.957912	-173.779057
15943	2.675738	-0.157122	12.829719	0.035629	0.043136	3.293907	1.000000	-0.000005	0.000044	-0.000075	-0.528590	-11.957744	-173.795310
15944	2.699906	-0.104859	12.845621	0.021130	-0.011244	3.313999	1.000000	0.000000	0.000036	-0.000069	-0.528786	-11.958892	-173.795249
15945	2.692200	-0.141389	12.825923	0.020699	0.025476	3.293462	1.000000	-0.000011	0.000055	-0.000046	-0.530372	-11.957800	-173.805966
15946	2.691019	-0.140954	12.826176	0.021920	0.025182	3.293461	1.000000	0.000018	0.000038	-0.000082	-0.528258	-11.958661	-173.807429
15947	2.690032	-0.140432	12.826389	0.023096	0.025120	3.293459	1.000000	-0.000009	0.000040	-0.000069	-0.528351	-11.959159	-173.846806
15948	2.710976	-0.122367	12.846406	0.008910	0.005072	3.317218	1.000000	0.000001	0.000042	-0.000064	-0.528592	-11.959600	-173.846114
15949	2.691313	-0.137231	12.850877	0.027515	0.021827	3.317651	1.000000	0.000001	0.000042	-0.000064	-0.529337	-11.960075	-173.825763
15950	2.686562	-0.108067	12.798937	0.024501	-0.007597	3.265593	1.000000	-0.000011	0.000049	-0.000052	-0.531295	-11.959709	-173.823679
15951	2.701079	-0.158057	12.827185	0.010792	0.040987	3.296686	1.000000	0.000016	0.000044	-0.000100	-0.528896	-11.959367	-173.829454
15952	2.696542	-0.160013	12.803395	0.010039	0.043292	3.272491	1.000000	-0.000004	0.000050	-0.000070	-0.529533	-11.958930	-173.829524
15953	2.705262	-0.120208	12.847631	0.014932	0.003462	3.317213	1.000000	0.000014	0.000041	-0.000070	-0.528120	-11.959548	-173.827171
15954	2.663297	-0.121283	12.804169	0.046615	0.008383	3.266011	1.000000	-0.000007	0.000052	-0.000058	-0.529442	-11.958794	-173.825848
15955	2.699397	-0.122035	12.824121	0.015292	0.005569	3.293016	1.000000	0.000006	0.000052	-0.000065	-0.528578	-11.957687	-173.844513
15956	2.660982	-0.152220	12.832847	0.051216	0.039614	3.293867	1.000000	-0.000008	0.000046	-0.000064	-0.529858	-11.957637	-173.843820
15957	2.697121	-0.121458	12.824606	0.017726	0.004912	3.293013	1.000000	0.000000	0.000036	-0.000069	-0.530356	-11.958694	-173.832127
15958	2.692972	-0.155342	12.828922	0.019223	0.038946	3.296683	1.000000	-0.000008	0.000046	-0.000064	-0.531637	-11.958644	-173.831432
15959	2.703743	-0.144989	12.776843	-0.000937	0.026479	3.247874	1.000000	0.000001	0.000042	-0.000064	-0.532740	-11.958788	-173.800371
15960	2.675315	-0.135695	12.829517	0.038679	0.021032	3.293430	1.000000	0.000009	0.000043	-0.000082	-0.531668	-11.959154	-173.801828
15961	2.708406	-0.138751	12.825375	0.005403	0.020671	3.296260	1.000000	0.000006	0.000034	-0.000057	-0.531521	-11.960084	-173.801581
15962	2.688519	-0.122088	12.801683	0.021712	0.005845	3.268812	1.000000	-0.000004	0.000050	-0.000070	-0.532166	-11.959644	-173.801647
15963	2.699519	-0.143035	12.777758	0.003650	0.025348	3.247875	1.000000	0.000014	0.000041	-0.000070	-0.530362	-11.959328	-173.819416
15964	2.720596	-0.156116	12.825965	-0.008211	0.036975	3.299519	1.000000	0.000005	0.000045	-0.000070	-0.529976	-11.959376	-173.819480
15965	2.681798	-0.123032	12.778362	0.023007	0.007647	3.244615	1.000000	0.000005	0.000045	-0.000070	-0.529390	-11.958717	-173.830391
15966	2.702856	-0.136294	12.826572	0.011156	0.019273	3.296259	1.000000	0.000001	0.000042	-0.000064	-0.529645	-11.959154	-173.829693
15967	2.664470	-0.134775	12.807071	0.044762	0.021624	3.269215	1.000000	0.000008	0.000037	-0.000087	-0.528681	-11.960149	-173.825942
15968	2.693770	-0.140569	12.778998	0.009560	0.023859	3.247875	1.000000	-0.000012	0.000077	-0.000072	-0.530209	-11.956544	-173.826271
15969	2.701985	-0.100842	12.823319	0.014639	-0.016015	3.292576	1.000000	0.000014	0.000041	-0.000070	-0.528988	-11.957270	-173.816927
15970	2.679298	-0.149909	12.831850	0.033387	0.035231	3.296665	1.000000	-0.000012	0.000043	-0.000057	-0.530916	-11.957606	-173.815468
15971	2.693506	-0.136952	12.803813	0.015303	0.020414	3.272064	1.000000	0.000004	0.000039	-0.000075	-0.530110	-11.958488	-173.828109
15972	2.680191	-0.115114	12.828213	0.035646	0.000395	3.292978	1.000000	-0.000004	0.000050	-0.000070	-0.530763	-11.958046	-173.828171
15973	2.691227	-0.136234	12.804300	0.017720	0.019787	3.272062	1.000000	0.000001	0.000042	-0.000064	-0.531182	-11.958369	-173.821105
15974	2.674997	-0.148424	12.832764	0.038271	0.034104	3.296655	1.000000	0.000015	0.000036	-0.000052	-0.530057	-11.959464	-173.819010
15975	2.707683	-0.120165	12.800549	0.002793	0.002022	3.271655	1.000000	-0.000023	0.000052	-0.000075	-0.532486	-11.958474	-173.829740
15976	2.691239	-0.132636	12.829053	0.023349	0.016338	3.296247	1.000000	0.000009	0.000043	-0.000082	-0.531426	-11.958834	-173.831190
15977	2.686876	-0.134527	12.805232	0.022364	0.018615	3.272056	1.000000	0.000014	0.000041	-0.000070	-0.530094	-11.958596	-173.833204
15978	2.716625	-0.140210	12.777102	-0.012860	0.020807	3.250752	1.000000	-0.000009	0.000040	-0.000069	-0.531345	-11.959246	-173.833133
15979	2.669269	-0.115035	12.805776	0.041836	0.000907	3.268764	1.000000	-0.000005	0.000044	-0.000075	-0.531996	-11.959152	-173.834197
15980	2.705640	-0.115640	12.825746	0.010697	-0.002126	3.295841	1.000000	0.000000	0.000036	-0.000069	-0.532215	-11.960289	-173.834123
15981	2.676467	-0.169849	12.786148	0.025318	0.054353	3.251550	1.000000	0.000005	0.000046	-0.000070	-0.531885	-11.960448	-173.830844
15982	2.700026	-0.117256	12.802193	0.011126	-0.000116	3.271651	1.000000	0.000004	0.000057	-0.000083	-0.531272	-11.959224	-173.832424
15983	2.683460	-0.129341	12.830716	0.031672	0.014068	3.296232	1.000000	0.000015	0.000047	-0.000065	-0.530635	-11.958945	-173.804313
15984	2.685695	-0.126198	12.854994	0.034951	0.011164	3.320416	1.000000	0.000000	0.000036	-0.000069	-0.530856	-11.960081	-173.804238
15985	2.684611	-0.125875	12.855223	0.036126	0.010895	3.320413	1.000000	-0.000004	0.000050	-0.000070	-0.531371	-11.959421	-173.810721
15986	2.677122	-0.162421	12.835519	0.035430	0.047540	3.299917	1.000000	-0.000008	0.000046	-0.000063	-0.532672	-11.959365	-173.810018
15987	2.691219	-0.149368	12.807530	0.017296	0.032669	3.275339	1.000000	0.000005	0.000046	-0.000070	-0.531988	-11.959316	-173.821651
15988	2.693252	-0.146312	12.831850	0.020580	0.029762	3.299524	1.000000	0.000000	0.000053	-0.000076	-0.532017	-11.958479	-173.822468
15989	2.692129	-0.145918	12.832090	0.021773	0.029440	3.299522	1.000000	0.000000	0.000036	-0.000069	-0.532353	-11.959487	-173.818153
15990	2.691182	-0.145474	12.832294	0.022994	0.029145	3.299521	1.000000	0.000004	0.000039	-0.000075	-0.531941	-11.960232	-173.818837
15991	2.702375	-0.166598	12.808389	0.004863	0.048531	3.278647	1.000000	-0.000006	0.000047	-0.000040	-0.533498	-11.959399	-173.822782
15992	2.707469	-0.129487	12.828597	0.008034	0.011293	3.299134	1.000000	0.000008	0.000043	-0.000082	-0.532450	-11.959752	-173.824224
15993	2.702945	-0.131810	12.804811	0.007192	0.013541	3.274949	1.000000	-0.000017	0.000057	-0.000058	-0.535151	-11.958532	-173.810340
15994	2.705108	-0.128927	12.829101	0.010494	0.010632	3.299133	1.000000	0.000007	0.000031	-0.000093	-0.534013	-11.960295	-173.813041
15995	2.670036	-0.124773	12.833561	0.046070	0.010640	3.296192	1.000000	0.000015	0.000047	-0.000064	-0.532177	-11.959940	-173.831462
15996	2.699639	-0.130324	12.805523	0.010809	0.012752	3.274947	1.000000	-0.000004	0.000050	-0.000070	-0.532849	-11.959490	-173.831516
15997	2.695442	-0.164208	12.809880	0.012055	0.046860	3.278648	1.000000	-0.000004	0.000050	-0.000070	-0.533120	-11.958675	-173.849104
15998	2.697320	-0.129689	12.806018	0.013162	0.012236	3.274946	1.000000	0.000006	0.000034	-0.000057	-0.532998	-11.959979	-173.847633
15999	2.715010	-0.145527	12.830246	-0.000898	0.026543	3.302456	1.000000	-0.000003	0.000056	-0.000064	-0.532889	-11.957836	-173.886480
16000	2.694864	-0.128692	12.806546	0.015369	0.011793	3.274944	1.000000	0.000022	0.000048	-0.000083	-0.530223	-11.957576	-173.888046
16001	2.696980	-0.125213	12.830849	0.018520	0.008980	3.299126	1.000000	0.000014	0.000041	-0.000070	-0.528264	-11.957416	-173.914445
16002	2.673990	-0.142875	12.811212	0.034913	0.028558	3.275313	1.000000	-0.000017	0.000057	-0.000058	-0.530658	-11.956165	-173.913110
16003	2.710113	-0.143488	12.831305	0.003769	0.025382	3.302457	1.000000	0.000004	0.000039	-0.000075	-0.530543	-11.956616	-173.905057
16004	2.690212	-0.126798	12.807543	0.020030	0.010639	3.274938	1.000000	0.000005	0.000046	-0.000070	-0.530187	-11.956651	-173.905105
16005	2.689141	-0.126291	12.807772	0.021328	0.010336	3.274937	1.000000	0.000004	0.000039	-0.000075	-0.529859	-11.957725	-173.899926
16006	2.687991	-0.125789	12.808019	0.022549	0.010040	3.274935	1.000000	0.000006	0.000052	-0.000064	-0.529552	-11.957054	-173.899344
16007	2.686786	-0.125404	12.808275	0.023614	0.009619	3.274933	1.000000	-0.000005	0.000044	-0.000075	-0.530690	-11.956573	-173.887866
16008	2.704260	-0.109733	12.804346	0.007592	-0.007957	3.274566	1.000000	-0.000006	0.000038	-0.000081	-0.531278	-11.957530	-173.889174
16009	2.666010	-0.140239	12.812904	0.043176	0.026362	3.275293	1.000000	-0.000003	0.000062	-0.000059	-0.531700	-11.955132	-173.905988
16010	2.689716	-0.119141	12.857141	0.031385	0.003549	3.323288	1.000000	0.000013	0.000035	-0.000075	-0.530267	-11.956355	-173.906660
16011	2.703912	-0.105849	12.829169	0.013172	-0.011428	3.298744	1.000000	-0.000004	0.000050	-0.000070	-0.531003	-11.955550	-173.907698
16012	2.696657	-0.142305	12.809445	0.012360	0.025221	3.278275	1.000000	0.000001	0.000042	-0.000063	-0.531289	-11.955973	-173.906984
16013	2.679915	-0.123149	12.809737	0.030505	0.007864	3.274920	1.000000	-0.000001	0.000047	-0.000082	-0.531232	-11.954807	-173.920205
16014	2.663371	-0.135528	12.838204	0.051091	0.022232	3.299455	1.000000	-0.000000	0.000053	-0.000076	-0.531285	-11.953961	-173.921011
16015	2.696114	-0.138514	12.834308	0.017849	0.021655	3.302452	1.000000	0.000002	0.000054	-0.000053	-0.531797	-11.952660	-173.916828
16016	2.688474	-0.143239	12.786449	0.014808	0.026602	3.254093	1.000000	0.000008	0.000043	-0.000082	-0.530768	-11.953004	-173.918258
16017	2.659870	-0.133968	12.838946	0.054604	0.021331	3.299442	1.000000	0.000012	0.000029	-0.000081	-0.529153	-11.954558	-173.928674
16018	2.692950	-0.136880	12.834990	0.021431	0.020781	3.302449	1.000000	-0.000008	0.000052	-0.000058	-0.530526	-11.953789	-173.927332
16019	2.703711	-0.126388	12.783017	0.001102	0.008435	3.253738	1.000000	0.000006	0.000052	-0.000064	-0.530212	-11.952914	-173.929038
16020	2.687203	-0.138696	12.811471	0.021690	0.022808	3.278267	1.000000	0.000005	0.000046	-0.000070	-0.529869	-11.952942	-173.929080
16021	2.686132	-0.138192	12.811701	0.022827	0.022578	3.278266	1.000000	0.000004	0.000040	-0.000075	-0.529108	-11.953320	-173.947008
16022	2.691056	-0.100797	12.831913	0.026129	-0.014670	3.298721	1.000000	0.000015	0.000048	-0.000064	-0.527779	-11.953128	-173.946415
16023	2.702808	-0.153015	12.836195	0.010199	0.036334	3.305814	1.000000	0.000008	0.000037	-0.000087	-0.526928	-11.953952	-173.942709
16024	2.682904	-0.136385	12.812397	0.026439	0.021635	3.278260	1.000000	0.000001	0.000048	-0.000058	-0.527271	-11.953667	-173.941361
16025	2.697156	-0.154829	12.812661	0.010371	0.038331	3.281636	1.000000	-0.000003	0.000062	-0.000059	-0.528137	-11.951279	-173.942852
16026	2.698554	-0.120404	12.808874	0.011545	0.003706	3.277912	1.000000	-0.000004	0.000050	-0.000070	-0.528834	-11.950821	-173.942895
16027	2.678963	-0.135450	12.813231	0.030001	0.020762	3.278254	1.000000	0.000004	0.000040	-0.000075	-0.528234	-11.951641	-173.950153
16028	2.678014	-0.135014	12.813434	0.031221	0.020465	3.278252	1.000000	-0.000000	0.000036	-0.000069	-0.528483	-11.952765	-173.950062
16029	2.729893	-0.153914	12.833564	-0.017065	0.034286	3.308856	1.000000	0.000009	0.000049	-0.000076	-0.527370	-11.951945	-173.960896
16030	2.663155	-0.112645	12.838029	0.052900	0.000246	3.299035	1.000000	-0.000000	0.000053	-0.000076	-0.527436	-11.951093	-173.961695
16031	2.693275	-0.149717	12.838238	0.019717	0.034056	3.305809	1.000000	0.000001	0.000042	-0.000063	-0.527335	-11.951291	-173.978050
16032	2.673212	-0.133122	12.814457	0.035944	0.019369	3.278241	1.000000	0.000010	0.000055	-0.000071	-0.526415	-11.950218	-173.978215
16033	2.706273	-0.135706	12.810559	0.002742	0.018673	3.281296	1.000000	0.000012	0.000029	-0.000081	-0.525393	-11.951968	-173.964819
16034	2.686848	-0.150609	12.814876	0.021168	0.035691	3.281631	1.000000	0.000001	0.000048	-0.000058	-0.525743	-11.951680	-173.963468
16035	2.719788	-0.153451	12.811010	-0.012141	0.035151	3.284693	1.000000	0.000005	0.000046	-0.000070	-0.525028	-11.951082	-173.984503
16036	2.706114	-0.131612	12.835341	0.008439	0.015211	3.305470	1.000000	0.000005	0.000046	-0.000070	-0.524697	-11.951105	-173.984538
16037	2.717084	-0.120941	12.783358	-0.011988	0.002899	3.256791	1.000000	-0.000001	0.000047	-0.000082	-0.524481	-11.950617	-173.998646
16038	2.678968	-0.151372	12.791822	0.023644	0.037231	3.257452	1.000000	0.000011	0.000050	-0.000052	-0.523847	-11.950107	-173.996660
16039	2.733344	-0.135784	12.807975	-0.024738	0.016749	3.284371	1.000000	0.000017	0.000056	-0.000089	-0.521210	-11.948111	-174.023547
16040	2.682759	-0.144739	12.840496	0.030267	0.031432	3.305795	1.000000	-0.000000	0.000036	-0.000069	-0.521467	-11.949231	-174.023453
16041	2.681122	-0.112890	12.812603	0.029141	-0.000634	3.277886	1.000000	-0.000003	0.000062	-0.000059	-0.522556	-11.946755	-174.019619
16042	2.680194	-0.144140	12.841039	0.032576	0.030760	3.305791	1.000000	0.000001	0.000042	-0.000063	-0.522864	-11.947169	-174.018895
16043	2.657418	-0.161865	12.821316	0.048807	0.050459	3.281941	1.000000	-0.000000	0.000053	-0.000076	-0.522725	-11.946325	-174.027450
16044	2.693001	-0.130540	12.813410	0.015621	0.015518	3.281291	1.000000	0.000001	0.000048	-0.000058	-0.523083	-11.946034	-174.026096
16045	2.639303	-0.142270	12.821827	0.068286	0.032862	3.278518	1.000000	0.000014	0.000041	-0.000070	-0.521631	-11.945900	-174.037406
16046	2.675563	-0.142201	12.842026	0.037320	0.029611	3.305781	1.000000	0.000010	0.000038	-0.000063	-0.520905	-11.946797	-174.036676
16047	2.689924	-0.128726	12.814074	0.019081	0.014685	3.281288	1.000000	0.000007	0.000037	-0.000087	-0.519517	-11.947594	-174.053804
16048	2.725930	-0.128846	12.834334	-0.011877	0.011425	3.308561	1.000000	-0.000003	0.000062	-0.000059	-0.520331	-11.945721	-174.052579
16049	2.718378	-0.133622	12.786477	-0.015136	0.016278	3.260221	1.000000	0.000014	0.000041	-0.000070	-0.519432	-11.945907	-174.040558
16050	2.720424	-0.130486	12.810780	-0.011706	0.013339	3.284393	1.000000	-0.000005	0.000044	-0.000075	-0.520098	-11.946147	-174.041222
16051	2.688193	-0.124284	12.839180	0.026108	0.010694	3.305451	1.000000	0.000005	0.000052	-0.000064	-0.520075	-11.945413	-174.032902
16052	2.699468	-0.145155	12.815404	0.007914	0.030014	3.284709	1.000000	-0.000000	0.000053	-0.000076	-0.520160	-11.944554	-174.033692
16053	2.685525	-0.123400	12.839746	0.028576	0.010073	3.305447	1.000000	0.000005	0.000052	-0.000064	-0.520011	-11.943948	-174.028497
16054	2.662493	-0.141147	12.820066	0.044754	0.029756	3.281586	1.000000	-0.000004	0.000067	-0.000077	-0.520552	-11.941506	-174.029418
16055	2.648553	-0.119365	12.844399	0.065415	0.009873	3.302316	1.000000	0.000007	0.000037	-0.000087	-0.519379	-11.942587	-174.035576
16056	2.644198	-0.121559	12.820590	0.064410	0.012216	3.278141	1.000000	-0.000003	0.000062	-0.000059	-0.520201	-11.940711	-174.034349
16057	2.646227	-0.118577	12.844886	0.067767	0.009262	3.302304	1.000000	0.000004	0.000022	-0.000068	-0.520056	-11.942984	-174.037942
16058	2.642220	-0.120856	12.821004	0.066757	0.011606	3.278130	1.000000	-0.000004	0.000050	-0.000070	-0.520779	-11.942517	-174.037973
16059	2.622860	-0.135946	12.825269	0.085036	0.028625	3.278430	1.000000	0.000008	0.000026	-0.000074	-0.520079	-11.944313	-174.041107
16060	2.712072	-0.123659	12.837320	0.002563	0.007561	3.308569	1.000000	-0.000006	0.000020	-0.000073	-0.520880	-11.947232	-174.041509
16061	2.711566	-0.123411	12.837430	0.003687	0.007324	3.308568	1.000000	-0.000006	0.000020	-0.000073	-0.521339	-11.949735	-174.060126
16062	2.738950	-0.131579	12.785371	-0.033954	0.011910	3.263381	1.000000	-0.000005	0.000027	-0.000068	-0.522192	-11.951948	-174.059897
16063	2.778565	-0.129119	12.829638	-0.062723	0.005956	3.314869	1.000000	-0.000001	0.000030	-0.000074	-0.522307	-11.953344	-174.070411
16064	2.755744	-0.115183	12.781663	-0.048779	-0.006041	3.263088	1.000000	0.000014	0.000042	-0.000070	-0.520961	-11.953840	-174.070430
16065	2.736215	-0.130176	12.785971	-0.030488	0.010973	3.263391	1.000000	0.000001	0.000048	-0.000058	-0.521454	-11.953107	-174.071553
16066	2.772204	-0.130345	12.806287	-0.061397	0.007626	3.290720	1.000000	-0.000005	0.000050	-0.000070	-0.522184	-11.952638	-174.071582
16067	2.749273	-0.148193	12.786586	-0.045423	0.027255	3.266856	1.000000	0.000001	0.000066	-0.000065	-0.522606	-11.949656	-174.073945
16068	2.713418	-0.144633	12.790976	-0.009827	0.027353	3.263695	1.000000	0.000005	0.000069	-0.000072	-0.522176	-11.946986	-174.074225
16069	2.696359	-0.157159	12.819474	0.010741	0.041814	3.288156	1.000000	-0.000002	0.000068	-0.000053	-0.522839	-11.944097	-174.085166
16070	2.660596	-0.153569	12.823827	0.046337	0.041922	3.284984	1.000000	0.000014	0.000059	-0.000077	-0.521323	-11.942614	-174.086069
16071	2.643770	-0.165751	12.852269	0.066942	0.056319	3.309438	1.000000	0.000016	0.000060	-0.000053	-0.520274	-11.940852	-174.081500
16072	2.620665	-0.151884	12.804330	0.080851	0.044359	3.257634	1.000000	-0.000000	0.000036	-0.000069	-0.520551	-11.941962	-174.081394
16073	2.656834	-0.151609	12.824630	0.049903	0.040993	3.284974	1.000000	0.000027	0.000047	-0.000071	-0.517578	-11.941586	-174.085873
16074	2.658606	-0.148262	12.848981	0.053392	0.038053	3.309134	1.000000	0.000002	0.000054	-0.000052	-0.518010	-11.940581	-174.083878
16075	2.651355	-0.153215	12.801068	0.050062	0.042983	3.260803	1.000000	-0.000000	0.000036	-0.000069	-0.518602	-11.941686	-174.073692
16076	2.671852	-0.134544	12.821305	0.036413	0.022662	3.284676	1.000000	0.000009	0.000038	-0.000063	-0.517896	-11.942573	-174.072950
16077	2.670892	-0.133965	12.821511	0.037593	0.022304	3.284673	1.000000	0.000009	0.000038	-0.000063	-0.517458	-11.943269	-174.066375
16078	2.725467	-0.118167	12.837785	-0.010415	0.001517	3.311746	1.000000	0.000014	0.000042	-0.000070	-0.516122	-11.943759	-174.066388
16079	2.720883	-0.088779	12.785774	-0.013801	-0.027803	3.259656	1.000000	-0.000005	0.000044	-0.000075	-0.516684	-11.943370	-174.081353
16080	2.739078	-0.135825	12.838312	-0.025349	0.017855	3.315233	1.000000	0.000008	0.000043	-0.000081	-0.515705	-11.943688	-174.082755
16081	2.737487	-0.103718	12.810391	-0.026315	-0.014087	3.287306	1.000000	-0.000003	0.000046	-0.000105	-0.515264	-11.943642	-174.093741
16082	2.714826	-0.121496	12.790615	-0.010250	0.005643	3.263425	1.000000	-0.000000	0.000054	-0.000076	-0.515376	-11.942773	-174.094518
16083	2.716507	-0.118444	12.814985	-0.006836	0.002612	3.287588	1.000000	-0.000000	0.000054	-0.000076	-0.515802	-11.941430	-174.092571
16084	2.693711	-0.136391	12.795231	0.009216	0.022350	3.263705	1.000000	-0.000010	0.000058	-0.000076	-0.516954	-11.940079	-174.093353
16085	2.676975	-0.149041	12.823632	0.029742	0.036786	3.288142	1.000000	-0.000000	0.000054	-0.000076	-0.517057	-11.938671	-174.103554
16086	2.706768	-0.154317	12.795882	-0.005715	0.038656	3.267201	1.000000	-0.000001	0.000054	-0.000076	-0.517173	-11.937800	-174.104330
16087	2.655300	-0.132612	12.800084	0.047122	0.021853	3.260478	1.000000	-0.000022	0.000065	-0.000064	-0.520367	-11.935636	-174.093581
16088	2.669882	-0.150735	12.800413	0.031084	0.038469	3.263975	1.000000	0.000032	0.000033	-0.000070	-0.516963	-11.937082	-174.093576
16089	2.658979	-0.125931	12.848748	0.054140	0.015860	3.308790	1.000000	0.000009	0.000055	-0.000071	-0.516604	-11.935795	-174.079742
16090	2.673578	-0.144008	12.849078	0.038100	0.032468	3.312291	1.000000	0.000006	0.000041	-0.000051	-0.516590	-11.936368	-174.077611
16091	2.719002	-0.136224	12.793190	-0.016933	0.019603	3.266937	1.000000	0.000010	0.000044	-0.000058	-0.515591	-11.935900	-174.099338
16092	2.686571	-0.130167	12.821482	0.020973	0.017155	3.287858	1.000000	-0.000004	0.000056	-0.000064	-0.516395	-11.934719	-174.098728
16093	2.684771	-0.098158	12.793594	0.019933	-0.014829	3.259920	1.000000	0.000014	0.000048	-0.000064	-0.515127	-11.934087	-174.104806
16094	2.686569	-0.094944	12.817933	0.023477	-0.017779	3.284076	1.000000	-0.000001	0.000047	-0.000081	-0.515197	-11.933919	-174.106208
16095	2.667509	-0.141861	12.850363	0.043986	0.030970	3.312276	1.000000	-0.000007	0.000047	-0.000039	-0.517108	-11.933753	-174.095316
16096	2.665509	-0.078183	12.794241	0.040887	-0.032666	3.256396	1.000000	0.000032	0.000033	-0.000070	-0.513709	-11.935196	-174.095307
16097	2.667939	-0.106341	12.846720	0.046502	-0.003915	3.308488	1.000000	-0.000005	0.000050	-0.000070	-0.514233	-11.934319	-174.110042
16098	2.663677	-0.108751	12.822902	0.045396	-0.001562	3.284326	1.000000	-0.000005	0.000050	-0.000070	-0.514988	-11.933841	-174.110059
16099	2.644231	-0.124106	12.827135	0.063681	0.015502	3.284582	1.000000	-0.000006	0.000038	-0.000080	-0.515939	-11.934589	-174.104397
16100	2.646267	-0.121175	12.851418	0.067239	0.012556	3.308733	1.000000	-0.000006	0.000038	-0.000080	-0.516591	-11.935521	-174.105672
16101	2.636484	-0.128952	12.779337	0.061421	0.020211	3.236258	1.000000	-0.000011	0.000028	-0.000079	-0.517821	-11.937454	-174.108343
16102	2.642281	-0.154796	12.855819	0.069475	0.046279	3.312507	1.000000	0.000008	0.000026	-0.000074	-0.517026	-11.939741	-174.108850
16103	2.688596	-0.178899	12.828070	0.016669	0.065033	3.295151	1.000000	-0.000033	0.000033	-0.000073	-0.520615	-11.941022	-174.124171
16104	2.687223	-0.147415	12.800082	0.015725	0.033066	3.267208	1.000000	-0.000000	0.000036	-0.000069	-0.520913	-11.942124	-174.124054
16105	2.687004	-0.178542	12.828408	0.019077	0.064299	3.295151	1.000000	0.000004	0.000022	-0.000068	-0.521356	-11.944743	-174.105096
16106	2.738875	-0.165377	12.820656	-0.031153	0.045984	3.298183	1.000000	0.000004	0.000029	-0.000062	-0.521246	-11.946720	-174.104218
16107	2.719703	-0.180536	12.824834	-0.012869	0.063103	3.298438	1.000000	0.000004	0.000040	-0.000075	-0.520991	-11.947378	-174.102743
16108	2.737168	-0.164419	12.821033	-0.028728	0.045348	3.298191	1.000000	0.000004	0.000029	-0.000062	-0.520882	-11.949355	-174.101865
16109	2.751635	-0.150851	12.793154	-0.046995	0.030289	3.273791	1.000000	0.000013	0.000042	-0.000070	-0.519370	-11.949597	-174.112783
16110	2.735189	-0.163223	12.821471	-0.026342	0.044775	3.298198	1.000000	0.000004	0.000046	-0.000070	-0.519097	-11.949595	-174.112788
16111	2.752233	-0.147168	12.817761	-0.042320	0.026982	3.297955	1.000000	0.000001	0.000055	-0.000052	-0.519672	-11.948001	-174.118014
16112	2.722248	-0.106841	12.841910	-0.004146	-0.009712	3.315016	1.000000	0.000019	0.000040	-0.000058	-0.518005	-11.948649	-174.116622
16113	2.718779	-0.140278	12.846221	-0.003186	0.024304	3.318810	1.000000	0.000013	0.000042	-0.000069	-0.516656	-11.948952	-174.120543
16114	2.695704	-0.126517	12.798220	0.010588	0.012449	3.266953	1.000000	-0.000000	0.000060	-0.000071	-0.516850	-11.947367	-174.120678
16115	2.697155	-0.123283	12.822629	0.014060	0.009436	3.291105	1.000000	0.000013	0.000059	-0.000077	-0.515558	-11.945304	-174.125955
16116	2.695704	-0.122601	12.822941	0.015282	0.009134	3.291104	1.000000	0.000009	0.000056	-0.000070	-0.514715	-11.944198	-174.126082
16117	2.659620	-0.087655	12.798922	0.048747	-0.022287	3.259833	1.000000	0.000005	0.000052	-0.000064	-0.514844	-11.943529	-174.114128
16118	2.677134	-0.103053	12.823401	0.035047	-0.008392	3.287541	1.000000	0.000005	0.000052	-0.000064	-0.514632	-11.942820	-174.113501
16119	2.673530	-0.136848	12.827740	0.035952	0.025665	3.291337	1.000000	0.000000	0.000042	-0.000063	-0.514742	-11.942929	-174.126584
16120	2.669492	-0.139073	12.803885	0.034784	0.028023	3.267183	1.000000	0.000002	0.000045	-0.000093	-0.514150	-11.943060	-174.129358
16121	2.689529	-0.120331	12.824259	0.021240	0.007591	3.291096	1.000000	-0.000005	0.000050	-0.000070	-0.514885	-11.942137	-174.138868
16122	2.685459	-0.122631	12.800411	0.020070	0.009947	3.266944	1.000000	0.000004	0.000040	-0.000075	-0.514567	-11.942836	-174.139498
16123	2.687514	-0.119529	12.824689	0.023641	0.006924	3.291093	1.000000	-0.000001	0.000030	-0.000074	-0.515092	-11.944425	-174.135169
16124	2.720783	-0.121870	12.821044	-0.009496	0.005986	3.294431	1.000000	0.000008	0.000043	-0.000081	-0.514147	-11.944725	-174.136551
16125	2.716834	-0.124085	12.797175	-0.010710	0.008253	3.270282	1.000000	-0.000006	0.000038	-0.000080	-0.515176	-11.945457	-174.130890
16126	2.733966	-0.108064	12.793462	-0.026529	-0.009535	3.270054	1.000000	-0.000001	0.000054	-0.000076	-0.515327	-11.944573	-174.131649
16127	2.733307	-0.139221	12.821899	-0.023158	0.021755	3.298012	1.000000	0.000000	0.000042	-0.000063	-0.515947	-11.945070	-174.120725
16128	2.747500	-0.125904	12.794103	-0.041378	0.006616	3.273639	1.000000	-0.000005	0.000050	-0.000069	-0.516728	-11.944584	-174.120731
16129	2.714796	-0.120170	12.822329	-0.003439	0.004265	3.294435	1.000000	-0.000004	0.000062	-0.000059	-0.517826	-11.942449	-174.117325
16130	2.708066	-0.156554	12.802635	-0.004933	0.040935	3.274096	1.000000	0.000012	0.000053	-0.000082	-0.516314	-11.941643	-174.118827
16131	2.709477	-0.153313	12.827051	-0.001319	0.038002	3.298246	1.000000	0.000001	0.000066	-0.000065	-0.516427	-11.939262	-174.124598
16132	2.686121	-0.139683	12.779079	0.012394	0.026202	3.246362	1.000000	0.000010	0.000062	-0.000065	-0.515654	-11.937444	-174.124088
16133	2.669272	-0.152108	12.807436	0.032973	0.040724	3.270731	1.000000	0.000009	0.000056	-0.000070	-0.514843	-11.935961	-174.131215
16134	2.670761	-0.149012	12.831828	0.036613	0.037763	3.294876	1.000000	-0.000004	0.000056	-0.000064	-0.515684	-11.934768	-174.130590
16135	2.666528	-0.151266	12.808018	0.035334	0.040064	3.270727	1.000000	0.000008	0.000049	-0.000076	-0.515041	-11.934024	-174.130692
16136	2.668187	-0.148116	12.832374	0.038978	0.037104	3.294871	1.000000	0.000001	0.000049	-0.000058	-0.515471	-11.933708	-174.129306
16137	2.632647	-0.145246	12.836449	0.074489	0.037471	3.291487	1.000000	-0.000018	0.000057	-0.000058	-0.518096	-11.932146	-174.130403
16138	2.665658	-0.147624	12.832905	0.041353	0.036471	3.294866	1.000000	0.000022	0.000038	-0.000069	-0.515764	-11.933089	-174.130381
16139	2.664641	-0.146839	12.833126	0.042407	0.036131	3.294863	1.000000	0.000008	0.000043	-0.000081	-0.514890	-11.932615	-174.146083
16140	2.644710	-0.130595	12.809116	0.058529	0.021691	3.267110	1.000000	-0.000006	0.000044	-0.000075	-0.515625	-11.932831	-174.146714
16141	2.661957	-0.114573	12.805394	0.042707	0.003853	3.266893	1.000000	-0.000001	0.000036	-0.000068	-0.516066	-11.933777	-174.146050
16142	2.661476	-0.145727	12.833795	0.046032	0.035204	3.294853	1.000000	-0.000002	0.000048	-0.000081	-0.516176	-11.933593	-174.147431
16143	2.712894	-0.132523	12.826305	-0.004098	0.016632	3.298039	1.000000	-0.000008	0.000035	-0.000050	-0.517970	-11.934802	-174.139627
16144	2.690774	-0.150589	12.806352	0.011676	0.036511	3.274105	1.000000	0.000008	0.000043	-0.000081	-0.517041	-11.935094	-174.141000
16145	2.708113	-0.134172	12.802624	-0.004162	0.018608	3.273897	1.000000	0.000012	0.000030	-0.000080	-0.515961	-11.936696	-174.137838
16146	2.720336	-0.154712	12.778874	-0.022752	0.037753	3.253370	1.000000	0.000003	0.000040	-0.000075	-0.515661	-11.937387	-174.138458
16147	2.706752	-0.164593	12.831227	0.000282	0.049611	3.301866	1.000000	0.000004	0.000046	-0.000069	-0.515529	-11.936962	-174.144094
16148	2.707861	-0.130091	12.827393	0.001865	0.014993	3.298042	1.000000	-0.000009	0.000047	-0.000063	-0.516953	-11.936870	-174.143342
16149	2.706789	-0.129751	12.827623	0.003104	0.014604	3.298042	1.000000	0.000009	0.000038	-0.000063	-0.516685	-11.937783	-174.129145
16150	2.721177	-0.116008	12.799821	-0.015122	-0.000573	3.273697	1.000000	0.000019	0.000040	-0.000058	-0.515045	-11.938415	-174.127737
16151	2.704626	-0.128775	12.828089	0.005505	0.014047	3.298042	1.000000	-0.000024	0.000052	-0.000075	-0.517611	-11.937502	-174.140402
16152	2.706399	-0.125602	12.852419	0.009196	0.011077	3.322184	1.000000	0.000031	0.000034	-0.000069	-0.514249	-11.938915	-174.140365
16153	2.684251	-0.143331	12.832469	0.024906	0.030948	3.298240	1.000000	-0.000005	0.000050	-0.000069	-0.515190	-11.938314	-174.138729
16154	2.704122	-0.124526	12.852909	0.011623	0.010435	3.322182	1.000000	0.000004	0.000046	-0.000069	-0.514951	-11.938297	-174.138717
16155	2.679072	-0.145255	12.808867	0.024886	0.032995	3.274096	1.000000	-0.000000	0.000042	-0.000063	-0.515430	-11.938765	-174.132769
16156	2.709375	-0.150299	12.781256	-0.010722	0.034571	3.253394	1.000000	-0.000000	0.000042	-0.000063	-0.515818	-11.939148	-174.132005
16157	2.700173	-0.091740	12.825442	0.013196	-0.022185	3.294206	1.000000	0.000014	0.000048	-0.000064	-0.514786	-11.938665	-174.130667
16158	2.709935	-0.146421	12.805851	-0.005857	0.031245	3.277538	1.000000	0.000015	0.000043	-0.000046	-0.513834	-11.938990	-174.127876
16159	2.674708	-0.143103	12.809803	0.029624	0.031659	3.274089	1.000000	0.000007	0.000037	-0.000087	-0.513208	-11.939595	-174.127513
16160	2.715747	-0.105697	12.850418	0.001902	-0.009098	3.321984	1.000000	0.000001	0.000049	-0.000058	-0.513657	-11.939272	-174.126120
16161	2.724666	-0.129251	12.802700	-0.019281	0.012557	3.277351	1.000000	-0.000004	0.000062	-0.000059	-0.515096	-11.937155	-174.113891
16162	2.691805	-0.123590	12.830836	0.018778	0.010409	3.298033	1.000000	-0.000001	0.000054	-0.000076	-0.515279	-11.936260	-174.114636
16163	2.688329	-0.157374	12.835190	0.019519	0.044429	3.301870	1.000000	0.000004	0.000046	-0.000069	-0.514960	-11.936061	-174.121335
16164	2.673273	-0.104300	12.831189	0.038575	-0.006921	3.294377	1.000000	-0.000001	0.000054	-0.000076	-0.515145	-11.935165	-174.122079
16165	2.682400	-0.127805	12.783436	0.017338	0.014786	3.249752	1.000000	-0.000006	0.000044	-0.000075	-0.516174	-11.935090	-174.120669
16166	2.665873	-0.140531	12.811673	0.038005	0.029392	3.274073	1.000000	0.000004	0.000046	-0.000069	-0.515945	-11.935070	-174.120653
