// Start Time: Unknown
// Update Rate: 100.0Hz
// Filter Profile: human (46.1)
// Firmware Version: 4.4.0
PacketCounter	Acc_X	Acc_Y	Acc_Z	FreeAcc_X	FreeAcc_Y	FreeAcc_Z	OriInc_q0	OriInc_q1	OriInc_q2	OriInc_q3	Roll	Pitch	Yaw
27602	9.887242	-0.199777	0.650567	0.000000	-0.000000	0.097949	1.000000	0.000015	0.000039	0.000014	-17.069894	-86.064877	15.562194
27603	9.864477	-0.186699	0.699094	-0.000000	-0.000000	0.078293	1.000000	0.000012	0.000035	0.000024	-14.941637	-85.806947	13.792629
27604	9.883263	-0.193229	0.685499	-0.010565	0.000280	0.096199	1.000000	0.000022	0.000033	0.000020	-15.986065	-85.934824	14.660596
27605	9.887318	-0.170011	0.681423	-0.005074	0.023837	0.099512	1.000000	0.000016	0.000028	0.000021	-16.004813	-85.931036	14.681272
27606	9.894033	-0.216413	0.710567	-0.034278	-0.020916	0.109108	1.000000	0.000010	0.000023	0.000022	-16.061638	-85.927595	14.728973
27607	9.879006	-0.218053	0.691999	-0.016136	-0.022866	0.092886	1.000000	0.000024	0.000045	0.000022	-16.073662	-85.921972	14.743831
27608	9.878946	-0.218458	0.692727	-0.016122	-0.022572	0.092887	1.000000	0.000016	0.000028	0.000021	-16.114820	-85.917654	14.779637
27609	9.849192	-0.190493	0.683629	-0.007869	0.005144	0.062034	1.000000	0.000010	0.000030	0.000035	-16.153665	-85.913255	14.819678
27610	9.878840	-0.219426	0.693936	-0.016102	-0.022709	0.092886	1.000000	0.000019	0.000033	0.000011	-16.143087	-85.909365	14.815194
27611	9.893754	-0.218503	0.713800	-0.034243	-0.020757	0.109108	1.000000	0.000016	0.000028	0.000021	-16.161552	-85.905573	14.835587
27612	9.864003	-0.190432	0.704742	-0.025934	0.007339	0.078256	1.000000	0.000012	0.000035	0.000024	-16.210386	-85.900104	14.877211
27613	9.893646	-0.219279	0.715055	-0.034189	-0.020375	0.109109	1.000000	0.000013	0.000028	0.000012	-16.215131	-85.896633	14.883487
27614	9.882748	-0.197289	0.691743	-0.010451	0.001461	0.096199	1.000000	0.000002	0.000036	0.000028	-16.258561	-85.890851	14.922485
27615	9.874691	-0.213991	0.730527	-0.049478	-0.014021	0.091167	1.000000	0.000020	0.000022	0.000018	-16.274652	-85.887860	14.940952
27616	9.901506	-0.204230	0.678567	0.005082	-0.004484	0.114141	1.000000	0.000016	0.000028	0.000021	-16.303076	-85.882984	14.968419
27617	9.897339	-0.228437	0.683736	-0.000421	-0.028039	0.110831	1.000000	0.000011	0.000019	0.000042	-16.357170	-85.879568	15.023877
27618	9.886454	-0.206653	0.660325	0.023360	-0.006245	0.097919	1.000000	-0.000001	0.000036	0.000019	-16.382994	-85.873934	15.046824
27619	9.901359	-0.205824	0.680221	0.005221	-0.004285	0.114141	1.000000	0.000016	0.000028	0.000021	-16.401055	-85.870137	15.066811
27620	9.863377	-0.224899	0.680526	0.002570	-0.023603	0.076667	1.000000	0.000022	0.000033	0.000020	-16.418758	-85.865155	15.087643
27621	9.905387	-0.182954	0.676743	0.010824	0.019348	0.117451	1.000000	0.000026	0.000027	0.000017	-16.430202	-85.861647	15.102142
27622	9.867404	-0.202068	0.677035	0.008156	0.000209	0.079977	1.000000	0.000026	0.000033	0.000030	-16.475531	-85.856158	15.146337
27623	9.916101	-0.206024	0.702096	-0.012737	-0.001985	0.130364	1.000000	0.000005	0.000045	-0.000001	-16.452925	-85.851220	15.124245
27624	9.882243	-0.201540	0.697707	-0.009905	0.002361	0.096199	1.000000	0.000024	0.000018	0.000047	-16.526362	-85.847032	15.197940
27625	9.882197	-0.202145	0.698178	-0.009905	0.002361	0.096199	1.000000	0.000003	0.000029	0.000016	-16.537249	-85.843268	15.209229
27626	9.867207	-0.203792	0.679378	0.008402	0.000520	0.079976	1.000000	0.000017	0.000017	0.000029	-16.576503	-85.839332	15.249431
27627	9.900966	-0.209128	0.684916	0.005649	-0.003635	0.114141	1.000000	0.000009	0.000034	0.000015	-16.582902	-85.835053	15.256912
27628	9.867110	-0.204536	0.680565	0.008388	0.000751	0.079976	1.000000	0.000022	0.000033	0.000020	-16.614295	-85.830468	15.286953
27629	9.900861	-0.209846	0.686208	0.005635	-0.003403	0.114142	1.000000	0.000016	0.000028	0.000021	-16.631920	-85.826664	15.306502
27630	9.866997	-0.205460	0.681922	0.008363	0.000926	0.079976	1.000000	0.000018	0.000046	0.000036	-16.676580	-85.820289	15.350902
27631	9.889945	-0.188545	0.663563	0.029257	0.018361	0.101226	1.000000	0.000008	0.000012	0.000020	-16.700869	-85.818314	15.376209
27632	9.885762	-0.212510	0.668769	0.023871	-0.005121	0.097919	1.000000	0.000028	0.000038	0.000019	-16.712328	-85.812685	15.389866
27633	9.867081	-0.175798	0.712365	-0.019525	0.032634	0.081564	1.000000	0.000004	0.000018	0.000023	-16.738566	-85.809902	15.416676
27634	9.889811	-0.189762	0.665207	0.029257	0.018566	0.101225	1.000000	0.000018	0.000040	0.000023	-16.766721	-85.805284	15.443223
27635	9.885830	-0.182843	0.699449	-0.004266	0.026653	0.099506	1.000000	0.000012	0.000035	0.000024	-16.786143	-85.800680	15.464117
27636	9.881628	-0.206959	0.704785	-0.009677	0.003097	0.096199	1.000000	0.000019	0.000028	0.000031	-16.814298	-85.795985	15.492045
27637	9.870787	-0.185057	0.681423	0.013973	0.024682	0.083283	1.000000	0.000022	0.000033	0.000020	-16.827203	-85.791672	15.507549
27638	9.881509	-0.207911	0.706185	-0.009716	0.003029	0.096199	1.000000	0.000028	0.000045	0.000032	-16.846439	-85.786015	15.527695
27639	9.885603	-0.184777	0.702145	-0.004201	0.026582	0.099506	1.000000	0.000020	0.000022	0.000018	-16.861626	-85.783007	15.545252
27640	9.885550	-0.185209	0.702772	-0.004197	0.026576	0.099506	1.000000	0.000008	0.000041	0.000027	-16.882344	-85.777589	15.561658
27641	9.866411	-0.210307	0.688886	0.008427	0.001055	0.079976	1.000000	0.000010	0.000028	0.000003	-16.873207	-85.774441	15.553631
27642	9.904316	-0.191925	0.689806	0.011132	0.020283	0.117449	1.000000	0.000006	0.000030	0.000025	-16.884936	-85.770927	15.565380
27643	9.881239	-0.209835	0.709375	-0.009767	0.002855	0.096199	1.000000	0.000012	0.000035	0.000024	-16.904046	-85.766314	15.585952
27644	9.881194	-0.210248	0.709889	-0.009721	0.002689	0.096199	1.000000	0.000014	0.000017	0.000019	-16.909968	-85.763817	15.591158
27645	9.885093	-0.218011	0.676844	0.023801	-0.005405	0.097919	1.000000	0.000016	0.000028	0.000021	-16.927024	-85.760004	15.610125
27646	9.885275	-0.187330	0.706080	-0.004382	0.026123	0.099507	1.000000	0.000011	0.000017	0.000010	-16.928354	-85.759056	15.610600
27647	9.861978	-0.236026	0.696830	0.002716	-0.022950	0.076669	1.000000	0.000024	0.000045	0.000022	-16.938668	-85.753439	15.623729
27648	9.918746	-0.223984	0.683604	0.020431	-0.009817	0.132085	1.000000	0.000004	0.000018	0.000023	-16.962964	-85.753291	15.648451
27649	9.861880	-0.236926	0.697912	0.002280	-0.023089	0.076668	1.000000	0.000029	0.000027	0.000027	-16.986840	-85.749494	15.675770
27650	9.899782	-0.218719	0.698901	0.004771	-0.003702	0.114142	1.000000	-0.000001	0.000036	0.000019	-17.004004	-85.746458	15.689204
27651	9.880858	-0.212938	0.713748	-0.010623	0.002424	0.096198	1.000000	0.000016	0.000028	0.000021	-17.021227	-85.742722	15.708330
27652	9.865884	-0.214586	0.695089	0.007178	0.000528	0.079977	1.000000	0.000012	0.000035	0.000024	-17.053166	-85.739898	15.735030
27653	9.918495	-0.226012	0.686575	0.019778	-0.009749	0.132086	1.000000	0.000023	0.000026	0.000008	-17.051220	-85.736818	15.735675
27654	9.892785	-0.205023	0.643883	0.061634	0.009789	0.102953	1.000000	0.000019	0.000033	0.000011	-17.044952	-85.732617	15.729111
27655	9.888771	-0.197932	0.678151	0.028099	0.017895	0.101230	1.000000	0.000024	0.000045	0.000022	-17.055468	-85.727073	15.742393
27656	9.892892	-0.174776	0.674063	0.032958	0.041315	0.104541	1.000000	0.000004	0.000018	0.000023	-17.085114	-85.728231	15.775970
27657	9.888685	-0.198863	0.679133	0.027409	0.017766	0.101232	1.000000	0.000017	0.000017	0.000029	-17.117891	-85.725544	15.810820
27658	9.888642	-0.199319	0.679638	0.026692	0.017683	0.101234	1.000000	0.000022	0.000033	0.000020	-17.139563	-85.725390	15.831466
27659	9.873895	-0.169848	0.689731	0.016803	0.047363	0.086598	1.000000	0.000013	0.000028	0.000012	-17.144152	-85.722112	15.837543
27660	9.869671	-0.193834	0.695011	0.010420	0.023686	0.083289	1.000000	0.000019	0.000028	0.000031	-17.182880	-85.723036	15.874524
27661	9.911550	-0.183149	0.662481	0.046644	0.034979	0.122495	1.000000	0.000006	0.000030	0.000025	-17.207012	-85.719193	15.899390
27662	9.899399	-0.192270	0.734640	-0.026707	0.027406	0.115721	1.000000	0.000011	0.000017	0.000010	-17.212542	-85.721864	15.903895
27663	9.869539	-0.195029	0.696561	0.009523	0.023456	0.083291	1.000000	0.000012	0.000035	0.000024	-17.232487	-85.717566	15.925248
27664	9.907224	-0.207914	0.669019	0.040296	0.010683	0.119189	1.000000	0.000034	0.000050	0.000031	-17.211403	-85.711708	15.914566
27665	9.911345	-0.184766	0.665091	0.045766	0.034232	0.122502	1.000000	0.000003	0.000029	0.000016	-17.222350	-85.708227	15.925935
27666	9.892209	-0.210016	0.651091	0.057563	0.008336	0.102979	1.000000	0.000019	0.000028	0.000031	-17.241614	-85.709312	15.948475
27667	9.892365	-0.179590	0.680501	0.029505	0.039988	0.104558	1.000000	0.000002	0.000036	0.000028	-17.267455	-85.704745	15.974712
27668	9.906997	-0.209818	0.671776	0.038721	0.009965	0.119196	1.000000	0.000028	0.000038	0.000019	-17.263580	-85.703990	15.969469
27669	9.888060	-0.203940	0.686686	0.023286	0.016097	0.101246	1.000000	0.000009	0.000034	0.000015	-17.270393	-85.700073	15.977376
27670	9.891996	-0.211709	0.653775	0.055878	0.007593	0.102989	1.000000	0.000010	0.000023	0.000022	-17.281291	-85.702589	15.990782
27671	9.873060	-0.205932	0.668634	0.040436	0.013725	0.085038	1.000000	0.000024	0.000045	0.000022	-17.292330	-85.697367	16.004695
27672	9.879714	-0.221379	0.726898	-0.017489	-0.000066	0.096189	1.000000	-0.000004	0.000031	0.000029	-17.313197	-85.697586	16.020318
27673	9.873145	-0.176069	0.698843	0.011633	0.045057	0.086616	1.000000	0.000035	0.000039	0.000038	-17.348199	-85.692500	16.059396
27674	9.879586	-0.222565	0.728266	-0.018427	-0.000416	0.096187	1.000000	0.000016	0.000028	0.000021	-17.357038	-85.694069	16.067337
27675	9.906606	-0.213034	0.676510	0.035894	0.008887	0.119207	1.000000	0.000012	0.000035	0.000024	-17.377068	-85.689911	16.088831
27676	9.883670	-0.199875	0.724859	-0.013286	0.022807	0.099507	1.000000	0.000012	0.000035	0.000024	-17.377468	-85.687475	16.085489
27677	9.849839	-0.195316	0.720349	-0.010577	0.026973	0.065346	1.000000	0.000016	0.000028	0.000021	-17.395621	-85.684097	16.105514
27678	9.906664	-0.183119	0.707084	0.006878	0.039903	0.120784	1.000000	0.000014	0.000021	-0.000000	-17.375159	-85.685892	16.081472
27679	9.902416	-0.206922	0.712368	0.001266	0.016361	0.117462	1.000000	0.000012	0.000035	0.000024	-17.395350	-85.681728	16.103044
27680	9.868584	-0.202454	0.707879	0.003327	0.020195	0.083302	1.000000	-0.000004	0.000031	0.000029	-17.415473	-85.681950	16.118205
27681	9.872738	-0.179364	0.703742	0.008769	0.043747	0.086625	1.000000	0.000016	0.000028	0.000021	-17.434021	-85.678620	16.138542
27682	9.887377	-0.209519	0.694801	0.017994	0.013606	0.101260	1.000000	0.000020	0.000022	0.000018	-17.427760	-85.679711	16.136752
27683	9.891541	-0.186395	0.690579	0.023430	0.037157	0.104585	1.000000	0.000019	0.000028	0.000030	-17.459068	-85.676064	16.170281
27684	9.887287	-0.210388	0.695821	0.017491	0.013272	0.101262	1.000000	0.000007	0.000023	0.000013	-17.450961	-85.675914	16.154824
27685	9.914351	-0.200865	0.643965	0.071798	0.022557	0.124301	1.000000	0.000019	0.000028	0.000030	-17.482403	-85.672259	16.188419
27686	9.876528	-0.188892	0.672795	0.040173	0.034450	0.088390	1.000000	0.000020	0.000022	0.000018	-17.487242	-85.675008	16.194605
27687	9.895383	-0.195444	0.659072	0.055426	0.028312	0.106350	1.000000	0.000020	0.000022	0.000018	-17.504210	-85.672547	16.213789
27688	9.914224	-0.202094	0.645540	0.069630	0.021786	0.124318	1.000000	0.000008	0.000041	0.000027	-17.521125	-85.674162	16.229227
27689	9.857306	-0.214877	0.659734	0.051440	0.008566	0.068871	1.000000	0.000012	0.000005	0.000017	-17.545331	-85.673581	16.254724
27690	9.925007	-0.194200	0.699314	0.016262	0.031487	0.138758	1.000000	0.000011	0.000046	0.000017	-17.551820	-85.677511	16.264677
27691	9.876310	-0.190649	0.675502	0.037107	0.033688	0.088405	1.000000	0.000017	0.000022	0.000009	-17.556587	-85.675558	16.271283
27692	9.910040	-0.196037	0.681119	0.032741	0.029251	0.122569	1.000000	0.000013	0.000024	0.000031	-17.604815	-85.681026	16.310838
27693	9.895119	-0.197652	0.662362	0.050757	0.027283	0.106378	1.000000	0.000019	0.000033	0.000011	-17.607647	-85.677849	16.315633
27694	9.876171	-0.191803	0.677202	0.033931	0.033168	0.088418	1.000000	0.000002	0.000036	0.000028	-17.645246	-85.681685	16.342742
27695	9.909890	-0.197259	0.682950	0.030943	0.029011	0.122576	1.000000	0.000020	0.000022	0.000018	-17.664058	-85.679545	16.363582
27696	9.872057	-0.185173	0.711752	-0.000890	0.040931	0.086641	1.000000	0.000016	0.000028	0.000021	-17.676542	-85.682819	16.375241
27697	9.899160	-0.175872	0.659866	0.053324	0.050194	0.109730	1.000000	0.000011	0.000019	0.000042	-17.731740	-85.680238	16.431438
27698	9.890668	-0.223505	0.669738	0.041149	0.002724	0.103064	1.000000	0.000017	0.000022	0.000009	-17.729011	-85.684290	16.424378
27699	9.875950	-0.194085	0.679765	0.031179	0.032441	0.088430	1.000000	0.000021	0.000040	0.000032	-17.760217	-85.679770	16.457728
27700	9.894791	-0.200823	0.666299	0.045306	0.025990	0.106408	1.000000	0.000016	0.000028	0.000021	-17.782002	-85.683172	16.469971
27701	9.894940	-0.170234	0.695662	0.017164	0.057701	0.107955	1.000000	0.000012	0.000035	0.000024	-17.805261	-85.679544	16.494202
27702	9.871553	-0.219011	0.686482	0.022516	0.008190	0.085101	1.000000	0.000022	0.000033	0.000020	-17.821827	-85.685626	16.516515
27703	9.909511	-0.200841	0.687385	0.025008	0.027574	0.122597	1.000000	0.000008	0.000012	0.000020	-17.850683	-85.684720	16.545937
27704	9.871460	-0.219821	0.687560	0.021088	0.007848	0.085105	1.000000	0.000020	0.000051	0.000025	-17.861729	-85.685712	16.554150
27705	9.894534	-0.202922	0.669473	0.041746	0.025245	0.106425	1.000000	0.000016	0.000028	0.000021	-17.883803	-85.683042	16.577653
27706	9.871337	-0.220717	0.689038	0.019654	0.007526	0.085108	1.000000	0.000008	0.000041	0.000027	-17.905031	-85.684992	16.594461
27707	9.909280	-0.202636	0.690187	0.022121	0.026911	0.122605	1.000000	0.000016	0.000028	0.000021	-17.927401	-85.682370	16.618219
27708	9.894565	-0.173342	0.700214	0.010743	0.056274	0.107972	1.000000	0.000015	0.000035	0.000033	-17.968219	-85.686937	16.659187
27709	9.871168	-0.222215	0.690986	0.017587	0.007232	0.085112	1.000000	0.000016	0.000028	0.000021	-17.990954	-85.684400	16.683299
27710	9.890218	-0.197876	0.706159	0.003412	0.032370	0.104629	1.000000	0.000006	0.000030	0.000025	-18.018379	-85.689531	16.712638
27711	9.875302	-0.199536	0.687561	0.021343	0.030405	0.088462	1.000000	0.000024	0.000044	0.000022	-18.034200	-85.685265	16.730759
27712	9.875250	-0.199966	0.688187	0.020348	0.030181	0.088465	1.000000	0.000004	0.000018	0.000023	-18.065290	-85.688388	16.747870
27713	9.889861	-0.230346	0.679280	0.029843	0.000500	0.103105	1.000000	0.000009	0.000030	0.000034	-18.107687	-85.685299	16.790796
27714	9.860494	-0.171122	0.698727	0.009369	0.059720	0.073828	1.000000	0.000025	0.000038	0.000010	-18.109361	-85.686595	16.780926
27715	9.908859	-0.206189	0.695166	0.015968	0.025863	0.122620	1.000000	0.000007	0.000023	0.000013	-18.124972	-85.685039	16.796603
27716	9.870796	-0.225045	0.695364	0.012337	0.006171	0.085120	1.000000	0.000024	0.000044	0.000022	-18.130067	-85.685273	16.800165
27717	9.894091	-0.177098	0.705948	0.005000	0.055274	0.107982	1.000000	0.000016	0.000028	0.000021	-18.154184	-85.682890	16.825388
27718	9.893848	-0.208518	0.677841	0.032044	0.023136	0.106466	1.000000	0.000022	0.000033	0.000020	-18.153626	-85.684207	16.829212
27719	9.855991	-0.196385	0.706530	0.001164	0.035528	0.070482	1.000000	0.000008	0.000012	0.000020	-18.185009	-85.683665	16.860824
27720	9.878923	-0.210479	0.659450	0.049103	0.020749	0.090315	1.000000	0.000028	0.000038	0.000019	-18.179433	-85.684316	16.859769
27721	9.889636	-0.202186	0.713057	-0.002867	0.030954	0.104634	1.000000	-0.000005	0.000042	0.000022	-18.200315	-85.680431	16.879386
27722	9.874738	-0.203874	0.694349	0.014753	0.028714	0.088479	1.000000	0.000023	0.000022	0.000027	-18.222410	-85.680659	16.892106
27723	9.908449	-0.209392	0.700037	0.011573	0.024568	0.122629	1.000000	0.000010	0.000023	0.000022	-18.251227	-85.678826	16.921311
27724	9.874650	-0.204799	0.695329	0.012818	0.028534	0.088483	1.000000	0.000006	0.000030	0.000025	-18.294587	-85.684311	16.957350
27725	9.878862	-0.181663	0.691209	0.018091	0.052105	0.091839	1.000000	0.000022	0.000033	0.000020	-18.314943	-85.681548	16.979392
27726	9.893449	-0.211942	0.682584	0.026217	0.022058	0.106486	1.000000	0.000008	0.000041	0.000027	-18.345636	-85.685564	17.009776
27727	9.882835	-0.190047	0.659013	0.049678	0.043625	0.093698	1.000000	0.000008	0.000012	0.000020	-18.378101	-85.685187	17.042346
27728	9.893361	-0.212724	0.683622	0.026237	0.021599	0.106487	1.000000	0.000015	0.000039	0.000014	-18.333591	-85.679365	17.000450
27729	9.889215	-0.205678	0.717871	-0.007552	0.029827	0.104635	1.000000	0.000021	0.000040	0.000032	-18.368197	-85.675453	17.036717
27730	9.893236	-0.213607	0.685152	0.024688	0.021345	0.106492	1.000000	0.000009	0.000034	0.000015	-18.379627	-85.678626	17.044124
27731	9.893188	-0.214006	0.685717	0.024381	0.021384	0.106492	1.000000	0.000023	0.000022	0.000027	-18.415697	-85.676871	17.082049
27732	9.886857	-0.168577	0.657431	0.052505	0.066054	0.097078	1.000000	0.000012	0.000035	0.000024	-18.431624	-85.679689	17.100691
27733	9.878435	-0.185103	0.696375	0.013131	0.050753	0.091854	1.000000	0.000018	0.000040	0.000023	-18.453823	-85.676228	17.124157
27734	9.878196	-0.216479	0.668341	0.040301	0.018542	0.090359	1.000000	0.000013	0.000028	0.000012	-18.437250	-85.677732	17.112480
27735	9.888688	-0.239144	0.693174	0.016207	-0.002952	0.103136	1.000000	0.000024	0.000044	0.000022	-18.454822	-85.673785	17.132053
27736	9.873983	-0.209798	0.703271	0.005695	0.026419	0.088495	1.000000	-0.000004	0.000031	0.000029	-18.474717	-85.674385	17.148582
27737	9.897132	-0.193047	0.685005	0.026224	0.043793	0.109869	1.000000	0.000029	0.000027	0.000026	-18.506262	-85.672201	17.182741
27738	9.892797	-0.217081	0.690374	0.019545	0.020145	0.106506	1.000000	0.000012	0.000035	0.000024	-18.540430	-85.673930	17.204803
27739	9.878105	-0.187714	0.700353	0.009520	0.049910	0.091862	1.000000	0.000006	0.000030	0.000025	-18.571905	-85.671524	17.236128
27740	9.907500	-0.216795	0.711118	0.001829	0.021587	0.122643	1.000000	0.000024	0.000044	0.000022	-18.516211	-85.662283	17.188550
27741	9.877985	-0.188519	0.701826	0.010029	0.049344	0.091865	1.000000	0.000003	0.000029	0.000016	-18.534314	-85.660150	17.206189
27742	9.892570	-0.218663	0.693124	0.018403	0.019354	0.106509	1.000000	0.000009	0.000034	0.000015	-18.549472	-85.663700	17.217003
27743	9.873589	-0.212792	0.707887	0.002813	0.025590	0.088498	1.000000	0.000025	0.000033	0.000029	-18.582594	-85.660697	17.252225
27744	9.896757	-0.196020	0.689566	0.022330	0.042544	0.109883	1.000000	0.000004	0.000018	0.000023	-18.609376	-85.665892	17.280648
27745	9.892424	-0.220048	0.694774	0.016427	0.019051	0.106513	1.000000	0.000029	0.000027	0.000026	-18.641047	-85.663747	17.314895
27746	9.900962	-0.173328	0.685829	0.026398	0.065729	0.113260	1.000000	0.000003	0.000029	0.000016	-18.648654	-85.667161	17.323221
27747	9.862883	-0.192159	0.685868	0.023441	0.046430	0.075745	1.000000	0.000016	0.000028	0.000021	-18.673824	-85.665112	17.349469
27748	9.896571	-0.197626	0.691771	0.019800	0.042007	0.109891	1.000000	0.000022	0.000033	0.000020	-18.683772	-85.664995	17.354066
27749	9.892226	-0.221582	0.697091	0.013885	0.018517	0.106518	1.000000	0.000010	0.000023	0.000022	-18.713616	-85.663451	17.384252
27750	9.892175	-0.222068	0.697659	0.013151	0.018234	0.106520	1.000000	0.000025	0.000033	0.000029	-18.733006	-85.663303	17.402146
27751	9.877505	-0.192681	0.707432	0.003131	0.048004	0.091876	1.000000	0.000008	0.000012	0.000020	-18.765922	-85.663075	17.435148
27752	9.877278	-0.224202	0.679267	0.029298	0.015839	0.090402	1.000000	0.000008	0.000041	0.000027	-18.792646	-85.668014	17.467368
27753	9.877225	-0.224486	0.679950	0.028945	0.015875	0.090403	1.000000	0.000010	0.000028	0.000003	-18.792981	-85.666792	17.467959
27754	9.877360	-0.193641	0.709196	0.000596	0.047023	0.091881	1.000000	0.000016	0.000028	0.000021	-18.774445	-85.666393	17.460971
27755	9.877131	-0.225150	0.681083	0.028153	0.015322	0.090406	1.000000	0.000006	0.000030	0.000025	-18.805812	-85.664133	17.492346
27756	9.885694	-0.178482	0.672142	0.037299	0.062102	0.097173	1.000000	0.000016	0.000028	0.000021	-18.847153	-85.671916	17.532838
27757	9.881338	-0.202378	0.677524	0.031356	0.038607	0.093793	1.000000	0.000009	0.000034	0.000015	-18.861735	-85.669610	17.547707
27758	9.900387	-0.178062	0.692882	0.017464	0.063830	0.113293	1.000000	0.000021	0.000040	0.000032	-18.892449	-85.671494	17.578184
27759	9.896030	-0.201870	0.698262	0.011513	0.040336	0.109911	1.000000	0.000001	0.000022	-0.000005	-18.884908	-85.671266	17.569911
27760	9.862259	-0.196917	0.693449	0.012856	0.044109	0.075775	1.000000	0.000016	0.000028	0.000021	-18.906514	-85.677296	17.597129
27761	9.895939	-0.202590	0.699336	0.009478	0.039939	0.109915	1.000000	0.000023	0.000029	0.000040	-18.957898	-85.674799	17.650461
27762	9.889543	-0.188337	0.642320	0.064753	0.053021	0.099129	1.000000	0.000016	0.000028	0.000021	-19.003508	-85.682577	17.692731
27763	9.899974	-0.211113	0.667091	0.040534	0.031531	0.111849	1.000000	0.000012	0.000035	0.000024	-19.031529	-85.680093	17.721432
27764	9.880984	-0.205217	0.681826	0.025241	0.037693	0.093814	1.000000	0.000022	0.000033	0.000020	-19.040594	-85.676137	17.715167
27765	9.899870	-0.211914	0.668382	0.040081	0.031519	0.111851	1.000000	0.000016	0.000028	0.000021	-19.067261	-85.674417	17.742837
27766	9.899980	-0.181421	0.697817	0.010935	0.063328	0.113305	1.000000	0.000008	0.000048	0.000039	-19.133924	-85.674693	17.790654
27767	9.876495	-0.230310	0.688548	0.017591	0.014308	0.090432	1.000000	0.000008	0.000012	0.000020	-19.168764	-85.674798	17.825451
27768	9.899712	-0.213441	0.670233	0.036787	0.031357	0.111864	1.000000	0.000028	0.000038	0.000019	-19.194116	-85.679422	17.850163
27769	9.895502	-0.206214	0.704447	0.002898	0.039638	0.109920	1.000000	0.000015	0.000039	0.000014	-19.205838	-85.676855	17.862564
27770	9.884993	-0.184180	0.680853	0.025881	0.060679	0.097218	1.000000	0.000014	0.000017	0.000019	-19.209466	-85.679833	17.872177
27771	9.880619	-0.208216	0.686184	0.019873	0.037198	0.093829	1.000000	0.000021	0.000040	0.000032	-19.246382	-85.676540	17.910603
27772	9.880559	-0.208765	0.686876	0.018990	0.036925	0.093831	1.000000	0.000006	0.000030	0.000025	-19.268009	-85.677754	17.928578
27773	9.899454	-0.215589	0.673347	0.033792	0.030747	0.111877	1.000000	0.000023	0.000022	0.000027	-19.306702	-85.676584	17.968984
27774	9.895238	-0.208663	0.707417	-0.000822	0.038788	0.109924	1.000000	0.000011	0.000041	0.000036	-19.349521	-85.677422	18.005438
27775	9.846678	-0.205265	0.683303	0.020035	0.041014	0.059700	1.000000	0.000020	0.000022	0.000018	-19.375801	-85.676651	18.032996
27776	9.876196	-0.203216	0.722590	-0.016825	0.044702	0.091878	1.000000	0.000016	0.000028	0.000021	-19.372644	-85.675396	18.029476
27777	9.884640	-0.187529	0.685058	0.021818	0.060020	0.097232	1.000000	0.000015	0.000039	0.000014	-19.384448	-85.672878	18.041945
27778	9.895023	-0.210229	0.709958	-0.002759	0.038049	0.109926	1.000000	0.000012	0.000035	0.000024	-19.382861	-85.673063	18.045053
27779	9.884532	-0.188419	0.686372	0.020664	0.059591	0.097237	1.000000	0.000013	0.000023	0.000031	-19.427524	-85.671599	18.090304
27780	9.856858	-0.229710	0.710526	-0.006234	0.018621	0.072396	1.000000	0.000012	0.000035	0.000024	-19.443757	-85.669948	18.097763
27781	9.875918	-0.205384	0.725780	-0.019315	0.044208	0.091875	1.000000	0.000016	0.000028	0.000021	-19.471314	-85.668356	18.126132
27782	9.899156	-0.188527	0.707548	0.000591	0.061358	0.113324	1.000000	0.000003	0.000029	0.000016	-19.490732	-85.669864	18.136419
27783	9.898934	-0.220045	0.679512	0.028026	0.029629	0.111898	1.000000	0.000025	0.000033	0.000029	-19.526487	-85.667413	18.173996
27784	9.884279	-0.190632	0.689389	0.017574	0.059099	0.097246	1.000000	0.000016	0.000028	0.000021	-19.540801	-85.668745	18.186311
27785	9.894656	-0.213326	0.714135	-0.006720	0.037656	0.109926	1.000000	0.000003	0.000029	0.000016	-19.562048	-85.667245	18.206775
27786	9.894618	-0.213616	0.714583	-0.007147	0.037302	0.109927	1.000000	0.000024	0.000015	0.000015	-19.557805	-85.667985	18.203224
27787	9.884159	-0.191610	0.690846	0.016290	0.058837	0.097249	1.000000	0.000016	0.000028	0.000021	-19.585572	-85.666412	18.231732
27788	9.894531	-0.214299	0.715573	-0.008785	0.037082	0.109927	1.000000	0.000026	0.000027	0.000017	-19.603419	-85.670028	18.248873
27789	9.903018	-0.198656	0.677920	0.029850	0.052380	0.115312	1.000000	0.000016	0.000028	0.000021	-19.631361	-85.668487	18.277541
27790	9.888199	-0.200381	0.659144	0.048353	0.049841	0.099239	1.000000	0.000015	0.000035	0.000033	-19.615985	-85.663005	18.267943
27791	9.888146	-0.200796	0.659819	0.047924	0.049885	0.099241	1.000000	0.000019	0.000033	0.000011	-19.626395	-85.661316	18.279409
27792	9.879562	-0.217107	0.698533	0.006904	0.034265	0.093857	1.000000	0.000004	0.000018	0.000023	-19.669930	-85.669894	18.325144
27793	9.864924	-0.187681	0.708231	-0.003129	0.064062	0.079200	1.000000	0.000029	0.000027	0.000026	-19.704370	-85.668322	18.361896
27794	9.898423	-0.224364	0.685522	0.021812	0.027890	0.111919	1.000000	0.000016	0.000028	0.000021	-19.701803	-85.663935	18.351940
27795	9.864822	-0.188443	0.709453	-0.003404	0.063931	0.079200	1.000000	0.000015	0.000039	0.000014	-19.713742	-85.661473	18.364452
27796	9.898479	-0.193915	0.715519	-0.008092	0.059404	0.113332	1.000000	0.000016	0.000028	0.000021	-19.743743	-85.667099	18.395415
27797	9.879310	-0.219147	0.701452	0.004125	0.033903	0.093859	1.000000	0.000019	0.000028	0.000030	-19.784276	-85.665224	18.437080
27798	9.902583	-0.202327	0.683160	0.022354	0.050954	0.115339	1.000000	0.000017	0.000021	0.000009	-19.830891	-85.677148	18.482124
27799	9.887783	-0.203842	0.664308	0.040166	0.048968	0.099280	1.000000	0.000012	0.000035	0.000024	-19.860700	-85.674943	18.512208
27800	9.898274	-0.195605	0.717888	-0.012518	0.059125	0.113329	1.000000	0.000021	0.000040	0.000032	-19.896339	-85.674933	18.542094
27801	9.858317	-0.176116	0.655651	0.047462	0.076583	0.068567	1.000000	0.000015	0.000039	0.000014	-19.909097	-85.672636	18.555365
27802	9.917110	-0.202723	0.705343	-0.015752	-0.000199	0.131529	1.000000	0.000016	0.000028	0.000021	-16.327066	-85.857867	14.892029
27803	9.864393	-0.191544	0.714562	-0.028341	0.010155	0.079362	1.000000	0.000009	0.000034	0.000015	-16.315096	-85.857661	14.879357
27804	9.902254	-0.204642	0.687237	0.001365	-0.002973	0.115494	1.000000	0.000012	0.000035	0.000024	-16.316140	-85.856831	14.883650
27805	9.868497	-0.199969	0.682388	0.003918	0.001016	0.081395	1.000000	0.000023	0.000022	0.000027	-16.326984	-85.857583	14.895471
27806	9.883200	-0.199215	0.702310	-0.014816	0.002579	0.097426	1.000000	0.000016	0.000028	0.000021	-16.321636	-85.856810	14.894951
27807	9.906475	-0.182444	0.684251	0.005343	0.019294	0.119046	1.000000	0.000024	0.000044	0.000022	-16.314318	-85.855264	14.888680
27808	9.868343	-0.201290	0.684229	0.002208	-0.000186	0.081395	1.000000	0.000017	0.000017	0.000028	-16.331553	-85.856783	14.905337
27809	9.897620	-0.230522	0.695016	-0.007235	-0.028468	0.111938	1.000000	0.000008	0.000041	0.000027	-16.335048	-85.855453	14.908069
27810	9.882980	-0.201087	0.704867	-0.017294	0.000992	0.097422	1.000000	0.000010	0.000023	0.000022	-16.338322	-85.855991	14.911119
27811	9.902051	-0.176786	0.720082	-0.030577	0.026051	0.117004	1.000000	0.000012	0.000035	0.000024	-16.339781	-85.855463	14.912265
27812	9.868129	-0.203178	0.686755	-0.000109	-0.001791	0.081396	1.000000	0.000018	0.000039	0.000023	-16.334163	-85.853830	14.910094
27813	9.882812	-0.202386	0.706856	-0.019040	-0.000217	0.097419	1.000000	0.000016	0.000028	0.000021	-16.333589	-85.854104	14.909656
27814	9.868015	-0.203990	0.688153	-0.001222	-0.002600	0.081395	1.000000	0.000024	0.000044	0.000022	-16.323170	-85.851893	14.902160
27815	9.906037	-0.186059	0.689593	0.000616	0.016077	0.119053	1.000000	0.000012	0.000035	0.000024	-16.324621	-85.851366	14.903297
27816	9.882633	-0.203642	0.708994	-0.020789	-0.001421	0.097416	1.000000	0.000016	0.000028	0.000021	-16.324972	-85.851724	14.904751
27817	9.868006	-0.174079	0.718764	-0.030880	0.028041	0.082904	1.000000	0.000003	0.000029	0.000016	-16.317383	-85.852028	14.895780
27818	9.867648	-0.236865	0.662036	0.024115	-0.036036	0.079885	1.000000	0.000016	0.000024	0.000040	-16.347162	-85.851993	14.927173
27819	9.901603	-0.180418	0.725320	-0.035282	0.022827	0.116997	1.000000	0.000012	0.000035	0.000024	-16.348602	-85.851466	14.928300
27820	9.882427	-0.205583	0.711302	-0.023165	-0.003035	0.097410	1.000000	0.000016	0.000028	0.000021	-16.346228	-85.851391	14.926233
27821	9.905742	-0.188786	0.693081	-0.003018	0.013661	0.119056	1.000000	0.000026	0.000027	0.000017	-16.339229	-85.851960	14.920500
27822	9.909933	-0.196761	0.660281	0.029884	0.004892	0.121120	1.000000	0.000012	0.000035	0.000024	-16.338281	-85.850971	14.919430
27823	9.905638	-0.189494	0.694367	-0.004171	0.012848	0.119057	1.000000	0.000019	0.000033	0.000011	-16.319881	-85.851061	14.901456
27824	9.901193	-0.213320	0.699768	-0.010419	-0.011038	0.115483	1.000000	0.000016	0.000028	0.000021	-16.318621	-85.851221	14.899372
27825	9.890828	-0.191283	0.675988	0.012938	0.010068	0.103046	1.000000	0.000011	0.000017	0.000010	-16.306966	-85.853129	14.887234
27826	9.890786	-0.191796	0.676454	0.012301	0.009667	0.103047	1.000000	0.000012	0.000030	0.000043	-16.340131	-85.852571	14.918243
27827	9.895133	-0.168827	0.672304	0.017337	0.032744	0.106626	1.000000	0.000009	0.000034	0.000015	-16.328131	-85.852368	14.905540
27828	9.890528	-0.223917	0.649103	0.038844	-0.022989	0.101544	1.000000	0.000019	0.000028	0.000030	-16.340634	-85.852328	14.918348
27829	9.890627	-0.193303	0.678350	0.010447	0.008456	0.103050	1.000000	0.000012	0.000035	0.000024	-16.342055	-85.851803	14.919455
27830	9.871448	-0.218408	0.664387	0.022552	-0.017410	0.083463	1.000000	0.000009	0.000034	0.000015	-16.328113	-85.851344	14.904407
27831	9.881866	-0.209908	0.717797	-0.029828	-0.007468	0.097390	1.000000	0.000020	0.000022	0.000018	-16.325495	-85.852422	14.902374
27832	9.890635	-0.163346	0.708725	-0.019071	0.039076	0.104557	1.000000	0.000009	0.000030	0.000034	-16.342616	-85.851746	14.920181
27833	9.867048	-0.212180	0.699439	-0.012669	-0.010252	0.081382	1.000000	0.000029	0.000027	0.000026	-16.349029	-85.851993	14.928248
27834	9.890382	-0.195333	0.681338	0.007565	0.006404	0.103054	1.000000	0.000012	0.000039	0.000005	-16.315784	-85.851097	14.893665
27835	9.894591	-0.203164	0.648649	0.040378	-0.002374	0.105141	1.000000	0.000022	0.000033	0.000020	-16.310789	-85.850866	14.889485
27836	9.886015	-0.188430	0.716029	-0.027172	0.013980	0.100968	1.000000	0.000013	0.000023	0.000031	-16.329707	-85.851721	14.907380
27837	9.909214	-0.202959	0.669128	0.020734	-0.001205	0.121145	1.000000	0.000010	0.000023	0.000022	-16.333490	-85.852506	14.910617
27838	9.881509	-0.212923	0.721817	-0.034092	-0.010302	0.097373	1.000000	0.000006	0.000030	0.000025	-16.339411	-85.852632	14.914723
27839	9.862331	-0.238196	0.707694	-0.022033	-0.036150	0.077780	1.000000	0.000013	0.000023	0.000031	-16.356619	-85.853094	14.931775
27840	9.875384	-0.199182	0.665319	0.022122	0.002014	0.087062	1.000000	0.000015	0.000039	0.000014	-16.339477	-85.852263	14.915144
27841	9.890039	-0.198347	0.685430	0.003166	0.003585	0.103058	1.000000	0.000029	0.000027	0.000026	-16.345884	-85.852511	14.923204
27842	9.908969	-0.205142	0.672089	0.017750	-0.003244	0.121150	1.000000	0.000009	0.000034	0.000015	-16.330251	-85.851691	14.909134
27843	9.885516	-0.222593	0.691464	-0.003617	-0.020709	0.099460	1.000000	0.000016	0.000028	0.000021	-16.329634	-85.851969	14.908652
27844	9.889892	-0.199463	0.687227	0.001439	0.002364	0.103059	1.000000	0.000016	0.000028	0.000021	-16.328790	-85.852174	14.908124
27845	9.885419	-0.223281	0.692636	-0.004842	-0.021512	0.099458	1.000000	0.000019	0.000033	0.000011	-16.310355	-85.852267	14.890116
27846	9.889789	-0.200169	0.688511	0.000221	0.001562	0.103059	1.000000	0.000015	0.000035	0.000033	-16.324951	-85.851314	14.905160
27847	9.908722	-0.207030	0.675140	0.014684	-0.005257	0.121154	1.000000	0.000007	0.000023	0.000013	-16.315295	-85.852422	14.894571
27848	9.874988	-0.202241	0.670256	0.017373	-0.001215	0.087072	1.000000	0.000021	0.000040	0.000032	-16.324664	-85.850834	14.905455
27849	9.889634	-0.201362	0.690384	-0.001591	0.000355	0.103059	1.000000	0.000010	0.000028	0.000003	-16.297195	-85.851757	14.877345
27850	9.893884	-0.209278	0.657431	0.031179	-0.008429	0.105171	1.000000	0.000017	0.000017	0.000028	-16.313892	-85.853211	14.892951
27851	9.885117	-0.225715	0.696140	-0.008530	-0.023911	0.099450	1.000000	0.000025	0.000033	0.000029	-16.322298	-85.852659	14.902559
27852	9.874805	-0.203777	0.672490	0.014939	-0.002815	0.087075	1.000000	0.000013	0.000028	0.000012	-16.306466	-85.852864	14.888733
27853	9.889447	-0.203000	0.692574	-0.004029	-0.001246	0.103059	1.000000	0.000015	0.000035	0.000033	-16.321266	-85.852019	14.903605
27854	9.855712	-0.198188	0.687726	-0.001400	0.002816	0.068977	1.000000	0.000019	0.000033	0.000011	-16.304155	-85.852276	14.884899
27855	9.893637	-0.211236	0.660508	0.028126	-0.010439	0.105178	1.000000	0.000019	0.000033	0.000011	-16.285706	-85.852369	14.866876
27856	9.883329	-0.189319	0.636965	0.051544	0.010660	0.092816	1.000000	0.000021	0.000040	0.000032	-16.295958	-85.850924	14.877748
27857	9.889084	-0.235616	0.666728	0.021235	-0.034712	0.101563	1.000000	0.000003	0.000029	0.000016	-16.288293	-85.851231	14.868699
27858	9.874635	-0.174827	0.704952	-0.016540	0.026663	0.088573	1.000000	0.000020	0.000022	0.000018	-16.286293	-85.852346	14.866087
27859	9.899381	-0.227548	0.720603	-0.031789	-0.025136	0.115412	1.000000	0.000019	0.000028	0.000030	-16.299074	-85.852303	14.879390
27860	9.884647	-0.229352	0.701607	-0.014069	-0.027499	0.099434	1.000000	0.000007	0.000019	0.000032	-16.321722	-85.853355	14.899547
27861	9.893490	-0.182856	0.692520	-0.003344	0.019036	0.106677	1.000000	0.000012	0.000035	0.000024	-16.323081	-85.852833	14.900589
27862	9.888985	-0.206833	0.698016	-0.009597	-0.004831	0.103054	1.000000	0.000012	0.000035	0.000024	-16.323908	-85.852098	14.903200
27863	9.874244	-0.208494	0.679236	0.008144	-0.007203	0.087081	1.000000	0.000012	0.000035	0.000024	-16.325262	-85.851576	14.904239
27864	9.893331	-0.184227	0.694422	-0.005158	0.017841	0.106678	1.000000	0.000004	0.000018	0.000023	-16.333887	-85.852845	14.910710
27865	9.893150	-0.215856	0.666291	0.021969	-0.014438	0.105188	1.000000	0.000029	0.000027	0.000026	-16.340271	-85.853097	14.918746
27866	9.893243	-0.185131	0.695426	-0.006432	0.017051	0.106679	1.000000	0.000016	0.000028	0.000021	-16.341438	-85.853570	14.918816
27867	9.903277	-0.238992	0.691739	-0.003346	-0.036725	0.117527	1.000000	0.000022	0.000033	0.000020	-16.336392	-85.853343	14.914585
27868	9.878467	-0.187198	0.677130	0.010708	0.014284	0.090713	1.000000	0.000013	0.000023	0.000031	-16.353903	-85.853734	14.931521
27869	9.873966	-0.211167	0.682443	0.004414	-0.009584	0.087081	1.000000	0.000026	0.000027	0.000017	-16.346860	-85.854309	14.925742
27870	9.892916	-0.218068	0.669029	0.018864	-0.016425	0.105192	1.000000	0.000013	0.000023	0.000031	-16.364141	-85.854670	14.943803
27871	9.897336	-0.195019	0.664669	0.023922	0.006638	0.108827	1.000000	0.000020	0.000022	0.000018	-16.361493	-85.855752	14.941739
27872	9.892974	-0.187729	0.698558	-0.010104	0.014662	0.106679	1.000000	0.000016	0.000028	0.000021	-16.361327	-85.855978	14.942732
27873	9.873785	-0.212770	0.684568	0.001968	-0.011174	0.087081	1.000000	0.000015	0.000039	0.000014	-16.344830	-85.855273	14.926212
27874	9.878198	-0.189783	0.680331	0.007000	0.011900	0.090719	1.000000	0.000010	0.000019	0.000041	-16.381331	-85.856069	14.961120
27875	9.898564	-0.235007	0.729384	-0.041717	-0.031488	0.115357	1.000000	0.000016	0.000028	0.000021	-16.380669	-85.856350	14.960592
27876	9.892777	-0.189575	0.700838	-0.012650	0.013084	0.106679	1.000000	0.000016	0.000028	0.000021	-16.382217	-85.856853	14.961480
27877	9.878050	-0.191175	0.682083	0.005104	0.010712	0.090722	1.000000	0.000024	0.000044	0.000022	-16.374734	-85.855319	14.955041
27878	9.877982	-0.191679	0.682922	0.004485	0.010318	0.090723	1.000000	0.000021	0.000040	0.000032	-16.385690	-85.853973	14.965306
27879	9.892464	-0.222150	0.674350	0.013223	-0.020003	0.105194	1.000000	0.000008	0.000012	0.000020	-16.391846	-85.856069	14.970684
27880	9.877895	-0.192539	0.683935	0.003227	0.009526	0.090724	1.000000	0.000028	0.000038	0.000019	-16.383736	-85.855452	14.963659
27881	9.877849	-0.192933	0.684496	0.002610	0.009124	0.090724	1.000000	0.000004	0.000018	0.000023	-16.391870	-85.856746	14.970566
27882	9.858800	-0.186907	0.698971	-0.013001	0.015184	0.072606	1.000000	0.000018	0.000039	0.000023	-16.387945	-85.855490	14.967274
27883	9.896747	-0.200252	0.671845	0.016449	0.001860	0.108845	1.000000	0.000016	0.000028	0.000021	-16.387271	-85.855772	14.966734
27884	9.873214	-0.217809	0.691191	-0.004878	-0.015536	0.087074	1.000000	0.000015	0.000035	0.000033	-16.402130	-85.854878	14.980503
27885	9.911305	-0.200049	0.692525	-0.003160	0.003029	0.124795	1.000000	0.000020	0.000022	0.000018	-16.399479	-85.855961	14.978436
27886	9.873115	-0.218728	0.692307	-0.006101	-0.016335	0.087072	1.000000	0.000025	0.000033	0.000029	-16.407760	-85.855334	14.986623
27887	9.862892	-0.196857	0.668550	0.017351	0.004752	0.074781	1.000000	0.000020	0.000022	0.000018	-16.405108	-85.856417	14.984554
27888	9.896515	-0.202272	0.674647	0.013361	-0.000139	0.108849	1.000000	-0.000003	0.000029	-0.000002	-16.371468	-85.857451	14.948452
27889	9.900947	-0.179044	0.670507	0.018432	0.022917	0.112509	1.000000	0.000021	0.000040	0.000032	-16.381788	-85.856103	14.959522
27890	9.872915	-0.220087	0.694720	-0.008591	-0.017926	0.087067	1.000000	0.000016	0.000028	0.000021	-16.381523	-85.856393	14.958897
27891	9.872864	-0.220424	0.695341	-0.009209	-0.018327	0.087066	1.000000	0.000009	0.000034	0.000015	-16.369385	-85.856198	14.946055
27892	9.877301	-0.197252	0.691139	-0.004134	0.004735	0.090727	1.000000	0.000016	0.000028	0.000021	-16.369053	-85.856462	14.946006
27893	9.896261	-0.204125	0.677814	0.010267	-0.002141	0.108853	1.000000	0.000016	0.000028	0.000021	-16.368363	-85.856744	14.945448
27894	9.872704	-0.221698	0.697214	-0.011084	-0.019515	0.087062	1.000000	0.000011	0.000041	0.000036	-16.386269	-85.855215	14.962565
27895	9.877150	-0.198599	0.692901	-0.006010	0.003541	0.090727	1.000000	0.000015	0.000010	0.000007	-16.372607	-85.857931	14.948868
27896	9.910774	-0.204179	0.698887	-0.009969	-0.001367	0.124791	1.000000	0.000029	0.000027	0.000026	-16.378374	-85.857998	14.958002
27897	9.872583	-0.222870	0.698552	-0.012904	-0.020716	0.087057	1.000000	0.000004	0.000018	0.000023	-16.386488	-85.859293	14.964887
27898	9.858019	-0.193317	0.708180	-0.022905	0.008839	0.072596	1.000000	0.000018	0.000039	0.000023	-16.386160	-85.858602	14.962546
27899	9.895982	-0.206700	0.681095	0.006500	-0.004526	0.108855	1.000000	0.000016	0.000028	0.000021	-16.385462	-85.858886	14.961981
27900	9.895933	-0.207183	0.681661	0.005873	-0.004919	0.108855	1.000000	0.000019	0.000028	0.000030	-16.399078	-85.858875	14.976015
27901	9.876873	-0.201177	0.696102	-0.009754	0.001164	0.090724	1.000000	0.000016	0.000028	0.000021	-16.398379	-85.859159	14.975448
27902	9.862311	-0.171648	0.705761	-0.019655	0.030706	0.076267	1.000000	0.000025	0.000033	0.000029	-16.406423	-85.858455	14.986272
27903	9.895780	-0.208664	0.683420	0.004044	-0.006122	0.108856	1.000000	0.000000	0.000025	0.000026	-16.416500	-85.858949	14.994671
27904	9.881095	-0.210320	0.664445	0.021842	-0.008491	0.092928	1.000000	0.000016	0.000028	0.000021	-16.415649	-85.859121	14.993892
27905	9.891313	-0.201774	0.717891	-0.030576	0.001537	0.106648	1.000000	0.000003	0.000029	0.000016	-16.407884	-85.859433	14.984742
27906	9.904528	-0.193984	0.646826	0.041324	0.007669	0.114745	1.000000	0.000020	0.000022	0.000018	-16.405044	-85.860412	14.982535
27907	9.880962	-0.211386	0.666087	0.020007	-0.009695	0.092931	1.000000	0.000012	0.000035	0.000024	-16.406299	-85.859894	14.983473
27908	9.895537	-0.210628	0.686329	0.001019	-0.008127	0.108855	1.000000	0.000018	0.000039	0.000023	-16.402503	-85.858698	14.979868
27909	9.910115	-0.209838	0.706509	-0.018002	-0.006558	0.124777	1.000000	0.000016	0.000028	0.000021	-16.401792	-85.858982	14.979289
27910	9.861790	-0.206191	0.681864	0.003192	-0.004400	0.074795	1.000000	0.000023	0.000022	0.000027	-16.412897	-85.859712	14.989388
27911	9.895398	-0.211911	0.687946	-0.000834	-0.009327	0.108854	1.000000	0.000020	0.000022	0.000018	-16.410223	-85.860798	14.987296
27912	9.866217	-0.183399	0.678075	0.007701	0.018250	0.078484	1.000000	0.000015	0.000039	0.000014	-16.392796	-85.859863	14.971800
27913	9.880672	-0.213799	0.669609	0.016376	-0.012101	0.092935	1.000000	0.000017	0.000017	0.000028	-16.407963	-85.861131	14.987252
27914	9.890877	-0.205281	0.722886	-0.036087	-0.002049	0.106630	1.000000	0.000007	0.000023	0.000013	-16.400065	-85.862452	14.976992
27915	9.895218	-0.213339	0.690090	-0.003309	-0.010922	0.108852	1.000000	0.000012	0.000035	0.000024	-16.401303	-85.861936	14.977913
27916	9.895167	-0.213676	0.690712	-0.003900	-0.011321	0.108851	1.000000	0.000013	0.000028	0.000012	-16.386815	-85.862384	14.962492
27917	9.909747	-0.212781	0.710783	-0.022928	-0.009752	0.124765	1.000000	0.000016	0.000028	0.000021	-16.386090	-85.862669	14.961899
27918	9.884974	-0.192049	0.667446	0.018982	0.009362	0.096633	1.000000	-0.000003	0.000024	0.000017	-16.383211	-85.863445	14.956982
27919	9.876001	-0.208204	0.706332	-0.020736	-0.006011	0.090705	1.000000	0.000024	0.000044	0.000022	-16.375630	-85.861918	14.950445
27920	9.865843	-0.186302	0.682705	0.002755	0.015076	0.078492	1.000000	0.000016	0.000028	0.000021	-16.375909	-85.862244	14.950262
27921	9.899435	-0.192185	0.688936	-0.001293	0.010136	0.112547	1.000000	0.000022	0.000029	0.000039	-16.402062	-85.861882	14.977316
27922	9.861219	-0.210953	0.688624	-0.004152	-0.009173	0.074792	1.000000	0.000010	0.000023	0.000022	-16.405071	-85.862490	14.980072
27923	9.884720	-0.194410	0.670513	0.015917	0.007361	0.096640	1.000000	0.000012	0.000035	0.000024	-16.406293	-85.861974	14.980975
27924	9.880144	-0.218302	0.675912	0.009584	-0.016480	0.092937	1.000000	0.000020	0.000022	0.000018	-16.404380	-85.863090	14.978780
27925	9.880105	-0.218678	0.676361	0.008966	-0.016881	0.092937	1.000000	0.000010	0.000023	0.000022	-16.408056	-85.863881	14.981907
27926	9.899215	-0.194358	0.691490	-0.004347	0.008139	0.112548	1.000000	0.000020	0.000022	0.000018	-16.405536	-85.864884	14.979193
27927	9.884678	-0.164734	0.701055	-0.014229	0.037700	0.098107	1.000000	0.000012	0.000035	0.000024	-16.406750	-85.864369	14.980089
27928	9.879967	-0.219874	0.677996	0.007132	-0.018077	0.092937	1.000000	0.000016	0.000028	0.000021	-16.406136	-85.864605	14.979565
27929	9.894521	-0.219215	0.698185	-0.011906	-0.016508	0.108838	1.000000	0.000034	0.000038	0.000037	-16.423457	-85.863234	14.999148
27930	9.865362	-0.190981	0.688340	-0.003389	0.011097	0.078497	1.000000	0.000006	0.000030	0.000025	-16.430629	-85.863362	15.003574
27931	9.884340	-0.198050	0.675030	0.010962	0.004174	0.096649	1.000000	0.000013	0.000023	0.000031	-16.447744	-85.863829	15.020524
27932	9.879748	-0.221969	0.680496	0.004637	-0.019665	0.092935	1.000000	0.000015	0.000039	0.000014	-16.431461	-85.863092	15.005163
27933	9.898845	-0.197597	0.695849	-0.008692	0.005348	0.112547	1.000000	0.000016	0.000028	0.000021	-16.430716	-85.863379	15.004548
27934	9.884179	-0.199341	0.677015	0.009120	0.002980	0.096651	1.000000	0.000011	0.000041	0.000036	-16.447537	-85.861696	15.020767
27935	9.932365	-0.203989	0.702863	-0.013387	-0.000007	0.146595	1.000000	0.000020	0.000022	0.000018	-16.444851	-85.862784	15.018662
27936	9.869473	-0.201346	0.658722	0.026317	0.000212	0.080758	1.000000	0.000015	0.000039	0.000014	-16.428535	-85.862049	15.002547
27937	9.865002	-0.194004	0.692639	-0.007687	0.008310	0.078497	1.000000	0.000017	0.000017	0.000028	-16.443696	-85.863318	15.017993
27938	9.888417	-0.208639	0.645952	0.040034	-0.007116	0.098918	1.000000	0.000019	0.000033	0.000011	-16.425767	-85.863460	14.999718
27939	9.874958	-0.216978	0.718180	-0.033075	-0.013955	0.090664	1.000000	0.000012	0.000034	0.000024	-16.426953	-85.862946	15.000584
27940	9.903036	-0.177046	0.695291	-0.007310	0.026001	0.116268	1.000000	0.000019	0.000028	0.000030	-16.440419	-85.862940	15.015372
27941	9.883837	-0.202174	0.681157	0.004785	0.000188	0.096654	1.000000	0.000026	0.000026	0.000017	-16.433309	-85.863524	15.009523
27942	9.883787	-0.202553	0.681768	0.004162	-0.000207	0.096655	1.000000	0.000012	0.000034	0.000024	-16.435113	-85.863031	15.010293
27943	9.879184	-0.226436	0.687177	-0.002175	-0.024049	0.092926	1.000000	0.000020	0.000022	0.000018	-16.432415	-85.864120	15.008176
27944	9.879251	-0.195626	0.716306	-0.030454	0.007503	0.094380	1.000000	0.000008	0.000041	0.000027	-16.435894	-85.862774	15.011994
27945	9.879186	-0.196009	0.717101	-0.031072	0.007102	0.094378	1.000000	0.000015	0.000039	0.000014	-16.419217	-85.862079	14.995295
27946	9.883572	-0.204077	0.684419	0.001697	-0.001803	0.096655	1.000000	0.000016	0.000028	0.000021	-16.418820	-85.862344	14.995333
27947	9.883525	-0.204427	0.684990	0.001079	-0.002204	0.096655	1.000000	0.000003	0.000029	0.000016	-16.410967	-85.862659	14.986095
27948	9.879029	-0.197059	0.718976	-0.032914	0.005911	0.094373	1.000000	0.000012	0.000034	0.000024	-16.412313	-85.862094	14.986831
27949	9.864269	-0.230065	0.671503	0.012568	-0.028411	0.077039	1.000000	0.000026	0.000022	0.000036	-16.436482	-85.862536	15.012347
27950	9.921571	-0.187707	0.687521	0.001475	0.015462	0.134436	1.000000	0.000007	0.000023	0.000013	-16.426621	-85.863554	15.001096
27951	9.868746	-0.207434	0.667665	0.017073	-0.005773	0.080777	1.000000	0.000025	0.000033	0.000029	-16.434872	-85.863015	15.010543
27952	9.902436	-0.182016	0.702508	-0.014697	0.021206	0.116272	1.000000	0.000016	0.000028	0.000021	-16.434226	-85.863259	15.009040
27953	9.864197	-0.200496	0.702197	-0.017535	0.001947	0.078488	1.000000	0.000003	0.000029	0.000016	-16.426359	-85.863575	14.999788
27954	9.893200	-0.229880	0.713312	-0.027352	-0.026471	0.108785	1.000000	0.000016	0.000024	0.000040	-16.456150	-85.863543	15.030707
27955	9.883132	-0.208105	0.689545	-0.003802	-0.005406	0.096653	1.000000	0.000015	0.000039	0.000014	-16.439448	-85.862851	15.013983
27956	9.883076	-0.208471	0.690228	-0.004392	-0.005806	0.096653	1.000000	0.000006	0.000030	0.000025	-16.444566	-85.862686	15.018882
27957	9.873020	-0.186520	0.666451	0.019162	0.015259	0.084528	1.000000	0.000019	0.000033	0.000011	-16.425935	-85.862794	15.000679
27958	9.897541	-0.208035	0.711181	-0.024060	-0.004636	0.112522	1.000000	0.000017	0.000046	0.000035	-16.437978	-85.860562	15.013203
27959	9.902067	-0.185077	0.706906	-0.018952	0.018397	0.116270	1.000000	0.000008	0.000012	0.000020	-16.444098	-85.862661	15.018541
27960	9.868306	-0.211286	0.672939	0.011612	-0.009374	0.080782	1.000000	0.000024	0.000015	0.000015	-16.439477	-85.864484	15.015107
27961	9.863801	-0.204028	0.706725	-0.022383	-0.001248	0.078478	1.000000	0.000022	0.000029	0.000039	-16.465568	-85.864125	15.042095
27962	9.906411	-0.194190	0.674903	0.012589	0.008672	0.118574	1.000000	0.000009	0.000034	0.000015	-16.453463	-85.863885	15.029448
27963	9.906367	-0.194496	0.675462	0.011970	0.008269	0.118575	1.000000	0.000020	0.000022	0.000018	-16.450752	-85.864976	15.027317
27964	9.882696	-0.211757	0.694660	-0.009316	-0.008998	0.096647	1.000000	0.000022	0.000033	0.000020	-16.446433	-85.864833	15.023919
27965	9.897219	-0.210997	0.714786	-0.028388	-0.007431	0.112509	1.000000	0.000000	0.000025	0.000026	-16.456401	-85.865329	15.032205
27966	9.887077	-0.220386	0.662354	0.022815	-0.018327	0.098958	1.000000	0.000020	0.000022	0.000018	-16.454377	-85.866452	15.031108
27967	9.887138	-0.189498	0.691499	-0.005448	0.013237	0.100404	1.000000	0.000024	0.000044	0.000022	-16.446665	-85.864933	15.024439
27968	9.901542	-0.219978	0.683193	0.003134	-0.017160	0.114819	1.000000	0.000004	0.000018	0.000023	-16.454711	-85.866157	15.031502
27969	9.867994	-0.183738	0.706469	-0.021588	0.019004	0.082227	1.000000	0.000028	0.000038	0.000019	-16.445075	-85.865439	15.023359
27970	9.882399	-0.214276	0.698106	-0.013012	-0.011392	0.096640	1.000000	0.000007	0.000019	0.000032	-16.466679	-85.866360	15.043405
27971	9.882360	-0.214753	0.698508	-0.013631	-0.011793	0.096639	1.000000	0.000020	0.000022	0.000018	-16.463963	-85.867452	15.041270
27972	9.886907	-0.191666	0.694209	-0.008516	0.011244	0.100404	1.000000	0.000012	0.000034	0.000024	-16.465662	-85.866934	15.041149
27973	9.886854	-0.192089	0.694832	-0.009134	0.010842	0.100404	1.000000	0.000016	0.000028	0.000021	-16.464860	-85.867225	15.040477
27974	9.867640	-0.217278	0.680762	0.002966	-0.014950	0.080782	1.000000	0.000015	0.000035	0.000033	-16.480204	-85.866431	15.055155
27975	9.886741	-0.193143	0.696148	-0.010379	0.010047	0.100404	1.000000	0.000012	0.000034	0.000024	-16.481311	-85.865920	15.055941
27976	9.872138	-0.194703	0.677086	0.007462	0.007684	0.084552	1.000000	0.000024	0.000015	0.000015	-16.477361	-85.867833	15.053279
27977	9.905701	-0.200527	0.683420	0.003286	0.002674	0.118585	1.000000	0.000021	0.000040	0.000032	-16.487482	-85.866495	15.064144
27978	9.886477	-0.225733	0.669463	0.015399	-0.023122	0.098962	1.000000	0.000012	0.000034	0.000024	-16.488866	-85.865958	15.064766
27979	9.886539	-0.194803	0.698555	-0.012852	0.008453	0.100402	1.000000	0.000013	0.000028	0.000012	-16.474616	-85.866574	15.050263
27980	9.886378	-0.226506	0.670659	0.014168	-0.023922	0.098962	1.000000	0.000009	0.000030	0.000034	-16.493759	-85.866201	15.069554
27981	9.852832	-0.190371	0.693913	-0.010514	0.012269	0.066371	1.000000	0.000016	0.000028	0.000021	-16.492948	-85.866493	15.068873
27982	9.871829	-0.197372	0.680815	0.003785	0.005288	0.084556	1.000000	0.000018	0.000039	0.000023	-16.489566	-85.865390	15.065351
27983	9.905385	-0.203104	0.687232	-0.000404	0.000270	0.118586	1.000000	0.000007	0.000023	0.000013	-16.479737	-85.866510	15.054587
27984	9.871734	-0.198158	0.681958	0.002576	0.004486	0.084557	1.000000	0.000009	0.000030	0.000034	-16.498223	-85.866043	15.072858
27985	9.871687	-0.198550	0.682518	0.001959	0.004085	0.084557	1.000000	0.000023	0.000026	0.000008	-16.477638	-85.866957	15.053151
27986	9.914363	-0.188664	0.650683	0.036883	0.013934	0.124718	1.000000	0.000009	0.000030	0.000034	-16.496501	-85.866557	15.071863
27987	9.886136	-0.198213	0.703283	-0.017737	0.005253	0.100397	1.000000	0.000009	0.000034	0.000015	-16.484144	-85.866372	15.058803
27988	9.886085	-0.198548	0.703903	-0.018350	0.004857	0.100396	1.000000	0.000016	0.000028	0.000021	-16.483585	-85.866628	15.057264
27989	9.886037	-0.198939	0.704464	-0.018968	0.004455	0.100395	1.000000	0.000016	0.000028	0.000021	-16.482762	-85.866921	15.056570
27990	9.890502	-0.207086	0.671680	0.013784	-0.004504	0.102748	1.000000	0.000026	0.000026	0.000017	-16.475781	-85.867476	15.049716
27991	9.885934	-0.199592	0.705730	-0.020199	0.003657	0.100393	1.000000	0.000011	0.000046	0.000017	-16.460896	-85.865987	15.034359
27992	9.871328	-0.201273	0.686906	-0.002337	0.001291	0.084558	1.000000	0.000009	0.000030	0.000034	-16.480072	-85.865643	15.053500
27993	9.890341	-0.208476	0.673618	0.011931	-0.005707	0.102750	1.000000	0.000017	0.000017	0.000028	-16.495208	-85.866915	15.068915
27994	9.885780	-0.201079	0.707458	-0.022066	0.002464	0.100389	1.000000	0.000009	0.000034	0.000015	-16.483653	-85.866807	15.056921
27995	9.871186	-0.202595	0.688552	-0.004203	0.000094	0.084557	1.000000	0.000022	0.000033	0.000020	-16.478399	-85.866597	15.052477
27996	9.890191	-0.209614	0.675474	0.010079	-0.006906	0.102751	1.000000	0.000012	0.000034	0.000024	-16.479155	-85.865979	15.052500
27997	9.894655	-0.217965	0.642837	0.042823	-0.015879	0.105118	1.000000	0.000015	0.000035	0.000033	-16.493653	-85.865147	15.067059
27998	9.890075	-0.210611	0.676851	0.008844	-0.007706	0.102752	1.000000	0.000009	0.000034	0.000015	-16.481610	-85.864948	15.053576
27999	9.890031	-0.210915	0.677409	0.008225	-0.008108	0.102752	1.000000	0.000020	0.000022	0.000018	-16.478878	-85.866043	15.051422
28000	9.870927	-0.204661	0.691652	-0.007257	-0.001902	0.084555	1.000000	0.000016	0.000028	0.000021	-16.478002	-85.866269	15.049860
28001	9.889932	-0.211775	0.678583	0.006999	-0.008910	0.102752	1.000000	0.000021	0.000040	0.000032	-16.488068	-85.864934	15.060669
28002	9.889976	-0.181033	0.707724	-0.018743	0.021701	0.104190	1.000000	0.000006	0.000030	0.000025	-16.365475	-85.852478	14.936933
28003	9.889827	-0.212812	0.679788	0.008258	-0.010702	0.102750	1.000000	0.000023	0.000022	0.000027	-16.375582	-85.853198	14.947981
28004	9.908849	-0.219795	0.666546	0.022514	-0.017714	0.120945	1.000000	0.000013	0.000028	0.000012	-16.361579	-85.853802	14.932562
28005	9.894377	-0.190054	0.675983	0.012786	0.011911	0.106560	1.000000	0.000006	0.000030	0.000025	-16.366501	-85.853746	14.936460
28006	9.889693	-0.213826	0.681415	0.006428	-0.011908	0.102750	1.000000	0.000023	0.000026	0.000008	-16.345723	-85.854575	14.916168
28007	9.889730	-0.182861	0.710693	-0.021784	0.019688	0.104188	1.000000	0.000016	0.000057	0.000027	-16.341282	-85.851408	14.911848
28008	9.870493	-0.207980	0.696830	-0.009667	-0.006094	0.084551	1.000000	0.000016	0.000028	0.000021	-16.340672	-85.851694	14.910223
28009	9.894137	-0.191742	0.679012	0.010349	0.010298	0.106565	1.000000	0.000026	0.000051	0.000043	-16.361097	-85.848684	14.931984
28010	9.918470	-0.213433	0.723810	-0.032989	-0.009586	0.134389	1.000000	0.000010	0.000023	0.000022	-16.364249	-85.849380	14.934225
28011	9.874863	-0.217426	0.665552	0.021876	-0.015894	0.086930	1.000000	0.000016	0.000028	0.000021	-16.362854	-85.849623	14.932937
28012	9.893983	-0.193202	0.680839	0.008525	0.009091	0.106567	1.000000	0.000006	0.000030	0.000025	-16.368545	-85.849605	14.937300
28013	9.889279	-0.217136	0.686354	0.002158	-0.014731	0.102748	1.000000	0.000012	0.000034	0.000024	-16.369050	-85.849047	14.937463
28014	9.874804	-0.187533	0.695877	-0.007558	0.014912	0.088367	1.000000	0.000025	0.000033	0.000029	-16.377366	-85.848491	14.947387
28015	9.889167	-0.217996	0.687691	0.000935	-0.015535	0.102747	1.000000	0.000019	0.000033	0.000011	-16.358185	-85.848553	14.928614
28016	9.874611	-0.219509	0.668604	0.018815	-0.017901	0.086933	1.000000	0.000004	0.000018	0.000023	-16.366299	-85.849835	14.935389
28017	9.893730	-0.195375	0.683897	0.005471	0.007075	0.106571	1.000000	0.000021	0.000040	0.000032	-16.375789	-85.848452	14.945600
28018	9.874596	-0.189263	0.698355	-0.009993	0.013306	0.088367	1.000000	0.000012	0.000034	0.000024	-16.376770	-85.847889	14.945977
28019	9.855363	-0.214447	0.684375	0.002138	-0.012480	0.068729	1.000000	0.000021	0.000040	0.000032	-16.386246	-85.846506	14.956174
28020	9.893550	-0.196928	0.686051	0.003658	0.005866	0.106573	1.000000	0.000016	0.000028	0.000021	-16.384921	-85.846683	14.954925
28021	9.888835	-0.220813	0.691556	-0.002713	-0.017953	0.102742	1.000000	0.000012	0.000034	0.000024	-16.385407	-85.846125	14.955068
28022	9.907948	-0.196653	0.706950	-0.016045	0.007024	0.122381	1.000000	0.000025	0.000033	0.000029	-16.392916	-85.845454	14.964321
28023	9.874229	-0.222967	0.673083	0.014588	-0.020728	0.086934	1.000000	0.000008	0.000012	0.000020	-16.398405	-85.847504	14.969003
28024	9.893359	-0.198672	0.688299	0.001233	0.004253	0.106574	1.000000	0.000028	0.000038	0.000019	-16.388969	-85.846776	14.960045
28025	9.878795	-0.200158	0.669465	0.019129	0.001880	0.090770	1.000000	0.000015	0.000039	0.000014	-16.371676	-85.846039	14.942710
28026	9.874164	-0.192664	0.703508	-0.014834	0.010089	0.088365	1.000000	0.000012	0.000034	0.000024	-16.372847	-85.845509	14.943254
28027	9.893194	-0.199706	0.690361	-0.000598	0.003042	0.106575	1.000000	0.000020	0.000022	0.000018	-16.369536	-85.846554	14.940500
28028	9.874071	-0.193547	0.704580	-0.016057	0.009287	0.088364	1.000000	0.000009	0.000030	0.000034	-16.388540	-85.846220	14.958327
28029	9.859519	-0.195163	0.685596	0.001845	0.006915	0.072564	1.000000	0.000019	0.000033	0.000011	-16.369350	-85.846284	14.939546
28030	9.873859	-0.225642	0.677599	0.010322	-0.023542	0.086933	1.000000	0.000033	0.000049	0.000030	-16.369994	-85.843827	14.942720
28031	9.912059	-0.208110	0.679232	0.011811	-0.005219	0.124787	1.000000	0.000008	0.000012	0.000020	-16.375462	-85.845877	14.947382
28032	9.863951	-0.204233	0.654114	0.033381	-0.002905	0.074981	1.000000	0.000016	0.000028	0.000021	-16.374643	-85.846141	14.946818
28033	9.892886	-0.202295	0.694018	-0.004248	0.000623	0.106574	1.000000	0.000008	0.000041	0.000027	-16.376992	-85.844784	14.948374
28034	9.907321	-0.201553	0.714314	-0.023381	0.002192	0.122369	1.000000	0.000016	0.000028	0.000021	-16.376414	-85.845086	14.947575
28035	9.859207	-0.197672	0.689349	-0.001796	0.004504	0.072565	1.000000	0.000016	0.000028	0.000021	-16.374984	-85.845331	14.946252
28036	9.873646	-0.196898	0.709582	-0.020916	0.006072	0.088357	1.000000	0.000012	0.000034	0.000024	-16.375835	-85.844766	14.947094
28037	9.911759	-0.210605	0.682830	0.008137	-0.007642	0.124790	1.000000	0.000003	0.000029	0.000016	-16.367309	-85.845035	14.937163
28038	9.859056	-0.198860	0.691160	-0.003623	0.003303	0.072565	1.000000	0.000029	0.000027	0.000026	-16.373716	-85.845301	14.945426
28039	9.901862	-0.188982	0.659506	0.031198	0.012992	0.112855	1.000000	-0.000007	0.000035	0.000000	-16.340327	-85.845414	14.909420
28040	9.906929	-0.234902	0.689529	0.000522	-0.032257	0.120934	1.000000	0.000016	0.000028	0.000021	-16.339373	-85.845674	14.909386
28041	9.882693	-0.182981	0.674273	0.015153	0.018842	0.094641	1.000000	0.000017	0.000017	0.000028	-16.353812	-85.846900	14.924079
28042	9.868656	-0.222523	0.718032	-0.030362	-0.019741	0.084492	1.000000	0.000020	0.000051	0.000025	-16.348371	-85.844626	14.918633
28043	9.892367	-0.206162	0.700240	-0.010373	-0.003401	0.106569	1.000000	0.000016	0.000028	0.000021	-16.346930	-85.844871	14.917299
28044	9.892314	-0.206583	0.700864	-0.010978	-0.003802	0.106568	1.000000	0.000012	0.000034	0.000024	-16.347657	-85.844289	14.918252
28045	9.877776	-0.208230	0.681930	0.006936	-0.006174	0.090785	1.000000	0.000012	0.000034	0.000024	-16.348100	-85.843735	14.918351
28046	9.882434	-0.185062	0.677482	0.012106	0.016830	0.094649	1.000000	0.000015	0.000010	0.000007	-16.334294	-85.846392	14.905142
28047	9.872996	-0.232317	0.687837	-0.000053	-0.030383	0.086920	1.000000	0.000004	0.000047	0.000029	-16.338511	-85.844236	14.908115
28048	9.892108	-0.208153	0.703315	-0.013417	-0.005412	0.106565	1.000000	0.000016	0.000028	0.000021	-16.337768	-85.844513	14.907605
28049	9.882289	-0.186356	0.679250	0.010278	0.015620	0.094653	1.000000	0.000017	0.000017	0.000028	-16.352195	-85.845740	14.922286
28050	9.877533	-0.210406	0.684772	0.003892	-0.008183	0.090785	1.000000	0.000017	0.000046	0.000035	-16.363949	-85.843563	14.934809
28051	9.896652	-0.186257	0.700178	-0.009466	0.016779	0.110432	1.000000	0.000020	0.000022	0.000018	-16.360619	-85.844610	14.932035
28052	9.891823	-0.241307	0.677164	0.011700	-0.039062	0.105139	1.000000	0.000013	0.000028	0.000012	-16.346485	-85.845215	14.917027
28053	9.911039	-0.185637	0.720855	-0.029219	0.017940	0.126206	1.000000	0.000016	0.000028	0.000021	-16.345031	-85.845461	14.915679
28054	9.858259	-0.205063	0.700661	-0.013355	-0.003118	0.072557	1.000000	0.000017	0.000021	0.000009	-16.328769	-85.846829	14.899979
28055	9.891769	-0.210827	0.707275	-0.017686	-0.008233	0.106556	1.000000	0.000024	0.000044	0.000022	-16.320423	-85.845272	14.892654
28056	9.881948	-0.188964	0.683471	0.006017	0.012804	0.094660	1.000000	0.000016	0.000028	0.000021	-16.319487	-85.845516	14.891566
28057	9.877282	-0.181543	0.717216	-0.027927	0.021041	0.092202	1.000000	0.000017	0.000017	0.000028	-16.333904	-85.846745	14.906236
28058	9.896326	-0.188711	0.704113	-0.013734	0.013962	0.110431	1.000000	0.000018	0.000039	0.000023	-16.330376	-85.845696	14.903393
28059	9.862624	-0.214986	0.670485	0.016947	-0.013773	0.075014	1.000000	0.000012	0.000034	0.000024	-16.330794	-85.845143	14.903466
28060	9.896217	-0.189436	0.705455	-0.014965	0.013158	0.110430	1.000000	0.000023	0.000026	0.000008	-16.310549	-85.846082	14.884249
28061	9.876989	-0.214455	0.691331	-0.002818	-0.012612	0.090781	1.000000	0.000015	0.000035	0.000033	-16.324339	-85.845208	14.898075
28062	9.881639	-0.191519	0.687218	0.002360	0.010386	0.094665	1.000000	0.000024	0.000044	0.000022	-16.316257	-85.843630	14.891189
28063	9.881602	-0.191848	0.687651	0.001753	0.009981	0.094665	1.000000	0.000016	-0.000001	0.000014	-16.317911	-85.847283	14.892933
28064	9.900658	-0.198905	0.674492	0.015942	0.002893	0.112900	1.000000	0.000020	0.000051	0.000025	-16.311785	-85.844911	14.886638
28065	9.895877	-0.222733	0.680189	0.009548	-0.020911	0.109012	1.000000	0.000003	0.000029	0.000016	-16.303203	-85.845182	14.876649
28066	9.881450	-0.193023	0.689515	-0.000072	0.008775	0.094666	1.000000	0.000019	0.000028	0.000030	-16.315654	-85.845132	14.889865
28067	9.876674	-0.217021	0.695032	-0.006465	-0.015028	0.090776	1.000000	0.000025	0.000033	0.000029	-16.323163	-85.844557	14.898542
28068	9.900439	-0.200773	0.677154	0.013502	0.001276	0.112903	1.000000	0.000012	0.000034	0.000024	-16.323912	-85.844001	14.899198
28069	9.862184	-0.187772	0.705123	-0.016681	0.014255	0.076430	1.000000	0.000022	0.000033	0.000020	-16.318048	-85.843748	14.894122
28070	9.890960	-0.217102	0.716628	-0.026838	-0.014269	0.106529	1.000000	0.000016	0.000028	0.000021	-16.317057	-85.844008	14.892944
28071	9.895556	-0.225425	0.683965	0.005885	-0.023334	0.109009	1.000000	0.000012	0.000034	0.000024	-16.317450	-85.843457	14.892993
28072	9.881130	-0.195694	0.693327	-0.003719	0.006356	0.094668	1.000000	0.000016	0.000028	0.000021	-16.316364	-85.843699	14.892051
28073	9.900180	-0.202765	0.680343	0.010456	-0.000747	0.112907	1.000000	0.000028	0.000038	0.000019	-16.306113	-85.842945	14.883269
28074	9.876293	-0.219962	0.699503	-0.010728	-0.017844	0.090767	1.000000	0.000013	0.000023	0.000031	-16.322892	-85.843395	14.900126
28075	9.880979	-0.197012	0.695110	-0.005546	0.005145	0.094667	1.000000	0.000016	0.000028	0.000021	-16.321403	-85.843644	14.898742
28076	9.876187	-0.220905	0.700702	-0.011949	-0.018648	0.090764	1.000000	0.000008	0.000041	0.000027	-16.324245	-85.842311	14.900281
28077	9.880864	-0.197914	0.696480	-0.006765	0.004341	0.094667	1.000000	0.000016	0.000028	0.000021	-16.322755	-85.842561	14.898896
28078	9.880824	-0.198375	0.696930	-0.007370	0.003940	0.094667	1.000000	0.000017	0.000017	0.000028	-16.337447	-85.843768	14.914107
28079	9.899889	-0.205657	0.683699	0.006797	-0.003170	0.112910	1.000000	0.000013	0.000023	0.000031	-16.353706	-85.844198	14.930168
28080	9.861549	-0.224038	0.683206	0.004175	-0.022221	0.075012	1.000000	0.000028	0.000038	0.000019	-16.343919	-85.843447	14.921652
28081	9.895032	-0.229943	0.690017	-0.000216	-0.027370	0.109001	1.000000	-0.000005	0.000042	0.000021	-16.339044	-85.842119	14.914470
28082	9.880616	-0.200261	0.699326	-0.009801	0.002331	0.094665	1.000000	0.000017	0.000017	0.000028	-16.353873	-85.843339	14.930066
28083	9.880572	-0.200708	0.699825	-0.010408	0.001925	0.094665	1.000000	0.000022	0.000033	0.000020	-16.347988	-85.843088	14.924968
28084	9.889937	-0.185607	0.662257	0.028112	0.016241	0.101082	1.000000	0.000006	0.000030	0.000025	-16.352859	-85.842990	14.929798
28085	9.885140	-0.209468	0.667790	0.021710	-0.007557	0.097170	1.000000	0.000022	0.000033	0.000020	-16.346972	-85.842739	14.924698
28086	9.885168	-0.178499	0.696717	-0.006416	0.024107	0.098579	1.000000	0.000010	0.000023	0.000022	-16.349886	-85.843422	14.927417
28087	9.880369	-0.202372	0.702202	-0.012818	0.000311	0.094662	1.000000	0.000012	0.000034	0.000024	-16.350243	-85.842872	14.927429
28088	9.899416	-0.209626	0.689317	0.001336	-0.006805	0.112910	1.000000	0.000021	0.000040	0.000032	-16.359899	-85.841495	14.938489
28089	9.899358	-0.210165	0.689982	0.000727	-0.007211	0.112910	1.000000	0.000029	0.000027	0.000026	-16.365504	-85.841723	14.945710
28090	9.865772	-0.204972	0.684491	0.003925	-0.002857	0.078924	1.000000	0.000013	0.000028	0.000012	-16.351019	-85.842276	14.930451
28091	9.880151	-0.204109	0.704767	-0.015246	-0.001300	0.094659	1.000000	0.000012	0.000034	0.000024	-16.351367	-85.841727	14.930453
28092	9.884783	-0.212458	0.672113	0.017478	-0.010384	0.097176	1.000000	0.000016	0.000028	0.000021	-16.349949	-85.841921	14.929217
28093	9.880045	-0.204949	0.706011	-0.016452	-0.002106	0.094656	1.000000	0.000012	0.000034	0.000024	-16.350293	-85.841372	14.929215
28094	9.899108	-0.212120	0.692970	-0.002303	-0.009229	0.112908	1.000000	0.000010	0.000023	0.000022	-16.353499	-85.842107	14.932090
28095	9.884706	-0.182425	0.702231	-0.011865	0.020476	0.098582	1.000000	0.000025	0.000033	0.000029	-16.360952	-85.841535	14.940708
28096	9.889336	-0.190883	0.669694	0.020857	0.011386	0.101107	1.000000	0.000008	0.000041	0.000026	-16.363172	-85.840133	14.943187
28097	9.870160	-0.184521	0.684098	0.005499	0.017706	0.082854	1.000000	0.000015	0.000039	0.000014	-16.345774	-85.839405	14.925748
28098	9.884458	-0.215118	0.676027	0.013836	-0.012808	0.097179	1.000000	0.000013	0.000023	0.000031	-16.362492	-85.839856	14.942054
28099	9.865300	-0.208880	0.690099	-0.001520	-0.006486	0.078923	1.000000	0.000010	0.000023	0.000022	-16.365359	-85.840609	14.944342
28100	9.898785	-0.214866	0.696731	-0.005955	-0.011653	0.112904	1.000000	0.000012	0.000034	0.000024	-16.366181	-85.840066	14.944104
28101	9.869969	-0.186402	0.686328	0.003067	0.016096	0.082858	1.000000	0.000013	0.000023	0.000031	-16.382395	-85.840496	14.960117
28102	9.893974	-0.207856	0.731252	-0.040494	-0.003766	0.110367	1.000000	0.000021	0.000044	0.000012	-16.360994	-85.839280	14.939582
28103	9.869861	-0.187213	0.687668	0.001852	0.015289	0.082860	1.000000	0.000013	0.000023	0.000031	-16.377202	-85.839712	14.955589
28104	9.884150	-0.217948	0.679625	0.010171	-0.015228	0.097180	1.000000	0.000008	0.000041	0.000026	-16.380142	-85.838411	14.956689
28105	9.864980	-0.211718	0.693800	-0.005176	-0.008898	0.078920	1.000000	0.000017	0.000017	0.000028	-16.394506	-85.839643	14.971301
28106	9.888832	-0.195443	0.675792	0.014759	0.007349	0.101122	1.000000	0.000009	0.000034	0.000015	-16.381925	-85.839421	14.957890
28107	9.888777	-0.195703	0.676520	0.014151	0.006943	0.101123	1.000000	0.000015	0.000039	0.000013	-16.364510	-85.838695	14.940434
28108	9.874310	-0.197332	0.657582	0.032124	0.004578	0.085408	1.000000	0.000015	0.000035	0.000033	-16.378403	-85.837816	14.955129
28109	9.883946	-0.188732	0.711210	-0.020378	0.014837	0.098578	1.000000	0.000012	0.000034	0.000024	-16.378713	-85.837269	14.955093
28110	9.903021	-0.195937	0.698142	-0.006244	0.007693	0.116840	1.000000	0.000004	0.000018	0.000023	-16.385983	-85.838470	14.960925
28111	9.883780	-0.220978	0.684010	0.005922	-0.018058	0.097179	1.000000	0.000024	0.000044	0.000022	-16.377518	-85.836922	14.953478
28112	9.869384	-0.191181	0.693399	-0.003622	0.011668	0.082864	1.000000	0.000016	0.000028	0.000021	-16.376657	-85.837246	14.953763
28113	9.888467	-0.198403	0.680260	0.010501	0.004517	0.101129	1.000000	0.000017	0.000017	0.000028	-16.391009	-85.838478	14.968363
28114	9.898036	-0.220941	0.705416	-0.014497	-0.017305	0.112887	1.000000	0.000012	0.000039	0.000004	-16.360432	-85.838043	14.936694
28115	9.873962	-0.200186	0.661928	0.027876	0.001746	0.085422	1.000000	0.000008	0.000041	0.000026	-16.362572	-85.836696	14.938037
28116	9.883515	-0.222873	0.687215	0.002886	-0.020078	0.097176	1.000000	0.000016	0.000028	0.000021	-16.360801	-85.836874	14.937285
28117	9.883465	-0.223351	0.687778	0.002277	-0.020483	0.097175	1.000000	0.000019	0.000028	0.000030	-16.372594	-85.836806	14.949560
28118	9.888220	-0.200399	0.683256	0.007478	0.002497	0.101133	1.000000	0.000008	0.000012	0.000020	-16.378499	-85.838866	14.953921
28119	9.888179	-0.200861	0.683706	0.006870	0.002091	0.101133	1.000000	0.000025	0.000033	0.000029	-16.385908	-85.838297	14.962494
28120	9.888118	-0.201385	0.684443	0.006264	0.001689	0.101134	1.000000	0.000008	0.000041	0.000026	-16.388331	-85.836932	14.963512
28121	9.902464	-0.200584	0.704686	-0.012935	0.003245	0.116836	1.000000	0.000024	0.000015	0.000015	-16.383122	-85.838787	14.959306
28122	9.888023	-0.202062	0.685607	0.005053	0.000879	0.101134	1.000000	0.000011	0.000045	0.000016	-16.367610	-85.837234	14.943901
28123	9.887971	-0.202481	0.686230	0.004445	0.000473	0.101135	1.000000	0.000017	0.000017	0.000028	-16.381950	-85.838467	14.958488
28124	9.859211	-0.173978	0.675654	0.013527	0.028248	0.071130	1.000000	0.000006	0.000030	0.000025	-16.387127	-85.838442	14.962165
28125	9.883077	-0.226846	0.692193	-0.002590	-0.023710	0.097168	1.000000	0.000016	0.000028	0.000021	-16.385575	-85.838697	14.960716
28126	9.902146	-0.234206	0.679301	0.011526	-0.030877	0.115440	1.000000	0.000024	0.000040	0.000041	-16.407943	-85.836932	14.984676
28127	9.892579	-0.181160	0.683532	0.007838	0.022233	0.105105	1.000000	0.000008	0.000012	0.000020	-16.413344	-85.838986	14.989264
28128	9.887742	-0.204751	0.688863	0.001410	-0.001545	0.101135	1.000000	-0.000003	0.000029	-0.000003	-16.378424	-85.839923	14.952001
28129	9.887699	-0.204963	0.689416	0.000802	-0.001951	0.101135	1.000000	0.000029	0.000027	0.000026	-16.383993	-85.840156	14.959183
28130	9.863702	-0.222052	0.708571	-0.020329	-0.018962	0.078886	1.000000	0.000018	0.000039	0.000023	-16.380155	-85.839101	14.955510
28131	9.892395	-0.182337	0.685878	0.005405	0.020616	0.105110	1.000000	0.000009	0.000034	0.000014	-16.367082	-85.838878	14.941713
28132	9.921047	-0.211774	0.697560	-0.004915	-0.007969	0.135103	1.000000	0.000019	0.000028	0.000030	-16.379061	-85.838786	14.953872
28133	9.868347	-0.199813	0.705613	-0.016327	0.003204	0.082858	1.000000	0.000009	0.000034	0.000014	-16.365986	-85.838563	14.940072
28134	9.901804	-0.205814	0.712418	-0.020841	-0.002006	0.116823	1.000000	0.000025	0.000033	0.000029	-16.373850	-85.838021	14.948912
28135	9.853863	-0.201590	0.687237	0.001058	0.000438	0.067168	1.000000	0.000013	0.000032	-0.000008	-16.327882	-85.838741	14.902598
28136	9.892091	-0.215527	0.660618	0.029840	-0.013510	0.103727	1.000000	0.000023	0.000017	0.000046	-16.369432	-85.839371	14.945160
28137	9.887271	-0.208172	0.694562	-0.004071	-0.005180	0.101133	1.000000	0.000007	0.000052	0.000019	-16.355621	-85.837048	14.930407
28138	9.887218	-0.208446	0.695241	-0.004683	-0.005580	0.101133	1.000000	0.000011	0.000016	0.000010	-16.343774	-85.838944	14.917596
28139	9.887180	-0.208774	0.695674	-0.005291	-0.005986	0.101132	1.000000	0.000029	0.000027	0.000026	-16.349330	-85.839179	14.924763
28140	9.872755	-0.210470	0.676575	0.012719	-0.008350	0.085450	1.000000	0.000025	0.000033	0.000029	-16.356690	-85.838552	14.933224
28141	9.887080	-0.209711	0.696823	-0.006497	-0.006795	0.101131	1.000000	0.000020	0.000021	0.000018	-16.353286	-85.839608	14.930372
28142	9.872729	-0.179780	0.705881	-0.015980	0.022959	0.086837	1.000000	0.000007	0.000023	0.000013	-16.343434	-85.840728	14.919090
28143	9.901360	-0.209369	0.717534	-0.026333	-0.005638	0.116809	1.000000	0.000031	0.000034	0.000047	-16.377497	-85.839520	14.955068
28144	9.877393	-0.188973	0.673811	0.016104	0.013410	0.089443	1.000000	0.000016	0.000028	0.000021	-16.376426	-85.839786	14.953389
28145	9.862911	-0.228130	0.717599	-0.029454	-0.024989	0.078850	1.000000	0.000015	0.000039	0.000013	-16.358939	-85.839064	14.935860
28146	9.891657	-0.188518	0.694803	-0.003726	0.014564	0.105122	1.000000	0.000013	0.000023	0.000031	-16.375508	-85.839506	14.952114
28147	9.910753	-0.195726	0.681770	0.010349	0.007371	0.123408	1.000000	0.000013	0.000028	0.000012	-16.360581	-85.840084	14.936913
28148	9.886728	-0.212756	0.700872	-0.010772	-0.009613	0.101125	1.000000	0.000015	0.000035	0.000033	-16.374456	-85.839233	14.951557
28149	9.872311	-0.214453	0.681791	0.007236	-0.011980	0.085451	1.000000	0.000016	0.000028	0.000021	-16.372868	-85.839490	14.950070
28150	9.867474	-0.207048	0.715664	-0.026679	-0.003626	0.082835	1.000000	0.000018	0.000035	0.000042	-16.400482	-85.838357	14.977750
28151	9.900857	-0.244708	0.694220	-0.003759	-0.040984	0.115409	1.000000	0.000012	0.000034	0.000024	-16.400704	-85.837814	14.977624
28152	9.876984	-0.192458	0.678795	0.011236	0.010182	0.089453	1.000000	-0.000003	0.000029	-0.000003	-16.365540	-85.838709	14.940477
28153	9.886460	-0.214894	0.703997	-0.013821	-0.011630	0.101119	1.000000	0.000029	0.000027	0.000026	-16.371082	-85.838946	14.947630
28154	9.876886	-0.193163	0.680020	0.010019	0.009375	0.089455	1.000000	0.000008	0.000041	0.000026	-16.373526	-85.837616	14.949604
28155	9.876825	-0.193642	0.680767	0.009412	0.008969	0.089456	1.000000	0.000012	0.000034	0.000024	-16.373745	-85.837074	14.949475
28156	9.876774	-0.194061	0.681388	0.008814	0.008564	0.089457	1.000000	0.000016	0.000028	0.000021	-16.372012	-85.837279	14.949019
28157	9.862372	-0.195625	0.662281	0.026831	0.006198	0.073794	1.000000	0.000022	0.000033	0.000020	-16.366031	-85.837038	14.943822
28158	9.876659	-0.195031	0.682783	0.007599	0.007758	0.089459	1.000000	0.000020	0.000046	0.000044	-16.390719	-85.834557	14.969249
28159	9.886108	-0.217862	0.708018	-0.017466	-0.014053	0.101110	1.000000	0.000008	0.000012	0.000020	-16.396083	-85.836614	14.973798
28160	9.890921	-0.194837	0.703474	-0.012240	0.008911	0.105121	1.000000	0.000016	0.000028	0.000021	-16.394750	-85.836857	14.972469
28161	9.895673	-0.203238	0.670793	0.020444	-0.000260	0.107756	1.000000	0.000016	0.000028	0.000021	-16.393147	-85.837115	14.970968
28162	9.890823	-0.195556	0.704651	-0.013456	0.008103	0.105121	1.000000	0.000009	0.000034	0.000014	-16.380296	-85.836895	14.957805
28163	9.890776	-0.195900	0.705221	-0.014064	0.007697	0.105120	1.000000	0.000010	0.000023	0.000022	-16.383076	-85.837652	14.960003
28164	9.905021	-0.226569	0.697218	-0.005845	-0.022878	0.119398	1.000000	0.000012	0.000034	0.000024	-16.383409	-85.837103	14.960721
28165	9.857178	-0.191201	0.700215	-0.011307	0.011737	0.071166	1.000000	0.000019	0.000028	0.000030	-16.395130	-85.837040	14.972919
28166	9.895417	-0.205526	0.673861	0.017399	-0.002283	0.107761	1.000000	0.000024	0.000040	0.000041	-16.418001	-85.835371	14.996622
28167	9.895370	-0.206106	0.674377	0.016791	-0.002690	0.107762	1.000000	0.000008	0.000012	0.000020	-16.423373	-85.837428	15.001178
28168	9.871317	-0.222997	0.693343	-0.004297	-0.019643	0.085441	1.000000	0.000015	0.000039	0.000013	-16.405778	-85.836636	14.983189
28169	9.895283	-0.206810	0.675443	0.015586	-0.003501	0.107764	1.000000	0.000017	0.000017	0.000028	-16.420083	-85.837872	14.997737
28170	9.890421	-0.199264	0.709240	-0.018316	0.004872	0.105115	1.000000	0.000018	0.000039	0.000023	-16.416337	-85.836862	14.994447
28171	9.871154	-0.224279	0.695245	-0.006126	-0.020854	0.085437	1.000000	0.000018	0.000039	0.000023	-16.412130	-85.835823	14.990574
28172	9.875971	-0.201348	0.690859	-0.000891	0.002104	0.089465	1.000000	0.000017	0.000017	0.000028	-16.426533	-85.837034	15.005769
28173	9.899949	-0.185328	0.672856	0.018989	0.018240	0.111797	1.000000	0.000019	0.000028	0.000030	-16.438238	-85.836971	15.017951
28174	9.880695	-0.210342	0.658700	0.031182	-0.007482	0.092121	1.000000	0.000009	0.000034	0.000014	-16.425337	-85.836739	15.004225
28175	9.890153	-0.201485	0.712341	-0.021350	0.002851	0.105110	1.000000	0.000012	0.000034	0.000024	-16.425508	-85.836198	15.004047
28176	9.894929	-0.209963	0.679633	0.011330	-0.006332	0.107769	1.000000	0.000004	0.000018	0.000023	-16.432904	-85.837427	15.009653
28177	9.875720	-0.203773	0.693728	-0.003921	0.000085	0.089464	1.000000	0.000014	0.000041	0.000045	-16.461495	-85.835441	15.038196
28178	9.870782	-0.227801	0.699367	-0.010362	-0.023676	0.085428	1.000000	0.000016	0.000028	0.000021	-16.459926	-85.835652	15.036738
28179	9.894762	-0.211661	0.681540	0.009513	-0.007548	0.107770	1.000000	0.000012	0.000034	0.000024	-16.460085	-85.835112	15.036548
28180	9.894710	-0.212080	0.682162	0.008911	-0.007951	0.107770	1.000000	0.000016	0.000028	0.000021	-16.458671	-85.835332	15.034736
28181	9.894712	-0.181029	0.711000	-0.019137	0.023789	0.109142	1.000000	0.000016	0.000028	0.000021	-16.457045	-85.835592	15.033211
28182	9.861124	-0.207297	0.677156	0.011708	-0.003889	0.073825	1.000000	0.000021	0.000039	0.000032	-16.466286	-85.834197	15.042853
28183	9.913754	-0.188762	0.698899	-0.005712	0.016150	0.127450	1.000000	0.000019	0.000032	0.000011	-16.446954	-85.834282	15.023930
28184	9.875347	-0.206813	0.698115	-0.008156	-0.002735	0.089461	1.000000	0.000004	0.000018	0.000023	-16.454565	-85.835553	15.029849
28185	9.908780	-0.212867	0.704919	-0.012779	-0.008014	0.123405	1.000000	0.000028	0.000038	0.000019	-16.444150	-85.834818	15.020902
28186	9.899289	-0.191145	0.680904	0.011111	0.012979	0.111817	1.000000	0.000009	0.000030	0.000034	-16.462200	-85.834428	15.038288
28187	9.856030	-0.201353	0.713408	-0.024603	0.002890	0.071148	1.000000	0.000016	0.000028	0.000021	-16.460565	-85.834689	15.036754
28188	9.904035	-0.200101	0.648813	0.043171	0.003372	0.114500	1.000000	0.000016	0.000028	0.000021	-16.459197	-85.834965	15.036249
28189	9.875090	-0.209014	0.701099	-0.011192	-0.004754	0.089458	1.000000	0.000012	0.000034	0.000024	-16.459336	-85.834426	15.036038
28190	9.908508	-0.215077	0.708076	-0.015827	-0.010036	0.123398	1.000000	0.000028	0.000038	0.000019	-16.449169	-85.833694	15.027679
28191	9.874977	-0.209863	0.702428	-0.012407	-0.005561	0.089456	1.000000	0.000013	0.000023	0.000031	-16.465228	-85.834130	15.043529
28192	9.898978	-0.193878	0.684629	0.007452	0.010551	0.111823	1.000000	0.000008	0.000041	0.000026	-16.467661	-85.832811	15.044598
28193	9.860556	-0.212119	0.683897	0.005029	-0.008324	0.073828	1.000000	0.000017	0.000017	0.000028	-16.481947	-85.834047	15.059125
28194	9.889126	-0.210163	0.724005	-0.032892	-0.004807	0.105077	1.000000	0.000011	0.000045	0.000016	-16.466443	-85.832535	15.043096
28195	9.903717	-0.171854	0.681604	0.011478	0.032688	0.115884	1.000000	0.000019	0.000028	0.000030	-16.478101	-85.832474	15.055229
28196	9.884456	-0.196945	0.667440	0.023683	0.006974	0.096204	1.000000	0.000012	0.000034	0.000024	-16.478419	-85.831900	15.054539
28197	9.879547	-0.189306	0.701281	-0.010200	0.015375	0.093510	1.000000	0.000016	0.000028	0.000021	-16.476772	-85.832162	15.052993
28198	9.879497	-0.189679	0.701887	-0.010802	0.014974	0.093510	1.000000	0.000022	0.000033	0.000020	-16.470967	-85.831896	15.047069
28199	9.893713	-0.220291	0.693919	-0.002650	-0.015633	0.107764	1.000000	0.000020	0.000021	0.000018	-16.467549	-85.832958	15.044200
28200	9.879356	-0.221895	0.674792	0.015392	-0.017994	0.092145	1.000000	0.000008	0.000041	0.000026	-16.469981	-85.831681	15.045972
28201	9.903414	-0.174542	0.685313	0.007830	0.030260	0.115896	1.000000	0.000022	0.000028	0.000039	-16.494924	-85.831297	15.071764
28202	9.898449	-0.198473	0.690936	-0.001175	0.005563	0.111830	1.000000	0.000028	0.000038	0.000019	-16.464725	-85.846198	15.036866
28203	9.912648	-0.229137	0.683152	0.006955	-0.025054	0.126081	1.000000	0.000012	0.000034	0.000023	-16.464772	-85.845705	15.036558
28204	9.859962	-0.216995	0.690899	-0.004198	-0.013698	0.073822	1.000000	0.000010	0.000023	0.000022	-16.467851	-85.846518	15.039649
28205	9.879122	-0.192934	0.706266	-0.017625	0.011202	0.093505	1.000000	0.000015	0.000035	0.000033	-16.481239	-85.845702	15.053055
28206	9.898227	-0.200426	0.693544	-0.003638	0.003938	0.111830	1.000000	0.000021	0.000039	0.000032	-16.490653	-85.844367	15.062601
28207	9.859786	-0.218509	0.692929	-0.006038	-0.014914	0.073819	1.000000	0.000019	0.000032	0.000011	-16.471183	-85.844501	15.043535
28208	9.903046	-0.177736	0.689808	0.000992	0.026472	0.115910	1.000000	0.000004	0.000018	0.000023	-16.478619	-85.845783	15.049666
28209	9.893166	-0.224981	0.700184	-0.011343	-0.020630	0.107749	1.000000	0.000029	0.000027	0.000026	-16.484065	-85.846070	15.056715
28210	9.878869	-0.195043	0.709219	-0.020691	0.009183	0.093501	1.000000	0.000013	0.000028	0.000012	-16.469514	-85.846689	15.041268
28211	9.902913	-0.178870	0.691419	-0.000853	0.025252	0.115913	1.000000	0.000012	0.000034	0.000023	-16.469544	-85.846196	15.040942
28212	9.902827	-0.210829	0.663684	0.025940	-0.007327	0.114557	1.000000	0.000017	0.000017	0.000028	-16.484227	-85.847455	15.054845
28213	9.864436	-0.197535	0.691100	-0.003854	0.006007	0.077898	1.000000	0.000012	0.000034	0.000023	-16.484252	-85.846963	15.054514
28214	9.883595	-0.173317	0.706575	-0.017276	0.030909	0.097585	1.000000	0.000009	0.000034	0.000014	-16.471156	-85.846749	15.040080
28215	9.883495	-0.205118	0.679108	0.009512	-0.001678	0.096230	1.000000	0.000024	0.000044	0.000021	-16.462374	-85.845263	15.032310
28216	9.892800	-0.227740	0.704459	-0.015631	-0.023469	0.107737	1.000000	0.000004	0.000018	0.000023	-16.469201	-85.846472	15.037868
28217	9.883403	-0.205995	0.680178	0.008299	-0.002494	0.096231	1.000000	0.000029	0.000026	0.000026	-16.474641	-85.846760	15.044909
28218	9.902563	-0.181823	0.695645	-0.005137	0.022406	0.115918	1.000000	0.000005	0.000041	0.000017	-16.463579	-85.845806	15.032662
28219	9.897579	-0.205586	0.701246	-0.011618	-0.001345	0.111825	1.000000	0.000010	0.000023	0.000022	-16.466237	-85.846612	15.034730
28220	9.897526	-0.206004	0.701867	-0.012237	-0.001747	0.111824	1.000000	0.000018	0.000039	0.000022	-16.462392	-85.845631	15.030602
28221	9.897465	-0.206437	0.702601	-0.012853	-0.002156	0.111823	1.000000	0.000012	0.000034	0.000023	-16.462404	-85.845140	15.030258
28222	9.883137	-0.208054	0.683406	0.005225	-0.004522	0.096232	1.000000	0.000010	0.000023	0.000022	-16.465086	-85.845897	15.032471
28223	9.897366	-0.207300	0.703747	-0.014076	-0.002971	0.111821	1.000000	0.000012	0.000034	0.000023	-16.465094	-85.845405	15.032123
28224	9.897313	-0.207717	0.704369	-0.014682	-0.003375	0.111820	1.000000	0.000016	0.000028	0.000021	-16.463418	-85.845654	15.030303
28225	9.882988	-0.209085	0.685249	0.003390	-0.005744	0.096232	1.000000	0.000022	0.000037	0.000000	-16.426176	-85.845615	14.993776
28226	9.863754	-0.202492	0.699348	-0.011797	0.000742	0.077894	1.000000	0.000009	0.000030	0.000034	-16.444374	-85.845295	15.010704
28227	9.897143	-0.208779	0.706438	-0.016531	-0.004595	0.111817	1.000000	0.000014	0.000046	0.000025	-16.441740	-85.843508	15.007947
28228	9.873488	-0.188211	0.662606	0.026112	0.014418	0.084754	1.000000	0.000010	0.000023	0.000022	-16.444385	-85.844278	15.010625
28229	9.897040	-0.209628	0.707632	-0.017757	-0.005410	0.111814	1.000000	0.000016	0.000028	0.000021	-16.442627	-85.844588	15.008960
28230	9.916175	-0.217029	0.694718	-0.003802	-0.012709	0.130154	1.000000	0.000013	0.000023	0.000031	-16.458677	-85.845042	15.025224
28231	9.873401	-0.157945	0.692285	-0.003110	0.045386	0.086109	1.000000	0.000027	0.000020	0.000005	-16.435657	-85.846777	15.003507
28232	9.882639	-0.211912	0.689406	-0.000901	-0.008588	0.096231	1.000000	0.000008	0.000041	0.000026	-16.437636	-85.845457	15.004327
28233	9.887535	-0.189180	0.685026	0.004357	0.014341	0.100343	1.000000	0.000010	0.000019	0.000041	-16.471360	-85.846115	15.037522
28234	9.863353	-0.206135	0.703932	-0.016688	-0.002504	0.077887	1.000000	0.000019	0.000032	0.000011	-16.452009	-85.846230	15.018507
28235	9.915932	-0.219101	0.697535	-0.006882	-0.014750	0.130149	1.000000	0.000012	0.000034	0.000023	-16.451996	-85.845740	15.018137
28236	9.873127	-0.191644	0.666984	0.021222	0.011162	0.084770	1.000000	0.000023	0.000022	0.000027	-16.461966	-85.846480	15.028516
28237	9.906534	-0.197737	0.673840	0.016465	0.005812	0.118691	1.000000	0.000013	0.000028	0.000012	-16.446850	-85.847113	15.013120
28238	9.901532	-0.221419	0.679370	0.009982	-0.017931	0.114573	1.000000	0.000016	0.000028	0.000021	-16.445126	-85.847370	15.011044
28239	9.887256	-0.191399	0.688416	0.000689	0.011899	0.100347	1.000000	0.000019	0.000032	0.000011	-16.425602	-85.847506	14.991924
28240	9.882239	-0.215125	0.694121	-0.005808	-0.011841	0.096226	1.000000	0.000008	0.000041	0.000026	-16.427664	-85.846241	14.993790
28241	9.887136	-0.192118	0.689938	-0.000545	0.011085	0.100348	1.000000	0.000015	0.000039	0.000013	-16.409901	-85.845577	14.975982
28242	9.896382	-0.214597	0.715302	-0.025734	-0.010697	0.111793	1.000000	0.000020	0.000021	0.000018	-16.406267	-85.846644	14.973384
28243	9.867823	-0.217442	0.676293	0.011059	-0.015024	0.080655	1.000000	0.000015	0.000035	0.000033	-16.419590	-85.845833	14.986722
28244	9.896273	-0.215473	0.716535	-0.026966	-0.011509	0.111788	1.000000	0.000019	0.000032	0.000011	-16.400408	-85.845963	14.967535
28245	9.881975	-0.216957	0.697303	-0.008876	-0.013876	0.096221	1.000000	0.000010	0.000023	0.000022	-16.403018	-85.846770	14.969553
28246	9.886882	-0.194112	0.693012	-0.003607	0.009053	0.100349	1.000000	0.000017	0.000046	0.000034	-16.413935	-85.844631	14.980312
28247	9.886799	-0.226100	0.665470	0.023148	-0.023561	0.099006	1.000000	0.000020	0.000021	0.000018	-16.410394	-85.845742	14.977314
28248	9.867592	-0.187980	0.707592	-0.019366	0.015155	0.081998	1.000000	0.000003	0.000029	0.000015	-16.401394	-85.846005	14.966450
28249	9.905930	-0.202237	0.681346	0.009100	0.000914	0.118702	1.000000	0.000029	0.000026	0.000026	-16.406801	-85.846298	14.973456
28250	9.881712	-0.219139	0.700336	-0.011929	-0.015907	0.096214	1.000000	0.000012	0.000034	0.000023	-16.406747	-85.845767	14.973307
28251	9.853195	-0.190424	0.689583	-0.002487	0.011976	0.066437	1.000000	0.000016	0.000028	0.000021	-16.404955	-85.846079	14.971606
28252	9.900822	-0.195394	0.716439	-0.025984	0.008570	0.115907	1.000000	0.000018	0.000039	0.000022	-16.400655	-85.845062	14.967547
28253	9.886520	-0.196967	0.697364	-0.007887	0.006203	0.100349	1.000000	0.000022	0.000033	0.000020	-16.394465	-85.844878	14.962134
28254	9.891429	-0.205393	0.664730	0.024746	-0.003084	0.103148	1.000000	0.000007	0.000023	0.000013	-16.383995	-85.845998	14.950647
28255	9.886424	-0.197827	0.698482	-0.009116	0.005390	0.100348	1.000000	0.000031	0.000033	0.000047	-16.417833	-85.844849	14.986378
28256	9.886338	-0.229809	0.671024	0.017623	-0.027225	0.099008	1.000000	-0.000011	0.000042	0.000003	-16.386302	-85.844250	14.951196
28257	9.895559	-0.220895	0.724704	-0.034955	-0.016789	0.111756	1.000000	0.000022	0.000028	0.000039	-16.411181	-85.843919	14.976911
28258	9.881982	-0.153645	0.670783	0.019528	0.048873	0.093087	1.000000	0.000009	0.000034	0.000014	-16.397903	-85.843725	14.962956
28259	9.886198	-0.199582	0.701179	-0.011578	0.003767	0.100347	1.000000	0.000006	0.000030	0.000024	-16.402242	-85.843734	14.966252
28260	9.871915	-0.201196	0.681951	0.006537	0.001403	0.084797	1.000000	0.000016	0.000028	0.000021	-16.400495	-85.843985	14.964033
28261	9.900325	-0.199229	0.722221	-0.031518	0.004914	0.115894	1.000000	0.000018	0.000039	0.000022	-16.396047	-85.843002	14.959911
28262	9.891007	-0.208863	0.669902	0.019840	-0.006344	0.103158	1.000000	0.000013	0.000028	0.000012	-16.380789	-85.843582	14.944631
28263	9.876749	-0.178866	0.678917	0.010593	0.023507	0.088950	1.000000	0.000012	0.000034	0.000023	-16.380730	-85.843095	14.944215
28264	9.880940	-0.225062	0.709304	-0.020526	-0.021590	0.096190	1.000000	0.000035	0.000027	0.000044	-16.413196	-85.842764	14.978962
28265	9.890847	-0.210364	0.671797	0.017990	-0.007568	0.103160	1.000000	0.000015	0.000039	0.000013	-16.395406	-85.842103	14.961126
28266	9.871601	-0.203705	0.685729	0.002862	-0.001036	0.084798	1.000000	0.000014	0.000017	0.000019	-16.396374	-85.843688	14.962054
28267	9.871558	-0.204105	0.686237	0.002247	-0.001444	0.084799	1.000000	0.000012	0.000034	0.000023	-16.396304	-85.843202	14.961626
28268	9.899936	-0.233666	0.698276	-0.008456	-0.030158	0.114545	1.000000	0.000016	0.000028	0.000021	-16.394174	-85.843429	14.959843
28269	9.876446	-0.181727	0.682543	0.006926	0.021065	0.088959	1.000000	0.000024	0.000040	0.000041	-16.416372	-85.841804	14.983110
28270	9.866371	-0.229119	0.693406	-0.005466	-0.025991	0.080637	1.000000	0.000033	0.000049	0.000029	-16.416377	-85.839474	14.985856
28271	9.923947	-0.218704	0.682201	0.010102	-0.015003	0.137068	1.000000	0.000001	0.000022	-0.000006	-16.378970	-85.841248	14.946741
28272	9.895488	-0.189692	0.671270	0.019607	0.012899	0.107329	1.000000	0.000016	0.000028	0.000021	-16.377255	-85.841514	14.944867
28273	9.890456	-0.181970	0.704994	-0.014246	0.021395	0.104499	1.000000	0.000029	0.000026	0.000026	-16.382629	-85.841810	14.951838
28274	9.890395	-0.213936	0.677304	0.012493	-0.011238	0.103165	1.000000	0.000010	0.000023	0.000022	-16.385309	-85.842558	14.953340
28275	9.885362	-0.206182	0.710990	-0.021360	-0.002739	0.100331	1.000000	0.000016	0.000028	0.000021	-16.383481	-85.842871	14.951603
28276	9.881090	-0.192557	0.653678	0.035895	0.009311	0.091803	1.000000	0.000018	0.000039	0.000022	-16.379234	-85.841862	14.947342
28277	9.885243	-0.207013	0.712392	-0.022586	-0.003550	0.100328	1.000000	0.000012	0.000034	0.000023	-16.379144	-85.841376	14.946894
28278	9.865972	-0.231907	0.698137	-0.010361	-0.029234	0.080624	1.000000	0.000007	0.000023	0.000013	-16.368646	-85.842491	14.935060
28279	9.865941	-0.200970	0.726785	-0.038313	0.002592	0.081954	1.000000	0.000019	0.000024	0.000049	-16.411198	-85.842337	14.978133
28280	9.880893	-0.194559	0.656058	0.033440	0.007681	0.091813	1.000000	0.000028	0.000037	0.000019	-16.400830	-85.841656	14.969463
28281	9.880842	-0.194873	0.656723	0.032826	0.007272	0.091815	1.000000	0.000003	0.000029	0.000015	-16.391792	-85.841988	14.959010
28282	9.884991	-0.209247	0.715227	-0.025657	-0.005578	0.100319	1.000000	0.000010	0.000023	0.000022	-16.394548	-85.842777	14.960918
28283	9.884931	-0.241176	0.687557	0.001062	-0.038222	0.098987	1.000000	0.000016	0.000028	0.000021	-16.392710	-85.843092	14.959171
28284	9.894922	-0.194935	0.678081	0.012251	0.008012	0.107346	1.000000	0.000013	0.000023	0.000031	-16.408844	-85.843540	14.974448
28285	9.851435	-0.204823	0.710290	-0.023245	-0.001793	0.066417	1.000000	0.000016	0.000028	0.000021	-16.407004	-85.843855	14.972699
28286	9.894838	-0.195692	0.679084	0.011023	0.007197	0.107348	1.000000	0.000017	0.000021	0.000009	-16.390279	-85.845273	14.956298
28287	9.914020	-0.171441	0.694464	-0.002435	0.032064	0.127053	1.000000	0.000012	0.000034	0.000023	-16.390170	-85.844788	14.955830
28288	9.870503	-0.212872	0.698631	-0.010588	-0.009973	0.084788	1.000000	-0.000004	0.000031	0.000028	-16.400499	-85.844450	14.964284
28289	9.875477	-0.190026	0.694209	-0.005300	0.012937	0.088974	1.000000	0.000029	0.000026	0.000026	-16.405867	-85.844748	14.971247
28290	9.889613	-0.220791	0.686454	0.002664	-0.017751	0.103163	1.000000	0.000022	0.000033	0.000020	-16.399963	-85.844579	14.966090
28291	9.875364	-0.222347	0.667236	0.020795	-0.020119	0.087647	1.000000	0.000016	0.000028	0.000021	-16.398115	-85.844895	14.964332
28292	9.908743	-0.197002	0.702447	-0.011410	0.006711	0.122867	1.000000	0.000016	0.000028	0.000021	-16.396552	-85.845194	14.962495
28293	9.875277	-0.191698	0.696585	-0.007757	0.011314	0.088974	1.000000	0.000015	0.000035	0.000032	-16.409766	-85.844389	14.975720
28294	9.889405	-0.222409	0.688924	0.000216	-0.019380	0.103161	1.000000	0.000006	0.000034	0.000005	-16.382795	-85.844470	14.947507
28295	9.855954	-0.185330	0.711278	-0.023448	0.017473	0.070593	1.000000	0.000012	0.000034	0.000023	-16.382671	-85.843986	14.947024
28296	9.908523	-0.198769	0.705048	-0.013864	0.005078	0.122865	1.000000	0.000035	0.000027	0.000044	-16.414880	-85.843652	14.982276
28297	9.870032	-0.216950	0.704008	-0.016108	-0.013628	0.084776	1.000000	0.000004	0.000018	0.000023	-16.421813	-85.844959	14.987930
28298	9.894240	-0.201033	0.686196	0.003661	0.002303	0.107355	1.000000	0.000012	0.000034	0.000023	-16.421699	-85.844450	14.987937
28299	9.894189	-0.201448	0.686816	0.003046	0.001894	0.107356	1.000000	0.000016	0.000028	0.000021	-16.419840	-85.844766	14.986169
28300	9.874927	-0.194745	0.700702	-0.012035	0.008468	0.088972	1.000000	0.000013	0.000028	0.000012	-16.404796	-85.845373	14.970738
28301	9.874881	-0.195041	0.701255	-0.012649	0.008060	0.088972	1.000000	0.000016	0.000028	0.000021	-16.402934	-85.845690	14.968965
28302	9.899088	-0.179087	0.683593	0.007113	0.023985	0.111560	1.000000	0.000018	0.000039	0.000022	-16.398506	-85.844709	14.965322
28303	9.845453	-0.267200	0.697717	-0.012845	-0.064648	0.060853	1.000000	0.000013	0.000023	0.000031	-16.414370	-85.845200	14.980962
28304	9.913159	-0.210414	0.676502	0.014446	-0.007126	0.125742	1.000000	0.000028	0.000037	0.000019	-16.403855	-85.844478	14.971454
28305	9.860493	-0.166349	0.712138	-0.023651	0.036732	0.074791	1.000000	0.000003	0.000029	0.000015	-16.394767	-85.844812	14.960950
28306	9.937334	-0.163247	0.687622	0.006283	0.040636	0.149661	1.000000	0.000025	0.000033	0.000029	-16.401727	-85.844250	14.969046
28307	9.874547	-0.229165	0.676952	0.010996	-0.026635	0.087647	1.000000	0.000012	0.000034	0.000023	-16.401576	-85.843768	14.968535
28308	9.927126	-0.210823	0.698938	-0.006772	-0.006803	0.141242	1.000000	0.000003	0.000029	0.000015	-16.392635	-85.844088	14.958367
28309	9.807652	-0.186655	0.693311	-0.008930	0.014874	0.021196	1.000000	0.000022	0.000033	0.000020	-16.386370	-85.843910	14.952877
28310	9.912844	-0.181303	0.708608	-0.016549	0.022684	0.127065	1.000000	0.000011	0.000041	0.000035	-16.401660	-85.842289	14.966861
28311	9.835873	-0.248363	0.678048	0.006936	-0.046534	0.049545	1.000000	0.000007	0.000023	0.000013	-16.390847	-85.843423	14.955082
28312	9.931972	-0.189091	0.696436	-0.003326	0.014874	0.145456	1.000000	0.000016	0.000028	0.000021	-16.389080	-85.843728	14.953629
28313	9.888408	-0.230484	0.700492	-0.011457	-0.027116	0.103136	1.000000	0.000009	0.000030	0.000033	-16.406642	-85.843420	14.970516
28314	9.870129	-0.154931	0.679672	0.009995	0.047441	0.081909	1.000000	0.000018	0.000043	0.000003	-16.371124	-85.842547	14.935155
28315	9.840715	-0.226488	0.675668	0.010406	-0.024847	0.053759	1.000000	0.000021	0.000039	0.000031	-16.379903	-85.841250	14.944628
28316	9.940844	-0.212958	0.724164	-0.030475	-0.008110	0.156724	1.000000	0.000012	0.000034	0.000023	-16.380019	-85.840773	14.944434
28317	9.893219	-0.208735	0.698512	-0.008000	-0.005435	0.107352	1.000000	0.000018	0.000039	0.000022	-16.375468	-85.839797	14.940207
28318	9.898231	-0.185798	0.694125	-0.002690	0.017464	0.111576	1.000000	0.000010	0.000023	0.000022	-16.377844	-85.840560	14.942224
28319	9.864790	-0.180430	0.688139	0.001023	0.022100	0.077696	1.000000	0.000025	0.000033	0.000029	-16.384892	-85.840062	14.950417
28320	9.873829	-0.202982	0.713712	-0.024281	0.000347	0.088954	1.000000	0.000015	0.000039	0.000013	-16.367236	-85.839403	14.932608
28321	9.878833	-0.180046	0.709483	-0.018977	0.023245	0.093181	1.000000	0.000021	0.000039	0.000031	-16.375995	-85.838107	14.942061
28322	9.892941	-0.210839	0.701812	-0.011067	-0.007471	0.107347	1.000000	0.000007	0.000023	0.000013	-16.365321	-85.839224	14.930343
28323	9.878738	-0.212333	0.682465	0.007093	-0.009837	0.091865	1.000000	0.000016	0.000028	0.000021	-16.363429	-85.839543	14.928539
28324	9.897925	-0.188097	0.697862	-0.006372	0.015017	0.111578	1.000000	0.000013	0.000028	0.000011	-16.348090	-85.840141	14.913074
28325	9.878648	-0.212927	0.683572	0.005871	-0.010653	0.091865	1.000000	0.000016	0.000028	0.000021	-16.346193	-85.840460	14.911266
28326	9.897825	-0.188794	0.699085	-0.007601	0.014202	0.111578	1.000000	0.000018	0.000039	0.000022	-16.341769	-85.839476	14.907222
28327	9.868380	-0.228931	0.723120	-0.034491	-0.025801	0.084705	1.000000	0.000025	0.000033	0.000029	-16.348807	-85.838980	14.915403
28328	9.901719	-0.235268	0.730197	-0.039450	-0.031260	0.118578	1.000000	0.000004	0.000018	0.000023	-16.355802	-85.840253	14.920708
28329	9.892607	-0.213590	0.705680	-0.015363	-0.010323	0.107339	1.000000	0.000017	0.000017	0.000028	-16.369894	-85.841546	14.935023
28330	9.883484	-0.191898	0.681369	0.008732	0.010617	0.096105	1.000000	0.000018	0.000039	0.000022	-16.365506	-85.840530	14.930286
28331	9.883430	-0.223767	0.653951	0.035405	-0.022068	0.094793	1.000000	0.000019	0.000032	0.000010	-16.345895	-85.840675	14.911080
28332	9.873215	-0.207600	0.720844	-0.031632	-0.004520	0.088932	1.000000	0.000016	0.000028	0.000021	-16.344301	-85.840993	14.909309
28333	9.883335	-0.192761	0.683287	0.006888	0.009396	0.096107	1.000000	0.000019	0.000032	0.000010	-16.324684	-85.841138	14.890097
28334	9.907612	-0.176798	0.665531	0.026628	0.025270	0.118758	1.000000	0.000023	0.000022	0.000027	-16.334518	-85.841896	14.900380
28335	9.897390	-0.192389	0.704249	-0.013121	0.010540	0.111577	1.000000	0.000012	0.000034	0.000023	-16.334321	-85.841417	14.899821
28336	9.893367	-0.178961	0.646877	0.044192	0.022494	0.103296	1.000000	-0.000004	0.000031	0.000028	-16.344716	-85.841088	14.907576
28337	9.878049	-0.217938	0.690625	-0.001484	-0.015531	0.091860	1.000000	0.000029	0.000026	0.000026	-16.350031	-85.841392	14.914483
28338	9.897233	-0.193779	0.706079	-0.014958	0.009320	0.111576	1.000000	0.000009	0.000034	0.000014	-16.336575	-85.841212	14.900335
28339	9.902281	-0.202397	0.673494	0.017634	-0.000074	0.114518	1.000000	0.000023	0.000022	0.000027	-16.346271	-85.842011	14.910937
28340	9.911289	-0.225015	0.698826	-0.007705	-0.021821	0.125728	1.000000	0.000010	0.000023	0.000022	-16.349031	-85.842842	14.913111
28341	9.888054	-0.172860	0.682708	0.007913	0.029438	0.100367	1.000000	0.000016	0.000028	0.000021	-16.347111	-85.843162	14.911279
28342	9.888020	-0.204854	0.655018	0.034576	-0.003255	0.099061	1.000000	0.000027	0.000015	0.000024	-16.355269	-85.844751	14.920580
28343	9.891926	-0.219290	0.713432	-0.023967	-0.016013	0.107315	1.000000	0.000013	0.000023	0.000031	-16.371068	-85.845245	14.936152
28344	9.868690	-0.198862	0.669314	0.018949	0.002960	0.080654	1.000000	0.000008	0.000041	0.000026	-16.372327	-85.843893	14.936636
28345	9.882768	-0.198297	0.689870	-0.000460	0.004510	0.096113	1.000000	0.000022	0.000028	0.000039	-16.397059	-85.843572	14.962194
28346	9.854444	-0.201268	0.650707	0.036519	0.000187	0.065200	1.000000	0.000006	0.000029	0.000024	-16.401295	-85.843581	14.965642
28347	9.868530	-0.200454	0.671207	0.017109	0.001737	0.080658	1.000000	0.000009	0.000034	0.000014	-16.387742	-85.843424	14.951357
28348	9.940326	-0.189300	0.680132	0.013637	0.014465	0.152657	1.000000	0.000021	0.000039	0.000031	-16.396684	-85.842137	14.960981
28349	9.882547	-0.200187	0.692480	-0.002919	0.002881	0.096113	1.000000	0.000016	0.000028	0.000021	-16.394756	-85.842458	14.959142
28350	9.882491	-0.200631	0.693162	-0.003528	0.002476	0.096113	1.000000	0.000008	0.000041	0.000026	-16.396303	-85.841143	14.959372
28351	9.882433	-0.232691	0.665794	0.023124	-0.030227	0.094808	1.000000	0.000012	0.000034	0.000023	-16.396069	-85.840666	14.958775
28352	9.896503	-0.231895	0.686388	0.003700	-0.028674	0.110258	1.000000	0.000028	0.000037	0.000018	-16.385784	-85.840033	14.949908
28353	9.857966	-0.249660	0.685457	0.001554	-0.047289	0.072121	1.000000	0.000003	0.000029	0.000015	-16.376617	-85.840371	14.939325
28354	9.896402	-0.232591	0.687613	0.002458	-0.029488	0.110256	1.000000	0.000029	0.000026	0.000026	-16.382371	-85.840721	14.946797
28355	9.929731	-0.238789	0.694718	-0.002569	-0.034987	0.144118	1.000000	0.000017	0.000021	0.000009	-16.365417	-85.842163	14.930011
28356	9.877067	-0.226112	0.701950	-0.013168	-0.023256	0.091836	1.000000	0.000018	0.000039	0.000022	-16.360949	-85.841187	14.926076
28357	9.896240	-0.202005	0.717586	-0.026653	0.001586	0.111556	1.000000	0.000018	0.000039	0.000022	-16.356323	-85.840217	14.921772
28358	9.876938	-0.195242	0.731501	-0.041658	0.008234	0.093135	1.000000	0.000013	0.000028	0.000011	-16.341355	-85.840843	14.906186
28359	9.848649	-0.166280	0.720331	-0.031915	0.036213	0.063551	1.000000	0.000020	0.000021	0.000018	-16.337709	-85.841965	14.903077
28360	9.867848	-0.173635	0.707683	-0.018141	0.028757	0.081970	1.000000	0.000015	0.000039	0.000013	-16.320053	-85.841318	14.885362
28361	9.862681	-0.197354	0.713264	-0.024693	0.005060	0.077688	1.000000	0.000017	0.000017	0.000028	-16.334108	-85.842613	14.899637
28362	9.867759	-0.174415	0.708743	-0.019363	0.027944	0.081970	1.000000	0.000009	0.000034	0.000014	-16.320567	-85.842432	14.885551
28363	9.881824	-0.173512	0.729255	-0.038788	0.029495	0.097408	1.000000	0.000003	0.000029	0.000015	-16.311371	-85.842770	14.874939
28364	9.872793	-0.183329	0.676872	0.012604	0.018119	0.084955	1.000000	0.000012	0.000034	0.000023	-16.311488	-85.842299	14.874358
28365	9.906115	-0.189624	0.684024	0.007557	0.012609	0.118815	1.000000	0.000014	0.000017	0.000019	-16.312210	-85.843915	14.874932
28366	9.900945	-0.213358	0.689560	0.000998	-0.011089	0.114528	1.000000	0.000012	0.000034	0.000023	-16.312045	-85.843453	14.874976
28367	9.886768	-0.183252	0.698436	-0.008055	0.018852	0.100393	1.000000	0.000019	0.000032	0.000010	-16.292376	-85.843601	14.855711
28368	9.900833	-0.182598	0.718823	-0.027485	0.020405	0.115826	1.000000	0.000023	0.000017	0.000046	-16.333362	-85.844249	14.897262
28369	9.867434	-0.177356	0.712526	-0.023659	0.025104	0.081968	1.000000	0.000004	0.000018	0.000023	-16.340173	-85.845559	14.902788
28370	9.862257	-0.201085	0.718061	-0.030212	0.001408	0.077674	1.000000	0.000022	0.000033	0.000020	-16.333636	-85.845375	14.897786
28371	9.867347	-0.178003	0.713569	-0.024882	0.024289	0.081967	1.000000	0.000017	0.000021	0.000009	-16.316636	-85.846817	14.880955
28372	9.900671	-0.215898	0.692690	-0.002693	-0.013540	0.114524	1.000000	0.000015	0.000035	0.000032	-16.329703	-85.845999	14.894095
28373	9.886512	-0.217584	0.673422	0.015512	-0.015906	0.099096	1.000000	0.000016	0.000028	0.000021	-16.327737	-85.846323	14.892216
28374	9.886467	-0.217880	0.673975	0.014896	-0.016312	0.099097	1.000000	0.000013	0.000028	0.000011	-16.312594	-85.846965	14.876763
28375	9.891559	-0.195124	0.669458	0.020225	0.006564	0.103397	1.000000	0.000019	0.000024	0.000049	-16.355029	-85.846823	14.919703
28376	9.886370	-0.219117	0.675006	0.013661	-0.017127	0.099097	1.000000	0.000016	0.000028	0.000021	-16.353372	-85.847165	14.917961
28377	9.924822	-0.202041	0.677212	0.014531	0.000632	0.137253	1.000000	0.000003	0.000029	0.000015	-16.344143	-85.847503	14.907316
28378	9.891411	-0.196571	0.671225	0.018375	0.005341	0.103402	1.000000	0.000021	0.000039	0.000031	-16.352955	-85.846221	14.916863
28379	9.866954	-0.213288	0.690151	-0.002549	-0.011275	0.080666	1.000000	0.000016	0.000028	0.000021	-16.350983	-85.846545	14.914978
28380	9.886163	-0.220772	0.677486	0.011200	-0.018757	0.099097	1.000000	0.000016	0.000028	0.000021	-16.349208	-85.846847	14.912711
28381	9.852753	-0.215295	0.671490	0.015053	-0.014044	0.065246	1.000000	0.000008	0.000041	0.000026	-16.350610	-85.845574	14.913300
28382	9.886045	-0.221687	0.678914	0.009970	-0.019572	0.099097	1.000000	0.000012	0.000034	0.000023	-16.350520	-85.845087	14.912628
28383	9.880853	-0.245427	0.684408	0.003405	-0.043263	0.094786	1.000000	0.000008	0.000012	0.000020	-16.355633	-85.847198	14.916905
28384	9.910373	-0.206233	0.661617	0.029050	-0.004190	0.121843	1.000000	0.000028	0.000037	0.000018	-16.344743	-85.846495	14.907804
28385	9.885893	-0.222795	0.680756	0.008130	-0.020797	0.099096	1.000000	0.000007	0.000052	0.000019	-16.330109	-85.844250	14.892225
28386	9.894769	-0.245323	0.706437	-0.017270	-0.042527	0.110194	1.000000	0.000010	0.000023	0.000022	-16.332773	-85.845073	14.894266
28387	9.890944	-0.200149	0.677017	0.012848	0.001669	0.103412	1.000000	0.000019	0.000032	0.000010	-16.313074	-85.845224	14.874971
28388	9.885740	-0.223654	0.682701	0.006277	-0.022017	0.099095	1.000000	0.000019	0.000032	0.000010	-16.293671	-85.845398	14.856205
28389	9.880518	-0.215554	0.716414	-0.027522	-0.013380	0.096067	1.000000	0.000013	0.000028	0.000011	-16.278345	-85.846043	14.840597
28390	9.866390	-0.216900	0.697043	-0.009294	-0.015740	0.080656	1.000000	0.000023	0.000026	0.000008	-16.257129	-85.846945	14.819727
28391	9.871507	-0.193928	0.692498	-0.003955	0.007132	0.084976	1.000000	0.000013	0.000023	0.000031	-16.272857	-85.847445	14.835222
28392	9.904802	-0.200270	0.699819	-0.009065	0.001589	0.118822	1.000000	0.000015	0.000039	0.000013	-16.254916	-85.846806	14.817840
28393	9.871403	-0.194694	0.693768	-0.005185	0.006318	0.084976	1.000000	0.000029	0.000026	0.000026	-16.260185	-85.847118	14.824697
28394	9.876513	-0.171768	0.689368	0.000155	0.029191	0.089302	1.000000	0.000028	0.000037	0.000018	-16.249651	-85.846458	14.815744
28395	9.895726	-0.179240	0.676820	0.013881	0.021687	0.107744	1.000000	0.000016	0.000028	0.000021	-16.247649	-85.846783	14.813827
28396	9.885329	-0.194642	0.715525	-0.025865	0.007055	0.100378	1.000000	0.000016	0.000028	0.000021	-16.245676	-85.847087	14.812106
28397	9.871178	-0.164567	0.724285	-0.034861	0.037023	0.086264	1.000000	0.000022	0.000033	0.000019	-16.239294	-85.846920	14.806496
28398	9.885228	-0.195290	0.716731	-0.027098	0.006241	0.100375	1.000000	0.000013	0.000028	0.000011	-16.224099	-85.847577	14.791293
28399	9.890349	-0.172541	0.712201	-0.021756	0.029110	0.104706	1.000000	0.000019	0.000024	0.000049	-16.266503	-85.847441	14.834197
28400	9.876227	-0.174387	0.692803	-0.003530	0.026748	0.089308	1.000000	0.000016	0.000028	0.000021	-16.264723	-85.847787	14.832667
28401	9.885081	-0.196862	0.718327	-0.028946	0.005021	0.100371	1.000000	0.000003	0.000029	0.000015	-16.255441	-85.848126	14.821968
28402	9.904302	-0.204283	0.705716	-0.015301	-0.001271	0.118814	1.000000	0.000003	0.000029	0.000015	-16.341750	-85.847046	14.905786
28403	9.895356	-0.182575	0.681328	0.008889	0.019640	0.107754	1.000000	0.000019	0.000028	0.000030	-16.353297	-85.847049	14.917781
28404	9.884937	-0.198067	0.719987	-0.030853	0.005022	0.100365	1.000000	0.000010	0.000023	0.000022	-16.355753	-85.847822	14.919364
28405	9.870826	-0.199663	0.700528	-0.012619	0.002659	0.084971	1.000000	0.000010	0.000023	0.000022	-16.358352	-85.848639	14.921359
28406	9.875967	-0.208552	0.668123	0.019942	-0.006811	0.088028	1.000000	0.000007	0.000047	0.000038	-16.374921	-85.846238	14.936899
28407	9.889982	-0.207927	0.688629	0.000477	-0.005258	0.103419	1.000000	0.000008	0.000012	0.000020	-16.380244	-85.848346	14.941382
28408	9.889946	-0.208265	0.689037	-0.000134	-0.005663	0.103418	1.000000	0.000003	0.000029	0.000015	-16.371152	-85.848655	14.930623
28409	9.889889	-0.208751	0.689708	-0.000750	-0.006068	0.103418	1.000000	0.000034	0.000038	0.000037	-16.387244	-85.847353	14.948903
28410	9.889832	-0.209238	0.690379	-0.001355	-0.006475	0.103418	1.000000	0.000003	0.000029	0.000015	-16.377860	-85.847634	14.938215
28411	9.875718	-0.210833	0.671076	0.016884	-0.008840	0.088032	1.000000	0.000025	0.000033	0.000029	-16.385005	-85.847145	14.946494
28412	9.909003	-0.217305	0.678368	0.011728	-0.014403	0.121869	1.000000	0.000023	0.000022	0.000027	-16.394812	-85.847960	14.957662
28413	9.856356	-0.204561	0.685291	0.001338	-0.002536	0.069581	1.000000	0.000013	0.000028	0.000011	-16.379677	-85.848606	14.942243
28414	9.875586	-0.212100	0.672622	0.015049	-0.010057	0.088034	1.000000	0.000013	0.000023	0.000031	-16.395397	-85.849037	14.957563
28415	9.908877	-0.218516	0.679820	0.009888	-0.015623	0.121869	1.000000	0.000020	0.000021	0.000018	-16.391932	-85.850161	14.954630
28416	9.856245	-0.237467	0.658809	0.026715	-0.036098	0.068303	1.000000	0.000008	0.000041	0.000026	-16.393364	-85.848877	14.955379
28417	9.894707	-0.220482	0.661307	0.027516	-0.018396	0.106490	1.000000	0.000015	0.000039	0.000013	-16.375492	-85.848231	14.937458
28418	9.889436	-0.212522	0.695036	-0.006249	-0.009724	0.103413	1.000000	-0.000000	0.000025	0.000025	-16.383581	-85.848630	14.943922
28419	9.884196	-0.236189	0.700603	-0.012831	-0.033399	0.099057	1.000000	0.000013	0.000028	0.000011	-16.368436	-85.849276	14.928491
28420	9.889346	-0.213111	0.696142	-0.007478	-0.010532	0.103412	1.000000	0.000032	0.000031	0.000016	-16.356353	-85.849399	14.917850
28421	9.889297	-0.213436	0.696732	-0.008094	-0.010938	0.103411	1.000000	0.000016	0.000028	0.000020	-16.354540	-85.849724	14.916118
28422	9.869980	-0.206550	0.710387	-0.023014	-0.004212	0.084952	1.000000	0.000017	0.000021	0.000009	-16.338033	-85.851168	14.899169
28423	9.908444	-0.189528	0.712880	-0.022223	0.013482	0.123142	1.000000	0.000016	0.000057	0.000027	-16.332443	-85.848112	14.893684
28424	9.894328	-0.191199	0.693779	-0.003977	0.011119	0.107770	1.000000	0.000029	0.000026	0.000026	-16.338110	-85.848442	14.900920
28425	9.894282	-0.191582	0.694335	-0.004592	0.010714	0.107770	1.000000	0.000003	0.000029	0.000015	-16.329005	-85.848781	14.890394
28426	9.880202	-0.192959	0.674838	0.013654	0.008350	0.092401	1.000000	0.000021	0.000015	0.000006	-16.310648	-85.851057	14.872967
28427	9.860880	-0.186053	0.688533	-0.001256	0.015077	0.073941	1.000000	0.000018	0.000039	0.000022	-16.306107	-85.850092	14.868744
28428	9.883702	-0.207376	0.734171	-0.045574	-0.004679	0.100308	1.000000	0.000022	0.000033	0.000019	-16.299630	-85.849894	14.863453
28429	9.880053	-0.193947	0.676742	0.011817	0.007131	0.092404	1.000000	0.000022	0.000033	0.000019	-16.293416	-85.849727	14.858005
28430	9.899264	-0.169864	0.692057	-0.001698	0.031950	0.112141	1.000000	0.000021	0.000010	0.000025	-16.306083	-85.851822	14.871243
28431	9.893999	-0.193659	0.697782	-0.008285	0.008279	0.107770	1.000000	0.000016	0.000057	0.000026	-16.300489	-85.848768	14.865752
28432	9.874654	-0.186967	0.711677	-0.023191	0.015015	0.089306	1.000000	0.000004	0.000018	0.000023	-16.307658	-85.850083	14.871244
28433	9.851753	-0.166483	0.667187	0.019917	0.033959	0.062956	1.000000	0.000029	0.000026	0.000026	-16.313115	-85.850396	14.878283
28434	9.893849	-0.195012	0.699518	-0.010134	0.007066	0.107769	1.000000	0.000016	0.000028	0.000020	-16.311417	-85.850726	14.876477
28435	9.874554	-0.219801	0.685187	0.002152	-0.018561	0.088033	1.000000	0.000013	0.000028	0.000011	-16.296230	-85.851372	14.861006
28436	9.879724	-0.196875	0.680684	0.007500	0.004297	0.092410	1.000000	0.000019	0.000028	0.000030	-16.308026	-85.851442	14.873560
28437	9.893712	-0.196174	0.701137	-0.011992	0.005850	0.107768	1.000000	0.000010	0.000023	0.000021	-16.310573	-85.852261	14.875501
28438	9.893670	-0.196527	0.701629	-0.012606	0.005441	0.107768	1.000000	0.000026	0.000026	0.000017	-16.302408	-85.852887	14.869233
28439	9.855089	-0.214288	0.700381	-0.014597	-0.013037	0.069562	1.000000	0.000013	0.000023	0.000031	-16.318307	-85.853387	14.884892
28440	9.912899	-0.236292	0.661470	0.027632	-0.034887	0.124966	1.000000	0.000016	0.000028	0.000020	-16.316300	-85.853658	14.882763
28441	9.831693	0.044617	0.343910	0.345572	0.236459	0.016204	1.000000	0.000085	0.000043	0.000051	-16.345482	-85.851340	14.920006
28442	9.766497	-0.921135	0.777007	-0.113812	-0.719377	0.000886	1.000000	0.000064	0.000057	-0.000040	-16.234156	-85.850427	14.813376
28443	9.452099	-0.463469	0.791983	-0.139843	-0.268173	-0.320968	1.000000	0.000053	-0.000013	0.000010	-16.229531	-85.855533	14.813032
28444	10.623971	0.093549	0.801204	-0.054315	0.310785	0.837190	1.000000	0.000051	0.000015	0.000066	-16.298857	-85.855869	14.886911
28445	10.103381	0.025687	0.664089	0.044681	0.230523	0.309805	1.000000	0.000014	0.000070	0.000050	-16.323211	-85.850580	14.911201
28446	10.404763	0.071809	0.719178	0.012156	0.283515	0.613286	1.000000	-0.000027	0.000014	-0.000018	-16.273805	-85.853693	14.857446
28447	9.425071	-0.089194	0.730932	-0.071833	0.103892	-0.359739	1.000000	-0.000034	0.000060	-0.000026	-16.192861	-85.851948	14.770641
28448	9.307771	-0.273780	0.705694	-0.058981	-0.083236	-0.474746	1.000000	-0.000020	0.000037	0.000085	-16.287936	-85.849177	14.862219
28449	9.993051	-0.314481	0.645933	0.048271	-0.111751	0.205415	1.000000	0.000002	0.000090	0.000058	-16.317224	-85.841494	14.890092
28450	10.008797	-0.396611	0.759828	-0.066100	-0.190202	0.230724	1.000000	-0.000006	-0.000020	0.000028	-16.350079	-85.846833	14.920327
28451	10.052297	-0.046765	0.768092	-0.063548	0.160398	0.267544	1.000000	-0.000027	0.000010	0.000001	-16.331811	-85.849780	14.897162
28452	9.850828	-0.174605	0.678672	0.008277	0.026277	0.062996	1.000000	-0.000027	0.000039	0.000007	-16.310158	-85.849367	14.869968
28453	9.622778	-0.046352	0.682710	-0.008262	0.150337	-0.166785	1.000000	-0.000010	0.000055	0.000035	-16.320956	-85.846195	14.877911
28454	9.870004	-0.214801	0.639448	0.048481	-0.014078	0.080213	1.000000	0.000036	0.000045	0.000057	-16.365225	-85.843447	14.924415
28455	9.906947	-0.544630	0.693558	-0.010691	-0.341566	0.127557	1.000000	0.000051	0.000038	0.000001	-16.324843	-85.843236	14.888080
28456	9.989239	-0.455043	0.720248	-0.029810	-0.250243	0.209648	1.000000	0.000061	-0.000026	0.000004	-16.317236	-85.849952	14.885691
28457	9.852188	-0.012799	0.730648	-0.039425	0.189214	0.064674	1.000000	0.000040	0.000047	0.000016	-16.297825	-85.848314	14.869105
28458	9.771406	0.092623	0.781680	-0.093335	0.294432	-0.014495	1.000000	0.000026	0.000022	0.000036	-16.321059	-85.848786	14.893528
28459	10.069533	-0.189292	0.739098	-0.036792	0.017377	0.285626	1.000000	0.000011	0.000041	0.000035	-16.335815	-85.847198	14.907829
28460	10.022237	-0.248448	0.657054	0.040466	-0.044548	0.233957	1.000000	0.000002	0.000036	0.000027	-16.341293	-85.846340	14.911554
28461	9.796037	-0.266068	0.697885	-0.016514	-0.065157	0.011551	1.000000	0.000003	0.000025	0.000034	-16.363165	-85.846533	14.932047
28462	10.027430	-0.258055	0.625043	0.072360	-0.054508	0.237110	1.000000	-0.000006	0.000020	0.000026	-16.376073	-85.847558	14.943046
28463	9.624119	-0.197035	0.725530	-0.054771	0.001658	-0.159404	1.000000	0.000013	0.000023	0.000031	-16.391923	-85.848059	14.958654
28464	10.051782	-0.148439	0.691770	0.009868	0.057906	0.263792	1.000000	-0.000005	0.000023	0.000066	-16.464240	-85.847475	15.029060
28465	10.021970	-0.251997	0.659766	0.037336	-0.046611	0.233959	1.000000	-0.000005	0.000053	0.000013	-16.442220	-85.845253	15.004591
28466	9.907983	-0.203780	0.648035	0.042449	-0.000920	0.118465	1.000000	0.000006	0.000029	0.000024	-16.446389	-85.845247	15.007537
28467	9.711629	-0.213469	0.637570	0.038932	-0.014529	-0.077900	1.000000	0.000012	0.000034	0.000023	-16.446142	-85.844778	15.006921
28468	9.816801	-0.272179	0.597709	0.084629	-0.072137	0.025430	1.000000	0.000032	0.000027	0.000035	-16.464771	-85.844759	15.027770
28469	9.835977	-0.216370	0.641233	0.043948	-0.014942	0.046435	1.000000	0.000035	0.000035	0.000006	-16.434780	-85.844739	15.000005
28470	9.921703	-0.140886	0.726480	-0.033225	0.064195	0.136312	1.000000	0.000042	0.000025	0.000031	-16.447727	-85.845039	15.015733
28471	9.844609	-0.239203	0.667448	0.017823	-0.037041	0.057335	1.000000	0.000032	0.000031	0.000016	-16.435438	-85.845188	15.005347
28472	9.993534	-0.193714	0.680441	0.016491	0.011380	0.205837	1.000000	0.000015	0.000039	0.000013	-16.417196	-85.844520	14.987596
28473	9.777868	-0.195850	0.683249	-0.001193	0.005007	-0.009021	1.000000	0.000015	0.000050	0.000006	-16.383156	-85.842914	14.953381
28474	9.935548	-0.204256	0.693344	-0.000288	-0.000267	0.149118	1.000000	0.000013	0.000023	0.000031	-16.398826	-85.843371	14.968871
28475	9.853096	-0.262469	0.695413	-0.009524	-0.059952	0.068218	1.000000	0.000015	0.000039	0.000013	-16.380866	-85.842734	14.950863
28476	9.886245	-0.205519	0.758897	-0.069109	-0.000791	0.104532	1.000000	0.000013	0.000023	0.000031	-16.396816	-85.843192	14.966030
28477	9.968685	-0.211651	0.702005	-0.006823	-0.006723	0.182921	1.000000	0.000006	0.000029	0.000024	-16.400940	-85.843215	14.969097
28478	9.957987	-0.195292	0.768794	-0.073718	0.011173	0.176564	1.000000	-0.000011	0.000037	0.000021	-16.399262	-85.842423	14.964634
28479	9.819540	-0.226552	0.719010	-0.034425	-0.023925	0.035658	1.000000	0.000012	0.000034	0.000023	-16.398994	-85.841955	14.963996
28480	9.900077	-0.269696	0.725431	-0.036200	-0.065251	0.117315	1.000000	0.000009	0.000030	0.000033	-16.416526	-85.841668	14.981007
28481	9.824714	-0.204178	0.715120	-0.029655	-0.001481	0.040089	1.000000	0.000023	0.000026	0.000008	-16.395324	-85.842629	14.960657
28482	9.873799	-0.140678	0.707382	-0.016959	0.062615	0.087206	1.000000	0.000025	0.000033	0.000028	-16.402302	-85.842070	14.968272
28483	9.882453	-0.163178	0.732916	-0.042488	0.040922	0.098074	1.000000	0.000024	0.000015	0.000015	-16.397171	-85.843999	14.964120
28484	9.877173	-0.218389	0.710483	-0.021966	-0.015130	0.092378	1.000000	0.000019	0.000032	0.000010	-16.377823	-85.844177	14.945128
28485	9.857815	-0.211375	0.724192	-0.036797	-0.008331	0.073881	1.000000	0.000032	0.000031	0.000016	-16.365525	-85.844327	14.934732
28486	9.859663	-0.142961	0.689433	-0.000485	0.059044	0.071908	1.000000	0.000024	0.000015	0.000015	-16.360474	-85.846219	14.930277
28487	9.829742	-0.182519	0.713134	-0.027310	0.019358	0.044522	1.000000	0.000019	0.000032	0.000010	-16.340858	-85.846380	14.911063
28488	9.901587	-0.203291	0.694600	-0.004201	-0.000709	0.115314	1.000000	0.000028	0.000037	0.000018	-16.330011	-85.845685	14.901663
28489	9.896239	-0.227061	0.700352	-0.010818	-0.024359	0.110865	1.000000	0.000009	0.000030	0.000033	-16.347433	-85.845389	14.918391
28490	9.901430	-0.172621	0.723833	-0.032558	0.030890	0.116564	1.000000	0.000006	0.000029	0.000024	-16.351458	-85.845370	14.921215
28491	9.873439	-0.175504	0.684458	0.004678	0.026569	0.085966	1.000000	-0.000004	0.000031	0.000028	-16.361567	-85.845086	14.929128
28492	9.890781	-0.251928	0.707221	-0.018659	-0.048819	0.106408	1.000000	0.000006	0.000029	0.000024	-16.365449	-85.845087	14.932313
28493	9.959251	-0.227497	0.658515	0.035343	-0.024381	0.170811	1.000000	-0.000001	0.000036	0.000018	-16.357849	-85.844633	14.922842
28494	9.887300	-0.207274	0.678359	0.011040	-0.005105	0.100016	1.000000	0.000003	0.000029	0.000015	-16.348575	-85.844987	14.912525
28495	9.901217	-0.206370	0.698951	-0.008505	-0.003554	0.115310	1.000000	0.000032	0.000031	0.000016	-16.336269	-85.845137	14.902121
28496	9.925788	-0.190684	0.681302	0.011089	0.012066	0.138269	1.000000	0.000004	0.000018	0.000022	-16.343162	-85.846419	14.907527
28497	9.881870	-0.231644	0.684979	0.003194	-0.029561	0.095558	1.000000	0.000029	0.000026	0.000026	-16.348558	-85.846740	14.914502
28498	9.906431	-0.216050	0.667495	0.022787	-0.013944	0.118520	1.000000	0.000018	0.000039	0.000022	-16.343947	-85.845743	14.909801
28499	9.848440	-0.194712	0.707256	-0.020418	0.007312	0.063011	1.000000	0.000033	0.000020	0.000023	-16.347719	-85.846864	14.915602
28500	9.853753	-0.203543	0.674684	0.012104	-0.002271	0.066225	1.000000	0.000016	0.000028	0.000020	-16.345680	-85.847157	14.913685
28501	9.873026	-0.211147	0.662121	0.025685	-0.009899	0.084730	1.000000	0.000020	0.000021	0.000018	-16.342134	-85.848289	14.910667
28502	9.867691	-0.234737	0.667523	0.019049	-0.033541	0.080266	1.000000	0.000018	0.000010	0.000016	-16.341788	-85.850783	14.910779
28503	9.920174	-0.216735	0.690045	0.000760	-0.014020	0.133809	1.000000	0.000016	0.000057	0.000026	-16.335942	-85.847741	14.905036
28504	9.848204	-0.196840	0.709937	-0.023474	0.005297	0.063005	1.000000	0.000022	0.000017	0.000046	-16.376475	-85.848318	14.946422
28505	9.883497	-0.198319	0.626395	0.062362	0.002532	0.092428	1.000000	0.000007	0.000052	0.000018	-16.361671	-85.846086	14.930671
28506	9.911342	-0.196359	0.667199	0.023862	0.006043	0.122996	1.000000	0.000006	0.000029	0.000024	-16.366223	-85.846146	14.933803
28507	9.905972	-0.220035	0.672980	0.017236	-0.017601	0.118525	1.000000	0.000005	0.000040	0.000017	-16.354200	-85.845203	14.920595
28508	9.911239	-0.197034	0.668522	0.022647	0.005230	0.122999	1.000000	0.000007	0.000023	0.000012	-16.343107	-85.846244	14.908145
28509	9.886557	-0.213286	0.687264	0.001837	-0.011180	0.100017	1.000000	0.000015	0.000039	0.000013	-16.325084	-85.845610	14.890075
28510	9.897195	-0.198719	0.649809	0.040371	0.002456	0.107725	1.000000	0.000003	0.000029	0.000015	-16.315363	-85.845875	14.879322
28511	9.895079	-0.236010	0.713660	-0.024334	-0.033271	0.110815	1.000000	0.000012	0.000034	0.000023	-16.315043	-85.845411	14.878631
28512	9.858446	-0.185024	0.677260	0.010790	0.016117	0.070708	1.000000	0.000008	0.000041	0.000026	-16.316317	-85.844107	14.879062
28513	9.847685	-0.200261	0.716164	-0.028958	0.001673	0.062992	1.000000	0.000028	0.000037	0.000018	-16.305618	-85.843462	14.869815
28514	9.900211	-0.213990	0.710814	-0.020160	-0.011249	0.115288	1.000000	0.000012	0.000034	0.000023	-16.305350	-85.842962	14.868921
28515	9.880832	-0.207073	0.724526	-0.034950	-0.004414	0.096773	1.000000	0.000009	0.000034	0.000014	-16.291713	-85.842817	14.854549
28516	9.866836	-0.208651	0.705183	-0.016605	-0.006774	0.081500	1.000000	0.000025	0.000033	0.000028	-16.298540	-85.842270	14.862377
28517	9.872107	-0.185813	0.700748	-0.011205	0.016054	0.085984	1.000000	0.000022	0.000032	0.000019	-16.292216	-85.842115	14.856818
28518	9.899995	-0.215513	0.713358	-0.022604	-0.012870	0.115280	1.000000	0.000020	0.000021	0.000018	-16.288438	-85.843196	14.853781
28519	9.852685	-0.179226	0.714962	-0.026592	0.022490	0.067469	1.000000	0.000024	0.000044	0.000021	-16.279354	-85.841753	14.845700
28520	9.905218	-0.192999	0.709539	-0.017813	0.009553	0.119766	1.000000	0.000004	0.000018	0.000022	-16.286135	-85.843014	14.850926
28521	9.877247	-0.164174	0.697936	-0.007626	0.037669	0.090474	1.000000	0.000009	0.000030	0.000033	-16.303487	-85.842722	14.867580
28522	9.899728	-0.185591	0.743625	-0.052155	0.017950	0.116512	1.000000	0.000016	0.000028	0.000020	-16.301527	-85.843012	14.865509
