// Start Time: Unknown
// Update Rate: 100.0Hz
// Filter Profile: human (46.1)
// Firmware Version: 4.4.0
PacketCounter	Acc_X	Acc_Y	Acc_Z	FreeAcc_X	FreeAcc_Y	FreeAcc_Z	OriInc_q0	OriInc_q1	OriInc_q2	OriInc_q3	Roll	Pitch	Yaw
60476	9.537336	-0.413772	2.355408	0.000000	0.000000	0.019908	1.000000	0.000013	0.000003	0.000009	-9.962143	-75.923623	1.612560
60477	9.555564	-0.430113	2.354645	0.000000	-0.000000	0.038107	1.000000	0.000019	0.000004	0.000014	-10.349928	-75.937508	2.688982
60478	9.552153	-0.396880	2.346715	0.012699	0.023657	0.031473	1.000000	0.000019	0.000004	0.000014	-10.158681	-75.930176	2.155421
60479	9.582166	-0.435455	2.322418	0.038289	-0.017608	0.056424	1.000000	0.000016	0.000006	0.000003	-10.157511	-75.929439	2.156085
60480	9.552094	-0.397033	2.346931	0.012607	0.023662	0.031473	1.000000	0.000019	0.000004	0.000014	-10.161550	-75.929261	2.162440
60481	9.563873	-0.419406	2.323392	0.035130	-0.001621	0.038226	1.000000	0.000020	-0.000002	0.000002	-10.160547	-75.929473	2.163720
60482	9.570320	-0.413493	2.346152	0.015661	0.007674	0.049672	1.000000	0.000029	0.000003	0.000030	-10.170561	-75.928623	2.177454
60483	9.555427	-0.430937	2.355049	0.001235	-0.008267	0.038103	1.000000	0.000026	-0.000001	0.000007	-10.170839	-75.928598	2.180807
60484	9.555417	-0.431106	2.355059	0.001216	-0.008272	0.038103	1.000000	0.000016	0.000000	0.000021	-10.178309	-75.928260	2.190411
60485	9.567194	-0.453690	2.331484	0.023739	-0.033554	0.044856	1.000000	0.000029	-0.000003	0.000019	-10.183595	-75.928259	2.199319
60486	9.573641	-0.447773	2.354245	0.004249	-0.024234	0.056302	1.000000	0.000019	0.000004	0.000014	-10.187940	-75.927736	2.206026
60487	9.555352	-0.431711	2.355213	0.001183	-0.008252	0.038103	1.000000	0.000029	0.000009	0.000012	-10.189326	-75.926524	2.210830
60488	9.558692	-0.465203	2.363358	-0.010213	-0.040131	0.044734	1.000000	0.000032	0.000000	0.000012	-10.191962	-75.926465	2.217302
60489	9.561762	-0.425799	2.378118	-0.018310	0.001092	0.049549	1.000000	0.000019	0.000004	0.000014	-10.195798	-75.925752	2.223516
60490	9.573526	-0.448141	2.354640	0.004202	-0.024112	0.056303	1.000000	0.000029	0.000003	0.000000	-10.194212	-75.925508	2.225197
60491	9.540375	-0.449101	2.364445	-0.013290	-0.024071	0.026535	1.000000	0.000022	0.000007	0.000007	-10.194318	-75.924533	2.227928
60492	9.536965	-0.415726	2.356564	-0.001931	0.007977	0.019904	1.000000	0.000022	0.000007	0.000007	-10.197419	-75.923534	2.233565
60493	9.565032	-0.459274	2.386547	-0.029680	-0.030627	0.056181	1.000000	0.000017	-0.000006	0.000009	-10.200146	-75.924008	2.238328
60494	9.576561	-0.408757	2.369542	-0.003859	0.017385	0.061117	1.000000	0.000017	-0.000006	0.000009	-10.206373	-75.924238	2.246483
60495	9.573461	-0.448325	2.354869	0.004238	-0.023839	0.056303	1.000000	0.000016	0.000006	0.000003	-10.205200	-75.923501	2.247142
60496	9.545356	-0.404920	2.325022	0.032019	0.014916	0.020026	1.000000	0.000019	0.000004	0.000014	-10.212606	-75.922561	2.256822
60497	9.545355	-0.404934	2.325023	0.032019	0.014916	0.020026	1.000000	0.000033	-0.000006	-0.000000	-10.209322	-75.923223	2.257312
60498	9.573408	-0.448540	2.355044	0.004216	-0.023581	0.056304	1.000000	0.000019	0.000010	0.000026	-10.220579	-75.921878	2.270945
60499	9.536859	-0.416386	2.356879	-0.001917	0.008381	0.019904	1.000000	0.000029	0.000009	0.000012	-10.221959	-75.920665	2.275742
60500	9.536827	-0.416365	2.357009	-0.001971	0.008505	0.019904	1.000000	0.000029	0.000003	0.000000	-10.221507	-75.920660	2.278496
60501	9.563440	-0.421487	2.324800	0.034977	-0.000836	0.038226	1.000000	0.000025	0.000017	0.000012	-10.222715	-75.918498	2.282670
60502	9.543198	-0.410358	2.380086	-0.021532	0.017912	0.031349	1.000000	0.000023	-0.000005	0.000014	-10.229354	-75.919317	2.292038
60503	9.554969	-0.432759	2.356572	0.000991	-0.007370	0.038104	1.000000	0.000016	0.000006	0.000003	-10.228182	-75.918581	2.292695
60504	9.551548	-0.399398	2.348751	0.012301	0.024629	0.031471	1.000000	0.000025	0.000017	0.000012	-10.231254	-75.916683	2.298810
60505	9.576182	-0.409674	2.370915	-0.004089	0.017950	0.061116	1.000000	0.000032	0.000006	0.000023	-10.237630	-75.915488	2.309151
60506	9.584600	-0.398756	2.339307	0.029724	0.024596	0.061239	1.000000	0.000030	-0.000009	0.000007	-10.238259	-75.916807	2.313405
60507	9.563264	-0.422251	2.325383	0.034756	-0.000648	0.038227	1.000000	0.000016	0.000000	0.000021	-10.245806	-75.916346	2.323088
60508	9.573058	-0.449769	2.356231	0.003762	-0.023299	0.056305	1.000000	0.000019	0.000004	0.000014	-10.249107	-75.916675	2.328773
60509	9.551451	-0.400226	2.349005	0.012056	0.024604	0.031471	1.000000	0.000020	-0.000002	0.000002	-10.248095	-75.916882	2.330050
60510	9.581440	-0.438855	2.324768	0.037494	-0.016694	0.056429	1.000000	0.000015	0.000012	0.000014	-10.251047	-75.916089	2.335055
60511	9.536506	-0.417676	2.358078	-0.002517	0.008627	0.019904	1.000000	0.000023	-0.000005	0.000014	-10.255034	-75.916309	2.341878
60512	9.569612	-0.416918	2.348434	0.014746	0.008575	0.049673	1.000000	0.000032	0.000006	0.000023	-10.261324	-75.916444	2.352094
60513	9.554695	-0.434290	2.357401	0.000323	-0.007367	0.038104	1.000000	0.000006	0.000001	0.000005	-10.262586	-75.916191	2.354156
60514	9.554651	-0.434552	2.357533	0.000071	-0.007384	0.038104	1.000000	0.000025	0.000011	0.000030	-10.272357	-75.915781	2.367235
60515	9.569460	-0.417620	2.348930	0.014497	0.008557	0.049673	1.000000	0.000018	0.000016	0.000007	-10.272262	-75.913847	2.369322
60516	9.560997	-0.428774	2.380662	-0.019698	0.001898	0.049547	1.000000	0.000023	-0.000005	0.000014	-10.276130	-75.915914	2.376104
60517	9.548059	-0.441260	2.335232	0.019217	-0.016705	0.026662	1.000000	0.000025	0.000005	0.000019	-10.281215	-75.914962	2.384369
60518	9.569349	-0.418079	2.349298	0.013949	0.008546	0.049674	1.000000	0.000044	0.000015	0.000014	-10.281821	-75.914371	2.390260
60519	9.554433	-0.435320	2.358275	-0.000476	-0.007397	0.038104	1.000000	0.000010	-0.000007	0.000005	-10.283260	-75.915087	2.392952
60520	9.539561	-0.452503	2.367081	-0.015013	-0.023337	0.026534	1.000000	0.000020	-0.000002	0.000002	-10.282396	-75.915940	2.394485
60521	9.554441	-0.435381	2.358229	-0.000587	-0.007396	0.038104	1.000000	0.000019	0.000004	0.000014	-10.286197	-75.915210	2.400677
60522	9.554420	-0.435403	2.358311	-0.000807	-0.007334	0.038104	1.000000	0.000029	0.000003	0.000000	-10.284449	-75.916190	2.402030
60523	9.527743	-0.430194	2.390771	-0.037750	0.002005	0.019774	1.000000	0.000032	0.000000	0.000012	-10.285979	-75.915915	2.407437
60524	9.554368	-0.435405	2.358524	-0.000947	-0.007257	0.038104	1.000000	0.000012	0.000014	0.000003	-10.286637	-75.915035	2.408909
60525	9.572567	-0.451725	2.357853	0.002116	-0.023237	0.056306	1.000000	0.000029	-0.000003	0.000019	-10.291913	-75.915025	2.417803
60526	9.536077	-0.419421	2.359503	-0.004140	0.008821	0.019903	1.000000	0.000022	0.000007	0.000007	-10.294444	-75.914792	2.423019
60527	9.554276	-0.435845	2.358814	-0.001078	-0.007160	0.038104	1.000000	0.000022	0.000002	0.000026	-10.303267	-75.914097	2.434765
60528	9.554235	-0.435980	2.358953	-0.001250	-0.007061	0.038104	1.000000	0.000025	0.000011	0.000000	-10.302170	-75.913846	2.436255
60529	9.529500	-0.425953	2.337179	0.015145	-0.000382	0.008463	1.000000	0.000019	0.000004	0.000014	-10.305997	-75.913141	2.442456
60530	9.550825	-0.402692	2.351124	0.009869	0.024954	0.031473	1.000000	0.000016	0.000006	0.000003	-10.307261	-75.913797	2.445566
60531	9.554133	-0.436062	2.359353	-0.001498	-0.006968	0.038104	1.000000	0.000016	0.000006	0.000003	-10.306088	-75.913095	2.446224
60532	9.544319	-0.408919	2.328574	0.029257	0.015706	0.020033	1.000000	0.000029	-0.000003	0.000019	-10.312719	-75.913446	2.456507
60533	9.556071	-0.431423	2.305122	0.051772	-0.009575	0.026796	1.000000	0.000022	0.000007	0.000007	-10.312816	-75.912500	2.459228
60534	9.568926	-0.419075	2.350843	0.012760	0.009063	0.049675	1.000000	0.000021	0.000019	0.000000	-10.309914	-75.910837	2.458893
60535	9.568935	-0.419028	2.350815	0.012757	0.009063	0.049675	1.000000	0.000018	-0.000024	0.000004	-10.311731	-75.913459	2.462855
60536	9.557173	-0.396703	2.374276	-0.010020	0.034381	0.042912	1.000000	0.000025	0.000017	0.000012	-10.314044	-75.912778	2.467573
60537	9.554007	-0.436293	2.359820	-0.001925	-0.006843	0.038104	1.000000	0.000020	-0.000002	0.000002	-10.313054	-75.913010	2.468860
60538	9.560477	-0.430287	2.382476	-0.021214	0.002468	0.049543	1.000000	0.000026	-0.000007	0.000025	-10.322108	-75.912222	2.480229
60539	9.560461	-0.430484	2.382501	-0.021210	0.002470	0.049543	1.000000	0.000022	0.000007	0.000007	-10.322221	-75.911219	2.482943
60540	9.529264	-0.426657	2.338014	0.014647	-0.000263	0.008463	1.000000	0.000029	0.000009	0.000012	-10.320940	-75.910021	2.487228
60541	9.562358	-0.425810	2.328460	0.032137	-0.000301	0.038236	1.000000	0.000013	0.000003	0.000009	-10.323461	-75.909504	2.491344
60542	9.568793	-0.419690	2.351277	0.012177	0.009006	0.049676	1.000000	0.000016	0.000006	0.000003	-10.322952	-75.911712	2.492063
60543	9.575242	-0.413588	2.374029	-0.007284	0.018308	0.061114	1.000000	0.000023	-0.000005	0.000014	-10.326950	-75.911944	2.498889
60544	9.544063	-0.409780	2.329475	0.028652	0.015649	0.020035	1.000000	0.000012	0.000014	0.000003	-10.324658	-75.909794	2.497438
60545	9.547361	-0.443146	2.337724	0.017295	-0.016273	0.026666	1.000000	0.000020	-0.000002	0.000002	-10.323660	-75.909979	2.498713
60546	9.556937	-0.397510	2.375091	-0.010426	0.034182	0.042912	1.000000	0.000025	0.000005	0.000019	-10.327204	-75.909983	2.506103
60547	9.568671	-0.420111	2.351697	0.012099	0.008899	0.049676	1.000000	0.000019	0.000004	0.000014	-10.331010	-75.909236	2.512287
60548	9.550408	-0.404097	2.352576	0.008777	0.024805	0.031474	1.000000	0.000025	0.000005	0.000019	-10.334608	-75.909830	2.518738
60549	9.547214	-0.443807	2.338199	0.016878	-0.016419	0.026667	1.000000	0.000018	0.000016	0.000007	-10.334510	-75.907890	2.520810
60550	9.571870	-0.453935	2.360255	0.000450	-0.023195	0.056306	1.000000	0.000017	-0.000006	0.000009	-10.334928	-75.908521	2.523456
60551	9.562071	-0.426813	2.329454	0.031278	-0.000574	0.038239	1.000000	0.000029	0.000009	0.000012	-10.336277	-75.907270	2.528219
60552	9.538673	-0.455161	2.370146	-0.016968	-0.023138	0.026532	1.000000	0.000006	0.000007	0.000016	-10.342754	-75.905727	2.533445
60553	9.568451	-0.421008	2.352431	0.011887	0.008746	0.049676	1.000000	0.000032	0.000000	0.000012	-10.344318	-75.905396	2.538844
60554	9.561952	-0.427423	2.329830	0.031322	-0.000598	0.038239	1.000000	0.000019	0.000010	0.000026	-10.351970	-75.903885	2.548980
60555	9.578155	-0.448669	2.383508	-0.018948	-0.013914	0.067744	1.000000	0.000026	-0.000001	0.000007	-10.352258	-75.903777	2.552312
60556	9.553455	-0.438714	2.361605	-0.002465	-0.007244	0.038104	1.000000	0.000019	0.000004	0.000014	-10.355761	-75.902558	2.557741
60557	9.568342	-0.421774	2.352739	0.011975	0.008699	0.049676	1.000000	0.000010	-0.000001	0.000016	-10.362052	-75.902231	2.565333
60558	9.553419	-0.439134	2.361671	-0.002629	-0.007128	0.038104	1.000000	0.000039	0.000002	0.000016	-10.367836	-75.902743	2.572113
60559	9.553393	-0.439186	2.361768	-0.002611	-0.007124	0.038104	1.000000	0.000016	0.000006	0.000002	-10.366730	-75.901902	2.572758
60560	9.522220	-0.435394	2.317207	0.033237	-0.009755	-0.002973	1.000000	0.000019	0.000004	0.000014	-10.370454	-75.901241	2.578662
60561	9.581160	-0.409917	2.398495	-0.027100	0.027425	0.072551	1.000000	0.000019	0.000004	0.000014	-10.374343	-75.900403	2.584846
60562	9.568215	-0.422333	2.353155	0.011223	0.008855	0.049677	1.000000	0.000035	0.000004	0.000005	-10.373734	-75.903371	2.587036
60563	9.549961	-0.406083	2.354049	0.008179	0.024841	0.031475	1.000000	0.000022	0.000007	0.000007	-10.373926	-75.902323	2.589756
60564	9.559723	-0.433351	2.384945	-0.022796	0.002288	0.049540	1.000000	0.000016	-0.000006	0.000009	-10.378340	-75.903637	2.593176
60565	9.564865	-0.388974	2.345155	0.022467	0.040849	0.043048	1.000000	0.000029	0.000003	0.000000	-10.375037	-75.903281	2.593064
60566	9.559700	-0.433280	2.385050	-0.022605	0.002378	0.049540	1.000000	0.000022	0.000007	0.000007	-10.376909	-75.901209	2.592888
60567	9.558325	-0.395229	2.322755	0.042125	0.031631	0.031611	1.000000	0.000015	0.000012	0.000014	-10.380749	-75.899440	2.598472
60568	9.561626	-0.428785	2.330919	0.030261	-0.000254	0.038242	1.000000	0.000027	-0.000013	0.000014	-10.386363	-75.903506	2.604121
60569	9.561625	-0.429004	2.330882	0.030271	-0.000242	0.038242	1.000000	0.000032	0.000006	0.000023	-10.392984	-75.902239	2.614486
60570	9.568059	-0.422867	2.353693	0.010841	0.008920	0.049677	1.000000	0.000023	0.000001	-0.000005	-10.384714	-75.902045	2.610175
60571	9.534906	-0.423706	2.363467	-0.006623	0.008975	0.019901	1.000000	0.000022	0.000007	0.000007	-10.385041	-75.900986	2.612926
60572	9.567977	-0.422933	2.354013	0.010495	0.008913	0.049678	1.000000	0.000022	0.000013	0.000019	-10.389908	-75.901190	2.618648
60573	9.559473	-0.434182	2.385793	-0.023380	0.002296	0.049539	1.000000	0.000016	0.000000	0.000021	-10.397722	-75.900665	2.628373
60574	9.564589	-0.390050	2.346102	0.021764	0.040693	0.043050	1.000000	0.000029	0.000009	0.000012	-10.395562	-75.900141	2.631250
60575	9.559417	-0.434513	2.385959	-0.023483	0.002156	0.049538	1.000000	0.000023	-0.000005	0.000014	-10.399811	-75.900307	2.638125
60576	9.543156	-0.413655	2.332503	0.026931	0.015334	0.020041	1.000000	0.000025	0.000017	0.000012	-10.397830	-75.897433	2.639152
60577	9.567783	-0.423988	2.354614	0.010538	0.008671	0.049678	1.000000	0.000013	-0.000003	0.000028	-10.409332	-75.897139	2.652339
60578	9.574237	-0.418032	2.377304	-0.009049	0.017938	0.061113	1.000000	0.000026	-0.000001	0.000007	-10.408771	-75.897865	2.652714
60579	9.534624	-0.425159	2.364341	-0.007053	0.008686	0.019901	1.000000	0.000022	0.000007	0.000007	-10.409113	-75.896802	2.655465
60580	9.564443	-0.390965	2.346544	0.022248	0.040592	0.043049	1.000000	0.000023	-0.000005	0.000014	-10.413498	-75.894379	2.657752
60581	9.552808	-0.441587	2.363685	-0.003535	-0.007246	0.038104	1.000000	0.000022	0.000007	0.000007	-10.413890	-75.893266	2.660505
60582	9.567646	-0.424600	2.355060	0.011154	0.008573	0.049677	1.000000	0.000018	0.000022	0.000019	-10.415505	-75.888893	2.663612
60583	9.552641	-0.441928	2.364295	-0.003247	-0.007347	0.038104	1.000000	0.000029	0.000009	0.000012	-10.417160	-75.887508	2.668415
60584	9.567560	-0.424901	2.355355	0.011268	0.008463	0.049677	1.000000	0.000027	-0.000013	0.000014	-10.418284	-75.888197	2.672600
60585	9.559108	-0.435996	2.386924	-0.022587	0.001854	0.049540	1.000000	0.000019	0.000004	0.000014	-10.422395	-75.887293	2.678820
60586	9.542851	-0.414982	2.333513	0.027503	0.014781	0.020040	1.000000	0.000028	0.000014	-0.000007	-10.406248	-75.887070	2.673391
60587	9.561013	-0.431111	2.333001	0.030584	-0.001191	0.038241	1.000000	0.000022	0.000007	0.000007	-10.406543	-75.885922	2.676110
60588	9.534317	-0.425826	2.365461	-0.007247	0.008317	0.019902	1.000000	0.000026	-0.000001	0.000007	-10.411564	-75.891126	2.677254
60589	9.552508	-0.442089	2.364802	-0.004181	-0.007651	0.038103	1.000000	0.000022	0.000007	0.000007	-10.411960	-75.890044	2.680012
60590	9.560916	-0.431172	2.333388	0.029328	-0.001185	0.038245	1.000000	0.000012	0.000014	0.000003	-10.407193	-75.890607	2.678348
60591	9.573781	-0.418944	2.378978	-0.009576	0.017449	0.061113	1.000000	0.000022	0.000002	0.000026	-10.416292	-75.889819	2.690121
60592	9.560846	-0.431386	2.333638	0.028951	-0.001389	0.038246	1.000000	0.000026	0.000005	-0.000011	-10.402993	-75.891867	2.683228
60593	9.563973	-0.391830	2.348316	0.020877	0.039850	0.043055	1.000000	0.000019	0.000010	0.000026	-10.411862	-75.890157	2.694354
60594	9.579006	-0.447832	2.333074	0.032157	-0.017459	0.056447	1.000000	0.000023	-0.000011	0.000002	-10.408554	-75.890458	2.692993
60595	9.567260	-0.425330	2.356493	0.009661	0.007845	0.049680	1.000000	0.000016	0.000006	0.000002	-10.407630	-75.889645	2.693683
60596	9.560763	-0.431576	2.333943	0.028892	-0.001259	0.038246	1.000000	0.000029	0.000009	0.000012	-10.414312	-75.889702	2.694855
60597	9.527577	-0.432456	2.343817	0.011428	-0.001192	0.008468	1.000000	0.000025	0.000011	0.000000	-10.411028	-75.888400	2.694149
60598	9.573604	-0.419262	2.379634	-0.010221	0.017343	0.061113	1.000000	0.000026	-0.000007	0.000025	-10.419338	-75.889861	2.704305
60599	9.563833	-0.392382	2.348792	0.020630	0.039964	0.043055	1.000000	0.000015	0.000012	0.000014	-10.423331	-75.888129	2.709919
60600	9.542412	-0.415859	2.335153	0.025654	0.014934	0.020045	1.000000	0.000006	0.000001	0.000005	-10.429944	-75.887862	2.707534
60601	9.552152	-0.443025	2.366067	-0.005180	-0.007643	0.038103	1.000000	0.000020	-0.000002	0.000002	-10.429436	-75.888002	2.708924
60602	9.542391	-0.415991	2.335215	0.025439	0.014984	0.020045	1.000000	0.000032	0.000006	0.000023	-10.436807	-75.888115	2.716217
60603	9.552095	-0.443255	2.366255	-0.005399	-0.007588	0.038103	1.000000	0.000009	0.000005	-0.000002	-10.434882	-75.887556	2.714919
60604	9.566991	-0.426201	2.357430	0.007616	0.008408	0.049681	1.000000	0.000025	0.000005	0.000019	-10.443209	-75.894895	2.722931
60605	9.557219	-0.399255	2.326617	0.038460	0.031026	0.031628	1.000000	0.000019	0.000004	0.000014	-10.447605	-75.894205	2.729260
60606	9.566935	-0.426535	2.357597	0.006761	0.008676	0.049681	1.000000	0.000032	0.000000	0.000012	-10.456020	-75.898840	2.731778
60607	9.558473	-0.437495	2.389195	-0.027144	0.002102	0.049529	1.000000	0.000010	-0.000007	0.000005	-10.458199	-75.899634	2.734681
60608	9.548727	-0.410510	2.358285	0.003843	0.024636	0.031478	1.000000	0.000032	0.000006	0.000023	-10.463115	-75.897664	2.741767
60609	9.566924	-0.427030	2.357552	0.006862	0.008681	0.049681	1.000000	0.000013	-0.000009	0.000016	-10.470301	-75.898452	2.750209
60610	9.560486	-0.433456	2.334728	0.026780	-0.000728	0.038252	1.000000	0.000023	-0.000005	0.000014	-10.471726	-75.895972	2.752782
60611	9.566967	-0.427204	2.357344	0.007319	0.008626	0.049681	1.000000	0.000026	-0.000007	-0.000005	-10.467917	-75.896902	2.751414
60612	9.568979	-0.422546	2.302993	0.061254	0.005773	0.038399	1.000000	0.000025	0.000005	0.000019	-10.469245	-75.892487	2.754863
60613	9.560472	-0.433652	2.334746	0.027367	-0.000797	0.038250	1.000000	0.000019	0.000004	0.000014	-10.473743	-75.891737	2.761203
60614	9.578617	-0.450050	2.334245	0.030139	-0.016909	0.056454	1.000000	0.000025	0.000017	0.000012	-10.472094	-75.891123	2.763762
60615	9.560352	-0.434047	2.335164	0.027107	-0.000896	0.038251	1.000000	0.000022	0.000002	0.000026	-10.481573	-75.890395	2.775635
60616	9.542119	-0.418076	2.335952	0.024747	0.015076	0.020047	1.000000	0.000019	0.000004	0.000014	-10.484304	-75.885706	2.777807
60617	9.566690	-0.428213	2.358287	0.008338	0.008447	0.049680	1.000000	0.000030	0.000030	0.000010	-10.483468	-75.882019	2.779982
60618	9.566604	-0.428295	2.358619	0.007018	0.008568	0.049681	1.000000	0.000013	0.000003	0.000009	-10.490476	-75.889243	2.783714
60619	9.548341	-0.412083	2.359572	0.003986	0.024585	0.031478	1.000000	0.000028	0.000021	0.000005	-10.488643	-75.886826	2.784515
60620	9.533340	-0.429272	2.368771	-0.010775	0.008883	0.019898	1.000000	0.000019	0.000004	0.000014	-10.498121	-75.887941	2.787190
60621	9.554702	-0.406100	2.382619	-0.015793	0.034171	0.042905	1.000000	0.000019	0.000004	0.000014	-10.502768	-75.887233	2.793571
60622	9.548186	-0.412479	2.360132	0.002760	0.024914	0.031478	1.000000	0.000025	0.000017	0.000012	-10.506766	-75.890328	2.795848
60623	9.536472	-0.463098	2.377456	-0.023111	-0.022872	0.026520	1.000000	0.000023	-0.000005	0.000014	-10.511666	-75.890619	2.802904
60624	9.548124	-0.412635	2.360352	0.001833	0.024817	0.031478	1.000000	0.000025	0.000011	0.000000	-10.505857	-75.894775	2.802145
60625	9.572779	-0.422667	2.382350	-0.014622	0.018202	0.061106	1.000000	0.000027	-0.000013	0.000014	-10.510952	-75.896067	2.809862
60626	9.563041	-0.395660	2.351466	0.016325	0.041105	0.043059	1.000000	0.000025	0.000017	0.000012	-10.520080	-75.893400	2.808394
60627	9.523402	-0.402815	2.338593	0.018296	0.031877	0.001849	1.000000	0.000026	-0.000001	0.000007	-10.521354	-75.893478	2.812002
60628	9.559775	-0.435384	2.337277	0.024155	-0.000151	0.038259	1.000000	0.000029	0.000009	0.000012	-10.521531	-75.893291	2.813709
60629	9.566204	-0.429195	2.360077	0.004682	0.009229	0.049682	1.000000	0.000026	-0.000001	0.000007	-10.522816	-75.893372	2.817319
60630	9.539495	-0.423751	2.392552	-0.031711	0.018601	0.031320	1.000000	0.000025	0.000011	0.000000	-10.517623	-75.889105	2.812182
60631	9.547939	-0.413020	2.361037	0.002169	0.025219	0.031477	1.000000	0.000022	0.000002	0.000026	-10.527434	-75.888462	2.824148
60632	9.566106	-0.429361	2.360446	0.004893	0.009446	0.049682	1.000000	0.000038	0.000007	-0.000002	-10.526997	-75.889329	2.818357
60633	9.547837	-0.413100	2.361435	0.001863	0.025477	0.031476	1.000000	0.000012	0.000021	0.000014	-10.531489	-75.886791	2.823503
60634	9.551023	-0.446665	2.369938	-0.010537	-0.006465	0.038099	1.000000	0.000019	0.000004	0.000014	-10.535359	-75.891739	2.828611
60635	9.572357	-0.423457	2.383904	-0.015566	0.018837	0.061103	1.000000	0.000025	0.000017	0.000012	-10.537606	-75.889705	2.832994
60636	9.539167	-0.424390	2.393747	-0.033611	0.018764	0.031313	1.000000	0.000032	0.000000	0.000012	-10.536318	-75.892912	2.837493
60637	9.572280	-0.423701	2.384171	-0.016187	0.018736	0.061102	1.000000	0.000025	0.000005	0.000019	-10.542491	-75.892110	2.846017
60638	9.565795	-0.430033	2.361582	0.003523	0.009087	0.049683	1.000000	0.000035	0.000004	0.000005	-10.532646	-75.890137	2.845703
60639	9.532659	-0.430853	2.371222	-0.013961	0.009204	0.019893	1.000000	0.000010	-0.000007	0.000005	-10.535183	-75.890994	2.848704
60640	9.554099	-0.407787	2.384747	-0.020243	0.034186	0.042897	1.000000	0.000007	-0.000016	0.000030	-10.544120	-75.899750	2.865245
60641	9.565899	-0.430587	2.361059	0.002180	0.008901	0.049683	1.000000	0.000040	-0.000016	0.000011	-10.547089	-75.901591	2.872239
60642	9.567952	-0.426101	2.306603	0.055334	0.006155	0.038434	1.000000	0.000019	0.000004	0.000014	-10.551702	-75.901990	2.875430
60643	9.559452	-0.437114	2.338276	0.021397	-0.000374	0.038265	1.000000	0.000023	-0.000005	0.000014	-10.556762	-75.902440	2.882553
60644	9.574407	-0.420176	2.329247	0.034914	0.015667	0.049855	1.000000	0.000023	-0.000005	0.000014	-10.565076	-75.908046	2.886924
60645	9.567935	-0.426529	2.306595	0.054316	0.006367	0.038439	1.000000	0.000022	0.000007	0.000007	-10.566255	-75.907344	2.889928
60646	9.552958	-0.443703	2.315670	0.039738	-0.009305	0.026852	1.000000	0.000013	0.000003	0.000009	-10.574922	-75.907562	2.888850
60647	9.580763	-0.414311	2.352285	0.015231	0.025348	0.061270	1.000000	0.000028	0.000015	0.000024	-10.582232	-75.905678	2.898808
60648	9.598855	-0.430849	2.351954	0.017281	0.009493	0.079478	1.000000	0.000012	0.000021	0.000014	-10.589977	-75.908566	2.901341
60649	9.550705	-0.448708	2.370831	-0.014670	-0.006284	0.038094	1.000000	0.000026	0.000005	-0.000011	-10.582768	-75.908599	2.896017
60650	9.540957	-0.421493	2.340084	0.015294	0.016261	0.020064	1.000000	0.000025	0.000017	0.000012	-10.585125	-75.911924	2.898970
60651	9.567563	-0.427086	2.308033	0.052121	0.006879	0.038451	1.000000	0.000015	0.000012	0.000014	-10.589994	-75.910620	2.904860
60652	9.571899	-0.425519	2.385375	-0.019554	0.018992	0.061096	1.000000	0.000018	0.000016	0.000007	-10.587540	-75.902103	2.900728
60653	9.538661	-0.426379	2.395406	-0.037054	0.019126	0.031300	1.000000	0.000034	0.000022	0.000010	-10.587454	-75.899738	2.903728
60654	9.583454	-0.448173	2.362713	0.002173	-0.006383	0.067890	1.000000	0.000009	0.000011	0.000009	-10.588509	-75.902200	2.906973
60655	9.565258	-0.432144	2.363370	-0.000882	0.009654	0.049683	1.000000	0.000030	-0.000015	0.000025	-10.599001	-75.903709	2.920369
60656	9.547088	-0.415874	2.363974	-0.003953	0.025761	0.031475	1.000000	0.000026	0.000005	-0.000011	-10.593502	-75.903845	2.910199
60657	9.580228	-0.415068	2.354329	0.013429	0.025730	0.061272	1.000000	0.000026	-0.000007	0.000025	-10.603827	-75.904404	2.922944
60658	9.532124	-0.433141	2.372959	-0.018590	0.009891	0.019885	1.000000	0.000016	0.000006	0.000002	-10.602308	-75.904409	2.920216
60659	9.591942	-0.437844	2.330999	0.035681	0.000417	0.068069	1.000000	0.000023	-0.000005	0.000014	-10.607648	-75.904961	2.927424
60660	9.570515	-0.388352	2.323377	0.043680	0.048268	0.043245	1.000000	0.000013	0.000003	0.000009	-10.610205	-75.907254	2.928918
60661	9.576947	-0.455177	2.340094	0.020689	-0.015456	0.056481	1.000000	0.000029	0.000009	0.000012	-10.612869	-75.906382	2.934033
60662	9.546990	-0.416466	2.364266	-0.005214	0.026121	0.031473	1.000000	0.000013	0.000003	0.000009	-10.621836	-75.908647	2.933493
60663	9.565122	-0.432957	2.363775	-0.002297	0.010190	0.049682	1.000000	0.000028	0.000015	0.000024	-10.629354	-75.906852	2.943505
60664	9.573574	-0.422334	2.332276	0.031060	0.016455	0.049866	1.000000	0.000006	0.000001	0.000005	-10.624730	-75.909865	2.945687
60665	9.573534	-0.422368	2.332436	0.030989	0.016509	0.049867	1.000000	0.000038	0.000014	0.000010	-10.624946	-75.908538	2.949377
60666	9.550027	-0.450321	2.373256	-0.017967	-0.005770	0.038089	1.000000	0.000013	0.000003	0.000009	-10.631993	-75.911517	2.950370
60667	9.546762	-0.416966	2.365097	-0.006569	0.026172	0.031473	1.000000	0.000025	0.000011	0.000000	-10.629739	-75.910703	2.949973
60668	9.540264	-0.423201	2.342597	0.012603	0.016477	0.020068	1.000000	0.000022	0.000007	0.000007	-10.622124	-75.911424	2.954491
60669	9.562810	-0.437832	2.419113	-0.057294	0.012730	0.060899	1.000000	0.000019	0.000004	0.000014	-10.627291	-75.911122	2.961060
60670	9.564865	-0.433517	2.364711	-0.003681	0.010104	0.049682	1.000000	0.000013	-0.000009	0.000016	-10.638235	-75.910249	2.964303
60671	9.546670	-0.417408	2.365390	-0.006735	0.026148	0.031472	1.000000	0.000029	0.000009	0.000012	-10.640977	-75.909432	2.969441
60672	9.558362	-0.440099	2.342170	0.014259	0.000975	0.038278	1.000000	0.000019	0.000004	0.000014	-10.650951	-75.917040	2.974281
60673	9.561540	-0.400755	2.356700	0.006205	0.042286	0.043065	1.000000	0.000019	0.000010	0.000026	-10.661019	-75.915843	2.985763
60674	9.558306	-0.440632	2.342298	0.015787	0.001300	0.038276	1.000000	0.000020	-0.000014	0.000009	-10.668459	-75.907708	2.981198
60675	9.551873	-0.447012	2.319508	0.035161	-0.008014	0.026871	1.000000	0.000013	0.000003	0.000009	-10.672535	-75.907611	2.985744
60676	9.564782	-0.434632	2.364841	-0.008914	-0.007681	0.049680	1.000000	0.000013	-0.000009	0.000016	-10.240532	-75.943638	2.220448
60677	9.540142	-0.424772	2.342809	0.007500	-0.001207	0.020087	1.000000	0.000022	0.000007	0.000007	-10.238453	-75.943341	2.218315
60678	9.589339	-0.444869	2.387138	-0.025660	-0.014426	0.079273	1.000000	0.000031	0.000018	0.000017	-10.238986	-75.941546	2.219658
60679	9.573150	-0.424360	2.333649	0.024699	-0.001646	0.049898	1.000000	0.000022	0.000002	0.000026	-10.245657	-75.941521	2.226569
60680	9.558166	-0.441456	2.342714	0.010029	-0.017520	0.038268	1.000000	0.000026	0.000005	-0.000011	-10.235025	-75.941927	2.220497
60681	9.579620	-0.418085	2.356266	0.005074	0.007638	0.061310	1.000000	0.000008	-0.000023	0.000018	-10.242004	-75.944779	2.225991
60682	9.543235	-0.458754	2.351521	-0.004751	-0.033463	0.026637	1.000000	0.000031	0.000018	0.000017	-10.242863	-75.943005	2.221794
60683	9.561371	-0.402219	2.357135	0.001995	0.023514	0.043130	1.000000	0.000019	0.000004	0.000014	-10.244522	-75.942964	2.223151
60684	9.558112	-0.441882	2.342854	0.009541	-0.017847	0.038268	1.000000	0.000029	0.000003	0.000000	-10.239626	-75.943540	2.216506
60685	9.564538	-0.435542	2.365662	-0.009963	-0.008462	0.049679	1.000000	0.000022	0.000007	0.000007	-10.237545	-75.943243	2.214371
60686	9.561339	-0.402318	2.357249	0.001626	0.023287	0.043130	1.000000	0.000017	-0.000018	0.000016	-10.242729	-75.945597	2.212673
60687	9.539921	-0.425887	2.343508	0.006341	-0.002062	0.020087	1.000000	0.000015	0.000012	0.000014	-10.244195	-75.944607	2.213389
60688	9.539871	-0.426076	2.343677	0.006204	-0.002125	0.020087	1.000000	0.000019	0.000004	0.000014	-10.246637	-75.944696	2.210308
60689	9.579447	-0.419128	2.356786	0.004115	0.006991	0.061311	1.000000	0.000032	0.000000	0.000012	-10.246020	-75.945105	2.210877
60690	9.531315	-0.437199	2.375461	-0.027986	-0.008580	0.019864	1.000000	0.000022	0.000002	0.000026	-10.253076	-75.945148	2.221357
60691	9.572944	-0.425932	2.334210	0.023261	-0.002670	0.049901	1.000000	0.000019	0.000004	0.000014	-10.254734	-75.945107	2.222713
60692	9.546228	-0.420563	2.366616	-0.013642	0.007003	0.031498	1.000000	0.000013	0.000003	0.000009	-10.255204	-75.945257	2.226945
60693	9.561172	-0.403648	2.357700	0.000807	0.022676	0.043132	1.000000	0.000019	0.000004	0.000014	-10.256862	-75.945216	2.228300
60694	9.524755	-0.444420	2.353031	-0.009082	-0.018416	0.008453	1.000000	0.000019	-0.000002	0.000032	-10.267847	-75.945638	2.235976
60695	9.572833	-0.426693	2.334523	0.022779	-0.003026	0.049902	1.000000	0.000022	0.000013	-0.000011	-10.257011	-75.945070	2.224794
60696	9.554609	-0.410394	2.335381	0.019829	0.012944	0.031723	1.000000	0.000032	0.000006	0.000023	-10.261747	-75.944506	2.222906
60697	9.555695	-0.448497	2.398247	-0.045349	-0.015731	0.049450	1.000000	0.000006	0.000007	0.000016	-10.265679	-75.944014	2.225047
60698	9.560963	-0.404576	2.358386	0.000217	0.022256	0.043133	1.000000	0.000029	0.000009	0.000012	-10.265034	-75.943485	2.223613
60699	9.545950	-0.421768	2.367521	-0.014466	0.006402	0.031497	1.000000	0.000019	0.000004	0.000014	-10.266691	-75.943443	2.224967
60700	9.564092	-0.438237	2.366967	-0.011740	-0.009731	0.049676	1.000000	0.000019	0.000004	0.000014	-10.268548	-75.943388	2.229114
60701	9.564051	-0.438371	2.367109	-0.011855	-0.009825	0.049675	1.000000	0.000029	0.000009	0.000012	-10.267735	-75.942848	2.229037
60702	9.545798	-0.422131	2.368069	-0.014786	0.006145	0.031496	1.000000	0.000008	0.000023	0.000003	-10.264343	-75.940784	2.221133
60703	9.536121	-0.395263	2.337117	0.016220	0.028356	0.013547	1.000000	0.000030	-0.000015	0.000025	-10.271402	-75.942653	2.229326
60704	9.563968	-0.438749	2.367374	-0.012189	-0.010088	0.049675	1.000000	0.000020	-0.000002	0.000002	-10.268343	-75.943595	2.228865
60705	9.557484	-0.445231	2.344779	0.007078	-0.019683	0.038266	1.000000	0.000019	0.000010	0.000026	-10.274814	-75.942618	2.235126
60706	9.545762	-0.422770	2.368102	-0.015228	0.005779	0.031496	1.000000	0.000017	-0.000012	-0.000002	-10.270677	-75.944574	2.228810
60707	9.563945	-0.439090	2.367401	-0.012511	-0.010365	0.049674	1.000000	0.000019	0.000004	0.000014	-10.272333	-75.944532	2.230163
60708	9.551023	-0.451798	2.322078	0.026144	-0.029460	0.026858	1.000000	0.000026	-0.000001	0.000007	-10.270608	-75.945119	2.226732
60709	9.554263	-0.412168	2.336482	0.018398	0.011751	0.031727	1.000000	0.000022	0.000007	0.000007	-10.268523	-75.944821	2.224593
60710	9.570328	-0.432875	2.390349	-0.032210	-0.001134	0.061081	1.000000	0.000035	0.000004	0.000005	-10.264160	-75.944897	2.223829
60711	9.557416	-0.445535	2.344999	0.006434	-0.020239	0.038266	1.000000	0.000023	-0.000004	0.000014	-10.266012	-75.945803	2.225826
60712	9.539239	-0.429606	2.345605	0.003499	-0.004273	0.020088	1.000000	-0.000000	0.000000	0.000030	-10.277645	-75.945788	2.238329
60713	9.554168	-0.412849	2.336751	0.017962	0.011381	0.031729	1.000000	0.000038	0.000014	0.000010	-10.274357	-75.944750	2.236818
60714	9.552069	-0.417324	2.391220	-0.035469	0.014544	0.042902	1.000000	0.000016	-0.000006	0.000009	-10.274805	-75.945788	2.243352
60715	9.590464	-0.445565	2.335615	0.023405	-0.020915	0.068084	1.000000	0.000022	0.000007	0.000007	-10.272719	-75.945490	2.241211
60716	9.578705	-0.423016	2.359107	0.001078	0.004555	0.061313	1.000000	0.000029	0.000009	0.000012	-10.272080	-75.944988	2.245653
60717	9.563703	-0.440082	2.368195	-0.013613	-0.011288	0.049672	1.000000	0.000020	-0.000002	0.000002	-10.268921	-75.945881	2.242097
60718	9.554055	-0.413119	2.337167	0.017410	0.010927	0.031730	1.000000	0.000019	0.000004	0.000014	-10.270995	-75.945814	2.240928
60719	9.578643	-0.423385	2.359292	0.000740	0.004288	0.061314	1.000000	0.000022	0.000002	0.000026	-10.277661	-75.945784	2.247831
60720	9.557187	-0.446766	2.345700	0.005438	-0.021055	0.038265	1.000000	0.000026	0.000005	-0.000011	-10.267144	-75.946093	2.242222
60721	9.545454	-0.424067	2.369112	-0.016877	0.004412	0.031494	1.000000	0.000019	0.000004	0.000014	-10.268798	-75.946050	2.243573
60722	9.560381	-0.407243	2.360286	-0.002404	0.020083	0.043137	1.000000	0.000022	0.000014	0.000019	-10.271986	-75.944789	2.239822
60723	9.566774	-0.401170	2.383167	-0.021894	0.029501	0.054543	1.000000	0.000025	0.000005	0.000019	-10.274909	-75.944504	2.243232
60724	9.545297	-0.424664	2.369636	-0.017216	0.004157	0.031494	1.000000	0.000022	0.000007	0.000007	-10.272931	-75.944221	2.241231
60725	9.563404	-0.441183	2.369198	-0.014514	-0.011991	0.049669	1.000000	0.000019	0.000010	0.000026	-10.279397	-75.943242	2.247486
60726	9.553731	-0.414528	2.338242	0.016516	0.010198	0.031733	1.000000	0.000016	0.000000	0.000021	-10.284843	-75.943453	2.255934
60727	9.563322	-0.441549	2.369460	-0.014743	-0.012178	0.049669	1.000000	0.000022	0.000013	-0.000011	-10.274003	-75.942888	2.244748
60728	9.538658	-0.431556	2.347610	0.001719	-0.005724	0.020088	1.000000	0.000032	0.000007	0.000023	-10.278374	-75.942275	2.247819
60729	9.556768	-0.448152	2.347141	0.004417	-0.021874	0.038263	1.000000	0.000006	0.000007	0.000016	-10.282300	-75.941780	2.249954
60730	9.593175	-0.407980	2.351836	0.014108	0.019029	0.072960	1.000000	0.000023	-0.000004	0.000014	-10.284283	-75.942634	2.253406
60731	9.538571	-0.432163	2.347848	0.001385	-0.006002	0.020088	1.000000	0.000022	0.000007	0.000007	-10.282194	-75.942336	2.251263
60732	9.556715	-0.448564	2.347279	0.004075	-0.022139	0.038263	1.000000	0.000023	-0.000004	0.000014	-10.284379	-75.943261	2.249480
60733	9.559971	-0.409046	2.361636	-0.003632	0.019079	0.043139	1.000000	0.000009	0.000011	0.000009	-10.284563	-75.942512	2.248122
60734	9.538455	-0.432428	2.348274	0.001051	-0.006272	0.020088	1.000000	0.000022	0.000019	0.000000	-10.278494	-75.940942	2.247392
60735	9.578063	-0.425328	2.361296	-0.001041	0.002831	0.061314	1.000000	0.000018	-0.000024	0.000004	-10.278207	-75.944229	2.246564
60736	9.544904	-0.426219	2.370940	-0.018554	0.003064	0.031492	1.000000	0.000024	0.000023	0.000024	-10.282098	-75.941823	2.254730
60737	9.553363	-0.415776	2.339521	0.015295	0.009182	0.031736	1.000000	0.000019	0.000004	0.000014	-10.283750	-75.941779	2.256078
60738	9.538342	-0.432983	2.348630	0.000595	-0.006637	0.020087	1.000000	0.000019	0.000004	0.000014	-10.285597	-75.941713	2.257858
60739	9.577891	-0.426121	2.361849	-0.001498	0.002465	0.061314	1.000000	0.000015	0.000012	0.000014	-10.287049	-75.940721	2.258557
60740	9.544687	-0.426954	2.371683	-0.019003	0.002703	0.031491	1.000000	0.000022	0.000007	0.000007	-10.285064	-75.940403	2.256838
60741	9.538200	-0.433391	2.349130	0.000256	-0.006916	0.020087	1.000000	0.000019	0.000004	0.000014	-10.286715	-75.940360	2.258185
60742	9.556320	-0.449806	2.348647	0.002961	-0.023067	0.038261	1.000000	0.000022	0.000007	0.000007	-10.284675	-75.939961	2.256868
60743	9.538198	-0.433511	2.349116	0.000045	-0.007102	0.020087	1.000000	0.000018	-0.000024	0.000004	-10.284391	-75.943248	2.256044
60744	9.595973	-0.442975	2.361441	0.000759	-0.014053	0.079488	1.000000	0.000019	0.000010	0.000026	-10.291046	-75.942225	2.262141
60745	9.538157	-0.433856	2.349220	-0.000177	-0.007282	0.020087	1.000000	0.000025	0.000011	0.000000	-10.285214	-75.941672	2.256504
60746	9.553150	-0.416845	2.340201	0.014311	0.008360	0.031738	1.000000	0.000027	-0.000013	0.000014	-10.287501	-75.943480	2.258143
60747	9.564871	-0.439499	2.316844	0.036364	-0.017326	0.038509	1.000000	0.000029	0.000003	0.000000	-10.281869	-75.943875	2.253153
60748	9.538167	-0.433809	2.349189	-0.000505	-0.007545	0.020087	1.000000	0.000026	-0.000001	0.000007	-10.280201	-75.944482	2.251061
60749	9.556304	-0.450217	2.348633	0.002175	-0.023701	0.038260	1.000000	0.000019	0.000004	0.000014	-10.281851	-75.944438	2.252407
60750	9.559603	-0.410724	2.362834	-0.005503	0.017529	0.043141	1.000000	0.000007	-0.000011	0.000011	-10.285102	-75.946063	2.256547
60751	9.556322	-0.450630	2.348481	0.001949	-0.023882	0.038259	1.000000	0.000036	-0.000002	0.000023	-10.289490	-75.946481	2.262659
60752	9.559607	-0.410923	2.362785	-0.005736	0.017353	0.043141	1.000000	0.000026	0.000005	-0.000011	-10.279148	-75.946900	2.251630
60753	9.564814	-0.439957	2.316994	0.035679	-0.017873	0.038510	1.000000	0.000019	0.000010	0.000026	-10.285607	-75.945919	2.257878
60754	9.546612	-0.423831	2.317764	0.032765	-0.001895	0.020338	1.000000	0.000016	0.000006	0.000002	-10.282503	-75.945914	2.255106
60755	9.577632	-0.427459	2.362661	-0.003296	0.001017	0.061314	1.000000	0.000022	0.000007	0.000007	-10.280410	-75.945615	2.252958
60756	9.544446	-0.428265	2.372415	-0.020806	0.001279	0.031487	1.000000	0.000019	0.000004	0.000014	-10.282340	-75.945612	2.254504
60757	9.552982	-0.417763	2.340723	0.013048	0.007366	0.031740	1.000000	0.000023	-0.000004	0.000014	-10.284191	-75.946516	2.256499
60758	9.544430	-0.428569	2.372425	-0.021031	0.001102	0.031487	1.000000	0.000013	0.000003	0.000009	-10.284808	-75.946697	2.255982
60759	9.559382	-0.411512	2.363589	-0.006543	0.016725	0.043142	1.000000	0.000035	0.000016	-0.000002	-10.276497	-75.945647	2.248905
60760	9.552871	-0.417903	2.341154	0.012713	0.007098	0.031741	1.000000	0.000006	0.000007	0.000016	-10.280577	-75.945131	2.253680
60761	9.561390	-0.407418	2.309538	0.046569	0.013178	0.031996	1.000000	0.000032	0.000000	0.000012	-10.279953	-75.945538	2.254238
60762	9.577400	-0.428184	2.363466	-0.004101	0.000389	0.061314	1.000000	0.000015	0.000012	0.000014	-10.281541	-75.944565	2.256736
60763	9.552740	-0.418361	2.341605	0.012369	0.006819	0.031742	1.000000	0.000029	0.000009	0.000012	-10.280715	-75.944023	2.256645
60764	9.537697	-0.435507	2.350780	-0.002352	-0.008984	0.020085	1.000000	0.000019	0.000004	0.000014	-10.282492	-75.943996	2.259079
60765	9.550562	-0.422905	2.396253	-0.041198	0.010006	0.042885	1.000000	0.000022	0.000007	0.000007	-10.280398	-75.943698	2.256929
60766	9.579354	-0.424435	2.309586	0.048759	-0.003349	0.050171	1.000000	0.000020	-0.000008	0.000021	-10.286252	-75.944939	2.261639
60767	9.570737	-0.435362	2.341509	0.014674	-0.009612	0.049914	1.000000	0.000008	0.000029	0.000014	-10.287292	-75.942049	2.261031
60768	9.552500	-0.419249	2.342424	0.011778	0.006365	0.031743	1.000000	0.000019	0.000004	0.000014	-10.289078	-75.942028	2.263539
60769	9.570675	-0.435617	2.341712	0.014441	-0.009797	0.049914	1.000000	0.000027	-0.000019	0.000002	-10.286325	-75.944817	2.261284
60770	9.562129	-0.446322	2.373376	-0.019647	-0.016050	0.049655	1.000000	0.000015	0.000012	0.000014	-10.287896	-75.943839	2.263191
60771	9.552483	-0.419466	2.342457	0.011434	0.006085	0.031743	1.000000	0.000022	0.000007	0.000007	-10.285801	-75.943540	2.261041
60772	9.570612	-0.435884	2.341919	0.014088	-0.010070	0.049914	1.000000	0.000023	-0.000004	0.000014	-10.287837	-75.944477	2.263503
60773	9.543900	-0.430374	2.374227	-0.022772	-0.000255	0.031483	1.000000	0.000019	0.000004	0.000014	-10.289484	-75.944432	2.264846
60774	9.570546	-0.436169	2.342138	0.013851	-0.010252	0.049914	1.000000	0.000018	0.000016	0.000007	-10.287403	-75.943227	2.261605
60775	9.564041	-0.442748	2.319652	0.033099	-0.019897	0.038515	1.000000	0.000022	0.000002	0.000026	-10.294059	-75.943192	2.268496
60776	9.558816	-0.413903	2.365461	-0.008520	0.015187	0.043143	1.000000	0.000014	-0.000015	0.000004	-10.293807	-75.945581	2.267232
60777	9.583450	-0.423852	2.387394	-0.025226	0.008575	0.072711	1.000000	0.000020	-0.000002	0.000002	-10.290647	-75.946473	2.263675
60778	9.552384	-0.420273	2.342716	0.010603	0.005452	0.031744	1.000000	0.000029	0.000009	0.000012	-10.289966	-75.945999	2.266012
60779	9.558794	-0.414044	2.365528	-0.008872	0.014910	0.043143	1.000000	0.000019	0.000004	0.000014	-10.291613	-75.945953	2.267354
60780	9.543769	-0.431137	2.374618	-0.023606	-0.000880	0.031481	1.000000	0.000026	-0.000001	0.000007	-10.289866	-75.946649	2.267179
60781	9.576899	-0.430589	2.365059	-0.006341	-0.001344	0.061312	1.000000	0.000025	0.000005	0.000019	-10.292779	-75.946360	2.270577
60782	9.570402	-0.437017	2.342566	0.012902	-0.010985	0.049915	1.000000	0.000025	0.000011	0.000000	-10.287128	-75.945824	2.263545
60783	9.570361	-0.437152	2.342709	0.012787	-0.011081	0.049915	1.000000	0.000022	0.000002	0.000026	-10.293784	-75.945789	2.270436
60784	9.537178	-0.437902	2.352443	-0.004709	-0.010797	0.020083	1.000000	0.000038	0.000007	-0.000002	-10.285795	-75.945709	2.266236
60785	9.555317	-0.454242	2.351874	-0.002061	-0.026963	0.038251	1.000000	0.000013	-0.000009	0.000016	-10.290122	-75.947108	2.269666
60786	9.540487	-0.398386	2.366654	-0.012442	0.030348	0.024974	1.000000	0.000029	0.000009	0.000012	-10.289459	-75.946556	2.270958
60787	9.591734	-0.414112	2.356636	0.007583	0.013806	0.072976	1.000000	0.000022	0.000007	0.000007	-10.287361	-75.946256	2.268804
60788	9.552095	-0.421253	2.343715	0.009444	0.004535	0.031746	1.000000	0.000019	0.000004	0.000014	-10.289152	-75.946252	2.271285
60789	9.570209	-0.437635	2.343242	0.012090	-0.011633	0.049915	1.000000	0.000035	0.000004	0.000005	-10.284782	-75.946404	2.268346
60790	9.552023	-0.421264	2.344008	0.009214	0.004349	0.031746	1.000000	0.000012	0.000015	0.000003	-10.281305	-75.945417	2.266032
60791	9.576562	-0.431408	2.366277	-0.007501	-0.002259	0.061311	1.000000	0.000022	0.000002	0.000026	-10.287959	-75.945380	2.272922
60792	9.551953	-0.421673	2.344219	0.008971	0.004166	0.031747	1.000000	0.000006	0.000001	0.000005	-10.287259	-75.945908	2.271713
60793	9.558372	-0.415270	2.367016	-0.010501	0.013633	0.043143	1.000000	0.000025	0.000011	0.000000	-10.281417	-75.945355	2.266065
60794	9.545432	-0.428055	2.321843	0.028094	-0.005579	0.020351	1.000000	0.000019	0.000004	0.000014	-10.283241	-75.945350	2.266608
60795	9.543259	-0.432403	2.376434	-0.025355	-0.002238	0.031477	1.000000	0.000018	0.000016	0.000007	-10.280937	-75.944102	2.263801
60796	9.551776	-0.421981	2.344884	0.008501	0.003802	0.031747	1.000000	0.000016	0.000000	0.000021	-10.286530	-75.944355	2.266476
60797	9.551741	-0.422188	2.344991	0.008387	0.003707	0.031747	1.000000	0.000029	0.000009	0.000012	-10.285697	-75.943812	2.266377
60798	9.558169	-0.415933	2.367720	-0.011083	0.013186	0.043143	1.000000	0.000023	-0.000004	0.000014	-10.287698	-75.944717	2.266288
60799	9.569856	-0.438859	2.344455	0.010908	-0.012553	0.049915	1.000000	0.000010	-0.000001	0.000016	-10.291819	-75.945167	2.269064
60800	9.558159	-0.416306	2.367693	-0.011319	0.013003	0.043143	1.000000	0.000006	0.000001	0.000005	-10.291067	-75.945659	2.267024
60801	9.551709	-0.422693	2.345029	0.007922	0.003339	0.031748	1.000000	0.000020	-0.000002	0.000002	-10.287907	-75.946551	2.263466
60802	9.528054	-0.450350	2.386062	-0.040801	-0.018548	0.019806	1.000000	0.000027	0.000027	0.000017	-10.288036	-75.943886	2.263471
60803	9.551558	-0.422948	2.345598	0.007691	0.003153	0.031748	1.000000	0.000019	0.000004	0.000014	-10.289679	-75.943839	2.264809
60804	9.536497	-0.440065	2.354796	-0.007053	-0.012619	0.020079	1.000000	0.000029	0.000009	0.000012	-10.288956	-75.943316	2.265112
60805	9.536446	-0.440156	2.354988	-0.007167	-0.012713	0.020079	1.000000	0.000029	0.000009	0.000012	-10.288122	-75.942773	2.265012
60806	9.557869	-0.416952	2.368752	-0.012010	0.012457	0.043143	1.000000	0.000025	0.000005	0.000019	-10.291243	-75.942500	2.265446
60807	9.551366	-0.423556	2.346272	0.007229	0.002787	0.031749	1.000000	0.000015	0.000012	0.000014	-10.292679	-75.941505	2.266129
60808	9.584470	-0.422904	2.336871	0.024478	0.002296	0.061586	1.000000	0.000038	0.000007	-0.000002	-10.284645	-75.941438	2.263118
60809	9.536250	-0.440554	2.355704	-0.007634	-0.013077	0.020078	1.000000	0.000006	0.000008	0.000016	-10.288558	-75.940939	2.265239
60810	9.575853	-0.433737	2.368719	-0.009732	-0.003989	0.061309	1.000000	0.000027	-0.000013	0.000014	-10.290758	-75.942785	2.266318
60811	9.554410	-0.457150	2.354993	-0.005127	-0.029338	0.038244	1.000000	0.000020	-0.000002	0.000002	-10.287599	-75.943677	2.262760
60812	9.577988	-0.429611	2.314289	0.043374	-0.007656	0.050193	1.000000	0.000029	0.000009	0.000012	-10.286961	-75.943121	2.259407
60813	9.569385	-0.440350	2.346094	0.009276	-0.013845	0.049915	1.000000	0.000029	-0.000003	0.000019	-10.290075	-75.943778	2.263452
60814	9.544826	-0.430707	2.323846	0.025773	-0.007433	0.020356	1.000000	0.000010	-0.000013	0.000023	-10.298351	-75.945457	2.269730
60815	9.557708	-0.418214	2.369177	-0.013040	0.011638	0.043143	1.000000	0.000015	0.000012	0.000014	-10.299785	-75.944462	2.270410
60816	9.551208	-0.424596	2.346726	0.006191	0.001970	0.031750	1.000000	0.000038	0.000007	-0.000002	-10.291933	-75.944382	2.258966
60817	9.575745	-0.434574	2.369003	-0.010542	-0.004620	0.061308	1.000000	0.000006	0.000008	0.000016	-10.295845	-75.943884	2.261085
60818	9.575719	-0.434723	2.369080	-0.010655	-0.004705	0.061308	1.000000	0.000026	-0.000001	0.000007	-10.294137	-75.944518	2.255827
60819	9.551126	-0.424871	2.347011	0.005852	0.001693	0.031750	1.000000	0.000019	0.000004	0.000014	-10.295778	-75.944470	2.257162
60820	9.575647	-0.435034	2.369314	-0.010888	-0.004889	0.061307	1.000000	0.000022	0.000014	0.000019	-10.298596	-75.943251	2.262101
60821	9.551015	-0.425203	2.347402	0.005620	0.001509	0.031750	1.000000	0.000016	0.000006	0.000002	-10.295228	-75.943195	2.257888
60822	9.557452	-0.418869	2.370095	-0.013845	0.011014	0.043142	1.000000	0.000023	-0.000004	0.000014	-10.297270	-75.944127	2.259662
60823	9.557391	-0.419012	2.370315	-0.013959	0.010920	0.043142	1.000000	0.000021	0.000026	0.000012	-10.296014	-75.941686	2.258245
60824	9.568990	-0.441912	2.347414	0.007995	-0.014848	0.049915	1.000000	0.000019	0.000004	0.000014	-10.297730	-75.941629	2.260915
60825	9.572290	-0.402283	2.361734	0.000458	0.026397	0.054818	1.000000	0.000012	0.000015	0.000003	-10.294154	-75.940624	2.256046
60826	9.524071	-0.419842	2.380542	-0.031664	0.011072	0.013301	1.000000	0.000020	-0.000002	0.000002	-10.291155	-75.941537	2.250664
60827	9.565802	-0.408723	2.339236	0.019574	0.016618	0.043427	1.000000	0.000019	0.000004	0.000014	-10.292795	-75.941489	2.251997
60828	9.568861	-0.442141	2.347896	0.007519	-0.015212	0.049915	1.000000	0.000022	0.000007	0.000007	-10.290949	-75.941248	2.244135
60829	9.550705	-0.425869	2.348544	0.004690	0.000779	0.031751	1.000000	0.000013	0.000003	0.000009	-10.291325	-75.941444	2.243415
60830	9.575220	-0.435925	2.370873	-0.012049	-0.005800	0.061305	1.000000	0.000025	0.000017	0.000012	-10.290321	-75.939929	2.243714
60831	9.550589	-0.426230	2.348949	0.004466	0.000592	0.031751	1.000000	0.000022	0.000002	0.000026	-10.296967	-75.939889	2.250593
60832	9.557053	-0.419825	2.371534	-0.014992	0.010102	0.043142	1.000000	0.000033	-0.000012	-0.000012	-10.286816	-75.942188	2.242798
60833	9.550605	-0.426244	2.348879	0.004236	0.000406	0.031751	1.000000	0.000019	0.000010	0.000026	-10.293253	-75.941200	2.249022
60834	9.575125	-0.436475	2.371157	-0.012513	-0.006171	0.061305	1.000000	0.000019	0.000004	0.000014	-10.294956	-75.941167	2.252995
60835	9.550525	-0.426712	2.349122	0.004005	0.000219	0.031751	1.000000	0.000019	0.000004	0.000014	-10.296595	-75.941119	2.254327
60836	9.550484	-0.426846	2.349264	0.003886	0.000131	0.031751	1.000000	0.000028	0.000009	0.000012	-10.295919	-75.940600	2.251550
60837	9.559990	-0.453795	2.380568	-0.027513	-0.022097	0.049624	1.000000	0.000026	-0.000001	0.000007	-10.294024	-75.941248	2.250046
60838	9.568568	-0.443314	2.348867	0.006356	-0.016140	0.049914	1.000000	0.000013	0.000003	0.000009	-10.294568	-75.941487	2.249276
60839	9.523698	-0.421259	2.381783	-0.033161	0.009901	0.013298	1.000000	0.000028	0.000009	0.000012	-10.293727	-75.940942	2.249168
60840	9.581372	-0.430784	2.394482	-0.032542	0.002892	0.072693	1.000000	0.000032	0.000007	0.000023	-10.297968	-75.940341	2.251950
60841	9.550289	-0.427464	2.349945	0.003319	-0.000332	0.031751	1.000000	0.000025	0.000017	0.000012	-10.296916	-75.938848	2.251184
60842	9.556663	-0.421148	2.372872	-0.016133	0.009190	0.043141	1.000000	0.000028	0.000009	0.000012	-10.296206	-75.938302	2.250842
60843	9.568321	-0.444013	2.349741	0.005791	-0.016605	0.049913	1.000000	0.000016	-0.000006	0.000009	-10.296791	-75.939446	2.250778
60844	9.568350	-0.444059	2.349617	0.005677	-0.016695	0.049913	1.000000	0.000030	-0.000009	0.000007	-10.295228	-75.941031	2.249269
60845	9.565249	-0.410877	2.341120	0.017522	0.014944	0.043434	1.000000	0.000022	0.000014	0.000019	-10.297918	-75.939790	2.251995
60846	9.535138	-0.444957	2.359377	-0.011901	-0.016436	0.020069	1.000000	0.000016	-0.000006	0.000009	-10.298524	-75.940901	2.254932
60847	9.547066	-0.394908	2.341837	0.014604	0.030847	0.025272	1.000000	0.000028	0.000015	0.000023	-10.302476	-75.939415	2.259709
60848	9.568210	-0.444757	2.350054	0.005219	-0.017066	0.049913	1.000000	0.000006	0.000001	0.000005	-10.301758	-75.939874	2.254926
60849	9.558706	-0.417774	2.318778	0.036406	0.004955	0.032046	1.000000	0.000046	-0.000009	-0.000002	-10.294060	-75.941669	2.249802
60850	9.556544	-0.421845	2.373226	-0.017039	0.008457	0.043140	1.000000	0.000015	0.000012	0.000014	-10.295570	-75.940672	2.251512
60851	9.550048	-0.428456	2.350742	0.002182	-0.001254	0.031751	1.000000	0.000019	0.000004	0.000014	-10.297206	-75.940622	2.252842
60852	9.538335	-0.405704	2.374072	-0.019959	0.024365	0.024978	1.000000	0.000025	0.000011	0.000000	-10.291436	-75.940073	2.248582
60853	9.568077	-0.444803	2.350586	0.004644	-0.017533	0.049912	1.000000	0.000022	0.000007	0.000007	-10.289329	-75.939772	2.246418
60854	9.538248	-0.405691	2.374427	-0.020187	0.024185	0.024978	1.000000	0.000022	0.000007	0.000007	-10.287368	-75.939486	2.242216
60855	9.549884	-0.428684	2.351368	0.001722	-0.001623	0.031751	1.000000	0.000022	0.000002	0.000026	-10.294010	-75.939444	2.249090
60856	9.564947	-0.411942	2.342164	0.016274	0.013920	0.043437	1.000000	0.000014	-0.000015	0.000004	-10.293624	-75.941771	2.246459
60857	9.589507	-0.421883	2.364310	-0.000487	0.007354	0.072986	1.000000	0.000038	0.000014	0.000010	-10.290298	-75.940729	2.244904
60858	9.549855	-0.428958	2.351434	0.001382	-0.001902	0.031751	1.000000	0.000013	0.000003	0.000009	-10.290688	-75.940923	2.246295
60859	9.561474	-0.451937	2.328444	0.023285	-0.027716	0.038525	1.000000	0.000022	0.000014	0.000019	-10.293374	-75.939680	2.249016
60860	9.549764	-0.429382	2.351728	0.001150	-0.002087	0.031751	1.000000	0.000029	-0.000003	0.000019	-10.296579	-75.940352	2.253134
60861	9.543317	-0.435930	2.329061	0.020368	-0.011808	0.020364	1.000000	0.000026	-0.000001	0.000007	-10.294682	-75.940999	2.251627
60862	9.549756	-0.429634	2.351712	0.000925	-0.002272	0.031751	1.000000	0.000010	-0.000001	0.000016	-10.298894	-75.941430	2.251321
60863	9.561354	-0.452423	2.328842	0.022821	-0.028091	0.038525	1.000000	0.000015	0.000030	-0.000011	-10.287611	-75.938973	2.238799
60864	9.531512	-0.413305	2.352743	-0.001986	0.013641	0.013592	1.000000	0.000026	-0.000007	0.000025	-10.294612	-75.939902	2.244901
60865	9.549634	-0.429825	2.352174	0.000578	-0.002550	0.031751	1.000000	0.000020	-0.000002	0.000002	-10.291453	-75.940794	2.241343
60866	9.582769	-0.429399	2.342654	0.017811	-0.003113	0.061600	1.000000	0.000012	0.000009	0.000021	-10.296668	-75.940051	2.247859
60867	9.549552	-0.430087	2.352457	0.000349	-0.002736	0.031751	1.000000	0.000025	0.000011	0.000000	-10.290814	-75.939498	2.242199
60868	9.555955	-0.423679	2.375269	-0.019096	0.006808	0.043137	1.000000	0.000019	0.000004	0.000014	-10.292574	-75.939459	2.241365
60869	9.567616	-0.446723	2.352097	0.002792	-0.019018	0.049910	1.000000	0.000020	-0.000008	0.000021	-10.298165	-75.940609	2.246845
60870	9.555914	-0.424023	2.375375	-0.019326	0.006626	0.043137	1.000000	0.000022	0.000019	0.000000	-10.292222	-75.939119	2.239309
60871	9.552467	-0.463905	2.361544	-0.012116	-0.034824	0.038220	1.000000	0.000022	0.000002	0.000026	-10.298861	-75.939076	2.246180
60872	9.549428	-0.430808	2.352831	-0.000230	-0.003192	0.031751	1.000000	0.000014	-0.000015	0.000004	-10.298542	-75.941429	2.244903
60873	9.543022	-0.437237	2.330026	0.018983	-0.012924	0.020366	1.000000	0.000020	-0.000002	0.000002	-10.295383	-75.942321	2.241344
60874	9.558967	-0.457660	2.383932	-0.031794	-0.025454	0.049603	1.000000	0.000032	0.000000	0.000012	-10.294888	-75.942720	2.240310
60875	9.558056	-0.420517	2.320960	0.033432	0.002508	0.032058	1.000000	0.000016	0.000000	0.000021	-10.300266	-75.942921	2.245130
60876	9.567526	-0.447548	2.352306	0.001923	-0.020982	0.049907	1.000000	0.000022	0.000007	0.000007	-10.266562	-75.943273	2.225262
60877	9.588978	-0.424234	2.366031	-0.002845	0.004171	0.072987	1.000000	0.000028	0.000009	0.000012	-10.265581	-75.942729	2.225050
60878	9.555795	-0.424816	2.375710	-0.020303	0.004567	0.043136	1.000000	0.000020	-0.000002	0.000002	-10.262529	-75.943628	2.221344
60879	9.588905	-0.424243	2.366326	-0.003075	0.003981	0.072987	1.000000	0.000034	0.000022	0.000010	-10.258855	-75.941639	2.219032
60880	9.531120	-0.414981	2.354035	-0.003871	0.010845	0.013595	1.000000	0.000019	0.000004	0.000014	-10.260626	-75.941596	2.218278
60881	9.534131	-0.448512	2.362772	-0.015999	-0.020972	0.020054	1.000000	0.000032	0.000007	0.000023	-10.264651	-75.941058	2.223610
60882	9.555624	-0.425176	2.376335	-0.020764	0.004194	0.043135	1.000000	0.000026	-0.000007	-0.000005	-10.258105	-75.942667	2.216894
60883	9.588790	-0.424706	2.366710	-0.003537	0.003603	0.072987	1.000000	0.000022	0.000002	0.000026	-10.264611	-75.942626	2.223668
60884	9.531022	-0.415558	2.354332	-0.004326	0.010467	0.013595	1.000000	0.000018	0.000016	0.000007	-10.262370	-75.941366	2.221475
60885	9.564154	-0.415081	2.344849	0.012901	0.009874	0.043447	1.000000	0.000016	-0.000006	0.000009	-10.262819	-75.942511	2.221312
60886	9.549116	-0.432102	2.353861	-0.001895	-0.005828	0.031750	1.000000	0.000016	-0.000006	0.000009	-10.263484	-75.943655	2.221054
60887	9.537420	-0.409482	2.377100	-0.023991	0.019822	0.024980	1.000000	0.000028	0.000015	0.000023	-10.267294	-75.942169	2.225726
60888	9.552468	-0.392733	2.368005	-0.009424	0.035339	0.036678	1.000000	0.000040	-0.000016	0.000011	-10.267133	-75.944474	2.230413
60889	9.582248	-0.431835	2.344336	0.015100	-0.006618	0.061603	1.000000	0.000013	0.000008	-0.000009	-10.258617	-75.944412	2.220550
60890	9.555485	-0.425978	2.376750	-0.021678	0.003433	0.043134	1.000000	0.000012	0.000009	0.000021	-10.263816	-75.943671	2.225751
60891	9.530892	-0.416322	2.354724	-0.005124	0.009794	0.013595	1.000000	0.000019	0.000004	0.000014	-10.265314	-75.943623	2.226979
60892	9.548973	-0.432717	2.354325	-0.002584	-0.006406	0.031749	1.000000	0.000029	0.000003	0.000000	-10.259708	-75.944021	2.222656
60893	9.585522	-0.392414	2.358812	0.007348	0.034353	0.066533	1.000000	0.000013	0.000003	0.000009	-10.259944	-75.944218	2.221833
60894	9.567003	-0.449197	2.354119	-0.000158	-0.022707	0.049903	1.000000	0.000025	0.000017	0.000012	-10.258876	-75.942703	2.220092
60895	9.582033	-0.432356	2.345118	0.014413	-0.007204	0.061603	1.000000	0.000010	-0.000007	0.000005	-10.258063	-75.944093	2.217877
60896	9.537212	-0.410168	2.377816	-0.025008	0.018967	0.024979	1.000000	0.000019	0.000004	0.000014	-10.259730	-75.944037	2.218284
60897	9.579858	-0.436466	2.399509	-0.039146	-0.003697	0.072669	1.000000	0.000033	-0.000006	-0.000000	-10.254164	-75.945381	2.213841
60898	9.578971	-0.399313	2.336531	0.026111	0.024216	0.055152	1.000000	0.000019	0.000010	0.000026	-10.260603	-75.944381	2.220270
60899	9.555215	-0.427005	2.377652	-0.022700	0.002568	0.043132	1.000000	0.000022	0.000014	0.000019	-10.263149	-75.943140	2.222888
60900	9.546539	-0.437667	2.409598	-0.056823	-0.003473	0.042812	1.000000	0.000019	0.000004	0.000014	-10.264759	-75.943088	2.226229
60901	9.548673	-0.433717	2.355357	-0.003608	-0.007281	0.031748	1.000000	0.000025	0.000011	0.000000	-10.258767	-75.942536	2.220467
60902	9.548637	-0.433718	2.355503	-0.003715	-0.007376	0.031748	1.000000	0.000013	0.000003	0.000009	-10.259103	-75.942690	2.219055
60903	9.563706	-0.416893	2.346356	0.010861	0.008121	0.043451	1.000000	0.000036	-0.000008	0.000012	-10.258544	-75.944041	2.220157
60904	9.548639	-0.433917	2.355459	-0.003938	-0.007571	0.031748	1.000000	0.000019	0.000004	0.000014	-10.260136	-75.943957	2.221813
60905	9.570098	-0.410828	2.369134	-0.008680	0.017582	0.054834	1.000000	0.000019	0.000010	0.000026	-10.266424	-75.942966	2.227923
60906	9.566655	-0.450764	2.355235	-0.001521	-0.023878	0.049900	1.000000	0.000020	-0.000002	0.000002	-10.263231	-75.943822	2.223405
60907	9.573077	-0.444416	2.377942	-0.020955	-0.014318	0.061282	1.000000	0.000032	0.000007	0.000023	-10.267250	-75.943283	2.228731
60908	9.545485	-0.401344	2.347179	0.007668	0.023745	0.025300	1.000000	0.000020	-0.000002	0.000002	-10.264097	-75.944161	2.226034
60909	9.566599	-0.451077	2.355400	-0.001865	-0.024172	0.049899	1.000000	0.000019	0.000004	0.000014	-10.265593	-75.944112	2.227259
60910	9.578629	-0.401054	2.337635	0.024775	0.023030	0.055158	1.000000	0.000023	-0.000004	0.000014	-10.267463	-75.944996	2.228409
60911	9.533382	-0.452003	2.365128	-0.019425	-0.023843	0.020041	1.000000	0.000028	0.000015	0.000023	-10.271266	-75.943508	2.233073
60912	9.530295	-0.418962	2.356671	-0.007470	0.007765	0.013595	1.000000	0.000019	0.000004	0.000014	-10.272857	-75.943411	2.233725
60913	9.581543	-0.434891	2.346652	0.012380	-0.008972	0.061605	1.000000	0.000020	-0.000002	0.000002	-10.269561	-75.944304	2.230067
60914	9.563418	-0.418686	2.347208	0.009635	0.007046	0.043453	1.000000	0.000019	0.000010	0.000026	-10.275971	-75.943295	2.237395
60915	9.572824	-0.445739	2.378714	-0.021861	-0.015090	0.061279	1.000000	0.000028	0.000009	0.000012	-10.274981	-75.942749	2.237174
60916	9.563287	-0.419135	2.347662	0.009417	0.006849	0.043454	1.000000	0.000028	0.000015	0.000023	-10.278873	-75.941206	2.241026
60917	9.548148	-0.436207	2.357025	-0.005397	-0.008837	0.031746	1.000000	0.000022	0.000007	0.000007	-10.276622	-75.940905	2.238755
60918	9.569604	-0.412869	2.370777	-0.010120	0.016322	0.054835	1.000000	0.000018	0.000016	0.000007	-10.274284	-75.939627	2.234917
60919	9.554474	-0.429776	2.380130	-0.024935	0.000639	0.043127	1.000000	0.000016	0.000006	0.000002	-10.270774	-75.939572	2.230598
60920	9.554503	-0.429923	2.379987	-0.025039	0.000543	0.043126	1.000000	0.000033	-0.000023	0.000025	-10.277988	-75.942309	2.238443
60921	9.563143	-0.419874	2.348116	0.008862	0.006355	0.043454	1.000000	0.000019	0.000010	0.000026	-10.284270	-75.941316	2.244546
60922	9.566102	-0.453271	2.356997	-0.003328	-0.025438	0.049896	1.000000	0.000019	0.000010	-0.000004	-10.277138	-75.940992	2.237267
60923	9.563046	-0.420019	2.348484	0.008637	0.006159	0.043455	1.000000	0.000025	0.000005	0.000019	-10.279891	-75.940697	2.240538
60924	9.563001	-0.420183	2.348642	0.008523	0.006065	0.043455	1.000000	0.000028	0.000009	0.000012	-10.279055	-75.940151	2.241285
60925	9.547863	-0.437116	2.358013	-0.006296	-0.009614	0.031745	1.000000	0.000012	0.000015	0.000003	-10.275327	-75.939148	2.236302
60926	9.569371	-0.413801	2.371552	-0.011017	0.015546	0.054835	1.000000	0.000026	-0.000013	0.000014	-10.277417	-75.940994	2.238911
60927	9.562888	-0.420423	2.349057	0.008180	0.005770	0.043455	1.000000	0.000021	0.000026	0.000012	-10.275992	-75.938552	2.237361
60928	9.580876	-0.437080	2.348968	0.010690	-0.010443	0.061605	1.000000	0.000019	0.000010	0.000026	-10.282378	-75.937523	2.242380
60929	9.562747	-0.420926	2.349540	0.007958	0.005574	0.043456	1.000000	0.000032	0.000000	0.000012	-10.281603	-75.937925	2.242819
60930	9.562726	-0.421153	2.349585	0.007845	0.005479	0.043456	1.000000	0.000022	0.000002	0.000026	-10.288210	-75.937875	2.251697
60931	9.562690	-0.421360	2.349693	0.007731	0.005378	0.043456	1.000000	0.000022	0.000007	0.000007	-10.285958	-75.937574	2.249424
60932	9.562644	-0.421421	2.349870	0.007618	0.005283	0.043456	1.000000	0.000028	0.000009	0.000012	-10.285089	-75.937017	2.248493
60933	9.556176	-0.427966	2.327333	0.026814	-0.004498	0.032077	1.000000	0.000026	-0.000001	0.000007	-10.283055	-75.937664	2.246884
60934	9.547520	-0.438451	2.359154	-0.007317	-0.010485	0.031743	1.000000	0.000019	0.000004	0.000014	-10.284642	-75.937595	2.248280
60935	9.556922	-0.465367	2.390629	-0.038839	-0.032593	0.049557	1.000000	0.000028	0.000009	0.000012	-10.283649	-75.937048	2.248054
60936	9.595697	-0.421293	2.340694	0.024484	0.004342	0.073319	1.000000	0.000032	0.000000	0.000012	-10.283020	-75.937463	2.250820
60937	9.544414	-0.405563	2.350806	0.004438	0.020912	0.025308	1.000000	0.000006	0.000008	0.000016	-10.286779	-75.936960	2.252822
60938	9.556002	-0.428571	2.327938	0.026243	-0.004988	0.032079	1.000000	0.000032	0.000012	0.000005	-10.282159	-75.936155	2.249279
60939	9.553743	-0.432470	2.382574	-0.027199	-0.001288	0.043120	1.000000	0.000028	0.000009	0.000012	-10.281165	-75.935608	2.249053
60940	9.580423	-0.438547	2.350540	0.009315	-0.011621	0.061605	1.000000	0.000022	0.000007	0.000007	-10.279038	-75.935299	2.246213
60941	9.555864	-0.428756	2.328470	0.025901	-0.005287	0.032079	1.000000	0.000019	0.000004	0.000014	-10.280529	-75.935248	2.247433
60942	9.562293	-0.422422	2.351118	0.006479	0.004305	0.043457	1.000000	0.000023	-0.000004	0.000014	-10.282371	-75.936152	2.249203
60943	9.553637	-0.432862	2.382927	-0.027657	-0.001671	0.043119	1.000000	0.000016	0.000006	0.000002	-10.278860	-75.936096	2.244882
60944	9.537719	-0.412727	2.329094	0.022955	0.010543	0.013933	1.000000	0.000032	0.000007	0.000023	-10.282996	-75.935545	2.249863
60945	9.529031	-0.423130	2.361032	-0.011181	0.004570	0.013594	1.000000	0.000013	0.000008	-0.000009	-10.274482	-75.935486	2.240002
60946	9.580220	-0.439092	2.351265	0.008623	-0.012209	0.061605	1.000000	0.000028	0.000015	0.000023	-10.278400	-75.934005	2.244840
60947	9.544012	-0.406456	2.352284	0.003307	0.019938	0.025311	1.000000	0.000026	-0.000001	0.000007	-10.276365	-75.934651	2.243230
60948	9.565038	-0.456190	2.360749	-0.006321	-0.027968	0.049887	1.000000	0.000025	0.000017	0.000012	-10.275204	-75.933134	2.244135
60949	9.553320	-0.433409	2.384097	-0.028340	-0.002251	0.043117	1.000000	0.000035	0.000010	0.000016	-10.275466	-75.932341	2.245953
60950	9.546814	-0.440091	2.361702	-0.009146	-0.012039	0.031740	1.000000	0.000015	0.000012	0.000014	-10.276827	-75.931314	2.245731
60951	9.561893	-0.423283	2.352589	0.005459	0.003419	0.043458	1.000000	0.000023	-0.000011	0.000002	-10.273754	-75.933154	2.242740
60952	9.561872	-0.423305	2.352672	0.005349	0.003323	0.043458	1.000000	0.000025	0.000017	0.000012	-10.272635	-75.931637	2.241864
60953	9.543752	-0.406934	2.353258	0.002640	0.019348	0.025312	1.000000	0.000020	-0.000002	0.000002	-10.269342	-75.932529	2.238208
60954	9.553147	-0.433869	2.384707	-0.028901	-0.002733	0.043115	1.000000	0.000019	0.000010	0.000026	-10.275693	-75.931518	2.245784
60955	9.561730	-0.423812	2.353158	0.005009	0.003026	0.043459	1.000000	0.000015	0.000012	0.000014	-10.276963	-75.930518	2.246335
60956	9.579752	-0.440329	2.352944	0.007486	-0.013196	0.061605	1.000000	0.000022	0.000007	0.000007	-10.274823	-75.930222	2.245043
60957	9.543556	-0.407656	2.353927	0.002188	0.018957	0.025313	1.000000	0.000025	0.000005	0.000019	-10.277569	-75.929924	2.248305
60958	9.555139	-0.430792	2.331064	0.023970	-0.006965	0.032083	1.000000	0.000015	0.000012	0.000014	-10.278935	-75.928905	2.248213
60959	9.576611	-0.407554	2.344765	0.019278	0.018186	0.055180	1.000000	0.000028	0.000009	0.000012	-10.277937	-75.928357	2.247983
60960	9.501591	-0.419045	2.395729	-0.049484	0.013392	-0.004899	1.000000	0.000026	-0.000006	0.000025	-10.284724	-75.929240	2.254505
60961	9.616180	-0.401131	2.357895	0.017066	0.027112	0.096423	1.000000	0.000006	0.000008	0.000016	-10.288478	-75.928736	2.256502
60962	9.561449	-0.425118	2.354063	0.004214	0.002341	0.043459	1.000000	0.000026	-0.000001	0.000007	-10.286553	-75.929383	2.252166
60963	9.552743	-0.435520	2.386024	-0.029927	-0.003602	0.043112	1.000000	0.000025	0.000017	0.000012	-10.285334	-75.927887	2.251268
60964	9.546264	-0.442070	2.363557	-0.010736	-0.013404	0.031737	1.000000	0.000020	-0.000002	0.000002	-10.282083	-75.928743	2.246778
60965	9.554922	-0.431742	2.331779	0.023176	-0.007664	0.032085	1.000000	0.000032	0.000000	0.000012	-10.281305	-75.929142	2.247213
60966	9.594535	-0.424853	2.344810	0.021074	0.001361	0.073328	1.000000	0.000016	-0.000006	0.000009	-10.281811	-75.930286	2.249993
60967	9.528176	-0.425850	2.363994	-0.013662	0.002429	0.013591	1.000000	0.000028	0.000009	0.000012	-10.280812	-75.929738	2.249761
60968	9.561286	-0.425646	2.354630	0.003536	0.001747	0.043460	1.000000	0.000019	0.000010	0.000026	-10.287142	-75.928731	2.255035
60969	9.561225	-0.425994	2.354813	0.003422	0.001647	0.043460	1.000000	0.000032	0.000007	0.000023	-10.291141	-75.928186	2.260337
60970	9.572837	-0.449056	2.331843	0.025185	-0.024291	0.050230	1.000000	0.000020	-0.000002	0.000002	-10.287922	-75.929061	2.256131
60971	9.561193	-0.426080	2.354930	0.003196	0.001450	0.043460	1.000000	0.000016	0.000006	0.000002	-10.284410	-75.929006	2.251809
60972	9.569826	-0.415827	2.323256	0.037110	0.007182	0.043811	1.000000	0.000019	0.000004	0.000014	-10.286028	-75.928959	2.250584
60973	9.546054	-0.443250	2.364183	-0.011768	-0.014284	0.031734	1.000000	0.000020	-0.000008	0.000021	-10.291480	-75.930104	2.255958
60974	9.579235	-0.442966	2.354553	0.005424	-0.014974	0.061604	1.000000	0.000026	-0.000001	0.000007	-10.289527	-75.930762	2.256626
60975	9.543069	-0.410191	2.355462	0.000163	0.017190	0.025317	1.000000	0.000028	0.000009	0.000012	-10.288526	-75.930213	2.256391
60976	9.552412	-0.437170	2.387049	-0.031404	-0.004861	0.043107	1.000000	0.000019	0.000010	0.000026	-10.294850	-75.929185	2.261216
60977	9.554589	-0.433672	2.332788	0.021807	-0.008856	0.032087	1.000000	0.000019	0.000004	0.000014	-10.296336	-75.929133	2.262429
60978	9.536494	-0.417206	2.333307	0.019120	0.007181	0.013944	1.000000	0.000032	0.000006	-0.000007	-10.286924	-75.929294	2.254346
60979	9.560963	-0.426991	2.355699	0.002281	0.000665	0.043460	1.000000	0.000028	0.000009	0.000012	-10.285922	-75.928745	2.254110
60980	9.567374	-0.420506	2.378424	-0.017131	0.010286	0.054833	1.000000	0.000026	-0.000001	0.000007	-10.283970	-75.929408	2.255447
60981	9.557948	-0.393829	2.347130	0.014220	0.032135	0.037046	1.000000	0.000028	0.000009	0.000012	-10.282968	-75.928860	2.255210
60982	9.560858	-0.427182	2.356091	0.001937	0.000369	0.043460	1.000000	0.000028	0.000009	0.000012	-10.281990	-75.928297	2.255832
60983	9.567284	-0.420708	2.378749	-0.017470	0.009989	0.054833	1.000000	0.000010	-0.000007	0.000005	-10.281187	-75.929686	2.253625
60984	9.560816	-0.427321	2.356237	0.001717	0.000169	0.043460	1.000000	0.000025	0.000017	0.000012	-10.279971	-75.928142	2.249558
60985	9.560755	-0.427464	2.356459	0.001602	0.000069	0.043460	1.000000	0.000019	0.000004	0.000014	-10.281455	-75.928089	2.250770
60986	9.542642	-0.411107	2.357030	-0.001074	0.016107	0.025318	1.000000	0.000032	0.000012	0.000005	-10.276762	-75.927291	2.247249
60987	9.557709	-0.394293	2.348022	0.013555	0.031535	0.037049	1.000000	0.000013	0.000003	0.000009	-10.276991	-75.927484	2.246417
60988	9.545532	-0.444442	2.366065	-0.013485	-0.015754	0.031730	1.000000	0.000016	0.000006	0.000002	-10.273524	-75.927441	2.242596
60989	9.542515	-0.411221	2.357527	-0.001416	0.015810	0.025319	1.000000	0.000025	0.000017	0.000012	-10.272298	-75.925944	2.241690
60990	9.542434	-0.411475	2.357807	-0.001534	0.015714	0.025319	1.000000	0.000019	0.000010	0.000026	-10.278662	-75.924970	2.246425
60991	9.596596	-0.461012	2.356716	0.006023	-0.032797	0.079743	1.000000	0.000023	-0.000004	0.000014	-10.280369	-75.925865	2.248305
60992	9.538891	-0.451634	2.344153	0.005341	-0.025874	0.020357	1.000000	0.000012	0.000015	0.000002	-10.276639	-75.924855	2.244581
60993	9.535877	-0.418517	2.335591	0.017416	0.005687	0.013948	1.000000	0.000032	0.000007	0.000023	-10.280633	-75.924308	2.249877
60994	9.560334	-0.428627	2.357952	0.000567	-0.000821	0.043460	1.000000	0.000019	0.000004	0.000014	-10.282136	-75.924260	2.252729
60995	9.521946	-0.399649	2.413203	-0.057980	0.035292	0.018188	1.000000	0.000032	0.000000	0.000012	-10.281355	-75.924658	2.253159
60996	9.525422	-0.360009	2.427049	-0.065183	0.076587	0.023151	1.000000	0.000035	-0.000002	0.000023	-10.285584	-75.925034	2.259053
60997	9.543505	-0.376736	2.426533	-0.062742	0.060351	0.041292	1.000000	0.000030	-0.000015	0.000025	-10.292514	-75.926878	2.267137
60998	9.566804	-0.423027	2.380266	-0.019176	0.008511	0.054831	1.000000	0.000030	-0.000015	0.000025	-10.299442	-75.928726	2.275303
60999	9.558217	-0.433631	2.411648	-0.053326	0.002626	0.054467	1.000000	0.000037	-0.000032	0.000025	-10.306826	-75.932465	2.284732
61000	9.524446	-0.397369	2.357499	-0.005210	0.030858	0.007180	1.000000	0.000033	-0.000023	0.000025	-10.313974	-75.935233	2.293091
61001	9.608950	-0.413247	2.337539	0.031820	0.013373	0.085070	1.000000	-0.000005	-0.000025	0.000009	-10.318382	-75.938560	2.294463
61002	9.671850	-0.452661	2.304291	0.073389	-0.029370	0.139855	1.000000	0.000010	-0.000006	0.000035	-10.331041	-75.939224	2.307352
61003	9.549485	-0.513735	2.251302	0.086324	-0.098200	0.011154	1.000000	-0.000007	0.000005	0.000007	-10.332277	-75.939213	2.305254
61004	9.520479	-0.511351	2.338076	-0.003698	-0.083984	0.003653	1.000000	0.000006	0.000013	-0.000002	-10.327249	-75.938424	2.296736
61005	9.632112	-0.459920	2.291694	0.075033	-0.038796	0.098611	1.000000	0.000009	0.000017	-0.000009	-10.318500	-75.937420	2.286196
61006	9.577864	-0.410482	2.293196	0.067285	0.009528	0.044194	1.000000	0.000022	0.000019	0.000000	-10.312330	-75.935934	2.281311
61007	9.507906	-0.450916	2.298992	0.039656	-0.030710	-0.020524	1.000000	0.000040	0.000029	-0.000004	-10.301112	-75.933444	2.271955
61008	9.529373	-0.427339	2.312836	0.035003	-0.005557	0.002582	1.000000	0.000025	0.000011	0.000000	-10.295180	-75.932930	2.266732
61009	9.579819	-0.406514	2.240025	0.120261	0.005252	0.033195	1.000000	0.000024	0.000024	0.000023	-10.298718	-75.930486	2.270681
61010	9.593279	-0.430478	2.348919	0.016037	-0.003049	0.073337	1.000000	0.000022	0.000019	0.000000	-10.292536	-75.928996	2.265455
61011	9.600642	-0.456292	2.249168	0.110354	-0.042750	0.057737	1.000000	0.000022	0.000008	0.000007	-10.290274	-75.928693	2.263169
61012	9.594389	-0.394355	2.417728	-0.044586	0.042122	0.089305	1.000000	0.000034	0.000022	0.000010	-10.286614	-75.926720	2.260406
61013	9.613325	-0.443255	2.295183	0.071550	-0.023472	0.080477	1.000000	0.000041	0.000023	0.000014	-10.284144	-75.924479	2.260083
61014	9.544594	-0.447843	2.369206	-0.016482	-0.018319	0.031721	1.000000	0.000021	0.000026	0.000012	-10.282765	-75.922074	2.260382
61015	9.535126	-0.421323	2.338151	0.014908	0.003489	0.013953	1.000000	0.000041	0.000012	0.000021	-10.284263	-75.921030	2.264220
61016	9.540885	-0.488097	2.356158	-0.009662	-0.059909	0.026750	1.000000	0.000024	0.000024	0.000023	-10.287893	-75.918632	2.266649
61017	9.526203	-0.431972	2.370823	-0.019369	-0.002467	0.013582	1.000000	0.000018	0.000028	0.000000	-10.281438	-75.916185	2.259532
61018	9.510291	-0.411830	2.317260	0.031300	0.009592	-0.015552	1.000000	0.000034	0.000022	0.000010	-10.277825	-75.914244	2.255089
61019	9.548232	-0.445450	2.448276	-0.089681	-0.005061	0.054082	1.000000	0.000035	0.000004	0.000005	-10.273301	-75.914393	2.252027
61020	9.604547	-0.380893	2.334613	0.041846	0.043108	0.078683	1.000000	0.000032	0.000006	-0.000007	-10.263866	-75.914571	2.244526
61021	9.560385	-0.395112	2.430484	-0.062922	0.041898	0.059425	1.000000	0.000013	0.000003	0.000009	-10.264093	-75.914763	2.243691
61022	9.580673	-0.407948	2.375819	-0.007183	0.021656	0.066569	1.000000	0.000022	0.000008	0.000007	-10.261896	-75.914463	2.239149
61023	9.547457	-0.408332	2.385509	-0.024586	0.022204	0.036690	1.000000	0.000016	0.000006	0.000002	-10.258383	-75.914407	2.234825
61024	9.556134	-0.398105	2.353785	0.009334	0.027853	0.037065	1.000000	0.000006	0.000001	0.000005	-10.257429	-75.914907	2.232180
61025	9.541526	-0.341985	2.368138	-0.000343	0.085298	0.023902	1.000000	0.000012	0.000021	0.000014	-10.258458	-75.912956	2.232044
61026	9.517645	-0.369150	2.409336	-0.049268	0.063958	0.011783	1.000000	0.000026	-0.000001	0.000007	-10.256407	-75.913627	2.232243
61027	9.532744	-0.352510	2.400237	-0.034614	0.079357	0.023527	1.000000	0.000012	0.000009	0.000021	-10.261401	-75.912873	2.236266
61028	9.553694	-0.402641	2.408742	-0.044452	0.031465	0.048056	1.000000	0.000003	-0.000008	0.000030	-10.272806	-75.913841	2.246393
61029	9.553696	-0.403154	2.408648	-0.044565	0.031367	0.048056	1.000000	0.000013	-0.000003	0.000028	-10.281766	-75.914282	2.254576
61030	9.583304	-0.443152	2.385475	-0.020359	-0.010789	0.072961	1.000000	0.000018	0.000017	0.000037	-10.292690	-75.912330	2.266297
61031	9.565194	-0.427159	2.385990	-0.022993	0.005261	0.054825	1.000000	0.000010	-0.000001	0.000016	-10.296658	-75.912770	2.268951
61032	9.558803	-0.434032	2.363165	-0.003833	-0.004600	0.043459	1.000000	0.000033	-0.000023	0.000025	-10.303737	-75.915575	2.278245
61033	9.543678	-0.451203	2.372258	-0.018715	-0.020192	0.031713	1.000000	0.000019	0.000010	0.000026	-10.309978	-75.914572	2.284303
61034	9.543650	-0.451457	2.372321	-0.018827	-0.020293	0.031713	1.000000	0.000042	-0.000007	0.000016	-10.310608	-75.915650	2.286512
61035	9.540160	-0.491409	2.358403	-0.011920	-0.061793	0.026736	1.000000	0.000026	-0.000013	0.000014	-10.312544	-75.917490	2.289064
61036	9.543710	-0.451728	2.372027	-0.019057	-0.020494	0.031712	1.000000	0.000023	-0.000004	0.000014	-10.314193	-75.918382	2.291997
61037	9.555339	-0.474857	2.348978	0.002617	-0.046505	0.038481	1.000000	0.000036	-0.000008	0.000012	-10.313639	-75.919727	2.293097
61038	9.561784	-0.468304	2.371535	-0.016779	-0.036841	0.049846	1.000000	0.000026	-0.000001	0.000007	-10.311625	-75.920384	2.289869
61039	9.558889	-0.435090	2.362624	-0.004634	-0.005302	0.043458	1.000000	0.000036	-0.000008	0.000012	-10.311070	-75.921728	2.290968
61040	9.552512	-0.441660	2.339783	0.014532	-0.015167	0.032093	1.000000	0.000027	-0.000019	0.000002	-10.308226	-75.924484	2.289610
61041	9.579333	-0.447860	2.307314	0.050974	-0.025700	0.050610	1.000000	0.000014	-0.000015	0.000005	-10.307659	-75.926820	2.288083
61042	9.552623	-0.441845	2.339293	0.014303	-0.015368	0.032093	1.000000	0.000006	-0.000004	0.000023	-10.315405	-75.927493	2.291040
61043	9.561352	-0.431778	2.307334	0.048237	-0.009754	0.032476	1.000000	0.000017	-0.000012	-0.000002	-10.311094	-75.929581	2.286020
61044	9.552651	-0.441994	2.339152	0.014075	-0.015568	0.032093	1.000000	0.000009	0.000011	0.000009	-10.311108	-75.928814	2.282659
61045	9.557800	-0.471634	2.293671	0.055009	-0.051363	0.027497	1.000000	0.000013	-0.000004	-0.000002	-10.306565	-75.929954	2.276962
61046	9.552664	-0.441924	2.339113	0.013847	-0.015769	0.032093	1.000000	0.000023	-0.000011	0.000002	-10.303525	-75.931777	2.272732
61047	9.554905	-0.438228	2.284792	0.067053	-0.019935	0.021114	1.000000	0.000022	0.000019	0.000000	-10.297280	-75.930278	2.266270
61048	9.574183	-0.418327	2.352771	0.009119	0.009284	0.055207	1.000000	0.000033	-0.000006	-0.000000	-10.291774	-75.931653	2.263994
61049	9.579340	-0.448031	2.307251	0.050048	-0.026518	0.050613	1.000000	0.000032	0.000007	0.000023	-10.295755	-75.931101	2.269275
61050	9.582800	-0.408097	2.321302	0.042936	0.014787	0.055594	1.000000	0.000041	0.000023	-0.000016	-10.279831	-75.929589	2.253613
61051	9.571137	-0.384769	2.344531	0.021054	0.040616	0.048826	1.000000	0.000035	0.000004	0.000005	-10.275298	-75.929738	2.250540
61052	9.582707	-0.407821	2.321736	0.042706	0.014584	0.055596	1.000000	0.000028	0.000009	0.000012	-10.274317	-75.929198	2.249984
61053	9.537840	-0.385180	2.354544	0.003549	0.041097	0.018942	1.000000	0.000034	0.000022	0.000009	-10.270578	-75.927203	2.247603
61054	9.537745	-0.385316	2.354907	0.003431	0.040998	0.018943	1.000000	0.000022	0.000014	0.000019	-10.273118	-75.925986	2.249720
61055	9.555730	-0.401875	2.354782	0.005813	0.024742	0.037076	1.000000	0.000016	0.000006	0.000002	-10.269597	-75.925929	2.245388
61056	9.537601	-0.385633	2.355441	0.003198	0.040800	0.018944	1.000000	0.000011	0.000027	0.000026	-10.275426	-75.923080	2.250497
61057	9.570702	-0.385544	2.346180	0.020362	0.040014	0.048830	1.000000	0.000032	0.000000	0.000012	-10.274638	-75.923476	2.250917
61058	9.546770	-0.412774	2.387494	-0.028596	0.018755	0.036686	1.000000	0.000011	0.000027	0.000026	-10.280448	-75.920618	2.257303
61059	9.555371	-0.403008	2.356045	0.005344	0.024344	0.037077	1.000000	0.000019	0.000010	0.000026	-10.286686	-75.919613	2.263356
61060	9.579759	-0.413107	2.378608	-0.011550	0.017869	0.066572	1.000000	0.000025	0.000017	0.000012	-10.285429	-75.918136	2.258795
61061	9.564533	-0.430045	2.388123	-0.026451	0.002302	0.054818	1.000000	0.000015	0.000012	0.000014	-10.286673	-75.917131	2.259318
61062	9.552856	-0.407285	2.411285	-0.048324	0.028145	0.048048	1.000000	0.000019	0.000010	0.000026	-10.292883	-75.916154	2.266566
61063	9.542853	-0.454013	2.375039	-0.022206	-0.023148	0.031699	1.000000	0.000023	-0.000004	0.000014	-10.294587	-75.917045	2.268440
61064	9.540555	-0.457747	2.429483	-0.075643	-0.019142	0.042668	1.000000	0.000019	0.000004	0.000014	-10.296028	-75.917002	2.270555
61065	9.533471	-0.427839	2.343710	0.009132	-0.001511	0.013961	1.000000	0.000019	0.000010	0.000026	-10.302262	-75.915996	2.276604
61066	9.531133	-0.431589	2.398309	-0.044313	0.002500	0.024929	1.000000	0.000016	0.000006	0.000002	-10.298753	-75.915997	2.274021
61067	9.549141	-0.448086	2.398087	-0.041944	-0.013758	0.043059	1.000000	0.000013	0.000003	0.000009	-10.298977	-75.916188	2.273181
61068	9.591035	-0.437725	2.356731	0.009268	-0.008882	0.073342	1.000000	0.000023	-0.000004	0.000014	-10.300629	-75.917081	2.275103
61069	9.542716	-0.455062	2.375387	-0.022909	-0.023745	0.031696	1.000000	0.000020	-0.000008	0.000021	-10.306076	-75.918218	2.280468
61070	9.566578	-0.428458	2.334309	0.025821	-0.002713	0.043850	1.000000	0.000022	0.000002	0.000025	-10.312540	-75.918167	2.286975
61071	9.560728	-0.472129	2.375032	-0.020663	-0.040104	0.049826	1.000000	0.000023	-0.000004	0.000014	-10.314246	-75.919058	2.288849
61072	9.572987	-0.422285	2.356926	0.006325	0.006876	0.055211	1.000000	0.000019	0.000004	0.000014	-10.315711	-75.919016	2.287347
61073	9.551382	-0.445799	2.343608	0.010680	-0.018475	0.032092	1.000000	0.000032	0.000000	0.000012	-10.314923	-75.919412	2.287766
61074	9.542624	-0.455966	2.375584	-0.023494	-0.024238	0.031694	1.000000	0.000032	0.000012	0.000005	-10.310152	-75.918625	2.283658
61075	9.575759	-0.455707	2.366228	-0.006340	-0.025044	0.061583	1.000000	0.000019	0.000004	0.000014	-10.311624	-75.918568	2.284854
61076	9.557713	-0.439445	2.366573	-0.008933	-0.008983	0.043452	1.000000	0.000029	-0.000003	0.000019	-10.314545	-75.919233	2.290681
61077	9.536119	-0.462980	2.353198	-0.004582	-0.034333	0.020332	1.000000	0.000032	0.000000	0.000012	-10.313756	-75.919628	2.291100
61078	9.551281	-0.446165	2.343952	0.010098	-0.018978	0.032091	1.000000	0.000033	-0.000006	-0.000000	-10.308212	-75.920981	2.287090
61079	9.582172	-0.449292	2.388871	-0.026069	-0.015647	0.072942	1.000000	0.000016	0.000006	0.000002	-10.304690	-75.920925	2.282756
61080	9.566461	-0.429247	2.334646	0.024664	-0.003725	0.043852	1.000000	0.000027	-0.000019	0.000002	-10.301906	-75.923712	2.279741
61081	9.554933	-0.405987	2.357311	0.002820	0.022137	0.037083	1.000000	0.000020	-0.000009	-0.000009	-10.293854	-75.925553	2.271232
61082	9.566522	-0.429002	2.334439	0.024435	-0.003926	0.043853	1.000000	0.000009	0.000011	0.000009	-10.293897	-75.924797	2.267483
61083	9.563636	-0.395735	2.325570	0.036654	0.027586	0.037486	1.000000	0.000026	-0.000007	-0.000005	-10.287093	-75.926390	2.261009
61084	9.545635	-0.379117	2.325789	0.034070	0.043652	0.019358	1.000000	0.000013	-0.000004	-0.000002	-10.282555	-75.927548	2.258423
61085	9.581716	-0.412004	2.325084	0.038888	0.011220	0.055616	1.000000	0.000010	-0.000007	0.000005	-10.281757	-75.928935	2.256220
61086	9.539249	-0.385781	2.302986	0.053098	0.033649	0.008000	1.000000	0.000016	-0.000006	0.000009	-10.282269	-75.930111	2.256338
61087	9.572436	-0.385663	2.293399	0.070250	0.032827	0.037893	1.000000	0.000035	-0.000002	0.000023	-10.286474	-75.930504	2.262286
61088	9.581683	-0.412511	2.325129	0.038534	0.010915	0.055618	1.000000	0.000012	0.000021	0.000014	-10.287419	-75.928583	2.263555
61089	9.563586	-0.396253	2.325686	0.035958	0.026979	0.037490	1.000000	0.000045	0.000003	0.000021	-10.289128	-75.928480	2.268045
61090	9.563531	-0.396476	2.325876	0.035843	0.026876	0.037491	1.000000	0.000022	0.000014	0.000019	-10.291571	-75.927232	2.271923
61091	9.569875	-0.390056	2.348805	0.016473	0.036581	0.048850	1.000000	0.000031	0.000019	0.000016	-10.291562	-75.925482	2.273019
61092	9.544628	-0.453522	2.322111	0.027721	-0.030189	0.020732	1.000000	0.000022	0.000014	0.000019	-10.294007	-75.924263	2.275182
61093	9.587724	-0.406913	2.349155	0.018699	0.020209	0.066979	1.000000	0.000025	0.000017	0.000012	-10.292747	-75.922762	2.274240
61094	9.532864	-0.430786	2.345642	0.005771	-0.004417	0.013963	1.000000	0.000022	0.000014	0.000019	-10.295175	-75.921535	2.276801
61095	9.539229	-0.424322	2.368478	-0.013600	0.005292	0.025321	1.000000	0.000028	0.000009	0.000012	-10.294149	-75.920981	2.276537
61096	9.572342	-0.424120	2.359218	0.003537	0.004464	0.055214	1.000000	-0.000001	0.000018	0.000005	-10.292653	-75.919587	2.271756
61097	9.530375	-0.434619	2.400772	-0.047901	-0.000534	0.024912	1.000000	0.000032	0.000000	0.000012	-10.291862	-75.919981	2.272171
61098	9.539100	-0.424736	2.368920	-0.013953	0.004994	0.025320	1.000000	0.000006	-0.000004	0.000023	-10.299548	-75.920673	2.277462
61099	9.539085	-0.425028	2.368930	-0.014067	0.004895	0.025320	1.000000	0.000019	0.000004	0.000014	-10.301017	-75.920614	2.278654
61100	9.548348	-0.451762	2.400552	-0.045798	-0.017000	0.043037	1.000000	0.000013	0.000003	0.000009	-10.301152	-75.920830	2.277694
61101	9.557059	-0.441863	2.368762	-0.011850	-0.011477	0.043447	1.000000	0.000016	0.000001	0.000021	-10.306365	-75.921018	2.282379
61102	9.568666	-0.465172	2.345763	0.009741	-0.037565	0.050215	1.000000	0.000020	-0.000014	0.000009	-10.306988	-75.923090	2.283245
61103	9.557080	-0.442148	2.368622	-0.012077	-0.011679	0.043446	1.000000	0.000028	0.000009	0.000012	-10.305960	-75.922536	2.282979
61104	9.539009	-0.425864	2.369084	-0.014637	0.004391	0.025320	1.000000	0.000006	0.000008	0.000016	-10.309651	-75.922013	2.284639
61105	9.538988	-0.425981	2.369147	-0.014751	0.004292	0.025320	1.000000	0.000019	-0.000002	0.000002	-10.306361	-75.922905	2.280982
61106	9.556986	-0.442574	2.368925	-0.012423	-0.011980	0.043445	1.000000	0.000032	0.000007	0.000023	-10.310297	-75.922365	2.286757
61107	9.574956	-0.459309	2.368781	-0.010094	-0.028251	0.061571	1.000000	0.000025	0.000005	0.000019	-10.313012	-75.922057	2.289983
61108	9.556911	-0.442989	2.369150	-0.012653	-0.012180	0.043445	1.000000	0.000032	0.000001	0.000012	-10.312187	-75.922451	2.289586
61109	9.545307	-0.419867	2.392101	-0.034462	0.013714	0.036676	1.000000	0.000035	0.000004	0.000005	-10.307649	-75.922599	2.286507
61110	9.572023	-0.426139	2.360147	0.001929	0.003050	0.055215	1.000000	0.000025	0.000011	0.000000	-10.301642	-75.922061	2.279267
61111	9.538806	-0.426288	2.369827	-0.015440	0.003696	0.025319	1.000000	0.000029	0.000003	0.000000	-10.295855	-75.922458	2.274152
61112	9.547530	-0.416156	2.338042	0.018511	0.009199	0.025734	1.000000	0.000032	0.000001	0.000012	-10.295050	-75.922855	2.275381
61113	9.556839	-0.442567	2.369516	-0.013231	-0.012676	0.043443	1.000000	0.000007	-0.000011	-0.000019	-10.284503	-75.925194	2.262802
61114	9.569171	-0.392522	2.351259	0.013845	0.034246	0.048863	1.000000	0.000025	0.000005	0.000019	-10.287188	-75.924916	2.267884
61115	9.553988	-0.409466	2.360538	-0.001085	0.018721	0.037091	1.000000	0.000023	-0.000004	0.000014	-10.288891	-75.925804	2.269753
61116	9.547564	-0.416173	2.337900	0.018049	0.008794	0.025735	1.000000	0.000019	-0.000002	0.000002	-10.285563	-75.926708	2.267243
61117	9.569154	-0.392840	2.351276	0.013504	0.033943	0.048864	1.000000	0.000019	0.000004	0.000014	-10.287030	-75.926648	2.268433
61118	9.553999	-0.409713	2.360447	-0.001430	0.018419	0.037091	1.000000	0.000020	-0.000014	0.000009	-10.287694	-75.928746	2.268216
61119	9.551148	-0.376632	2.351472	0.010843	0.049916	0.030741	1.000000	0.000015	0.000012	0.000014	-10.288924	-75.927739	2.268725
61120	9.560426	-0.403303	2.383022	-0.020906	0.028047	0.048447	1.000000	0.000014	-0.000015	0.000005	-10.288309	-75.930083	2.265860
61121	9.587206	-0.409738	2.350778	0.015480	0.017360	0.066990	1.000000	0.000032	0.000001	0.000012	-10.287514	-75.930476	2.266270
61122	9.538265	-0.390263	2.306306	0.048998	0.029948	0.008033	1.000000	0.000022	0.000014	0.000019	-10.289958	-75.929247	2.268235
61123	9.587105	-0.410117	2.351127	0.015248	0.017156	0.066991	1.000000	0.000019	0.000004	0.000014	-10.291424	-75.929187	2.269423
61124	9.547456	-0.417216	2.338158	0.017119	0.007981	0.025738	1.000000	0.000019	0.000004	0.000014	-10.292832	-75.929192	2.273451
61125	9.547415	-0.417451	2.338284	0.017005	0.007881	0.025738	1.000000	0.000032	0.000007	0.000023	-10.296795	-75.928634	2.278709
61126	9.565371	-0.434248	2.338183	0.019315	-0.008401	0.043861	1.000000	0.000012	0.000009	0.000021	-10.301688	-75.927889	2.281949
61127	9.553717	-0.411436	2.361292	-0.002471	0.017510	0.037093	1.000000	0.000028	0.000015	0.000023	-10.305412	-75.926383	2.286524
61128	9.550078	-0.451651	2.347798	0.004261	-0.024020	0.032085	1.000000	0.000026	-0.000006	0.000025	-10.312031	-75.927266	2.293782
61129	9.547183	-0.418777	2.338993	0.016548	0.007471	0.025739	1.000000	-0.000002	0.000024	0.000016	-10.315278	-75.924858	2.294380
61130	9.547073	-0.418990	2.339401	0.016430	0.007368	0.025739	1.000000	0.000025	0.000017	0.000012	-10.313943	-75.923377	2.293190
61131	9.574274	-0.462122	2.370990	-0.012913	-0.030664	0.061560	1.000000	0.000028	0.000009	0.000012	-10.312909	-75.922822	2.292917
61132	9.546942	-0.419231	2.339897	0.016195	0.007166	0.025740	1.000000	0.000015	0.000012	0.000014	-10.314115	-75.921861	2.293107
61133	9.556146	-0.445892	2.371687	-0.015572	-0.014685	0.043437	1.000000	0.000022	0.000008	0.000007	-10.311834	-75.921556	2.290801
61134	9.549634	-0.452708	2.349401	0.003551	-0.024626	0.032084	1.000000	0.000018	0.000022	0.000019	-10.314032	-75.919384	2.292093
61135	9.555987	-0.446163	2.372277	-0.015808	-0.014885	0.043437	1.000000	0.000016	0.000006	0.000002	-10.310504	-75.919327	2.287753
61136	9.558792	-0.479396	2.381361	-0.028337	-0.046573	0.049778	1.000000	0.000032	0.000001	0.000012	-10.309658	-75.919717	2.287388
61137	9.537916	-0.429933	2.372748	-0.018453	0.001096	0.025314	1.000000	0.000019	0.000010	0.000026	-10.315873	-75.918705	2.293416
61138	9.555891	-0.446593	2.372585	-0.016157	-0.015184	0.043436	1.000000	0.000019	-0.000002	0.000002	-10.312582	-75.919616	2.288895
61139	9.531433	-0.436695	2.350358	0.000557	-0.008946	0.013961	1.000000	0.000025	0.000011	0.000000	-10.306556	-75.919065	2.283096
61140	9.571024	-0.429729	2.363546	-0.001561	0.000021	0.055216	1.000000	0.000026	-0.000001	0.000007	-10.304510	-75.919745	2.280638
61141	9.531409	-0.436623	2.350467	0.000322	-0.009146	0.013961	1.000000	0.000019	-0.000002	0.000002	-10.301220	-75.920636	2.276981
61142	9.555828	-0.446427	2.372868	-0.016628	-0.015581	0.043434	1.000000	0.000022	0.000008	0.000007	-10.298943	-75.920352	2.275619
61143	9.570954	-0.429814	2.363813	-0.001909	-0.000279	0.055216	1.000000	0.000015	0.000013	0.000014	-10.300167	-75.919344	2.276122
61144	9.555729	-0.446670	2.373222	-0.016862	-0.015782	0.043433	1.000000	0.000032	0.000001	0.000012	-10.299319	-75.919761	2.278025
61145	9.552895	-0.413529	2.364247	-0.004549	0.015702	0.037095	1.000000	0.000032	0.000001	0.000012	-10.298522	-75.920153	2.278433
61146	9.555709	-0.446676	2.373301	-0.017094	-0.015981	0.043433	1.000000	0.000023	0.000001	-0.000005	-10.291465	-75.920812	2.271683
61147	9.552887	-0.413374	2.364310	-0.004779	0.015501	0.037095	1.000000	0.000026	-0.000001	0.000007	-10.289421	-75.921453	2.270057
61148	9.561620	-0.403352	2.332541	0.029176	0.020948	0.037527	1.000000	0.000022	0.000008	0.000007	-10.287122	-75.921185	2.269872
61149	9.531235	-0.436785	2.351145	-0.000611	-0.009947	0.013960	1.000000	0.000019	-0.000002	0.000002	-10.283830	-75.922076	2.266212
61150	9.559271	-0.406640	2.387086	-0.024372	0.025053	0.048447	1.000000	0.000035	0.000004	0.000005	-10.279296	-75.922254	2.264804
61151	9.579585	-0.419866	2.332450	0.031232	0.004460	0.055649	1.000000	0.000010	-0.000001	0.000016	-10.283256	-75.922688	2.267448
61152	9.550046	-0.380297	2.355354	0.007071	0.046580	0.030761	1.000000	0.000027	-0.000019	0.000002	-10.280397	-75.925499	2.266950
61153	9.586061	-0.413433	2.354797	0.011761	0.014109	0.067000	1.000000	0.000019	0.000010	0.000026	-10.286613	-75.924487	2.272978
61154	9.552847	-0.413911	2.364375	-0.005598	0.014799	0.037096	1.000000	0.000016	-0.000006	0.000009	-10.287029	-75.925660	2.273715
61155	9.568042	-0.397249	2.355057	0.009127	0.030092	0.048882	1.000000	0.000026	-0.000001	0.000007	-10.284983	-75.926301	2.272087
61156	9.564435	-0.437300	2.341440	0.015806	-0.011445	0.043864	1.000000	0.000020	-0.000008	0.000021	-10.290367	-75.927457	2.277606
61157	9.568046	-0.397649	2.354975	0.008897	0.029888	0.048883	1.000000	0.000019	0.000004	0.000014	-10.291828	-75.927395	2.278789
61158	9.546372	-0.421162	2.341873	0.013177	0.004536	0.025746	1.000000	0.000018	0.000016	0.000007	-10.289205	-75.926163	2.275559
61159	9.579534	-0.421191	2.332417	0.030299	0.003638	0.055652	1.000000	0.000016	-0.000011	0.000028	-10.298399	-75.927539	2.284415
61160	9.546334	-0.421785	2.341913	0.012945	0.004335	0.025746	1.000000	0.000032	0.000007	0.000023	-10.302346	-75.927000	2.289323
61161	9.564302	-0.438455	2.341768	0.015224	-0.011953	0.043865	1.000000	0.000006	0.000001	0.000005	-10.301313	-75.927438	2.286439
61162	9.546258	-0.422117	2.342166	0.012719	0.004131	0.025747	1.000000	0.000022	0.000014	0.000019	-10.303723	-75.926170	2.287214
61163	9.579391	-0.422117	2.332839	0.029840	0.003228	0.055653	1.000000	0.000019	0.000004	0.000014	-10.305183	-75.926109	2.288396
61164	9.537396	-0.432609	2.374353	-0.021598	-0.001596	0.025308	1.000000	0.000012	0.000009	0.000021	-10.310088	-75.925400	2.293596
61165	9.564102	-0.439375	2.342412	0.014756	-0.012362	0.043865	1.000000	0.000025	0.000005	0.000019	-10.312794	-75.925089	2.296810
61166	9.548848	-0.456225	2.351914	-0.000208	-0.027848	0.032076	1.000000	0.000018	0.000016	0.000007	-10.310231	-75.923857	2.294073
61167	9.546048	-0.423106	2.342844	0.012135	0.003625	0.025748	1.000000	0.000030	-0.000021	0.000014	-10.312416	-75.926638	2.297312
61168	9.546055	-0.423167	2.342802	0.012007	0.003523	0.025748	1.000000	0.000038	0.000014	0.000009	-10.308844	-75.925667	2.296671
61169	9.548784	-0.456570	2.352105	-0.000568	-0.028149	0.032075	1.000000	0.000019	0.000010	0.000025	-10.315053	-75.924653	2.302692
61170	9.537174	-0.433531	2.375076	-0.022301	-0.002194	0.025306	1.000000	0.000009	0.000005	-0.000002	-10.310232	-75.924842	2.295622
61171	9.585537	-0.416540	2.356384	0.009665	0.012277	0.067005	1.000000	0.000035	0.000004	0.000005	-10.305685	-75.924988	2.292531
61172	9.530689	-0.440121	2.352734	-0.003296	-0.012261	0.013957	1.000000	0.000022	0.000008	0.000007	-10.303354	-75.924675	2.289034
61173	9.570273	-0.433321	2.365930	-0.005411	-0.003305	0.055214	1.000000	0.000019	0.000004	0.000014	-10.304813	-75.924613	2.290214
61174	9.563816	-0.440168	2.343431	0.013703	-0.013278	0.043865	1.000000	0.000013	0.000003	0.000009	-10.304941	-75.924814	2.289395
61175	9.570199	-0.433424	2.366207	-0.005643	-0.003508	0.055214	1.000000	0.000035	0.000016	-0.000002	-10.296406	-75.923768	2.282124
61176	9.545715	-0.423664	2.344098	0.011092	0.002711	0.025749	1.000000	0.000006	0.000008	0.000016	-10.300076	-75.923270	2.284001
61177	9.552074	-0.417156	2.366928	-0.008253	0.012483	0.037097	1.000000	0.000025	0.000017	0.000012	-10.298791	-75.921766	2.283033
61178	9.545593	-0.423947	2.344544	0.010864	0.002510	0.025749	1.000000	0.000032	0.000001	0.000012	-10.297968	-75.922153	2.283742
61179	9.551990	-0.417219	2.367256	-0.008480	0.012283	0.037097	1.000000	0.000025	0.000011	0.000000	-10.291934	-75.921602	2.277934
61180	9.563531	-0.440445	2.344541	0.013004	-0.013887	0.043865	1.000000	0.000023	-0.000004	0.000014	-10.293587	-75.922528	2.279745
61181	9.536757	-0.433999	2.376662	-0.023569	-0.003290	0.025303	1.000000	0.000016	0.000006	0.000002	-10.290054	-75.922471	2.275398
61182	9.567175	-0.400705	2.357993	0.006022	0.027352	0.048892	1.000000	0.000017	-0.000017	0.000016	-10.294468	-75.924826	2.278991
61183	9.551964	-0.417670	2.367278	-0.008946	0.011882	0.037097	1.000000	0.000028	0.000015	0.000023	-10.298174	-75.923316	2.283546
61184	9.567124	-0.401102	2.358131	0.005796	0.027147	0.048893	1.000000	-0.000006	-0.000001	-0.000005	-10.294557	-75.924255	2.276917
61185	9.560694	-0.407816	2.335557	0.024910	0.017168	0.037546	1.000000	0.000032	0.000001	0.000012	-10.293755	-75.924646	2.277319
61186	9.560648	-0.407979	2.335717	0.024791	0.017065	0.037547	1.000000	0.000022	0.000014	0.000019	-10.296171	-75.923417	2.279918
61187	9.548163	-0.458165	2.354314	-0.002670	-0.029965	0.032069	1.000000	0.000012	0.000009	0.000021	-10.301132	-75.922652	2.283904
61188	9.566957	-0.401752	2.358700	0.005332	0.026741	0.048894	1.000000	0.000022	0.000008	0.000007	-10.298784	-75.922375	2.281699
61189	9.560498	-0.408537	2.336237	0.024446	0.016760	0.037548	1.000000	0.000013	0.000003	0.000009	-10.298996	-75.922562	2.280845
61190	9.545279	-0.425419	2.345557	0.009463	0.001291	0.025751	1.000000	0.000010	-0.000001	0.000016	-10.302878	-75.923050	2.283672
61191	9.576082	-0.428529	2.390657	-0.026739	0.004760	0.066558	1.000000	0.000035	0.000016	-0.000002	-10.294340	-75.922004	2.276399
61192	9.578418	-0.425433	2.336230	0.026451	0.000255	0.055664	1.000000	0.000007	-0.000016	0.000030	-10.306003	-75.923918	2.287435
61193	9.551663	-0.419264	2.368213	-0.010113	0.010873	0.037097	1.000000	0.000045	0.000003	0.000021	-10.307691	-75.923808	2.291898
61194	9.563173	-0.442648	2.345587	0.011350	-0.015311	0.043865	1.000000	0.000009	0.000011	0.000009	-10.307613	-75.923105	2.290423
61195	9.551585	-0.419498	2.368487	-0.010350	0.010672	0.037097	1.000000	0.000026	-0.000001	0.000007	-10.305566	-75.923746	2.288793
61196	9.545109	-0.426375	2.346073	0.008756	0.000683	0.025752	1.000000	0.000028	0.000015	0.000023	-10.309200	-75.922263	2.292506
61197	9.596225	-0.442954	2.336565	0.028221	-0.016456	0.073778	1.000000	0.000019	0.000004	0.000014	-10.310656	-75.922200	2.293682
61198	9.578199	-0.426578	2.336919	0.025750	-0.000361	0.055665	1.000000	0.000028	0.000009	0.000012	-10.309555	-75.921636	2.292306
61199	9.556530	-0.450157	2.323738	0.029993	-0.025709	0.032520	1.000000	0.000010	-0.000001	0.000016	-10.313513	-75.922068	2.294946
61200	9.556509	-0.450378	2.323784	0.029875	-0.025815	0.032520	1.000000	0.000019	0.000004	0.000014	-10.314838	-75.922023	2.297247
61201	9.544863	-0.427254	2.346916	0.008183	0.000174	0.025752	1.000000	0.000030	0.000031	0.000009	-10.310798	-75.919076	2.294118
61202	9.580751	-0.460301	2.346816	0.012770	-0.032329	0.061978	1.000000	0.000026	-0.000001	0.000007	-10.308667	-75.919753	2.293753
61203	9.544750	-0.427381	2.347352	0.007948	-0.000030	0.025753	1.000000	0.000015	0.000013	0.000014	-10.309876	-75.918742	2.294240
61204	9.544688	-0.427522	2.347576	0.007831	-0.000130	0.025753	1.000000	0.000028	0.000009	0.000012	-10.308832	-75.918200	2.293480
61205	9.551084	-0.420871	2.370262	-0.011505	0.009664	0.037097	1.000000	0.000006	0.000001	0.000005	-10.307799	-75.918638	2.290596
61206	9.562632	-0.444246	2.347490	0.009951	-0.016535	0.043865	1.000000	0.000029	-0.000003	0.000018	-10.310656	-75.919277	2.293376
61207	9.544624	-0.427680	2.347809	0.007487	-0.000434	0.025753	1.000000	0.000022	0.000013	-0.000011	-10.299628	-75.918732	2.282041
61208	9.529350	-0.444395	2.357352	-0.007499	-0.015885	0.013950	1.000000	0.000018	0.000010	0.000025	-10.305779	-75.917724	2.287229
61209	9.590537	-0.414301	2.383951	-0.013965	0.018305	0.078356	1.000000	0.000038	0.000014	0.000009	-10.302228	-75.916671	2.285476
61210	9.559678	-0.411293	2.339104	0.022011	0.014610	0.037557	1.000000	0.000016	-0.000006	0.000009	-10.302675	-75.917830	2.284183
61211	9.566113	-0.404619	2.361631	0.002678	0.024409	0.048901	1.000000	0.000026	-0.000001	0.000007	-10.300628	-75.918469	2.282553
61212	9.568836	-0.437836	2.370903	-0.009973	-0.007243	0.055208	1.000000	0.000018	0.000016	0.000007	-10.298028	-75.917263	2.279560
61213	9.541605	-0.394903	2.339657	0.019319	0.030508	0.019447	1.000000	0.000022	0.000008	0.000007	-10.295736	-75.916955	2.277241
61214	9.562362	-0.444735	2.348498	0.009011	-0.017347	0.043864	1.000000	0.000017	-0.000017	0.000016	-10.300109	-75.919304	2.281251
61215	9.574822	-0.394829	2.330054	0.036305	0.029443	0.049365	1.000000	0.000022	0.000013	-0.000011	-10.289081	-75.918759	2.269915
61216	9.550756	-0.421476	2.371477	-0.012784	0.008556	0.037097	1.000000	0.000018	0.000011	0.000025	-10.295192	-75.917789	2.275959
61217	9.544269	-0.428351	2.349130	0.006319	-0.001447	0.025754	1.000000	0.000025	0.000011	0.000000	-10.289153	-75.917237	2.270146
61218	9.559444	-0.411711	2.339987	0.021071	0.013793	0.037560	1.000000	0.000019	0.000004	0.000014	-10.290610	-75.917229	2.271083
61219	9.550621	-0.421820	2.371959	-0.013136	0.008258	0.037096	1.000000	0.000019	0.000004	0.000014	-10.292062	-75.917165	2.272255
61220	9.544170	-0.428703	2.349469	0.005958	-0.001752	0.025754	1.000000	0.000013	0.000003	0.000009	-10.292181	-75.917398	2.270967
61221	9.577348	-0.428647	2.340024	0.023056	-0.002719	0.055672	1.000000	0.000032	0.000001	0.000012	-10.291376	-75.917787	2.271364
61222	9.565740	-0.405405	2.363008	0.001384	0.023292	0.048904	1.000000	0.000028	0.000021	0.000005	-10.286298	-75.916093	2.267683
61223	9.562025	-0.445388	2.349744	0.007938	-0.018260	0.043864	1.000000	0.000023	-0.000004	0.000014	-10.287995	-75.916976	2.269544
61224	9.544078	-0.429218	2.349748	0.005479	-0.002154	0.025754	1.000000	0.000007	-0.000016	0.000030	-10.299691	-75.918913	2.280333
61225	9.559286	-0.412824	2.340436	0.020245	0.013081	0.037563	1.000000	0.000038	0.000014	0.000009	-10.296137	-75.917860	2.278575
61226	9.595184	-0.445954	2.340267	0.024781	-0.019435	0.073782	1.000000	0.000019	0.000004	0.000014	-10.297569	-75.917854	2.280078
61227	9.550413	-0.422979	2.372590	-0.014087	0.007457	0.037096	1.000000	0.000013	0.000003	0.000009	-10.297777	-75.918040	2.279221
61228	9.577171	-0.429749	2.340545	0.022217	-0.003433	0.055673	1.000000	0.000029	-0.000003	0.000018	-10.300642	-75.918700	2.284001
61229	9.528721	-0.446628	2.359470	-0.009989	-0.017991	0.013944	1.000000	0.000032	0.000012	0.000005	-10.295844	-75.917898	2.280214
61230	9.561885	-0.446666	2.350073	0.007100	-0.018968	0.043863	1.000000	0.000006	-0.000004	0.000023	-10.303508	-75.918595	2.284892
61231	9.559099	-0.413587	2.341066	0.019544	0.012470	0.037565	1.000000	0.000035	0.000016	-0.000002	-10.294963	-75.917549	2.277611
61232	9.579757	-0.463336	2.350274	0.009191	-0.035382	0.061971	1.000000	0.000032	0.000007	0.000023	-10.298805	-75.916993	2.282193
61233	9.561694	-0.447119	2.350764	0.006752	-0.019273	0.043863	1.000000	-0.000002	0.000025	0.000016	-10.302018	-75.914580	2.282758
61234	9.546408	-0.463911	2.360301	-0.008251	-0.034704	0.032050	1.000000	0.000019	-0.000002	0.000002	-10.298666	-75.915488	2.280317
61235	9.558896	-0.414129	2.341800	0.019084	0.012061	0.037567	1.000000	0.000023	-0.000004	0.000014	-10.300363	-75.916371	2.282178
61236	9.561604	-0.447413	2.351073	0.006397	-0.019579	0.043862	1.000000	0.000018	0.000016	0.000007	-10.297770	-75.915161	2.281187
61237	9.543592	-0.430917	2.351410	0.003962	-0.003469	0.025754	1.000000	0.000026	-0.000001	0.000007	-10.295721	-75.915800	2.279555
61238	9.549989	-0.424111	2.374094	-0.015363	0.006350	0.037095	1.000000	0.000025	0.000011	0.000000	-10.289642	-75.915250	2.273688
61239	9.558750	-0.414342	2.342355	0.018620	0.011654	0.037568	1.000000	0.000022	0.000002	0.000025	-10.296079	-75.915178	2.280377
61240	9.543462	-0.431033	2.351916	0.003611	-0.003771	0.025754	1.000000	0.000018	0.000021	-0.000011	-10.284789	-75.913728	2.268010
61241	9.556246	-0.417459	2.397306	-0.034922	0.015974	0.048434	1.000000	0.000019	0.000004	0.000014	-10.286238	-75.913663	2.269180
61242	9.591770	-0.414406	2.333560	0.035460	0.010461	0.067491	1.000000	0.000022	0.000014	0.000019	-10.288659	-75.912488	2.273838
61243	9.576470	-0.431259	2.343137	0.020456	-0.004962	0.055677	1.000000	0.000035	0.000010	0.000016	-10.288846	-75.911678	2.275569
61244	9.558450	-0.414820	2.343497	0.018024	0.011146	0.037570	1.000000	0.000022	0.000008	0.000007	-10.286492	-75.911394	2.272433
61245	9.558409	-0.414849	2.343660	0.017911	0.011046	0.037570	1.000000	0.000022	0.000008	0.000007	-10.284196	-75.911086	2.270110
61246	9.534322	-0.441445	2.385047	-0.031202	-0.009767	0.025277	1.000000	0.000028	0.000009	0.000012	-10.283138	-75.910570	2.269028
61247	9.582720	-0.424853	2.366337	0.000778	0.004557	0.067016	1.000000	0.000010	-0.000001	0.000016	-10.287090	-75.910999	2.271661
61248	9.549500	-0.425191	2.375866	-0.016541	0.005351	0.037093	1.000000	0.000019	0.000004	0.000014	-10.288498	-75.910950	2.273815
61249	9.549489	-0.425254	2.375901	-0.016655	0.005252	0.037093	1.000000	0.000019	-0.000002	0.000002	-10.285208	-75.911840	2.270155
61250	9.597898	-0.408512	2.357178	0.015312	0.019570	0.078834	1.000000	0.000028	0.000009	0.000012	-10.284157	-75.911354	2.270748
61251	9.536601	-0.438922	2.330928	0.021517	-0.014805	0.014416	1.000000	0.000023	-0.000004	0.000014	-10.285853	-75.912236	2.272606
61252	9.555860	-0.418768	2.398616	-0.036222	0.014884	0.048431	1.000000	0.000013	0.000003	0.000009	-10.286057	-75.912453	2.271979
61253	9.569762	-0.439021	2.321560	0.038482	-0.015908	0.044340	1.000000	0.000022	0.000008	0.000007	-10.283760	-75.912144	2.269654
61254	9.542978	-0.432506	2.353607	0.001956	-0.005174	0.025754	1.000000	0.000013	-0.000009	0.000016	-10.288011	-75.913552	2.271903
61255	9.558181	-0.416142	2.344357	0.016738	0.010038	0.037573	1.000000	0.000028	0.000015	0.000023	-10.291692	-75.912037	2.276431
61256	9.560858	-0.449302	2.353744	0.004021	-0.021591	0.043859	1.000000	0.000026	0.000005	-0.000012	-10.280870	-75.912479	2.264702
61257	9.542873	-0.432686	2.354001	0.001606	-0.005475	0.025754	1.000000	0.000019	0.000004	0.000014	-10.282317	-75.912413	2.265868
61258	9.542836	-0.432891	2.354113	0.001487	-0.005576	0.025754	1.000000	0.000025	0.000006	0.000019	-10.284985	-75.912122	2.268103
61259	9.582429	-0.426168	2.367276	-0.000634	0.003352	0.067017	1.000000	0.000032	0.000001	0.000012	-10.284176	-75.912509	2.268495
61260	9.542767	-0.433174	2.354342	0.001249	-0.005779	0.025754	1.000000	0.000015	0.000013	0.000014	-10.285304	-75.911551	2.269062
61261	9.560666	-0.449952	2.354400	0.003430	-0.022096	0.043858	1.000000	0.000032	0.000007	0.000023	-10.289232	-75.910982	2.274280
61262	9.545389	-0.466999	2.363808	-0.011591	-0.037504	0.032037	1.000000	0.000019	-0.000001	0.000032	-10.299337	-75.911176	2.284525
61263	9.567002	-0.443952	2.377160	-0.016008	-0.012359	0.055195	1.000000	0.000015	0.000013	0.000014	-10.300533	-75.910163	2.284998
61264	9.557809	-0.417539	2.345629	0.015686	0.009124	0.037576	1.000000	0.000038	0.000007	-0.000002	-10.292248	-75.910080	2.278866
61265	9.566917	-0.443910	2.377510	-0.016241	-0.012557	0.055194	1.000000	0.000019	0.000004	0.000014	-10.293694	-75.910014	2.280031
61266	9.542505	-0.434324	2.355193	0.000554	-0.006378	0.025754	1.000000	0.000019	0.000004	0.000014	-10.295170	-75.909947	2.280973
61267	9.548898	-0.427595	2.377852	-0.018761	0.003465	0.037090	1.000000	0.000035	0.000004	0.000005	-10.290616	-75.910091	2.277872
61268	9.560409	-0.450960	2.355253	0.002607	-0.022797	0.043857	1.000000	0.000019	0.000004	0.000014	-10.292062	-75.910066	2.279550
61269	9.557631	-0.417932	2.346284	0.015109	0.008622	0.037577	1.000000	0.000025	0.000017	0.000012	-10.290753	-75.908559	2.278555
61270	9.564004	-0.411210	2.369021	-0.004206	0.018465	0.048914	1.000000	0.000026	-0.000001	0.000007	-10.288659	-75.909204	2.276331
61271	9.557567	-0.418187	2.346496	0.014880	0.008419	0.037578	1.000000	0.000022	0.000002	0.000025	-10.295088	-75.909129	2.283011
61272	9.557547	-0.418407	2.346541	0.014761	0.008320	0.037578	1.000000	0.000006	0.000001	0.000005	-10.294109	-75.909595	2.279506
61273	9.542261	-0.435064	2.356043	-0.000261	-0.007076	0.025753	1.000000	0.000038	0.000014	0.000009	-10.290543	-75.908540	2.277736
61274	9.581839	-0.428229	2.369292	-0.002385	0.001845	0.067017	1.000000	0.000032	0.000001	0.000012	-10.289687	-75.908938	2.278806
61275	9.557461	-0.418586	2.346859	0.014417	0.008017	0.037579	1.000000	0.000023	-0.000004	0.000014	-10.291382	-75.909819	2.280662
61276	9.550999	-0.425504	2.324449	0.033496	-0.002035	0.026244	1.000000	0.000025	0.000017	0.000012	-10.290026	-75.908337	2.280097
61277	9.575308	-0.435328	2.347130	0.016464	-0.008408	0.055682	1.000000	0.000022	0.000008	0.000007	-10.287725	-75.908027	2.277768
61278	9.517660	-0.425648	2.334473	0.016073	-0.001308	-0.003684	1.000000	0.000028	0.000021	0.000005	-10.282667	-75.906305	2.273568
61279	9.575200	-0.435322	2.347571	0.016230	-0.008609	0.055682	1.000000	0.000010	-0.000007	0.000005	-10.281883	-75.907689	2.271374
61280	9.572472	-0.402378	2.338406	0.028741	0.022801	0.049408	1.000000	0.000018	0.000011	0.000025	-10.288002	-75.906708	2.278071
61281	9.545668	-0.395789	2.370500	-0.007757	0.033586	0.030813	1.000000	0.000033	-0.000006	-0.000000	-10.282458	-75.908050	2.273638
61282	9.557206	-0.419207	2.347787	0.013601	0.007310	0.037581	1.000000	0.000016	0.000001	0.000021	-10.287674	-75.908230	2.278478
61283	9.548355	-0.429358	2.379714	-0.020622	0.001876	0.037087	1.000000	0.000016	0.000001	0.000021	-10.292862	-75.908406	2.283131
61284	9.557178	-0.419771	2.347798	0.013368	0.007107	0.037581	1.000000	0.000023	-0.000004	0.000014	-10.294505	-75.909313	2.285006
61285	9.566269	-0.446318	2.379667	-0.018582	-0.014548	0.055188	1.000000	0.000015	0.000013	0.000014	-10.295696	-75.908299	2.285473
61286	9.557085	-0.420088	2.348119	0.013139	0.006904	0.037582	1.000000	0.000028	0.000009	0.000012	-10.294578	-75.907747	2.284593
61287	9.563534	-0.413340	2.370550	-0.006170	0.016762	0.048916	1.000000	0.000017	-0.000024	0.000005	-10.294299	-75.911025	2.283789
61288	9.523940	-0.420352	2.357329	-0.004283	0.007644	0.007651	1.000000	0.000032	0.000007	0.000023	-10.298231	-75.910500	2.289063
61289	9.563501	-0.413834	2.370597	-0.006405	0.016562	0.048916	1.000000	0.000018	0.000011	0.000025	-10.304404	-75.909476	2.295045
61290	9.581393	-0.430597	2.370665	-0.004250	0.000234	0.067016	1.000000	0.000022	0.000008	0.000007	-10.302038	-75.909160	2.292305
61291	9.535328	-0.444275	2.335117	0.016837	-0.018844	0.014418	1.000000	0.000026	-0.000001	0.000007	-10.299987	-75.909798	2.290669
61292	9.541732	-0.437570	2.357721	-0.002462	-0.008983	0.025751	1.000000	0.000019	0.000004	0.000014	-10.301401	-75.909680	2.291110
61293	9.556974	-0.421126	2.348388	0.012342	0.006198	0.037583	1.000000	0.000023	-0.000004	0.000014	-10.303095	-75.910559	2.292965
61294	9.548149	-0.431094	2.380230	-0.021885	0.000781	0.037084	1.000000	0.000023	-0.000004	0.000014	-10.304753	-75.911448	2.294190
61295	9.553222	-0.461221	2.335145	0.018646	-0.035475	0.032518	1.000000	0.000035	0.000016	-0.000002	-10.296195	-75.910402	2.286896
61296	9.541623	-0.437965	2.358089	-0.002927	-0.009385	0.025751	1.000000	0.000018	0.000011	0.000025	-10.302320	-75.909404	2.293295
61297	9.556806	-0.421556	2.348992	0.011880	0.005792	0.037584	1.000000	0.000038	0.000014	0.000009	-10.298747	-75.908348	2.291517
61298	9.574701	-0.438093	2.349091	0.014021	-0.010536	0.055683	1.000000	0.000016	0.000006	0.000002	-10.295217	-75.908316	2.286221
61299	9.535042	-0.444952	2.336158	0.015914	-0.019651	0.014418	1.000000	0.000022	0.000008	0.000007	-10.292913	-75.908006	2.283889
61300	9.565810	-0.447985	2.381197	-0.020330	-0.016043	0.055182	1.000000	0.000023	-0.000004	0.000014	-10.294588	-75.908929	2.285900
61301	9.559373	-0.454885	2.358700	-0.001256	-0.026112	0.043849	1.000000	0.000022	0.000008	0.000007	-10.292284	-75.908619	2.283566
61302	9.538713	-0.405321	2.349647	0.009032	0.021517	0.019486	1.000000	0.000010	-0.000001	0.000016	-10.296201	-75.909103	2.286613
61303	9.574591	-0.438698	2.349424	0.013428	-0.011042	0.055684	1.000000	0.000035	-0.000001	0.000023	-10.300371	-75.909478	2.292513
61304	9.556625	-0.422370	2.349584	0.011052	0.005087	0.037585	1.000000	0.000019	0.000004	0.000014	-10.301818	-75.909454	2.293778
61305	9.580936	-0.432201	2.372220	-0.005998	-0.001270	0.067016	1.000000	0.000038	0.000014	0.000009	-10.298243	-75.908398	2.291997
61306	9.556540	-0.422433	2.349915	0.010819	0.004886	0.037586	1.000000	0.000019	-0.000002	0.000002	-10.294934	-75.909312	2.287896
61307	9.532166	-0.412755	2.327509	0.027641	0.011042	0.008156	1.000000	0.000019	0.000004	0.000014	-10.296374	-75.909243	2.289053
61308	9.569347	-0.408993	2.395113	-0.027785	0.024637	0.060249	1.000000	0.000032	0.000001	0.000012	-10.295578	-75.909641	2.288712
61309	9.538538	-0.406114	2.350223	0.008226	0.020817	0.019488	1.000000	0.000022	0.000008	0.000007	-10.293271	-75.909330	2.286376
61310	9.562849	-0.416039	2.372841	-0.008836	0.014461	0.048917	1.000000	0.000012	0.000009	0.000021	-10.298183	-75.908617	2.290688
61311	9.538421	-0.406364	2.350655	0.007989	0.020616	0.019489	1.000000	0.000035	0.000016	-0.000002	-10.289624	-75.907570	2.283392
61312	9.549882	-0.429776	2.328248	0.029306	-0.005699	0.026256	1.000000	0.000006	0.000008	0.000016	-10.293240	-75.907057	2.285235
61313	9.562668	-0.416223	2.373534	-0.009179	0.014159	0.048917	1.000000	0.000025	0.000011	0.000000	-10.287189	-75.906505	2.279408
61314	9.547157	-0.396792	2.319149	0.041757	0.025593	0.019998	1.000000	0.000023	-0.000016	0.000021	-10.292853	-75.908617	2.285641
61315	9.556281	-0.423275	2.350820	0.009770	0.003978	0.037587	1.000000	0.000026	-0.000001	0.000007	-10.290801	-75.909253	2.284001
61316	9.574209	-0.439898	2.350756	0.011885	-0.012359	0.055684	1.000000	0.000013	0.000003	0.000009	-10.290934	-75.909513	2.283802
61317	9.538308	-0.406897	2.351018	0.007288	0.020008	0.019491	1.000000	0.000013	0.000003	0.000009	-10.291135	-75.909696	2.282936
61318	9.553796	-0.426552	2.405457	-0.043888	0.008383	0.048408	1.000000	0.000019	0.000004	0.000014	-10.292616	-75.909640	2.282897
61319	9.547087	-0.397200	2.319365	0.041177	0.025083	0.020002	1.000000	0.000022	0.000013	-0.000012	-10.281579	-75.909098	2.271554
61320	9.556168	-0.423496	2.351238	0.009175	0.003475	0.037588	1.000000	0.000039	-0.000010	0.000023	-10.286009	-75.910470	2.278990
61321	9.574104	-0.440273	2.351114	0.011298	-0.012860	0.055684	1.000000	0.000019	0.000004	0.000014	-10.287447	-75.910401	2.280146
61322	9.549670	-0.430760	2.328934	0.028132	-0.006711	0.026258	1.000000	0.000018	0.000022	0.000019	-10.289631	-75.908167	2.281504
61323	9.562432	-0.417332	2.374292	-0.010346	0.013162	0.048918	1.000000	0.000019	0.000004	0.000014	-10.291068	-75.908097	2.282659
61324	9.573913	-0.440925	2.351769	0.010951	-0.013164	0.055684	1.000000	0.000025	0.000006	0.000018	-10.293676	-75.907800	2.284709
61325	9.547110	-0.434215	2.383826	-0.025516	-0.002292	0.037075	1.000000	0.000019	-0.000002	0.000002	-10.290386	-75.908689	2.281048
61326	9.549519	-0.431305	2.329453	0.027670	-0.007119	0.026260	1.000000	0.000028	0.000009	0.000012	-10.289296	-75.908125	2.281054
61327	9.573832	-0.441274	2.352037	0.010606	-0.013466	0.055684	1.000000	0.000022	0.000002	0.000025	-10.295715	-75.908044	2.287722
61328	9.555864	-0.424989	2.352204	0.008253	0.002670	0.037589	1.000000	0.000019	0.000004	0.000014	-10.297145	-75.908024	2.288994
61329	9.555872	-0.425147	2.352143	0.008138	0.002569	0.037589	1.000000	0.000026	-0.000013	0.000014	-10.299094	-75.909849	2.291544
61330	9.531551	-0.415636	2.329514	0.024965	0.008714	0.008166	1.000000	0.000020	-0.000008	0.000021	-10.304549	-75.911031	2.296753
61331	9.573832	-0.442176	2.351867	0.010126	-0.013869	0.055684	1.000000	0.000019	0.000004	0.000014	-10.305985	-75.910962	2.297907
61332	9.540580	-0.442448	2.361470	-0.007166	-0.012977	0.025745	1.000000	0.000012	0.000009	0.000021	-10.310943	-75.910234	2.301108
61333	9.562221	-0.419116	2.374829	-0.011516	0.012165	0.048918	1.000000	0.000019	0.000010	-0.000005	-10.303650	-75.909934	2.293254
61334	9.564613	-0.416131	2.320552	0.041656	0.007316	0.038107	1.000000	0.000022	0.000008	0.000007	-10.301293	-75.909701	2.291101
61335	9.546879	-0.435971	2.384433	-0.026701	-0.003281	0.037072	1.000000	0.000016	-0.000005	0.000039	-10.315204	-75.910102	2.304754
61336	9.570984	-0.409876	2.343187	0.022255	0.017111	0.049436	1.000000	0.000038	0.000007	-0.000002	-10.306913	-75.909980	2.296583
61337	9.555688	-0.426370	2.352667	0.007196	0.001767	0.037590	1.000000	0.000006	0.000001	0.000005	-10.305876	-75.910416	2.293693
61338	9.537731	-0.409947	2.352829	0.004854	0.017906	0.019496	1.000000	0.000025	0.000006	0.000018	-10.308538	-75.910141	2.297006
61339	9.570896	-0.410072	2.343515	0.021906	0.016807	0.049437	1.000000	0.000022	0.000008	0.000007	-10.306227	-75.909830	2.294665
61340	9.552910	-0.393614	2.343802	0.019569	0.032943	0.031344	1.000000	0.000015	0.000013	0.000014	-10.307319	-75.908842	2.295193
61341	9.549113	-0.433671	2.330677	0.025901	-0.008640	0.026263	1.000000	0.000019	-0.000002	0.000002	-10.304030	-75.909731	2.291531
61342	9.552878	-0.393796	2.343900	0.019334	0.032743	0.031345	1.000000	0.000010	-0.000001	0.000016	-10.308004	-75.910209	2.294568
61343	9.555489	-0.426968	2.353367	0.006487	0.001163	0.037590	1.000000	0.000035	0.000016	-0.000002	-10.299436	-75.909163	2.287263
61344	9.561847	-0.420163	2.376150	-0.012807	0.011064	0.048917	1.000000	0.000006	0.000008	0.000016	-10.303057	-75.908674	2.289983
61345	9.546507	-0.436874	2.385756	-0.027871	-0.004271	0.037068	1.000000	0.000038	0.000014	0.000009	-10.299471	-75.907617	2.288191
61346	9.561757	-0.420247	2.376494	-0.013045	0.010862	0.048917	1.000000	0.000013	-0.000004	-0.000002	-10.294850	-75.908814	2.281049
61347	9.577004	-0.403646	2.367243	0.001793	0.025997	0.060767	1.000000	0.000018	0.000016	0.000007	-10.292281	-75.907556	2.278009
61348	9.537338	-0.410518	2.354322	0.003678	0.016899	0.019498	1.000000	0.000026	-0.000001	0.000007	-10.290255	-75.908266	2.277755
61349	9.548822	-0.433986	2.331814	0.024946	-0.009452	0.026265	1.000000	0.000028	0.000009	0.000012	-10.289180	-75.907702	2.277434
61350	9.539893	-0.443774	2.363996	-0.009305	-0.014780	0.025740	1.000000	0.000018	0.000016	0.000007	-10.286541	-75.906508	2.274429
61351	9.579480	-0.437031	2.377211	-0.011432	-0.005881	0.067009	1.000000	0.000023	-0.000004	0.000014	-10.288233	-75.907385	2.276279
61352	9.561531	-0.420678	2.377326	-0.013755	0.010264	0.048917	1.000000	0.000006	0.000008	0.000016	-10.291933	-75.906875	2.277819
61353	9.548665	-0.434552	2.332347	0.024474	-0.009859	0.026266	1.000000	0.000032	0.000001	0.000012	-10.291114	-75.907258	2.278198
61354	9.548647	-0.434652	2.332403	0.024357	-0.009961	0.026266	1.000000	0.000038	0.000002	0.000016	-10.291500	-75.907400	2.280281
61355	9.555042	-0.428026	2.354990	0.005072	-0.000048	0.037591	1.000000	0.000016	0.000001	0.000021	-10.296680	-75.907570	2.284923
61356	9.539733	-0.444838	2.364442	-0.009998	-0.015380	0.025739	1.000000	0.000019	0.000004	0.000014	-10.298015	-75.907495	2.286546
61357	9.554973	-0.428406	2.355200	0.004844	-0.000253	0.037591	1.000000	0.000028	0.000009	0.000012	-10.296937	-75.906930	2.286223
61358	9.539637	-0.445055	2.364786	-0.010236	-0.015580	0.025738	1.000000	0.000028	0.000009	0.000012	-10.295817	-75.906414	2.286031
61359	9.554929	-0.428651	2.355336	0.004607	-0.000455	0.037592	1.000000	0.000017	-0.000017	0.000016	-10.300279	-75.908731	2.290055
61360	9.579288	-0.438374	2.377739	-0.012478	-0.006785	0.067007	1.000000	0.000038	0.000007	-0.000002	-10.291939	-75.908627	2.282964
61361	9.554894	-0.428740	2.355461	0.004379	-0.000656	0.037592	1.000000	0.000018	0.000011	0.000025	-10.298094	-75.907596	2.288924
61362	9.572779	-0.445523	2.355515	0.006456	-0.017003	0.055682	1.000000	0.000026	-0.000001	0.000007	-10.296039	-75.908259	2.286023
61363	9.572787	-0.445578	2.355473	0.006340	-0.017103	0.055682	1.000000	0.000016	-0.000006	0.000009	-10.296495	-75.909388	2.285853
61364	9.539582	-0.445641	2.364898	-0.010936	-0.016174	0.025736	1.000000	0.000032	0.000001	0.000012	-10.295728	-75.909803	2.285647
61365	9.570133	-0.412651	2.346177	0.018873	0.014165	0.049448	1.000000	0.000019	0.000004	0.000014	-10.297160	-75.909731	2.286795
61366	9.554795	-0.429288	2.355765	0.003797	-0.001155	0.037592	1.000000	0.000012	0.000015	0.000002	-10.293311	-75.908723	2.282499
61367	9.572684	-0.445940	2.355825	0.005874	-0.017504	0.055682	1.000000	0.000023	-0.000004	0.000014	-10.295002	-75.909599	2.284348
61368	9.543269	-0.406177	2.378389	-0.017788	0.024915	0.030826	1.000000	0.000026	-0.000006	0.000025	-10.301631	-75.910467	2.290318
61369	9.570037	-0.413190	2.346472	0.018417	0.013758	0.049449	1.000000	0.000025	0.000011	-0.000000	-10.295568	-75.909915	2.284479
61370	9.545851	-0.439376	2.387920	-0.030794	-0.006743	0.037058	1.000000	0.000026	-0.000001	0.000007	-10.293584	-75.910564	2.281996
61371	9.548266	-0.436657	2.333588	0.022386	-0.011681	0.026269	1.000000	0.000015	0.000013	0.000014	-10.294755	-75.909545	2.282442
61372	9.561046	-0.423137	2.378844	-0.016064	0.008273	0.048915	1.000000	0.000025	0.000006	0.000018	-10.297404	-75.909261	2.284125
61373	9.554605	-0.430229	2.356362	0.002986	-0.001855	0.037592	1.000000	0.000029	-0.000003	0.000018	-10.300330	-75.909883	2.287993
61374	9.554553	-0.430316	2.356559	0.002860	-0.001956	0.037592	1.000000	0.000028	0.000021	0.000005	-10.295238	-75.908198	2.284183
61375	9.548078	-0.437502	2.334202	0.021909	-0.012086	0.026269	1.000000	0.000016	-0.000005	0.000039	-10.309143	-75.908593	2.297827
61376	9.578650	-0.404576	2.315417	0.051733	0.018231	0.049988	1.000000	0.000026	0.000005	-0.000012	-10.298340	-75.908993	2.286745
61377	9.565940	-0.454283	2.334340	0.023860	-0.028540	0.044358	1.000000	0.000018	0.000011	0.000025	-10.304490	-75.907961	2.292700
61378	9.554390	-0.431010	2.357092	0.002398	-0.002357	0.037592	1.000000	0.000016	0.000006	0.000002	-10.300929	-75.907934	2.288691
61379	9.551756	-0.397841	2.347786	0.015076	0.029002	0.031364	1.000000	0.000019	-0.000002	0.000002	-10.297639	-75.908822	2.285027
61380	9.560769	-0.424244	2.379757	-0.016998	0.007478	0.048914	1.000000	0.000012	0.000009	0.000021	-10.302563	-75.908073	2.288046
61381	9.550508	-0.471379	2.344200	0.008414	-0.044149	0.032497	1.000000	0.000019	0.000004	0.000014	-10.303992	-75.908001	2.289191
61382	9.551639	-0.398303	2.348186	0.014726	0.028700	0.031366	1.000000	0.000032	0.000012	0.000005	-10.299134	-75.907230	2.286202
61383	9.545343	-0.441200	2.389614	-0.032319	-0.008025	0.037052	1.000000	0.000009	-0.000001	0.000016	-10.303076	-75.907651	2.288822
61384	9.560616	-0.424677	2.380295	-0.017468	0.007078	0.048914	1.000000	0.000038	0.000007	-0.000002	-10.294728	-75.907599	2.282013
61385	9.538880	-0.448216	2.367240	-0.013397	-0.018261	0.025730	1.000000	0.000013	-0.000003	0.000028	-10.303651	-75.908006	2.290144
61386	9.554144	-0.431953	2.357914	0.001462	-0.003161	0.037592	1.000000	0.000028	0.000009	0.000012	-10.302522	-75.907444	2.288384
61387	9.554122	-0.432075	2.357982	0.001348	-0.003260	0.037592	1.000000	0.000023	-0.000004	0.000014	-10.304213	-75.908318	2.290232
61388	9.572022	-0.448831	2.357964	0.003401	-0.019619	0.055679	1.000000	0.000019	0.000004	0.000014	-10.305552	-75.908251	2.290874
61389	9.560496	-0.425536	2.380626	-0.018040	0.006578	0.048913	1.000000	0.000019	0.000004	0.000014	-10.306981	-75.908179	2.292018
61390	9.554036	-0.432548	2.358245	0.001006	-0.003566	0.037592	1.000000	0.000028	0.000009	0.000012	-10.305831	-75.907600	2.291387
61391	9.536074	-0.416038	2.358471	-0.001275	0.012589	0.019506	1.000000	0.000003	0.000010	0.000005	-10.304530	-75.907087	2.287791
61392	9.593601	-0.425963	2.371538	-0.001252	0.005216	0.078864	1.000000	0.000013	-0.000009	0.000016	-10.308691	-75.908540	2.291735
61393	9.553962	-0.432854	2.358489	0.000647	-0.003868	0.037592	1.000000	0.000025	0.000011	-0.000000	-10.302624	-75.907988	2.285892
61394	9.560337	-0.425997	2.381181	-0.018629	0.006076	0.048912	1.000000	0.000019	0.000004	0.000014	-10.304024	-75.907945	2.287848
61395	9.553883	-0.433086	2.358767	0.000413	-0.004069	0.037592	1.000000	0.000025	0.000006	0.000018	-10.306685	-75.907618	2.291009
61396	9.569133	-0.416738	2.349531	0.015268	0.011026	0.049458	1.000000	0.000009	0.000011	0.000009	-10.306689	-75.906919	2.289225
61397	9.520599	-0.433325	2.368449	-0.016969	-0.003201	0.007640	1.000000	0.000016	-0.000006	0.000009	-10.307146	-75.908047	2.289054
61398	9.575517	-0.410032	2.372158	-0.004123	0.020872	0.060778	1.000000	0.000022	0.000008	0.000007	-10.304795	-75.907778	2.286467
61399	9.571699	-0.450078	2.359036	0.002094	-0.020725	0.055677	1.000000	0.000010	-0.000007	0.000005	-10.304019	-75.909159	2.284279
61400	9.553790	-0.433593	2.359050	-0.000193	-0.004567	0.037592	1.000000	0.000019	0.000004	0.000014	-10.305449	-75.909169	2.285529
61401	9.553738	-0.433879	2.359209	-0.000307	-0.004667	0.037592	1.000000	0.000018	0.000011	0.000025	-10.311593	-75.908135	2.291478
