// Start Time: Unknown
// Update Rate: 100.0Hz
// Filter Profile: human (46.1)
// Firmware Version: 4.4.0
PacketCounter	Acc_X	Acc_Y	Acc_Z	FreeAcc_X	FreeAcc_Y	FreeAcc_Z	OriInc_q0	OriInc_q1	OriInc_q2	OriInc_q3	Roll	Pitch	Yaw
35406	9.571903	-0.323745	-2.328834	-0.000000	0.000000	0.043763	1.000000	0.000004	0.000016	0.000041	-172.096024	-76.198628	165.766005
35407	9.603273	-0.310085	-2.326447	0.005286	0.025099	0.073196	1.000000	0.000009	0.000013	0.000029	-171.774725	-76.261562	165.810432
35408	9.584359	-0.314980	-2.297537	-0.018384	0.022504	0.048194	1.000000	0.000021	0.000028	0.000028	-171.757493	-76.264224	165.795170
35409	9.572112	-0.325699	-2.327703	0.013088	0.008806	0.043750	1.000000	0.000007	0.000020	0.000032	-171.739734	-76.266498	165.777673
35410	9.582643	-0.358913	-2.262575	-0.055520	-0.016530	0.039812	1.000000	0.000017	0.000011	0.000043	-171.717080	-76.267004	165.756314
35411	9.564267	-0.312574	-2.309312	-0.000732	0.024657	0.031357	1.000000	0.000000	0.000016	0.000034	-171.699983	-76.268361	165.738753
35412	9.573529	-0.336864	-2.285464	-0.028120	0.004064	0.035585	1.000000	0.000011	0.000019	0.000039	-171.679129	-76.269891	165.718600
35413	9.572320	-0.328792	-2.326413	0.013120	0.008795	0.043750	1.000000	0.000011	0.000019	0.000039	-171.658412	-76.271558	165.698580
35414	9.565685	-0.323657	-2.267067	-0.041928	0.019902	0.023192	1.000000	0.000003	0.000001	0.000027	-171.645281	-76.271244	165.685462
35415	9.592678	-0.334799	-2.313017	-0.004390	0.006620	0.060587	1.000000	0.000015	0.000038	0.000044	-171.620871	-76.275087	165.662075
35416	9.573757	-0.339901	-2.284056	-0.028060	0.004024	0.035585	1.000000	0.000006	0.000008	0.000038	-171.602033	-76.275352	165.643365
35417	9.573747	-0.340551	-2.284003	-0.027998	0.003989	0.035585	1.000000	-0.000004	-0.000002	0.000029	-171.589447	-76.274982	165.629966
35418	9.556673	-0.303004	-2.289417	-0.014439	0.040431	0.018965	1.000000	0.000017	0.000031	0.000041	-171.566539	-76.277758	165.608331
35419	9.572624	-0.333205	-2.324532	0.013319	0.008657	0.043750	1.000000	0.000018	0.000023	0.000037	-171.546748	-76.280390	165.590020
35420	9.580615	-0.348662	-2.341971	0.027149	-0.007193	0.056142	1.000000	0.000020	0.000015	0.000034	-171.527742	-76.281555	165.572766
35421	9.585061	-0.324678	-2.293254	-0.018005	0.022285	0.048195	1.000000	-0.000003	0.000012	0.000044	-171.508444	-76.282576	165.552503
35422	9.566087	-0.329791	-2.264487	-0.041676	0.019690	0.023194	1.000000	0.000024	0.000014	0.000041	-171.485681	-76.283513	165.531847
35423	9.564898	-0.321572	-2.305461	-0.000336	0.024313	0.031358	1.000000	-0.000016	0.000022	0.000025	-171.476357	-76.286453	165.520236
35424	9.552632	-0.332218	-2.335737	0.031042	0.010611	0.026913	1.000000	0.000020	0.000015	0.000034	-171.457340	-76.287612	165.502971
35425	9.564995	-0.322890	-2.304871	-0.000257	0.024153	0.031359	1.000000	0.000006	0.000008	0.000038	-171.441804	-76.288542	165.487467
35426	9.588455	-0.294655	-2.284662	-0.021794	0.056299	0.048415	1.000000	0.000011	0.000019	0.000039	-171.420899	-76.290048	165.467263
35427	9.585365	-0.329014	-2.291364	-0.017701	0.021743	0.048197	1.000000	0.000014	0.000024	0.000030	-171.409228	-76.293197	165.456570
35428	9.565200	-0.325031	-2.303721	-0.000153	0.023892	0.031359	1.000000	0.000014	0.000024	0.000030	-171.391981	-76.295379	165.440480
35429	9.577592	-0.315651	-2.272738	-0.031400	0.037267	0.035808	1.000000	0.000013	0.000012	0.000036	-171.379977	-76.297297	165.429305
35430	9.596671	-0.312063	-2.300889	-0.007728	0.039860	0.060808	1.000000	-0.000005	0.000025	0.000030	-171.364682	-76.299601	165.412953
35431	9.568566	-0.293618	-2.295497	-0.003827	0.057443	0.031583	1.000000	0.000038	0.000016	0.000053	-171.343088	-76.302175	165.394732
35432	9.545162	-0.323490	-2.315224	0.017710	0.025298	0.014523	1.000000	0.000010	0.000005	0.000025	-171.329859	-76.302297	165.382331
35433	9.576556	-0.309884	-2.312818	0.010164	0.041052	0.043974	1.000000	0.000003	0.000023	0.000045	-171.318860	-76.305838	165.370767
35434	9.584547	-0.325425	-2.330217	0.023995	0.025199	0.056362	1.000000	0.000011	0.000019	0.000039	-171.297933	-76.307336	165.350548
35435	9.585824	-0.334984	-2.288577	-0.017132	0.019850	0.048202	1.000000	0.000009	0.000013	0.000029	-171.296573	-76.309665	165.349419
35436	9.575525	-0.303287	-2.353045	0.051476	0.045185	0.052139	1.000000	0.000010	0.000027	0.000043	-171.273663	-76.311963	165.326977
35437	9.576803	-0.312956	-2.311378	0.010323	0.039794	0.043979	1.000000	0.000006	0.000008	0.000038	-171.269786	-76.313539	165.322597
35438	9.605027	-0.333029	-2.316010	0.006609	0.021786	0.073203	1.000000	0.000006	0.000028	0.000036	-171.250606	-76.316073	165.303529
35439	9.576905	-0.314388	-2.310760	0.010281	0.039065	0.043982	1.000000	0.000007	0.000000	0.000035	-171.251269	-76.316325	165.303962
35440	9.576956	-0.315276	-2.310430	0.010282	0.039065	0.043982	1.000000	0.000012	0.000034	0.000054	-171.222589	-76.319194	165.275858
35441	9.575065	-0.358632	-2.275694	-0.027020	-0.000793	0.035589	1.000000	0.000007	0.000020	0.000032	-171.225422	-76.321718	165.278554
35442	9.577130	-0.316863	-2.309491	0.010210	0.038241	0.043986	1.000000	0.000018	0.000023	0.000037	-171.204365	-76.323659	165.259009
35443	9.558136	-0.321818	-2.280727	-0.013508	0.034874	0.018988	1.000000	0.000014	0.000004	0.000032	-171.206316	-76.324445	165.261158
35444	9.585106	-0.333066	-2.326834	0.023995	0.021599	0.056371	1.000000	0.000004	0.000016	0.000041	-171.185417	-76.325474	165.240137
35445	9.553785	-0.348045	-2.328705	0.031646	0.004464	0.026915	1.000000	0.000009	0.000013	0.000029	-171.190867	-76.327342	165.245649
35446	9.575308	-0.362187	-2.274109	-0.027122	-0.002431	0.035588	1.000000	0.000013	0.000031	0.000033	-171.171555	-76.330301	165.227243
35447	9.589714	-0.310434	-2.277278	-0.021309	0.049493	0.048452	1.000000	0.000017	0.000011	0.000043	-171.168245	-76.331724	165.224947
35448	9.558365	-0.325532	-2.279239	-0.013605	0.033218	0.018993	1.000000	0.000006	0.000008	0.000038	-171.149335	-76.331942	165.206157
35449	9.597662	-0.326464	-2.294751	-0.007462	0.032754	0.060835	1.000000	0.000002	0.000007	0.000011	-171.164422	-76.333919	165.221093
35450	9.566362	-0.341267	-2.296535	0.000242	0.016481	0.031375	1.000000	0.000016	0.000030	0.000041	-171.141370	-76.336640	165.199312
35451	9.569674	-0.308385	-2.288935	-0.003707	0.049929	0.031624	1.000000	0.000007	0.000020	0.000032	-171.144034	-76.339836	165.201532
35452	9.580884	-0.290039	-2.299230	0.006132	0.068363	0.044250	1.000000	0.000003	0.000021	0.000025	-171.130565	-76.341763	165.188051
35453	9.578897	-0.333144	-2.264725	-0.031113	0.028354	0.035839	1.000000	0.000006	0.000008	0.000038	-171.135040	-76.343354	165.192070
35454	9.537291	-0.315683	-2.331434	0.045197	0.037419	0.010332	1.000000	0.000014	0.000024	0.000030	-171.117714	-76.345497	165.175895
35455	9.598061	-0.330374	-2.292522	-0.007526	0.029917	0.060844	1.000000	0.000004	0.000016	0.000041	-171.121256	-76.347542	165.178859
35456	9.557640	-0.321837	-2.317908	0.027563	0.034251	0.027172	1.000000	0.000020	0.000015	0.000034	-171.102159	-76.348641	165.161503
35457	9.570015	-0.312620	-2.286934	-0.003834	0.046861	0.031639	1.000000	0.000015	0.000018	0.000047	-171.103454	-76.351403	165.164549
35458	9.577999	-0.328103	-2.304313	0.009991	0.030996	0.044011	1.000000	-0.000005	0.000025	0.000030	-171.088126	-76.353653	165.148172
35459	9.570157	-0.313953	-2.286157	-0.003762	0.045894	0.031644	1.000000	0.000009	0.000012	0.000029	-171.095363	-76.356457	165.154828
35460	9.566958	-0.348173	-2.293017	0.000225	0.011599	0.031382	1.000000	0.000009	0.000012	0.000029	-171.080130	-76.357346	165.140184
35461	9.570242	-0.315162	-2.285633	-0.003838	0.044915	0.031648	1.000000	0.000000	0.000016	0.000034	-171.086737	-76.359642	165.145380
35462	9.588166	-0.302765	-2.355211	0.061049	0.052208	0.064820	1.000000	0.000002	0.000009	0.000031	-171.071570	-76.360073	165.129977
35463	9.578270	-0.331270	-2.302731	0.009968	0.027950	0.044021	1.000000	0.000015	0.000038	0.000044	-171.072794	-76.365126	165.132410
35464	9.570442	-0.317376	-2.284490	-0.003866	0.043817	0.031653	1.000000	0.000006	0.000008	0.000038	-171.053889	-76.365333	165.113642
35465	9.578339	-0.332754	-2.302231	0.009809	0.026931	0.044024	1.000000	-0.000004	-0.000002	0.000029	-171.065999	-76.365169	165.123995
35466	9.589516	-0.314602	-2.312729	0.019646	0.045356	0.056662	1.000000	0.000022	0.000022	0.000044	-171.041129	-76.366843	165.100988
35467	9.562628	-0.304877	-2.266006	-0.017900	0.057588	0.019298	1.000000	-0.000001	0.000024	0.000038	-171.048114	-76.370281	165.107279
35468	9.558276	-0.330318	-2.314092	0.027308	0.028022	0.027192	1.000000	0.000009	0.000012	0.000029	-171.032885	-76.371174	165.092650
35469	9.569484	-0.312040	-2.324503	0.036868	0.045448	0.039839	1.000000	0.000000	0.000016	0.000034	-171.041245	-76.372318	165.098592
35470	9.569555	-0.312724	-2.324116	0.036863	0.045447	0.039839	1.000000	-0.000001	0.000024	0.000038	-171.022107	-76.374339	165.078752
35471	9.578676	-0.336949	-2.300219	0.009282	0.023799	0.044032	1.000000	0.000009	0.000012	0.000029	-171.032987	-76.375728	165.089489
35472	9.570830	-0.322945	-2.282084	-0.004552	0.039672	0.031671	1.000000	0.000003	0.000023	0.000045	-171.010066	-76.377518	165.066216
35473	9.597869	-0.334435	-2.327951	0.032937	0.025203	0.069042	1.000000	0.000015	0.000018	0.000047	-171.012565	-76.380420	165.070948
35474	9.558630	-0.334724	-2.311993	0.026813	0.024838	0.027202	1.000000	0.000000	0.000016	0.000034	-170.995456	-76.381660	165.053406
35475	9.582169	-0.306508	-2.291727	0.004978	0.056071	0.044328	1.000000	0.000004	0.000016	0.000041	-170.997282	-76.382315	165.052140
35476	9.590108	-0.322025	-2.309251	0.018806	0.040193	0.056686	1.000000	0.000013	0.000012	0.000036	-170.978273	-76.382971	165.034080
35477	9.569915	-0.318203	-2.321890	0.036325	0.041378	0.039859	1.000000	0.000001	0.000011	0.000051	-170.977634	-76.384657	165.032732
35478	9.562032	-0.304328	-2.303920	0.022497	0.057254	0.027502	1.000000	0.000006	0.000008	0.000038	-170.958686	-76.384884	165.013920
35479	9.571115	-0.328679	-2.280069	-0.005449	0.035672	0.031686	1.000000	0.000018	0.000023	0.000037	-170.964457	-76.385106	165.019895
35480	9.601455	-0.306477	-2.318786	0.028056	0.056624	0.069349	1.000000	0.000003	0.000023	0.000045	-170.941499	-76.386899	164.996578
35481	9.551040	-0.325625	-2.292111	0.011800	0.036796	0.014860	1.000000	0.000020	0.000015	0.000034	-170.949737	-76.387935	165.006560
35482	9.582485	-0.312203	-2.289635	0.004084	0.053018	0.044345	1.000000	0.000004	0.000016	0.000041	-170.928819	-76.388925	164.985538
35483	9.570198	-0.323037	-2.320057	0.035033	0.038212	0.039876	1.000000	0.000006	0.000008	0.000038	-170.939340	-76.388387	164.997701
35484	9.571362	-0.332649	-2.278454	-0.006192	0.033483	0.031693	1.000000	0.000011	0.000019	0.000039	-170.918389	-76.389812	164.977478
35485	9.582619	-0.314491	-2.288761	0.003400	0.051037	0.044356	1.000000	0.000007	0.000020	0.000032	-170.923109	-76.391411	164.979253
35486	9.559148	-0.344201	-2.308458	0.024936	0.018935	0.027220	1.000000	0.000010	0.000007	0.000045	-170.900443	-76.391351	164.957073
35487	9.589493	-0.321837	-2.347266	0.058147	0.038799	0.064900	1.000000	-0.000002	0.000030	0.000021	-170.916268	-76.394299	164.973569
35488	9.570490	-0.326536	-2.318361	0.034475	0.036267	0.039886	1.000000	0.000020	0.000015	0.000034	-170.897241	-76.395375	164.956329
35489	9.582867	-0.317291	-2.287336	0.002421	0.048882	0.044367	1.000000	0.000003	0.000023	0.000045	-170.904249	-76.394990	164.964388
35490	9.539238	-0.342304	-2.319681	0.041506	0.018978	0.010401	1.000000	0.000006	0.000028	0.000036	-170.885169	-76.397407	164.945478
35491	9.589781	-0.324702	-2.345695	0.056379	0.036666	0.064918	1.000000	0.000007	0.000000	0.000034	-170.900200	-76.392330	164.962673
35492	9.594228	-0.300575	-2.297062	0.011142	0.066227	0.057041	1.000000	0.000007	0.000020	0.000032	-170.883255	-76.393876	164.946155
35493	9.559565	-0.349103	-2.305995	0.022428	0.014706	0.027234	1.000000	0.000004	0.000015	0.000041	-170.889473	-76.393998	164.954149
35494	9.570786	-0.331055	-2.316498	0.032230	0.033104	0.039904	1.000000	0.000018	0.000003	0.000040	-170.869069	-76.393473	164.935379
35495	9.614565	-0.307462	-2.283343	-0.007323	0.062087	0.073876	1.000000	-0.000002	0.000030	0.000021	-170.881630	-76.395296	164.947392
35496	9.563036	-0.317483	-2.297969	0.017929	0.048079	0.027560	1.000000	0.000020	0.000015	0.000034	-170.862905	-76.396249	164.930528
35497	9.570977	-0.333087	-2.315416	0.030623	0.031187	0.039916	1.000000	0.000015	0.000018	0.000047	-170.869482	-76.392564	164.940810
35498	9.574367	-0.300375	-2.307924	0.026580	0.065469	0.040243	1.000000	0.000003	0.000023	0.000045	-170.847043	-76.394135	164.918140
35499	9.563223	-0.320082	-2.296828	0.015944	0.046377	0.027572	1.000000	0.000011	0.000019	0.000039	-170.847497	-76.392019	164.915580
35500	9.583521	-0.325580	-2.283425	-0.001666	0.044161	0.044389	1.000000	0.000004	0.000035	0.000039	-170.826653	-76.395032	164.894675
35501	9.574617	-0.302756	-2.306574	0.025579	0.063797	0.040257	1.000000	0.000006	0.000008	0.000038	-170.831950	-76.395954	164.902379
35502	9.563421	-0.322482	-2.295668	0.015706	0.045383	0.027577	1.000000	0.000008	0.000015	0.000049	-170.807731	-76.396469	164.878497
35503	9.583675	-0.328082	-2.282422	-0.002211	0.042315	0.044397	1.000000	0.000018	0.000023	0.000037	-170.809284	-76.397664	164.881476
35504	9.586009	-0.286469	-2.316230	0.034954	0.081324	0.052946	1.000000	0.000003	0.000023	0.000045	-170.786806	-76.399212	164.858740
35505	9.571485	-0.339658	-2.312358	0.029133	0.027824	0.039930	1.000000	0.000010	0.000005	0.000025	-170.792601	-76.400574	164.863160
35506	9.586091	-0.287837	-2.315722	0.034920	0.080509	0.052953	1.000000	0.000011	0.000019	0.000039	-170.771983	-76.401806	164.843327
35507	9.560336	-0.359918	-2.301128	0.018169	0.008444	0.027250	1.000000	-0.000007	0.000013	0.000036	-170.785239	-76.397826	164.857089
35508	9.563705	-0.326999	-2.293845	0.014117	0.042726	0.027591	1.000000	0.000006	0.000008	0.000038	-170.766840	-76.397744	164.838912
35509	9.563746	-0.327851	-2.293551	0.014056	0.041714	0.027596	1.000000	0.000022	0.000022	0.000044	-170.766517	-76.400644	164.843225
35510	9.563818	-0.328649	-2.293141	0.014008	0.041700	0.027596	1.000000	0.000007	0.000020	0.000032	-170.749823	-76.402074	164.827015
35511	9.571809	-0.344197	-2.310348	0.027215	0.025111	0.039943	1.000000	0.000015	0.000038	0.000044	-170.745168	-76.403122	164.819987
35512	9.586489	-0.292282	-2.313517	0.032985	0.077791	0.052981	1.000000	0.000002	0.000007	0.000011	-170.740011	-76.403407	164.815061
35513	9.571910	-0.345246	-2.309772	0.026898	0.024071	0.039947	1.000000	0.000006	0.000008	0.000038	-170.747427	-76.403701	164.826432
35514	9.583179	-0.327174	-2.320232	0.036667	0.042453	0.052640	1.000000	0.000004	0.000015	0.000041	-170.727133	-76.404426	164.806181
35515	9.592159	-0.351540	-2.296392	0.008989	0.020908	0.056760	1.000000	0.000013	0.000012	0.000036	-170.732032	-76.404846	164.814133
35516	9.564136	-0.332807	-2.291211	0.012679	0.039009	0.027609	1.000000	0.000011	0.000019	0.000039	-170.711686	-76.406029	164.794671
35517	9.583330	-0.329454	-2.319284	0.036357	0.040411	0.052650	1.000000	0.000007	0.000020	0.000032	-170.720561	-76.409654	164.810995
35518	9.563170	-0.325388	-2.331976	0.053876	0.042616	0.035840	1.000000	0.000007	0.000000	0.000034	-170.704453	-76.408830	164.795501
35519	9.591297	-0.345705	-2.336477	0.050791	0.023583	0.064988	1.000000	0.000015	0.000038	0.000044	-170.696713	-76.417451	164.793006
35520	9.567719	-0.302107	-2.282834	0.009274	0.071237	0.027977	1.000000	-0.000004	-0.000002	0.000029	-170.684446	-76.416501	164.780222
35521	9.575624	-0.317702	-2.300375	0.022271	0.054724	0.040320	1.000000	-0.000002	0.000026	0.000058	-170.675918	-76.414615	164.767868
35522	9.583570	-0.333354	-2.317735	0.036062	0.038804	0.052657	1.000000	0.000000	0.000016	0.000034	-170.659497	-76.415670	164.751239
35523	9.579112	-0.285731	-2.292625	0.018241	0.088790	0.040685	1.000000	0.000017	0.000011	0.000043	-170.641083	-76.416375	164.720843
35524	9.583669	-0.334938	-2.317096	0.036038	0.038582	0.052658	1.000000	0.000006	0.000028	0.000035	-170.622319	-76.418695	164.702359
35525	9.575865	-0.320805	-2.298943	0.021833	0.053808	0.040326	1.000000	0.000009	0.000012	0.000029	-170.625512	-76.418447	164.703325
35526	9.583783	-0.336095	-2.316455	0.035625	0.037891	0.052662	1.000000	0.000005	0.000013	0.000021	-170.614545	-76.419413	164.692752
35527	9.564740	-0.340828	-2.287509	0.010482	0.034653	0.027628	1.000000	0.000015	0.000038	0.000044	-170.617002	-76.415521	164.696883
35528	9.587381	-0.303927	-2.308315	0.030070	0.071419	0.053039	1.000000	0.000007	0.000020	0.000032	-170.600339	-76.416957	164.680725
35529	9.563909	-0.333661	-2.327775	0.050971	0.038762	0.035872	1.000000	0.000012	0.000033	0.000053	-170.589975	-76.416846	164.667718
35530	9.576283	-0.324387	-2.296697	0.019532	0.052417	0.040338	1.000000	-0.000002	0.000010	0.000023	-170.579188	-76.417250	164.656486
35531	9.556169	-0.320172	-2.309275	0.035810	0.053807	0.023544	1.000000	0.000014	0.000024	0.000030	-170.590471	-76.413359	164.671787
35532	9.587697	-0.306733	-2.306631	0.027990	0.069946	0.053055	1.000000	0.000007	0.000020	0.000032	-170.573907	-76.414705	164.655721
35533	9.576468	-0.326190	-2.295668	0.017907	0.051325	0.040347	1.000000	0.000002	0.000009	0.000031	-170.565764	-76.413911	164.636294
35534	9.568643	-0.312136	-2.277603	0.004032	0.067220	0.028009	1.000000	0.000003	0.000023	0.000045	-170.543349	-76.415358	164.613599
35535	9.588872	-0.317623	-2.264354	-0.014197	0.064261	0.044813	1.000000	0.000009	0.000012	0.000029	-170.549663	-76.413655	164.620308
35536	9.568756	-0.313480	-2.276944	0.003314	0.066484	0.028014	1.000000	0.000007	0.000020	0.000032	-170.532958	-76.414978	164.604023
35537	9.595845	-0.325031	-2.322769	0.040087	0.052175	0.065411	1.000000	0.000015	0.000018	0.000047	-170.533657	-76.413768	164.609560
35538	9.548741	-0.310306	-2.288991	0.020152	0.067824	0.011223	1.000000	-0.000007	0.000033	0.000034	-170.516841	-76.416448	164.591547
35539	9.607277	-0.307646	-2.332647	0.049577	0.069546	0.078135	1.000000	0.000007	0.000000	0.000034	-170.525586	-76.416015	164.606989
35540	9.576853	-0.331263	-2.293335	0.016073	0.048661	0.040363	1.000000	0.000011	0.000019	0.000039	-170.505280	-76.417090	164.587524
35541	9.576915	-0.332066	-2.292961	0.016234	0.047753	0.040368	1.000000	0.000011	0.000019	0.000039	-170.504793	-76.420879	164.592588
35542	9.589260	-0.322735	-2.261987	-0.015219	0.061395	0.044830	1.000000	0.000009	0.000012	0.000029	-170.490295	-76.421440	164.578846
35543	9.556889	-0.328630	-2.305101	0.033134	0.049045	0.023578	1.000000	0.000019	0.000035	0.000031	-170.497151	-76.422795	164.591184
35544	9.569291	-0.319383	-2.273873	0.001676	0.062681	0.028040	1.000000	0.000003	0.000023	0.000045	-170.475032	-76.424234	164.568918
35545	9.557033	-0.330375	-2.304257	0.032915	0.048508	0.023582	1.000000	0.000013	0.000006	0.000052	-170.461755	-76.423841	164.553922
35546	9.588518	-0.317147	-2.301804	0.025085	0.064626	0.053100	1.000000	0.000016	0.000016	0.000027	-170.447166	-76.424846	164.540906
35547	9.568413	-0.312990	-2.314403	0.042152	0.066147	0.036312	1.000000	0.000000	0.000016	0.000034	-170.450634	-76.424316	164.544433
35548	9.565025	-0.347231	-2.321194	0.046101	0.031836	0.035920	1.000000	0.000009	0.000012	0.000029	-170.436181	-76.424858	164.530743
35549	9.588666	-0.319008	-2.300930	0.023729	0.062876	0.053114	1.000000	0.000000	0.000016	0.000034	-170.448110	-76.423262	164.549235
35550	9.576432	-0.329761	-2.331254	0.055059	0.049198	0.048655	1.000000	0.000011	0.000019	0.000039	-170.427989	-76.424332	164.530034
35551	9.576483	-0.330457	-2.330945	0.054776	0.048642	0.048660	1.000000	0.000009	0.000012	0.000029	-170.427675	-76.424456	164.527092
35552	9.569645	-0.325110	-2.271572	-0.000307	0.059798	0.028058	1.000000	0.000020	0.000015	0.000034	-170.409438	-76.425185	164.510807
35553	9.576578	-0.331969	-2.330342	0.053310	0.047876	0.048672	1.000000	0.000015	0.000018	0.000047	-170.411675	-76.419624	164.516880
35554	9.580083	-0.299078	-2.322931	0.049213	0.082142	0.049071	1.000000	-0.000004	0.000017	0.000027	-170.399247	-76.420663	164.503841
35555	9.560971	-0.303737	-2.294151	0.024909	0.078759	0.024015	1.000000	0.000011	0.000019	0.000039	-170.404468	-76.419633	164.512631
35556	9.589065	-0.324048	-2.298560	0.021060	0.060567	0.053135	1.000000	0.000014	0.000024	0.000030	-170.388153	-76.421314	164.497717
35557	9.568984	-0.319909	-2.311094	0.038436	0.061869	0.036355	1.000000	0.000000	0.000016	0.000034	-170.395207	-76.422889	164.509003
35558	9.548848	-0.315948	-2.323834	0.055938	0.064100	0.019570	1.000000	0.000022	0.000002	0.000047	-170.371874	-76.421814	164.487832
35559	9.589170	-0.326159	-2.297823	0.019416	0.058732	0.053149	1.000000	0.000001	0.000014	0.000014	-170.393262	-76.416850	164.512387
35560	9.569107	-0.322046	-2.310287	0.036909	0.060964	0.036367	1.000000	0.000012	0.000033	0.000053	-170.365668	-76.419133	164.485669
35561	9.600673	-0.308779	-2.307553	0.027225	0.076246	0.065901	1.000000	0.000012	0.000017	0.000019	-170.386480	-76.411357	164.510612
35562	9.580571	-0.304610	-2.320200	0.044704	0.078479	0.049123	1.000000	-0.000003	0.000012	0.000043	-170.367109	-76.411305	164.490632
35563	9.561439	-0.309410	-2.291440	0.020738	0.075257	0.024052	1.000000	0.000018	0.000023	0.000037	-170.366165	-76.412327	164.494404
35564	9.581663	-0.314924	-2.278095	0.003041	0.072952	0.040831	1.000000	0.000007	0.000020	0.000032	-170.350336	-76.413423	164.479249
35565	9.581746	-0.315525	-2.277664	0.002331	0.072185	0.040837	1.000000	-0.000005	0.000025	0.000030	-170.357802	-76.412890	164.489620
35566	9.538030	-0.340282	-2.310279	0.041435	0.042407	0.006869	1.000000	0.000010	0.000007	0.000045	-170.336659	-76.412236	164.469288
35567	9.569582	-0.327186	-2.307593	0.033616	0.057037	0.036402	1.000000	0.000015	0.000038	0.000044	-170.346998	-76.418071	164.499229
35568	9.580997	-0.309217	-2.317828	0.043284	0.075374	0.049153	1.000000	0.000006	0.000008	0.000038	-170.329798	-76.417696	164.482592
35569	9.581955	-0.318640	-2.276349	0.000701	0.070107	0.040852	1.000000	0.000010	0.000005	0.000025	-170.337906	-76.410645	164.487258
35570	9.593335	-0.300540	-2.286758	0.010357	0.088444	0.053606	1.000000	0.000003	0.000023	0.000045	-170.316669	-76.411792	164.466084
35571	9.581105	-0.311364	-2.317096	0.041734	0.074248	0.049168	1.000000	0.000013	0.000011	0.000036	-170.311379	-76.413101	164.460896
35572	9.589963	-0.335847	-2.293116	0.014250	0.053544	0.053188	1.000000	0.000013	0.000026	0.000050	-170.286220	-76.414469	164.436949
35573	9.601364	-0.317934	-2.303431	0.023771	0.070774	0.065951	1.000000	0.000013	0.000011	0.000036	-170.296293	-76.415534	164.457609
35574	9.558585	-0.351523	-2.294670	0.021707	0.036254	0.023666	1.000000	0.000003	0.000023	0.000045	-170.275122	-76.416708	164.436546
35575	9.561229	-0.309802	-2.328508	0.058295	0.074805	0.032415	1.000000	0.000010	0.000025	0.000023	-170.276790	-76.416697	164.434281
35576	9.593721	-0.305281	-2.284509	0.009170	0.086091	0.053628	1.000000	-0.000011	0.000016	0.000049	-170.255832	-76.416954	164.411781
35577	9.590277	-0.339552	-2.291253	0.012898	0.050794	0.053204	1.000000	0.000012	0.000017	0.000019	-170.270428	-76.418332	164.434423
35578	9.581540	-0.316569	-2.314592	0.040145	0.071415	0.049196	1.000000	-0.000003	0.000012	0.000043	-170.251479	-76.418255	164.415025
35579	9.561454	-0.312488	-2.327226	0.056296	0.072552	0.032443	1.000000	0.000007	0.000020	0.000032	-170.271616	-76.413649	164.445508
35580	9.581644	-0.318109	-2.313951	0.038573	0.070200	0.049211	1.000000	0.000008	0.000014	0.000049	-170.248997	-76.413726	164.423662
35581	9.582586	-0.327825	-2.272385	-0.003452	0.064435	0.040890	1.000000	0.000010	0.000007	0.000045	-170.255584	-76.410487	164.437187
35582	9.570345	-0.338533	-2.302791	0.027839	0.050774	0.036454	1.000000	0.000003	0.000021	0.000025	-170.244222	-76.411731	164.426393
35583	9.573885	-0.305509	-2.295529	0.021963	0.083896	0.036908	1.000000	0.000007	0.000000	0.000034	-170.267208	-76.402789	164.460299
35584	9.581785	-0.321223	-2.312935	0.035643	0.067930	0.049238	1.000000	0.000012	0.000033	0.000053	-170.240734	-76.404809	164.435028
35585	9.581881	-0.322085	-2.312418	0.033473	0.067227	0.049250	1.000000	0.000007	0.000020	0.000032	-170.254621	-76.395326	164.451636
35586	9.589823	-0.337668	-2.329661	0.047134	0.051260	0.061582	1.000000	0.000016	0.000030	0.000041	-170.233946	-76.397156	164.432864
35587	9.574222	-0.308827	-2.293678	0.017241	0.082444	0.036930	1.000000	0.000018	0.000023	0.000037	-170.242564	-76.387263	164.440010
35588	9.582173	-0.324407	-2.310883	0.030881	0.066476	0.049264	1.000000	0.000013	0.000031	0.000033	-170.225757	-76.389238	164.424747
35589	9.574417	-0.310322	-2.292663	0.016320	0.081281	0.036941	1.000000	0.000011	0.000019	0.000039	-170.235862	-76.388256	164.443543
35590	9.590169	-0.340764	-2.327785	0.043780	0.049406	0.061607	1.000000	0.000019	0.000015	0.000034	-170.219518	-76.388388	164.429620
35591	9.554415	-0.306833	-2.304919	0.033885	0.082923	0.020197	1.000000	-0.000016	0.000022	0.000025	-170.221363	-76.392140	164.427524
35592	9.571076	-0.345847	-2.298661	0.020175	0.046257	0.036495	1.000000	0.000019	0.000015	0.000034	-170.204983	-76.392297	164.413559
35593	9.594801	-0.317710	-2.278271	-0.003065	0.076839	0.053708	1.000000	-0.000005	0.000025	0.000030	-170.232622	-76.388099	164.458259
35594	9.562499	-0.323593	-2.321409	0.045795	0.065514	0.032547	1.000000	0.000010	0.000027	0.000043	-170.212525	-76.389341	164.439366
35595	9.555634	-0.318270	-2.261836	-0.008757	0.076341	0.011845	1.000000	0.000014	0.000024	0.000030	-170.198558	-76.394316	164.418603
35596	9.606452	-0.301040	-2.287536	0.006743	0.094796	0.066500	1.000000	0.000007	0.000020	0.000032	-170.184115	-76.395048	164.405210
35597	9.570604	-0.340578	-2.337770	0.059583	0.048417	0.044885	1.000000	0.000010	0.000027	0.000043	-170.183150	-76.396932	164.410285
35598	9.575120	-0.316517	-2.288876	0.014140	0.077822	0.036973	1.000000	-0.000001	0.000024	0.000038	-170.166831	-76.398009	164.393982
35599	9.555119	-0.312490	-2.301238	0.030849	0.079335	0.020236	1.000000	0.000015	0.000038	0.000044	-170.167073	-76.397654	164.399807
35600	9.575293	-0.318057	-2.287936	0.013049	0.076928	0.036981	1.000000	-0.000004	-0.000002	0.000029	-170.157076	-76.395884	164.389743
35601	9.566563	-0.295094	-2.311520	0.039052	0.097242	0.033041	1.000000	0.000006	0.000008	0.000038	-170.156418	-76.388979	164.379136
35602	9.602407	-0.330405	-2.333744	0.048881	0.063028	0.074445	1.000000	0.000011	0.000019	0.000039	-170.138363	-76.389391	164.362485
35603	9.583232	-0.335050	-2.304965	0.024583	0.059990	0.049323	1.000000	0.000007	0.000020	0.000032	-170.139516	-76.387678	164.358595
35604	9.563163	-0.330978	-2.317627	0.042004	0.062246	0.032585	1.000000	0.000016	0.000011	0.000043	-170.119775	-76.387029	164.340838
35605	9.595571	-0.326644	-2.273761	-0.033741	0.000172	0.053950	1.000000	0.000013	0.000011	0.000036	-172.033331	-76.345841	166.054927
35606	9.563222	-0.332464	-2.317172	0.014922	-0.011737	0.032853	1.000000	0.000009	0.000012	0.000029	-172.037263	-76.345380	166.059016
35607	9.551888	-0.351870	-2.306110	0.004769	-0.030720	0.019889	1.000000	0.000006	0.000028	0.000035	-172.038271	-76.346628	166.064233
35608	9.594887	-0.319918	-2.314080	0.006151	0.002677	0.062489	1.000000	0.000019	0.000015	0.000034	-172.038373	-76.346390	166.065657
35609	9.574810	-0.315923	-2.326790	0.023480	0.004375	0.045820	1.000000	0.000001	0.000011	0.000051	-172.033026	-76.345883	166.058051
35610	9.563458	-0.335409	-2.315772	0.013320	-0.014567	0.032852	1.000000	0.000010	0.000025	0.000023	-172.038732	-76.346896	166.064146
35611	9.583651	-0.340826	-2.302373	-0.004760	-0.017699	0.049519	1.000000	0.000007	0.000020	0.000032	-172.041179	-76.347361	166.068130
35612	9.575016	-0.317905	-2.325672	0.022228	0.002273	0.045824	1.000000	0.000019	0.000015	0.000034	-172.041283	-76.347122	166.069555
35613	9.583768	-0.342208	-2.301683	-0.005689	-0.019082	0.049516	1.000000	0.000007	0.000020	0.000032	-172.043683	-76.347000	166.068159
35614	9.595255	-0.324099	-2.311971	0.003624	-0.001531	0.062491	1.000000	0.000007	0.000020	0.000032	-172.045694	-76.347346	166.070091
35615	9.555950	-0.323866	-2.296207	-0.002636	-0.002001	0.020604	1.000000	0.000004	0.000015	0.000041	-172.044099	-76.346800	166.062631
35616	9.575257	-0.320854	-2.324271	0.020416	-0.000494	0.045828	1.000000	0.000015	0.000018	0.000046	-172.038582	-76.346703	166.057733
35617	9.575342	-0.321761	-2.323798	0.019990	-0.001193	0.045829	1.000000	0.000016	0.000030	0.000041	-172.034967	-76.348065	166.051672
35618	9.595521	-0.327343	-2.310408	0.001887	-0.004309	0.062490	1.000000	0.000009	0.000012	0.000029	-172.038904	-76.347603	166.055765
35619	9.584141	-0.346714	-2.299455	-0.008263	-0.023247	0.049505	1.000000	0.000000	0.000016	0.000034	-172.041049	-76.347564	166.054840
35620	9.567678	-0.308970	-2.305085	0.004997	0.012769	0.033589	1.000000	0.000004	0.000015	0.000041	-172.039364	-76.347244	166.052610
35621	9.556303	-0.328523	-2.294076	-0.005137	-0.006160	0.020602	1.000000	0.000011	0.000019	0.000039	-172.037483	-76.347504	166.046273
35622	9.607166	-0.311483	-2.319782	0.009961	0.011143	0.075479	1.000000	0.000007	0.000020	0.000032	-172.039496	-76.347850	166.048208
35623	9.576533	-0.334683	-2.280363	-0.023718	-0.009985	0.037257	1.000000	-0.000004	0.000017	0.000027	-172.046003	-76.347684	166.058490
35624	9.567891	-0.311626	-2.303844	0.003277	0.009985	0.033593	1.000000	0.000022	-0.000000	0.000027	-172.049957	-76.345828	166.064234
35625	9.556506	-0.331216	-2.292842	-0.006889	-0.008938	0.020598	1.000000	0.000012	0.000033	0.000053	-172.040599	-76.347284	166.050611
35626	9.587263	-0.309480	-2.331575	0.025886	0.010779	0.058830	1.000000	0.000007	0.000000	0.000034	-172.042765	-76.345347	166.052700
35627	9.595916	-0.333817	-2.307840	-0.001992	-0.010581	0.062486	1.000000	0.000006	0.000008	0.000038	-172.043311	-76.344027	166.052269
35628	9.568025	-0.314852	-2.302848	0.001543	0.007213	0.033595	1.000000	0.000011	0.000019	0.000039	-172.041563	-76.344150	166.050792
35629	9.603845	-0.350268	-2.324913	0.010935	-0.028028	0.074721	1.000000	0.000011	0.000019	0.000039	-172.039521	-76.344548	166.043209
35630	9.568155	-0.316376	-2.302098	0.000747	0.005828	0.033596	1.000000	0.000007	0.000020	0.000032	-172.041538	-76.344893	166.045146
35631	9.576032	-0.332019	-2.319507	0.014073	-0.010926	0.045833	1.000000	0.000016	0.000010	0.000043	-172.037833	-76.344117	166.038833
35632	9.560388	-0.303099	-2.283910	-0.013798	0.020505	0.021362	1.000000	0.000006	0.000008	0.000038	-172.038078	-76.342988	166.038766
35633	9.568227	-0.318611	-2.301492	-0.000504	0.003740	0.033597	1.000000	0.000010	0.000005	0.000025	-172.044229	-76.341688	166.048686
35634	9.588389	-0.324137	-2.288121	-0.018619	0.000610	0.050244	1.000000	0.000004	0.000035	0.000039	-172.042403	-76.343649	166.046311
35635	9.568382	-0.320007	-2.300654	-0.001382	0.002361	0.033598	1.000000	0.000013	0.000011	0.000036	-172.042635	-76.342768	166.043367
35636	9.556192	-0.330796	-2.330937	0.029611	-0.011957	0.029187	1.000000	0.000016	0.000030	0.000041	-172.038902	-76.344143	166.040485
35637	9.580783	-0.311647	-2.269149	-0.033673	0.014602	0.038008	1.000000	-0.000003	0.000012	0.000043	-172.037498	-76.343209	166.036812
35638	9.564910	-0.356029	-2.306682	0.001312	-0.034003	0.032813	1.000000	0.000006	0.000008	0.000038	-172.037745	-76.342079	166.036747
35639	9.552967	-0.293494	-2.263801	-0.030591	0.031707	0.009134	1.000000	0.000015	0.000038	0.000044	-172.032726	-76.344037	166.040608
35640	9.576531	-0.338694	-2.316480	0.010154	-0.017185	0.045829	1.000000	0.000002	0.000007	0.000011	-172.046115	-76.343209	166.053689
35641	9.572413	-0.290851	-2.291362	-0.007972	0.032469	0.034389	1.000000	0.000012	0.000033	0.000053	-172.036836	-76.344819	166.044270
35642	9.548778	-0.320430	-2.310903	0.013300	-0.000061	0.016958	1.000000	0.000000	0.000016	0.000034	-172.038926	-76.344719	166.045463
35643	9.588224	-0.322313	-2.325880	0.018633	-0.001058	0.058852	1.000000	0.000013	0.000026	0.000050	-172.031479	-76.345475	166.034471
35644	9.564603	-0.351883	-2.345348	0.039903	-0.033588	0.041417	1.000000	0.000013	0.000031	0.000033	-172.031511	-76.347071	166.035005
35645	9.569109	-0.327730	-2.296538	-0.005678	-0.004579	0.033595	1.000000	0.000013	0.000011	0.000036	-172.031619	-76.346254	166.030087
35646	9.600678	-0.314731	-2.294034	-0.014077	0.010491	0.063261	1.000000	0.000009	0.000007	0.000045	-172.028108	-76.344902	166.026611
35647	9.569186	-0.329203	-2.296006	-0.006523	-0.005972	0.033594	1.000000	-0.000002	0.000029	0.000021	-172.035926	-76.346513	166.035326
35648	9.581557	-0.319837	-2.264735	-0.038363	0.006958	0.038000	1.000000	0.000016	0.000030	0.000041	-172.032198	-76.347886	166.032448
35649	9.581671	-0.320800	-2.264118	-0.038765	0.006272	0.037998	1.000000	0.000012	0.000033	0.000053	-172.022667	-76.349511	166.016912
35650	9.580984	-0.312932	-2.305007	0.001954	0.010162	0.046629	1.000000	0.000000	0.000016	0.000034	-172.024760	-76.349411	166.018110
35651	9.549489	-0.327546	-2.306964	0.009499	-0.006283	0.016961	1.000000	0.000022	0.000022	0.000044	-172.019255	-76.349683	166.011568
35652	9.569620	-0.333329	-2.293601	-0.008628	-0.009429	0.033590	1.000000	0.000004	0.000015	0.000041	-172.017587	-76.349360	166.009352
35653	9.588980	-0.330311	-2.321633	0.014419	-0.008009	0.058856	1.000000	0.000011	0.000019	0.000039	-172.015866	-76.349692	166.007133
35654	9.581204	-0.316229	-2.303641	0.000285	0.007380	0.046632	1.000000	-0.000003	0.000012	0.000043	-172.014268	-76.348926	166.004170
35655	9.589827	-0.340396	-2.279718	-0.027585	-0.013985	0.050213	1.000000	0.000001	0.000014	0.000014	-172.026068	-76.348821	166.019081
35656	9.581331	-0.317337	-2.302961	-0.000580	0.005984	0.046633	1.000000	0.000016	0.000030	0.000041	-172.022343	-76.350193	166.016206
35657	9.573595	-0.303347	-2.284796	-0.014727	0.021375	0.034411	1.000000	0.000015	0.000018	0.000046	-172.016935	-76.350009	166.010970
35658	9.581431	-0.319067	-2.302307	-0.001440	0.004598	0.046634	1.000000	0.000007	0.000000	0.000034	-172.019116	-76.348070	166.013070
35659	9.561367	-0.314870	-2.315196	0.015887	0.006366	0.030011	1.000000	0.000012	0.000011	0.000036	-172.019108	-76.347606	166.010473
35660	9.600776	-0.316644	-2.330356	0.021180	0.005320	0.071909	1.000000	0.000002	0.000009	0.000031	-172.023129	-76.346698	166.013830
35661	9.569971	-0.339910	-2.291168	-0.012391	-0.015702	0.033578	1.000000	0.000009	0.000007	0.000045	-172.020123	-76.345344	166.020394
35662	9.573687	-0.307196	-2.283896	-0.016808	0.017890	0.034415	1.000000	-0.000004	0.000019	0.000047	-172.016608	-76.345386	166.015279
35663	9.590142	-0.346397	-2.277486	-0.030957	-0.019570	0.050194	1.000000	0.000010	0.000025	0.000023	-172.022620	-76.346354	166.024694
35664	9.581686	-0.323440	-2.300632	-0.003954	0.000406	0.046634	1.000000	0.000016	0.000030	0.000041	-172.018900	-76.347725	166.021824
35665	9.573189	-0.300506	-2.323970	0.023046	0.020384	0.043080	1.000000	0.000010	0.000005	0.000025	-172.024761	-76.346422	166.025662
35666	9.570266	-0.343574	-2.289391	-0.014517	-0.019172	0.033569	1.000000	0.000015	0.000018	0.000046	-172.019271	-76.346319	166.020788
35667	9.573281	-0.302129	-2.323382	0.022176	0.018992	0.043085	1.000000	0.000011	0.000019	0.000039	-172.017841	-76.346319	166.022390
35668	9.581885	-0.326558	-2.299365	-0.005673	-0.002372	0.046633	1.000000	0.000004	0.000015	0.000041	-172.016182	-76.345996	166.020182
35669	9.561900	-0.322350	-2.311963	0.011630	-0.000594	0.030019	1.000000	0.000021	0.000027	0.000028	-172.018225	-76.347286	166.025671
35670	9.573471	-0.304422	-2.322299	0.020916	0.016905	0.043091	1.000000	0.000009	0.000007	0.000045	-172.014728	-76.345932	166.022206
35671	9.554164	-0.308955	-2.293753	-0.002926	0.014096	0.017806	1.000000	0.000009	0.000012	0.000029	-172.019154	-76.345478	166.035590
35672	9.569865	-0.339601	-2.328682	0.024069	-0.018780	0.042234	1.000000	0.000012	0.000033	0.000053	-172.009826	-76.346989	166.026408
35673	9.582227	-0.330586	-2.297364	-0.007788	-0.005878	0.046630	1.000000	0.000016	0.000030	0.000041	-172.006389	-76.348329	166.025699
35674	9.593826	-0.312614	-2.307619	0.001492	0.011618	0.059708	1.000000	0.000009	0.000012	0.000029	-172.010347	-76.347863	166.029809
35675	9.542248	-0.322163	-2.322644	0.026780	-0.002282	0.013413	1.000000	0.000003	0.000023	0.000045	-172.006885	-76.348187	166.023404
35676	9.593941	-0.314259	-2.306915	0.000618	0.010231	0.059709	1.000000	0.000008	0.000014	0.000048	-172.001470	-76.347640	166.017787
35677	9.581751	-0.325041	-2.337283	0.031633	-0.004078	0.055315	1.000000	0.000007	0.000020	0.000032	-172.003774	-76.348059	166.024102
35678	9.554666	-0.314549	-2.290900	-0.005903	0.009234	0.017810	1.000000	0.000000	0.000016	0.000034	-172.005881	-76.347958	166.025311
35679	9.574074	-0.311499	-2.318874	0.017065	0.010631	0.043107	1.000000	0.000018	0.000023	0.000037	-172.004162	-76.348428	166.022327
35680	9.531015	-0.344765	-2.310188	0.014969	-0.023933	0.000328	1.000000	-0.000011	0.000016	0.000049	-172.000727	-76.348026	166.016474
35681	9.566371	-0.298117	-2.300555	0.002504	0.025338	0.030901	1.000000	0.000024	0.000012	0.000021	-172.006684	-76.347581	166.025508
35682	9.610605	-0.357212	-2.298854	-0.015659	-0.030735	0.075430	1.000000	0.000003	0.000023	0.000045	-172.003111	-76.348064	166.021150
35683	9.554958	-0.318399	-2.289147	-0.008034	0.005761	0.017811	1.000000	0.000015	0.000018	0.000046	-171.997846	-76.347993	166.018963
35684	9.590664	-0.354066	-2.311153	0.001225	-0.029634	0.058825	1.000000	0.000004	0.000015	0.000041	-171.996196	-76.347668	166.016762
35685	9.570674	-0.349845	-2.323837	0.018552	-0.027831	0.042224	1.000000	0.000007	0.000020	0.000032	-171.998253	-76.348144	166.019679
35686	9.566648	-0.301909	-2.298909	0.000418	0.021860	0.030910	1.000000	0.000010	0.000005	0.000025	-172.004136	-76.346869	166.025947
35687	9.575172	-0.326205	-2.275016	-0.027439	0.000480	0.034407	1.000000	0.000004	0.000015	0.000041	-172.002610	-76.346480	166.024181
35688	9.594551	-0.323229	-2.303137	-0.004466	0.001861	0.059714	1.000000	0.000006	0.000008	0.000038	-172.002883	-76.345347	166.024136
35689	9.555204	-0.322571	-2.287535	-0.010549	0.001597	0.017810	1.000000	-0.000001	0.000022	0.000017	-172.012576	-76.346165	166.034729
35690	9.606233	-0.305737	-2.313097	0.004382	0.018642	0.072819	1.000000	0.000022	0.000022	0.000044	-172.007030	-76.346501	166.030613
35691	9.563151	-0.339008	-2.304390	0.002313	-0.015895	0.030013	1.000000	0.000011	0.000019	0.000039	-172.005357	-76.346645	166.028328
35692	9.587033	-0.311190	-2.283873	-0.019852	0.015181	0.047510	1.000000	0.000016	0.000030	0.000041	-172.001651	-76.348012	166.025470
35693	9.594215	-0.318217	-2.342552	0.034569	0.002957	0.068434	1.000000	0.000006	0.000008	0.000038	-172.001815	-76.346994	166.022276
35694	9.574898	-0.322658	-2.313940	0.010756	0.000200	0.043122	1.000000	0.000007	0.000020	0.000032	-172.003858	-76.347335	166.024238
35695	9.555624	-0.327073	-2.285141	-0.013065	-0.002568	0.017807	1.000000	0.000006	0.000028	0.000035	-172.004340	-76.348436	166.030772
35696	9.575074	-0.324005	-2.313024	0.009900	-0.001198	0.043123	1.000000	0.000007	0.000020	0.000032	-172.006385	-76.348776	166.032736
35697	9.575115	-0.324702	-2.312755	0.009473	-0.001890	0.043123	1.000000	0.000006	0.000008	0.000038	-172.006644	-76.347619	166.029588
35698	9.567360	-0.310579	-2.294787	-0.004647	0.013529	0.030924	1.000000	0.000003	0.000023	0.000045	-172.003080	-76.348101	166.025239
35699	9.583006	-0.341172	-2.329825	0.022333	-0.019395	0.055322	1.000000	0.000002	0.000009	0.000031	-172.007241	-76.347240	166.029995
35700	9.555856	-0.330644	-2.283655	-0.015169	-0.006030	0.017803	1.000000	0.000006	0.000008	0.000038	-172.007519	-76.346107	166.029954
35701	9.575244	-0.327657	-2.311805	0.007799	-0.004665	0.043124	1.000000	0.000012	0.000011	0.000036	-172.007537	-76.345459	166.024117
35702	9.599121	-0.299714	-2.291384	-0.014372	0.026399	0.060635	1.000000	0.000021	0.000027	0.000028	-172.009443	-76.346682	166.027576
35703	9.567561	-0.314179	-2.293458	-0.006757	0.010064	0.030927	1.000000	0.000002	0.000003	0.000047	-172.006186	-76.344792	166.023763
35704	9.575387	-0.330004	-2.310876	0.006514	-0.006746	0.043123	1.000000	0.000003	0.000023	0.000045	-172.002627	-76.345274	166.019418
35705	9.547603	-0.310791	-2.305979	0.010153	0.011200	0.014348	1.000000	0.000010	0.000005	0.000025	-172.008615	-76.344078	166.026972
35706	9.587737	-0.321344	-2.279509	-0.025754	0.005451	0.047507	1.000000	0.000019	0.000035	0.000031	-172.008604	-76.346108	166.028280
35707	9.559371	-0.293588	-2.315675	0.018995	0.027977	0.027485	1.000000	0.000013	0.000026	0.000050	-172.001179	-76.346808	166.016718
35708	9.587275	-0.314333	-2.319856	0.014519	0.008633	0.056258	1.000000	0.000007	0.000020	0.000032	-172.003229	-76.347148	166.018685
35709	9.567964	-0.318771	-2.291145	-0.009273	0.005895	0.030928	1.000000	0.000011	0.000019	0.000039	-172.001719	-76.347299	166.018742
35710	9.579608	-0.300841	-2.301471	-0.000013	0.023359	0.044068	1.000000	0.000000	0.000016	0.000034	-172.003840	-76.347197	166.019964
35711	9.575883	-0.335271	-2.308064	0.003581	-0.011627	0.043120	1.000000	0.000013	0.000026	0.000050	-171.996722	-76.347956	166.015348
35712	9.575963	-0.336212	-2.307594	0.003158	-0.012320	0.043120	1.000000	0.000002	0.000023	0.000045	-171.993167	-76.348437	166.011007
35713	9.563802	-0.346817	-2.337920	0.034164	-0.026607	0.038738	1.000000	0.000012	0.000017	0.000019	-172.000970	-76.348603	166.018093
35714	9.568317	-0.322476	-2.289151	-0.011382	0.002416	0.030927	1.000000	-0.000001	0.000024	0.000037	-172.001174	-76.349308	166.017164
35715	9.576170	-0.338069	-2.306465	0.001886	-0.014412	0.043117	1.000000	0.000009	0.000012	0.000029	-172.005322	-76.348866	166.023418
35716	9.588449	-0.328802	-2.275445	-0.029974	-0.001518	0.047496	1.000000	0.000011	0.000019	0.000039	-172.003617	-76.348981	166.021977
35717	9.567842	-0.315898	-2.329579	0.028484	0.004887	0.039698	1.000000	0.000012	0.000011	0.000036	-172.003906	-76.348386	166.022381
35718	9.576273	-0.340282	-2.305709	0.000634	-0.016499	0.043114	1.000000	-0.000001	0.000004	0.000040	-172.004263	-76.346811	166.021600
35719	9.576341	-0.341116	-2.305303	0.000214	-0.017195	0.043113	1.000000	0.000015	0.000038	0.000044	-171.998706	-76.348998	166.016942
35720	9.580240	-0.308083	-2.297878	-0.004220	0.016391	0.044081	1.000000	0.000002	0.000007	0.000011	-172.012114	-76.348171	166.030040
35721	9.560935	-0.312412	-2.269095	-0.027976	0.013686	0.018737	1.000000	0.000026	0.000040	0.000049	-172.002522	-76.350697	166.016022
35722	9.600438	-0.314613	-2.283856	-0.022793	0.012459	0.060647	1.000000	0.000012	0.000011	0.000036	-172.002739	-76.350003	166.016736
35723	9.576651	-0.343907	-2.303599	-0.001452	-0.019969	0.043108	1.000000	0.000007	0.000020	0.000032	-172.004825	-76.350361	166.016004
35724	9.600541	-0.316112	-2.283216	-0.023636	0.011070	0.060646	1.000000	0.000008	0.000014	0.000048	-171.999438	-76.349809	166.010409
35725	9.588396	-0.327012	-2.313461	0.007366	-0.003217	0.056269	1.000000	0.000008	0.000034	0.000046	-171.994065	-76.351477	166.007234
35726	9.549131	-0.326375	-2.297481	0.001345	-0.003364	0.014359	1.000000	0.000003	0.000041	0.000022	-171.999730	-76.354321	166.012477
35727	9.577005	-0.346895	-2.301682	-0.003138	-0.022753	0.043101	1.000000	0.000007	0.000000	0.000034	-172.002005	-76.352476	166.014496
35728	9.580834	-0.314133	-2.294584	-0.007568	0.010833	0.044087	1.000000	0.000001	0.000011	0.000050	-171.996690	-76.351483	166.008155
35729	9.580908	-0.314888	-2.294171	-0.008006	0.010141	0.044087	1.000000	0.000009	0.000032	0.000026	-172.000596	-76.353207	166.011956
35730	9.608774	-0.335458	-2.298375	-0.012510	-0.009249	0.072825	1.000000	0.000021	0.000007	0.000030	-172.002663	-76.352146	166.015570
35731	9.568807	-0.326143	-2.324197	0.022585	-0.004835	0.039714	1.000000	-0.000001	0.000024	0.000037	-172.003007	-76.352846	166.016978
35732	9.573308	-0.301875	-2.275477	-0.022955	0.024198	0.031907	1.000000	0.000009	0.000012	0.000029	-172.006986	-76.352376	166.021107
35733	9.568911	-0.327486	-2.323580	0.021736	-0.006222	0.039715	1.000000	0.000004	0.000015	0.000041	-172.005427	-76.352025	166.019792
35734	9.561178	-0.313216	-2.305623	0.007635	0.009228	0.027536	1.000000	0.000016	0.000016	0.000026	-172.009336	-76.351995	166.024668
35735	9.549586	-0.332583	-2.294698	-0.002460	-0.009600	0.014354	1.000000	0.000016	0.000010	0.000043	-172.005898	-76.351045	166.021531
35736	9.576831	-0.344762	-2.340339	0.034139	-0.024450	0.051894	1.000000	0.000002	0.000023	0.000045	-172.002357	-76.351525	166.017202
35737	9.549685	-0.334415	-2.294021	-0.003304	-0.010985	0.014353	1.000000	0.000027	0.000013	0.000048	-171.995060	-76.350813	166.011933
35738	9.573007	-0.298007	-2.315024	0.015605	0.024586	0.040726	1.000000	0.000007	0.000020	0.000032	-171.997123	-76.351151	166.013913
35739	9.589231	-0.337290	-2.308518	0.001440	-0.012959	0.056264	1.000000	-0.000001	0.000024	0.000037	-171.997424	-76.351936	166.014663
35740	9.569884	-0.341701	-2.279792	-0.022322	-0.015634	0.030897	1.000000	0.000011	0.000019	0.000039	-171.995731	-76.352048	166.013233
35741	9.561583	-0.318749	-2.303186	0.004686	0.004372	0.027541	1.000000	0.000016	0.000016	0.000026	-171.999653	-76.352020	166.017505
35742	9.581637	-0.324381	-2.289800	-0.013504	0.001109	0.044086	1.000000	0.000000	0.000016	0.000034	-172.001789	-76.351917	166.018741
35743	9.573361	-0.301417	-2.313117	0.013493	0.021113	0.040737	1.000000	0.000006	0.000027	0.000035	-172.002030	-76.353000	166.020864
35744	9.589553	-0.340865	-2.306657	-0.000686	-0.016431	0.056259	1.000000	0.000001	0.000011	0.000050	-171.996726	-76.352006	166.014531
35745	9.562390	-0.330348	-2.260406	-0.038125	-0.002946	0.018712	1.000000	0.000007	0.000020	0.000032	-171.998848	-76.352290	166.017454
35746	9.589074	-0.333888	-2.347420	0.039561	-0.013271	0.065089	1.000000	0.000012	0.000013	0.000056	-171.989717	-76.351510	166.008457
35747	9.554154	-0.308383	-2.283452	-0.011552	0.016373	0.015370	1.000000	0.000010	0.000024	0.000023	-171.995510	-76.352434	166.015560
35748	9.578132	-0.362535	-2.294572	-0.012059	-0.037329	0.043050	1.000000	0.000007	0.000020	0.000032	-171.997578	-76.352771	166.017544
35749	9.550438	-0.343208	-2.289585	-0.008388	-0.019284	0.014337	1.000000	-0.000001	0.000024	0.000037	-171.997797	-76.353431	166.016889
35750	9.573838	-0.306651	-2.310452	0.010504	0.016266	0.040750	1.000000	0.000014	0.000023	0.000030	-171.999794	-76.354208	166.019620
35751	9.590046	-0.346051	-2.303831	-0.003679	-0.021284	0.056249	1.000000	0.000001	0.000031	0.000048	-171.994286	-76.355487	166.011891
35752	9.581776	-0.323245	-2.327205	0.023328	-0.001275	0.052923	1.000000	0.000005	0.000008	0.000038	-171.994588	-76.354350	166.011869
35753	9.581785	-0.323883	-2.327082	0.022906	-0.001968	0.052924	1.000000	0.000010	0.000005	0.000025	-172.000438	-76.353074	166.016966
35754	9.574599	-0.318306	-2.267793	-0.032285	0.008955	0.031907	1.000000	0.000022	0.000022	0.000044	-171.994922	-76.353399	166.012876
35755	9.581890	-0.325497	-2.326422	0.022056	-0.003347	0.052925	1.000000	0.000011	0.000019	0.000039	-171.992997	-76.353475	166.003817
35756	9.570305	-0.344856	-2.315311	0.011977	-0.022155	0.039708	1.000000	0.000006	0.000027	0.000035	-171.993150	-76.354618	166.003654
35757	9.574298	-0.311936	-2.307839	0.007551	0.011430	0.040759	1.000000	0.000014	0.000023	0.000030	-171.995079	-76.355430	166.006347
35758	9.582150	-0.327748	-2.325037	0.020793	-0.005428	0.052927	1.000000	0.000006	0.000022	0.000052	-171.987792	-76.355682	165.998615
35759	9.582741	-0.337211	-2.283317	-0.020727	-0.010653	0.044068	1.000000	0.000009	0.000012	0.000028	-171.991708	-76.355212	166.000961
35760	9.574990	-0.322782	-2.265511	-0.034813	0.004821	0.031901	1.000000	0.000010	0.000005	0.000025	-171.997614	-76.353933	166.007248
35761	9.570610	-0.348511	-2.313505	0.009885	-0.025617	0.039702	1.000000	0.000012	0.000033	0.000053	-171.988304	-76.355508	165.999405
35762	9.586797	-0.305811	-2.275398	-0.025993	0.021542	0.045126	1.000000	0.000002	0.000009	0.000031	-171.992367	-76.354596	166.002798
35763	9.602367	-0.336376	-2.310466	0.000906	-0.011487	0.069454	1.000000	0.000009	0.000012	0.000028	-171.996315	-76.354104	166.007700
35764	9.562472	-0.327007	-2.336271	0.036049	-0.006991	0.036405	1.000000	0.000009	0.000026	0.000043	-171.992717	-76.355021	166.004130
35765	9.566971	-0.302952	-2.287548	-0.009480	0.022063	0.028604	1.000000	0.000016	0.000010	0.000043	-171.989134	-76.354095	166.001484
35766	9.594180	-0.315211	-2.333416	0.027069	0.007133	0.066163	1.000000	0.000004	-0.000004	0.000044	-171.987676	-76.351484	165.999460
35767	9.554764	-0.314590	-2.318034	0.021118	0.007107	0.024246	1.000000	0.000018	0.000022	0.000037	-171.985947	-76.352014	166.001299
35768	9.594797	-0.325520	-2.291406	-0.014877	0.001212	0.057288	1.000000	0.000002	0.000023	0.000045	-171.982423	-76.352491	165.996986
35769	9.587134	-0.311229	-2.273243	-0.028958	0.016686	0.045127	1.000000	0.000009	0.000032	0.000026	-171.986353	-76.354319	166.003437
35770	9.562786	-0.331753	-2.334314	0.033515	-0.011146	0.036410	1.000000	0.000005	0.000008	0.000038	-171.986664	-76.353181	166.003422
35771	9.571103	-0.356173	-2.310297	0.005649	-0.032546	0.039685	1.000000	0.000011	0.000019	0.000039	-171.985095	-76.353219	166.006594
35772	9.555136	-0.318358	-2.315982	0.018998	0.003644	0.024252	1.000000	0.000009	0.000026	0.000043	-171.981500	-76.354136	166.003028
35773	9.574696	-0.315622	-2.343761	0.041876	0.004878	0.049658	1.000000	0.000009	0.000026	0.000043	-171.977938	-76.355035	166.001400
35774	9.586996	-0.306430	-2.312546	0.010002	0.017749	0.054017	1.000000	0.000014	0.000023	0.000030	-171.979944	-76.355809	166.004139
35775	9.555394	-0.320790	-2.314582	0.017735	0.001571	0.024255	1.000000	-0.000001	0.000018	0.000054	-171.972643	-76.355644	165.991872
35776	9.575427	-0.326796	-2.301086	-0.000479	-0.001734	0.040769	1.000000	0.000002	0.000023	0.000045	-171.969124	-76.356121	165.987562
35777	9.575468	-0.327492	-2.300818	-0.000901	-0.002431	0.040769	1.000000	0.000010	0.000005	0.000025	-171.975125	-76.354847	165.995821
35778	9.575522	-0.328258	-2.300485	-0.001324	-0.003124	0.040768	1.000000	0.000020	0.000029	0.000048	-171.967705	-76.355975	165.989591
35779	9.555637	-0.324095	-2.313120	0.016039	-0.001198	0.024258	1.000000	0.000011	0.000019	0.000039	-171.966042	-76.356032	165.989305
35780	9.575147	-0.321290	-2.341146	0.038912	0.000023	0.049671	1.000000	0.000005	0.000008	0.000038	-171.966359	-76.354893	165.989295
35781	9.583935	-0.354352	-2.275694	-0.030037	-0.025909	0.044016	1.000000	0.000018	0.000022	0.000037	-171.964562	-76.355417	165.985938
35782	9.548004	-0.311398	-2.294643	0.001115	0.012911	0.012106	1.000000	0.000005	0.000008	0.000038	-171.964881	-76.354278	165.985929
35783	9.587523	-0.313724	-2.309381	0.006165	0.011510	0.054029	1.000000	0.000015	0.000038	0.000044	-171.959343	-76.356304	165.982722
35784	9.595845	-0.338202	-2.285173	-0.021691	-0.009896	0.057271	1.000000	0.000005	0.000008	0.000038	-171.959663	-76.355165	165.982715
35785	9.568147	-0.318824	-2.280462	-0.017962	0.008218	0.028613	1.000000	-0.000007	0.000013	0.000036	-171.961847	-76.354667	165.981632
35786	9.575948	-0.334486	-2.297811	-0.004731	-0.008660	0.040764	1.000000	0.000000	0.000016	0.000034	-171.964005	-76.354562	165.982886
35787	9.587720	-0.316641	-2.308165	0.004479	0.008736	0.054033	1.000000	0.000004	0.000015	0.000041	-171.962364	-76.354218	165.979978
35788	9.556072	-0.330910	-2.310358	0.012223	-0.007417	0.024261	1.000000	0.000012	0.000011	0.000036	-171.962610	-76.353518	165.980716
35789	9.567832	-0.312999	-2.320784	0.021434	0.009977	0.037534	1.000000	0.000009	0.000012	0.000028	-171.966599	-76.353040	165.984693
35790	9.547904	-0.308660	-2.333672	0.038813	0.011913	0.021036	1.000000	0.000016	0.000010	0.000043	-171.963093	-76.352113	165.982022
35791	9.603884	-0.358388	-2.300830	-0.011009	-0.030945	0.069406	1.000000	0.000015	0.000038	0.000044	-171.957644	-76.354201	165.981187
35792	9.560277	-0.300189	-2.302043	0.006501	0.024088	0.025391	1.000000	0.000002	0.000007	0.000011	-171.971069	-76.353373	165.994303
35793	9.588020	-0.320833	-2.306339	0.001918	0.004569	0.054037	1.000000	-0.000011	0.000016	0.000049	-171.967808	-76.352930	165.991916
35794	9.580343	-0.306683	-2.288278	-0.012156	0.020066	0.041890	1.000000	0.000016	0.000030	0.000040	-171.964151	-76.354282	165.989105
35795	9.588173	-0.322416	-2.305485	0.001058	0.003182	0.054037	1.000000	0.000009	0.000012	0.000028	-171.968211	-76.353729	165.994628
35796	9.568282	-0.317976	-2.318253	0.018441	0.005127	0.037544	1.000000	-0.000001	0.000024	0.000037	-171.968458	-76.354431	165.993739
35797	9.588299	-0.323821	-2.304760	0.000211	0.001793	0.054038	1.000000	0.000004	0.000015	0.000041	-171.966890	-76.354092	165.991270
35798	9.568355	-0.319558	-2.317735	0.017595	0.003741	0.037546	1.000000	0.000011	-0.000001	0.000042	-171.965378	-76.351918	165.990005
35799	9.580612	-0.310507	-2.286639	-0.014293	0.016599	0.041894	1.000000	0.000015	0.000038	0.000044	-171.959880	-76.354030	165.985865
35800	9.580696	-0.311068	-2.286210	-0.014716	0.015906	0.041894	1.000000	0.000002	0.000007	0.000011	-171.973307	-76.353202	165.998981
35801	9.592494	-0.293047	-2.296582	-0.005509	0.033292	0.055188	1.000000	0.000002	0.000023	0.000045	-171.969705	-76.353684	165.988662
35802	9.588582	-0.327489	-2.303066	-0.001911	-0.001674	0.054038	1.000000	0.000009	0.000026	0.000042	-171.966127	-76.354597	165.985111
35803	9.560514	-0.299644	-2.339533	0.042911	0.020991	0.034360	1.000000	0.000015	0.000018	0.000046	-171.960866	-76.354484	165.982028
35804	9.580511	-0.305623	-2.326088	0.024677	0.017651	0.050849	1.000000	0.000004	0.000015	0.000041	-171.959279	-76.354151	165.979881
35805	9.588738	-0.330052	-2.302049	-0.004438	-0.006109	0.054035	1.000000	0.000012	0.000011	0.000036	-172.023318	-76.349649	166.031174
35806	9.568834	-0.325799	-2.314885	0.012949	-0.004162	0.037553	1.000000	0.000015	0.000018	0.000046	-172.018171	-76.349513	166.026617
35807	9.580657	-0.308009	-2.325173	0.022141	0.013203	0.050862	1.000000	0.000022	0.000019	0.000024	-172.022220	-76.349873	166.031864
35808	9.557193	-0.345837	-2.303521	0.002468	-0.023627	0.024243	1.000000	-0.000012	0.000016	0.000049	-172.019137	-76.349456	166.026337
35809	9.561252	-0.313062	-2.296270	-0.001976	0.009946	0.025417	1.000000	0.000019	0.000015	0.000034	-172.019541	-76.349168	166.028374
35810	9.588977	-0.333781	-2.300515	-0.006584	-0.009622	0.054031	1.000000	-0.000002	0.000010	0.000023	-172.027638	-76.348465	166.035442
35811	9.589013	-0.334402	-2.300276	-0.007013	-0.010322	0.054030	1.000000	0.000004	0.000015	0.000041	-172.026242	-76.348109	166.032835
35812	9.557337	-0.348542	-2.302517	0.000758	-0.026428	0.024236	1.000000	0.000002	0.000009	0.000031	-172.030587	-76.347179	166.036494
35813	9.573158	-0.297003	-2.306013	0.005928	0.025207	0.038739	1.000000	0.000009	0.000012	0.000028	-172.034727	-76.346638	166.038640
35814	9.596848	-0.351386	-2.317219	0.005329	-0.028641	0.066160	1.000000	0.000012	0.000011	0.000036	-172.035246	-76.345919	166.039636
35815	9.565522	-0.283463	-2.287769	-0.008565	0.040023	0.026610	1.000000	0.000001	0.000030	0.000048	-172.030007	-76.347163	166.033522
35816	9.577034	-0.347831	-2.329604	0.022291	-0.027383	0.049685	1.000000	0.000010	0.000005	0.000025	-172.036187	-76.345862	166.040067
35817	9.581096	-0.314994	-2.322426	0.017837	0.006189	0.050878	1.000000	0.000015	0.000018	0.000046	-172.031038	-76.345666	166.038358
35818	9.561628	-0.319193	-2.293858	-0.005841	0.003648	0.025420	1.000000	0.000005	0.000013	0.000021	-172.039060	-76.345399	166.046172
35819	9.569419	-0.334920	-2.311163	0.007351	-0.013267	0.037551	1.000000	0.000015	0.000018	0.000046	-172.033911	-76.345175	166.044611
35820	9.561739	-0.320681	-2.293188	-0.006710	0.002249	0.025420	1.000000	0.000007	0.000020	0.000032	-172.036275	-76.345490	166.046877
35821	9.557360	-0.346389	-2.341125	0.037947	-0.028217	0.033212	1.000000	0.000002	0.000023	0.000045	-172.032940	-76.345900	166.040652
35822	9.593586	-0.308890	-2.289937	-0.015785	0.016232	0.055220	1.000000	0.000023	0.000014	0.000041	-172.029637	-76.345391	166.038989
35823	9.565969	-0.289531	-2.285136	-0.012013	0.034427	0.026627	1.000000	-0.000008	0.000020	0.000039	-172.030090	-76.345651	166.034497
35824	9.601447	-0.325414	-2.306826	-0.003008	-0.001392	0.067349	1.000000	0.000007	0.000020	0.000032	-172.032456	-76.345965	166.036764
35825	9.549878	-0.334493	-2.322007	0.022604	-0.014796	0.021083	1.000000	0.000029	0.000025	0.000042	-172.027161	-76.346671	166.035692
35826	9.601583	-0.327086	-2.306024	-0.003871	-0.002800	0.067348	1.000000	-0.000003	0.000012	0.000043	-172.025924	-76.345884	166.033062
35827	9.562143	-0.326229	-2.290719	-0.009725	-0.002645	0.025417	1.000000	0.000005	0.000008	0.000038	-172.026491	-76.344632	166.034110
35828	9.573988	-0.308388	-2.301070	-0.000543	0.014698	0.038762	1.000000	0.000014	0.000023	0.000030	-172.028784	-76.345384	166.037124
35829	9.570015	-0.342634	-2.307562	0.003044	-0.020270	0.037541	1.000000	-0.000001	0.000024	0.000037	-172.029235	-76.346035	166.035388
35830	9.601810	-0.329988	-2.304662	-0.005608	-0.005609	0.067346	1.000000	0.000011	0.000019	0.000039	-172.027852	-76.346122	166.034251
35831	9.594125	-0.315635	-2.286756	-0.019669	0.009919	0.055221	1.000000	0.000009	0.000012	0.000028	-172.032066	-76.345597	166.038502
35832	9.574246	-0.311272	-2.299604	-0.002263	0.011896	0.038765	1.000000	0.000015	0.000018	0.000046	-172.026934	-76.345457	166.033958
35833	9.590161	-0.350779	-2.293039	-0.016511	-0.025754	0.053990	1.000000	0.000007	0.000020	0.000032	-172.029218	-76.345741	166.035139
35834	9.585803	-0.285728	-2.350885	0.047551	0.033026	0.061145	1.000000	0.000022	0.000021	0.000044	-172.024013	-76.346038	166.031341
35835	9.574433	-0.313665	-2.298502	-0.003553	0.009797	0.038767	1.000000	-0.000007	0.000013	0.000036	-172.026453	-76.345462	166.030462
35836	9.578550	-0.280822	-2.291290	-0.007999	0.043364	0.040005	1.000000	0.000004	0.000015	0.000041	-172.025148	-76.345112	166.028582
35837	9.542465	-0.319981	-2.341610	0.044897	-0.002470	0.017986	1.000000	-0.000004	0.000039	0.000044	-172.021734	-76.347440	166.017710
35838	9.586855	-0.306114	-2.266449	-0.036289	0.021244	0.043099	1.000000	0.000004	0.000015	0.000041	-172.020429	-76.347090	166.015830
35839	9.574393	-0.308270	-2.338084	0.035808	0.011474	0.047802	1.000000	0.000015	0.000038	0.000044	-172.015181	-76.349225	166.012211
35840	9.578834	-0.374951	-2.279462	-0.029116	-0.048703	0.040606	1.000000	-0.000009	0.000001	0.000042	-172.015936	-76.347193	166.010982
35841	9.570757	-0.351989	-2.303070	-0.002095	-0.028683	0.037520	1.000000	0.000007	0.000020	0.000032	-172.018252	-76.347526	166.011734
35842	9.594806	-0.324333	-2.282677	-0.024380	0.002193	0.055216	1.000000	0.000016	0.000010	0.000043	-172.015033	-76.346577	166.009333
35843	9.578534	-0.368603	-2.320226	0.010666	-0.046327	0.049633	1.000000	0.000014	0.000004	0.000032	-172.017440	-76.345035	166.012250
35844	9.582681	-0.335797	-2.312950	0.006222	-0.012761	0.050886	1.000000	0.000016	0.000030	0.000040	-172.014081	-76.346366	166.009725
35845	9.578631	-0.370213	-2.319569	0.009804	-0.047730	0.049627	1.000000	0.000018	0.000003	0.000040	-172.012725	-76.344569	166.011163
35846	9.582393	-0.328745	-2.353839	0.046423	-0.009684	0.059933	1.000000	0.000015	0.000016	0.000026	-172.016931	-76.344511	166.016322
35847	9.582868	-0.338085	-2.311844	0.004925	-0.014861	0.050884	1.000000	0.000029	0.000045	0.000040	-172.011394	-76.347481	166.012130
35848	9.574881	-0.315132	-2.335168	0.031943	0.005158	0.047821	1.000000	0.000010	0.000005	0.000025	-172.017585	-76.346179	166.018683
35849	9.575312	-0.324522	-2.293327	-0.009553	-0.000016	0.038768	1.000000	0.000026	0.000040	0.000049	-172.008372	-76.348482	166.009793
35850	9.575086	-0.316770	-2.334108	0.031081	0.003758	0.047824	1.000000	0.000014	0.000023	0.000030	-172.010674	-76.349232	166.012816
35851	9.567794	-0.310935	-2.274661	-0.024027	0.014834	0.026654	1.000000	0.000014	0.000023	0.000030	-172.012835	-76.349949	166.012741
35852	9.595171	-0.323198	-2.320034	0.012371	-0.000345	0.064264	1.000000	0.000014	0.000023	0.000030	-172.015138	-76.350699	166.015765
35853	9.575364	-0.318709	-2.332704	0.029784	0.001659	0.047829	1.000000	0.000006	0.000027	0.000035	-172.015520	-76.351768	166.015387
35854	9.548151	-0.307749	-2.286458	-0.007466	0.015439	0.010219	1.000000	0.000000	0.000016	0.000034	-172.017974	-76.351644	166.016922
35855	9.579949	-0.295243	-2.283616	-0.016153	0.030052	0.040044	1.000000	-0.000001	0.000018	0.000054	-172.011071	-76.351401	166.010703
35856	9.564014	-0.348202	-2.279650	-0.022162	-0.022936	0.025371	1.000000	0.000005	0.000008	0.000038	-172.011684	-76.350243	166.010969
35857	9.547941	-0.301456	-2.327044	0.032311	0.017813	0.019293	1.000000	0.000012	0.000017	0.000019	-172.019492	-76.350421	166.014331
35858	9.575916	-0.330875	-2.289895	-0.013419	-0.006317	0.038761	1.000000	-0.000009	0.000001	0.000042	-172.020255	-76.348390	166.013108
35859	9.587434	-0.304460	-2.341863	0.036804	0.015462	0.061234	1.000000	0.000002	0.000009	0.000030	-172.024568	-76.347432	166.015998
35860	9.587456	-0.305051	-2.341696	0.036375	0.014758	0.061237	1.000000	0.000002	0.000009	0.000030	-172.028929	-76.346501	166.019671
35861	9.587816	-0.314343	-2.300063	-0.005129	0.009590	0.052159	1.000000	0.000004	0.000015	0.000041	-172.027691	-76.346057	166.023184
35862	9.544462	-0.256135	-2.301656	0.012530	0.064839	0.008495	1.000000	0.000005	0.000008	0.000038	-172.028305	-76.344897	166.023450
35863	9.560276	-0.295449	-2.295140	-0.001747	0.027156	0.023628	1.000000	-0.000016	0.000022	0.000025	-172.036483	-76.345550	166.030131
35864	9.599811	-0.298036	-2.309839	0.003167	0.025489	0.065566	1.000000	0.000022	0.000016	0.000061	-172.023872	-76.344951	166.018789
35865	9.579952	-0.293824	-2.322731	0.020589	0.027503	0.049144	1.000000	-0.000007	0.000013	0.000036	-172.026425	-76.344346	166.018778
35866	9.568179	-0.313175	-2.311607	0.010570	0.008792	0.035737	1.000000	0.000019	0.000037	0.000051	-172.017424	-76.346253	166.010721
35867	9.588171	-0.319319	-2.297897	-0.007729	0.005370	0.052160	1.000000	-0.000005	0.000019	0.000047	-172.014365	-76.346206	166.005463
35868	9.556481	-0.333459	-2.300018	0.000114	-0.010617	0.022326	1.000000	0.000018	0.000022	0.000037	-172.012924	-76.346725	166.005085
35869	9.584435	-0.363155	-2.262736	-0.045628	-0.034771	0.041751	1.000000	0.000009	0.000007	0.000045	-172.009887	-76.345308	166.003617
35870	9.588282	-0.321901	-2.297073	-0.009020	0.003257	0.052160	1.000000	0.000009	0.000007	0.000045	-172.006759	-76.343920	166.000483
35871	9.563957	-0.342590	-2.358341	0.053475	-0.024522	0.043527	1.000000	0.000030	0.000017	0.000039	-172.003453	-76.343779	166.001610
35872	9.589267	-0.349358	-2.172294	-0.133046	-0.011544	0.024849	1.000000	0.000019	0.000015	0.000034	-172.003920	-76.343491	166.003370
35873	9.564325	-0.352769	-2.316434	0.011559	-0.030389	0.034422	1.000000	0.000018	0.000003	0.000039	-172.002608	-76.341687	166.002856
35874	9.591632	-0.365058	-2.362118	0.047922	-0.045623	0.072043	1.000000	0.000013	0.000009	0.000016	-172.012474	-76.341047	166.013562
35875	9.612149	-0.288628	-2.317386	0.007987	0.035744	0.079008	1.000000	0.000018	0.000003	0.000039	-172.011087	-76.339273	166.009901
35876	9.572039	-0.369816	-2.333694	0.023874	-0.048761	0.046516	1.000000	0.000014	0.000004	0.000032	-172.013536	-76.337740	166.013053
35877	9.560559	-0.298176	-2.332645	0.033272	0.021803	0.032761	1.000000	0.000019	0.000034	0.000031	-172.013809	-76.339693	166.013225
35878	9.584375	-0.361268	-2.302070	-0.008456	-0.036626	0.050824	1.000000	0.000000	0.000016	0.000034	-172.016272	-76.339569	166.014768
35879	9.568449	-0.314606	-2.349312	0.046008	0.004131	0.044864	1.000000	0.000006	0.000027	0.000035	-172.016746	-76.340635	166.015673
35880	9.576518	-0.338952	-2.325098	0.018129	-0.017301	0.047842	1.000000	-0.000007	0.000013	0.000036	-172.019286	-76.340075	166.016472
35881	9.576583	-0.339554	-2.324743	0.017694	-0.018001	0.047842	1.000000	-0.000005	0.000025	0.000030	-172.023528	-76.340943	166.017271
35882	9.549401	-0.328495	-2.278336	-0.019511	-0.004147	0.010214	1.000000	0.000011	0.000039	0.000037	-172.022033	-76.343305	166.016036
35883	9.596717	-0.346127	-2.310314	-0.001039	-0.022144	0.064247	1.000000	0.000006	0.000027	0.000035	-172.022499	-76.344393	166.016534
35884	9.554344	-0.313479	-2.187546	-0.106483	0.019812	-0.006700	1.000000	0.000000	0.000016	0.000034	-172.024965	-76.344268	166.018080
35885	9.565328	-0.369198	-2.270814	-0.034659	-0.043250	0.025266	1.000000	-0.000009	0.000006	0.000025	-172.033116	-76.343076	166.024612
35886	9.597148	-0.356465	-2.267992	-0.043382	-0.028706	0.055109	1.000000	0.000014	0.000023	0.000030	-172.035430	-76.343822	166.027647
35887	9.589147	-0.333405	-2.291812	-0.016363	-0.008674	0.052148	1.000000	-0.000004	-0.000022	0.000032	-172.041828	-76.339334	166.033219
35888	9.608721	-0.330535	-2.320083	0.006380	-0.007671	0.077685	1.000000	0.000012	0.000017	0.000019	-172.049790	-76.339500	166.041790
35889	9.569934	-0.246852	-2.273516	-0.020991	0.077480	0.026367	1.000000	0.000001	-0.000006	0.000016	-172.061634	-76.337105	166.055396
35890	9.592802	-0.284119	-2.367474	0.060412	0.032390	0.071786	1.000000	0.000018	0.000022	0.000037	-172.060204	-76.337622	166.055029
35891	9.550170	-0.242911	-2.286094	-0.003976	0.078829	0.009978	1.000000	0.000014	0.000023	0.000030	-172.062472	-76.338327	166.058573
35892	9.577553	-0.255359	-2.331511	0.032358	0.063548	0.047616	1.000000	0.000004	0.000015	0.000041	-172.061194	-76.337974	166.056715
35893	9.597011	-0.244230	-2.400581	0.096128	0.068999	0.082315	1.000000	0.000003	0.000043	0.000042	-172.057907	-76.340640	166.053687
35894	9.557967	-0.251853	-2.343340	0.049368	0.064897	0.031232	1.000000	0.000006	0.000042	0.000049	-172.050850	-76.343146	166.046181
35895	9.613517	-0.301993	-2.309995	-0.000690	0.021667	0.079052	1.000000	0.000001	0.000030	0.000048	-172.045862	-76.344335	166.040897
35896	9.573958	-0.292571	-2.335509	0.034640	0.026473	0.046266	1.000000	0.000010	0.000060	0.000054	-172.034920	-76.348890	166.029868
35897	9.542658	-0.315512	-2.295538	0.001465	0.006095	0.007258	1.000000	0.000023	0.000055	0.000056	-172.022227	-76.352767	166.021240
35898	9.546570	-0.373818	-2.277721	-0.022387	-0.049606	0.008809	1.000000	-0.000001	0.000038	0.000051	-172.015239	-76.354835	166.012982
35899	9.563074	-0.331312	-2.239345	-0.058317	-0.002514	0.014489	1.000000	0.000008	0.000034	0.000046	-172.010101	-76.356497	166.004786
35900	9.578316	-0.353857	-2.315451	0.009478	-0.031342	0.047820	1.000000	0.000016	0.000010	0.000043	-172.006908	-76.355541	166.002404
35901	9.558718	-0.358018	-2.286994	-0.014117	-0.033732	0.022264	1.000000	0.000019	0.000015	0.000034	-172.007458	-76.355196	166.004466
35902	9.566230	-0.365479	-2.345651	0.040086	-0.046276	0.043512	1.000000	0.000018	0.000017	0.000053	-171.998613	-76.354818	165.996543
35903	9.578644	-0.365049	-2.273233	-0.032860	-0.037898	0.038645	1.000000	0.000021	0.000007	0.000030	-172.001009	-76.353706	165.998293
35904	9.578638	-0.365693	-2.273154	-0.033288	-0.038600	0.038641	1.000000	0.000022	-0.000000	0.000027	-172.005299	-76.351798	166.004333
35905	9.585914	-0.364462	-2.373283	0.061942	-0.046703	0.069066	1.000000	0.000029	0.000025	0.000042	-172.000090	-76.352455	166.003832
35906	9.590668	-0.348779	-2.283143	-0.024589	-0.022036	0.052110	1.000000	0.000015	0.000016	0.000026	-172.004318	-76.352391	166.009009
35907	9.578358	-0.350716	-2.354935	0.047492	-0.031817	0.056983	1.000000	0.000014	0.000023	0.000030	-172.006657	-76.353105	166.013466
35908	9.586167	-0.366571	-2.371936	0.060650	-0.048815	0.069063	1.000000	0.000023	0.000033	0.000038	-172.003253	-76.354861	166.011714
35909	9.583327	-0.335776	-2.263755	-0.039478	-0.007846	0.040021	1.000000	0.000011	0.000058	0.000034	-172.001572	-76.359419	166.010452
35910	9.586600	-0.368053	-2.369957	0.059780	-0.050219	0.069062	1.000000	0.000004	0.000055	0.000036	-172.000026	-76.363621	166.008366
35911	9.575676	-0.304698	-2.326898	0.028149	0.015936	0.046310	1.000000	0.000001	0.000054	0.000009	-172.011500	-76.368099	166.019005
35912	9.564402	-0.340710	-2.232249	-0.063912	-0.011618	0.014448	1.000000	0.000017	0.000069	0.000035	-172.007899	-76.373977	166.016275
35913	9.569048	-0.316454	-2.182922	-0.109407	0.017508	0.006666	1.000000	0.000004	0.000035	0.000039	-172.006412	-76.375851	166.013566
35914	9.584589	-0.347410	-2.217345	-0.082666	-0.015792	0.030817	1.000000	-0.000015	0.000036	0.000039	-172.007005	-76.377943	166.011387
35915	9.549434	-0.312591	-2.194929	-0.092370	0.018888	-0.009717	1.000000	0.000007	0.000020	0.000032	-172.009351	-76.378228	166.014267
35916	9.561403	-0.294667	-2.205430	-0.083238	0.036149	0.003775	1.000000	-0.000015	-0.000005	0.000024	-172.019556	-76.375847	166.022025
35917	9.584643	-0.349026	-2.216859	-0.083953	-0.017896	0.030802	1.000000	-0.000010	-0.000014	0.000028	-172.027876	-76.372415	166.029879
35918	9.568980	-0.310715	-2.223398	-0.070511	0.018447	0.015848	1.000000	-0.000003	-0.000010	0.000026	-172.036151	-76.369431	166.037098
35919	9.596025	-0.314444	-2.311009	0.006813	0.007540	0.062698	1.000000	-0.000001	-0.000037	0.000025	-172.046407	-76.363358	166.048461
35920	9.580456	-0.284701	-2.276550	-0.020779	0.039443	0.038551	1.000000	-0.000003	-0.000030	0.000028	-172.054804	-76.358095	166.055781
35921	9.572418	-0.261663	-2.300953	0.006254	0.059488	0.035686	1.000000	-0.000007	-0.000027	0.000041	-172.057492	-76.353012	166.053743
35922	9.575879	-0.319545	-2.284625	-0.017600	0.003781	0.037122	1.000000	-0.000017	-0.000037	0.000032	-172.066032	-76.346881	166.059563
35923	9.579620	-0.269464	-2.360998	0.060013	0.046213	0.056979	1.000000	0.000001	-0.000011	0.000033	-172.070530	-76.343691	166.064005
35924	9.595354	-0.317599	-2.313362	0.004680	0.004022	0.062701	1.000000	0.000002	0.000003	0.000047	-172.067498	-76.341865	166.060139
35925	9.559923	-0.274342	-2.332811	0.036029	0.043160	0.031409	1.000000	0.000014	0.000004	0.000032	-172.069951	-76.340355	166.063198
35926	9.587296	-0.286747	-2.378359	0.072309	0.027792	0.069066	1.000000	-0.000004	0.000017	0.000027	-172.076178	-76.340457	166.068161
35927	9.563681	-0.333122	-2.315056	0.011747	-0.013250	0.032826	1.000000	0.000032	0.000046	0.000067	-172.057793	-76.343132	166.052749
35928	9.580065	-0.282272	-2.318048	0.016841	0.038258	0.047786	1.000000	0.000016	0.000030	0.000040	-172.054481	-76.344452	166.050267
35929	9.583772	-0.340357	-2.300516	-0.007015	-0.017455	0.049186	1.000000	0.000016	0.000030	0.000040	-172.051280	-76.345750	166.051127
35930	9.556353	-0.320972	-2.295585	-0.003117	0.000952	0.020756	1.000000	0.000031	0.000031	0.000053	-172.040401	-76.347045	166.042580
35931	9.584015	-0.342383	-2.299202	-0.007872	-0.018861	0.049183	1.000000	0.000022	0.000041	0.000042	-172.035109	-76.349603	166.037924
35932	9.568775	-0.312953	-2.263415	-0.035453	0.013062	0.025047	1.000000	0.000032	0.000029	0.000033	-172.033543	-76.350982	166.039060
35933	9.529194	-0.303296	-2.289366	-0.000069	0.017962	-0.007669	1.000000	0.000022	0.000021	0.000044	-172.028454	-76.351263	166.037031
35934	9.556770	-0.324603	-2.293338	-0.004826	-0.001856	0.020755	1.000000	0.000023	0.000014	0.000041	-172.025199	-76.350737	166.035404
35935	9.568776	-0.306964	-2.303768	0.004291	0.015386	0.034281	1.000000	0.000021	0.000007	0.000030	-172.027618	-76.349635	166.039328
35936	9.576471	-0.322703	-2.321191	0.017438	-0.001633	0.046347	1.000000	0.000010	0.000005	0.000025	-172.033832	-76.348326	166.045898
35937	9.544601	-0.336598	-2.323888	0.025375	-0.017472	0.016464	1.000000	0.000002	-0.000017	0.000049	-172.030978	-76.344221	166.042258
35938	9.596043	-0.321096	-2.349547	0.039697	-0.001417	0.071944	1.000000	0.000016	0.000010	0.000043	-172.027803	-76.343261	166.039890
35939	9.564061	-0.326459	-2.393434	0.088657	-0.012820	0.051305	1.000000	-0.000012	0.000002	0.000035	-172.032367	-76.341432	166.042628
35940	9.599402	-0.371300	-2.373836	0.056439	-0.053405	0.082536	1.000000	0.000002	0.000003	0.000047	-172.029350	-76.339605	166.038774
35941	9.591581	-0.348476	-2.397495	0.083456	-0.033359	0.079722	1.000000	0.000011	0.000019	0.000039	-172.028057	-76.339653	166.038519
35942	9.576499	-0.327532	-2.320402	0.014859	-0.005853	0.046350	1.000000	0.000003	0.000043	0.000042	-172.024773	-76.342383	166.034446
35943	9.564489	-0.338272	-2.350477	0.045915	-0.020064	0.042063	1.000000	0.000001	0.000030	0.000048	-172.019713	-76.343642	166.026557
35944	9.557117	-0.332556	-2.290750	-0.009106	-0.008872	0.020748	1.000000	0.000001	0.000050	0.000045	-172.014528	-76.347178	166.020354
35945	9.560663	-0.382170	-2.314276	0.008064	-0.060155	0.031322	1.000000	0.000013	0.000045	0.000047	-172.007436	-76.350075	166.014500
35946	9.577167	-0.330943	-2.317157	0.013140	-0.008665	0.046350	1.000000	-0.000005	0.000045	0.000027	-172.011639	-76.353263	166.017234
35947	9.538080	-0.346593	-2.218698	-0.074528	-0.017009	-0.014122	1.000000	0.000006	0.000027	0.000035	-172.012150	-76.354331	166.018233
35948	9.597260	-0.337434	-2.302621	-0.005640	-0.012890	0.062693	1.000000	0.000016	0.000035	0.000024	-172.016256	-76.356540	166.023311
35949	9.570019	-0.326076	-2.256291	-0.042749	0.001128	0.025027	1.000000	0.000002	0.000028	0.000028	-172.020535	-76.357838	166.028984
35950	9.577662	-0.333248	-2.314782	0.011413	-0.011474	0.046350	1.000000	0.000022	0.000019	0.000024	-172.024701	-76.358202	166.034918
35951	9.582059	-0.300226	-2.307528	0.006941	0.022085	0.047847	1.000000	-0.000004	0.000017	0.000027	-172.030891	-76.358255	166.040479
35952	9.574454	-0.285485	-2.289621	-0.007055	0.037710	0.035793	1.000000	-0.000001	0.000022	0.000017	-172.040805	-76.359020	166.049611
35953	9.614047	-0.288002	-2.304149	-0.002312	0.035779	0.077746	1.000000	0.000007	0.000020	0.000032	-172.043241	-76.359281	166.053882
35954	9.574612	-0.286684	-2.288813	-0.007919	0.036306	0.035798	1.000000	0.000018	0.000022	0.000037	-172.041839	-76.359789	166.053538
35955	9.566885	-0.263794	-2.312296	0.019101	0.056360	0.033025	1.000000	0.000011	0.000019	0.000039	-172.040550	-76.359853	166.052872
35956	9.574768	-0.288223	-2.287967	-0.008777	0.034900	0.035802	1.000000	0.000006	0.000027	0.000035	-172.041073	-76.360966	166.053064
35957	9.586864	-0.270541	-2.298195	0.000319	0.052122	0.049368	1.000000	0.000019	0.000015	0.000034	-172.041600	-76.360642	166.054747
35958	9.574895	-0.289626	-2.287258	-0.009636	0.033495	0.035806	1.000000	-0.000000	0.000016	0.000034	-172.044101	-76.360515	166.056323
35959	9.555133	-0.285062	-2.300206	0.007864	0.035628	0.019476	1.000000	0.000004	0.000015	0.000041	-172.042843	-76.360171	166.051281
35960	9.563001	-0.309679	-2.275856	-0.020015	0.014169	0.022241	1.000000	0.000012	0.000033	0.000053	-172.033975	-76.361632	166.042530
35961	9.555379	-0.295580	-2.257950	-0.034019	0.029799	0.010191	1.000000	0.000013	0.000006	0.000052	-172.027281	-76.359942	166.039617
35962	9.563161	-0.320162	-2.233931	-0.061897	0.008339	0.012948	1.000000	0.000005	0.000008	0.000038	-172.027939	-76.358776	166.039917
35963	9.563039	-0.312586	-2.275299	-0.021311	0.012058	0.022241	1.000000	0.000018	-0.000003	0.000056	-172.019340	-76.356104	166.032191
35964	9.570664	-0.328749	-2.292894	-0.008176	-0.004982	0.034290	1.000000	0.000004	-0.000005	0.000044	-172.018233	-76.353468	166.030473
35965	9.598110	-0.350090	-2.297183	-0.012974	-0.024868	0.062663	1.000000	0.000002	0.000003	0.000047	-172.015295	-76.351614	166.027199
35966	9.570506	-0.321981	-2.334301	0.031978	-0.001967	0.043590	1.000000	0.000011	-0.000001	0.000042	-172.014111	-76.349410	166.026225
35967	9.605658	-0.358436	-2.355966	0.040741	-0.038199	0.084009	1.000000	0.000004	0.000015	0.000041	-172.012918	-76.349048	166.023688
35968	9.566156	-0.357173	-2.340876	0.035160	-0.037631	0.042056	1.000000	0.000018	0.000003	0.000039	-172.011657	-76.347277	166.023459
35969	9.598020	-0.344990	-2.338056	0.026315	-0.023269	0.071961	1.000000	0.000015	0.000018	0.000046	-172.006663	-76.347079	166.020467
35970	9.586037	-0.364169	-2.327052	0.016366	-0.041886	0.058375	1.000000	0.000007	0.000020	0.000032	-172.009089	-76.347383	166.022789
35971	9.570727	-0.326084	-2.332827	0.029826	-0.005486	0.043595	1.000000	0.000022	0.000041	0.000042	-172.003859	-76.349921	166.019014
35972	9.586307	-0.365763	-2.325688	0.015506	-0.043295	0.058370	1.000000	0.000011	0.000038	0.000036	-172.002408	-76.352272	166.017824
35973	9.531525	-0.325517	-2.316414	0.023826	-0.005600	0.001644	1.000000	0.000026	0.000038	0.000029	-172.002625	-76.354665	166.017786
35974	9.551463	-0.331508	-2.302485	0.005465	-0.009154	0.017962	1.000000	0.000012	0.000031	0.000033	-172.003075	-76.356209	166.018726
35975	9.595489	-0.300607	-2.309918	0.006134	0.023104	0.061467	1.000000	-0.000002	0.000029	0.000021	-172.011131	-76.357764	166.025921
35976	9.531976	-0.335860	-2.273180	-0.018465	-0.012115	-0.007677	1.000000	0.000016	0.000030	0.000040	-172.007839	-76.359077	166.023457
35977	9.575945	-0.305219	-2.280824	-0.017809	0.020138	0.035831	1.000000	0.000005	0.000008	0.000038	-172.008582	-76.357843	166.026946
35978	9.551798	-0.334180	-2.300709	0.003743	-0.011959	0.017960	1.000000	-0.000008	0.000020	0.000039	-172.009272	-76.358090	166.025660
35979	9.571559	-0.331637	-2.328627	0.026383	-0.011108	0.043600	1.000000	-0.000006	0.000005	0.000032	-172.013802	-76.356708	166.028769
35980	9.576002	-0.307283	-2.280307	-0.019094	0.018029	0.035833	1.000000	-0.000016	-0.000003	0.000044	-172.014706	-76.354246	166.026848
35981	9.571501	-0.332968	-2.328673	0.025519	-0.012514	0.043601	1.000000	-0.000004	-0.000003	0.000029	-172.021174	-76.352024	166.034173
35982	9.551702	-0.328211	-2.341881	0.043032	-0.010352	0.027292	1.000000	0.000001	0.000009	0.000030	-172.025583	-76.351088	166.037884
35983	9.579177	-0.349450	-2.345952	0.038214	-0.030273	0.055639	1.000000	0.000016	0.000010	0.000043	-172.022446	-76.350102	166.035198
35984	9.591258	-0.331904	-2.356410	0.047296	-0.013078	0.069248	1.000000	0.000005	0.000008	0.000038	-172.023113	-76.348935	166.035506
35985	9.563844	-0.311985	-2.351919	0.051247	0.005443	0.040906	1.000000	0.000012	0.000017	0.000019	-172.031102	-76.349040	166.044491
35986	9.595876	-0.308039	-2.307330	0.001380	0.015356	0.061484	1.000000	0.000011	0.000038	0.000036	-172.029662	-76.351390	166.043313
35987	9.576208	-0.303406	-2.320000	0.018890	0.017525	0.045180	1.000000	0.000014	0.000023	0.000030	-172.031985	-76.352095	166.044887
35988	9.588450	-0.294209	-2.288651	-0.013034	0.030307	0.049451	1.000000	0.000019	0.000034	0.000031	-172.032365	-76.354068	166.046579
35989	9.576476	-0.304856	-2.318706	0.018030	0.016116	0.045184	1.000000	0.000022	0.000041	0.000042	-172.027192	-76.356600	166.043032
35990	9.556909	-0.308773	-2.289744	-0.005455	0.013878	0.019533	1.000000	0.000014	0.000043	0.000027	-172.029419	-76.359612	166.046005
35991	9.561456	-0.275914	-2.282231	-0.009944	0.047426	0.021122	1.000000	0.000018	0.000022	0.000037	-172.028175	-76.360036	166.049101
35992	9.561560	-0.285174	-2.240446	-0.051373	0.042315	0.011768	1.000000	0.000019	0.000015	0.000034	-172.028688	-76.359732	166.050898
35993	9.569236	-0.292809	-2.299036	0.002752	0.029657	0.033160	1.000000	0.000010	0.000021	0.000059	-172.018199	-76.359724	166.039945
35994	9.576985	-0.317484	-2.274778	-0.025126	0.008185	0.035833	1.000000	0.000004	0.000015	0.000041	-172.016973	-76.359364	166.038131
35995	9.561655	-0.279457	-2.280966	-0.011668	0.044611	0.021133	1.000000	0.000009	0.000007	0.000045	-172.014057	-76.357891	166.038532
35996	9.576967	-0.310740	-2.315894	0.015004	0.011185	0.045196	1.000000	0.000002	0.000003	0.000047	-172.011068	-76.356061	166.034698
35997	9.564865	-0.329921	-2.305193	0.005072	-0.007411	0.031566	1.000000	-0.000002	0.000004	0.000040	-172.011964	-76.354446	166.035106
35998	9.596755	-0.317650	-2.302363	-0.003807	0.006888	0.061492	1.000000	0.000019	0.000015	0.000034	-172.012479	-76.354141	166.036905
35999	9.596750	-0.318368	-2.302286	-0.004250	0.006180	0.061493	1.000000	-0.000007	-0.000007	0.000038	-172.015378	-76.351230	166.041272
36000	9.592323	-0.352731	-2.308987	-0.000627	-0.028775	0.059884	1.000000	0.000029	0.000025	0.000042	-172.010175	-76.351932	166.038286
36001	9.592402	-0.353631	-2.308522	-0.001058	-0.029483	0.059882	1.000000	0.000002	0.000023	0.000044	-172.007156	-76.352369	166.034396
36002	9.592451	-0.354431	-2.308192	-0.001486	-0.030187	0.059880	1.000000	0.000012	0.000011	0.000036	-172.007753	-76.351632	166.035454
36003	9.604604	-0.336851	-2.318496	0.007582	-0.013010	0.073519	1.000000	0.000018	0.000022	0.000037	-172.006369	-76.352147	166.032657
36004	9.565153	-0.335441	-2.303201	0.002067	-0.012334	0.031562	1.000000	0.000018	0.000022	0.000037	-172.004989	-76.352648	166.032333
36005	9.585045	-0.341478	-2.289318	-0.016319	-0.015935	0.047848	1.000000	0.000007	0.000039	0.000029	-172.007411	-76.355217	166.034963
36006	9.585156	-0.333600	-2.330136	0.024248	-0.012234	0.057232	1.000000	0.000014	0.000023	0.000030	-172.009774	-76.355949	166.038044
36007	9.573091	-0.361091	-2.277849	-0.026678	-0.035223	0.034195	1.000000	0.000007	-0.000000	0.000034	-172.012445	-76.353914	166.042475
36008	9.577591	-0.319672	-2.312093	0.009836	0.002729	0.045209	1.000000	0.000009	0.000032	0.000026	-172.016655	-76.355684	166.046836
36009	9.577683	-0.320415	-2.311612	0.009403	0.002023	0.045209	1.000000	0.000015	0.000018	0.000046	-172.011705	-76.355493	166.043227
36010	9.597492	-0.326460	-2.298057	-0.008985	-0.001581	0.061491	1.000000	-0.000002	0.000010	0.000023	-172.019868	-76.354787	166.050353
36011	9.577757	-0.321615	-2.311137	0.008542	0.000618	0.045210	1.000000	0.000008	0.000012	0.000028	-172.024221	-76.354251	166.054993
36012	9.597553	-0.327555	-2.297645	-0.009847	-0.002989	0.061490	1.000000	0.000001	0.000009	0.000030	-172.028642	-76.353313	166.058715
36013	9.577801	-0.322867	-2.310779	0.007678	-0.000789	0.045211	1.000000	0.000005	0.000008	0.000038	-172.029373	-76.352099	166.060327
36014	9.558038	-0.318222	-2.323958	0.025212	0.001414	0.028934	1.000000	0.000014	0.000003	0.000032	-172.031868	-76.350553	166.063510
36015	9.570156	-0.309011	-2.293080	-0.006726	0.014177	0.033192	1.000000	-0.000006	0.000005	0.000032	-172.036489	-76.349158	166.068136
36016	9.589994	-0.306561	-2.320833	0.015874	0.014968	0.058876	1.000000	0.000004	0.000035	0.000038	-172.035146	-76.351074	166.066234
36017	9.570357	-0.302001	-2.333500	0.033402	0.017175	0.042603	1.000000	0.000016	0.000030	0.000040	-172.031928	-76.352338	166.064522
36018	9.565931	-0.353146	-2.257135	-0.044949	-0.026580	0.022133	1.000000	-0.000002	0.000010	0.000023	-172.040090	-76.351632	166.071647
36019	9.573674	-0.343469	-2.398562	0.091126	-0.030456	0.062386	1.000000	0.000005	0.000027	0.000035	-172.040747	-76.352695	166.073830
36020	9.594816	-0.284182	-2.270721	-0.030904	0.041995	0.051121	1.000000	0.000007	0.000020	0.000032	-172.043196	-76.352995	166.076174
36021	9.585943	-0.343413	-2.325468	0.017768	-0.022801	0.057227	1.000000	0.000014	0.000023	0.000030	-172.045562	-76.353694	166.078045
36022	9.587340	-0.261766	-2.293850	-0.004315	0.061371	0.048528	1.000000	-0.000000	0.000016	0.000034	-172.048091	-76.353563	166.079646
36023	9.563142	-0.290551	-2.313744	0.017282	0.029339	0.030603	1.000000	0.000008	0.000012	0.000028	-172.052432	-76.353045	166.082849
36024	9.583016	-0.288146	-2.341393	0.039873	0.030116	0.056297	1.000000	0.000030	0.000037	0.000036	-172.049010	-76.355212	166.081899
36025	9.567809	-0.266895	-2.264446	-0.028633	0.057781	0.022848	1.000000	-0.000019	0.000018	0.000034	-172.053660	-76.355188	166.085242
36026	9.575568	-0.274368	-2.322915	0.025464	0.045093	0.044292	1.000000	0.000001	0.000030	0.000048	-172.048663	-76.356442	166.079199
36027	9.563482	-0.302103	-2.270396	-0.025440	0.022128	0.021183	1.000000	0.000015	0.000018	0.000046	-172.043749	-76.356219	166.076768
36028	9.566706	-0.343251	-2.335868	0.032716	-0.024808	0.040956	1.000000	0.000004	0.000015	0.000041	-172.042539	-76.355856	166.074968
36029	9.583356	-0.300753	-2.297918	-0.003290	0.022196	0.046881	1.000000	0.000008	0.000014	0.000048	-172.037656	-76.355210	166.070018
36030	9.566786	-0.353541	-2.293693	-0.009133	-0.030611	0.031518	1.000000	0.000008	0.000034	0.000046	-172.032579	-76.356893	166.064718
36031	9.606448	-0.348200	-2.349464	0.036462	-0.028380	0.082914	1.000000	0.000004	0.000015	0.000041	-172.031387	-76.356550	166.060136
36032	9.579003	-0.345439	-2.262172	-0.041495	-0.018555	0.035763	1.000000	0.000001	0.000011	0.000050	-172.026520	-76.355526	166.054192
36033	9.598846	-0.334612	-2.331573	0.022053	-0.013402	0.070904	1.000000	0.000010	0.000004	0.000025	-172.032925	-76.354115	166.064745
36034	9.586695	-0.362244	-2.279197	-0.028832	-0.036357	0.047765	1.000000	0.000024	0.000028	0.000055	-172.022184	-76.354957	166.055504
36035	9.566987	-0.357777	-2.292194	-0.011285	-0.034126	0.031504	1.000000	0.000014	0.000003	0.000032	-172.024671	-76.353402	166.057425
36036	9.579175	-0.340126	-2.302593	-0.002240	-0.016976	0.045199	1.000000	0.000007	0.000020	0.000032	-172.027126	-76.353701	166.059774
36037	9.551799	-0.328671	-2.256647	-0.039213	-0.002740	0.007485	1.000000	0.000019	0.000015	0.000034	-172.027643	-76.353338	166.061231
36038	9.591428	-0.323237	-2.312629	0.006366	-0.000530	0.058898	1.000000	0.000012	0.000011	0.000036	-172.028253	-76.352598	166.062299
36039	9.591403	-0.340996	-2.229297	-0.076026	-0.010015	0.039987	1.000000	0.000015	0.000037	0.000044	-172.023105	-76.354702	166.056155
36040	9.559739	-0.329221	-2.355862	0.054999	-0.012458	0.038399	1.000000	0.000010	0.000004	0.000025	-172.029348	-76.353386	166.062747
36041	9.591626	-0.325356	-2.311511	0.005072	-0.002643	0.058898	1.000000	0.000007	0.000020	0.000032	-172.031858	-76.353640	166.065876
36042	9.571955	-0.320604	-2.324443	0.022625	-0.000406	0.042648	1.000000	0.000007	0.000020	0.000032	-172.034315	-76.353938	166.068227
36043	9.572026	-0.321243	-2.324062	0.022194	-0.001109	0.042649	1.000000	0.000007	0.000020	0.000032	-172.036787	-76.354218	166.069794
36044	9.579571	-0.354096	-2.258424	-0.046664	-0.026987	0.035720	1.000000	0.000005	0.000008	0.000038	-172.037479	-76.353047	166.070120
36045	9.559931	-0.341005	-2.312915	0.011868	-0.020356	0.028938	1.000000	0.000011	0.000019	0.000039	-172.036142	-76.353092	166.068112
36046	9.552324	-0.326544	-2.295209	-0.002086	-0.004656	0.016936	1.000000	-0.000002	0.000004	0.000040	-172.036915	-76.351492	166.067696
36047	9.579788	-0.339219	-2.340635	0.033996	-0.020322	0.054653	1.000000	0.000001	0.000014	0.000014	-172.048853	-76.351382	166.081319
36048	9.584315	-0.314762	-2.292037	-0.011473	0.008832	0.046896	1.000000	0.000014	0.000018	0.000046	-172.043834	-76.351216	166.076867
36049	9.564607	-0.310100	-2.305136	0.006076	0.011082	0.030654	1.000000	0.000010	0.000004	0.000025	-172.050040	-76.349836	166.084270
36050	9.584393	-0.316036	-2.291536	-0.012339	0.007429	0.046896	1.000000	-0.000005	0.000025	0.000030	-172.054428	-76.350744	166.087165
36051	9.572341	-0.326515	-2.322030	0.018737	-0.006727	0.042654	1.000000	0.000005	0.000008	0.000038	-172.055171	-76.349514	166.088449
36052	9.584564	-0.308912	-2.332393	0.027771	0.010407	0.056379	1.000000	0.000007	0.000020	0.000032	-172.057631	-76.349811	166.090802
36053	9.564891	-0.304193	-2.345378	0.045333	0.012657	0.040142	1.000000	0.000019	0.000015	0.000034	-172.058139	-76.349503	166.090839
36054	9.549763	-0.266023	-2.351553	0.058832	0.049153	0.025639	1.000000	0.000004	0.000015	0.000041	-172.056942	-76.349140	166.089049
36055	9.595744	-0.349578	-2.497310	0.180515	-0.045619	0.107111	1.000000	0.000026	0.000043	0.000012	-172.064692	-76.352394	166.099316
36056	9.542136	-0.277381	-2.208548	-0.078472	0.051016	-0.014819	1.000000	0.000028	0.000025	0.000042	-172.059515	-76.353087	166.096352
36057	9.601650	-0.277397	-2.250721	-0.050930	0.050202	0.052872	1.000000	-0.000033	0.000050	0.000033	-172.063982	-76.356808	166.094587
36058	9.600613	-0.334944	-2.405399	0.093209	-0.022261	0.089874	1.000000	0.000004	0.000035	0.000038	-172.062665	-76.358720	166.092709
36059	9.562510	-0.268023	-2.275874	-0.015803	0.054715	0.020410	1.000000	0.000015	0.000037	0.000044	-172.057607	-76.360811	166.087806
36060	9.585426	-0.323080	-2.286227	-0.016641	0.000395	0.046893	1.000000	0.000016	0.000030	0.000040	-172.054360	-76.362113	166.085384
36061	9.570141	-0.301944	-2.209377	-0.085086	0.028141	0.013405	1.000000	0.000014	0.000018	0.000046	-172.049445	-76.361917	166.080820
36062	9.553753	-0.329297	-2.329514	0.032009	-0.011500	0.026424	1.000000	0.000002	0.000023	0.000044	-172.046359	-76.362361	166.076914
36063	9.573420	-0.343886	-2.274413	-0.027393	-0.019548	0.033147	1.000000	0.000008	0.000012	0.000028	-172.050848	-76.361809	166.082565
36064	9.562728	-0.280733	-2.232550	-0.058923	0.046825	0.010917	1.000000	0.000011	-0.000007	0.000058	-172.042298	-76.358704	166.074059
36065	9.581235	-0.344004	-2.374637	0.067212	-0.028623	0.064153	1.000000	-0.000007	0.000013	0.000036	-172.044942	-76.358156	166.073069
36066	9.558172	-0.315855	-2.239081	-0.055709	0.011182	0.009160	1.000000	0.000019	0.000015	0.000034	-172.045480	-76.357841	166.074886
36067	9.593492	-0.327207	-2.384857	0.075804	-0.012213	0.077904	1.000000	0.000010	-0.000001	0.000041	-172.044397	-76.355613	166.073243
36068	9.612987	-0.350429	-2.288489	-0.024564	-0.024633	0.075097	1.000000	0.000014	0.000018	0.000046	-172.039387	-76.355445	166.068798
36069	9.578180	-0.306933	-2.308026	0.006943	0.014846	0.044414	1.000000	-0.000003	0.000012	0.000043	-172.038356	-76.354638	166.065558
36070	9.581229	-0.356598	-2.332139	0.024093	-0.036521	0.054636	1.000000	0.000000	0.000011	0.000050	-172.033511	-76.353612	166.059631
36071	9.546104	-0.338494	-2.227199	-0.067302	-0.010143	-0.004606	1.000000	0.000015	0.000037	0.000044	-172.028432	-76.355702	166.054315
36072	9.593660	-0.339869	-2.341656	0.032683	-0.020114	0.068391	1.000000	0.000013	0.000029	0.000013	-172.038215	-76.357321	166.064966
36073	9.561587	-0.370294	-2.260907	-0.041137	-0.044391	0.019358	1.000000	0.000012	0.000033	0.000053	-172.029432	-76.358704	166.057134
36074	9.574015	-0.344399	-2.312528	0.008853	-0.022910	0.042644	1.000000	0.000008	0.000012	0.000028	-172.033793	-76.358193	166.061615
36075	9.581441	-0.377071	-2.246741	-0.059994	-0.048772	0.035564	1.000000	0.000017	0.000028	0.000020	-172.039821	-76.359594	166.067328
36076	9.578783	-0.311995	-2.304841	0.003936	0.009924	0.044422	1.000000	0.000026	0.000018	0.000031	-172.040281	-76.359707	166.069890
36077	9.589322	-0.385211	-2.304898	-0.006376	-0.062240	0.057071	1.000000	0.000012	0.000011	0.000036	-172.040912	-76.358940	166.070769
36078	9.551501	-0.292785	-2.300327	0.007573	0.027930	0.016227	1.000000	0.000026	-0.000002	0.000034	-172.041496	-76.356776	166.073420
36079	9.586472	-0.329521	-2.321708	0.016144	-0.008613	0.056407	1.000000	0.000018	0.000022	0.000037	-172.040208	-76.357184	166.075187
36080	9.546940	-0.327679	-2.306772	0.010769	-0.007710	0.014442	1.000000	0.000027	-0.000004	0.000014	-172.050077	-76.355106	166.087502
36081	9.571407	-0.291567	-2.327958	0.029241	0.027204	0.041989	1.000000	-0.000002	0.000010	0.000023	-172.058190	-76.354441	166.091235
36082	9.566815	-0.325790	-2.334606	0.032877	-0.007739	0.040197	1.000000	0.000000	0.000011	0.000050	-172.053349	-76.353415	166.085311
36083	9.563826	-0.277668	-2.310179	0.014874	0.042231	0.030015	1.000000	-0.000001	0.000002	0.000020	-172.063466	-76.351878	166.094758
36084	9.591174	-0.298883	-2.314125	0.009943	0.022105	0.058206	1.000000	-0.000000	0.000016	0.000034	-172.066021	-76.351746	166.096382
36085	9.591203	-0.299656	-2.313905	0.009516	0.021401	0.058208	1.000000	0.000009	0.000006	0.000045	-172.062957	-76.350348	166.091081
36086	9.551848	-0.289569	-2.340274	0.045114	0.026679	0.025798	1.000000	0.000005	0.000027	0.000035	-172.063544	-76.351452	166.091334
36087	9.591182	-0.309748	-2.271704	-0.032307	0.015634	0.048655	1.000000	-0.000001	0.000018	0.000053	-172.056907	-76.351209	166.083906
36088	9.559408	-0.315052	-2.315665	0.016798	0.004479	0.028224	1.000000	0.000017	0.000002	0.000039	-172.055684	-76.349423	166.083700
36089	9.567093	-0.331069	-2.332721	0.029869	-0.012661	0.040201	1.000000	-0.000008	0.000040	0.000036	-172.056335	-76.351908	166.082364
36090	9.611254	-0.309277	-2.298553	-0.010654	0.014883	0.074418	1.000000	0.000013	0.000025	0.000049	-172.049449	-76.352546	166.075814
36091	9.559532	-0.325991	-2.272700	-0.025457	-0.001983	0.018662	1.000000	0.000009	0.000026	0.000042	-172.046397	-76.353379	166.073269
36092	9.587094	-0.339024	-2.317765	0.010562	-0.017770	0.056402	1.000000	0.000014	0.000023	0.000030	-172.048792	-76.354102	166.076380
36093	9.559823	-0.319033	-2.313405	0.014643	0.000967	0.028228	1.000000	0.000017	0.000002	0.000039	-172.047625	-76.352286	166.076157
36094	9.555223	-0.353284	-2.319952	0.018280	-0.033973	0.026407	1.000000	0.000021	0.000027	0.000028	-172.049939	-76.353436	166.080011
36095	9.584286	-0.292406	-2.292516	-0.008303	0.030796	0.046251	1.000000	0.000004	0.000015	0.000041	-172.048872	-76.353028	166.079039
36096	9.579695	-0.326648	-2.299017	-0.004666	-0.004145	0.044426	1.000000	0.000007	0.000020	0.000032	-172.051351	-76.353323	166.081410
36097	9.572123	-0.311952	-2.281322	-0.018601	0.011598	0.032454	1.000000	0.000010	0.000004	0.000025	-172.057637	-76.351967	166.087986
36098	9.599658	-0.324946	-2.326525	0.017407	-0.004207	0.070198	1.000000	0.000016	0.000030	0.000040	-172.054411	-76.353265	166.085585
36099	9.579919	-0.328709	-2.297785	-0.005962	-0.006254	0.044424	1.000000	0.000011	0.000038	0.000036	-172.053054	-76.355567	166.084774
36100	9.560321	-0.324099	-2.310639	0.011633	-0.003949	0.028232	1.000000	0.000007	0.000014	0.000048	-172.048142	-76.354969	166.079601
36101	9.572447	-0.315080	-2.279531	-0.020328	0.008786	0.032453	1.000000	-0.000000	0.000016	0.000034	-172.050810	-76.354774	166.083481
36102	9.580110	-0.331080	-2.296650	-0.007257	-0.008365	0.044422	1.000000	0.000011	0.000019	0.000039	-172.049555	-76.354835	166.082452
36103	9.560316	-0.334891	-2.268103	-0.030617	-0.010408	0.018642	1.000000	0.000001	0.000030	0.000048	-172.044697	-76.356069	166.076686
36104	9.587875	-0.348039	-2.313198	0.005382	-0.026226	0.056387	1.000000	0.000019	0.000014	0.000034	-172.045248	-76.355750	166.078514
36105	9.548315	-0.346160	-2.298368	0.000047	-0.025250	0.014418	1.000000	-0.000004	-0.000003	0.000029	-172.051749	-76.353543	166.084569
36106	9.568017	-0.352365	-2.284820	-0.018406	-0.028967	0.030602	1.000000	0.000021	0.000021	0.000044	-172.046677	-76.353798	166.080883
36107	9.592422	-0.325153	-2.264305	-0.040934	0.001547	0.048635	1.000000	0.000012	0.000011	0.000036	-172.047370	-76.353027	166.082346
36108	9.580342	-0.335681	-2.295013	-0.009837	-0.012591	0.044415	1.000000	0.000007	-0.000000	0.000034	-172.049973	-76.351045	166.084805
36109	9.587975	-0.351627	-2.312237	0.003226	-0.029748	0.056378	1.000000	0.000014	0.000023	0.000030	-172.052377	-76.351736	166.087913
36110	9.588044	-0.352266	-2.311856	0.002798	-0.030452	0.056376	1.000000	-0.000000	0.000016	0.000034	-172.054944	-76.351603	166.089547
36111	9.605054	-0.301130	-2.315374	0.007718	0.020861	0.072059	1.000000	0.000008	0.000012	0.000028	-172.059300	-76.351042	166.094635
36112	9.553257	-0.317436	-2.289743	-0.007024	0.004080	0.016267	1.000000	0.000007	0.000020	0.000032	-172.061785	-76.351336	166.097011
36113	9.612735	-0.317661	-2.332325	0.020353	0.002993	0.084025	1.000000	0.000022	-0.000001	0.000027	-172.066108	-76.349393	166.102652
36114	9.585474	-0.297491	-2.328092	0.024462	0.021772	0.055886	1.000000	0.000015	0.000016	0.000026	-172.070397	-76.349305	166.107882
36115	9.565658	-0.301029	-2.299643	0.001114	0.019752	0.030097	1.000000	0.000014	0.000023	0.000030	-172.072809	-76.350005	166.111588
36116	9.593024	-0.322431	-2.303268	-0.003854	-0.000439	0.058235	1.000000	0.000014	0.000023	0.000030	-172.075214	-76.350726	166.114709
36117	9.578106	-0.284116	-2.309446	0.009666	0.036127	0.043934	1.000000	0.000019	0.000014	0.000034	-172.075718	-76.350317	166.118518
36118	9.581018	-0.333715	-2.333579	0.026802	-0.015272	0.054020	1.000000	0.000010	-0.000001	0.000041	-172.074585	-76.348102	166.117573
36119	9.573259	-0.327697	-2.274338	-0.028065	-0.003856	0.032437	1.000000	0.000015	0.000037	0.000043	-172.069495	-76.350204	166.112557
36120	9.558360	-0.289518	-2.280456	-0.014527	0.032710	0.018145	1.000000	0.000005	0.000007	0.000038	-172.070215	-76.349030	166.112904
36121	9.578264	-0.287229	-2.308404	0.007948	0.033316	0.043945	1.000000	0.000010	0.000004	0.000025	-172.076467	-76.347665	166.119609
36122	9.585668	-0.311516	-2.284206	-0.019935	0.011807	0.046275	1.000000	-0.000000	0.000016	0.000034	-172.079037	-76.347531	166.121246
36123	9.561358	-0.340221	-2.304024	0.001732	-0.020091	0.028219	1.000000	-0.000002	0.000024	0.000037	-172.079800	-76.348109	166.123517
36124	9.546462	-0.302041	-2.310181	0.015270	0.016479	0.013940	1.000000	0.000014	0.000018	0.000046	-172.074821	-76.347936	166.119097
36125	9.601016	-0.344432	-2.318102	0.005737	-0.023240	0.070185	1.000000	0.000014	0.000003	0.000032	-172.077468	-76.346349	166.122862
36126	9.554109	-0.318890	-2.327198	0.027900	-0.001394	0.025898	1.000000	0.000011	0.000019	0.000039	-172.076225	-76.346409	166.121844
36127	9.573831	-0.325175	-2.313493	0.009420	-0.005138	0.042064	1.000000	0.000004	0.000015	0.000041	-172.075107	-76.345972	166.121926
36128	9.601151	-0.346799	-2.317191	0.004439	-0.025354	0.070181	1.000000	0.000002	0.000023	0.000044	-172.072063	-76.346413	166.118058
36129	9.566606	-0.302937	-2.336752	0.036014	0.014263	0.039755	1.000000	0.000012	0.000017	0.000019	-172.080162	-76.346528	166.126089
36130	9.593723	-0.332799	-2.298880	-0.009912	-0.010296	0.058225	1.000000	0.000008	0.000034	0.000046	-172.075154	-76.348203	166.120855
36131	9.581491	-0.351827	-2.287788	-0.019754	-0.028765	0.044366	1.000000	0.000019	0.000014	0.000033	-172.075823	-76.347859	166.124538
36132	9.566612	-0.313574	-2.293992	-0.006215	0.007813	0.030112	1.000000	0.000018	0.000022	0.000037	-172.074500	-76.348345	166.124264
36133	9.581637	-0.353326	-2.286946	-0.020608	-0.030170	0.044360	1.000000	0.000005	0.000027	0.000035	-172.075064	-76.349459	166.122913
36134	9.586463	-0.320584	-2.279613	-0.025112	0.003358	0.046270	1.000000	0.000009	0.000026	0.000042	-172.071941	-76.350326	166.119790
36135	9.554545	-0.334113	-2.281981	-0.016909	-0.012046	0.016248	1.000000	0.000004	0.000015	0.000041	-172.070755	-76.349909	166.118648
36136	9.574502	-0.331984	-2.309748	0.005557	-0.011467	0.042061	1.000000	0.000019	0.000014	0.000033	-172.071317	-76.349587	166.120485
36137	9.566993	-0.317568	-2.291852	-0.008365	0.004307	0.030112	1.000000	0.000012	0.000033	0.000053	-172.062611	-76.350969	166.113059
36138	9.582241	-0.349093	-2.326296	0.018176	-0.029349	0.054008	1.000000	0.000012	0.000011	0.000036	-172.063257	-76.350219	166.114154
36139	9.559502	-0.303813	-2.273802	-0.022707	0.019377	0.018165	1.000000	0.000001	0.000009	0.000030	-172.067810	-76.349254	166.118316
36140	9.594353	-0.340534	-2.295115	-0.014218	-0.017341	0.058210	1.000000	0.000001	0.000009	0.000030	-172.072272	-76.348311	166.122069
36141	9.586805	-0.325910	-2.277417	-0.028138	-0.001561	0.046262	1.000000	0.000011	0.000019	0.000039	-172.070960	-76.348310	166.122259
36142	9.586869	-0.326626	-2.277046	-0.028566	-0.002265	0.046261	1.000000	0.000007	0.000020	0.000032	-172.073457	-76.348601	166.124646
36143	9.587179	-0.319003	-2.318201	0.011945	0.001367	0.055933	1.000000	0.000016	0.000010	0.000043	-172.070287	-76.347627	166.120805
36144	9.574880	-0.337923	-2.307317	0.002116	-0.017086	0.042054	1.000000	-0.000019	0.000018	0.000034	-172.074883	-76.347682	166.122258
36145	9.574944	-0.338521	-2.306963	0.001684	-0.017788	0.042053	1.000000	0.000007	0.000020	0.000032	-172.077395	-76.347951	166.125040
36146	9.560111	-0.300101	-2.313202	0.015231	0.018805	0.027846	1.000000	0.000015	0.000015	0.000026	-172.081692	-76.347860	166.130278
36147	9.587389	-0.321437	-2.316994	0.010233	-0.001447	0.055935	1.000000	-0.000002	0.000010	0.000023	-172.089817	-76.347172	166.135819
36148	9.575074	-0.340213	-2.306175	0.000406	-0.019896	0.042049	1.000000	0.000012	0.000011	0.000036	-172.090464	-76.346421	166.136914
36149	9.579877	-0.307357	-2.299101	-0.004111	0.013632	0.043994	1.000000	0.000015	0.000015	0.000026	-172.094768	-76.346276	166.142792
36150	9.579935	-0.308040	-2.298767	-0.004538	0.012929	0.043995	1.000000	0.000011	0.000019	0.000039	-172.093535	-76.346333	166.141782
36151	9.599604	-0.314298	-2.285187	-0.023027	0.009157	0.060136	1.000000	0.000007	-0.000000	0.000034	-172.096070	-76.344323	166.143539
36152	9.580012	-0.309498	-2.298250	-0.005397	0.011526	0.043997	1.000000	0.000004	0.000035	0.000038	-172.094810	-76.346230	166.141719
36153	9.580061	-0.310337	-2.297934	-0.005834	0.010825	0.043997	1.000000	0.000030	-0.000003	0.000041	-172.091663	-76.343767	166.141607
36154	9.552847	-0.290197	-2.293761	-0.001678	0.029688	0.015922	1.000000	-0.000004	0.000017	0.000026	-172.097977	-76.343865	166.146654
36155	9.587721	-0.327044	-2.314835	0.006784	-0.007073	0.055936	1.000000	0.000002	0.000023	0.000044	-172.094985	-76.344294	166.142585
36156	9.572911	-0.288881	-2.321075	0.020337	0.029530	0.041762	1.000000	0.000023	0.000013	0.000041	-172.091820	-76.343735	166.141027
36157	9.567884	-0.331534	-2.286147	-0.016944	-0.009725	0.030097	1.000000	-0.000000	0.000016	0.000034	-172.094427	-76.343576	166.142557
36158	9.580321	-0.314022	-2.296349	-0.007978	0.007308	0.043999	1.000000	0.000005	0.000027	0.000035	-172.095050	-76.344674	166.142844
36159	9.580670	-0.306288	-2.337488	0.032512	0.010930	0.053706	1.000000	-0.000006	0.000005	0.000032	-172.099603	-76.343237	166.148058
36160	9.595272	-0.354469	-2.289154	-0.022827	-0.031408	0.058159	1.000000	0.000028	0.000024	0.000042	-172.094478	-76.343911	166.145139
36161	9.580787	-0.307997	-2.336784	0.031644	0.009526	0.053711	1.000000	0.000014	0.000017	0.000046	-172.089525	-76.343664	166.143028
36162	9.568466	-0.326938	-2.325876	0.021826	-0.008910	0.039803	1.000000	0.000008	0.000012	0.000028	-172.093908	-76.343146	166.147526
36163	9.560948	-0.312322	-2.308119	0.007928	0.006885	0.027870	1.000000	0.000002	0.000023	0.000044	-172.090840	-76.343590	166.142269
36164	9.600621	-0.315791	-2.322272	0.012294	0.004326	0.069844	1.000000	0.000005	0.000027	0.000035	-172.091465	-76.344688	166.142559
36165	9.580757	-0.319374	-2.293789	-0.010997	0.002392	0.043998	1.000000	0.000011	0.000019	0.000039	-172.090243	-76.344725	166.140267
36166	9.588437	-0.335479	-2.310660	0.002046	-0.014811	0.055929	1.000000	0.000011	0.000038	0.000036	-172.088907	-76.347056	166.139196
36167	9.541689	-0.309730	-2.319574	0.024278	0.007170	0.011749	1.000000	0.000008	0.000012	0.000028	-172.093321	-76.346495	166.145252
36168	9.568636	-0.339693	-2.281800	-0.021673	-0.017444	0.030077	1.000000	0.000002	0.000023	0.000044	-172.090300	-76.346934	166.141403
36169	9.569014	-0.332115	-2.322887	0.018826	-0.013829	0.039804	1.000000	0.000019	0.000014	0.000033	-172.090877	-76.346612	166.141778
36170	9.588723	-0.338443	-2.309041	0.000327	-0.017628	0.055925	1.000000	0.000016	0.000030	0.000040	-172.087691	-76.347901	166.139415
36171	9.569194	-0.333595	-2.321931	0.017974	-0.015232	0.039803	1.000000	-0.000005	0.000025	0.000030	-172.092032	-76.348821	166.141398
36172	9.573799	-0.309179	-2.273085	-0.027461	0.013977	0.032067	1.000000	0.000015	0.000037	0.000043	-172.086967	-76.350917	166.136931
36173	9.613483	-0.312674	-2.287184	-0.023112	0.011388	0.074040	1.000000	-0.000000	0.000016	0.000034	-172.089612	-76.350781	166.138332
36174	9.569130	-0.344099	-2.279064	-0.024232	-0.021656	0.030063	1.000000	-0.000000	0.000016	0.000034	-172.092205	-76.350645	166.139989
36175	9.573993	-0.311205	-2.271991	-0.028751	0.011870	0.032066	1.000000	0.000008	0.000012	0.000028	-172.096573	-76.350079	166.145032
36176	9.581604	-0.327203	-2.289145	-0.015712	-0.005341	0.043991	1.000000	0.000019	0.000014	0.000033	-172.097147	-76.349750	166.146878
36177	9.594057	-0.309836	-2.299397	-0.006765	0.011674	0.057924	1.000000	0.000002	0.000023	0.000044	-172.094128	-76.350157	166.143487
36178	9.569654	-0.338664	-2.319301	0.014969	-0.020151	0.039799	1.000000	0.000016	0.000010	0.000043	-172.091054	-76.349170	166.141193
36179	9.581747	-0.329711	-2.288185	-0.017010	-0.007448	0.043987	1.000000	0.000011	0.000019	0.000039	-172.089856	-76.349169	166.141348
36180	9.569743	-0.340301	-2.318695	0.014105	-0.021555	0.039798	1.000000	0.000004	0.000015	0.000041	-172.088719	-76.348799	166.139608
36181	9.586671	-0.297693	-2.280797	-0.021943	0.025370	0.046003	1.000000	0.000008	0.000012	0.000028	-172.093074	-76.348321	166.141999
36182	9.581917	-0.331940	-2.287153	-0.018285	-0.009558	0.043983	1.000000	0.000008	0.000034	0.000045	-172.088098	-76.349991	166.136795
36183	9.594765	-0.306124	-2.338728	0.031569	0.011761	0.067684	1.000000	-0.000004	0.000017	0.000026	-172.094420	-76.350010	166.144131
36184	9.574851	-0.309644	-2.310369	0.008303	0.009860	0.041819	1.000000	0.000014	0.000017	0.000046	-172.089471	-76.349830	166.139736
36185	9.582093	-0.334200	-2.286085	-0.019582	-0.011663	0.043978	1.000000	0.000005	0.000007	0.000038	-172.090172	-76.348642	166.138806
36186	9.606921	-0.298643	-2.307164	-0.001261	0.023050	0.071876	1.000000	0.000005	0.000007	0.000038	-172.090916	-76.347463	166.139171
36187	9.562497	-0.330231	-2.299191	-0.002357	-0.009956	0.027871	1.000000	0.000000	0.000011	0.000050	-172.086189	-76.346420	166.134099
36188	9.574948	-0.312959	-2.309523	0.006589	0.007048	0.041823	1.000000	0.000011	0.000018	0.000039	-172.084973	-76.346474	166.133105
36189	9.587025	-0.303982	-2.278477	-0.025388	0.019743	0.046008	1.000000	0.000017	0.000002	0.000039	-172.083845	-76.344652	166.133849
36190	9.562552	-0.332856	-2.298584	-0.003643	-0.012064	0.027868	1.000000	0.000020	0.000009	0.000050	-172.077049	-76.343429	166.128164
36191	9.562992	-0.325474	-2.339585	0.036850	-0.008461	0.037641	1.000000	0.000015	0.000037	0.000043	-172.071929	-76.345547	166.122243
36192	9.594774	-0.321867	-2.294749	-0.013208	0.001114	0.057925	1.000000	-0.000001	0.000022	0.000017	-172.081904	-76.346303	166.131442
36193	9.555604	-0.311370	-2.321303	0.022543	0.006655	0.025728	1.000000	0.000000	0.000011	0.000050	-172.077092	-76.345300	166.124124
36194	9.567695	-0.302457	-2.290184	-0.009428	0.019353	0.029912	1.000000	0.000011	0.000018	0.000039	-172.075878	-76.345353	166.123131
36195	9.562892	-0.336823	-2.296590	-0.005767	-0.015573	0.027862	1.000000	0.000021	0.000021	0.000044	-172.070858	-76.345602	166.119636
36196	9.582940	-0.334913	-2.324221	0.016630	-0.015101	0.053740	1.000000	0.000011	0.000018	0.000039	-172.069646	-76.345655	166.118645
36197	9.567887	-0.304979	-2.289050	-0.010707	0.017248	0.029914	1.000000	0.000011	0.000018	0.000039	-172.068364	-76.345712	166.116839
36198	9.583055	-0.336577	-2.323507	0.015775	-0.016507	0.053740	1.000000	0.000014	0.000017	0.000046	-172.063424	-76.345530	166.112452
36199	9.563492	-0.331763	-2.336654	0.033429	-0.014080	0.037647	1.000000	0.000008	0.000012	0.000028	-172.067856	-76.344951	166.118562
36200	9.575619	-0.322797	-2.305381	0.001456	-0.001386	0.041827	1.000000	0.000011	0.000033	0.000053	-172.059161	-76.346385	166.109970
36201	9.575679	-0.323589	-2.305020	0.001021	-0.002089	0.041827	1.000000	0.000010	0.000004	0.000025	-172.065466	-76.345018	166.117072
36202	9.568158	-0.308878	-2.287393	-0.012859	0.013737	0.029917	1.000000	0.000011	0.000018	0.000039	-172.064256	-76.345070	166.116083
36203	9.575760	-0.324932	-2.304497	0.000152	-0.003496	0.041827	1.000000	0.000008	0.000012	0.000028	-172.068763	-76.344469	166.122290
36204	9.575816	-0.325650	-2.304162	-0.000276	-0.004199	0.041827	1.000000	0.000002	0.000023	0.000044	-172.065762	-76.344905	166.118459
36205	9.575872	-0.326367	-2.303827	-0.000703	-0.004899	0.041826	1.000000	0.000008	0.000012	0.000028	-172.070085	-76.344381	166.121699
36206	9.583079	-0.350841	-2.279449	-0.028588	-0.026429	0.043928	1.000000	0.000021	0.000021	0.000044	-172.065065	-76.344622	166.118056
36207	9.548830	-0.307037	-2.299195	0.003081	0.013365	0.013834	1.000000	0.000004	0.000015	0.000041	-172.064033	-76.344217	166.117293
36208	9.568455	-0.313394	-2.285535	-0.015442	0.009523	0.029918	1.000000	0.000005	0.000007	0.000038	-172.064789	-76.343037	166.117667
36209	9.588060	-0.319616	-2.271973	-0.033976	0.005680	0.046000	1.000000	0.000010	0.000004	0.000025	-172.071060	-76.341657	166.125786
36210	9.568524	-0.314630	-2.285075	-0.016305	0.008120	0.029918	1.000000	0.000012	0.000031	0.000033	-172.071620	-76.343175	166.126837
36211	9.588628	-0.312577	-2.312561	0.006076	0.008566	0.055814	1.000000	-0.000002	0.000024	0.000037	-172.072344	-76.343849	166.126136
36212	9.568690	-0.316071	-2.284182	-0.017158	0.006716	0.029918	1.000000	0.000004	0.000015	0.000041	-172.071224	-76.343476	166.124411
36213	9.581203	-0.298669	-2.294459	-0.008237	0.023693	0.043912	1.000000	0.000007	0.000020	0.000032	-172.073848	-76.343725	166.127730
36214	9.564318	-0.342582	-2.331709	0.026978	-0.024619	0.037646	1.000000	0.000007	0.000020	0.000032	-172.076372	-76.344011	166.130143
36215	9.588845	-0.315344	-2.311285	0.004356	0.005747	0.055817	1.000000	0.000006	-0.000000	0.000034	-172.078997	-76.342019	166.131806
36216	9.581310	-0.300673	-2.293746	-0.009520	0.021583	0.043916	1.000000	0.000019	0.000014	0.000033	-172.079585	-76.341686	166.133664
36217	9.556831	-0.329303	-2.313763	0.012245	-0.010188	0.025743	1.000000	0.000005	0.000007	0.000037	-172.080391	-76.340482	166.133821
36218	9.568925	-0.320207	-2.282622	-0.019732	0.002499	0.029915	1.000000	0.000014	0.000023	0.000030	-172.082831	-76.341192	166.136975
36219	9.601028	-0.308381	-2.279485	-0.028906	0.016319	0.059991	1.000000	0.000005	0.000007	0.000037	-172.083537	-76.340043	166.136958
36220	9.589015	-0.318820	-2.310103	0.002217	0.002226	0.055819	1.000000	0.000015	0.000015	0.000026	-172.087852	-76.339944	166.142211
36221	9.581529	-0.304120	-2.292378	-0.011651	0.018069	0.043921	1.000000	0.000011	0.000018	0.000039	-172.086569	-76.340019	166.140363
36222	9.557109	-0.332857	-2.312107	0.010121	-0.013695	0.025741	1.000000	0.000008	0.000034	0.000045	-172.081620	-76.341686	166.135185
36223	9.581675	-0.305764	-2.291548	-0.012507	0.016661	0.043922	1.000000	0.000006	-0.000000	0.000034	-172.084290	-76.339695	166.137445
36224	9.589229	-0.321857	-2.308795	0.000508	-0.000589	0.055820	1.000000	0.000019	0.000014	0.000033	-172.084881	-76.339361	166.139304
36225	9.569282	-0.325213	-2.280415	-0.022715	-0.002418	0.029909	1.000000	-0.000005	0.000025	0.000030	-172.089410	-76.340246	166.143140
36226	9.581848	-0.307846	-2.290549	-0.013794	0.014549	0.043924	1.000000	0.000028	0.000024	0.000042	-172.084315	-76.340908	166.140248
36227	9.576977	-0.342280	-2.296913	-0.010131	-0.020373	0.041801	1.000000	0.000014	0.000017	0.000046	-172.079430	-76.340701	166.136738
36228	9.582416	-0.301255	-2.331232	0.026246	0.017424	0.053776	1.000000	0.000007	0.000020	0.000032	-172.081959	-76.340987	166.139155
36229	9.570001	-0.320071	-2.320252	0.016473	-0.000948	0.039757	1.000000	0.000011	0.000018	0.000039	-172.080792	-76.341047	166.137918
36230	9.582131	-0.311067	-2.288927	-0.015507	0.011733	0.043925	1.000000	-0.000003	0.000031	0.000040	-172.079659	-76.342525	166.135398
36231	9.570139	-0.321564	-2.319475	0.015616	-0.002356	0.039758	1.000000	0.000006	-0.000000	0.000034	-172.082353	-76.340521	166.138193
36232	9.577253	-0.345940	-2.295214	-0.012270	-0.023892	0.041791	1.000000	0.000007	0.000020	0.000032	-172.084884	-76.340806	166.140612
36233	9.557761	-0.340952	-2.308227	0.005421	-0.021426	0.025731	1.000000	0.000021	0.000026	0.000028	-172.087264	-76.341958	166.144215
36234	9.582822	-0.305653	-2.328988	0.023680	0.013195	0.053789	1.000000	0.000010	0.000020	0.000059	-172.076829	-76.341922	166.133611
36235	9.589981	-0.330376	-2.304463	-0.004212	-0.008344	0.055815	1.000000	0.000009	0.000026	0.000042	-172.073823	-76.342751	166.130954
36236	9.562936	-0.310072	-2.300175	0.000039	0.010682	0.027870	1.000000	0.000008	0.000012	0.000028	-172.078230	-76.342228	166.135473
36237	9.570553	-0.326211	-2.317117	0.013054	-0.006576	0.039760	1.000000	0.000008	0.000034	0.000045	-172.073231	-76.343920	166.129478
36238	9.570143	-0.335322	-2.275334	-0.028268	-0.011555	0.029888	1.000000	0.000006	-0.000000	0.000034	-172.075873	-76.341931	166.131960
36239	9.583102	-0.309703	-2.327301	0.021545	0.009672	0.053798	1.000000	0.000016	0.000010	0.000043	-172.072839	-76.340968	166.129357
36240	9.575182	-0.303437	-2.268029	-0.033213	0.021254	0.032036	1.000000	0.000004	0.000035	0.000038	-172.071625	-76.342868	166.127583
36241	9.609854	-0.340447	-2.289088	-0.024892	-0.015749	0.071859	1.000000	0.000013	-0.000011	0.000018	-172.081645	-76.339908	166.138719
36242	9.582762	-0.320124	-2.285032	-0.020634	0.003288	0.043922	1.000000	0.000013	0.000025	0.000049	-172.074856	-76.340530	166.132255
36243	9.583337	-0.312767	-2.325923	0.019844	0.006856	0.053804	1.000000	0.000008	0.000034	0.000045	-172.069853	-76.342267	166.125591
36244	9.622556	-0.324883	-2.298511	-0.016829	-0.000214	0.085899	1.000000	0.000004	0.000015	0.000041	-172.068749	-76.341893	166.123880
36245	9.563414	-0.316989	-2.297240	-0.003792	0.004364	0.027874	1.000000	0.000001	0.000009	0.000030	-172.073268	-76.340883	166.127722
36246	9.570993	-0.333079	-2.314321	0.009213	-0.012903	0.039758	1.000000	0.000018	0.000022	0.000037	-172.071993	-76.341354	166.127491
36247	9.563982	-0.310051	-2.338141	0.036248	0.007228	0.037765	1.000000	-0.000006	0.000005	0.000032	-172.076563	-76.339998	166.129746
36248	9.595621	-0.306640	-2.293552	-0.013861	0.016717	0.057970	1.000000	0.000002	0.000023	0.000044	-172.073588	-76.340432	166.125939
36249	9.576115	-0.301754	-2.306690	0.003833	0.019203	0.041929	1.000000	-0.000007	0.000013	0.000036	-172.076299	-76.339850	166.127186
36250	9.576147	-0.302598	-2.306447	0.003406	0.018499	0.041931	1.000000	0.000027	0.000012	0.000048	-172.069449	-76.339041	166.122266
36251	9.595756	-0.309077	-2.292658	-0.015150	0.014607	0.057971	1.000000	0.000007	0.000020	0.000032	-172.071933	-76.339318	166.124015
36252	9.595814	-0.309760	-2.292325	-0.015578	0.013903	0.057972	1.000000	0.000019	0.000014	0.000033	-172.072533	-76.338980	166.125883
36253	9.571309	-0.338364	-2.312247	0.006218	-0.017818	0.039753	1.000000	0.000011	0.000018	0.000039	-172.071278	-76.339015	166.124752
36254	9.563856	-0.323661	-2.294468	-0.007637	-0.001949	0.027873	1.000000	0.000014	0.000023	0.000030	-172.073731	-76.339721	166.127918
36255	9.583993	-0.321818	-2.321982	0.014686	-0.001584	0.053815	1.000000	0.000013	0.000025	0.000049	-172.067001	-76.340299	166.121960
36256	9.576499	-0.307283	-2.304363	0.000831	0.014286	0.041938	1.000000	-0.000009	0.000001	0.000042	-172.067950	-76.338272	166.120870
36257	9.564009	-0.326041	-2.293495	-0.008917	-0.004053	0.027871	1.000000	0.000021	0.000026	0.000028	-172.070207	-76.339448	166.122918
36258	9.584159	-0.324014	-2.320990	0.013411	-0.003694	0.053817	1.000000	0.000014	0.000023	0.000030	-172.072661	-76.340153	166.126085
36259	9.576206	-0.317608	-2.261754	-0.041323	0.007921	0.032025	1.000000	0.000011	0.000018	0.000039	-172.071425	-76.340225	166.123857
36260	9.564235	-0.328166	-2.292248	-0.010193	-0.006158	0.027869	1.000000	0.000011	0.000018	0.000039	-172.070242	-76.340272	166.122892
36261	9.576845	-0.310810	-2.302451	-0.001289	0.010773	0.041943	1.000000	0.000014	0.000023	0.000030	-172.072675	-76.340993	166.126186
36262	9.551819	-0.347697	-2.280914	-0.020370	-0.025195	0.013790	1.000000	0.000016	0.000010	0.000043	-172.069641	-76.339997	166.123923
36263	9.569447	-0.296784	-2.284382	-0.015571	0.025948	0.030070	1.000000	-0.000002	0.000029	0.000020	-172.077761	-76.341539	166.131417
36264	9.572031	-0.346244	-2.308090	0.001522	-0.025547	0.039738	1.000000	0.000019	0.000014	0.000033	-172.078365	-76.341200	166.133288
36265	9.570078	-0.289886	-2.325179	0.024460	0.028800	0.040001	1.000000	0.000000	0.000010	0.000050	-172.073576	-76.340170	166.127234
36266	9.572095	-0.347962	-2.307565	0.000668	-0.026951	0.039734	1.000000	0.000011	0.000018	0.000039	-172.072396	-76.340217	166.126270
36267	9.577165	-0.315241	-2.300517	-0.003852	0.006554	0.041946	1.000000	0.000012	0.000011	0.000035	-172.073133	-76.339490	166.126623
36268	9.604281	-0.337121	-2.304069	-0.008998	-0.013943	0.069839	1.000000	0.000002	0.000023	0.000044	-172.070169	-76.339923	166.122826
36269	9.564725	-0.334917	-2.289225	-0.014030	-0.012482	0.027858	1.000000	0.000004	0.000015	0.000041	-172.069189	-76.339545	166.121031
36270	9.577317	-0.317549	-2.299569	-0.005135	0.004440	0.041946	1.000000	0.000008	0.000012	0.000028	-172.073605	-76.339020	166.125557
36271	9.577884	-0.309946	-2.340770	0.035306	0.007988	0.051887	1.000000	0.000004	0.000015	0.000041	-172.072601	-76.338582	166.125770
36272	9.577403	-0.319109	-2.298992	-0.006002	0.003033	0.041946	1.000000	0.000014	0.000017	0.000046	-172.067702	-76.338392	166.121417
36273	9.577463	-0.319900	-2.298632	-0.006442	0.002329	0.041946	1.000000	0.000007	0.000020	0.000032	-172.070335	-76.338604	166.125343
36274	9.597068	-0.326282	-2.284769	-0.025013	-0.001592	0.057962	1.000000	0.000011	0.000018	0.000039	-172.069159	-76.338650	166.124383
36275	9.577579	-0.321407	-2.297939	-0.007296	0.000921	0.041946	1.000000	0.000004	0.000015	0.000041	-172.068101	-76.338283	166.122005
36276	9.558080	-0.316425	-2.311173	0.010421	0.003438	0.025931	1.000000	0.000008	0.000012	0.000028	-172.072520	-76.337757	166.126533
36277	9.577672	-0.322703	-2.297372	-0.008155	-0.000485	0.041945	1.000000	0.000007	0.000019	0.000032	-172.075089	-76.338013	166.130228
36278	9.577723	-0.323497	-2.297047	-0.008583	-0.001188	0.041945	1.000000	0.000007	0.000014	0.000048	-172.070280	-76.337400	166.125138
36279	9.582834	-0.290886	-2.289940	-0.013123	0.032315	0.044185	1.000000	0.000018	0.000022	0.000037	-172.069124	-76.337811	166.126381
36280	9.546284	-0.329010	-2.340702	0.040262	-0.012738	0.021787	1.000000	-0.000015	0.000015	0.000021	-172.079292	-76.337723	166.134122
36281	9.590463	-0.307416	-2.306669	-0.000561	0.014318	0.056051	1.000000	0.000019	0.000014	0.000033	-172.079805	-76.337386	166.135314
36282	9.589950	-0.316431	-2.264955	-0.041865	0.009367	0.046088	1.000000	0.000012	0.000011	0.000035	-172.080502	-76.336623	166.136451
36283	9.558432	-0.321351	-2.309036	0.007417	-0.001475	0.025935	1.000000	0.000014	0.000017	0.000046	-172.075671	-76.336413	166.132002
36284	9.590072	-0.318087	-2.264209	-0.042724	0.007958	0.046086	1.000000	0.000012	0.000031	0.000033	-172.076264	-76.337924	166.133085
36285	9.570645	-0.313173	-2.277163	-0.025003	0.010484	0.030079	1.000000	0.000009	0.000026	0.000042	-172.073288	-76.338766	166.130395
36286	9.597775	-0.335142	-2.280513	-0.030169	-0.010049	0.057943	1.000000	0.000009	0.000026	0.000042	-172.070247	-76.339619	166.127347
36287	9.578841	-0.321947	-2.335229	0.028426	-0.003275	0.051912	1.000000	0.000006	-0.000000	0.000034	-172.072917	-76.337609	166.130615
36288	9.578335	-0.330942	-2.293431	-0.012875	-0.008223	0.041937	1.000000	0.000004	0.000035	0.000038	-172.071729	-76.339506	166.128868
36289	9.578414	-0.331835	-2.292973	-0.013306	-0.008924	0.041935	1.000000	0.000026	0.000012	0.000048	-172.064878	-76.338666	166.124782
36290	9.591022	-0.314614	-2.303370	-0.004427	0.007979	0.056057	1.000000	0.000001	0.000008	0.000030	-172.069389	-76.337718	166.128574
36291	9.558942	-0.327462	-2.306066	0.003999	-0.007094	0.025934	1.000000	0.000005	0.000013	0.000021	-172.077556	-76.337463	166.136172
36292	9.583607	-0.300391	-2.285474	-0.018688	0.023170	0.044202	1.000000	0.000006	0.000021	0.000051	-172.070885	-76.337658	166.128996
36293	9.566569	-0.344444	-2.322691	0.016562	-0.025101	0.037789	1.000000	0.000007	0.000019	0.000032	-172.073402	-76.337974	166.131614
36294	9.571723	-0.311681	-2.315572	0.012029	0.008402	0.040062	1.000000	0.000011	0.000018	0.000039	-172.072235	-76.338018	166.130662
36295	9.578686	-0.336133	-2.291209	-0.015857	-0.013147	0.041927	1.000000	0.000020	0.000007	0.000030	-172.074732	-76.336881	166.134839
36296	9.571237	-0.321400	-2.273524	-0.029693	0.002755	0.030072	1.000000	-0.000010	0.000028	0.000042	-172.073724	-76.337936	166.131618
36297	9.591410	-0.319568	-2.301072	-0.007405	0.003049	0.056058	1.000000	0.000019	0.000014	0.000033	-172.074230	-76.337612	166.133229
36298	9.591467	-0.320250	-2.300740	-0.007833	0.002345	0.056058	1.000000	0.000007	0.000019	0.000032	-172.076786	-76.337893	166.135670
36299	9.559390	-0.333339	-2.303364	0.000599	-0.012707	0.025929	1.000000	0.000016	0.000010	0.000043	-172.073735	-76.336897	166.132735
36300	9.604136	-0.303804	-2.310849	0.000613	0.018534	0.070197	1.000000	0.000012	0.000011	0.000035	-172.074440	-76.336133	166.133877
36301	9.599076	-0.338043	-2.317308	0.004303	-0.016376	0.067908	1.000000	0.000011	0.000018	0.000039	-172.073178	-76.336254	166.131121
36302	9.559504	-0.335702	-2.302547	-0.000668	-0.014812	0.025926	1.000000	0.000004	0.000015	0.000041	-172.072103	-76.335877	166.129433
36303	9.565278	-0.294705	-2.336863	0.035662	0.022924	0.038228	1.000000	0.000005	0.000027	0.000035	-172.072828	-76.336940	166.130162
36304	9.579145	-0.342864	-2.288292	-0.019689	-0.019471	0.041910	1.000000	0.000005	0.000007	0.000037	-172.073622	-76.335755	166.130566
36305	9.572278	-0.319721	-2.312178	0.007340	0.000673	0.040071	1.000000	0.000012	0.000016	0.000019	-172.081695	-76.335854	166.140016
