// Start Time: Unknown
// Update Rate: 100.0Hz
// Filter Profile: human (46.1)
// Firmware Version: 4.4.0
PacketCounter	Acc_X	Acc_Y	Acc_Z	FreeAcc_X	FreeAcc_Y	FreeAcc_Z	OriInc_q0	OriInc_q1	OriInc_q2	OriInc_q3	Roll	Pitch	Yaw
39573	9.585101	-0.310732	-2.276111	0.000000	0.000000	0.043854	1.000000	0.000005	0.000014	0.000028	-172.233455	-76.521801	165.553263
39574	9.557621	-0.274908	-2.314512	-0.000000	0.000000	0.025029	1.000000	0.000005	0.000014	0.000028	-173.233557	-76.294408	167.148811
39575	9.585230	-0.311807	-2.275421	-0.024579	-0.016323	0.043809	1.000000	0.000004	0.000030	0.000024	-172.730840	-76.411252	166.346471
39576	9.585703	-0.284304	-2.295279	-0.001952	0.009403	0.048081	1.000000	0.000005	0.000003	0.000027	-172.717394	-76.411179	166.333206
39577	9.576509	-0.304432	-2.322093	0.023998	-0.013207	0.045992	1.000000	0.000009	0.000022	0.000050	-172.693154	-76.412497	166.309810
39578	9.580973	-0.309551	-2.298128	-0.000341	-0.014788	0.044901	1.000000	0.000015	0.000013	0.000027	-172.678043	-76.413562	166.296012
39579	9.581000	-0.310183	-2.297930	-0.000345	-0.014781	0.044901	1.000000	0.000016	0.000007	0.000032	-172.660753	-76.413841	166.280086
39580	9.590270	-0.291503	-2.270621	-0.026395	0.007783	0.046989	1.000000	0.000006	0.000019	0.000034	-172.643103	-76.415456	166.262624
39581	9.577097	-0.279281	-2.341232	0.046627	0.012536	0.050264	1.000000	-0.000002	0.000007	0.000045	-172.621688	-76.415678	166.240350
39582	9.609018	-0.320819	-2.278746	-0.025551	-0.019600	0.067990	1.000000	0.000017	0.000012	0.000038	-172.601404	-76.416462	166.221456
39583	9.585947	-0.289493	-2.293614	-0.002056	0.009387	0.048081	1.000000	0.000016	0.000007	0.000032	-172.583957	-76.416720	166.205378
39584	9.557614	-0.309844	-2.291732	0.000529	-0.011512	0.020719	1.000000	0.000007	0.000013	0.000039	-172.564256	-76.417581	166.185914
39585	9.586443	-0.262982	-2.313360	0.020566	0.035128	0.052353	1.000000	0.000007	0.000013	0.000039	-172.544228	-76.418394	166.166133
39586	9.581245	-0.315390	-2.296200	-0.000350	-0.014744	0.044901	1.000000	-0.000004	0.000030	0.000036	-172.526052	-76.421299	166.146973
39587	9.586158	-0.292439	-2.292357	-0.002084	0.009398	0.048081	1.000000	0.000017	0.000012	0.000038	-172.505984	-76.421952	166.128289
39588	9.581350	-0.316904	-2.295553	-0.000372	-0.014748	0.044901	1.000000	0.000007	0.000013	0.000039	-172.486270	-76.422807	166.108813
39589	9.581871	-0.289627	-2.315333	0.022235	0.010980	0.049173	1.000000	0.000006	0.000029	0.000035	-172.467567	-76.425515	166.090277
39590	9.577091	-0.313994	-2.318415	0.023946	-0.013165	0.045992	1.000000	0.000016	0.000007	0.000032	-172.450391	-76.425817	166.074464
39591	9.586362	-0.295436	-2.291121	-0.002176	0.009404	0.048081	1.000000	0.000018	0.000017	0.000043	-172.427277	-76.426643	166.052758
39592	9.577670	-0.287643	-2.337871	0.046501	0.012566	0.050265	1.000000	0.000007	0.000034	0.000040	-172.405346	-76.429929	166.031024
39593	9.577355	-0.316335	-2.317007	0.023750	-0.013185	0.045993	1.000000	-0.000005	0.000036	0.000031	-172.390488	-76.432909	166.015112
39594	9.586686	-0.297839	-2.289453	-0.002299	0.009379	0.048081	1.000000	0.000030	0.000015	0.000053	-172.361279	-76.433783	165.988552
39595	9.577985	-0.290122	-2.336272	0.046221	0.012524	0.050266	1.000000	0.000016	0.000029	0.000034	-172.343217	-76.435658	165.971763
39596	9.558943	-0.291237	-2.307045	0.022757	0.014190	0.024992	1.000000	0.000019	0.000022	0.000049	-172.316612	-76.437355	165.946606
39597	9.586935	-0.300607	-2.288047	-0.002706	0.009309	0.048081	1.000000	0.000008	0.000028	0.000045	-172.295380	-76.438541	165.925486
39598	9.563530	-0.297388	-2.282337	-0.001831	0.012557	0.023900	1.000000	0.000017	0.000033	0.000039	-172.272811	-76.441731	165.904266
39599	9.554398	-0.317727	-2.308810	0.023976	-0.010095	0.021813	1.000000	0.000020	0.000026	0.000055	-172.246611	-76.442643	165.879490
39600	9.587202	-0.303301	-2.286574	-0.002950	0.009222	0.048081	1.000000	0.000005	0.000003	0.000027	-172.233139	-76.442536	165.866202
39601	9.573589	-0.319108	-2.337120	0.047234	-0.011841	0.047089	1.000000	0.000019	0.000011	0.000048	-172.210775	-76.441980	165.845230
39602	9.605917	-0.332734	-2.294634	-0.002318	-0.018250	0.069081	1.000000	-0.000003	0.000024	0.000041	-172.190472	-76.444110	165.823995
39603	9.563826	-0.301655	-2.280537	-0.002567	0.012361	0.023900	1.000000	0.000017	0.000023	0.000038	-172.171450	-76.444485	165.806318
39604	9.563898	-0.302396	-2.280137	-0.002566	0.012361	0.023900	1.000000	0.000006	0.000019	0.000034	-172.153698	-76.446070	165.788760
39605	9.606654	-0.306953	-2.313508	0.019729	0.007380	0.073358	1.000000	0.000006	0.000029	0.000035	-172.138181	-76.447337	165.773343
39606	9.564099	-0.303765	-2.279109	-0.002853	0.012294	0.023900	1.000000	0.000006	0.000029	0.000035	-172.119290	-76.450139	165.754626
39607	9.610724	-0.340650	-2.268650	-0.027541	-0.020035	0.067984	1.000000	0.000006	0.000019	0.000034	-172.105991	-76.450143	165.741707
39608	9.587780	-0.309292	-2.283346	-0.004036	0.008939	0.048081	1.000000	0.000017	0.000023	0.000038	-172.084507	-76.452109	165.721606
39609	9.588395	-0.282104	-2.302991	0.018398	0.034597	0.052359	1.000000	0.000007	0.000034	0.000040	-172.065265	-76.454376	165.702442
39610	9.592875	-0.287130	-2.278801	-0.005939	0.033015	0.051262	1.000000	0.000015	0.000024	0.000028	-172.048936	-76.456625	165.687419
39611	9.588081	-0.311511	-2.281777	-0.004436	0.008705	0.048081	1.000000	0.000017	0.000023	0.000038	-172.032662	-76.457641	165.672089
39612	9.569524	-0.284526	-2.272806	-0.005268	0.036098	0.027081	1.000000	0.000007	0.000023	0.000039	-172.011724	-76.459680	165.651375
39613	9.578352	-0.293976	-2.224995	-0.054056	0.032655	0.024887	1.000000	0.000017	0.000033	0.000039	-171.996521	-76.462633	165.638210
39614	9.592746	-0.318203	-2.256536	-0.028883	0.006840	0.046983	1.000000	0.000006	0.000029	0.000035	-171.977618	-76.465432	165.619504
39615	9.569313	-0.314768	-2.250982	-0.028010	0.009814	0.022803	1.000000	0.000006	0.000019	0.000034	-171.966494	-76.467366	165.608225
39616	9.588579	-0.315185	-2.279177	-0.004548	0.008144	0.048081	1.000000	-0.000005	0.000036	0.000031	-171.950159	-76.471002	165.590882
39617	9.593026	-0.320151	-2.255068	-0.028967	0.006285	0.046983	1.000000	-0.000013	0.000014	0.000041	-171.938664	-76.471903	165.576822
39618	9.593036	-0.320902	-2.254921	-0.028966	0.006284	0.046983	1.000000	0.000017	0.000001	0.000037	-171.919424	-76.471422	165.559007
39619	9.569529	-0.317446	-2.249687	-0.027919	0.009252	0.022803	1.000000	0.000005	0.000014	0.000028	-171.910541	-76.473886	165.550101
39620	9.569581	-0.318060	-2.249376	-0.027916	0.009251	0.022803	1.000000	0.000006	0.000019	0.000034	-171.892725	-76.475464	165.532489
39621	9.598026	-0.299109	-2.250820	-0.030358	0.029846	0.050170	1.000000	-0.000005	0.000004	0.000028	-171.886068	-76.476690	165.524805
39622	9.564712	-0.342852	-2.252530	-0.026053	-0.015193	0.019619	1.000000	0.000005	0.000003	0.000027	-171.872575	-76.476580	165.511508
39623	9.574505	-0.296214	-2.245579	-0.029356	0.032781	0.025991	1.000000	0.000008	0.000007	0.000043	-171.857633	-76.477755	165.497115
39624	9.574535	-0.296820	-2.245371	-0.029359	0.032779	0.025991	1.000000	0.000003	0.000015	0.000017	-171.848193	-76.479131	165.487781
39625	9.588830	-0.320743	-2.277345	-0.003899	0.006620	0.048083	1.000000	0.000005	0.000003	0.000027	-171.841139	-76.481119	165.480429
39626	9.565300	-0.317268	-2.272219	-0.003025	0.009872	0.023902	1.000000	0.000017	0.000001	0.000037	-171.821919	-76.480608	165.462639
39627	9.603628	-0.317555	-2.329607	0.044066	0.006268	0.074456	1.000000	0.000005	0.000003	0.000027	-171.813511	-76.481794	165.452751
39628	9.570181	-0.294727	-2.268735	-0.004573	0.033761	0.027090	1.000000	-0.000006	-0.000001	0.000022	-171.803756	-76.481252	165.441986
39629	9.588780	-0.323017	-2.277236	-0.003653	0.005995	0.048083	1.000000	0.000015	0.000002	0.000026	-171.797974	-76.482052	165.437176
39630	9.598034	-0.304117	-2.250117	-0.029711	0.028560	0.050175	1.000000	0.000003	0.000004	0.000016	-171.789654	-76.482166	165.428945
39631	9.584426	-0.319507	-2.300783	0.020918	0.007243	0.049179	1.000000	-0.000006	-0.000001	0.000022	-171.786369	-76.483505	165.423618
39632	9.579356	-0.277220	-2.241780	-0.030312	0.055630	0.029186	1.000000	-0.000003	-0.000019	0.000037	-171.770579	-76.480678	165.406946
39633	9.546508	-0.292925	-2.264003	-0.003462	0.035878	0.002914	1.000000	0.000003	-0.000007	0.000016	-171.774644	-76.479813	165.411066
39634	9.593487	-0.301558	-2.274357	-0.005233	0.029367	0.051274	1.000000	-0.000006	-0.000012	0.000021	-171.766076	-76.477994	165.401487
39635	9.551245	-0.270074	-2.261211	-0.004994	0.059579	0.006107	1.000000	-0.000005	-0.000035	0.000030	-171.764178	-76.475300	165.397973
39636	9.607407	-0.326182	-2.307739	0.020119	0.003100	0.073359	1.000000	-0.000003	-0.000047	0.000040	-171.748758	-76.469242	165.381749
39637	9.565658	-0.266945	-2.315077	0.042767	0.059013	0.032481	1.000000	-0.000003	-0.000030	0.000036	-171.745635	-76.465792	165.376817
39638	9.560556	-0.291279	-2.319180	0.044457	0.034874	0.029288	1.000000	-0.000004	-0.000041	0.000035	-171.732236	-76.460463	165.362555
39639	9.575271	-0.287330	-2.371839	0.092040	0.034217	0.055663	1.000000	0.000004	0.000009	0.000022	-171.735452	-76.460655	165.365225
39640	9.580151	-0.264232	-2.368512	0.090303	0.058367	0.058857	1.000000	-0.000003	-0.000019	0.000037	-171.719748	-76.457722	165.348612
39641	9.594358	-0.288338	-2.400707	0.115031	0.031979	0.080946	1.000000	-0.000005	0.000015	0.000029	-171.721845	-76.457188	165.348093
39642	9.570872	-0.284912	-2.395422	0.115877	0.035248	0.056768	1.000000	0.000028	0.000005	0.000041	-171.698899	-76.456871	165.327665
39643	9.594469	-0.289899	-2.400076	0.114859	0.031316	0.080951	1.000000	0.000016	0.000039	0.000034	-171.695045	-76.460999	165.324740
39644	9.599550	-0.267021	-2.395944	0.113122	0.055466	0.084148	1.000000	0.000017	0.000033	0.000039	-171.672315	-76.463978	165.303299
39645	9.585479	-0.244363	-2.363047	0.087674	0.080572	0.062075	1.000000	0.000017	0.000044	0.000040	-171.667466	-76.467876	165.299776
39646	9.585068	-0.273251	-2.342038	0.065026	0.054855	0.057778	1.000000	0.000018	0.000038	0.000045	-171.641537	-76.471352	165.275180
39647	9.575948	-0.226929	-2.305619	0.037705	0.104047	0.038907	1.000000	0.000016	0.000050	0.000035	-171.641139	-76.475159	165.275582
39648	9.571234	-0.251508	-2.308035	0.039402	0.079908	0.035707	1.000000	0.000019	0.000054	0.000052	-171.610827	-76.480338	165.246626
39649	9.547865	-0.248495	-2.302234	0.039618	0.082312	0.011539	1.000000	0.000021	0.000020	0.000060	-171.603915	-76.479199	165.240224
39650	9.580131	-0.262487	-2.259579	-0.009954	0.075890	0.033513	1.000000	0.000010	0.000027	0.000056	-171.574525	-76.481276	165.211123
39651	9.576452	-0.231455	-2.303075	0.036523	0.102391	0.038929	1.000000	0.000023	0.000009	0.000069	-171.560760	-76.479506	165.195238
39652	9.547396	-0.280249	-2.281020	0.016480	0.055807	0.007240	1.000000	0.000021	0.000010	0.000059	-171.529882	-76.479547	165.165838
39653	9.575861	-0.262095	-2.282490	0.013219	0.075586	0.034631	1.000000	0.000023	0.000009	0.000069	-171.524501	-76.477237	165.162891
39654	9.594419	-0.291471	-2.290810	0.014035	0.048175	0.055602	1.000000	0.000015	0.000008	0.000081	-171.483916	-76.476759	165.122809
39655	9.613655	-0.292935	-2.319084	0.036839	0.045526	0.080891	1.000000	0.000014	0.000036	0.000078	-171.469858	-76.477297	165.106832
39656	9.608760	-0.318072	-2.322052	0.038541	0.021390	0.077682	1.000000	0.000003	0.000010	0.000072	-171.434979	-76.477191	165.071206
39657	9.593956	-0.323853	-2.269306	-0.010113	0.020416	0.051293	1.000000	0.000031	0.000030	0.000060	-171.433163	-76.476392	165.073402
39658	9.613239	-0.325085	-2.297402	0.013324	0.018719	0.076579	1.000000	0.000003	0.000032	0.000073	-171.395961	-76.478689	165.035437
39659	9.618320	-0.302815	-2.293317	0.011162	0.041902	0.079795	1.000000	0.000012	0.000037	0.000067	-171.385998	-76.480661	165.025271
39660	9.598623	-0.332221	-2.243621	-0.034921	0.017892	0.050183	1.000000	0.000021	0.000042	0.000061	-171.351577	-76.484320	164.992303
39661	9.570946	-0.324951	-2.261367	-0.010760	0.021746	0.027119	1.000000	0.000011	0.000043	0.000062	-171.348922	-76.483577	164.991422
39662	9.561195	-0.306980	-2.204788	-0.060274	0.046016	0.003932	1.000000	0.000021	0.000042	0.000061	-171.314587	-76.487177	164.958560
39663	9.575601	-0.331749	-2.235917	-0.035418	0.019402	0.026006	1.000000	0.000010	0.000060	0.000058	-171.301942	-76.492420	164.943153
39664	9.603537	-0.341470	-2.216654	-0.060666	0.014543	0.049067	1.000000	0.000011	0.000010	0.000060	-171.271727	-76.492466	164.913293
39665	9.585066	-0.314808	-2.207767	-0.061863	0.040861	0.028112	1.000000	0.000011	0.000032	0.000062	-171.268145	-76.494599	164.915595
39666	9.561604	-0.311925	-2.202316	-0.060987	0.044148	0.003936	1.000000	0.000033	0.000008	0.000068	-171.231724	-76.494175	164.881973
39667	9.585081	-0.317586	-2.207302	-0.062443	0.040033	0.028111	1.000000	0.000022	-0.000002	0.000069	-171.220517	-76.490786	164.872565
39668	9.571410	-0.334054	-2.258075	-0.012078	0.019052	0.027123	1.000000	0.000013	-0.000007	0.000075	-171.184540	-76.488513	164.837147
39669	9.575582	-0.339856	-2.234779	-0.036887	0.016757	0.026006	1.000000	0.000023	-0.000030	0.000072	-171.170558	-76.482267	164.823151
39670	9.557488	-0.351913	-2.309652	0.037810	-0.002645	0.026137	1.000000	0.000011	-0.000028	0.000062	-171.142208	-76.477838	164.795299
39671	9.585847	-0.333754	-2.311724	0.034896	0.017410	0.053538	1.000000	0.000011	-0.000017	0.000063	-171.133505	-76.474286	164.787966
39672	9.562218	-0.330606	-2.307025	0.035762	0.020704	0.029364	1.000000	0.000008	-0.000021	0.000047	-171.112349	-76.470906	164.767190
39673	9.561427	-0.359735	-2.287000	0.013075	-0.005719	0.025018	1.000000	0.000013	-0.000001	0.000070	-171.095567	-76.470232	164.750974
39674	9.580547	-0.360944	-2.315811	0.036484	-0.007436	0.050312	1.000000	0.000011	-0.000011	0.000058	-171.068040	-76.467763	164.723892
39675	9.576169	-0.357621	-2.339587	0.060002	-0.006570	0.051436	1.000000	-0.000002	-0.000003	0.000044	-171.070594	-76.463064	164.727315
39676	9.589749	-0.343529	-2.288971	0.009572	0.014406	0.052422	1.000000	-0.000010	-0.000003	0.000055	-171.046296	-76.461460	164.701122
39677	9.580404	-0.363681	-2.315974	0.035434	-0.008803	0.050315	1.000000	-0.000004	0.000009	0.000034	-171.047078	-76.461755	164.701859
39678	9.613942	-0.321419	-2.314118	0.031059	0.036171	0.080950	1.000000	-0.000011	0.000002	0.000050	-171.024776	-76.460912	164.677626
39679	9.561992	-0.337330	-2.306990	0.033862	0.017875	0.029376	1.000000	-0.000013	0.000042	0.000038	-171.028595	-76.462117	164.683788
39680	9.575699	-0.323019	-2.255881	-0.016578	0.038840	0.030359	1.000000	-0.000003	0.000003	0.000039	-171.010986	-76.461465	164.665357
39681	9.557786	-0.334302	-2.330038	0.057858	0.018772	0.030504	1.000000	-0.000025	0.000016	0.000031	-171.016383	-76.462151	164.669439
39682	9.538669	-0.334956	-2.300917	0.034376	0.020482	0.005206	1.000000	0.000016	0.000028	0.000034	-170.997183	-76.464515	164.651666
39683	9.604934	-0.344109	-2.339365	0.054795	0.011655	0.078857	1.000000	-0.000004	0.000009	0.000034	-171.001035	-76.458818	164.653392
39684	9.562246	-0.340550	-2.305464	0.032208	0.016672	0.029384	1.000000	0.000016	0.000007	0.000032	-170.984379	-76.458678	164.638192
39685	9.567287	-0.317586	-2.301914	0.030130	0.040257	0.032622	1.000000	0.000016	0.000007	0.000032	-170.982764	-76.457722	164.638164
39686	9.587228	-0.290370	-2.350716	0.076110	0.064248	0.062291	1.000000	0.000028	0.000005	0.000041	-170.960418	-76.457183	164.618519
39687	9.605699	-0.319095	-2.359052	0.076794	0.036279	0.083230	1.000000	0.000016	0.000007	0.000032	-170.956533	-76.457479	164.615952
39688	9.591559	-0.296130	-2.326754	0.051582	0.062130	0.061165	1.000000	0.000015	0.000013	0.000027	-170.941855	-76.458110	164.602696
39689	9.568119	-0.292645	-2.321358	0.051816	0.064841	0.037001	1.000000	0.000009	0.000022	0.000050	-170.934403	-76.456869	164.596349
39690	9.583061	-0.289082	-2.373459	0.099514	0.064692	0.063438	1.000000	0.000025	0.000001	0.000025	-170.920440	-76.456183	164.584991
39691	9.568917	-0.266053	-2.341213	0.074144	0.089789	0.041381	1.000000	0.000005	0.000014	0.000028	-170.925603	-76.457242	164.594892
39692	9.564676	-0.262469	-2.364560	0.098418	0.091362	0.042515	1.000000	0.000018	0.000017	0.000043	-170.902703	-76.458006	164.573578
39693	9.564011	-0.291234	-2.343876	0.075171	0.064852	0.038151	1.000000	0.000006	0.000029	0.000035	-170.906777	-76.458381	164.581499
39694	9.572733	-0.300572	-2.295921	0.026434	0.061658	0.035882	1.000000	0.000006	0.000040	0.000035	-170.887203	-76.461952	164.562278
39695	9.572836	-0.301475	-2.295374	0.025619	0.060759	0.035889	1.000000	0.000010	0.000016	0.000055	-170.886049	-76.459652	164.567005
39696	9.591380	-0.330242	-2.303317	0.026366	0.033288	0.056816	1.000000	-0.000005	0.000036	0.000031	-170.870373	-76.462833	164.550547
39697	9.577358	-0.307289	-2.270538	0.000922	0.058207	0.034758	1.000000	-0.000013	0.000036	0.000042	-170.873657	-76.466027	164.558926
39698	9.590843	-0.359714	-2.281889	0.003409	0.006594	0.052434	1.000000	0.000028	0.000016	0.000042	-170.850475	-76.466698	164.538619
39699	9.563900	-0.324161	-2.320308	0.050328	0.036288	0.033796	1.000000	0.000010	0.000027	0.000056	-170.850200	-76.465034	164.546885
39700	9.582426	-0.353068	-2.328266	0.051078	0.008803	0.054717	1.000000	0.000017	0.000023	0.000038	-170.829702	-76.466520	164.528117
39701	9.576909	-0.338943	-2.248394	-0.023669	0.030289	0.030375	1.000000	0.000008	0.000028	0.000045	-170.839608	-76.465572	164.551619
39702	9.591933	-0.335587	-2.300240	0.024004	0.030137	0.056832	1.000000	0.000029	0.000021	0.000048	-170.813609	-76.466641	164.528676
39703	9.586929	-0.360117	-2.303265	0.025349	0.005263	0.053581	1.000000	0.000026	0.000017	0.000032	-170.814960	-76.466878	164.535584
39704	9.596385	-0.341488	-2.275614	-0.000810	0.027748	0.055690	1.000000	0.000025	0.000044	0.000028	-170.796813	-76.471001	164.520329
39705	9.578116	-0.314153	-2.266401	-0.002257	0.054504	0.034779	1.000000	-0.000005	0.000036	0.000031	-170.801155	-76.472161	164.525904
39706	9.568855	-0.334112	-2.293039	0.023743	0.031935	0.032670	1.000000	0.000026	0.000006	0.000031	-170.784876	-76.471877	164.512640
39707	9.577443	-0.343385	-2.245443	-0.026677	0.028124	0.030374	1.000000	0.000005	0.000024	0.000029	-170.794911	-76.465122	164.522534
39708	9.578293	-0.316058	-2.265385	-0.004190	0.053820	0.034782	1.000000	0.000016	0.000007	0.000032	-170.779338	-76.464827	164.508829
39709	9.568983	-0.336000	-2.292229	0.020454	0.030719	0.032681	1.000000	0.000005	0.000014	0.000028	-170.788069	-76.458622	164.520422
39710	9.582640	-0.321609	-2.241223	-0.030075	0.051588	0.033629	1.000000	0.000006	0.000019	0.000034	-170.771912	-76.459549	164.504964
39711	9.549844	-0.337263	-2.262983	-0.003774	0.031594	0.007361	1.000000	-0.000004	0.000009	0.000034	-170.779872	-76.457156	164.519849
39712	9.574151	-0.314308	-2.288154	0.017761	0.053959	0.035946	1.000000	-0.000003	0.000003	0.000039	-170.763704	-76.456175	164.503330
39713	9.574124	-0.314896	-2.288189	0.017418	0.052963	0.035952	1.000000	-0.000025	-0.000005	0.000029	-170.779483	-76.454728	164.526370
39714	9.601846	-0.324081	-2.269656	-0.007958	0.047957	0.058961	1.000000	0.000006	-0.000003	0.000032	-170.766080	-76.453226	164.513804
39715	9.578363	-0.320413	-2.264478	-0.008800	0.050681	0.034796	1.000000	0.000006	0.000019	0.000034	-170.774617	-76.445635	164.523216
39716	9.621139	-0.325472	-2.297875	0.013534	0.045573	0.084293	1.000000	0.000007	0.000013	0.000039	-170.756901	-76.445698	164.506361
39717	9.569934	-0.313220	-2.311170	0.039152	0.053350	0.037128	1.000000	0.000006	0.000019	0.000034	-170.755198	-76.444701	164.505625
39718	9.574244	-0.318261	-2.287220	0.014685	0.051677	0.035964	1.000000	0.000007	0.000013	0.000039	-170.737492	-76.444747	164.488775
39719	9.593558	-0.318900	-2.315477	0.038565	0.049358	0.061297	1.000000	0.000004	0.000030	0.000024	-170.734580	-76.451445	164.487331
39720	9.570142	-0.315191	-2.310039	0.039375	0.052643	0.037131	1.000000	0.000007	0.000013	0.000039	-170.716831	-76.451543	164.470449
39721	9.598748	-0.296428	-2.311495	0.037463	0.072880	0.064566	1.000000	-0.000007	0.000005	0.000017	-170.716990	-76.457077	164.468497
39722	9.570212	-0.316273	-2.309604	0.040047	0.052037	0.037132	1.000000	0.000007	0.000023	0.000039	-170.697910	-76.458455	164.450274
39723	9.579632	-0.297688	-2.282149	0.012892	0.073680	0.039245	1.000000	0.000006	0.000019	0.000034	-170.707861	-76.455349	164.465895
39724	9.566097	-0.313345	-2.332484	0.063202	0.052739	0.038308	1.000000	-0.000004	0.000019	0.000035	-170.692707	-76.456323	164.450455
39725	9.580580	-0.271048	-2.301775	0.035745	0.098315	0.043691	1.000000	0.000006	0.000008	0.000033	-170.698774	-76.460706	164.468400
39726	9.579740	-0.299706	-2.281431	0.013073	0.072492	0.039253	1.000000	0.000007	0.000002	0.000038	-170.682444	-76.459681	164.453071
39727	9.546940	-0.315503	-2.303171	0.038976	0.052591	0.012989	1.000000	0.000008	0.000028	0.000045	-170.683760	-76.456811	164.456682
39728	9.575574	-0.297058	-2.304503	0.036145	0.073304	0.040430	1.000000	0.000017	0.000001	0.000037	-170.666962	-76.455657	164.442060
39729	9.579889	-0.302050	-2.280494	0.010938	0.071056	0.039267	1.000000	-0.000004	0.000036	0.000031	-170.670924	-76.455207	164.444545
39730	9.576582	-0.270476	-2.323940	0.057700	0.098377	0.044887	1.000000	0.000027	0.000011	0.000037	-170.652334	-76.455149	164.429272
39731	9.562171	-0.314276	-2.354107	0.084937	0.050951	0.039515	1.000000	0.000008	0.000017	0.000044	-170.652905	-76.453966	164.434359
39732	9.599326	-0.304581	-2.308033	0.033428	0.068391	0.064612	1.000000	0.000009	0.000022	0.000050	-170.629149	-76.454950	164.411708
39733	9.589207	-0.352855	-2.314290	0.035951	0.018971	0.058061	1.000000	0.000009	0.000033	0.000051	-170.636658	-76.453815	164.433630
39734	9.562444	-0.317027	-2.352628	0.083634	0.049657	0.039533	1.000000	0.000005	0.000024	0.000029	-170.623373	-76.455407	164.421359
39735	9.565937	-0.350054	-2.308114	0.036221	0.021696	0.033901	1.000000	0.000018	0.000038	0.000045	-170.614072	-76.456748	164.415079
39736	9.590420	-0.327325	-2.332772	0.057685	0.044030	0.062527	1.000000	-0.000003	0.000024	0.000040	-170.596218	-76.458096	164.397160
39737	9.589594	-0.356160	-2.312176	0.034068	0.017777	0.058070	1.000000	0.000019	0.000011	0.000048	-170.589345	-76.453109	164.389185
39738	9.571298	-0.328953	-2.303321	0.033086	0.045188	0.037191	1.000000	-0.000004	0.000036	0.000031	-170.575384	-76.455944	164.375050
39739	9.590677	-0.329576	-2.331396	0.055714	0.042712	0.062544	1.000000	0.000005	0.000024	0.000029	-170.582614	-76.455144	164.386311
39740	9.571510	-0.330113	-2.302274	0.032186	0.044355	0.037198	1.000000	0.000015	0.000024	0.000028	-170.568834	-76.456588	164.374701
39741	9.571602	-0.330701	-2.301807	0.030628	0.044232	0.037204	1.000000	0.000005	0.000024	0.000029	-170.566041	-76.450142	164.359804
39742	9.590076	-0.359336	-2.309684	0.031300	0.016673	0.058081	1.000000	0.000006	0.000029	0.000035	-170.549605	-76.452040	164.344362
39743	9.557621	-0.308428	-2.268890	0.005088	0.069371	0.015144	1.000000	0.000008	0.000007	0.000043	-170.544567	-76.451771	164.342635
39744	9.580269	-0.341377	-2.253324	-0.018567	0.040170	0.034830	1.000000	0.000013	0.000025	0.000017	-170.535903	-76.453474	164.336012
39745	9.586333	-0.290390	-2.269934	0.001432	0.089623	0.042599	1.000000	0.000017	0.000001	0.000037	-170.532252	-76.449272	164.330637
39746	9.557733	-0.310456	-2.268145	0.004014	0.068790	0.015149	1.000000	-0.000002	0.000018	0.000045	-170.512543	-76.449713	164.310861
39747	9.577053	-0.311394	-2.296451	0.027077	0.065839	0.040512	1.000000	0.000008	0.000017	0.000044	-170.521008	-76.451159	164.333767
39748	9.571978	-0.335813	-2.299503	0.028710	0.041635	0.037221	1.000000	0.000016	0.000018	0.000033	-170.505437	-76.451769	164.320434
39749	9.581404	-0.317248	-2.272052	0.000875	0.063630	0.039323	1.000000	0.000007	0.000023	0.000039	-170.507412	-76.444765	164.321544
39750	9.605849	-0.294346	-2.297046	0.022277	0.085952	0.067976	1.000000	-0.000005	0.000004	0.000028	-170.497552	-76.443816	164.311586
39751	9.553781	-0.309903	-2.290148	0.025969	0.067645	0.016367	1.000000	0.000008	0.000028	0.000045	-170.495506	-76.447557	164.317273
39752	9.581571	-0.319235	-2.271069	0.000510	0.062542	0.039330	1.000000	0.000003	0.000015	0.000017	-170.488993	-76.448079	164.311761
39753	9.573140	-0.311377	-2.318246	0.049167	0.065447	0.041729	1.000000	0.000021	-0.000001	0.000058	-170.468777	-76.447409	164.286148
39754	9.586771	-0.297260	-2.267194	-0.001451	0.086197	0.042630	1.000000	-0.000014	0.000037	0.000032	-170.455675	-76.450208	164.271776
39755	9.577495	-0.317166	-2.293818	0.025522	0.063129	0.040534	1.000000	0.000006	0.000008	0.000033	-170.447327	-76.456197	164.262668
39756	9.581734	-0.322198	-2.269964	0.001039	0.061401	0.039337	1.000000	0.000007	0.000013	0.000039	-170.430418	-76.456152	164.246905
39757	9.582684	-0.295065	-2.290032	0.023459	0.086398	0.043840	1.000000	-0.000002	0.000008	0.000045	-170.428438	-76.456790	164.247604
39758	9.582719	-0.295837	-2.289787	0.023306	0.086314	0.043841	1.000000	0.000016	0.000018	0.000033	-170.412911	-76.457443	164.234351
39759	9.577602	-0.320244	-2.292942	0.024266	0.061519	0.040547	1.000000	0.000008	0.000007	0.000043	-170.412853	-76.453738	164.237382
39760	9.554156	-0.316654	-2.287659	0.025073	0.064813	0.016388	1.000000	-0.000003	0.000024	0.000040	-170.395328	-76.454977	164.219867
39761	9.602138	-0.298297	-2.317538	0.043358	0.083039	0.069228	1.000000	0.000007	0.000013	0.000039	-170.410018	-76.443911	164.238097
39762	9.573561	-0.318361	-2.315557	0.045954	0.062211	0.041766	1.000000	0.000018	0.000027	0.000044	-170.388298	-76.445331	164.218747
39763	9.577835	-0.323529	-2.291509	0.021872	0.059941	0.040562	1.000000	0.000007	0.000013	0.000039	-170.381481	-76.448389	164.211132
39764	9.578802	-0.296425	-2.311591	0.044229	0.085628	0.045076	1.000000	0.000018	0.000006	0.000042	-170.362306	-76.447421	164.194358
39765	9.574628	-0.292906	-2.335016	0.067998	0.086585	0.046292	1.000000	0.000016	0.000018	0.000033	-170.364237	-76.446795	164.201700
39766	9.583112	-0.302284	-2.287300	0.019172	0.083188	0.043877	1.000000	0.000007	0.000023	0.000039	-170.346315	-76.447877	164.184974
39767	9.573814	-0.322412	-2.313949	0.044024	0.060335	0.041786	1.000000	-0.000002	0.000018	0.000045	-170.341586	-76.442412	164.169678
39768	9.573859	-0.323228	-2.313651	0.043846	0.060249	0.041788	1.000000	0.000007	0.000013	0.000039	-170.324973	-76.442236	164.154250
39769	9.574851	-0.296184	-2.333689	0.066121	0.085141	0.046318	1.000000	0.000019	0.000011	0.000048	-170.322301	-76.442602	164.161431
39770	9.573950	-0.324970	-2.313031	0.043422	0.059276	0.041796	1.000000	0.000006	0.000029	0.000035	-170.306372	-76.444411	164.146657
39771	9.583415	-0.306421	-2.285476	0.017983	0.079999	0.043906	1.000000	0.000017	0.000022	0.000038	-170.321597	-76.453185	164.192955
39772	9.588229	-0.350307	-2.344161	0.069137	0.031603	0.063859	1.000000	0.000008	0.000017	0.000044	-170.302000	-76.453532	164.174729
39773	9.578365	-0.331670	-2.288127	0.019138	0.055023	0.040597	1.000000	0.000006	0.000019	0.000034	-170.305499	-76.453404	164.180163
39774	9.559190	-0.332313	-2.258886	-0.004383	0.056647	0.015226	1.000000	0.000018	0.000044	0.000040	-170.284697	-76.456845	164.161825
39775	9.593678	-0.329004	-2.339313	0.066438	0.054913	0.067184	1.000000	0.000016	0.000007	0.000032	-170.267217	-76.455607	164.129104
39776	9.577609	-0.361856	-2.266555	-0.003921	0.029104	0.036066	1.000000	0.000007	0.000013	0.000039	-170.250740	-76.455505	164.113909
39777	9.579668	-0.306783	-2.306647	0.040209	0.079852	0.045141	1.000000	0.000008	0.000034	0.000040	-170.253939	-76.454923	164.122768
39778	9.588148	-0.316059	-2.258810	-0.008615	0.076421	0.042707	1.000000	0.000014	0.000019	0.000022	-170.244013	-76.455810	164.115170
39779	9.579851	-0.307987	-2.305727	0.038140	0.079122	0.045155	1.000000	0.000025	0.000023	0.000027	-170.254833	-76.448183	164.129170
39780	9.588283	-0.317327	-2.258061	-0.010696	0.075689	0.042710	1.000000	0.000017	0.000012	0.000038	-170.237960	-76.447908	164.114755
39781	9.589344	-0.290085	-2.277984	0.010849	0.101467	0.047255	1.000000	0.000005	0.000024	0.000029	-170.228621	-76.444590	164.092942
39782	9.556529	-0.305580	-2.299803	0.037787	0.082316	0.021006	1.000000	-0.000013	0.000004	0.000040	-170.214714	-76.443325	164.077987
39783	9.584228	-0.315029	-2.280895	0.010885	0.076531	0.043943	1.000000	0.000006	0.000019	0.000034	-170.224839	-76.437007	164.093113
39784	9.565973	-0.287806	-2.272259	0.009857	0.103956	0.023111	1.000000	0.000019	0.000011	0.000048	-170.202864	-76.436318	164.073628
39785	9.584305	-0.316550	-2.280360	0.010240	0.075619	0.043951	1.000000	0.000003	0.000015	0.000017	-170.215745	-76.436468	164.089797
39786	9.594297	-0.336488	-2.335708	0.059524	0.051334	0.067248	1.000000	-0.000004	0.000019	0.000035	-170.202025	-76.437040	164.076151
39787	9.565123	-0.317579	-2.251050	-0.013558	0.076560	0.018570	1.000000	0.000016	0.000018	0.000033	-170.201914	-76.438063	164.080865
39788	9.575125	-0.337766	-2.306325	0.035729	0.052276	0.041866	1.000000	0.000007	0.000023	0.000039	-170.184415	-76.438997	164.064635
39789	9.580378	-0.314947	-2.302595	0.031949	0.075482	0.045206	1.000000	0.000017	0.000012	0.000038	-170.199153	-76.430122	164.090921
39790	9.580451	-0.315678	-2.302190	0.031739	0.075381	0.045207	1.000000	-0.000003	0.000030	0.000036	-170.184300	-76.431844	164.076166
39791	9.589888	-0.297147	-2.274784	0.003842	0.097017	0.047305	1.000000	0.000008	0.000007	0.000043	-170.193627	-76.423275	164.089191
39792	9.608218	-0.325947	-2.282824	0.004454	0.069386	0.068130	1.000000	0.000005	0.000024	0.000029	-170.181527	-76.424417	164.078324
39793	9.584818	-0.322178	-2.277412	0.005667	0.072306	0.043980	1.000000	0.000017	0.000022	0.000038	-170.169985	-76.428174	164.064539
39794	9.576522	-0.314289	-2.324446	0.054101	0.075554	0.046469	1.000000	0.000006	0.000008	0.000033	-170.157232	-76.427364	164.053066
39795	9.581785	-0.291295	-2.320750	0.051008	0.098800	0.049816	1.000000	0.000005	0.000024	0.000029	-170.170664	-76.423968	164.074749
39796	9.580794	-0.319954	-2.300173	0.028297	0.072900	0.045236	1.000000	0.000018	0.000006	0.000042	-170.152314	-76.422712	164.058936
39797	9.585004	-0.325096	-2.276215	0.002443	0.070522	0.043994	1.000000	-0.000003	0.000024	0.000040	-170.158787	-76.417215	164.068468
39798	9.590283	-0.302325	-2.272435	0.000373	0.094531	0.047330	1.000000	0.000018	0.000017	0.000043	-170.139221	-76.417118	164.051433
39799	9.571529	-0.341696	-2.326400	0.050537	0.048434	0.043182	1.000000	0.000006	-0.000003	0.000032	-170.168342	-76.406058	164.098084
39800	9.576762	-0.318908	-2.322828	0.048445	0.072437	0.046522	1.000000	0.000009	0.000022	0.000050	-170.146374	-76.406420	164.077586
39801	9.581009	-0.324077	-2.298701	0.023489	0.070133	0.045269	1.000000	-0.000022	0.000026	0.000043	-170.145893	-76.405962	164.071804
39802	9.604542	-0.329271	-2.303341	0.022229	0.066598	0.069422	1.000000	0.000026	0.000006	0.000031	-170.132407	-76.404826	164.061988
39803	9.552388	-0.344601	-2.296587	0.026402	0.048705	0.017781	1.000000	0.000006	0.000018	0.000034	-170.127344	-76.408942	164.056830
39804	9.582234	-0.298184	-2.318019	0.045773	0.095086	0.049878	1.000000	0.000005	0.000024	0.000029	-170.115599	-76.409977	164.046391
39805	9.576019	-0.350443	-2.300712	0.024649	0.044507	0.041938	1.000000	0.000008	0.000017	0.000044	-170.111704	-76.409348	164.044353
39806	9.577154	-0.323349	-2.320595	0.046880	0.070199	0.046546	1.000000	-0.000003	0.000024	0.000040	-170.095452	-76.410134	164.028338
39807	9.576158	-0.351987	-2.299899	0.022156	0.044183	0.041946	1.000000	0.000006	0.000018	0.000034	-170.097845	-76.399195	164.023899
39808	9.553815	-0.320412	-2.314846	0.045396	0.073303	0.022409	1.000000	0.000009	0.000022	0.000050	-170.075937	-76.399486	164.003423
39809	9.581556	-0.330030	-2.295569	0.017468	0.069282	0.045288	1.000000	0.000016	0.000034	0.000029	-170.049419	-76.386242	163.942804
39810	9.582729	-0.302702	-2.315388	0.039685	0.094975	0.049906	1.000000	0.000005	0.000014	0.000028	-170.038858	-76.385876	163.933363
39811	9.563451	-0.303145	-2.286476	0.013816	0.097091	0.024479	1.000000	0.000016	0.000018	0.000033	-170.029308	-76.371929	163.907588
39812	9.577648	-0.327598	-2.317958	0.038644	0.071130	0.046575	1.000000	0.000016	0.000034	0.000029	-170.015490	-76.373792	163.895931
39813	9.562563	-0.332378	-2.265176	-0.010357	0.070619	0.019861	1.000000	0.000016	0.000018	0.000033	-170.020795	-76.368263	163.904173
39814	9.564795	-0.277365	-2.305423	0.034332	0.122097	0.029118	1.000000	0.000028	0.000016	0.000042	-170.000775	-76.367695	163.887603
39815	9.567886	-0.310280	-2.261221	-0.014704	0.093049	0.023214	1.000000	0.000004	0.000009	0.000022	-170.042163	-76.358536	163.952948
39816	9.578992	-0.302367	-2.336845	0.056909	0.094562	0.051245	1.000000	0.000005	0.000024	0.000029	-170.030572	-76.359182	163.942460
39817	9.596735	-0.292342	-2.262083	-0.020218	0.112829	0.050713	1.000000	-0.000013	0.000014	0.000041	-170.046714	-76.348383	163.964482
39818	9.566170	-0.252025	-2.324268	0.051630	0.145327	0.033813	1.000000	0.000017	0.000039	0.000034	-170.030167	-76.350517	163.950229
39819	9.611060	-0.317697	-2.292892	0.004191	0.086211	0.072823	1.000000	0.000008	0.000028	0.000045	-170.023985	-76.351749	163.949179
39820	9.578274	-0.333266	-2.314562	0.031099	0.067119	0.046629	1.000000	0.000006	0.000018	0.000034	-170.010649	-76.351558	163.937008
39821	9.561254	-0.277883	-2.326034	0.050559	0.120692	0.030488	1.000000	0.000016	0.000034	0.000029	-170.002301	-76.341806	163.911442
39822	9.564387	-0.310902	-2.281515	0.003431	0.093125	0.024527	1.000000	-0.000001	0.000023	0.000051	-169.981226	-76.341723	163.890416
39823	9.582704	-0.339895	-2.289331	0.002108	0.065342	0.045330	1.000000	0.000036	0.000027	0.000031	-169.980280	-76.332635	163.890849
39824	9.582788	-0.340781	-2.288847	0.001766	0.065250	0.045331	1.000000	0.000009	0.000022	0.000050	-169.958652	-76.332398	163.870386
39825	9.554676	-0.294031	-2.224452	-0.052179	0.116525	0.001087	1.000000	-0.000003	0.000024	0.000040	-169.974937	-76.313928	163.884390
39826	9.588160	-0.318717	-2.284759	-0.004212	0.088808	0.048682	1.000000	0.000005	0.000003	0.000027	-169.966244	-76.311818	163.876705
39827	9.588165	-0.319317	-2.284656	-0.006001	0.087956	0.048689	1.000000	0.000006	0.000008	0.000033	-169.982002	-76.303441	163.900515
39828	9.572956	-0.324063	-2.232238	-0.053931	0.087933	0.021882	1.000000	0.000006	0.000008	0.000033	-169.970232	-76.301720	163.889805
39829	9.602267	-0.344502	-2.316382	0.016660	0.060856	0.070827	1.000000	0.000007	0.000002	0.000038	-169.992714	-76.291592	163.926222
39830	9.582905	-0.345105	-2.287710	-0.006956	0.062510	0.045346	1.000000	0.000018	0.000006	0.000042	-169.975463	-76.289400	163.911308
39831	9.568824	-0.322044	-2.255599	-0.032405	0.086911	0.023228	1.000000	-0.000004	0.000009	0.000034	-169.996150	-76.290217	163.950454
39832	9.564703	-0.318320	-2.279164	-0.008470	0.088505	0.024566	1.000000	0.000005	0.000003	0.000027	-169.987884	-76.288019	163.943322
39833	9.584013	-0.319307	-2.307829	0.014567	0.084917	0.050067	1.000000	0.000019	-0.000011	0.000047	-170.009939	-76.287961	163.991019
39834	9.559382	-0.343500	-2.282534	-0.007165	0.062436	0.021222	1.000000	0.000006	0.000018	0.000034	-169.997379	-76.287429	163.979721
39835	9.579893	-0.316482	-2.331274	0.039733	0.085941	0.051408	1.000000	0.000006	-0.000003	0.000032	-169.987258	-76.294285	163.969241
39836	9.597502	-0.306557	-2.256943	-0.035472	0.104806	0.050759	1.000000	0.000008	-0.000004	0.000043	-169.972175	-76.291067	163.955514
39837	9.588111	-0.326610	-2.283851	-0.009192	0.081900	0.048739	1.000000	0.000006	0.000018	0.000034	-169.965818	-76.293722	163.942549
39838	9.608705	-0.299627	-2.332279	0.036108	0.105857	0.078926	1.000000	0.000007	0.000029	0.000035	-169.951853	-76.294468	163.929814
39839	9.584113	-0.323651	-2.306809	0.013826	0.083084	0.050083	1.000000	0.000006	-0.000003	0.000032	-169.952657	-76.288879	163.925501
39840	9.584130	-0.324473	-2.306620	0.013453	0.082972	0.050085	1.000000	0.000009	0.000022	0.000050	-169.931753	-76.288501	163.905932
39841	9.560713	-0.320688	-2.301351	0.013190	0.085637	0.025950	1.000000	-0.000005	0.000015	0.000029	-169.945618	-76.283292	163.924727
39842	9.541420	-0.321103	-2.272399	-0.010411	0.087272	0.000461	1.000000	0.000007	0.000023	0.000039	-169.929861	-76.283216	163.910234
39843	9.560842	-0.322021	-2.300630	0.011669	0.084308	0.025963	1.000000	0.000005	0.000014	0.000028	-169.951766	-76.279841	163.943208
39844	9.537419	-0.318080	-2.295408	0.012383	0.087652	0.001822	1.000000	0.000006	0.000018	0.000034	-169.939331	-76.279311	163.932047
39845	9.589674	-0.304257	-2.301706	0.008509	0.103391	0.053492	1.000000	0.000006	-0.000003	0.000032	-169.956640	-76.282051	163.971141
39846	9.593778	-0.309228	-2.277990	-0.016187	0.101543	0.052143	1.000000	0.000016	0.000007	0.000032	-169.945031	-76.280261	163.962032
39847	9.581470	-0.296983	-2.348769	0.057709	0.106139	0.056198	1.000000	0.000006	0.000018	0.000034	-169.934319	-76.287921	163.949582
39848	9.562129	-0.297549	-2.319996	0.034116	0.107759	0.030709	1.000000	0.000009	0.000001	0.000048	-169.916306	-76.285160	163.933034
39849	9.613225	-0.311854	-2.305898	0.006061	0.098854	0.077646	1.000000	-0.000002	0.000024	0.000040	-169.912239	-76.278717	163.917751
39850	9.581617	-0.299341	-2.347873	0.055412	0.105641	0.056216	1.000000	0.000005	0.000024	0.000029	-169.901737	-76.278991	163.908495
39851	9.562368	-0.299773	-2.318723	0.032536	0.106644	0.030727	1.000000	0.000008	0.000034	0.000040	-169.894660	-76.285186	163.902782
39852	9.566585	-0.304892	-2.294497	0.007847	0.104800	0.029374	1.000000	0.000017	0.000022	0.000038	-169.878499	-76.285065	163.889106
39853	9.557242	-0.325026	-2.321158	0.033537	0.081066	0.027364	1.000000	0.000008	0.000017	0.000044	-169.891201	-76.285531	163.914346
39854	9.590190	-0.311182	-2.298628	0.005846	0.099841	0.053531	1.000000	0.000027	0.000021	0.000037	-169.874572	-76.285328	163.901407
39855	9.566785	-0.307364	-2.293333	0.007794	0.102591	0.029397	1.000000	0.000006	0.000018	0.000034	-169.868025	-76.292694	163.896020
39856	9.590357	-0.312683	-2.297725	0.006327	0.098985	0.053539	1.000000	0.000008	0.000034	0.000040	-169.851222	-76.293911	163.880593
39857	9.589309	-0.341384	-2.276647	-0.016243	0.072663	0.048802	1.000000	-0.000002	0.000046	0.000042	-169.840756	-76.298165	163.868492
39858	9.565974	-0.337653	-2.271036	-0.015507	0.076011	0.024662	1.000000	0.000009	0.000028	0.000045	-169.822050	-76.298618	163.851191
39859	9.585449	-0.338835	-2.299065	0.007373	0.073526	0.050166	1.000000	0.000009	0.000028	0.000045	-169.817442	-76.300225	163.846871
39860	9.590882	-0.315996	-2.295079	0.005105	0.097499	0.053555	1.000000	0.000006	0.000035	0.000030	-169.805694	-76.301787	163.836404
39861	9.585679	-0.340291	-2.297890	0.005850	0.073173	0.050170	1.000000	0.000017	0.000022	0.000038	-169.797294	-76.297287	163.813567
39862	9.562276	-0.336432	-2.292593	0.006588	0.076526	0.026031	1.000000	-0.000004	0.000019	0.000035	-169.785574	-76.296930	163.801991
39863	9.600559	-0.298932	-2.266601	-0.022427	0.118279	0.055599	1.000000	0.000009	0.000028	0.000045	-169.789103	-76.302534	163.818480
39864	9.567773	-0.314360	-2.288255	0.004532	0.099257	0.029434	1.000000	0.000006	0.000024	0.000029	-169.778734	-76.302888	163.809403
39865	9.567833	-0.315059	-2.287909	0.004365	0.098625	0.029440	1.000000	0.000027	0.000011	0.000037	-169.773880	-76.303450	163.807489
39866	9.586020	-0.343935	-2.295925	0.004799	0.070905	0.050187	1.000000	0.000005	0.000014	0.000028	-169.764839	-76.302608	163.799742
39867	9.576079	-0.325027	-2.240050	-0.045383	0.094072	0.026716	1.000000	0.000007	0.000013	0.000039	-169.772787	-76.300635	163.815575
39868	9.595513	-0.326045	-2.268317	-0.022545	0.092181	0.052222	1.000000	0.000006	0.000018	0.000034	-169.760619	-76.300219	163.804755
39869	9.596788	-0.298926	-2.288383	-0.001080	0.117309	0.056995	1.000000	0.000008	0.000007	0.000043	-169.762189	-76.295938	163.803338
39870	9.568019	-0.318693	-2.286629	0.001572	0.096562	0.029461	1.000000	0.000016	0.000018	0.000033	-169.749478	-76.295418	163.793128
39871	9.568049	-0.319478	-2.286391	0.000971	0.095545	0.029471	1.000000	0.000008	0.000007	0.000043	-169.756036	-76.293604	163.803696
39872	9.558672	-0.339693	-2.313160	0.026827	0.073041	0.027447	1.000000	0.000009	0.000022	0.000050	-169.735729	-76.293264	163.784877
39873	9.569368	-0.293387	-2.306182	0.023189	0.120472	0.034256	1.000000	-0.000003	0.000003	0.000039	-169.734794	-76.295135	163.785916
39874	9.564035	-0.317664	-2.309451	0.024736	0.096232	0.030857	1.000000	0.000006	0.000008	0.000033	-169.724084	-76.293516	163.776586
39875	9.591624	-0.327250	-2.290396	-0.000754	0.090565	0.053622	1.000000	0.000006	0.000018	0.000034	-169.716918	-76.295204	163.761107
39876	9.587575	-0.323553	-2.313872	0.023193	0.092160	0.055000	1.000000	0.000005	0.000003	0.000027	-169.709379	-76.293159	163.754889
39877	9.564101	-0.319655	-2.308903	0.023018	0.094426	0.030878	1.000000	0.000018	0.000006	0.000042	-169.725224	-76.287820	163.784429
39878	9.592930	-0.301525	-2.310234	0.019610	0.114881	0.058423	1.000000	0.000007	0.000013	0.000039	-169.711421	-76.286621	163.772057
39879	9.560085	-0.316999	-2.332107	0.047225	0.094988	0.032270	1.000000	-0.000002	0.000018	0.000045	-169.711806	-76.291013	163.777194
39880	9.591732	-0.330935	-2.289417	-0.002886	0.087851	0.053646	1.000000	0.000005	0.000003	0.000027	-169.704435	-76.288972	163.771201
39881	9.565489	-0.294915	-2.328305	0.044902	0.117605	0.035699	1.000000	0.000029	0.000020	0.000048	-169.709011	-76.292451	163.790658
39882	9.573637	-0.304422	-2.280820	-0.004087	0.113956	0.032938	1.000000	0.000007	-0.000009	0.000037	-169.698000	-76.288887	163.781159
39883	9.565499	-0.296589	-2.328053	0.043494	0.116812	0.035715	1.000000	0.000017	0.000022	0.000038	-169.698726	-76.285839	163.783739
39884	9.570925	-0.273753	-2.324290	0.041196	0.140758	0.039133	1.000000	0.000006	0.000018	0.000034	-169.686954	-76.285436	163.773410
39885	9.564364	-0.325950	-2.306931	0.020349	0.090053	0.030925	1.000000	0.000007	0.000023	0.000039	-169.686583	-76.286294	163.772841
39886	9.593248	-0.307772	-2.308087	0.016926	0.110485	0.058478	1.000000	-0.000003	0.000013	0.000040	-169.673563	-76.285208	163.760156
39887	9.568571	-0.331634	-2.282473	-0.004981	0.086797	0.029551	1.000000	0.000005	0.000030	0.000024	-169.695740	-76.286828	163.795809
39888	9.569929	-0.304520	-2.302406	0.017024	0.112493	0.034363	1.000000	0.000039	0.000009	0.000046	-169.675412	-76.285054	163.780551
39889	9.584021	-0.329351	-2.334001	0.041260	0.085633	0.056479	1.000000	-0.000002	0.000024	0.000040	-169.684759	-76.283682	163.792091
39890	9.565975	-0.301898	-2.325411	0.040077	0.113089	0.035773	1.000000	0.000007	0.000013	0.000039	-169.671337	-76.282499	163.780215
39891	9.564711	-0.330539	-2.304839	0.019856	0.086176	0.030961	1.000000	-0.000003	0.000013	0.000040	-169.662362	-76.297124	163.781132
39892	9.560729	-0.326846	-2.328105	0.043809	0.087779	0.032353	1.000000	0.000005	0.000030	0.000024	-169.654490	-76.298335	163.774694
39893	9.589667	-0.308563	-2.329097	0.039525	0.107945	0.059921	1.000000	0.000017	0.000022	0.000038	-169.650707	-76.293933	163.772432
39894	9.593831	-0.313761	-2.304857	0.014851	0.106019	0.058530	1.000000	-0.000010	0.000035	0.000053	-169.630696	-76.295047	163.751724
39895	9.589889	-0.310328	-2.327946	0.039403	0.106810	0.059934	1.000000	0.000036	0.000026	0.000032	-169.631066	-76.300476	163.768387
39896	9.569259	-0.338533	-2.278571	-0.006497	0.082538	0.029587	1.000000	0.000006	0.000024	0.000029	-169.621362	-76.300914	163.760149
39897	9.573375	-0.343510	-2.254526	-0.031780	0.079304	0.028202	1.000000	0.000007	0.000013	0.000039	-169.642642	-76.298555	163.794683
39898	9.574765	-0.316375	-2.274451	-0.009791	0.105004	0.033033	1.000000	0.000017	0.000028	0.000034	-169.629279	-76.299329	163.784023
39899	9.551384	-0.312399	-2.269130	-0.009200	0.107308	0.008915	1.000000	-0.000004	0.000019	0.000035	-169.644557	-76.299953	163.813136
39900	9.574916	-0.317719	-2.273626	-0.010691	0.103601	0.033047	1.000000	0.000006	0.000018	0.000034	-169.633208	-76.299614	163.803374
39901	9.574939	-0.318433	-2.273428	-0.010844	0.102853	0.033055	1.000000	0.000007	0.000002	0.000038	-169.633516	-76.299402	163.803787
39902	9.589011	-0.343061	-2.305095	0.013941	0.076838	0.055148	1.000000	0.000025	0.000022	0.000027	-169.622864	-76.299668	163.796981
39903	9.566903	-0.311155	-2.320369	0.036874	0.105629	0.035868	1.000000	0.000006	-0.000003	0.000032	-169.626051	-76.296652	163.800199
39904	9.594435	-0.320945	-2.301350	0.011072	0.100130	0.058597	1.000000	0.000009	0.000022	0.000050	-169.606467	-76.296410	163.782307
39905	9.598541	-0.326016	-2.277306	-0.013111	0.097322	0.057203	1.000000	-0.000005	0.000015	0.000029	-169.615514	-76.299881	163.795707
39906	9.579170	-0.326346	-2.248447	-0.036645	0.098899	0.031671	1.000000	-0.000002	0.000018	0.000045	-169.599755	-76.299313	163.780464
39907	9.571125	-0.318558	-2.295528	0.011798	0.101339	0.034492	1.000000	0.000007	0.000013	0.000039	-169.608079	-76.300897	163.795855
39908	9.575215	-0.323584	-2.271538	-0.012867	0.099367	0.033088	1.000000	0.000006	0.000018	0.000034	-169.596855	-76.300593	163.786241
39909	9.571219	-0.320017	-2.294932	0.010047	0.100497	0.034503	1.000000	0.000017	0.000012	0.000038	-169.601751	-76.294419	163.795513
39910	9.596112	-0.297473	-2.319711	0.030875	0.122653	0.063492	1.000000	0.000015	0.000029	0.000023	-169.593704	-76.295544	163.790131
39911	9.602899	-0.334639	-2.251649	-0.040932	0.092499	0.055815	1.000000	0.000008	0.000007	0.000043	-169.594318	-76.291580	163.781281
39912	9.571384	-0.322031	-2.293963	0.008459	0.099451	0.034515	1.000000	-0.000024	0.000016	0.000031	-169.588149	-76.291071	163.773205
39913	9.571443	-0.322799	-2.293609	0.006170	0.098450	0.034527	1.000000	0.000029	0.000020	0.000048	-169.600250	-76.281170	163.788004
39914	9.571494	-0.323619	-2.293279	0.005796	0.098268	0.034529	1.000000	0.000015	0.000013	0.000027	-169.591840	-76.280258	163.782310
39915	9.576947	-0.300678	-2.289615	0.003287	0.121422	0.037993	1.000000	0.000006	0.000018	0.000034	-169.599528	-76.280315	163.799465
39916	9.571595	-0.324959	-2.292667	0.004896	0.097151	0.034540	1.000000	-0.000003	0.000013	0.000040	-169.587290	-76.279239	163.787727
39917	9.571618	-0.325673	-2.292470	0.003197	0.095871	0.034553	1.000000	0.000016	0.000007	0.000032	-169.612003	-76.271971	163.821501
39918	9.563591	-0.317736	-2.339599	0.051428	0.099287	0.037412	1.000000	-0.000003	0.000019	0.000035	-169.601755	-76.271640	163.811738
39919	9.596561	-0.303822	-2.317029	0.023309	0.117659	0.063574	1.000000	0.000006	0.000018	0.000034	-169.596768	-76.269740	163.797574
39920	9.545634	-0.290741	-2.330825	0.049545	0.126393	0.016757	1.000000	0.000005	0.000003	0.000027	-169.590451	-76.267676	163.792830
39921	9.571774	-0.328500	-2.291417	0.000877	0.094958	0.034563	1.000000	0.000021	0.000020	0.000060	-169.569463	-76.263900	163.755687
39922	9.563789	-0.320820	-2.338371	0.049105	0.098357	0.037433	1.000000	0.000016	0.000023	0.000028	-169.559851	-76.264135	163.748745
39923	9.575966	-0.334477	-2.266791	-0.024706	0.091922	0.033138	1.000000	0.000009	0.000028	0.000045	-169.566589	-76.263174	163.762499
39924	9.596884	-0.307858	-2.315159	0.020372	0.115845	0.063602	1.000000	0.000008	0.000023	0.000039	-169.552590	-76.263147	163.750115
39925	9.568087	-0.327512	-2.313226	0.022456	0.094585	0.036024	1.000000	0.000008	0.000023	0.000039	-169.556304	-76.260138	163.746363
39926	9.568169	-0.328302	-2.312774	0.022066	0.094398	0.036026	1.000000	0.000008	0.000023	0.000039	-169.542350	-76.260095	163.734016
39927	9.576301	-0.337750	-2.264888	-0.028507	0.090168	0.033144	1.000000	0.000009	0.000028	0.000045	-169.546892	-76.252344	163.733466
39928	9.554338	-0.305913	-2.279881	-0.005407	0.119425	0.013936	1.000000	0.000006	0.000024	0.000029	-169.538050	-76.252602	163.726134
39929	9.577856	-0.311419	-2.284373	-0.007216	0.115064	0.038068	1.000000	0.000019	0.000010	0.000048	-169.535717	-76.250533	163.726338
39930	9.568479	-0.331523	-2.311029	0.018674	0.092582	0.036051	1.000000	-0.000003	0.000030	0.000036	-169.524306	-76.251306	163.715319
39931	9.572587	-0.336657	-2.286830	-0.005771	0.089952	0.034608	1.000000	0.000010	0.000022	0.000050	-169.518828	-76.253413	163.715097
39932	9.572652	-0.337496	-2.286434	-0.006168	0.089761	0.034610	1.000000	0.000006	0.000018	0.000034	-169.508190	-76.252903	163.706007
39933	9.574141	-0.310377	-2.306374	0.015603	0.114598	0.039546	1.000000	0.000018	0.000022	0.000038	-169.514851	-76.253311	163.717024
39934	9.574190	-0.311100	-2.306073	0.015205	0.114406	0.039549	1.000000	-0.000004	0.000009	0.000034	-169.506210	-76.251687	163.708795
39935	9.574269	-0.311984	-2.305625	0.014359	0.113360	0.039562	1.000000	0.000011	0.000038	0.000057	-169.505999	-76.251814	163.712762
39936	9.583813	-0.293462	-2.278064	-0.012336	0.135448	0.041585	1.000000	0.000003	0.000015	0.000017	-169.503727	-76.251210	163.711940
39937	9.574413	-0.313284	-2.304853	0.013912	0.112236	0.039575	1.000000	0.000007	0.000013	0.000039	-169.506216	-76.253111	163.717235
39938	9.570471	-0.309659	-2.328192	0.037818	0.113841	0.041037	1.000000	0.000006	0.000024	0.000029	-169.497580	-76.253378	163.710131
39939	9.578563	-0.318872	-2.280379	-0.011980	0.109667	0.038125	1.000000	-0.000003	0.000019	0.000035	-169.501973	-76.249075	163.709686
39940	9.592639	-0.343541	-2.311896	0.012730	0.083604	0.060228	1.000000	0.000016	0.000017	0.000033	-169.490923	-76.248460	163.701344
39941	9.588118	-0.301022	-2.252673	-0.039558	0.130552	0.040157	1.000000	0.000007	0.000013	0.000039	-169.505183	-76.246227	163.725258
39942	9.551279	-0.311993	-2.298204	0.011832	0.113470	0.015486	1.000000	0.000017	0.000028	0.000034	-169.492869	-76.246808	163.715667
39943	9.569280	-0.340952	-2.306339	0.013153	0.084503	0.036132	1.000000	0.000005	-0.000025	0.000030	-169.507405	-76.248456	163.740681
39944	9.607613	-0.303553	-2.280757	-0.016745	0.127057	0.065764	1.000000	-0.000002	0.000024	0.000040	-169.494479	-76.248473	163.728242
39945	9.578755	-0.323262	-2.278953	-0.013437	0.105613	0.038167	1.000000	0.000019	0.000010	0.000048	-169.490739	-76.250934	163.732499
39946	9.578796	-0.324093	-2.278661	-0.013834	0.105407	0.038169	1.000000	-0.000003	0.000019	0.000035	-169.481031	-76.250538	163.723244
39947	9.574872	-0.320512	-2.301948	0.010388	0.106526	0.039643	1.000000	0.000008	0.000023	0.000039	-169.476897	-76.253019	163.717539
39948	9.574930	-0.321294	-2.301600	0.009993	0.106320	0.039646	1.000000	0.000007	0.000013	0.000039	-169.464752	-76.251768	163.707030
39949	9.598423	-0.326802	-2.306166	0.006910	0.101914	0.063774	1.000000	-0.000003	0.000013	0.000040	-169.477674	-76.243171	163.716270
39950	9.575001	-0.322733	-2.301102	0.007701	0.105306	0.039659	1.000000	0.000025	0.000012	0.000026	-169.469462	-76.242048	163.711909
39951	9.580512	-0.299885	-2.297440	0.004939	0.128606	0.043164	1.000000	-0.000021	0.000020	0.000047	-169.471955	-76.240334	163.704289
39952	9.557078	-0.295926	-2.292426	0.005732	0.132000	0.019050	1.000000	0.000017	0.000001	0.000037	-169.460682	-76.237748	163.695792
39953	9.598593	-0.329669	-2.305050	0.005105	0.099787	0.063797	1.000000	-0.000004	0.000036	0.000031	-169.467410	-76.241348	163.699106
39954	9.571220	-0.321332	-2.323525	0.030202	0.104994	0.041161	1.000000	0.000008	0.000007	0.000044	-169.453569	-76.239287	163.686927
39955	9.580710	-0.302849	-2.296227	0.003910	0.126564	0.043191	1.000000	0.000006	0.000018	0.000034	-169.452054	-76.241819	163.678255
39956	9.602743	-0.336249	-2.280345	-0.019988	0.096859	0.062328	1.000000	0.000008	0.000017	0.000044	-169.436863	-76.240971	163.664709
39957	9.586291	-0.280977	-2.292194	0.001737	0.149729	0.046707	1.000000	0.000018	0.000016	0.000043	-169.428365	-76.244295	163.651620
39958	9.569954	-0.352447	-2.301809	0.007350	0.077284	0.036197	1.000000	0.000007	0.000029	0.000035	-169.416855	-76.245009	163.641653
39959	9.580959	-0.306118	-2.294754	0.003302	0.124724	0.043215	1.000000	0.000008	0.000007	0.000044	-169.412499	-76.245713	163.630545
39960	9.575531	-0.330397	-2.297806	0.004907	0.100435	0.039711	1.000000	0.000006	0.000024	0.000029	-169.404191	-76.246007	163.623726
39961	9.575598	-0.331045	-2.297436	0.004354	0.099109	0.039725	1.000000	-0.000013	0.000014	0.000041	-169.420606	-76.245971	163.647490
39962	9.581113	-0.308238	-2.293826	0.001949	0.122971	0.043237	1.000000	0.000007	0.000013	0.000039	-169.408693	-76.244720	163.637177
39963	9.575674	-0.332622	-2.296888	0.002976	0.097723	0.039739	1.000000	0.000008	0.000017	0.000044	-169.420126	-76.242211	163.651437
39964	9.567809	-0.324869	-2.343791	0.051179	0.101129	0.042718	1.000000	0.000008	0.000034	0.000040	-169.405585	-76.243356	163.638503
39965	9.553939	-0.301588	-2.311323	0.024681	0.126360	0.020641	1.000000	0.000007	0.000029	0.000035	-169.411412	-76.239160	163.641903
39966	9.604940	-0.316128	-2.296652	-0.002446	0.117088	0.067379	1.000000	-0.000003	0.000030	0.000036	-169.400700	-76.239943	163.631588
39967	9.576106	-0.335685	-2.294643	0.000970	0.096249	0.039754	1.000000	0.000009	0.000028	0.000045	-169.384306	-76.243747	163.599771
39968	9.581691	-0.312875	-2.290781	-0.001436	0.120108	0.043273	1.000000	0.000006	0.000024	0.000029	-169.376160	-76.244022	163.593098
39969	9.605214	-0.318243	-2.295217	-0.002787	0.115469	0.067398	1.000000	0.000015	0.000013	0.000027	-169.385606	-76.245831	163.608403
39970	9.581818	-0.314159	-2.290075	-0.001975	0.118875	0.043288	1.000000	0.000018	0.000022	0.000038	-169.371861	-76.245680	163.597371
39971	9.580356	-0.342862	-2.269336	-0.024625	0.091893	0.038283	1.000000	0.000008	0.000017	0.000044	-169.377196	-76.246553	163.606590
39972	9.587427	-0.292186	-2.286033	-0.004745	0.141631	0.046826	1.000000	0.000005	0.000014	0.000028	-169.370494	-76.245641	163.601376
39973	9.581970	-0.316403	-2.289131	-0.003797	0.116683	0.043313	1.000000	0.000007	0.000013	0.000039	-169.378704	-76.241713	163.607604
39974	9.576526	-0.340747	-2.292141	-0.002188	0.092386	0.039791	1.000000	0.000018	0.000022	0.000038	-169.365062	-76.241553	163.596677
39975	9.558619	-0.313126	-2.283697	-0.004167	0.119515	0.019211	1.000000	-0.000004	0.000009	0.000034	-169.371019	-76.236066	163.597357
39976	9.582121	-0.318646	-2.288188	-0.005794	0.115659	0.043324	1.000000	0.000018	0.000022	0.000038	-169.357405	-76.235888	163.586432
39977	9.576672	-0.342990	-2.291197	-0.004522	0.090255	0.039810	1.000000	0.000007	0.000012	0.000039	-169.373996	-76.234613	163.610809
39978	9.587720	-0.296560	-2.284241	-0.008960	0.138176	0.046872	1.000000	0.000005	0.000014	0.000028	-169.367454	-76.233668	163.605746
39979	9.587799	-0.297187	-2.283827	-0.009849	0.136920	0.046888	1.000000	0.000007	0.000029	0.000035	-169.383652	-76.233495	163.633497
39980	9.578407	-0.317169	-2.310477	0.016063	0.114437	0.044869	1.000000	0.000007	0.000012	0.000039	-169.372154	-76.232199	163.623577
39981	9.558944	-0.317434	-2.281742	-0.008039	0.115602	0.019255	1.000000	0.000007	0.000012	0.000039	-169.375179	-76.228036	163.620049
39982	9.578492	-0.318831	-2.309895	0.014619	0.113546	0.044882	1.000000	0.000010	0.000022	0.000050	-169.357321	-76.227582	163.603829
39983	9.584024	-0.296107	-2.306357	0.012268	0.136810	0.048429	1.000000	0.000006	-0.000003	0.000032	-169.363461	-76.226020	163.608912
39984	9.578558	-0.320377	-2.309407	0.013877	0.112508	0.044895	1.000000	0.000008	0.000034	0.000040	-169.349299	-76.227117	163.596292
39985	9.574673	-0.316727	-2.332742	0.038361	0.113317	0.046423	1.000000	-0.000015	0.000005	0.000029	-169.359585	-76.229743	163.604465
39986	9.588112	-0.302425	-2.281824	-0.012667	0.133522	0.046932	1.000000	0.000017	0.000011	0.000038	-169.347569	-76.228360	163.595148
39987	9.578673	-0.322457	-2.308642	0.013556	0.110240	0.044921	1.000000	0.000007	0.000012	0.000039	-169.352686	-76.230125	163.601910
39988	9.555254	-0.318411	-2.303616	0.014382	0.113659	0.020816	1.000000	0.000007	0.000012	0.000039	-169.341300	-76.228844	163.592070
39989	9.596672	-0.352263	-2.316275	0.013152	0.081475	0.065496	1.000000	0.000005	0.000014	0.000028	-169.351027	-76.226691	163.597577
39990	9.559299	-0.323897	-2.279344	-0.011105	0.110802	0.019307	1.000000	0.000014	0.000019	0.000022	-169.345950	-76.226432	163.595061
39991	9.589890	-0.278015	-2.300886	0.006955	0.156100	0.052045	1.000000	0.000008	0.000007	0.000044	-169.354668	-76.222543	163.601999
39992	9.578905	-0.325942	-2.307188	0.010589	0.107723	0.044952	1.000000	0.000008	0.000034	0.000040	-169.340657	-76.223650	163.589517
39993	9.582958	-0.331026	-2.282919	-0.013958	0.105209	0.043433	1.000000	-0.000002	0.000024	0.000040	-169.338451	-76.225199	163.576630
39994	9.575136	-0.323091	-2.329969	0.034229	0.108600	0.046491	1.000000	0.000005	0.000014	0.000028	-169.332198	-76.224252	163.571806
39995	9.588616	-0.308822	-2.278848	-0.014806	0.127978	0.047002	1.000000	0.000008	0.000023	0.000039	-169.325103	-76.236681	163.566122
39996	9.584758	-0.305315	-2.302104	0.009090	0.129553	0.048530	1.000000	0.000008	0.000023	0.000039	-169.312440	-76.236635	163.554970
39997	9.575357	-0.325291	-2.328755	0.035086	0.106047	0.046516	1.000000	0.000007	0.000018	0.000034	-169.326256	-76.238338	163.575130
39998	9.565397	-0.306150	-2.272812	-0.014697	0.129904	0.022918	1.000000	0.000016	0.000023	0.000028	-169.318093	-76.238554	163.569561
39999	9.604476	-0.307847	-2.329460	0.030745	0.125242	0.074197	1.000000	-0.000004	0.000009	0.000034	-169.329440	-76.236687	163.582598
40000	9.559967	-0.330910	-2.275534	-0.013742	0.104630	0.019372	1.000000	0.000006	0.000024	0.000029	-169.321916	-76.236992	163.576511
40001	9.561650	-0.303888	-2.295456	0.008128	0.129566	0.024475	1.000000	0.000030	0.000020	0.000048	-169.319796	-76.237610	163.578258
40002	9.599128	-0.333611	-2.331708	0.031563	0.099730	0.070656	1.000000	-0.000005	0.000015	0.000029	-169.314264	-76.236809	163.573007
40003	9.565703	-0.309653	-2.271050	-0.017155	0.126963	0.022952	1.000000	0.000018	0.000022	0.000038	-169.309536	-76.235995	163.557937
40004	9.585291	-0.310948	-2.299128	0.005492	0.124861	0.048593	1.000000	0.000007	0.000018	0.000034	-169.300213	-76.235523	163.550056
40005	9.579792	-0.335212	-2.302174	0.008395	0.099738	0.045038	1.000000	0.000007	0.000012	0.000039	-169.299224	-76.242735	163.545925
40006	9.585426	-0.312371	-2.298372	0.005971	0.123559	0.048609	1.000000	0.000016	0.000034	0.000029	-169.289782	-76.244177	163.539033
40007	9.579897	-0.336639	-2.301528	0.007606	0.098626	0.045050	1.000000	0.000008	-0.000015	0.000042	-169.294059	-76.240804	163.539674
40008	9.593289	-0.322614	-2.250688	-0.043413	0.118813	0.045551	1.000000	0.000010	0.000022	0.000050	-169.276532	-76.240443	163.523700
40009	9.581600	-0.310396	-2.321350	0.029121	0.123290	0.050173	1.000000	-0.000006	0.000026	0.000019	-169.291419	-76.242607	163.536355
40010	9.589500	-0.319701	-2.273622	-0.019874	0.119409	0.047101	1.000000	0.000010	0.000005	0.000054	-169.273457	-76.240273	163.519982
40011	9.566068	-0.315677	-2.268680	-0.018359	0.122086	0.023012	1.000000	0.000015	0.000013	0.000027	-169.280010	-76.244284	163.528648
40012	9.585613	-0.316970	-2.296961	0.004292	0.119965	0.048655	1.000000	0.000008	0.000007	0.000044	-169.267105	-76.242315	163.517246
40013	9.562214	-0.312831	-2.291901	0.004306	0.122800	0.024564	1.000000	0.000006	0.000024	0.000029	-169.279828	-76.238858	163.523231
40014	9.571770	-0.294324	-2.264441	-0.022415	0.144798	0.026603	1.000000	0.000009	0.000017	0.000044	-169.265607	-76.238074	163.510498
40015	9.591333	-0.295654	-2.292660	0.000530	0.141849	0.052263	1.000000	-0.000004	0.000009	0.000034	-169.275618	-76.239544	163.517868
40016	9.585767	-0.319896	-2.295912	0.002156	0.117530	0.048685	1.000000	0.000017	0.000001	0.000037	-169.265408	-76.237049	163.510256
40017	9.581855	-0.316378	-2.319489	0.025672	0.118356	0.050243	1.000000	0.000007	0.000012	0.000039	-169.274347	-76.234876	163.516280
40018	9.558479	-0.312333	-2.314332	0.026532	0.121797	0.026147	1.000000	-0.000001	0.000029	0.000046	-169.259440	-76.235389	163.501699
40019	9.591472	-0.298738	-2.291678	-0.001685	0.139245	0.052300	1.000000	0.000006	0.000008	0.000033	-169.273254	-76.233881	163.518558
40020	9.585933	-0.323045	-2.294777	-0.000059	0.114923	0.048716	1.000000	0.000009	0.000017	0.000044	-169.259172	-76.233099	163.505956
40021	9.578151	-0.315191	-2.341907	0.048212	0.117455	0.051831	1.000000	0.000015	0.000013	0.000027	-169.271994	-76.233963	163.519848
40022	9.562576	-0.319477	-2.289473	0.000481	0.117265	0.024633	1.000000	0.000005	0.000014	0.000028	-169.266190	-76.233108	163.515399
40023	9.582131	-0.320777	-2.317741	0.023675	0.114277	0.050296	1.000000	0.000008	0.000007	0.000044	-169.269422	-76.235614	163.516363
40024	9.562625	-0.320893	-2.289073	0.000243	0.115905	0.024649	1.000000	-0.000004	0.000015	0.000029	-169.264246	-76.234867	163.511386
40025	9.591712	-0.302920	-2.290125	-0.003575	0.135075	0.052357	1.000000	0.000018	0.000022	0.000038	-169.274044	-76.235609	163.523664
40026	9.582292	-0.322903	-2.316782	0.022353	0.112567	0.050319	1.000000	0.000007	0.000018	0.000034	-169.265125	-76.235197	163.516143
40027	9.558925	-0.318656	-2.311626	0.022369	0.115647	0.026232	1.000000	0.000016	0.000023	0.000028	-169.272047	-76.231160	163.513456
40028	9.586368	-0.328431	-2.292196	-0.003599	0.109859	0.048773	1.000000	0.000006	0.000024	0.000029	-169.264990	-76.231506	163.507727
40029	9.563011	-0.324224	-2.286988	-0.001668	0.112215	0.024692	1.000000	0.000008	0.000023	0.000039	-169.271038	-76.239374	163.524952
40030	9.586541	-0.329800	-2.291273	-0.003333	0.108233	0.048791	1.000000	0.000006	0.000024	0.000029	-169.264015	-76.239746	163.519272
40031	9.567096	-0.329943	-2.262306	-0.026432	0.108839	0.023149	1.000000	0.000009	0.000028	0.000045	-169.270563	-76.243727	163.528010
40032	9.584523	-0.299167	-2.334343	0.042757	0.134371	0.055537	1.000000	0.000006	0.000024	0.000029	-169.263592	-76.244111	163.522389
40033	9.582900	-0.327574	-2.313609	0.021028	0.107369	0.050380	1.000000	0.000015	0.000013	0.000027	-169.270954	-76.249760	163.528404
40034	9.569010	-0.304129	-2.281461	-0.004426	0.133061	0.028338	1.000000	0.000008	0.000023	0.000039	-169.258962	-76.249817	163.517845
40035	9.592524	-0.309776	-2.285803	-0.006500	0.128235	0.052447	1.000000	0.000017	0.000017	0.000033	-169.271965	-76.248408	163.531124
40036	9.588699	-0.306230	-2.309121	0.017401	0.129782	0.054015	1.000000	0.000008	0.000023	0.000039	-169.260028	-76.248460	163.520618
40037	9.565330	-0.302059	-2.303979	0.017277	0.132422	0.029938	1.000000	0.000007	0.000018	0.000034	-169.277468	-76.243757	163.534186
40038	9.569282	-0.307134	-2.279915	-0.007416	0.130328	0.028373	1.000000	0.000009	0.000017	0.000044	-169.263768	-76.243017	163.521954
40039	9.592782	-0.312824	-2.284304	-0.008814	0.125577	0.052480	1.000000	0.000007	0.000018	0.000034	-169.270791	-76.245333	163.524059
40040	9.588931	-0.309377	-2.307736	0.015084	0.127117	0.054053	1.000000	0.000019	0.000010	0.000048	-169.254689	-76.243732	163.510611
40041	9.587280	-0.337872	-2.287001	-0.006967	0.100086	0.048875	1.000000	-0.000006	0.000026	0.000019	-169.269895	-76.249429	163.527189
40042	9.587337	-0.338464	-2.286677	-0.007362	0.099807	0.048877	1.000000	-0.000002	0.000008	0.000044	-169.258219	-76.247605	163.515818
40043	9.583468	-0.334967	-2.310194	0.017010	0.100682	0.050458	1.000000	-0.000002	0.000013	0.000040	-169.260771	-76.250203	163.510426
40044	9.569556	-0.311592	-2.278161	-0.008433	0.126382	0.028424	1.000000	0.000017	0.000011	0.000038	-169.249756	-76.248978	163.501967
40045	9.565718	-0.308022	-2.301578	0.015135	0.127363	0.030008	1.000000	-0.000003	0.000019	0.000035	-169.257313	-76.247602	163.496723
40046	9.594811	-0.290085	-2.302716	0.011428	0.147398	0.057732	1.000000	0.000016	0.000007	0.000032	-169.249535	-76.245945	163.491438
40047	9.569649	-0.313759	-2.277474	-0.010373	0.124122	0.028451	1.000000	0.000008	0.000007	0.000044	-169.260670	-76.243104	163.504363
40048	9.593155	-0.319523	-2.281809	-0.012054	0.120093	0.052544	1.000000	0.000008	0.000034	0.000040	-169.247600	-76.244364	163.492679
40049	9.573682	-0.319655	-2.252898	-0.035403	0.120614	0.026891	1.000000	-0.000012	0.000015	0.000041	-169.264438	-76.245651	163.513566
40050	9.565971	-0.311764	-2.300020	0.012792	0.123963	0.030055	1.000000	0.000007	0.000018	0.000034	-169.256007	-76.245291	163.506491
40051	9.562150	-0.308251	-2.323392	0.037318	0.124629	0.031649	1.000000	0.000009	0.000017	0.000044	-169.258564	-76.249507	163.509083
40052	9.589526	-0.318260	-2.304052	0.011343	0.118771	0.054162	1.000000	0.000007	0.000018	0.000034	-169.250162	-76.249162	163.502035
40053	9.595199	-0.295464	-2.300412	0.008762	0.141862	0.057816	1.000000	0.000007	0.000012	0.000039	-169.256932	-76.248201	163.501311
40054	9.570065	-0.319153	-2.274973	-0.012603	0.119459	0.028506	1.000000	0.000028	0.000021	0.000037	-169.244166	-76.248092	163.492233
40055	9.595275	-0.297018	-2.299895	0.007453	0.140312	0.057839	1.000000	0.000006	-0.000003	0.000032	-169.264849	-76.244157	163.521245
40056	9.562383	-0.312032	-2.321929	0.034683	0.121546	0.031697	1.000000	0.000008	0.000034	0.000040	-169.251973	-76.245433	163.509761
40057	9.589789	-0.321843	-2.302460	0.009299	0.114966	0.054209	1.000000	0.000004	0.000015	0.000017	-169.264422	-76.249465	163.518196
40058	9.556912	-0.336790	-2.324433	0.036532	0.096201	0.028065	1.000000	-0.000000	0.000023	0.000051	-169.248489	-76.249299	163.502571
40059	9.575974	-0.299212	-2.269974	-0.016566	0.139415	0.032204	1.000000	0.000007	0.000012	0.000039	-169.261238	-76.249616	163.519437
40060	9.562662	-0.314834	-2.320402	0.033671	0.118708	0.031735	1.000000	0.000016	0.000023	0.000028	-169.254245	-76.249963	163.514894
40061	9.599532	-0.305551	-2.273998	-0.019951	0.134020	0.056309	1.000000	0.000017	0.000011	0.000038	-169.276734	-76.243291	163.547463
40062	9.584413	-0.348999	-2.304189	0.008038	0.087443	0.050596	1.000000	-0.000014	0.000010	0.000035	-169.271161	-76.241927	163.540928
40063	9.562764	-0.316881	-2.319699	0.030913	0.115908	0.031778	1.000000	0.000016	0.000007	0.000032	-169.286562	-76.240284	163.563741
40064	9.590156	-0.326989	-2.300203	0.004922	0.110005	0.054269	1.000000	0.000011	0.000044	0.000052	-169.267497	-76.242410	163.546156
40065	9.562965	-0.318529	-2.318648	0.030527	0.114359	0.031797	1.000000	-0.000004	0.000015	0.000029	-169.282731	-76.245614	163.563554
40066	9.572506	-0.299886	-2.291370	0.003784	0.136278	0.033865	1.000000	-0.000004	0.000009	0.000034	-169.276654	-76.244166	163.557670
40067	9.561262	-0.347643	-2.297744	0.007721	0.087187	0.026548	1.000000	0.000018	0.000022	0.000038	-169.279518	-76.246492	163.555665
40068	9.590424	-0.329891	-2.298674	0.003972	0.107151	0.054301	1.000000	0.000008	0.000023	0.000039	-169.268294	-76.246583	163.545820
40069	9.567050	-0.325606	-2.293606	0.004909	0.109694	0.030231	1.000000	0.000005	0.000014	0.000028	-169.285308	-76.247537	163.563891
40070	9.590546	-0.331258	-2.297965	0.003209	0.105602	0.054318	1.000000	0.000018	0.000022	0.000038	-169.273536	-76.247537	163.554653
40071	9.594485	-0.336152	-2.273815	-0.022474	0.102628	0.052723	1.000000	-0.000025	0.000023	0.000026	-169.299016	-76.243648	163.575866
40072	9.569020	-0.299760	-2.312998	0.024965	0.133818	0.035532	1.000000	0.000009	0.000001	0.000048	-169.285608	-76.240977	163.563912
40073	9.567272	-0.328456	-2.292275	0.001720	0.106929	0.030262	1.000000	0.000008	0.000034	0.000040	-169.293949	-76.239962	163.568822
40074	9.573011	-0.305733	-2.288487	-0.000734	0.130669	0.033942	1.000000	0.000007	0.000012	0.000039	-169.284260	-76.238832	163.560496
40075	9.563542	-0.325784	-2.315256	0.025705	0.107276	0.031890	1.000000	0.000009	0.000017	0.000044	-169.288313	-76.242269	163.561068
40076	9.590860	-0.335825	-2.295994	-0.000299	0.101341	0.054363	1.000000	0.000006	0.000008	0.000033	-169.281862	-76.240725	163.555931
40077	9.592704	-0.308794	-2.316137	0.021164	0.126270	0.059669	1.000000	0.000009	0.000017	0.000044	-169.286556	-76.238906	163.555434
40078	9.571345	-0.336760	-2.267039	-0.024452	0.102057	0.028679	1.000000	0.000017	0.000011	0.000038	-169.276340	-76.237688	163.547713
40079	9.567540	-0.333204	-2.290469	-0.000593	0.102450	0.030310	1.000000	0.000007	0.000018	0.000034	-169.295040	-76.239113	163.577310
40080	9.592873	-0.311075	-2.315134	0.019923	0.124209	0.059698	1.000000	-0.000022	0.000026	0.000042	-169.285914	-76.239484	163.566086
40081	9.598630	-0.288329	-2.311332	0.017515	0.146994	0.063404	1.000000	0.000018	0.000022	0.000038	-169.296212	-76.241329	163.578769
40082	9.573443	-0.311896	-2.285848	-0.003799	0.124606	0.034020	1.000000	0.000007	0.000018	0.000034	-169.288541	-76.240991	163.572415
40083	9.569655	-0.308399	-2.309232	0.020147	0.125260	0.035656	1.000000	0.000019	0.000016	0.000043	-169.295148	-76.241903	163.578498
40084	9.573540	-0.313523	-2.285217	-0.004544	0.123109	0.034038	1.000000	-0.000002	0.000014	0.000040	-169.286284	-76.240890	163.569835
40085	9.593151	-0.315030	-2.313445	0.017812	0.120241	0.059751	1.000000	0.000008	0.000007	0.000044	-169.289869	-76.238654	163.566553
40086	9.597041	-0.320036	-2.289412	-0.006881	0.118091	0.058130	1.000000	-0.000004	0.000025	0.000030	-169.284704	-76.239188	163.561488
40087	9.573739	-0.315674	-2.284089	-0.006382	0.120695	0.034067	1.000000	0.000007	0.000040	0.000035	-169.298180	-76.240395	163.579828
40088	9.591567	-0.344805	-2.291704	-0.006048	0.092511	0.054448	1.000000	0.000005	0.000003	0.000027	-169.295208	-76.238428	163.578098
40089	9.570017	-0.312687	-2.307154	0.016903	0.120852	0.035717	1.000000	0.000018	0.000022	0.000038	-169.309494	-76.239066	163.600457
40090	9.573921	-0.317740	-2.283038	-0.007789	0.118692	0.034090	1.000000	0.000017	0.000017	0.000033	-169.301411	-76.238632	163.594826
40091	9.573981	-0.318429	-2.282688	-0.007350	0.117720	0.034102	1.000000	0.000007	0.000018	0.000034	-169.303492	-76.243951	163.587304
40092	9.593628	-0.319865	-2.310804	0.015213	0.115402	0.059813	1.000000	0.000007	0.000012	0.000039	-169.294181	-76.242854	163.579315
40093	9.575934	-0.292078	-2.302480	0.013698	0.142000	0.039464	1.000000	0.000007	0.000018	0.000034	-169.311527	-76.241999	163.599544
40094	9.564578	-0.339807	-2.308952	0.017429	0.093589	0.032048	1.000000	0.000007	0.000002	0.000038	-169.303642	-76.239698	163.592977
40095	9.570323	-0.316919	-2.305308	0.014490	0.116673	0.035771	1.000000	0.000005	0.000030	0.000024	-169.318095	-76.239156	163.594733
40096	9.574230	-0.321837	-2.281168	-0.010203	0.114515	0.034138	1.000000	0.000007	0.000012	0.000039	-169.308881	-76.238050	163.586825
40097	9.570408	-0.318323	-2.304762	0.013533	0.115292	0.035789	1.000000	0.000017	0.000001	0.000037	-169.318568	-76.235909	163.591863
40098	9.570446	-0.319182	-2.304485	0.013130	0.114962	0.035793	1.000000	0.000019	0.000027	0.000044	-169.304225	-76.236333	163.580014
40099	9.597796	-0.329245	-2.284941	-0.012877	0.108232	0.058237	1.000000	0.000006	0.000024	0.000029	-169.315877	-76.238058	163.586792
40100	9.574434	-0.324797	-2.279890	-0.011941	0.111739	0.034168	1.000000	0.000006	0.000014	0.000028	-169.311775	-76.237302	163.583886
40101	9.580175	-0.301947	-2.276298	-0.013984	0.134780	0.037901	1.000000	-0.000002	0.000014	0.000040	-169.316204	-76.239632	163.579492
40102	9.580212	-0.302694	-2.276041	-0.014386	0.134447	0.037905	1.000000	-0.000002	0.000014	0.000040	-169.307683	-76.238633	163.571082
40103	9.570787	-0.322634	-2.302587	0.011765	0.111076	0.035840	1.000000	0.000007	0.000040	0.000035	-169.315569	-76.243191	163.577472
40104	9.576590	-0.299874	-2.298747	0.009307	0.134782	0.039570	1.000000	0.000007	0.000012	0.000039	-169.306482	-76.242103	163.569642
40105	9.594349	-0.329083	-2.306512	0.009606	0.105511	0.059931	1.000000	0.000015	0.000012	0.000027	-169.326503	-76.242986	163.598329
40106	9.570992	-0.324790	-2.301430	0.010548	0.109024	0.035864	1.000000	-0.000001	0.000029	0.000046	-169.313501	-76.243627	163.585490
40107	9.580602	-0.306358	-2.273911	-0.016539	0.130029	0.037961	1.000000	0.000007	0.000018	0.000034	-169.329100	-76.242844	163.599316
40108	9.584503	-0.311334	-2.249720	-0.041231	0.127862	0.036313	1.000000	0.000007	0.000029	0.000035	-169.320590	-76.243734	163.592035
40109	9.600377	-0.308518	-2.301450	0.005398	0.126356	0.063704	1.000000	0.000008	0.000012	0.000039	-169.335603	-76.243175	163.612754
40110	9.575101	-0.332073	-2.276037	-0.015881	0.104005	0.034247	1.000000	0.000018	0.000022	0.000038	-169.324710	-76.243194	163.604283
40111	9.580887	-0.309319	-2.272309	-0.017971	0.126667	0.038002	1.000000	0.000007	0.000018	0.000034	-169.339210	-76.246747	163.623650
40112	9.571407	-0.329254	-2.299070	0.007985	0.104119	0.035920	1.000000	0.000008	0.000012	0.000039	-169.330329	-76.245672	163.616038
40113	9.600643	-0.311465	-2.299941	0.004269	0.123156	0.063745	1.000000	-0.000004	0.000036	0.000031	-169.342354	-76.249208	163.618076
40114	9.604530	-0.316371	-2.275789	-0.020422	0.120980	0.062092	1.000000	0.000006	0.000008	0.000033	-169.336713	-76.247710	163.613649
40115	9.571616	-0.331191	-2.297923	0.006764	0.101498	0.035948	1.000000	-0.000003	0.000019	0.000035	-169.349933	-76.248088	163.619983
40116	9.595122	-0.336849	-2.302170	0.005010	0.097281	0.060019	1.000000	0.000006	0.000024	0.000029	-169.344807	-76.248566	163.616030
40117	9.577508	-0.308991	-2.293710	0.002766	0.123903	0.039717	1.000000	0.000008	0.000023	0.000039	-169.364438	-76.243970	163.640967
40118	9.577583	-0.309711	-2.293299	0.002362	0.123554	0.039722	1.000000	-0.000003	0.000019	0.000035	-169.358146	-76.243757	163.634737
40119	9.595319	-0.338926	-2.301042	0.002462	0.094344	0.060048	1.000000	0.000016	0.000007	0.000032	-169.375707	-76.242583	163.657028
40120	9.544737	-0.325280	-2.315049	0.029064	0.103582	0.013589	1.000000	0.000008	0.000034	0.000040	-169.364302	-76.243902	163.646890
40121	9.601201	-0.316971	-2.296861	0.000717	0.116715	0.063824	1.000000	0.000008	0.000012	0.000039	-169.370294	-76.250751	163.654581
40122	9.572059	-0.336236	-2.295343	0.003746	0.096209	0.036003	1.000000	0.000008	0.000007	0.000044	-169.359798	-76.248914	163.645377
40123	9.583548	-0.290054	-2.288488	-0.001509	0.143072	0.043541	1.000000	-0.000002	0.000014	0.000040	-169.376667	-76.245356	163.659024
40124	9.568340	-0.333523	-2.318528	0.026521	0.096484	0.037690	1.000000	0.000008	0.000023	0.000039	-169.366706	-76.245487	163.650320
40125	9.574111	-0.310802	-2.314954	0.023356	0.119371	0.041470	1.000000	0.000007	0.000002	0.000038	-169.382851	-76.240604	163.662060
40126	9.577960	-0.315889	-2.290881	-0.001337	0.117182	0.039800	1.000000	0.000018	0.000033	0.000039	-169.370980	-76.241830	163.652598
40127	9.546998	-0.302981	-2.333396	0.048099	0.123450	0.019106	1.000000	0.000006	-0.000003	0.000032	-169.389635	-76.240074	163.670674
40128	9.570472	-0.308772	-2.337754	0.046325	0.119199	0.043175	1.000000	0.000008	0.000034	0.000040	-169.378417	-76.241400	163.660712
40129	9.578192	-0.318042	-2.289613	-0.002577	0.114503	0.039831	1.000000	-0.000004	0.000036	0.000031	-169.388256	-76.244594	163.659472
40130	9.578281	-0.318714	-2.289145	-0.002983	0.114142	0.039835	1.000000	0.000008	0.000012	0.000039	-169.379789	-76.243520	163.652230
40131	9.578301	-0.319523	-2.288952	-0.003306	0.112976	0.039849	1.000000	-0.000002	0.000008	0.000044	-169.388538	-76.243497	163.655077
40132	9.574559	-0.316050	-2.312388	0.020576	0.114442	0.041535	1.000000	0.000008	0.000023	0.000039	-169.378746	-76.243628	163.646509
40133	9.584184	-0.297535	-2.284863	-0.007076	0.135478	0.043646	1.000000	0.000006	0.000024	0.000029	-169.399064	-76.240438	163.665970
40134	9.578502	-0.321583	-2.287820	-0.005414	0.111084	0.039869	1.000000	-0.000004	0.000015	0.000029	-169.396337	-76.239802	163.663216
40135	9.578576	-0.322303	-2.287409	-0.005555	0.110034	0.039881	1.000000	0.000009	0.000028	0.000045	-169.397880	-76.242845	163.654148
40136	9.545713	-0.337165	-2.309319	0.021771	0.091370	0.013729	1.000000	0.000006	0.000024	0.000029	-169.393215	-76.243318	163.650600
40137	9.578765	-0.323624	-2.286431	-0.003808	0.108129	0.039903	1.000000	0.000006	0.000024	0.000029	-169.398298	-76.260203	163.670420
40138	9.604239	-0.301675	-2.311086	0.016632	0.129708	0.069440	1.000000	0.000019	0.000016	0.000043	-169.386145	-76.259503	163.660672
40139	9.578881	-0.325097	-2.285734	-0.003867	0.106444	0.039921	1.000000	-0.000004	0.000015	0.000029	-169.400723	-76.264609	163.673749
40140	9.557500	-0.292848	-2.301185	0.019321	0.135850	0.021345	1.000000	0.000017	0.000017	0.000033	-169.393652	-76.264270	163.668998
40141	9.584770	-0.302960	-2.281690	-0.007124	0.128801	0.043735	1.000000	-0.000002	0.000024	0.000040	-169.409145	-76.263940	163.685515
40142	9.579077	-0.327183	-2.284616	-0.005447	0.104401	0.039942	1.000000	0.000017	0.000017	0.000033	-169.402128	-76.263599	163.680819
40143	9.575335	-0.323681	-2.308116	0.018614	0.105108	0.041643	1.000000	0.000008	0.000006	0.000044	-169.408597	-76.263937	163.681244
40144	9.581178	-0.300913	-2.304376	0.016141	0.128762	0.045448	1.000000	-0.000004	0.000036	0.000031	-169.403298	-76.265774	163.675919
40145	9.585061	-0.305898	-2.280075	-0.008765	0.125745	0.043773	1.000000	0.000018	0.000022	0.000038	-169.413826	-76.265941	163.686079
40146	9.571825	-0.321553	-2.330481	0.041484	0.105003	0.043358	1.000000	0.000007	0.000018	0.000034	-169.407485	-76.265704	163.680888
40147	9.575615	-0.326559	-2.306548	0.016605	0.102051	0.041678	1.000000	0.000007	0.000002	0.000038	-169.419640	-76.263559	163.687219
40148	9.579411	-0.331637	-2.282574	-0.008081	0.099847	0.039988	1.000000	0.000018	0.000022	0.000038	-169.409529	-76.263650	163.679445
40149	9.558072	-0.299505	-2.297951	0.014066	0.128348	0.021454	1.000000	0.000007	0.000018	0.000034	-169.431921	-76.259028	163.702886
40150	9.581531	-0.305276	-2.302334	0.012277	0.124034	0.045514	1.000000	0.000006	0.000008	0.000033	-169.427047	-76.257576	163.699141
40151	9.608753	-0.315340	-2.282978	-0.014325	0.117152	0.067881	1.000000	0.000007	0.000018	0.000034	-169.441859	-76.255530	163.708055
40152	9.556211	-0.329238	-2.276623	-0.009873	0.100626	0.015962	1.000000	0.000006	0.000024	0.000029	-169.437515	-76.256047	163.704799
40153	9.605134	-0.312358	-2.305943	0.008722	0.117481	0.069603	1.000000	0.000008	0.000012	0.000039	-169.449791	-76.253709	163.707721
40154	9.572202	-0.327232	-2.328140	0.036068	0.098841	0.043443	1.000000	0.000017	0.000011	0.000038	-169.441196	-76.252574	163.701429
40155	9.558354	-0.303804	-2.296210	0.010433	0.123750	0.021518	1.000000	-0.000000	0.000012	0.000050	-169.450821	-76.251142	163.706203
40156	9.578052	-0.305390	-2.324330	0.032916	0.121243	0.047285	1.000000	0.000006	0.000014	0.000028	-169.447925	-76.250451	163.704369
40157	9.609047	-0.319762	-2.281125	-0.017947	0.112401	0.067930	1.000000	0.000008	0.000023	0.000039	-169.462312	-76.249299	163.718057
40158	9.578189	-0.306816	-2.323577	0.031616	0.119611	0.047310	1.000000	0.000017	0.000017	0.000033	-169.455661	-76.248933	163.713662
40159	9.578233	-0.307456	-2.323310	0.030599	0.118379	0.047328	1.000000	-0.000023	0.000011	0.000036	-169.476909	-76.245686	163.728000
40160	9.562352	-0.311588	-2.270986	-0.016977	0.118305	0.019848	1.000000	0.000008	0.000012	0.000039	-169.469070	-76.244639	163.721298
40161	9.582050	-0.313195	-2.299110	0.005059	0.114760	0.045633	1.000000	0.000008	0.000012	0.000039	-169.488264	-76.242881	163.745322
40162	9.582083	-0.313970	-2.298867	0.004649	0.114371	0.045638	1.000000	0.000008	0.000012	0.000039	-169.480485	-76.241832	163.738687
40163	9.582127	-0.314789	-2.298570	0.003546	0.113232	0.045651	1.000000	-0.000001	0.000018	0.000045	-169.492530	-76.238625	163.746914
40164	9.605604	-0.320689	-2.302840	0.001724	0.108878	0.069705	1.000000	0.000007	0.000018	0.000034	-169.486645	-76.238341	163.742126
40165	9.578499	-0.312039	-2.321602	0.027618	0.113713	0.047391	1.000000	-0.000001	0.000018	0.000045	-169.485367	-76.241938	163.723178
40166	9.562643	-0.316327	-2.269104	-0.019951	0.113655	0.019897	1.000000	0.000018	0.000022	0.000038	-169.475688	-76.241992	163.715767
40167	9.578643	-0.313601	-2.320797	0.026970	0.111984	0.047413	1.000000	-0.000013	0.000021	0.000036	-169.492094	-76.244485	163.734157
40168	9.559036	-0.313305	-2.292090	0.003688	0.113743	0.021643	1.000000	-0.000024	0.000017	0.000031	-169.491276	-76.244088	163.730907
40169	9.578750	-0.314805	-2.320192	0.026793	0.110375	0.047432	1.000000	0.000027	0.000010	0.000037	-169.497358	-76.247669	163.729705
40170	9.559123	-0.314696	-2.291539	0.003514	0.112139	0.021662	1.000000	-0.000003	0.000019	0.000035	-169.492156	-76.247514	163.724413
40171	9.582626	-0.320522	-2.295698	0.001778	0.106956	0.045722	1.000000	0.000017	0.000028	0.000034	-169.503013	-76.250101	163.730195
40172	9.584770	-0.293502	-2.315715	0.023587	0.132393	0.051309	1.000000	0.000008	0.000012	0.000039	-169.495395	-76.249076	163.723668
40173	9.576926	-0.345486	-2.298335	-0.000293	-0.026139	0.042186	1.000000	0.000017	0.000017	0.000033	-172.087383	-76.394850	165.766048
40174	9.565196	-0.294005	-2.286756	-0.002995	0.025394	0.026419	1.000000	-0.000004	0.000015	0.000029	-172.092313	-76.394648	165.769808
40175	9.579152	-0.319175	-2.317935	0.021273	-0.001927	0.048063	1.000000	0.000012	0.000038	0.000057	-172.081114	-76.396560	165.761481
40176	9.559569	-0.319058	-2.289073	-0.001984	0.000032	0.022302	1.000000	0.000004	0.000015	0.000017	-172.090589	-76.396543	165.770853
40177	9.579286	-0.320601	-2.317182	0.020452	-0.003305	0.048064	1.000000	0.000019	0.000010	0.000048	-172.084026	-76.395693	165.760230
40178	9.586802	-0.330071	-2.269360	-0.028567	-0.007170	0.044535	1.000000	-0.000002	0.000024	0.000040	-172.082648	-76.396415	165.757785
40179	9.565555	-0.297871	-2.284754	-0.005109	0.021959	0.026427	1.000000	0.000007	0.000018	0.000034	-172.084081	-76.396517	165.766208
40180	9.589029	-0.303799	-2.289011	-0.006997	0.017034	0.050426	1.000000	-0.000001	0.000018	0.000045	-172.080694	-76.396484	165.761787
40181	9.602948	-0.328899	-2.320328	0.017285	-0.010299	0.072063	1.000000	-0.000003	0.000019	0.000035	-172.082680	-76.396763	165.765372
40182	9.542344	-0.294860	-2.279020	-0.004905	0.024149	0.002433	1.000000	0.000016	0.000023	0.000028	-172.085229	-76.397563	165.769072
40183	9.575933	-0.320816	-2.338757	0.042245	-0.005844	0.049837	1.000000	0.000008	0.000006	0.000044	-172.082322	-76.396449	165.752946
40184	9.565848	-0.301578	-2.283040	-0.007172	0.018532	0.026432	1.000000	-0.000002	0.000024	0.000040	-172.080943	-76.397170	165.750501
40185	9.550533	-0.345115	-2.312989	0.020405	-0.028539	0.019936	1.000000	0.000010	0.000022	0.000050	-172.074276	-76.397220	165.762565
40186	9.585673	-0.304137	-2.310602	0.014754	0.014501	0.052204	1.000000	0.000016	0.000012	0.000027	-172.077969	-76.396805	165.767391
40187	9.583610	-0.332518	-2.289874	-0.008085	-0.011773	0.046292	1.000000	-0.000003	0.000019	0.000035	-172.079876	-76.397090	165.763276
40188	9.569820	-0.308842	-2.257844	-0.033207	0.014192	0.024659	1.000000	0.000017	0.000017	0.000033	-172.080414	-76.397136	165.765000
40189	9.576281	-0.325341	-2.336706	0.039700	-0.009965	0.049844	1.000000	-0.000002	0.000014	0.000040	-172.080217	-76.396861	165.758278
40190	9.589616	-0.311056	-2.285574	-0.011192	0.010153	0.050431	1.000000	0.000005	0.000019	0.000023	-172.086537	-76.397306	165.764548
40191	9.569959	-0.310770	-2.256988	-0.034471	0.012125	0.024658	1.000000	0.000036	0.000004	0.000030	-172.087350	-76.395735	165.779468
40192	9.586004	-0.308145	-2.308696	0.012222	0.010373	0.052212	1.000000	0.000008	0.000034	0.000040	-172.084208	-76.397564	165.776432
40193	9.589805	-0.313200	-2.284485	-0.012548	0.008081	0.050432	1.000000	-0.000012	0.000015	0.000041	-172.085071	-76.396913	165.792704
40194	9.560632	-0.332252	-2.282748	-0.009602	-0.012321	0.022289	1.000000	0.000008	0.000034	0.000040	-172.081927	-76.398742	165.789666
40195	9.586261	-0.310470	-2.307315	0.010914	0.008308	0.052216	1.000000	0.000008	0.000012	0.000039	-172.081219	-76.398211	165.788045
40196	9.580458	-0.334664	-2.310340	0.012380	-0.016360	0.048064	1.000000	0.000007	0.000018	0.000034	-172.082374	-76.398363	165.789236
40197	9.553399	-0.325878	-2.329143	0.037721	-0.011171	0.025859	1.000000	0.000017	0.000017	0.000033	-172.083190	-76.398326	165.797444
40198	9.590117	-0.316859	-2.282673	-0.014666	0.004643	0.050431	1.000000	0.000006	0.000008	0.000033	-172.085490	-76.397263	165.799761
40199	9.568913	-0.284630	-2.298170	0.008795	0.033816	0.032386	1.000000	0.000037	0.000026	0.000032	-172.083861	-76.398314	165.806372
40200	9.590287	-0.318370	-2.281748	-0.015512	0.003264	0.050430	1.000000	0.000009	0.000034	0.000040	-172.080716	-76.400142	165.803336
40201	9.557403	-0.333027	-2.303761	0.011705	-0.015518	0.024070	1.000000	-0.000004	0.000015	0.000029	-172.086023	-76.399728	165.817188
40202	9.583022	-0.311167	-2.328461	0.032194	0.005113	0.054014	1.000000	-0.000001	0.000018	0.000045	-172.082632	-76.399695	165.812767
40203	9.586769	-0.316274	-2.304416	0.007443	0.002811	0.052222	1.000000	0.000008	0.000012	0.000039	-172.082135	-76.398915	165.822028
40204	9.563409	-0.311800	-2.299529	0.008508	0.006411	0.028234	1.000000	0.000007	0.000018	0.000034	-172.083289	-76.399067	165.823220
40205	9.596455	-0.298559	-2.276641	-0.019557	0.023802	0.054594	1.000000	0.000008	0.000023	0.000039	-172.081241	-76.399898	165.808892
40206	9.590681	-0.322795	-2.279470	-0.018080	-0.000863	0.050426	1.000000	0.000027	0.000027	0.000033	-172.080010	-76.401049	165.810021
40207	9.567355	-0.318302	-2.274440	-0.017006	0.002735	0.026437	1.000000	0.000007	0.000018	0.000034	-172.081315	-76.401242	165.809884
40208	9.593004	-0.296600	-2.299057	0.003476	0.023352	0.056396	1.000000	0.000010	0.000022	0.000050	-172.074147	-76.401563	165.802891
40209	9.561628	-0.343397	-2.276919	-0.015955	-0.022623	0.022263	1.000000	0.000006	0.000024	0.000029	-172.077633	-76.402422	165.816253
40210	9.590976	-0.325714	-2.277811	-0.019773	-0.003621	0.050422	1.000000	0.000006	0.000014	0.000028	-172.081943	-76.402112	165.820549
40211	9.560232	-0.312655	-2.320431	0.029954	0.003203	0.030040	1.000000	0.000009	0.000017	0.000044	-172.077766	-76.402361	165.799976
40212	9.569873	-0.294213	-2.292958	0.003341	0.024891	0.032416	1.000000	0.000006	0.000024	0.000029	-172.080930	-76.403266	165.803147
40213	9.587475	-0.323626	-2.300453	0.003381	-0.004080	0.052224	1.000000	0.000009	0.000017	0.000044	-172.076754	-76.403488	165.780245
40214	9.564115	-0.319325	-2.295554	0.004458	-0.000464	0.028238	1.000000	0.000029	0.000015	0.000042	-172.071500	-76.403132	165.777418
40215	9.593437	-0.301779	-2.296572	0.000630	0.018522	0.056406	1.000000	0.000004	0.000009	0.000022	-172.079248	-76.402299	165.791529
40216	9.560511	-0.316459	-2.318768	0.027897	-0.000234	0.030047	1.000000	0.000010	0.000022	0.000050	-172.072077	-76.402621	165.784536
40217	9.564264	-0.321393	-2.294647	0.003144	-0.002526	0.028239	1.000000	-0.000016	0.000017	0.000019	-172.083203	-76.402612	165.806411
40218	9.597299	-0.308021	-2.271818	-0.024973	0.014852	0.054599	1.000000	-0.000001	0.000018	0.000045	-172.079809	-76.402579	165.801991
40219	9.560685	-0.318502	-2.317771	0.026615	-0.002293	0.030050	1.000000	0.000008	0.000012	0.000039	-172.079076	-76.402107	165.800041
40220	9.587804	-0.328791	-2.298349	0.000396	-0.008895	0.052221	1.000000	0.000008	0.000012	0.000039	-172.078218	-76.401505	165.799255
40221	9.566655	-0.296555	-2.313916	0.023878	0.020309	0.034244	1.000000	0.000017	0.000017	0.000033	-172.078959	-76.401600	165.804412
40222	9.587911	-0.330208	-2.297699	-0.000441	-0.010274	0.052220	1.000000	-0.000003	0.000019	0.000035	-172.080732	-76.401860	165.805074
40223	9.570466	-0.302180	-2.289446	-0.001257	0.017324	0.032433	1.000000	0.000007	0.000018	0.000034	-172.082096	-76.402032	165.809242
40224	9.568295	-0.330648	-2.268715	-0.024068	-0.008944	0.026419	1.000000	0.000008	0.000012	0.000039	-172.081237	-76.401430	165.808457
40225	9.593955	-0.308824	-2.293469	-0.003628	0.011631	0.056416	1.000000	0.000016	0.000012	0.000027	-172.085210	-76.400920	165.819603
40226	9.574304	-0.308690	-2.264714	-0.026834	0.013655	0.030616	1.000000	0.000020	0.000032	0.000050	-172.076271	-76.402347	165.812017
40227	9.564805	-0.328761	-2.291346	-0.001093	-0.009397	0.028235	1.000000	-0.000002	0.000014	0.000040	-172.076448	-76.401640	165.824122
40228	9.574444	-0.310252	-2.263911	-0.027718	0.012275	0.030615	1.000000	0.000006	0.000024	0.000029	-172.079609	-76.402544	165.827294
40229	9.594251	-0.311853	-2.291821	-0.005372	0.008875	0.056418	1.000000	0.000017	0.000017	0.000033	-172.080414	-76.402530	165.835125
40230	9.570916	-0.307369	-2.286870	-0.004282	0.012519	0.032439	1.000000	0.000018	0.000022	0.000038	-172.077787	-76.403033	165.833745
40231	9.594359	-0.313464	-2.291149	-0.006218	0.007496	0.056419	1.000000	0.000008	0.000006	0.000044	-172.075123	-76.401684	165.833068
40232	9.567333	-0.304749	-2.310045	0.019166	0.012766	0.034267	1.000000	-0.000002	0.000024	0.000040	-172.073738	-76.402405	165.830629
40233	9.571064	-0.309710	-2.285936	-0.005578	0.010450	0.032441	1.000000	0.000016	0.000012	0.000027	-172.077833	-76.401832	165.848978
40234	9.594518	-0.315596	-2.290193	-0.007515	0.005431	0.056419	1.000000	0.000007	0.000018	0.000034	-172.078984	-76.401982	165.850172
40235	9.594573	-0.316394	-2.289853	-0.007922	0.004739	0.056419	1.000000	0.000019	0.000016	0.000043	-172.074442	-76.401824	165.842261
40236	9.594612	-0.317242	-2.289570	-0.008343	0.004054	0.056419	1.000000	0.000008	0.000012	0.000039	-172.073583	-76.401221	165.841477
40237	9.563932	-0.304158	-2.332231	0.041285	0.010963	0.036108	1.000000	0.000017	0.000017	0.000033	-172.074577	-76.401010	165.858974
40238	9.591074	-0.314329	-2.312618	0.015056	0.004305	0.058253	1.000000	-0.000004	0.000025	0.000030	-172.078359	-76.402023	165.861617
40239	9.567746	-0.309802	-2.307661	0.016183	0.007954	0.034278	1.000000	0.000019	0.000016	0.000043	-172.073754	-76.401944	165.850569
40240	9.587542	-0.311482	-2.335655	0.038531	0.004553	0.060091	1.000000	-0.000024	0.000017	0.000031	-172.079928	-76.401961	165.853279
40241	9.545881	-0.337922	-2.258133	-0.029791	-0.016303	0.002405	1.000000	0.000028	0.000032	0.000038	-172.075790	-76.403572	165.856476
40242	9.567978	-0.312049	-2.306398	0.014918	0.005895	0.034281	1.000000	0.000009	0.000017	0.000044	-172.071772	-76.403430	165.852588
40243	9.591429	-0.318031	-2.310642	0.012989	0.000851	0.058257	1.000000	-0.000004	0.000015	0.000029	-172.076804	-76.403331	165.852376
40244	9.568077	-0.313486	-2.305793	0.014093	0.004519	0.034283	1.000000	0.000019	0.000016	0.000043	-172.072163	-76.403080	165.849017
40245	9.571782	-0.318579	-2.281705	-0.010633	0.002202	0.032442	1.000000	0.000017	0.000017	0.000033	-172.072900	-76.403044	165.851150
40246	9.597515	-0.296742	-2.306385	0.009780	0.022758	0.062491	1.000000	-0.000004	0.000015	0.000029	-172.077829	-76.402843	165.854920
40247	9.591659	-0.320914	-2.309288	0.011329	-0.001906	0.058259	1.000000	0.000009	0.000028	0.000045	-172.072644	-76.404170	165.839914
40248	9.568318	-0.316598	-2.304366	0.012437	0.001768	0.034286	1.000000	0.000020	0.000010	0.000048	-172.065992	-76.403165	165.834576
40249	9.572029	-0.321556	-2.280253	-0.012309	-0.000549	0.032440	1.000000	-0.000006	0.000027	0.000019	-172.075328	-76.404280	165.853433
40250	9.574399	-0.294440	-2.300276	0.009630	0.024362	0.038526	1.000000	0.000009	0.000017	0.000044	-172.071308	-76.404138	165.849544
40251	9.595574	-0.328282	-2.283975	-0.014665	-0.006283	0.056411	1.000000	-0.000002	0.000024	0.000040	-172.069929	-76.404970	165.836418
40252	9.574556	-0.296047	-2.299418	0.008811	0.022988	0.038530	1.000000	0.000008	0.000023	0.000039	-172.067918	-76.405582	165.834508
40253	9.568680	-0.320157	-2.302370	0.010284	-0.001667	0.034289	1.000000	-0.000004	0.000015	0.000029	-172.073243	-76.405211	165.849921
40254	9.601726	-0.306959	-2.279480	-0.017892	0.015615	0.060652	1.000000	0.000018	0.000022	0.000038	-172.070609	-76.405712	165.848539
40255	9.565173	-0.317300	-2.325377	0.033741	-0.001414	0.036143	1.000000	0.000007	0.000018	0.000034	-172.071819	-76.405922	165.841965
40256	9.574839	-0.298829	-2.297879	0.007102	0.020241	0.038537	1.000000	-0.000022	0.000027	0.000042	-172.071676	-76.406863	165.838470
40257	9.568947	-0.323137	-2.300843	0.008623	-0.004414	0.034290	1.000000	0.000020	0.000010	0.000048	-172.065075	-76.405947	165.825072
40258	9.601980	-0.310177	-2.277975	-0.019553	0.012868	0.060653	1.000000	0.000008	0.000023	0.000039	-172.063063	-76.406558	165.823161
40259	9.578642	-0.305649	-2.273086	-0.018450	0.016550	0.036684	1.000000	-0.000002	0.000014	0.000040	-172.063120	-76.405994	165.827872
40260	9.542081	-0.316010	-2.319040	0.033177	-0.000467	0.012180	1.000000	0.000018	0.000022	0.000038	-172.060485	-76.406495	165.826490
40261	9.584740	-0.283689	-2.268973	-0.021213	0.039141	0.040941	1.000000	0.000006	0.000024	0.000029	-172.063754	-76.407436	165.824748
40262	9.592697	-0.332221	-2.303369	0.004965	-0.012228	0.058257	1.000000	-0.000003	0.000030	0.000035	-172.064375	-76.408910	165.824288
40263	9.598763	-0.309568	-2.299492	0.002627	0.011041	0.062515	1.000000	0.000009	0.000028	0.000045	-172.059333	-76.410053	165.815724
40264	9.575416	-0.304988	-2.294663	0.003751	0.014742	0.038549	1.000000	0.000005	0.000003	0.000027	-172.064789	-76.408528	165.821150
40265	9.575453	-0.305669	-2.294419	0.003271	0.014054	0.038550	1.000000	0.000018	0.000022	0.000039	-172.062614	-76.408725	165.833320
40266	9.575527	-0.306583	-2.293986	0.002850	0.013370	0.038551	1.000000	0.000010	0.000022	0.000050	-172.055429	-76.409042	165.826324
40267	9.579237	-0.311822	-2.269738	-0.021911	0.011046	0.036685	1.000000	0.000009	0.000028	0.000045	-172.050746	-76.409847	165.837012
40268	9.599115	-0.313659	-2.297470	0.000407	0.007602	0.062519	1.000000	0.000007	0.000029	0.000035	-172.050741	-76.411211	165.837080
40269	9.572212	-0.304756	-2.316144	0.025860	0.012930	0.040424	1.000000	0.000007	0.000029	0.000035	-172.050747	-76.412790	165.827081
40270	9.579551	-0.314049	-2.268107	-0.023136	0.008989	0.036684	1.000000	-0.000002	0.000024	0.000040	-172.049354	-76.413510	165.824641
40271	9.585597	-0.291331	-2.264382	-0.025475	0.032257	0.040955	1.000000	0.000007	0.000018	0.000034	-172.050634	-76.413762	165.822154
40272	9.576067	-0.311001	-2.291139	0.000326	0.009241	0.038556	1.000000	0.000004	0.000015	0.000017	-172.060114	-76.413744	165.831543
40273	9.570155	-0.335117	-2.294097	0.001836	-0.015410	0.034282	1.000000	0.000010	0.000022	0.000050	-172.053135	-76.414052	165.824290
40274	9.576211	-0.312471	-2.290334	-0.000520	0.007865	0.038558	1.000000	0.000006	0.000024	0.000029	-172.056291	-76.414955	165.827465
40275	9.572689	-0.308862	-2.313629	0.023359	0.008799	0.040435	1.000000	-0.000002	0.000024	0.000040	-172.054992	-76.415751	165.818560
40276	9.570372	-0.337293	-2.292874	0.000583	-0.017467	0.034279	1.000000	0.000006	0.000008	0.000033	-172.057288	-76.414686	165.820881
40277	9.569143	-0.305952	-2.336937	0.046820	0.009043	0.042317	1.000000	0.000006	0.000008	0.000033	-172.059721	-76.413721	165.819661
40278	9.580010	-0.319557	-2.265398	-0.026464	0.003492	0.036679	1.000000	-0.000001	0.000018	0.000045	-172.056316	-76.413688	165.815241
40279	9.578835	-0.288328	-2.309257	0.019764	0.030001	0.044725	1.000000	0.000007	0.000018	0.000034	-172.057648	-76.413884	165.815611
40280	9.599960	-0.321913	-2.292794	-0.004575	-0.000675	0.062521	1.000000	0.000005	0.000036	0.000019	-172.064826	-76.416294	165.822749
40281	9.580240	-0.321442	-2.264159	-0.027740	0.001421	0.036676	1.000000	0.000017	0.000000	0.000037	-172.064796	-76.414271	165.829211
40282	9.579047	-0.290233	-2.308139	0.018478	0.027943	0.044734	1.000000	0.000008	0.000023	0.000039	-172.062778	-76.414881	165.827299
40283	9.573149	-0.314340	-2.310985	0.019979	0.003296	0.040446	1.000000	-0.000004	0.000025	0.000030	-172.066819	-76.415834	165.832411
40284	9.600234	-0.324637	-2.291262	-0.006295	-0.003433	0.062519	1.000000	0.000008	0.000023	0.000039	-172.064800	-76.416444	165.830499
40285	9.559491	-0.291241	-2.278634	-0.005550	0.028673	0.018894	1.000000	0.000006	0.000008	0.000033	-172.067417	-76.415232	165.838677
40286	9.576934	-0.320760	-2.286163	-0.005599	-0.000388	0.038559	1.000000	0.000018	0.000022	0.000039	-172.064773	-76.415731	165.837291
40287	9.553613	-0.316226	-2.281249	-0.004436	0.003347	0.014601	1.000000	-0.000021	0.000021	0.000047	-172.062698	-76.416010	165.824542
40288	9.602812	-0.300035	-2.310526	0.014353	0.019391	0.068707	1.000000	0.000037	-0.000002	0.000035	-172.061107	-76.413857	165.826460
40289	9.577078	-0.323103	-2.285228	-0.006853	-0.002454	0.038558	1.000000	-0.000003	0.000036	0.000031	-172.063978	-76.416065	165.829550
40290	9.553758	-0.318306	-2.280351	-0.005702	0.001292	0.014600	1.000000	0.000005	0.000003	0.000027	-172.069434	-76.414539	165.834977
40291	9.573589	-0.320061	-2.308375	0.016586	-0.002205	0.040452	1.000000	0.000018	0.000022	0.000039	-172.067045	-76.415026	165.835955
40292	9.573635	-0.320801	-2.308084	0.016165	-0.002889	0.040453	1.000000	0.000006	0.000008	0.000033	-172.069338	-76.413960	165.838275
40293	9.573673	-0.321469	-2.307831	0.015720	-0.003579	0.040453	1.000000	0.000007	0.000018	0.000034	-172.070808	-76.413982	165.845698
40294	9.589295	-0.279533	-2.277286	-0.012872	0.042014	0.047172	1.000000	-0.000004	-0.000002	0.000033	-172.074876	-76.411813	165.848616
40295	9.587480	-0.347421	-2.339129	0.039536	-0.031720	0.061999	1.000000	0.000039	0.000014	0.000042	-172.069109	-76.411393	165.842165
40296	9.579768	-0.300255	-2.303861	0.012523	0.018312	0.044766	1.000000	0.000006	0.000024	0.000029	-172.072262	-76.412295	165.845342
40297	9.577410	-0.328641	-2.283048	-0.010276	-0.007959	0.038552	1.000000	0.000008	0.000012	0.000039	-172.071795	-76.411502	165.854872
40298	9.576335	-0.297327	-2.326805	0.035927	0.018569	0.046673	1.000000	-0.000003	0.000036	0.000031	-172.074423	-76.413729	165.856399
40299	9.577595	-0.330044	-2.282067	-0.011112	-0.009334	0.038550	1.000000	0.000009	0.000017	0.000044	-172.070542	-76.413633	165.849093
40300	9.574068	-0.326536	-2.305481	0.012752	-0.008389	0.040455	1.000000	-0.000003	0.000019	0.000035	-172.072309	-76.413893	165.849763
40301	9.583710	-0.308041	-2.278143	-0.013903	0.013241	0.042867	1.000000	0.000006	0.000008	0.000033	-172.074806	-76.412814	165.851843
40302	9.574133	-0.327893	-2.305018	0.011906	-0.009764	0.040454	1.000000	-0.000002	0.000014	0.000040	-172.074560	-76.412321	165.850530
40303	9.560367	-0.304114	-2.273267	-0.013167	0.016315	0.018915	1.000000	0.000036	0.000004	0.000030	-172.075228	-76.410901	165.856944
40304	9.577810	-0.333546	-2.280657	-0.013225	-0.012770	0.038544	1.000000	-0.000023	0.000038	0.000032	-172.079108	-76.413352	165.857422
40305	9.576777	-0.302443	-2.324324	0.032939	0.013751	0.046691	1.000000	0.000022	0.000020	0.000060	-172.066522	-76.413086	165.856783
40306	9.574403	-0.331076	-2.303441	0.010186	-0.012515	0.040453	1.000000	0.000016	0.000023	0.000028	-172.069047	-76.413875	165.860485
40307	9.580506	-0.308293	-2.299726	0.007805	0.010741	0.044782	1.000000	0.000007	0.000018	0.000034	-172.070420	-76.413994	165.863146
40308	9.574550	-0.332454	-2.302633	0.009337	-0.013891	0.040452	1.000000	0.000008	0.000023	0.000039	-172.068397	-76.414602	165.861235
40309	9.577087	-0.305544	-2.322643	0.031217	0.011004	0.046700	1.000000	0.000008	0.000023	0.000039	-172.066700	-76.415060	165.865797
40310	9.577193	-0.306361	-2.322097	0.030795	0.010320	0.046702	1.000000	0.000019	0.000033	0.000039	-172.062899	-76.416770	165.863286
40311	9.557426	-0.305989	-2.293552	0.007619	0.012457	0.020836	1.000000	0.000006	-0.000003	0.000032	-172.066940	-76.414173	165.886990
40312	9.577263	-0.307899	-2.321605	0.029891	0.008951	0.046706	1.000000	-0.000010	0.000024	0.000052	-172.060995	-76.414712	165.878941
40313	9.604313	-0.318216	-2.301835	0.003551	0.002146	0.068736	1.000000	-0.000006	0.000027	0.000019	-172.070355	-76.415778	165.896812
40314	9.557624	-0.308041	-2.292451	0.006314	0.010403	0.020840	1.000000	0.000009	0.000017	0.000044	-172.066320	-76.415631	165.892918
40315	9.575010	-0.337692	-2.299952	0.006232	-0.018702	0.040447	1.000000	0.000008	0.000012	0.000039	-172.065850	-76.414794	165.901843
40316	9.581108	-0.315055	-2.296297	0.003837	0.004557	0.044789	1.000000	0.000008	0.000023	0.000039	-172.063826	-76.415401	165.899932
40317	9.604562	-0.321206	-2.300380	0.001762	-0.000612	0.068736	1.000000	0.000017	0.000017	0.000033	-172.064891	-76.415108	165.919093
40318	9.575165	-0.340001	-2.298968	0.004917	-0.020761	0.040443	1.000000	-0.000001	0.000008	0.000044	-172.062635	-76.413860	165.915800
40319	9.563932	-0.288539	-2.287528	0.002113	0.030912	0.025192	1.000000	0.000017	0.000028	0.000034	-172.062233	-76.415048	165.918452
40320	9.571728	-0.337258	-2.321997	0.028346	-0.020476	0.042370	1.000000	0.000008	0.000012	0.000039	-172.061361	-76.414440	165.917666
40321	9.581397	-0.318886	-2.294564	0.001643	0.001113	0.044791	1.000000	-0.000002	0.000024	0.000040	-172.060237	-76.415074	165.917913
40322	9.581449	-0.319585	-2.294250	0.001223	0.000428	0.044791	1.000000	-0.000003	0.000009	0.000034	-172.063154	-76.414118	165.919709
40323	9.554543	-0.310656	-2.313298	0.026720	0.005880	0.022779	1.000000	0.000009	0.000017	0.000044	-172.059093	-76.414194	165.904491
40324	9.581562	-0.321154	-2.293558	0.000419	-0.000950	0.044791	1.000000	0.000017	0.000028	0.000034	-172.058451	-76.415441	165.905086
40325	9.578094	-0.317563	-2.316870	0.024262	0.000017	0.046726	1.000000	-0.000003	0.000019	0.000035	-172.060498	-76.415614	165.909716
40326	9.581691	-0.322482	-2.292830	-0.000439	-0.002327	0.044791	1.000000	-0.000003	0.000009	0.000034	-172.063415	-76.414659	165.911512
40327	9.587779	-0.299868	-2.289296	-0.002828	0.020918	0.049151	1.000000	0.000039	0.000014	0.000042	-172.057653	-76.414267	165.906442
40328	9.554832	-0.314314	-2.311608	0.024619	0.002447	0.022786	1.000000	-0.000024	0.000017	0.000031	-172.063835	-76.414292	165.909173
40329	9.581814	-0.324547	-2.292027	-0.001704	-0.004398	0.044790	1.000000	0.000016	0.000012	0.000027	-172.067775	-76.413776	165.917655
40330	9.578318	-0.321068	-2.315461	0.022155	-0.003423	0.046730	1.000000	0.000010	0.000022	0.000050	-172.060573	-76.414089	165.910656
40331	9.591549	-0.307049	-2.264215	-0.028806	0.016508	0.047214	1.000000	0.000007	0.000018	0.000034	-172.061807	-76.414264	165.908023
40332	9.572389	-0.346062	-2.317973	0.023301	-0.028737	0.042363	1.000000	0.000008	0.000023	0.000039	-172.059780	-76.414870	165.906112
40333	9.564751	-0.298863	-2.282774	-0.003806	0.021291	0.025217	1.000000	0.000008	0.000012	0.000039	-172.059377	-76.414027	165.917975
40334	9.552660	-0.346504	-2.289058	-0.000246	-0.027266	0.016475	1.000000	0.000028	0.000021	0.000038	-172.056094	-76.414407	165.917111
40335	9.555224	-0.319673	-2.309252	0.021569	-0.002349	0.022793	1.000000	0.000009	0.000006	0.000044	-172.053630	-76.412734	165.926529
40336	9.584735	-0.302299	-2.310092	0.017543	0.016394	0.051109	1.000000	-0.000006	0.000027	0.000019	-172.062579	-76.414040	165.934272
40337	9.602102	-0.331829	-2.317503	0.017535	-0.012749	0.070673	1.000000	0.000020	0.000010	0.000048	-172.055893	-76.413213	165.920327
40338	9.558948	-0.326084	-2.284422	-0.003938	-0.006073	0.020845	1.000000	0.000008	0.000029	0.000035	-172.055875	-76.414573	165.920398
40339	9.582398	-0.332260	-2.288479	-0.006009	-0.011278	0.044783	1.000000	0.000008	0.000012	0.000039	-172.055373	-76.413754	165.928390
40340	9.561611	-0.299842	-2.304183	0.017468	0.018156	0.027177	1.000000	-0.000003	0.000019	0.000035	-172.057136	-76.414013	165.929063
40341	9.598790	-0.330701	-2.339890	0.040103	-0.013841	0.072626	1.000000	0.000020	0.000010	0.000048	-172.050500	-76.413079	165.917331
40342	9.571316	-0.282384	-2.276535	-0.009629	0.039051	0.029611	1.000000	0.000007	0.000018	0.000034	-172.051635	-76.413224	165.918527
40343	9.582585	-0.335332	-2.287244	-0.007691	-0.014029	0.044778	1.000000	0.000007	0.000018	0.000034	-172.053010	-76.413306	165.921558
40344	9.606058	-0.341528	-2.291191	-0.009731	-0.019237	0.068713	1.000000	0.000009	0.000034	0.000040	-172.049826	-76.415125	165.918522
40345	9.581794	-0.304790	-2.330517	0.038013	0.011862	0.053082	1.000000	-0.000004	0.000015	0.000029	-172.054923	-76.414841	165.922826
40346	9.602653	-0.338584	-2.314238	0.013689	-0.018948	0.070669	1.000000	0.000008	0.000012	0.000039	-172.054046	-76.414232	165.922039
40347	9.579305	-0.333920	-2.309551	0.014908	-0.015117	0.046733	1.000000	0.000018	0.000011	0.000038	-172.052687	-76.413630	165.919664
40348	9.563016	-0.337802	-2.257312	-0.032445	-0.014601	0.018873	1.000000	0.000008	0.000012	0.000039	-172.051811	-76.413021	165.918877
40349	9.575853	-0.331163	-2.332794	0.038305	-0.014821	0.048695	1.000000	0.000007	0.000018	0.000034	-172.053296	-76.412936	165.928666
40350	9.589055	-0.317017	-2.281630	-0.012670	0.005089	0.049164	1.000000	-0.000002	0.000014	0.000040	-172.053048	-76.412441	165.927357
40351	9.565777	-0.312285	-2.276667	-0.011499	0.008934	0.025230	1.000000	0.000008	0.000040	0.000035	-172.052163	-76.414829	165.933120
40352	9.585747	-0.314242	-2.304289	0.010732	0.005384	0.051130	1.000000	0.000018	0.000022	0.000039	-172.049503	-76.415320	165.931732
40353	9.566006	-0.313747	-2.275503	-0.012362	0.007562	0.025230	1.000000	-0.000003	0.000036	0.000030	-172.052365	-76.417421	165.936873
40354	9.585943	-0.315540	-2.303298	0.009867	0.004010	0.051132	1.000000	-0.000003	0.000009	0.000034	-172.055281	-76.416465	165.938671
40355	9.589488	-0.320520	-2.279317	-0.014812	0.001649	0.049162	1.000000	0.000008	0.000012	0.000039	-172.054417	-76.415968	165.930406
40356	9.579912	-0.340364	-2.306092	0.011047	-0.021297	0.046727	1.000000	-0.000003	0.000019	0.000035	-172.056179	-76.416227	165.931080
40357	9.586093	-0.317681	-2.302377	0.008618	0.001944	0.051134	1.000000	0.000008	0.000023	0.000039	-172.054255	-76.416803	165.926722
40358	9.562814	-0.312966	-2.297438	0.009831	0.005806	0.027203	1.000000	0.000018	0.000028	0.000034	-172.053604	-76.418047	165.927315
40359	9.586247	-0.319212	-2.301524	0.007738	0.000571	0.051135	1.000000	-0.000011	0.000009	0.000045	-172.052293	-76.416701	165.930532
40360	9.586318	-0.320028	-2.301116	0.007318	-0.000115	0.051135	1.000000	0.000009	0.000034	0.000040	-172.049105	-76.418518	165.927495
40361	9.559495	-0.310951	-2.320101	0.032824	0.005412	0.029182	1.000000	0.000005	0.000003	0.000027	-172.054681	-76.417082	165.929560
40362	9.566565	-0.320048	-2.272274	-0.016149	0.001390	0.025227	1.000000	-0.000004	0.000025	0.000030	-172.058454	-76.418095	165.932217
40363	9.566644	-0.320663	-2.271855	-0.016619	0.000702	0.025227	1.000000	0.000007	0.000018	0.000034	-172.059940	-76.417958	165.943347
40364	9.583086	-0.318283	-2.323389	0.029875	-0.001193	0.053117	1.000000	0.000008	0.000029	0.000035	-172.059918	-76.419315	165.943418
40365	9.569432	-0.294343	-2.291404	0.004846	0.024927	0.031628	1.000000	-0.000003	0.000019	0.000035	-172.061615	-76.419772	165.935202
40366	9.563394	-0.318345	-2.294282	0.006432	0.000317	0.027208	1.000000	-0.000004	0.000025	0.000030	-172.065387	-76.420784	165.937860
40367	9.592938	-0.301080	-2.295116	0.002401	0.018993	0.055560	1.000000	0.000036	0.000004	0.000030	-172.065663	-76.419560	165.928638
40368	9.560048	-0.315248	-2.317244	0.029902	0.000609	0.029193	1.000000	-0.000024	0.000050	0.000022	-172.073566	-76.423524	165.933100
40369	9.583538	-0.321407	-2.321095	0.027837	-0.004647	0.053121	1.000000	0.000020	0.000010	0.000048	-172.067022	-76.422514	165.926524
40370	9.593205	-0.303131	-2.293729	0.001139	0.016930	0.055564	1.000000	0.000007	0.000018	0.000034	-172.068153	-76.422658	165.927719
40371	9.569873	-0.298304	-2.289049	0.002376	0.020808	0.031639	1.000000	0.000007	0.000008	0.000033	-172.070503	-76.421651	165.924764
40372	9.587138	-0.327919	-2.296586	0.002308	-0.008371	0.051134	1.000000	0.000008	0.000012	0.000039	-172.069620	-76.421041	165.923974
40373	9.563800	-0.323182	-2.291909	-0.003245	-0.004699	0.027208	1.000000	-0.000002	0.000014	0.000040	-172.115557	-76.382554	165.803672
40374	9.589877	-0.301838	-2.316412	0.016983	0.015570	0.057574	1.000000	0.000010	0.000028	0.000045	-172.110467	-76.383540	165.798743
40375	9.560427	-0.320533	-2.314953	0.020165	-0.004481	0.029217	1.000000	0.000016	0.000006	0.000032	-172.112392	-76.382303	165.805776
40376	9.587361	-0.331062	-2.295201	-0.006232	-0.011329	0.051129	1.000000	0.000009	0.000034	0.000040	-172.109310	-76.384042	165.802829
40377	9.590115	-0.304180	-2.315117	0.015675	0.013503	0.057580	1.000000	-0.000002	0.000024	0.000040	-172.108130	-76.384707	165.801451
40378	9.591017	-0.336898	-2.270504	-0.031381	-0.014297	0.049113	1.000000	0.000008	0.000012	0.000039	-172.107342	-76.384018	165.800736
40379	9.593715	-0.309955	-2.290683	-0.009496	0.010535	0.055568	1.000000	0.000007	0.000018	0.000034	-172.108758	-76.383995	165.809048
40380	9.584155	-0.329814	-2.317366	0.016288	-0.012481	0.053141	1.000000	0.000008	0.000023	0.000039	-172.106822	-76.384519	165.807217
40381	9.590373	-0.307334	-2.313630	0.013897	0.010757	0.057586	1.000000	0.000020	0.000021	0.000049	-172.099284	-76.384588	165.807577
40382	9.574035	-0.311151	-2.261302	-0.033409	0.011458	0.029630	1.000000	-0.000004	0.000015	0.000029	-172.104294	-76.384307	165.811423
40383	9.590538	-0.308745	-2.312760	0.013018	0.009383	0.057588	1.000000	0.000008	0.000040	0.000035	-172.103375	-76.386779	165.814281
40384	9.543880	-0.298336	-2.303518	0.015958	0.017871	0.009750	1.000000	0.000005	0.000003	0.000027	-172.108902	-76.385168	165.819762
40385	9.590623	-0.310158	-2.312217	0.012142	0.008007	0.057591	1.000000	0.000020	0.000010	0.000048	-172.102499	-76.384076	165.818519
40386	9.564608	-0.333199	-2.287098	-0.008932	-0.013615	0.027196	1.000000	0.000008	0.000012	0.000039	-172.101711	-76.383387	165.817804
40387	9.600342	-0.292722	-2.284561	-0.014919	0.028957	0.060023	1.000000	0.000008	0.000023	0.000039	-172.099706	-76.384111	165.803531
40388	9.564710	-0.334709	-2.286454	-0.009773	-0.014985	0.027193	1.000000	0.000007	0.000008	0.000033	-172.102075	-76.382961	165.805914
40389	9.614147	-0.318805	-2.315556	0.008728	0.000663	0.081512	1.000000	-0.000002	0.000014	0.000040	-172.101996	-76.382354	165.803278
40390	9.557822	-0.327491	-2.333545	0.037904	-0.013160	0.031246	1.000000	-0.000014	0.000016	0.000030	-172.107638	-76.382189	165.806606
40391	9.594380	-0.318887	-2.286666	-0.014712	0.002286	0.055567	1.000000	0.000010	0.000028	0.000045	-172.102604	-76.383277	165.797247
40392	9.588286	-0.343029	-2.289573	-0.013205	-0.022323	0.051104	1.000000	0.000016	0.000012	0.000027	-172.106347	-76.382764	165.802129
40393	9.547780	-0.309245	-2.277099	-0.012195	0.010113	0.007733	1.000000	-0.000002	0.000024	0.000040	-172.105210	-76.383372	165.803796
40394	9.594583	-0.321054	-2.285512	-0.016030	0.000225	0.055565	1.000000	0.000017	0.000017	0.000033	-172.105796	-76.383319	165.805581
40395	9.547938	-0.310664	-2.276241	-0.013072	0.008744	0.007733	1.000000	-0.000002	0.000030	0.000035	-172.106664	-76.384685	165.808946
40396	9.597433	-0.294745	-2.305171	0.005418	0.024369	0.062068	1.000000	0.000007	0.000008	0.000033	-172.109030	-76.383534	165.811329
40397	9.564466	-0.309002	-2.327611	0.032913	0.005961	0.035720	1.000000	0.000017	0.000017	0.000033	-172.109689	-76.383514	165.811121
40398	9.561826	-0.337342	-2.306772	0.010148	-0.020240	0.029213	1.000000	-0.000003	0.000019	0.000035	-172.111541	-76.383693	165.811870
40399	9.561890	-0.338006	-2.306409	0.009697	-0.020924	0.029212	1.000000	0.000007	0.000018	0.000034	-172.112925	-76.383659	165.819808
40400	9.577783	-0.296131	-2.275607	-0.018917	0.024636	0.036122	1.000000	0.000006	0.000024	0.000029	-172.116152	-76.384475	165.823057
40401	9.568227	-0.315947	-2.302245	0.006862	0.001628	0.033686	1.000000	0.000018	0.000022	0.000039	-172.113727	-76.384822	165.825530
40402	9.597895	-0.298771	-2.302730	0.002766	0.020248	0.062078	1.000000	0.000006	0.000041	0.000025	-172.117816	-76.387606	165.829647
40403	9.568471	-0.317197	-2.301062	0.005995	0.000255	0.033687	1.000000	0.000007	0.000018	0.000034	-172.119167	-76.387704	165.831944
40404	9.591922	-0.323437	-2.304998	0.003850	-0.005049	0.057599	1.000000	0.000008	0.000029	0.000035	-172.119236	-76.388981	165.832096
40405	9.568615	-0.318668	-2.300258	0.005144	-0.001119	0.033688	1.000000	0.000009	0.000006	0.000044	-172.116471	-76.387669	165.823098
40406	9.592060	-0.325019	-2.304202	0.002996	-0.006426	0.057599	1.000000	0.000008	0.000040	0.000035	-172.115391	-76.390159	165.822134
40407	9.592122	-0.325699	-2.303846	0.002579	-0.007117	0.057598	1.000000	0.000006	-0.000003	0.000032	-172.118921	-76.387916	165.819042
40408	9.572212	-0.325120	-2.275575	-0.020420	-0.004770	0.031639	1.000000	0.000008	0.000012	0.000039	-172.118128	-76.387226	165.818325
40409	9.539238	-0.339445	-2.298031	0.007085	-0.023153	0.005288	1.000000	0.000008	0.000012	0.000039	-172.117447	-76.386534	165.818688
40410	9.575042	-0.298917	-2.295466	0.001031	0.019372	0.038179	1.000000	0.000006	0.000024	0.000029	-172.120673	-76.387350	165.821938
40411	9.565493	-0.318609	-2.322086	0.026815	-0.003638	0.035740	1.000000	0.000006	0.000024	0.000029	-172.124064	-76.388134	165.828779
40412	9.569009	-0.323545	-2.297935	0.002104	-0.005917	0.033687	1.000000	-0.000002	0.000014	0.000040	-172.123904	-76.387560	165.827545
40413	9.602062	-0.310729	-2.274935	-0.026279	0.011079	0.060036	1.000000	0.000017	0.000017	0.000033	-172.124600	-76.387521	165.830499
40414	9.589045	-0.326214	-2.325408	0.023788	-0.010329	0.059650	1.000000	0.000006	0.000024	0.000029	-172.127827	-76.388337	165.833750
40415	9.572626	-0.329912	-2.273145	-0.023481	-0.009573	0.031628	1.000000	0.000009	0.000006	0.000044	-172.125122	-76.386875	165.832065
40416	9.575437	-0.302836	-2.293302	-0.001598	0.015257	0.038186	1.000000	-0.000025	0.000029	0.000021	-172.135421	-76.388334	165.838851
40417	9.575536	-0.303388	-2.292817	-0.002022	0.014570	0.038187	1.000000	0.000018	0.000022	0.000039	-172.132872	-76.388808	165.833595
40418	9.575610	-0.304304	-2.292386	-0.002459	0.013886	0.038188	1.000000	0.000010	0.000022	0.000050	-172.125759	-76.389038	165.826681
40419	9.592847	-0.334072	-2.299627	-0.002663	-0.015360	0.057589	1.000000	0.000016	0.000023	0.000028	-172.128417	-76.389760	165.829039
40420	9.569559	-0.329150	-2.294850	-0.001374	-0.011399	0.033682	1.000000	0.000017	0.000017	0.000033	-172.128997	-76.389705	165.830821
40421	9.575839	-0.306412	-2.291146	-0.003782	0.011829	0.038190	1.000000	0.000006	0.000024	0.000029	-172.132401	-76.390431	165.840504
40422	9.569721	-0.330401	-2.293993	-0.002261	-0.012769	0.033680	1.000000	0.000026	0.000022	0.000027	-172.134357	-76.391012	165.844787
40423	9.572516	-0.303390	-2.314296	0.019600	0.012059	0.040258	1.000000	0.000006	-0.000003	0.000032	-172.137995	-76.388545	165.852210
40424	9.572534	-0.304216	-2.314111	0.019164	0.011376	0.040260	1.000000	0.000010	0.000022	0.000050	-172.130881	-76.388775	165.845296
40425	9.572591	-0.305079	-2.313760	0.018705	0.010691	0.040261	1.000000	-0.000012	0.000015	0.000040	-172.131569	-76.388207	165.852326
40426	9.580167	-0.346236	-2.221580	-0.076860	-0.020315	0.027464	1.000000	0.000007	0.000018	0.000034	-172.132783	-76.388269	165.853592
40427	9.549982	-0.340388	-2.391055	0.094598	-0.033707	0.037444	1.000000	-0.000003	0.000019	0.000035	-172.134672	-76.388570	165.850079
40428	9.568723	-0.263368	-2.254127	-0.033320	0.057914	0.021257	1.000000	0.000018	0.000022	0.000039	-172.132091	-76.388975	165.848763
40429	9.613352	-0.342514	-2.324338	0.015471	-0.025292	0.083550	1.000000	0.000017	0.000017	0.000033	-172.132834	-76.388902	165.854295
40430	9.543965	-0.358350	-2.266631	-0.026341	-0.039102	0.003171	1.000000	-0.000012	0.000015	0.000040	-172.133308	-76.388446	165.852546
40431	9.612840	-0.304504	-2.241276	-0.060400	0.021014	0.062466	1.000000	0.000010	0.000028	0.000045	-172.128237	-76.389524	165.843709
40432	9.563406	-0.329207	-2.338261	0.041920	-0.016424	0.037823	1.000000	0.000004	0.000015	0.000017	-172.137779	-76.389418	165.853157
40433	9.572539	-0.278912	-2.354911	0.061813	0.032314	0.048957	1.000000	0.000031	0.000041	0.000050	-172.127284	-76.391781	165.851201
40434	9.586960	-0.328731	-2.214915	-0.082291	-0.001896	0.031952	1.000000	0.000006	0.000013	0.000028	-172.131657	-76.391382	165.855566
40435	9.570509	-0.340028	-2.289293	-0.007947	-0.021684	0.033662	1.000000	0.000009	0.000017	0.000044	-172.127798	-76.391127	165.853124
40436	9.546607	-0.303336	-2.328818	0.039935	0.009422	0.018458	1.000000	-0.000001	0.000024	0.000040	-172.126486	-76.391767	165.850778
40437	9.586545	-0.299051	-2.258038	-0.037032	0.023160	0.040642	1.000000	0.000006	0.000024	0.000029	-172.129797	-76.392562	165.855253
40438	9.590085	-0.311636	-2.360405	0.059845	0.000305	0.068344	1.000000	-0.000001	0.000024	0.000040	-172.128485	-76.393202	165.852907
40439	9.600413	-0.325166	-2.288613	-0.013411	-0.005197	0.062089	1.000000	0.000007	0.000018	0.000034	-172.129844	-76.393254	165.857523
40440	9.580519	-0.324548	-2.260160	-0.036374	-0.002807	0.036103	1.000000	0.000008	0.000012	0.000039	-172.129045	-76.392562	165.856803
40441	9.553810	-0.315339	-2.279239	-0.010764	0.002790	0.014293	1.000000	0.000006	0.000024	0.000029	-172.132295	-76.393541	165.853812
40442	9.593768	-0.318762	-2.335136	0.033848	-0.004056	0.066265	1.000000	-0.000001	0.000018	0.000045	-172.128971	-76.393427	165.849480
40443	9.597243	-0.323789	-2.310979	0.009141	-0.006349	0.064175	1.000000	-0.000003	0.000019	0.000035	-172.130940	-76.393626	165.851630
40444	9.557418	-0.321761	-2.254321	-0.036339	-0.000865	0.012199	1.000000	0.000017	0.000017	0.000033	-172.131515	-76.393569	165.853411
40445	9.573999	-0.319574	-2.305968	0.010002	-0.003033	0.040279	1.000000	-0.000002	0.000014	0.000040	-172.131512	-76.392912	165.857967
40446	9.574080	-0.320368	-2.305520	0.009566	-0.003716	0.040280	1.000000	0.000019	0.000033	0.000039	-172.127777	-76.394529	165.855535
40447	9.580372	-0.297740	-2.301932	0.007144	0.019503	0.044829	1.000000	0.000006	-0.000003	0.000032	-172.131403	-76.392102	165.862601
40448	9.567924	-0.345207	-2.308228	0.010658	-0.028990	0.035729	1.000000	0.000009	0.000034	0.000040	-172.128304	-76.393837	165.859656
40449	9.574235	-0.322516	-2.304576	0.008233	-0.005772	0.040280	1.000000	0.000005	0.000003	0.000027	-172.134009	-76.392145	165.871365
40450	9.587357	-0.308361	-2.253332	-0.042722	0.014230	0.040636	1.000000	0.000009	0.000034	0.000040	-172.130910	-76.393880	165.868421
40451	9.574379	-0.323989	-2.303772	0.007366	-0.007144	0.040280	1.000000	0.000008	0.000012	0.000039	-172.130170	-76.393223	165.866501
40452	9.553911	-0.291492	-2.319681	0.030979	0.022384	0.023046	1.000000	0.000008	0.000012	0.000039	-172.129369	-76.392531	165.865781
40453	9.607458	-0.311974	-2.280535	-0.021549	0.009075	0.066628	1.000000	0.000006	0.000013	0.000028	-172.133966	-76.391943	165.881030
40454	9.545847	-0.400025	-2.086820	-0.204917	-0.062104	-0.035562	1.000000	0.000019	0.000005	0.000043	-172.130516	-76.390378	165.878838
40455	9.549531	-0.225613	-2.431405	0.147037	0.076192	0.042704	1.000000	0.000007	0.000018	0.000034	-172.131698	-76.390525	165.875300
40456	9.581926	-0.375777	-2.337502	0.031641	-0.061467	0.057148	1.000000	0.000007	-0.000009	0.000037	-172.133194	-76.387405	165.876805
40457	9.668362	-0.180620	-2.264794	-0.036909	0.145026	0.117909	1.000000	0.000011	-0.000011	0.000058	-172.124378	-76.383813	165.863924
40458	9.536731	-0.469722	-2.322973	0.016200	-0.155348	0.012876	1.000000	0.000015	-0.000015	0.000030	-172.128395	-76.380114	165.869039
40459	9.533342	-0.263560	-2.335521	0.051958	0.047825	0.005853	1.000000	-0.000004	0.000015	0.000029	-172.133511	-76.379712	165.878297
40460	9.661879	-0.400884	-2.152852	-0.169774	-0.062627	0.092596	1.000000	-0.000004	-0.000002	0.000033	-172.137652	-76.377464	165.881271
40461	9.535850	-0.213012	-2.526538	0.241478	0.078543	0.051223	1.000000	0.000019	0.000033	0.000039	-172.134011	-76.379029	165.881985
40462	9.578491	-0.376121	-2.360716	0.053284	-0.063970	0.059243	1.000000	-0.000010	0.000030	0.000047	-172.130178	-76.380248	165.876034
40463	9.604561	-0.339573	-2.131974	-0.169742	-0.002732	0.030046	1.000000	0.000036	0.000004	0.000030	-172.130599	-76.378855	165.873715
40464	9.570675	-0.297546	-2.369650	0.072511	0.012677	0.051195	1.000000	-0.000013	0.000027	0.000031	-172.135092	-76.379907	165.875940
40465	9.587878	-0.327114	-2.376690	0.072297	-0.016636	0.070509	1.000000	-0.000003	0.000036	0.000030	-172.137845	-76.382115	165.875544
40466	9.564001	-0.282527	-2.289550	-0.001370	0.035099	0.025542	1.000000	-0.000002	0.000014	0.000040	-172.137679	-76.381541	165.874312
40467	9.555519	-0.373859	-2.354305	0.052894	-0.062688	0.035345	1.000000	-0.000001	0.000024	0.000040	-172.136447	-76.382180	165.872598
40468	9.570926	-0.292598	-2.241136	-0.050779	0.030513	0.021305	1.000000	0.000009	0.000023	0.000039	-172.134494	-76.382700	165.870767
40469	9.608006	-0.323825	-2.276569	-0.028515	-0.001922	0.066614	1.000000	0.000018	0.000011	0.000038	-172.133156	-76.381870	165.872903
40470	9.554575	-0.304832	-2.315228	0.023136	0.010073	0.023088	1.000000	0.000029	0.000015	0.000043	-172.127917	-76.381398	165.870112
40471	9.551682	-0.333224	-2.294585	0.000420	-0.016117	0.016378	1.000000	-0.000014	-0.000001	0.000034	-172.132715	-76.379283	165.870844
40472	9.560884	-0.282797	-2.311671	0.020282	0.032603	0.027680	1.000000	-0.000004	0.000015	0.000029	-172.137717	-76.379002	165.874692
40473	9.584898	-0.328687	-2.398053	0.093052	-0.020515	0.072650	1.000000	-0.000012	0.000015	0.000040	-172.138289	-76.378471	165.876296
