// Start Time: Unknown
// Update Rate: 100.0Hz
// Filter Profile: human (46.1)
// Firmware Version: 4.4.0
PacketCounter	Acc_X	Acc_Y	Acc_Z	FreeAcc_X	FreeAcc_Y	FreeAcc_Z	OriInc_q0	OriInc_q1	OriInc_q2	OriInc_q3	Roll	Pitch	Yaw
52815	2.360210	0.097474	12.870430	-0.000000	-0.000000	3.272726	1.000000	0.000002	0.000041	-0.000080	0.432975	-10.393650	-178.866268
52816	2.396408	0.098945	12.890597	-0.000000	-0.000000	3.299142	1.000000	-0.000001	0.000040	-0.000054	0.439276	-10.533290	-178.855068
52817	2.363598	0.113018	12.889326	0.016786	-0.014601	3.292029	1.000000	0.000001	0.000051	-0.000074	0.436874	-10.460055	-178.878592
52818	2.383824	0.118340	12.879052	-0.006137	-0.020056	3.285639	1.000000	0.000004	0.000046	-0.000065	0.438688	-10.454755	-178.886149
52819	2.388182	0.133656	12.897774	-0.007941	-0.034839	3.304956	1.000000	0.000001	0.000051	-0.000075	0.440526	-10.449144	-178.894835
52820	2.381499	0.119171	12.879475	-0.006082	-0.020025	3.285640	1.000000	0.000007	0.000031	-0.000061	0.442650	-10.445521	-178.901931
52821	2.396232	0.115742	12.910150	-0.016130	-0.016198	3.318450	1.000000	-0.000003	0.000047	-0.000056	0.443570	-10.440053	-178.908446
52822	2.384883	0.134837	12.898372	-0.007937	-0.034821	3.304956	1.000000	0.000011	0.000044	-0.000074	0.446355	-10.434938	-178.917057
52823	2.373530	0.153929	12.886591	0.000273	-0.053399	3.291462	1.000000	-0.000003	0.000047	-0.000056	0.447394	-10.429530	-178.923593
52824	2.376912	0.120527	12.880309	-0.006061	-0.019961	3.285640	1.000000	-0.000005	0.000042	-0.000071	0.448322	-10.424610	-178.931792
52825	2.402913	0.140612	12.888514	-0.030822	-0.040129	3.298567	1.000000	-0.000006	0.000040	-0.000078	0.449741	-10.420073	-178.940919
52826	2.390611	0.111085	12.851728	-0.027104	-0.010501	3.259934	1.000000	0.000004	0.000046	-0.000065	0.451552	-10.414772	-178.948475
52827	2.367931	0.112577	12.921881	0.006908	-0.010448	3.324840	1.000000	-0.000011	0.000034	-0.000067	0.452359	-10.411138	-178.956353
52828	2.409664	0.122676	12.901142	-0.038938	-0.021358	3.312061	1.000000	0.000000	0.000060	-0.000069	0.453857	-10.404160	-178.964368
52829	2.381206	0.102955	12.893383	-0.014043	-0.000906	3.299134	1.000000	-0.000015	0.000046	-0.000078	0.454544	-10.399291	-178.973582
52830	2.390200	0.084485	12.905600	-0.022236	0.017717	3.312628	1.000000	0.000007	0.000044	-0.000049	0.456419	-10.394262	-178.979208
52831	2.368581	0.122221	12.881828	-0.005690	-0.019375	3.285641	1.000000	-0.000001	0.000055	-0.000084	0.458682	-10.388559	-178.989042
52832	2.393318	0.093971	12.865105	-0.034948	0.008607	3.273428	1.000000	0.000005	0.000048	-0.000058	0.460444	-10.382975	-178.995747
52833	2.376173	0.104336	12.894300	-0.013667	-0.000583	3.299135	1.000000	0.000004	0.000046	-0.000065	0.462984	-10.378630	-179.003431
52834	2.359250	0.108484	12.864009	-0.003616	-0.004393	3.266324	1.000000	0.000004	0.000046	-0.000065	0.464791	-10.373328	-179.010985
52835	2.379332	0.119872	12.913238	-0.015290	-0.015231	3.318452	1.000000	-0.000011	0.000047	-0.000054	0.465408	-10.368980	-179.017403
52836	2.377142	0.071427	12.888474	-0.019766	0.033019	3.293311	1.000000	-0.000007	0.000050	-0.000073	0.466175	-10.363221	-179.025831
52837	2.361175	0.124204	12.883169	-0.004945	-0.018928	3.285642	1.000000	0.000021	0.000040	-0.000067	0.470477	-10.359859	-179.033655
52838	2.369242	0.057426	12.870400	-0.017614	0.047946	3.273993	1.000000	-0.000013	0.000051	-0.000064	0.470267	-10.353919	-179.041026
52839	2.368796	0.106117	12.895643	-0.012767	-0.000312	3.299135	1.000000	0.000002	0.000053	-0.000067	0.471839	-10.349401	-179.048830
52840	2.361909	0.091564	12.877384	-0.010907	0.014497	3.279818	1.000000	0.000001	0.000051	-0.000075	0.473514	-10.343555	-179.057456
52841	2.376307	0.088225	12.908140	-0.020640	0.018287	3.312630	1.000000	0.000001	0.000051	-0.000075	0.475078	-10.339071	-179.066070
52842	2.380927	0.097357	12.867379	-0.033514	0.009014	3.273432	1.000000	0.000006	0.000038	-0.000063	0.477010	-10.334616	-179.073382
52843	2.358405	0.092798	12.878017	-0.010159	0.014470	3.279818	1.000000	0.000002	0.000041	-0.000080	0.478881	-10.331767	-179.082620
52844	2.341384	0.103059	12.907163	0.010911	0.005107	3.305522	1.000000	-0.000001	0.000040	-0.000054	0.479843	-10.327124	-179.088879
52845	2.361745	0.108162	12.896919	-0.011458	-0.000516	3.299137	1.000000	-0.000015	0.000046	-0.000078	0.478923	-10.324189	-179.097823
52846	2.370752	0.089814	12.909151	-0.019640	0.018099	3.312632	1.000000	0.000011	0.000044	-0.000074	0.481657	-10.319104	-179.106415
52847	2.354069	0.094079	12.878801	-0.008971	0.014453	3.279819	1.000000	0.000007	0.000031	-0.000061	0.484499	-10.318242	-179.113517
52848	2.380192	0.114498	12.887022	-0.033736	-0.005816	3.292754	1.000000	0.000005	0.000036	-0.000070	0.486501	-10.314120	-179.121688
52849	2.379156	0.114937	12.887210	-0.033155	-0.005796	3.292755	1.000000	0.000003	0.000043	-0.000073	0.488416	-10.311620	-179.130051
52850	2.377983	0.115458	12.887421	-0.033146	-0.005792	3.292755	1.000000	0.000012	0.000047	-0.000067	0.491161	-10.306256	-179.137814
52851	2.376861	0.116096	12.887623	-0.032095	-0.005985	3.292758	1.000000	0.000013	0.000039	-0.000065	0.493101	-10.306322	-179.145248
52852	2.370344	0.101487	12.869300	-0.030224	0.008828	3.273440	1.000000	-0.000013	0.000039	-0.000076	0.493135	-10.301868	-179.154088
52853	2.374801	0.116870	12.887995	-0.030839	-0.006226	3.292761	1.000000	0.000021	0.000040	-0.000067	0.495775	-10.302648	-179.161700
52854	2.384567	0.147279	12.925230	-0.034506	-0.035858	3.331397	1.000000	-0.000001	0.000052	-0.000042	0.496487	-10.296736	-179.166490
52855	2.362159	0.136215	12.876411	-0.021942	-0.024651	3.279265	1.000000	-0.000005	0.000042	-0.000071	0.498297	-10.294734	-179.174669
52856	2.414238	0.127863	12.867784	-0.075963	-0.016936	3.280009	1.000000	-0.000005	0.000042	-0.000071	0.499220	-10.289891	-179.182868
52857	2.380243	0.099457	12.900890	-0.037557	0.012236	3.306263	1.000000	0.000001	0.000050	-0.000075	0.499194	-10.287221	-179.191649
52858	2.352792	0.128401	12.918018	-0.008278	-0.015758	3.318458	1.000000	0.000003	0.000043	-0.000073	0.500984	-10.282260	-179.200031
52859	2.389166	0.124065	12.878865	-0.050347	-0.012253	3.286396	1.000000	0.000011	0.000044	-0.000074	0.501800	-10.285695	-179.208558
52860	2.366608	0.119133	12.889482	-0.027381	-0.006825	3.292768	1.000000	-0.000029	0.000037	-0.000073	0.499860	-10.281523	-179.216947
52861	2.375805	0.100735	12.901698	-0.033714	0.011382	3.306274	1.000000	0.000021	0.000040	-0.000067	0.501644	-10.285015	-179.224756
52862	2.380184	0.116226	12.920405	-0.035494	-0.003475	3.325592	1.000000	-0.000005	0.000042	-0.000071	0.502373	-10.280363	-179.232885
52863	2.379343	0.110304	12.861150	-0.045150	0.003181	3.267090	1.000000	0.000001	0.000050	-0.000075	0.509001	-10.280780	-179.240727
52864	2.372303	0.101874	12.902334	-0.032168	0.012430	3.306277	1.000000	-0.000005	0.000042	-0.000071	0.509841	-10.276171	-179.248896
52865	2.392554	0.107232	12.892149	-0.052923	0.007189	3.299919	1.000000	0.000002	0.000053	-0.000067	0.512327	-10.279659	-179.256475
52866	2.364216	0.087481	12.884300	-0.028058	0.027445	3.286963	1.000000	-0.000005	0.000055	-0.000058	0.512934	-10.273767	-179.263182
52867	2.389994	0.107602	12.892620	-0.049950	0.005839	3.299932	1.000000	-0.000011	0.000034	-0.000067	0.506835	-10.282480	-179.272057
52868	2.383305	0.093048	12.874334	-0.047970	0.020611	3.280614	1.000000	0.000016	0.000062	-0.000073	0.509977	-10.275945	-179.280409
52869	2.371726	0.112153	12.862541	-0.037176	0.001500	3.267115	1.000000	-0.000005	0.000042	-0.000071	0.508530	-10.282591	-179.288746
52870	2.390954	0.075008	12.886847	-0.053343	0.038691	3.294134	1.000000	-0.000013	0.000051	-0.000064	0.508073	-10.277412	-179.296033
52871	2.353098	0.122394	12.891924	-0.013456	-0.008859	3.292789	1.000000	0.000009	0.000051	-0.000076	0.506281	-10.282169	-179.305696
52872	2.362005	0.104166	12.904205	-0.021426	0.009691	3.306301	1.000000	-0.000006	0.000050	-0.000073	0.506715	-10.277270	-179.314008
52873	2.366616	0.113199	12.863473	-0.032867	-0.000172	3.267127	1.000000	0.000004	0.000046	-0.000065	0.505687	-10.278588	-179.322089
52874	2.381065	0.109960	12.894252	-0.042641	0.003547	3.299958	1.000000	0.000004	0.000046	-0.000065	0.507106	-10.274214	-179.329506
52875	2.352967	0.090319	12.886340	-0.013923	0.023027	3.286994	1.000000	0.000004	0.000046	-0.000065	0.505130	-10.286319	-179.336860
52876	2.378679	0.110786	12.894686	-0.038434	0.002659	3.299972	1.000000	0.000004	0.000046	-0.000065	0.506492	-10.282073	-179.344257
52877	2.366315	0.087513	12.917320	-0.021266	0.025193	3.319836	1.000000	0.000006	0.000038	-0.000063	0.501378	-10.288033	-179.354058
52878	2.355411	0.100423	12.846000	-0.024004	0.012024	3.247827	1.000000	0.000013	0.000049	-0.000060	0.503490	-10.283479	-179.360762
52879	2.375320	0.112065	12.895294	-0.033082	-0.000158	3.299986	1.000000	-0.000014	0.000036	-0.000084	0.498209	-10.291123	-179.371421
52880	2.374351	0.112199	12.895471	-0.032792	-0.000306	3.299987	1.000000	-0.000002	0.000038	-0.000061	0.498574	-10.288020	-179.378302
52881	2.367899	0.097668	12.877142	-0.027601	0.013905	3.280682	1.000000	0.000011	0.000044	-0.000074	0.498407	-10.297900	-179.385615
52882	2.388302	0.103210	12.866962	-0.050202	0.008296	3.274358	1.000000	-0.000001	0.000040	-0.000054	0.498665	-10.294742	-179.391625
52883	2.371035	0.113378	12.896071	-0.025787	-0.000161	3.300003	1.000000	0.000000	0.000048	-0.000082	0.504434	-10.303745	-179.395131
52884	2.380055	0.095188	12.908347	-0.033543	0.018313	3.313534	1.000000	0.000004	0.000046	-0.000065	0.505591	-10.300151	-179.402456
52885	2.379830	0.138010	12.874087	-0.037297	-0.026430	3.280160	1.000000	0.000013	0.000049	-0.000060	0.498820	-10.307148	-179.413220
52886	2.378635	0.138423	12.874303	-0.036881	-0.026607	3.280161	1.000000	-0.000005	0.000042	-0.000071	0.498944	-10.304043	-179.421136
52887	2.366326	0.115037	12.896921	-0.018722	-0.004341	3.300014	1.000000	0.000006	0.000038	-0.000063	0.492631	-10.314323	-179.431285
52888	2.396976	0.102006	12.898811	-0.049356	0.008618	3.307249	1.000000	0.000004	0.000046	-0.000065	0.493492	-10.310992	-179.438503
52889	2.380272	0.106055	12.868427	-0.037714	0.003508	3.274402	1.000000	0.000006	0.000038	-0.000063	0.489363	-10.314048	-179.448956
52890	2.389831	0.136317	12.905687	-0.040820	-0.026390	3.313023	1.000000	-0.000006	0.000050	-0.000073	0.489082	-10.310332	-179.457014
52891	2.382428	0.079368	12.921839	-0.030377	0.030138	3.327113	1.000000	0.000007	0.000031	-0.000061	0.486741	-10.315333	-179.465756
52892	2.360865	0.116869	12.897905	-0.013633	-0.007335	3.300019	1.000000	-0.000006	0.000050	-0.000073	0.486389	-10.311673	-179.473788
52893	2.391358	0.103615	12.899841	-0.042148	0.005278	3.307276	1.000000	-0.000003	0.000047	-0.000056	0.484612	-10.317461	-179.479490
52894	2.401548	0.127677	12.877614	-0.056474	-0.019031	3.287432	1.000000	0.000004	0.000033	-0.000078	0.485520	-10.315735	-179.488103
52895	2.373510	0.107753	12.869662	-0.029211	0.000253	3.274425	1.000000	-0.000015	0.000059	-0.000066	0.480570	-10.320105	-179.496455
52896	2.366256	0.099063	12.910855	-0.015637	0.009193	3.313577	1.000000	-0.000004	0.000045	-0.000064	0.480224	-10.317170	-179.503370
52897	2.376253	0.123092	12.888664	-0.027314	-0.016237	3.293738	1.000000	0.000001	0.000050	-0.000075	0.475573	-10.325164	-179.513256
52898	2.406890	0.110100	12.890589	-0.057845	-0.003361	3.301014	1.000000	0.000005	0.000036	-0.000071	0.476267	-10.323361	-179.520959
52899	2.357248	0.085191	12.892991	-0.007049	0.021457	3.294280	1.000000	-0.000002	0.000065	-0.000079	0.473496	-10.329531	-179.529555
52900	2.367119	0.109201	12.870826	-0.021320	-0.002895	3.274439	1.000000	-0.000001	0.000040	-0.000054	0.473105	-10.327373	-179.535333
52901	2.391894	0.087259	12.913694	-0.035519	0.017631	3.320884	1.000000	-0.000005	0.000042	-0.000071	0.465584	-10.339072	-179.546155
52902	2.369976	0.124781	12.889804	-0.018701	-0.019916	3.293748	1.000000	0.000009	0.000064	-0.000064	0.466452	-10.334315	-179.552990
52903	2.395003	0.096769	12.873269	-0.044943	0.006687	3.281754	1.000000	-0.000007	0.000047	-0.000080	0.460776	-10.342431	-179.562852
52904	2.362031	0.110362	12.871751	-0.013235	-0.006845	3.274449	1.000000	-0.000004	0.000045	-0.000064	0.460039	-10.340029	-179.569627
52905	2.386727	0.088527	12.914641	-0.028481	0.013345	3.320906	1.000000	0.000003	0.000043	-0.000073	0.452031	-10.346865	-179.584151
52906	2.380308	0.073969	12.896313	-0.026074	0.027800	3.301609	1.000000	0.000003	0.000043	-0.000073	0.452129	-10.344708	-179.591928
52907	2.342289	0.121299	12.901251	0.014256	-0.019944	3.300005	1.000000	0.000002	0.000053	-0.000067	0.448663	-10.351388	-179.599674
52908	2.394289	0.113506	12.892905	-0.039095	-0.012609	3.301077	1.000000	0.000004	0.000046	-0.000065	0.448645	-10.349046	-179.606576
52909	2.360270	0.084963	12.925869	0.001833	0.015550	3.327173	1.000000	0.000002	0.000053	-0.000067	0.444370	-10.356522	-179.613813
52910	2.365091	0.094151	12.885134	-0.010586	0.005947	3.288039	1.000000	0.000004	0.000033	-0.000078	0.444517	-10.355750	-179.622150
52911	2.347883	0.104182	12.914168	0.013911	-0.004944	3.313581	1.000000	-0.000012	0.000041	-0.000069	0.437858	-10.365295	-179.630552
52912	2.362899	0.094478	12.885533	-0.006582	0.004037	3.288043	1.000000	-0.000005	0.000052	-0.000066	0.436573	-10.362503	-179.637419
52913	2.351386	0.113225	12.873675	0.005532	-0.014843	3.274448	1.000000	-0.000005	0.000042	-0.000071	0.436119	-10.375448	-179.635855
52914	2.381286	0.106294	12.935134	-0.013293	-0.007828	3.340231	1.000000	-0.000006	0.000050	-0.000073	0.434862	-10.373178	-179.643564
52915	2.370548	0.118943	12.863786	-0.014535	-0.021634	3.268213	1.000000	0.000006	0.000038	-0.000063	0.432703	-10.378038	-179.649560
52916	2.353263	0.129165	12.892822	0.007535	-0.031533	3.293736	1.000000	0.000002	0.000041	-0.000080	0.432535	-10.376888	-179.658072
52917	2.383911	0.116145	12.894805	-0.020791	-0.018955	3.301112	1.000000	-0.000003	0.000047	-0.000056	0.430694	-10.383409	-179.660934
52918	2.388823	0.125253	12.854063	-0.033132	-0.028585	3.261990	1.000000	0.000004	0.000033	-0.000078	0.430664	-10.383182	-179.669207
52919	2.392127	0.098274	12.907270	-0.026482	-0.000506	3.314721	1.000000	-0.000004	0.000045	-0.000064	0.433033	-10.384834	-179.670019
52920	2.359144	0.111907	12.905702	0.005428	-0.014129	3.307336	1.000000	0.000004	0.000046	-0.000065	0.432776	-10.383265	-179.676835
52921	2.379553	0.117564	12.895597	-0.015902	-0.020564	3.301116	1.000000	0.000006	0.000038	-0.000063	0.430219	-10.386026	-179.685144
52922	2.356978	0.112774	12.906090	0.007939	-0.015609	3.307333	1.000000	0.000003	0.000043	-0.000073	0.429964	-10.384792	-179.692794
52923	2.377302	0.118634	12.896002	-0.013008	-0.023188	3.301115	1.000000	0.000020	0.000047	-0.000069	0.423929	-10.388215	-179.705629
52924	2.370883	0.104051	12.877677	-0.010420	-0.008824	3.281826	1.000000	-0.000011	0.000044	-0.000062	0.421642	-10.386996	-179.711979
52925	2.375010	0.119482	12.896417	-0.010429	-0.025393	3.301113	1.000000	0.000021	0.000040	-0.000067	0.417804	-10.389755	-179.724195
52926	2.379854	0.128790	12.855692	-0.022745	-0.035056	3.261996	1.000000	-0.000003	0.000047	-0.000056	0.416302	-10.388193	-179.729864
52927	2.362330	0.138743	12.884751	0.000641	-0.045639	3.287488	1.000000	-0.000007	0.000047	-0.000080	0.412001	-10.392003	-179.739377
52928	2.381743	0.101874	12.909162	-0.014577	-0.009009	3.314736	1.000000	-0.000004	0.000045	-0.000064	0.410494	-10.390792	-179.745876
52929	2.359926	0.139140	12.885188	0.004833	-0.046068	3.287485	1.000000	-0.000003	0.000047	-0.000056	0.411780	-10.399760	-179.742381
52930	2.385464	0.111081	12.868650	-0.023589	-0.018572	3.275630	1.000000	-0.000003	0.000035	-0.000069	0.410500	-10.399787	-179.749503
52931	2.399851	0.107983	12.899499	-0.030201	-0.016294	3.308549	1.000000	0.000009	0.000051	-0.000076	0.406682	-10.407630	-179.757082
52932	2.382264	0.069612	12.903554	-0.012633	0.022039	3.309091	1.000000	-0.000001	0.000040	-0.000054	0.405224	-10.407193	-179.762477
52933	2.376074	0.103368	12.910195	-0.004169	-0.011190	3.314742	1.000000	-0.000005	0.000042	-0.000071	0.407193	-10.411488	-179.761615
52934	2.396351	0.060303	12.875139	-0.030882	0.031169	3.283626	1.000000	-0.000003	0.000047	-0.000056	0.405598	-10.410307	-179.767251
52935	2.384781	0.079019	12.863269	-0.021180	0.011976	3.269993	1.000000	-0.000006	0.000049	-0.000073	0.403612	-10.411846	-179.771913
52936	2.372389	0.104168	12.910866	-0.000533	-0.012908	3.314741	1.000000	0.000012	0.000047	-0.000067	0.403902	-10.410825	-179.778795
52937	2.397743	0.076413	12.894386	-0.027774	0.012881	3.302924	1.000000	0.000002	0.000053	-0.000067	0.395482	-10.414039	-179.792244
52938	2.386174	0.095341	12.882510	-0.018708	-0.006272	3.289281	1.000000	0.000003	0.000043	-0.000073	0.394789	-10.413464	-179.799735
52939	2.353120	0.108993	12.880894	0.013655	-0.020391	3.281810	1.000000	0.000006	0.000051	-0.000051	0.392141	-10.413408	-179.807008
52940	2.367306	0.105770	12.911786	0.004960	-0.017291	3.314735	1.000000	-0.000006	0.000049	-0.000073	0.390325	-10.412124	-179.814517
52941	2.377322	0.130094	12.889624	-0.007483	-0.042278	3.294911	1.000000	0.000021	0.000040	-0.000067	0.389720	-10.418430	-179.819791
52942	2.359827	0.140353	12.918640	0.014883	-0.052337	3.320354	1.000000	-0.000003	0.000047	-0.000056	0.387919	-10.417472	-179.825353
52943	2.358621	0.140552	12.918858	0.016131	-0.053301	3.320349	1.000000	-0.000004	0.000045	-0.000064	0.384507	-10.417742	-179.835986
52944	2.357469	0.092220	12.894081	0.012431	-0.005550	3.295452	1.000000	-0.000004	0.000045	-0.000064	0.382725	-10.417066	-179.842386
52945	2.351144	0.126059	12.900726	0.021181	-0.039814	3.301064	1.000000	0.000003	0.000043	-0.000073	0.381000	-10.422434	-179.847821
52946	2.376725	0.098154	12.884235	-0.007158	-0.012386	3.289288	1.000000	-0.000005	0.000042	-0.000071	0.379245	-10.422102	-179.855062
52947	2.375680	0.098171	12.884428	-0.006006	-0.013205	3.289288	1.000000	-0.000021	0.000038	-0.000075	0.374723	-10.422720	-179.867693
52948	2.379957	0.113557	12.903136	-0.006615	-0.028717	3.308561	1.000000	0.000021	0.000028	-0.000079	0.376098	-10.424011	-179.875913
52949	2.390345	0.089420	12.855934	-0.025176	-0.004823	3.263861	1.000000	-0.000006	0.000037	-0.000085	0.375027	-10.424669	-179.887687
52950	2.383081	0.080822	12.897077	-0.010826	0.003649	3.302955	1.000000	-0.000008	0.000057	-0.000075	0.372920	-10.422628	-179.895384
52951	2.387002	0.096147	12.915851	-0.011927	-0.011361	3.322227	1.000000	0.000005	0.000036	-0.000071	0.374482	-10.420837	-179.902237
52952	2.385876	0.096578	12.916056	-0.010891	-0.011980	3.322227	1.000000	0.000001	0.000050	-0.000075	0.373471	-10.419527	-179.909905
52953	2.395855	0.120814	12.893912	-0.022959	-0.036417	3.302412	1.000000	0.000007	0.000041	-0.000056	0.373400	-10.427493	-179.910242
52954	2.394755	0.121250	12.894112	-0.021910	-0.037036	3.302412	1.000000	0.000008	0.000043	-0.000049	0.372536	-10.427057	-179.914887
52955	2.356612	0.119611	12.873889	0.011964	-0.035687	3.275610	1.000000	-0.000011	0.000046	-0.000055	0.370622	-10.427030	-179.918697
52956	2.355514	0.120042	12.874086	0.013018	-0.036306	3.275607	1.000000	0.000025	0.000038	-0.000050	0.371767	-10.427247	-179.923509
52957	2.359460	0.135484	12.892850	0.013481	-0.050353	3.294878	1.000000	-0.000013	0.000051	-0.000064	0.375433	-10.430493	-179.920093
52958	2.358290	0.135690	12.893062	0.014544	-0.050960	3.294874	1.000000	0.000006	0.000038	-0.000063	0.374730	-10.430694	-179.926458
52959	2.367583	0.117533	12.905377	0.007631	-0.032245	3.308552	1.000000	-0.000005	0.000042	-0.000071	0.376403	-10.430681	-179.931200
52960	2.372547	0.126555	12.864665	-0.004656	-0.041935	3.269469	1.000000	-0.000005	0.000042	-0.000071	0.374689	-10.430444	-179.938455
52961	2.355040	0.136570	12.893646	0.019218	-0.051580	3.294866	1.000000	0.000002	0.000041	-0.000080	0.375858	-10.436685	-179.938027
52962	2.375587	0.093694	12.858639	-0.007506	-0.009250	3.263881	1.000000	-0.000007	0.000047	-0.000080	0.374046	-10.435984	-179.946369
52963	2.373489	0.100240	12.918310	0.005902	-0.015557	3.322227	1.000000	0.000002	0.000038	-0.000087	0.373871	-10.438819	-179.953676
52964	2.399139	0.072400	12.901867	-0.022427	0.011864	3.310522	1.000000	-0.000006	0.000049	-0.000073	0.371994	-10.437865	-179.961163
52965	2.408281	0.053800	12.914224	-0.029124	0.028999	3.324215	1.000000	-0.000030	0.000044	-0.000075	0.363709	-10.438551	-179.973412
52966	2.396846	0.072296	12.902294	-0.020005	0.009826	3.310528	1.000000	0.000006	0.000038	-0.000063	0.362969	-10.438894	-179.979763
52967	2.406971	0.096587	12.880135	-0.033346	-0.013727	3.290725	1.000000	0.000002	0.000041	-0.000080	0.366911	-10.441376	-179.981726
52968	2.416169	0.078642	12.892481	-0.040269	0.004216	3.304420	1.000000	0.000013	0.000049	-0.000060	0.366921	-10.440514	-179.987674
52969	2.399341	0.082682	12.862045	-0.029401	0.000358	3.271463	1.000000	0.000012	0.000059	-0.000055	0.368477	-10.439194	-179.992943
52970	2.371022	0.111394	12.878955	0.001127	-0.028278	3.283145	1.000000	0.000011	0.000056	-0.000062	0.368334	-10.437495	-179.999127
52971	2.363482	0.102950	12.920124	0.016740	-0.020318	3.322211	1.000000	-0.000000	0.000055	-0.000034	0.364039	-10.440915	179.998293
52972	2.351741	0.121697	12.908235	0.025868	-0.039487	3.308509	1.000000	0.000006	0.000051	-0.000051	0.363035	-10.439914	179.993407
52973	2.355487	0.137231	12.927030	0.025616	-0.054327	3.327771	1.000000	0.000013	0.000049	-0.000060	0.366093	-10.440069	179.990592
52974	2.348971	0.122774	12.908729	0.028313	-0.040027	3.308502	1.000000	0.000009	0.000064	-0.000064	0.365775	-10.437590	179.984179
52975	2.310616	0.121306	12.888476	0.062281	-0.039012	3.281627	1.000000	0.000004	0.000046	-0.000065	0.364109	-10.438298	179.976766
52976	2.346196	0.123637	12.909225	0.030795	-0.041434	3.308492	1.000000	-0.000000	0.000058	-0.000077	0.362954	-10.436516	179.968860
52977	2.312996	0.137002	12.907509	0.063133	-0.055307	3.300873	1.000000	-0.000004	0.000042	-0.000071	0.360533	-10.437412	179.960823
52978	2.355335	0.099578	12.862320	0.013375	-0.018418	3.263867	1.000000	0.000001	0.000035	-0.000095	0.359846	-10.438174	179.950840
52979	2.338044	0.109607	12.891218	0.036119	-0.028097	3.289216	1.000000	-0.000002	0.000025	-0.000074	0.360330	-10.440991	179.945345
52980	2.374116	0.111847	12.911893	0.004649	-0.030530	3.316096	1.000000	-0.000010	0.000039	-0.000102	0.358618	-10.441327	179.934475
52981	2.383567	0.093537	12.924209	-0.002797	-0.013004	3.329806	1.000000	-0.000011	0.000031	-0.000074	0.354340	-10.440118	179.919827
52982	2.415422	0.123189	12.891833	-0.039695	-0.043045	3.303920	1.000000	0.000015	0.000029	-0.000070	0.354705	-10.441574	179.912674
52983	2.392943	0.118143	12.902195	-0.016035	-0.038042	3.310005	1.000000	-0.000011	0.000044	-0.000062	0.352786	-10.439341	179.903372
52984	2.381890	0.088297	12.865250	-0.011786	-0.008828	3.271488	1.000000	0.000005	0.000036	-0.000071	0.352057	-10.440050	179.896188
52985	2.417815	0.090648	12.885966	-0.042458	-0.011055	3.298386	1.000000	-0.000001	0.000040	-0.000054	0.351261	-10.443815	179.892775
52986	2.406374	0.109441	12.874011	-0.033340	-0.030229	3.284669	1.000000	0.000007	0.000041	-0.000056	0.350414	-10.443976	179.887295
52987	2.378667	0.089402	12.865839	-0.006704	-0.011063	3.271490	1.000000	0.000006	0.000051	-0.000051	0.346833	-10.447205	179.883064
52988	2.392811	0.086296	12.896788	-0.015136	-0.008092	3.304471	1.000000	0.000001	0.000045	-0.000040	0.344907	-10.446942	179.879498
52989	2.385948	0.120050	12.903472	-0.006701	-0.041916	3.310001	1.000000	-0.000001	0.000067	-0.000072	0.344717	-10.447903	179.873938
52990	2.373390	0.096448	12.926060	0.009452	-0.018588	3.329797	1.000000	-0.000004	0.000042	-0.000071	0.342858	-10.447977	179.866735
52991	2.356811	0.100371	12.895551	0.020257	-0.023305	3.296809	1.000000	0.000021	0.000050	-0.000062	0.341577	-10.447719	179.855112
52992	2.371494	0.139769	12.892052	0.004811	-0.062853	3.296262	1.000000	-0.000007	0.000059	-0.000068	0.339309	-10.445836	179.848301
52993	2.343649	0.119678	12.883890	0.031018	-0.043307	3.283068	1.000000	0.000011	0.000044	-0.000074	0.338524	-10.447953	179.840197
52994	2.352921	0.101665	12.896251	0.024163	-0.025426	3.296799	1.000000	-0.000004	0.000042	-0.000071	0.336611	-10.448047	179.833013
52995	2.356598	0.116898	12.915056	0.023493	-0.040690	3.316048	1.000000	-0.000008	0.000057	-0.000075	0.335830	-10.445327	179.823814
52996	2.350439	0.102051	12.896701	0.026171	-0.026411	3.296793	1.000000	-0.000003	0.000035	-0.000069	0.334078	-10.446246	179.816866
52997	2.371019	0.107746	12.886713	0.004268	-0.032388	3.290734	1.000000	-0.000006	0.000037	-0.000086	0.332749	-10.446842	179.806530
52998	2.376058	0.117009	12.846024	-0.008095	-0.042070	3.251686	1.000000	0.000013	0.000049	-0.000060	0.332569	-10.446140	179.800651
52999	2.373774	0.123456	12.905685	0.005420	-0.048553	3.309979	1.000000	-0.000018	0.000033	-0.000065	0.329344	-10.449149	179.796699
53000	2.384447	0.098843	12.858560	-0.013391	-0.024765	3.265429	1.000000	-0.000001	0.000040	-0.000054	0.327458	-10.449520	179.791459
53001	2.398713	0.095583	12.889500	-0.021171	-0.020979	3.298426	1.000000	-0.000011	0.000044	-0.000062	0.328382	-10.452067	179.790321
53002	2.371159	0.075191	12.881274	0.004523	-0.001264	3.285223	1.000000	-0.000001	0.000040	-0.000054	0.326516	-10.452460	179.785074
53003	2.385471	0.072048	12.912207	-0.005007	0.002516	3.318219	1.000000	-0.000001	0.000040	-0.000054	0.328410	-10.447712	179.775155
53004	2.373896	0.090687	12.900253	0.004106	-0.016667	3.304471	1.000000	-0.000006	0.000049	-0.000073	0.326361	-10.446965	179.767728
53005	2.389086	0.081479	12.871789	-0.016053	-0.007241	3.279181	1.000000	0.000008	0.000058	-0.000079	0.328551	-10.446065	179.761680
53006	2.376105	0.106517	12.919325	0.005054	-0.032343	3.323716	1.000000	-0.000004	0.000042	-0.000071	0.326673	-10.446160	179.754484
53007	2.365074	0.076827	12.882384	0.009461	-0.002132	3.285220	1.000000	0.000009	0.000049	-0.000084	0.330923	-10.446473	179.749951
53008	2.358367	0.110934	12.889008	0.017054	-0.036245	3.290713	1.000000	0.000011	0.000044	-0.000074	0.330929	-10.446361	179.742346
53009	2.346796	0.129993	12.877039	0.026630	-0.055822	3.276952	1.000000	0.000011	0.000044	-0.000074	0.329111	-10.448319	179.733770
53010	2.345564	0.130508	12.877259	0.027768	-0.056472	3.276947	1.000000	0.000002	0.000050	-0.000075	0.328002	-10.447503	179.726139
53011	2.364640	0.142634	12.926799	0.017460	-0.068465	3.329192	1.000000	0.000006	0.000038	-0.000063	0.327246	-10.446119	179.716777
53012	2.380285	0.133521	12.898264	-0.002914	-0.059605	3.303915	1.000000	0.000009	0.000036	-0.000047	0.326430	-10.446928	179.712410
53013	2.368225	0.109975	12.920743	0.014194	-0.036007	3.323700	1.000000	-0.000006	0.000037	-0.000086	0.325994	-10.451618	179.707889
53014	2.373274	0.118927	12.880070	0.001790	-0.045669	3.284666	1.000000	-0.000013	0.000051	-0.000064	0.322959	-10.450753	179.701511
53015	2.360899	0.095101	12.902606	0.022138	0.014711	3.304455	1.000000	-0.000003	0.000047	-0.000056	0.484681	-10.469275	-178.908738
53016	2.381323	0.100821	12.892685	0.000442	0.008377	3.298457	1.000000	-0.000002	0.000037	-0.000062	0.484272	-10.470120	-178.908038
53017	2.380253	0.101051	12.892880	0.002112	0.008558	3.298457	1.000000	-0.000004	0.000045	-0.000064	0.485869	-10.472252	-178.916754
53018	2.384661	0.067903	12.886688	-0.003999	0.041526	3.292891	1.000000	0.000003	0.000043	-0.000073	0.486290	-10.472441	-178.917339
53019	2.409873	0.089005	12.895372	-0.026711	0.020624	3.306188	1.000000	0.000009	0.000049	-0.000084	0.489159	-10.472445	-178.926939
53020	2.376731	0.102538	12.893518	0.005790	0.007977	3.298456	1.000000	0.000015	0.000042	-0.000058	0.490549	-10.472788	-178.925785
53021	2.385961	0.084445	12.905923	-0.002079	0.025980	3.312179	1.000000	-0.000013	0.000051	-0.000064	0.488795	-10.469286	-178.924391
53022	2.369297	0.088062	12.875403	0.008644	0.022244	3.279171	1.000000	0.000006	0.000053	-0.000093	0.489945	-10.468270	-178.927347
53023	2.372952	0.103761	12.894205	0.008489	0.006778	3.298455	1.000000	0.000014	0.000039	-0.000065	0.490436	-10.467831	-178.922080
53024	2.376797	0.119391	12.912970	0.008583	-0.008469	3.317738	1.000000	0.000006	0.000038	-0.000063	0.490958	-10.468569	-178.921580
53025	2.375806	0.119743	12.913150	0.009543	-0.008882	3.317737	1.000000	-0.000002	0.000037	-0.000062	0.490135	-10.468377	-178.918593
53026	2.364275	0.138472	12.901156	0.019171	-0.027540	3.304007	1.000000	0.000004	0.000046	-0.000065	0.490497	-10.468282	-178.918327
53027	2.375006	0.114298	12.854082	-0.000182	-0.003497	3.259464	1.000000	0.000006	0.000038	-0.000063	0.493400	-10.469770	-178.929842
53028	2.372598	0.120861	12.913729	0.013292	-0.009290	3.317734	1.000000	-0.000001	0.000040	-0.000054	0.492934	-10.470331	-178.928292
53029	2.403411	0.107898	12.916038	-0.017201	0.002468	3.325492	1.000000	-0.000029	0.000049	-0.000061	0.488494	-10.468204	-178.921810
53030	2.382095	0.096034	12.866894	-0.005415	0.013682	3.273196	1.000000	-0.000004	0.000042	-0.000071	0.487990	-10.468504	-178.922198
53031	2.385988	0.111362	12.885654	-0.005105	-0.001654	3.292479	1.000000	0.000000	0.000030	-0.000060	0.487358	-10.471029	-178.918724
53032	2.369716	0.115030	12.855052	0.005596	-0.005368	3.259462	1.000000	0.000004	0.000046	-0.000065	0.487721	-10.470933	-178.918459
53033	2.394330	0.093766	12.898233	-0.011456	0.015872	3.306217	1.000000	0.000003	0.000040	-0.000080	0.487460	-10.470103	-178.914924
53034	2.388347	0.078908	12.879858	-0.009203	0.030494	3.286937	1.000000	-0.000014	0.000048	-0.000071	0.485867	-10.469679	-178.915349
53035	2.391971	0.093977	12.898669	-0.008392	0.014774	3.306220	1.000000	-0.000011	0.000044	-0.000062	0.482265	-10.472747	-178.902712
53036	2.369320	0.088857	12.908959	0.015682	0.020538	3.312179	1.000000	0.000018	0.000042	-0.000083	0.484610	-10.473004	-178.904548
53037	2.352757	0.092669	12.878403	0.025818	0.017151	3.279156	1.000000	-0.000008	0.000057	-0.000075	0.485230	-10.469248	-178.912988
53038	2.377681	0.113470	12.887171	0.003081	-0.004185	3.292479	1.000000	-0.000001	0.000052	-0.000042	0.484482	-10.468405	-178.909969
53039	2.365362	0.089935	12.909677	0.018594	0.020114	3.312176	1.000000	0.000011	0.000044	-0.000074	0.486765	-10.468005	-178.915487
53040	2.375259	0.114411	12.887609	0.005353	-0.004609	3.292478	1.000000	0.000004	0.000046	-0.000065	0.487131	-10.467911	-178.915223
53041	2.384630	0.096476	12.900010	-0.001723	0.013123	3.306225	1.000000	0.000006	0.000038	-0.000063	0.486424	-10.469426	-178.907307
53042	2.368276	0.100209	12.869413	0.008952	0.009432	3.273198	1.000000	0.000004	0.000046	-0.000065	0.486791	-10.469331	-178.907043
53043	2.376482	0.130756	12.906847	0.007569	-0.020490	3.311755	1.000000	0.000001	0.000060	-0.000070	0.488128	-10.465328	-178.914592
53044	2.397619	0.087994	12.872035	-0.020519	0.021302	3.281003	1.000000	-0.000013	0.000039	-0.000077	0.486761	-10.466026	-178.915637
53045	2.369374	0.116318	12.888675	0.011022	-0.006291	3.292474	1.000000	0.000022	0.000040	-0.000067	0.488623	-10.466699	-178.912559
53046	2.405040	0.118948	12.909614	-0.020137	-0.009344	3.319563	1.000000	-0.000018	0.000045	-0.000053	0.486142	-10.466650	-178.910849
53047	2.360732	0.107863	12.929971	0.026598	0.002215	3.331441	1.000000	0.000002	0.000050	-0.000075	0.484902	-10.465021	-178.901782
53048	2.397768	0.104372	12.891481	-0.016956	0.004620	3.300289	1.000000	0.000004	0.000046	-0.000065	0.485270	-10.464927	-178.901519
53049	2.385991	0.123031	12.879509	-0.007324	-0.013876	3.286534	1.000000	-0.000004	0.000054	-0.000059	0.485061	-10.463730	-178.903866
53050	2.352222	0.093577	12.912052	0.031162	0.016354	3.312157	1.000000	-0.000009	0.000036	-0.000060	0.483733	-10.464691	-178.902973
53051	2.372790	0.099319	12.902171	0.009127	0.010399	3.306224	1.000000	-0.000002	0.000037	-0.000062	0.485500	-10.464045	-178.916396
53052	2.356236	0.102776	12.871603	0.019779	0.006727	3.273188	1.000000	-0.000010	0.000064	-0.000077	0.484519	-10.461849	-178.917491
53053	2.359522	0.118228	12.890465	0.019971	-0.008390	3.292462	1.000000	0.000013	0.000049	-0.000060	0.486403	-10.461350	-178.920988
53054	2.390460	0.106030	12.892824	-0.010178	0.003476	3.300296	1.000000	0.000004	0.000033	-0.000078	0.487058	-10.462661	-178.922196
53055	2.363198	0.085689	12.884453	0.015008	0.024055	3.286945	1.000000	-0.000004	0.000042	-0.000071	0.485736	-10.463521	-178.917153
53056	2.393150	0.121714	12.911798	-0.008643	-0.012293	3.319574	1.000000	-0.000005	0.000039	-0.000078	0.485302	-10.464111	-178.918398
53057	2.376936	0.125336	12.881161	0.001817	-0.016115	3.286534	1.000000	0.000005	0.000036	-0.000071	0.485208	-10.464317	-178.913918
53058	2.364956	0.101837	12.903590	0.017416	0.008006	3.306217	1.000000	0.000005	0.000036	-0.000071	0.485802	-10.465343	-178.914274
53059	2.375016	0.126378	12.881505	0.004360	-0.016756	3.286532	1.000000	0.000014	0.000039	-0.000065	0.487203	-10.466647	-178.913705
53060	2.401342	0.099032	12.865263	-0.024830	0.010032	3.275113	1.000000	-0.000002	0.000035	-0.000069	0.486869	-10.467785	-178.913864
53061	2.405065	0.114374	12.884047	-0.025224	-0.005660	3.294388	1.000000	-0.000004	0.000042	-0.000071	0.484591	-10.465330	-178.901264
53062	2.403853	0.114476	12.884272	-0.024030	-0.005979	3.294390	1.000000	-0.000013	0.000051	-0.000064	0.482942	-10.464627	-178.900843
53063	2.407342	0.129773	12.903100	-0.023751	-0.021162	3.313665	1.000000	0.000008	0.000043	-0.000049	0.483747	-10.464970	-178.901523
53064	2.390383	0.091013	12.906977	-0.007214	0.017923	3.314075	1.000000	-0.000006	0.000049	-0.000073	0.483092	-10.464442	-178.902152
53065	2.363379	0.112898	12.864163	0.011930	-0.004138	3.267253	1.000000	0.000002	0.000050	-0.000075	0.482762	-10.463968	-178.898387
53066	2.398756	0.115579	12.885212	-0.019177	-0.007296	3.294397	1.000000	-0.000004	0.000054	-0.000059	0.481980	-10.462868	-178.897311
53067	2.365339	0.128444	12.883265	0.013040	-0.020152	3.286522	1.000000	-0.000005	0.000052	-0.000066	0.479371	-10.460524	-178.882457
53068	2.380303	0.077067	12.889361	-0.001823	0.031049	3.294808	1.000000	0.000010	0.000051	-0.000077	0.480574	-10.459775	-178.883481
53069	2.368522	0.095808	12.877365	0.007804	0.012676	3.281028	1.000000	-0.000003	0.000047	-0.000056	0.480929	-10.459273	-178.888444
53070	2.361595	0.129568	12.883941	0.016564	-0.020874	3.286516	1.000000	0.000006	0.000038	-0.000063	0.481464	-10.460015	-178.887949
53071	2.349484	0.105912	12.906383	0.032254	0.003835	3.306191	1.000000	-0.000003	0.000045	-0.000064	0.483439	-10.460599	-178.906900
53072	2.380382	0.093565	12.908807	0.002086	0.015617	3.314080	1.000000	0.000004	0.000043	-0.000073	0.483876	-10.460794	-178.907492
53073	2.396221	0.084481	12.880373	-0.018792	0.024015	3.288920	1.000000	-0.000002	0.000035	-0.000069	0.483272	-10.461429	-178.905267
53074	2.346273	0.106922	12.906959	0.035720	0.002839	3.306182	1.000000	0.000004	0.000046	-0.000065	0.483645	-10.461338	-178.905007
53075	2.409335	0.082062	12.911594	-0.025540	0.026847	3.321981	1.000000	0.000005	0.000033	-0.000078	0.484985	-10.463862	-178.911883
53076	2.371910	0.122358	12.856504	0.002039	-0.013319	3.261350	1.000000	0.000001	0.000060	-0.000070	0.485036	-10.462106	-178.912092
53077	2.391538	0.086095	12.881233	-0.013865	0.022711	3.288928	1.000000	0.000001	0.000048	-0.000082	0.484535	-10.461287	-178.907087
53078	2.379918	0.104756	12.869198	-0.004178	0.004128	3.275139	1.000000	-0.000006	0.000037	-0.000086	0.484174	-10.462168	-178.909189
53079	2.388034	0.135497	12.906628	-0.004670	-0.025897	3.313677	1.000000	0.000018	0.000055	-0.000071	0.487217	-10.461506	-178.917632
53080	2.377465	0.105805	12.869643	-0.001689	0.003718	3.275140	1.000000	-0.000004	0.000042	-0.000071	0.486728	-10.461815	-178.918029
53081	2.369911	0.097117	12.910707	0.013225	0.013070	3.314076	1.000000	-0.000006	0.000049	-0.000073	0.486796	-10.462345	-178.924976
53082	2.364656	0.124561	12.857819	0.009428	-0.015009	3.261345	1.000000	-0.000002	0.000035	-0.000069	0.486470	-10.463486	-178.925139
53083	2.378586	0.121661	12.888895	0.001531	-0.011696	3.294408	1.000000	0.000001	0.000060	-0.000070	0.487982	-10.463043	-178.937597
53084	2.388926	0.055195	12.876426	-0.012505	0.054447	3.283466	1.000000	0.000006	0.000051	-0.000051	0.488230	-10.462379	-178.935633
53085	2.364855	0.098430	12.911624	0.018416	0.012037	3.314071	1.000000	0.000001	0.000048	-0.000082	0.488085	-10.462560	-178.933955
53086	2.391054	0.071023	12.895497	-0.010888	0.038736	3.302739	1.000000	-0.000003	0.000047	-0.000056	0.487469	-10.462296	-178.932648
53087	2.362415	0.099261	12.912064	0.020571	0.011473	3.314068	1.000000	0.000023	0.000045	-0.000052	0.490040	-10.461232	-178.934072
53088	2.367046	0.066461	12.905932	0.014129	0.044385	3.308602	1.000000	0.000003	0.000053	-0.000068	0.490256	-10.460309	-178.934049
53089	2.366135	0.109274	12.871701	0.009387	0.001445	3.275137	1.000000	0.000010	0.000054	-0.000069	0.491880	-10.459000	-178.939023
53090	2.332742	0.122365	12.869667	0.041949	-0.010900	3.267187	1.000000	0.000005	0.000048	-0.000058	0.492193	-10.458623	-178.937913
53091	2.336059	0.137983	12.888508	0.042245	-0.026155	3.286449	1.000000	0.000010	0.000051	-0.000077	0.493529	-10.457707	-178.940879
53092	2.361011	0.159236	12.897356	0.019718	-0.047664	3.299858	1.000000	-0.000001	0.000040	-0.000054	0.493077	-10.458276	-178.939338
53093	2.338324	0.153839	12.907535	0.043853	-0.041812	3.305705	1.000000	0.000001	0.000048	-0.000082	0.493124	-10.458206	-178.939086
53094	2.369310	0.141391	12.910016	0.013678	-0.030108	3.313661	1.000000	-0.000021	0.000035	-0.000082	0.490914	-10.459316	-178.940799
53095	2.342246	0.120703	12.901542	0.038787	-0.009143	3.300240	1.000000	0.000005	0.000036	-0.000071	0.491818	-10.461231	-178.943833
53096	2.395043	0.114154	12.894008	-0.014263	-0.003687	3.302361	1.000000	-0.000008	0.000026	-0.000065	0.490731	-10.463319	-178.943567
53097	2.400133	0.080916	12.887810	-0.020733	0.029578	3.296910	1.000000	-0.000005	0.000039	-0.000078	0.491908	-10.463961	-178.959124
53098	2.384036	0.084350	12.857117	-0.010205	0.025988	3.263834	1.000000	-0.000002	0.000035	-0.000069	0.491588	-10.465103	-178.959290
53099	2.415248	0.072077	12.859571	-0.040513	0.037905	3.271812	1.000000	-0.000003	0.000032	-0.000076	0.492349	-10.466002	-178.970076
53100	2.407595	0.063369	12.900639	-0.025791	0.047094	3.310732	1.000000	-0.000010	0.000064	-0.000077	0.491381	-10.463816	-178.971182
53101	2.406158	0.063535	12.900907	-0.024990	0.046667	3.310735	1.000000	-0.000003	0.000047	-0.000057	0.490327	-10.461868	-178.967250
53102	2.411375	0.072981	12.860293	-0.037341	0.036835	3.271824	1.000000	0.000023	0.000045	-0.000052	0.492596	-10.461810	-178.965445
53103	2.393053	0.082849	12.889115	-0.014237	0.027747	3.296922	1.000000	-0.000007	0.000059	-0.000068	0.491555	-10.459589	-178.965202
53104	2.413220	0.088996	12.879414	-0.035916	0.021175	3.291095	1.000000	0.000012	0.000046	-0.000067	0.492866	-10.459387	-178.965142
53105	2.352239	0.129665	12.893651	0.027257	-0.018062	3.294372	1.000000	0.000004	0.000058	-0.000053	0.493046	-10.458049	-178.965570
53106	2.365969	0.126890	12.924783	0.019132	-0.015119	3.327455	1.000000	0.000005	0.000048	-0.000058	0.493362	-10.457673	-178.964461
53107	2.364618	0.127282	12.925026	0.020176	-0.015212	3.327453	1.000000	0.000003	0.000055	-0.000060	0.494524	-10.455823	-178.974107
53108	2.348121	0.130927	12.894389	0.030687	-0.018781	3.294364	1.000000	0.000010	0.000051	-0.000077	0.495740	-10.455075	-178.975136
53109	2.346838	0.131331	12.894619	0.032062	-0.019073	3.294360	1.000000	-0.000003	0.000047	-0.000057	0.495211	-10.455603	-178.975767
53110	2.384212	0.127961	12.856330	-0.011683	-0.016936	3.263460	1.000000	-0.000004	0.000042	-0.000071	0.494733	-10.455915	-178.976170
53111	2.376648	0.119481	12.897363	0.003206	-0.007804	3.302366	1.000000	0.000011	0.000044	-0.000075	0.495799	-10.456584	-178.975231
53112	2.364993	0.138201	12.885287	0.012915	-0.026348	3.288535	1.000000	-0.000005	0.000039	-0.000078	0.495389	-10.457183	-178.976488
53113	2.369994	0.105048	12.879128	0.006203	0.006496	3.283105	1.000000	-0.000005	0.000039	-0.000078	0.494768	-10.457016	-178.977014
53114	2.401102	0.092819	12.881651	-0.023991	0.018128	3.291127	1.000000	-0.000006	0.000037	-0.000086	0.494425	-10.457903	-178.979124
53115	2.378555	0.087393	12.891768	-0.000101	0.024042	3.296937	1.000000	0.000003	0.000040	-0.000080	0.494750	-10.457658	-178.980012
53116	2.403580	0.108561	12.900648	-0.022550	0.002458	3.310391	1.000000	-0.000013	0.000038	-0.000077	0.493411	-10.458373	-178.981074
53117	2.376478	0.087775	12.892148	0.002175	0.023309	3.296939	1.000000	-0.000004	0.000042	-0.000071	0.492495	-10.458234	-178.978445
53118	2.390442	0.085085	12.923251	-0.005924	0.026225	3.330035	1.000000	0.000011	0.000044	-0.000075	0.493876	-10.458319	-178.979240
53119	2.395713	0.094443	12.882643	-0.018347	0.016608	3.291138	1.000000	-0.000003	0.000047	-0.000057	0.494258	-10.457899	-178.989074
53120	2.362301	0.107196	12.880524	0.014231	0.004364	3.283099	1.000000	0.000003	0.000053	-0.000068	0.494481	-10.456979	-178.989056
53121	2.367164	0.074223	12.874401	0.007554	0.037086	3.277681	1.000000	0.000007	0.000041	-0.000056	0.494229	-10.457000	-178.981955
53122	2.375352	0.147236	12.877381	0.001427	-0.035931	3.282717	1.000000	0.000002	0.000050	-0.000075	0.494520	-10.456368	-178.982791
53123	2.363067	0.123678	12.899819	0.016870	-0.011683	3.302353	1.000000	0.000010	0.000051	-0.000077	0.495971	-10.455241	-178.987652
53124	2.372745	0.148364	12.877848	0.003729	-0.036513	3.282715	1.000000	0.000016	0.000047	-0.000043	0.497247	-10.455009	-178.984798
53125	2.350109	0.142991	12.887957	0.027803	-0.030460	3.288503	1.000000	-0.000006	0.000037	-0.000086	0.497188	-10.455972	-178.990898
53126	2.333526	0.103897	12.891737	0.044072	0.008734	3.288878	1.000000	-0.000013	0.000051	-0.000064	0.495555	-10.455283	-178.990491
53127	2.379885	0.130674	12.890763	-0.001214	-0.019008	3.296559	1.000000	-0.000012	0.000041	-0.000069	0.494961	-10.455674	-178.999956
53128	2.368150	0.149039	12.878686	0.008510	-0.037533	3.282710	1.000000	-0.000007	0.000047	-0.000081	0.494393	-10.455444	-179.001451
53129	2.362192	0.091808	12.894745	0.016192	0.019980	3.296934	1.000000	-0.000005	0.000039	-0.000078	0.494496	-10.455837	-179.008854
53130	2.361176	0.091949	12.894931	0.017381	0.019665	3.296933	1.000000	-0.000013	0.000038	-0.000077	0.493163	-10.456554	-179.009919
53131	2.360160	0.092091	12.895115	0.018496	0.019275	3.296932	1.000000	-0.000005	0.000039	-0.000078	0.492429	-10.456824	-179.009165
53132	2.397928	0.089021	12.856843	-0.025321	0.021311	3.266124	1.000000	0.000007	0.000026	-0.000076	0.493280	-10.458974	-179.010148
53133	2.385989	0.065191	12.879215	-0.009641	0.045412	3.285756	1.000000	-0.000013	0.000051	-0.000064	0.491180	-10.459008	-179.006070
53134	2.400151	0.104730	12.875883	-0.023493	0.005573	3.285384	1.000000	0.000012	0.000044	-0.000075	0.492566	-10.459093	-179.006866
53135	2.366540	0.075342	12.908169	0.014615	0.036122	3.310784	1.000000	0.000004	0.000043	-0.000073	0.493091	-10.458109	-179.009962
53136	2.371773	0.084592	12.867584	0.002184	0.026272	3.271903	1.000000	-0.000004	0.000054	-0.000059	0.492320	-10.457019	-179.008898
53137	2.411556	0.102805	12.907475	-0.029345	0.007941	3.318503	1.000000	0.000007	0.000041	-0.000056	0.493301	-10.457858	-179.014305
53138	2.399828	0.121479	12.895386	-0.019615	-0.010575	3.304645	1.000000	0.000004	0.000045	-0.000066	0.493691	-10.457771	-179.014054
53139	2.387471	0.097878	12.917828	-0.004080	0.013651	3.324271	1.000000	0.000009	0.000063	-0.000064	0.494679	-10.455693	-179.015806
53140	2.358545	0.125705	12.934265	0.027822	-0.013515	3.335422	1.000000	-0.000008	0.000029	-0.000058	0.493539	-10.457500	-179.014694
53141	2.364096	0.135019	12.893623	0.015152	-0.023519	3.296543	1.000000	0.000012	0.000044	-0.000075	0.494259	-10.456539	-179.010440
53142	2.363019	0.135575	12.893815	0.016347	-0.023835	3.296541	1.000000	0.000006	0.000038	-0.000063	0.494813	-10.457283	-179.009953
53143	2.393918	0.123637	12.896463	-0.013746	-0.012434	3.304651	1.000000	0.000000	0.000057	-0.000077	0.494414	-10.456313	-179.006549
53144	2.355919	0.121221	12.875667	0.019529	-0.009582	3.277285	1.000000	0.000003	0.000053	-0.000068	0.494642	-10.455396	-179.006534
53145	2.369830	0.118483	12.906803	0.011655	-0.006600	3.310404	1.000000	-0.000003	0.000032	-0.000076	0.494904	-10.457510	-179.013876
53146	2.379411	0.100510	12.919295	0.004302	0.011266	3.324273	1.000000	-0.000007	0.000047	-0.000081	0.494342	-10.457284	-179.015375
53147	2.384784	0.109906	12.878695	-0.008378	0.001274	3.285403	1.000000	0.000011	0.000041	-0.000082	0.495231	-10.456652	-179.012593
53148	2.362249	0.104488	12.888743	0.015671	0.007322	3.291150	1.000000	-0.000002	0.000035	-0.000069	0.494928	-10.457801	-179.012766
53149	2.371868	0.086523	12.901232	0.008440	0.025068	3.305023	1.000000	-0.000004	0.000042	-0.000071	0.493932	-10.458686	-179.008115
53150	2.392316	0.092651	12.891566	-0.013227	0.018377	3.299281	1.000000	-0.000004	0.000042	-0.000071	0.493466	-10.459005	-179.008525
53151	2.363319	0.120328	12.907980	0.018745	-0.008734	3.310394	1.000000	-0.000005	0.000052	-0.000066	0.492800	-10.458280	-179.009969
53152	2.357682	0.105375	12.889573	0.020584	0.005955	3.291144	1.000000	-0.000003	0.000044	-0.000064	0.492265	-10.458311	-179.009525
53153	2.410216	0.099292	12.882377	-0.032599	0.011005	3.293549	1.000000	0.000005	0.000045	-0.000066	0.492484	-10.457769	-179.008691
53154	2.376897	0.112035	12.880134	0.000006	-0.001100	3.285406	1.000000	0.000004	0.000043	-0.000073	0.492948	-10.457972	-179.009296
53155	2.354003	0.106629	12.890235	0.024130	0.004957	3.291138	1.000000	0.000009	0.000061	-0.000071	0.493876	-10.456445	-179.010022
53156	2.395774	0.118852	12.870765	-0.020389	-0.008139	3.279675	1.000000	-0.000001	0.000040	-0.000054	0.493436	-10.457021	-179.008490
53157	2.387860	0.109961	12.911821	-0.005644	0.001193	3.318537	1.000000	-0.000016	0.000065	-0.000068	0.491930	-10.454183	-179.015434
53158	2.349954	0.107484	12.890966	0.027590	0.004112	3.291132	1.000000	0.000022	0.000040	-0.000067	0.494347	-10.454695	-179.015337
53159	2.396212	0.135122	12.890120	-0.017634	-0.024010	3.298926	1.000000	0.000002	0.000050	-0.000075	0.494626	-10.453700	-179.017461
53160	2.369102	0.114470	12.881549	0.007034	-0.002922	3.285404	1.000000	0.000004	0.000043	-0.000073	0.495092	-10.453903	-179.018066
53161	2.367962	0.114801	12.881756	0.008144	-0.003218	3.285403	1.000000	-0.000003	0.000044	-0.000064	0.494656	-10.453581	-179.020300
53162	2.355943	0.090797	12.904120	0.023626	0.021029	3.305012	1.000000	-0.000012	0.000041	-0.000070	0.493265	-10.454018	-179.020519
53163	2.376434	0.096860	12.894472	0.002084	0.014219	3.299293	1.000000	-0.000001	0.000040	-0.000055	0.492421	-10.455128	-179.014913
53164	2.386200	0.121532	12.872518	-0.011010	-0.010665	3.279685	1.000000	0.000020	0.000047	-0.000069	0.494676	-10.454810	-179.015052
53165	2.352655	0.092022	12.904711	0.027268	0.019924	3.305007	1.000000	-0.000005	0.000037	-0.000086	0.494020	-10.455481	-179.014667
53166	2.368728	0.082919	12.876445	0.006200	0.028203	3.280049	1.000000	-0.000013	0.000051	-0.000064	0.492396	-10.454801	-179.014269
53167	2.404084	0.086054	12.897790	-0.024565	0.024574	3.307480	1.000000	0.000006	0.000038	-0.000063	0.492820	-10.455821	-179.013114
53168	2.370839	0.098753	12.895488	0.008050	0.012529	3.299292	1.000000	0.000004	0.000043	-0.000073	0.493289	-10.456025	-179.013721
53169	2.412790	0.111202	12.876035	-0.036380	-0.000542	3.287881	1.000000	0.000012	0.000044	-0.000075	0.495105	-10.456475	-179.020766
53170	2.390222	0.105717	12.886050	-0.012336	0.005563	3.293588	1.000000	-0.000002	0.000035	-0.000069	0.494810	-10.457627	-179.020943
53171	2.378391	0.081844	12.908376	0.003169	0.029863	3.313192	1.000000	-0.000001	0.000037	-0.000062	0.494634	-10.458653	-179.023804
53172	2.388205	0.106328	12.886419	-0.009918	0.004969	3.293590	1.000000	0.000005	0.000045	-0.000066	0.495033	-10.458569	-179.023557
53173	2.404305	0.097458	12.858164	-0.031153	0.013222	3.268651	1.000000	-0.000004	0.000042	-0.000071	0.494541	-10.458252	-179.026105
53174	2.374993	0.082949	12.908994	0.006594	0.028901	3.313193	1.000000	0.000013	0.000049	-0.000060	0.495798	-10.457763	-179.025197
53175	2.384496	0.107590	12.887095	-0.006547	0.003939	3.293592	1.000000	0.000000	0.000057	-0.000077	0.495658	-10.456051	-179.024790
53176	2.383109	0.107877	12.887350	-0.005355	0.003621	3.293593	1.000000	-0.000006	0.000049	-0.000073	0.495036	-10.455543	-179.025442
53177	2.386183	0.123473	12.906214	-0.004780	-0.011746	3.312834	1.000000	0.000012	0.000044	-0.000075	0.496301	-10.455362	-179.026591
53178	2.376480	0.093686	12.869131	-0.002482	0.017972	3.274353	1.000000	0.000004	0.000043	-0.000073	0.496773	-10.455566	-179.027199
53179	2.383983	0.124482	12.906611	-0.002368	-0.012419	3.312834	1.000000	0.000006	0.000038	-0.000063	0.497178	-10.456404	-179.026240
53180	2.374336	0.094589	12.869520	-0.000085	0.017302	3.274355	1.000000	0.000005	0.000045	-0.000066	0.497579	-10.456321	-179.025994
53181	2.387997	0.092004	12.900737	-0.008041	0.020046	3.307508	1.000000	0.000003	0.000053	-0.000068	0.497594	-10.455326	-179.024905
53182	2.386579	0.092283	12.900997	-0.006850	0.019727	3.307510	1.000000	-0.000008	0.000056	-0.000075	0.496810	-10.453989	-179.025795
53183	2.378851	0.125918	12.907544	0.002216	-0.013868	3.312833	1.000000	0.000005	0.000045	-0.000066	0.496660	-10.453109	-179.021583
53184	2.373309	0.111157	12.889130	0.003940	0.000836	3.293594	1.000000	0.000003	0.000053	-0.000068	0.496897	-10.452197	-179.021575
53185	2.404321	0.099315	12.891895	-0.026328	0.012127	3.301837	1.000000	-0.000005	0.000039	-0.000079	0.496315	-10.452711	-179.021933
53186	2.370908	0.111802	12.889566	0.006302	0.000157	3.293593	1.000000	0.000003	0.000053	-0.000068	0.496552	-10.451799	-179.021925
53187	2.369642	0.112108	12.889796	0.007401	-0.000180	3.293592	1.000000	-0.000003	0.000044	-0.000064	0.495940	-10.451429	-179.022863
53188	2.364365	0.097179	12.871336	0.009107	0.014527	3.274355	1.000000	-0.000002	0.000035	-0.000069	0.495650	-10.452583	-179.023043
53189	2.367283	0.112650	12.890225	0.009682	-0.000931	3.293591	1.000000	-0.000001	0.000067	-0.000072	0.495040	-10.449549	-179.018965
53190	2.383218	0.103878	12.862038	-0.011466	0.007292	3.268687	1.000000	0.000006	0.000038	-0.000064	0.495607	-10.450297	-179.018484
53191	2.390515	0.134558	12.899550	-0.011221	-0.023102	3.307160	1.000000	-0.000005	0.000052	-0.000066	0.494810	-10.449755	-179.018040
53192	2.352608	0.089504	12.913049	0.027559	0.022705	3.313178	1.000000	0.000005	0.000045	-0.000066	0.495213	-10.449674	-179.017796
53193	2.362320	0.114109	12.891123	0.014533	-0.002253	3.293586	1.000000	0.000004	0.000043	-0.000073	0.495527	-10.449988	-179.017603
53194	2.365341	0.129610	12.909990	0.015236	-0.017596	3.312820	1.000000	-0.000006	0.000049	-0.000073	0.494910	-10.449483	-179.018258
53195	2.392252	0.102546	12.894115	-0.014539	0.008673	3.301858	1.000000	-0.000002	0.000035	-0.000069	0.494402	-10.450593	-179.016968
53196	2.380336	0.121009	12.881986	-0.004741	-0.009753	3.287927	1.000000	0.000001	0.000060	-0.000070	0.494476	-10.448852	-179.017198
53197	2.368085	0.097114	12.904369	0.010638	0.014495	3.307514	1.000000	-0.000002	0.000047	-0.000057	0.493672	-10.448389	-179.014867
53198	2.378084	0.121680	12.882396	-0.002403	-0.010436	3.287927	1.000000	0.000009	0.000019	-0.000074	0.494717	-10.451374	-179.015621
53199	2.409361	0.109738	12.885158	-0.032625	0.000745	3.296214	1.000000	-0.000023	0.000054	-0.000072	0.491690	-10.450431	-179.011565
53200	2.371695	0.106764	12.864145	0.000485	0.003873	3.268694	1.000000	0.000003	0.000040	-0.000080	0.492242	-10.450927	-179.013030
53201	2.363999	0.098121	12.905111	0.015473	0.013257	3.307510	1.000000	-0.000005	0.000039	-0.000079	0.492368	-10.451693	-179.022481
53202	2.362906	0.098357	12.905309	0.016665	0.012941	3.307509	1.000000	-0.000003	0.000044	-0.000064	0.491845	-10.451731	-179.022046
53203	2.411562	0.077406	12.879660	-0.036044	0.032638	3.290935	1.000000	-0.000000	0.000027	-0.000067	0.491427	-10.453436	-179.020011
53204	2.382325	0.104894	12.895934	-0.003855	0.005715	3.301867	1.000000	-0.000009	0.000063	-0.000078	0.490483	-10.451274	-179.021143
53205	2.376885	0.090025	12.877509	-0.002316	0.020371	3.282637	1.000000	0.000005	0.000033	-0.000078	0.490943	-10.452156	-179.021457
53206	2.401488	0.111718	12.886611	-0.024410	-0.001515	3.296232	1.000000	0.000003	0.000053	-0.000068	0.491184	-10.451246	-179.021452
53207	2.385069	0.072729	12.890332	-0.008511	0.037813	3.296584	1.000000	0.000004	0.000055	-0.000060	0.491290	-10.450249	-179.020646
53208	2.366547	0.124689	12.884491	0.009478	-0.013719	3.287921	1.000000	0.000012	0.000044	-0.000075	0.492700	-10.450338	-179.021450
53209	2.369558	0.140314	12.903355	0.010290	-0.029089	3.307149	1.000000	-0.000003	0.000044	-0.000064	0.492096	-10.450602	-179.020852
53210	2.360028	0.110256	12.866261	0.012345	0.000668	3.268689	1.000000	0.000005	0.000048	-0.000058	0.492429	-10.450234	-179.019755
53211	2.352118	0.101772	12.907253	0.027192	0.009829	3.307494	1.000000	0.000012	0.000046	-0.000067	0.493236	-10.449458	-179.015397
53212	2.361757	0.126504	12.885353	0.014174	-0.015120	3.287915	1.000000	0.000005	0.000045	-0.000066	0.493643	-10.449378	-179.015155
53213	2.392907	0.115023	12.888178	-0.016054	-0.003923	3.296244	1.000000	0.000010	0.000039	-0.000089	0.495143	-10.450219	-179.017551
53214	2.370008	0.109238	12.898167	0.007974	0.002316	3.301866	1.000000	-0.000016	0.000065	-0.000069	0.493198	-10.447892	-179.017639
53215	2.368602	0.109412	12.898424	0.010238	0.001819	3.301865	1.000000	0.000004	0.000043	-0.000073	0.492789	-10.452780	-179.015887
53216	2.406447	0.106743	12.860493	-0.033832	0.003411	3.271407	1.000000	-0.000004	0.000042	-0.000071	0.492336	-10.453121	-179.016254
53217	2.351415	0.112992	12.867814	0.021669	-0.001964	3.268676	1.000000	0.000003	0.000053	-0.000068	0.492055	-10.452261	-179.009725
53218	2.397304	0.098266	12.901713	-0.017633	0.012249	3.310211	1.000000	-0.000012	0.000041	-0.000070	0.490673	-10.452723	-179.009901
53219	2.381363	0.101208	12.870881	-0.007439	0.008829	3.277025	1.000000	-0.000011	0.000043	-0.000062	0.488911	-10.452778	-179.006262
53220	2.384162	0.116491	12.889785	-0.006634	-0.006533	3.296251	1.000000	-0.000011	0.000058	-0.000092	0.488112	-10.451208	-179.009052
53221	2.372050	0.092802	12.912123	0.008741	0.017794	3.315822	1.000000	0.000022	0.000040	-0.000067	0.490525	-10.451661	-179.010407
53222	2.377649	0.102160	12.871560	-0.003879	0.007867	3.277027	1.000000	-0.000018	0.000045	-0.000053	0.488065	-10.451666	-179.008684
53223	2.376401	0.102364	12.871789	-0.002700	0.007533	3.277028	1.000000	0.000010	0.000051	-0.000077	0.489240	-10.450877	-179.010270
53224	2.379191	0.118077	12.890689	-0.001880	-0.007831	3.296252	1.000000	0.000002	0.000050	-0.000075	0.489552	-10.450269	-179.011067
53225	2.373842	0.103302	12.872253	-0.000269	0.006877	3.277028	1.000000	0.000005	0.000045	-0.000066	0.489873	-10.450405	-179.010515
53226	2.387499	0.100726	12.903512	-0.008085	0.009573	3.310223	1.000000	-0.000003	0.000044	-0.000064	0.489347	-10.450459	-179.010029
53227	2.379621	0.134447	12.910017	0.001346	-0.023868	3.315475	1.000000	0.000010	0.000051	-0.000077	0.490524	-10.449524	-179.011904
53228	2.348657	0.098242	12.882627	0.026089	0.012509	3.282621	1.000000	-0.000011	0.000043	-0.000062	0.489070	-10.449699	-179.011228
53229	2.379945	0.086419	12.885483	-0.004326	0.023605	3.291003	1.000000	0.000001	0.000032	-0.000052	0.488640	-10.450541	-179.009548
53230	2.372182	0.120163	12.891962	0.005163	-0.009817	3.296250	1.000000	0.000007	0.000053	-0.000093	0.489868	-10.449561	-179.012486
53231	2.381640	0.102490	12.904581	-0.002251	0.007836	3.310226	1.000000	-0.000003	0.000044	-0.000064	0.488982	-10.449784	-179.007162
53232	2.365672	0.105605	12.873739	0.007937	0.004515	3.277027	1.000000	-0.000003	0.000044	-0.000064	0.488458	-10.449839	-179.006678
53233	2.364629	0.105958	12.873927	0.009129	0.004129	3.277026	1.000000	0.000006	0.000036	-0.000071	0.488797	-10.450884	-179.003183
53234	2.378332	0.103415	12.905184	0.001334	0.006808	3.310227	1.000000	-0.000006	0.000049	-0.000073	0.488183	-10.450400	-179.003791
53235	2.409537	0.091611	12.908075	-0.028931	0.017861	3.318630	1.000000	-0.000010	0.000033	-0.000068	0.486769	-10.451788	-179.001379
53236	2.361372	0.106571	12.874520	0.012729	0.003133	3.277024	1.000000	-0.000006	0.000049	-0.000073	0.486156	-10.451303	-179.001988
53237	2.370866	0.088689	12.887141	0.005244	0.020854	3.291007	1.000000	-0.000002	0.000047	-0.000057	0.485545	-10.450988	-179.002046
53238	2.373804	0.104342	12.906010	0.006119	0.005484	3.310226	1.000000	0.000010	0.000039	-0.000089	0.487108	-10.451667	-179.004508
53239	2.390291	0.095878	12.877832	-0.015236	0.013499	3.285436	1.000000	0.000007	0.000038	-0.000064	0.487328	-10.452257	-179.000079
53240	2.378470	0.114307	12.865632	-0.005381	-0.004859	3.271449	1.000000	-0.000003	0.000044	-0.000064	0.486805	-10.452313	-178.999596
53241	2.366537	0.090400	12.887925	0.009993	0.019464	3.291007	1.000000	0.000004	0.000043	-0.000073	0.487115	-10.452631	-178.998238
53242	2.423173	0.100288	12.899845	-0.043426	0.008828	3.313083	1.000000	0.000003	0.000053	-0.000068	0.487355	-10.451738	-178.998184
53243	2.353289	0.109423	12.875976	0.020962	0.000756	3.277013	1.000000	0.000012	0.000044	-0.000075	0.488592	-10.451480	-178.998718
53244	2.388481	0.113065	12.897569	-0.009628	-0.003239	3.304660	1.000000	-0.000011	0.000043	-0.000062	0.487141	-10.451659	-178.998045
53245	2.348242	0.116032	12.935815	0.036884	-0.005386	3.334997	1.000000	-0.000002	0.000047	-0.000057	0.486155	-10.451255	-178.991931
53246	2.371415	0.116380	12.866916	0.001683	-0.006939	3.271449	1.000000	0.000007	0.000038	-0.000064	0.486728	-10.452019	-178.991401
53247	2.363622	0.107806	12.907850	0.016832	0.002377	3.310218	1.000000	0.000003	0.000040	-0.000080	0.487285	-10.452920	-178.992741
53248	2.362609	0.108169	12.908033	0.018028	0.002060	3.310216	1.000000	-0.000001	0.000037	-0.000062	0.486931	-10.453806	-178.992021
53249	2.393881	0.096540	12.910952	-0.012321	0.013101	3.318662	1.000000	-0.000004	0.000042	-0.000071	0.486521	-10.453932	-178.995085
53250	2.399518	0.105925	12.870412	-0.024999	0.003144	3.279897	1.000000	0.000005	0.000045	-0.000066	0.486929	-10.453868	-178.994794
53251	2.380951	0.115197	12.898942	-0.001331	-0.005605	3.304662	1.000000	-0.000010	0.000033	-0.000068	0.485535	-10.454825	-178.994154
53252	2.354324	0.093926	12.890136	0.022947	0.015814	3.290995	1.000000	-0.000006	0.000049	-0.000073	0.484926	-10.454343	-178.994766
53253	2.410763	0.103968	12.902141	-0.030454	0.005160	3.313122	1.000000	0.000020	0.000060	-0.000056	0.487166	-10.452546	-179.000594
53254	2.373087	0.101012	12.880974	0.002495	0.008563	3.285448	1.000000	-0.000014	0.000045	-0.000079	0.485707	-10.452476	-179.001871
53255	2.375970	0.116354	12.899850	0.003501	-0.006881	3.304661	1.000000	-0.000001	0.000040	-0.000055	0.484985	-10.453357	-178.995516
53256	2.374752	0.116779	12.900070	0.004697	-0.007199	3.304661	1.000000	0.000011	0.000054	-0.000069	0.486158	-10.452343	-178.995654
53257	2.362716	0.093041	12.922369	0.020069	0.017067	3.324207	1.000000	0.000004	0.000043	-0.000073	0.486106	-10.452749	-178.987169
53258	2.350700	0.111517	12.910178	0.029951	-0.001257	3.310195	1.000000	0.000003	0.000053	-0.000068	0.486350	-10.451858	-178.987118
53259	2.374914	0.133361	12.919433	0.008094	-0.023367	3.323870	1.000000	0.000002	0.000047	-0.000082	0.486621	-10.451525	-178.987831
53260	2.408873	0.073272	12.897483	-0.030437	0.035747	3.307942	1.000000	-0.000011	0.000043	-0.000062	0.485175	-10.451707	-178.987161
53261	2.364607	0.103262	12.882516	0.010975	0.006131	3.285445	1.000000	-0.000002	0.000047	-0.000057	0.484602	-10.451588	-178.986794
53262	2.367464	0.118817	12.901391	0.011945	-0.009252	3.304655	1.000000	0.000007	0.000038	-0.000064	0.485180	-10.452354	-178.986266
53263	2.409504	0.089415	12.916775	-0.027112	0.019699	3.327162	1.000000	0.000004	0.000043	-0.000073	0.485587	-10.452334	-178.987996
53264	2.361419	0.104528	12.883090	0.014498	0.005160	3.285442	1.000000	0.000006	0.000036	-0.000071	0.486243	-10.453389	-178.988323
53265	2.396655	0.108295	12.904733	-0.016012	0.001089	3.313148	1.000000	-0.000003	0.000044	-0.000064	0.485873	-10.453519	-178.991670
53266	2.373939	0.102389	12.914588	0.007997	0.007488	3.318670	1.000000	0.000005	0.000045	-0.000066	0.486286	-10.453456	-178.991381
53267	2.412006	0.099998	12.876830	-0.036213	0.008781	3.288424	1.000000	-0.000001	0.000037	-0.000062	0.485894	-10.454400	-178.991091
53268	2.367841	0.087865	12.896302	0.010604	0.021909	3.299460	1.000000	0.000005	0.000045	-0.000066	0.486307	-10.454338	-178.990802
53269	2.396196	0.124910	12.924214	-0.011453	-0.015323	3.332361	1.000000	-0.000005	0.000037	-0.000086	0.485815	-10.455080	-178.991428
53270	2.369572	0.103569	12.915381	0.012752	0.006157	3.318667	1.000000	-0.000013	0.000050	-0.000065	0.484204	-10.454436	-178.990999
53271	2.385922	0.094910	12.887301	-0.008677	0.014207	3.293948	1.000000	0.000013	0.000046	-0.000067	0.485691	-10.454224	-178.995373
53272	2.377851	0.128810	12.893770	0.001028	-0.019172	3.299128	1.000000	0.000013	0.000046	-0.000067	0.487034	-10.454039	-178.995274
53273	2.368723	0.098778	12.856645	0.002594	0.010627	3.260714	1.000000	-0.000005	0.000051	-0.000066	0.486251	-10.453268	-178.994865
53274	2.396890	0.093480	12.919093	-0.013981	0.016138	3.327188	1.000000	0.000005	0.000045	-0.000066	0.486666	-10.453206	-178.994577
53275	2.384899	0.111840	12.906881	-0.004142	-0.002216	3.313157	1.000000	-0.000006	0.000046	-0.000081	0.485933	-10.452753	-178.995284
53276	2.383699	0.112171	12.907099	-0.002945	-0.002536	3.313158	1.000000	0.000005	0.000045	-0.000066	0.486348	-10.452691	-178.994996
53277	2.382468	0.112703	12.907322	-0.001720	-0.002898	3.313158	1.000000	0.000013	0.000049	-0.000060	0.487424	-10.452340	-178.991076
53278	2.388125	0.122207	12.866805	-0.014458	-0.012878	3.274420	1.000000	-0.000004	0.000042	-0.000071	0.486990	-10.452691	-178.991455
53279	2.376210	0.098242	12.889070	0.000797	0.011489	3.293953	1.000000	0.000005	0.000048	-0.000058	0.487118	-10.452175	-178.988752
53280	2.364103	0.116670	12.876871	0.010701	-0.006805	3.279915	1.000000	0.000003	0.000053	-0.000068	0.487367	-10.451286	-178.988703
53281	2.377521	0.114295	12.908220	0.003030	-0.004253	3.313157	1.000000	0.000005	0.000045	-0.000066	0.487652	-10.451216	-178.987021
53282	2.390148	0.090459	12.861456	-0.018281	0.018810	3.269261	1.000000	-0.000004	0.000042	-0.000071	0.487219	-10.451568	-178.987400
53283	2.371343	0.099639	12.889956	0.005611	0.010200	3.293953	1.000000	-0.000006	0.000046	-0.000081	0.486766	-10.451565	-178.990244
53284	2.380962	0.124178	12.868114	-0.007286	-0.014860	3.274424	1.000000	-0.000001	0.000040	-0.000055	0.486342	-10.452167	-178.988674
53285	2.373040	0.115349	12.909035	0.007847	-0.005480	3.313155	1.000000	-0.000004	0.000042	-0.000071	0.486055	-10.452467	-178.993470
53286	2.389525	0.106848	12.880965	-0.013625	0.002501	3.288470	1.000000	0.000013	0.000049	-0.000060	0.487322	-10.451993	-178.992518
53287	2.366751	0.100873	12.890790	0.010336	0.008955	3.293951	1.000000	-0.000014	0.000045	-0.000079	0.485856	-10.451769	-178.995891
53288	2.376336	0.125416	12.868957	-0.002557	-0.016109	3.274424	1.000000	0.000004	0.000043	-0.000073	0.486354	-10.451997	-178.996460
53289	2.364341	0.101417	12.891228	0.012738	0.008303	3.293950	1.000000	-0.000004	0.000054	-0.000059	0.485520	-10.451008	-178.994451
53290	2.363079	0.101728	12.891457	0.013932	0.007986	3.293949	1.000000	0.000004	0.000043	-0.000073	0.486019	-10.451237	-178.995021
53291	2.387378	0.123621	12.900749	-0.007872	-0.014244	3.307675	1.000000	-0.000004	0.000042	-0.000071	0.485409	-10.451250	-178.995911
53292	2.382387	0.108728	12.882272	-0.006561	0.000516	3.288476	1.000000	0.000005	0.000045	-0.000066	0.485828	-10.451189	-178.995625
53293	2.385100	0.124304	12.901164	-0.005478	-0.014903	3.307676	1.000000	-0.000004	0.000042	-0.000071	0.485317	-10.451534	-178.995830
53294	2.376224	0.094270	12.864009	-0.004068	0.014939	3.269278	1.000000	0.000013	0.000049	-0.000060	0.486585	-10.451060	-178.994878
53295	2.393501	0.107067	12.914055	-0.011770	0.002464	3.321732	1.000000	-0.000014	0.000045	-0.000079	0.485373	-10.451167	-179.000575
53296	2.349128	0.136963	12.898950	0.029679	-0.026958	3.299080	1.000000	0.000005	0.000045	-0.000066	0.485794	-10.451107	-179.000290
53297	2.391165	0.107743	12.914482	-0.009359	0.001839	3.321734	1.000000	0.000004	0.000043	-0.000073	0.486367	-10.451410	-179.002776
53298	2.396918	0.117172	12.873970	-0.022144	-0.008158	3.283018	1.000000	-0.000003	0.000044	-0.000064	0.485859	-10.451475	-179.002303
53299	2.374204	0.111173	12.883761	0.001873	-0.001691	3.288477	1.000000	0.000005	0.000045	-0.000066	0.486179	-10.451508	-179.000545
53300	2.362369	0.087299	12.905995	0.017138	0.022752	3.307995	1.000000	0.000004	0.000040	-0.000080	0.486763	-10.452027	-179.001972
53301	2.378961	0.121188	12.843430	-0.009733	-0.012052	3.249762	1.000000	0.000007	0.000038	-0.000064	0.487153	-10.452764	-178.999137
53302	2.377710	0.079270	12.878168	-0.003206	0.030337	3.283345	1.000000	-0.000001	0.000067	-0.000072	0.487073	-10.450223	-178.999571
53303	2.373136	0.128137	12.903332	0.006607	-0.018196	3.307671	1.000000	0.000007	0.000038	-0.000064	0.487207	-10.451127	-178.990337
53304	2.400674	0.101724	12.887724	-0.023662	0.007680	3.297095	1.000000	0.000007	0.000041	-0.000056	0.487716	-10.451606	-178.988958
53305	2.370898	0.128925	12.903736	0.008977	-0.018792	3.307669	1.000000	-0.000005	0.000051	-0.000066	0.487224	-10.450734	-178.994204
53306	2.355281	0.089696	12.907274	0.024295	0.020748	3.307987	1.000000	0.000005	0.000033	-0.000078	0.487977	-10.452082	-178.995393
53307	2.375850	0.096428	12.897888	0.002709	0.013574	3.302543	1.000000	-0.000004	0.000042	-0.000071	0.487461	-10.452514	-178.994253
53308	2.396307	0.103244	12.888525	-0.018893	0.006414	3.297103	1.000000	0.000015	0.000042	-0.000058	0.488900	-10.452868	-178.993062
53309	2.377275	0.112547	12.917005	0.005030	-0.002156	3.321737	1.000000	-0.000007	0.000056	-0.000076	0.488124	-10.451492	-178.995248
53310	2.357476	0.100108	12.867414	0.015061	0.009772	3.269274	1.000000	-0.000013	0.000050	-0.000065	0.486524	-10.450858	-178.994829
53311	2.370840	0.097691	12.898800	0.007443	0.012304	3.302543	1.000000	0.000013	0.000046	-0.000067	0.487921	-10.450566	-178.997646
53312	2.380473	0.122603	12.876971	-0.005414	-0.012793	3.283032	1.000000	0.000006	0.000036	-0.000071	0.488595	-10.451625	-178.997979
53313	2.372502	0.113867	12.917871	0.009804	-0.003456	3.321734	1.000000	-0.000003	0.000044	-0.000064	0.487936	-10.451723	-178.995206
53314	2.389106	0.105329	12.889845	-0.011761	0.004458	3.297113	1.000000	0.000005	0.000045	-0.000066	0.488361	-10.451665	-178.994924
53315	2.355471	0.117345	12.887145	0.020944	-0.006992	3.288459	1.000000	0.000002	0.000050	-0.000075	0.488399	-10.450934	-178.992295
53316	2.382953	0.090748	12.871591	-0.009380	0.018840	3.277924	1.000000	-0.000012	0.000038	-0.000077	0.487131	-10.451707	-178.993349
53317	2.389366	0.121380	12.909178	-0.008197	-0.011698	3.316306	1.000000	-0.000002	0.000047	-0.000057	0.486399	-10.451608	-178.988905
53318	2.384380	0.106456	12.890710	-0.006985	0.003075	3.297116	1.000000	0.000002	0.000047	-0.000083	0.486821	-10.451303	-178.990575
53319	2.394037	0.088828	12.903405	-0.014575	0.020609	3.311204	1.000000	-0.000003	0.000044	-0.000064	0.486048	-10.451234	-178.987419
53320	2.378362	0.091892	12.872432	-0.004620	0.017467	3.277928	1.000000	0.000007	0.000038	-0.000064	0.486642	-10.452004	-178.986898
53321	2.387981	0.116600	12.850614	-0.017481	-0.007668	3.258425	1.000000	-0.000003	0.000044	-0.000064	0.486046	-10.451987	-178.986510
53322	2.386964	0.074506	12.885323	-0.011015	0.034718	3.292020	1.000000	-0.000002	0.000047	-0.000057	0.485461	-10.451766	-178.985185
53323	2.367929	0.125919	12.879251	0.007701	-0.016512	3.283027	1.000000	-0.000002	0.000034	-0.000069	0.485227	-10.452963	-178.986631
53324	2.395445	0.099346	12.863719	-0.022660	0.009284	3.272521	1.000000	-0.000004	0.000054	-0.000059	0.484475	-10.451915	-178.985546
53325	2.354924	0.102334	12.901679	0.024160	0.007638	3.302526	1.000000	0.000021	0.000035	-0.000082	0.487025	-10.453187	-178.984937
53326	2.393218	0.100472	12.864124	-0.020237	0.008626	3.272526	1.000000	-0.000002	0.000047	-0.000057	0.486441	-10.452967	-178.983613
53327	2.370430	0.094269	12.873878	0.003730	0.015223	3.277931	1.000000	-0.000005	0.000049	-0.000074	0.485941	-10.452448	-178.987509
53328	2.372890	0.109838	12.892802	0.004945	-0.000192	3.297118	1.000000	0.000006	0.000048	-0.000058	0.486287	-10.452101	-178.986372
53329	2.378534	0.119464	12.852340	-0.007908	-0.010214	3.258432	1.000000	0.000011	0.000054	-0.000070	0.487491	-10.451097	-178.987774
53330	2.391838	0.117194	12.883754	-0.015449	-0.007732	3.291718	1.000000	-0.000003	0.000044	-0.000064	0.486992	-10.451167	-178.987307
53331	2.379931	0.093151	12.905983	-0.000267	0.016773	3.311217	1.000000	0.000002	0.000050	-0.000075	0.487420	-10.450429	-178.992345
53332	2.374888	0.120446	12.853005	-0.004363	-0.011152	3.258433	1.000000	-0.000012	0.000038	-0.000077	0.486159	-10.451205	-178.993403
53333	2.377677	0.093524	12.906396	0.002060	0.016113	3.311218	1.000000	-0.000002	0.000047	-0.000057	0.485488	-10.450713	-178.994602
53334	2.372677	0.120924	12.853409	-0.002039	-0.011810	3.258433	1.000000	0.000007	0.000038	-0.000064	0.486086	-10.451483	-178.994082
53335	2.375482	0.094325	12.906795	0.004414	0.015448	3.311218	1.000000	0.000005	0.000045	-0.000066	0.486398	-10.451273	-178.994535
53336	2.374422	0.094573	12.906988	0.005608	0.015129	3.311218	1.000000	-0.000009	0.000036	-0.000060	0.485139	-10.452297	-178.993641
53337	2.394833	0.101360	12.897690	-0.015946	0.007896	3.305833	1.000000	0.000010	0.000051	-0.000077	0.486455	-10.451734	-178.994624
53338	2.389910	0.086531	12.879219	-0.014810	0.022677	3.286652	1.000000	-0.000003	0.000044	-0.000064	0.485957	-10.451804	-178.994157
53339	2.338516	0.106961	12.904626	0.040761	0.003228	3.302487	1.000000	-0.000011	0.000041	-0.000070	0.484639	-10.452195	-178.997016
53340	2.391550	0.102207	12.898292	-0.012384	0.006938	3.305837	1.000000	0.000009	0.000031	-0.000062	0.485406	-10.453791	-178.996257
53341	2.394085	0.117814	12.917199	-0.011131	-0.008534	3.325020	1.000000	-0.000007	0.000056	-0.000076	0.484449	-10.452441	-178.995355
53342	2.385364	0.087371	12.880056	-0.010080	0.021353	3.286659	1.000000	-0.000013	0.000050	-0.000065	0.482855	-10.451813	-178.994943
53343	2.351741	0.098953	12.877270	0.022656	0.010068	3.277917	1.000000	-0.000004	0.000042	-0.000071	0.482337	-10.452114	-178.995380
53344	2.390462	0.118272	12.917866	-0.007549	-0.009521	3.325022	1.000000	-0.000001	0.000037	-0.000062	0.482009	-10.453012	-178.994674
53345	2.396388	0.127756	12.877371	-0.020414	-0.019637	3.286354	1.000000	0.000005	0.000045	-0.000066	0.482111	-10.453040	-178.988801
53346	2.373890	0.079412	12.921565	0.008777	0.029695	3.325331	1.000000	0.000005	0.000045	-0.000066	0.482544	-10.452984	-178.988523
53347	2.372491	0.122061	12.887286	0.004803	-0.013281	3.291722	1.000000	-0.000003	0.000044	-0.000064	0.482246	-10.453259	-178.989868
53348	2.364005	0.092075	12.850098	0.005805	0.016615	3.253364	1.000000	0.000021	0.000047	-0.000069	0.484538	-10.452948	-178.989963
53349	2.395616	0.102606	12.931411	-0.010317	0.006743	3.339147	1.000000	-0.000005	0.000036	-0.000086	0.484406	-10.453698	-178.997327
53350	2.376500	0.090166	12.881675	-0.000542	0.018766	3.286667	1.000000	-0.000009	0.000036	-0.000060	0.483151	-10.454724	-178.996435
53351	2.364563	0.108225	12.869359	0.009404	0.000569	3.272541	1.000000	-0.000003	0.000044	-0.000064	0.482618	-10.454658	-178.998075
53352	2.377904	0.105798	12.900786	0.001921	0.003011	3.305845	1.000000	-0.000002	0.000047	-0.000057	0.482039	-10.454440	-178.996755
53353	2.398170	0.112490	12.891546	-0.019698	-0.004258	3.300490	1.000000	-0.000005	0.000051	-0.000066	0.481455	-10.453528	-179.000744
53354	2.386295	0.088415	12.913753	-0.004512	0.020255	3.319974	1.000000	0.000004	0.000043	-0.000073	0.481975	-10.453762	-179.001323
53355	2.392318	0.098145	12.873249	-0.017415	0.010162	3.281317	1.000000	0.000013	0.000034	-0.000080	0.483479	-10.455039	-178.999933
53356	2.373196	0.107252	12.901641	0.006678	0.001707	3.305843	1.000000	-0.000014	0.000057	-0.000067	0.481719	-10.453587	-178.999765
53357	2.396992	0.129101	12.911129	-0.014764	-0.020778	3.319671	1.000000	-0.000002	0.000047	-0.000057	0.480806	-10.453401	-178.993844
53358	2.370655	0.107770	12.902103	0.009077	0.000995	3.305842	1.000000	0.000012	0.000044	-0.000075	0.482255	-10.453507	-178.994610
53359	2.369566	0.108228	12.902300	0.010258	0.000675	3.305841	1.000000	-0.000000	0.000040	-0.000055	0.481840	-10.454055	-178.994704
53360	2.364951	0.093320	12.883778	0.011313	0.015469	3.286666	1.000000	0.000007	0.000038	-0.000064	0.482445	-10.454826	-178.994187
53361	2.381979	0.106315	12.933900	0.004005	0.002708	3.339152	1.000000	-0.000003	0.000044	-0.000064	0.481629	-10.454925	-178.989319
53362	2.384259	0.100522	12.874726	-0.009070	0.007766	3.281327	1.000000	0.000005	0.000045	-0.000066	0.482065	-10.454871	-178.989043
53363	2.365158	0.109726	12.903096	0.015022	-0.000675	3.305837	1.000000	0.000004	0.000043	-0.000073	0.482563	-10.454992	-178.991713
53364	2.382061	0.101233	12.875127	-0.006711	0.007120	3.281329	1.000000	-0.000012	0.000038	-0.000077	0.481313	-10.455775	-178.992778
53365	2.380958	0.101370	12.875330	-0.005491	0.006785	3.281330	1.000000	-0.000002	0.000047	-0.000057	0.480665	-10.455678	-178.989669
53366	2.361858	0.110671	12.903692	0.018637	-0.001642	3.305832	1.000000	0.000022	0.000040	-0.000067	0.483129	-10.456192	-178.989525
53367	2.393167	0.099758	12.906973	-0.011742	0.008861	3.314648	1.000000	-0.000013	0.000048	-0.000072	0.481567	-10.455861	-178.989908
53368	2.377560	0.102616	12.875948	-0.001913	0.005813	3.281331	1.000000	0.000007	0.000038	-0.000064	0.482174	-10.456632	-178.989392
53369	2.347611	0.129712	12.891767	0.030993	-0.020484	3.291677	1.000000	0.000004	0.000043	-0.000073	0.482539	-10.456700	-178.990824
53370	2.407836	0.092083	12.879428	-0.031142	0.015959	3.290159	1.000000	-0.000003	0.000044	-0.000064	0.482049	-10.456775	-178.990363
53371	2.356239	0.112396	12.904704	0.024598	-0.003301	3.305822	1.000000	-0.000003	0.000044	-0.000064	0.481442	-10.456933	-178.987885
53372	2.373013	0.103884	12.876777	0.002839	0.004475	3.281331	1.000000	-0.000005	0.000049	-0.000074	0.480869	-10.456472	-178.988521
53373	2.386170	0.101586	12.908255	-0.004574	0.006888	3.314654	1.000000	0.000003	0.000052	-0.000068	0.481202	-10.455654	-178.989372
53374	2.370441	0.104726	12.877243	0.005238	0.003853	3.281331	1.000000	0.000012	0.000044	-0.000075	0.482657	-10.455762	-178.990140
53375	2.394414	0.127018	12.886722	-0.016136	-0.018633	3.295186	1.000000	-0.000003	0.000042	-0.000072	0.482192	-10.456133	-178.990306
53376	2.357500	0.080972	12.899628	0.021578	0.028070	3.300798	1.000000	-0.000005	0.000051	-0.000066	0.481534	-10.455383	-178.990087
53377	2.377413	0.130150	12.855944	-0.005120	-0.021991	3.261861	1.000000	0.000003	0.000050	-0.000075	0.481862	-10.454846	-178.990441
53378	2.398078	0.094738	12.881229	-0.021558	0.013344	3.290181	1.000000	-0.000003	0.000042	-0.000072	0.481461	-10.455212	-178.990838
53379	2.379165	0.103745	12.909530	0.002571	0.004912	3.314655	1.000000	0.000000	0.000027	-0.000067	0.481245	-10.457045	-178.992004
53380	2.353149	0.082279	12.900414	0.026315	0.026763	3.300793	1.000000	0.000005	0.000045	-0.000066	0.481686	-10.456992	-178.991730
53381	2.377007	0.104571	12.909921	0.004959	0.004283	3.314655	1.000000	0.000002	0.000047	-0.000083	0.482173	-10.456679	-178.994999
53382	2.393915	0.096325	12.881992	-0.016833	0.012032	3.290190	1.000000	0.000007	0.000038	-0.000064	0.482784	-10.457451	-178.994484
53383	2.374722	0.105368	12.910335	0.007343	0.003649	3.314654	1.000000	-0.000005	0.000051	-0.000066	0.482148	-10.456669	-178.995617
53384	2.380523	0.114839	12.869903	-0.005634	-0.006424	3.276026	1.000000	0.000006	0.000048	-0.000059	0.482503	-10.456325	-178.994487
53385	2.372306	0.106126	12.910773	0.009716	0.003011	3.314653	1.000000	0.000007	0.000038	-0.000064	0.483116	-10.457015	-178.995883
53386	2.389303	0.097793	12.882837	-0.012089	0.010753	3.290196	1.000000	-0.000003	0.000042	-0.000072	0.482717	-10.457382	-178.996282
53387	2.377572	0.073692	12.904997	0.003082	0.035273	3.309659	1.000000	0.000005	0.000045	-0.000066	0.482977	-10.457512	-178.991792
53388	2.390443	0.113756	12.901981	-0.009415	-0.005055	3.309362	1.000000	-0.000005	0.000049	-0.000074	0.482410	-10.457054	-178.992432
53389	2.385816	0.098819	12.883475	-0.008432	0.009678	3.290200	1.000000	0.000007	0.000038	-0.000064	0.482705	-10.457990	-178.986166
53390	2.370248	0.101944	12.852421	0.001336	0.006675	3.256863	1.000000	0.000013	0.000049	-0.000060	0.483990	-10.457517	-178.985222
53391	2.394357	0.081945	12.896460	-0.014868	0.026826	3.304378	1.000000	-0.000005	0.000049	-0.000074	0.483343	-10.457101	-178.984991
53392	2.385633	0.115406	12.902857	-0.004579	-0.006427	3.309364	1.000000	0.000006	0.000048	-0.000059	0.483699	-10.456759	-178.983862
53393	2.381114	0.100485	12.884332	-0.003661	0.008391	3.290203	1.000000	-0.000002	0.000032	-0.000077	0.483608	-10.458192	-178.987060
53394	2.362071	0.109551	12.912621	0.020560	0.000034	3.314641	1.000000	0.000004	0.000043	-0.000073	0.484141	-10.458431	-178.987645
53395	2.368008	0.119161	12.872172	0.007586	-0.010062	3.276022	1.000000	0.000006	0.000048	-0.000059	0.484437	-10.458199	-178.984853
53396	2.381094	0.117018	12.903681	0.000222	-0.007709	3.309364	1.000000	0.000000	0.000054	-0.000085	0.484719	-10.457078	-178.986778
53397	2.376377	0.102057	12.885194	0.001149	0.007127	3.290204	1.000000	-0.000003	0.000042	-0.000072	0.484442	-10.457502	-178.988520
53398	2.342748	0.113417	12.882237	0.033937	-0.003886	3.281288	1.000000	-0.000014	0.000045	-0.000079	0.483037	-10.457468	-178.989834
53399	2.374180	0.102563	12.885595	0.003461	0.006466	3.290204	1.000000	0.000014	0.000037	-0.000073	0.484574	-10.458073	-178.994631
53400	2.405613	0.091926	12.888958	-0.026941	0.016835	3.299126	1.000000	0.000005	0.000045	-0.000066	0.485020	-10.458021	-178.994360
53401	2.375317	0.118863	12.904729	0.006151	-0.009337	3.309361	1.000000	0.000003	0.000050	-0.000075	0.485228	-10.457464	-178.993522
53402	2.356289	0.106347	12.854952	0.015591	0.002816	3.256856	1.000000	-0.000011	0.000040	-0.000070	0.483905	-10.457965	-178.993738
53403	2.405613	0.108161	12.908309	-0.023049	0.000731	3.318291	1.000000	0.000007	0.000038	-0.000064	0.484664	-10.458752	-178.995339
53404	2.379577	0.086483	12.899166	0.000595	0.022658	3.304394	1.000000	-0.000011	0.000043	-0.000063	0.483253	-10.458963	-178.994700
53405	2.378150	0.086660	12.899428	0.001786	0.022308	3.304395	1.000000	-0.000001	0.000067	-0.000072	0.483055	-10.456429	-178.994341
53406	2.387609	0.111599	12.877694	-0.010929	-0.002920	3.284946	1.000000	0.000009	0.000018	-0.000074	0.484189	-10.459435	-178.995060
53407	2.361686	0.089939	12.868523	0.012690	0.019010	3.271044	1.000000	-0.000015	0.000055	-0.000074	0.482489	-10.458243	-178.996562
53408	2.388813	0.127291	12.896820	-0.008228	-0.018704	3.304103	1.000000	-0.000003	0.000042	-0.000072	0.482098	-10.458614	-178.996965
53409	2.362703	0.105575	12.887680	0.015377	0.003222	3.290197	1.000000	-0.000002	0.000047	-0.000057	0.481441	-10.458319	-178.996447
53410	2.386379	0.127733	12.897266	-0.005852	-0.019365	3.304103	1.000000	-0.000005	0.000051	-0.000066	0.480791	-10.457574	-178.996235
53411	2.381709	0.112757	12.878776	-0.005012	-0.004552	3.284949	1.000000	0.000005	0.000045	-0.000066	0.481235	-10.457411	-178.998048
53412	2.358998	0.106421	12.888352	0.018932	0.002268	3.290192	1.000000	0.000001	0.000045	-0.000040	0.480658	-10.457443	-178.994782
53413	2.382742	0.128711	12.897929	-0.002246	-0.020343	3.304103	1.000000	0.000002	0.000047	-0.000083	0.481045	-10.457312	-178.993920
53414	2.385762	0.080646	12.873268	-0.010591	0.027383	3.280002	1.000000	-0.000003	0.000042	-0.000072	0.480656	-10.457684	-178.994324
53415	2.380426	0.129515	12.898348	-0.001565	-0.021023	3.304102	1.000000	0.000013	0.000046	-0.000067	0.482004	-10.449886	-178.932841
53416	2.375885	0.114669	12.879835	-0.000737	-0.006203	3.284949	1.000000	-0.000003	0.000041	-0.000072	0.481620	-10.450238	-178.933244
53417	2.385642	0.097184	12.892631	-0.008425	0.011193	3.299157	1.000000	0.000003	0.000052	-0.000068	0.481706	-10.449345	-178.929654
53418	2.387752	0.112910	12.911585	-0.006862	-0.004262	3.318309	1.000000	0.000005	0.000045	-0.000066	0.482163	-10.449274	-178.929385
53419	2.364969	0.106662	12.921159	0.017084	0.002570	3.323542	1.000000	0.000003	0.000050	-0.000075	0.482369	-10.448732	-178.926091
53420	2.378547	0.082970	12.874588	-0.005226	0.025341	3.280010	1.000000	-0.000011	0.000043	-0.000063	0.480968	-10.448925	-178.925454
53421	2.369848	0.116543	12.880930	0.005263	-0.007889	3.284947	1.000000	0.000023	0.000040	-0.000067	0.483346	-10.449551	-178.921177
53422	2.394010	0.096674	12.925023	-0.010930	0.012153	3.332524	1.000000	-0.000012	0.000050	-0.000065	0.481777	-10.448920	-178.920783
53423	2.378368	0.099281	12.893959	-0.001204	0.009235	3.299161	1.000000	-0.000005	0.000049	-0.000074	0.481258	-10.448626	-178.919685
53424	2.398776	0.106329	12.884826	-0.022749	0.001713	3.293939	1.000000	0.000007	0.000038	-0.000064	0.481886	-10.449380	-178.919175
53425	2.387156	0.082186	12.906940	-0.007714	0.026319	3.313379	1.000000	-0.000003	0.000044	-0.000064	0.481297	-10.449455	-178.916851
53426	2.364021	0.118024	12.881988	0.011260	-0.009483	3.284943	1.000000	-0.000003	0.000044	-0.000064	0.480827	-10.449518	-178.916399
53427	2.373972	0.100372	12.894760	0.003561	0.007934	3.299162	1.000000	-0.000009	0.000036	-0.000061	0.479560	-10.450554	-178.915533
53428	2.397769	0.122849	12.904350	-0.017566	-0.014741	3.313093	1.000000	0.000021	0.000048	-0.000069	0.481877	-10.450220	-178.915633
53429	2.357089	0.103712	12.863912	0.014436	0.004679	3.265792	1.000000	-0.000016	0.000064	-0.000069	0.479837	-10.448020	-178.912167
53430	2.388294	0.092827	12.867413	-0.016006	0.014876	3.274803	1.000000	0.000007	0.000038	-0.000064	0.480468	-10.448775	-178.911658
53431	2.393975	0.123934	12.905044	-0.013943	-0.015718	3.313096	1.000000	0.000003	0.000037	-0.000088	0.481242	-10.449675	-178.914164
53432	2.368069	0.102288	12.895830	0.009550	0.006338	3.299159	1.000000	-0.000003	0.000041	-0.000072	0.480865	-10.450030	-178.914571
53433	2.355967	0.120438	12.883441	0.019653	-0.011759	3.284931	1.000000	0.000005	0.000043	-0.000073	0.481181	-10.450295	-178.909839
53434	2.365763	0.103091	12.896247	0.011940	0.005656	3.299158	1.000000	0.000003	0.000050	-0.000075	0.481562	-10.449693	-178.910673
53435	2.386169	0.110170	12.887134	-0.009589	-0.001906	3.293955	1.000000	-0.000001	0.000037	-0.000062	0.481235	-10.450616	-178.909655
53436	2.374536	0.086220	12.909242	0.005423	0.022746	3.313387	1.000000	0.000021	0.000048	-0.000069	0.483554	-10.450282	-178.909755
53437	2.351358	0.122347	12.884265	0.024437	-0.013021	3.284922	1.000000	-0.000003	0.000041	-0.000072	0.483161	-10.450683	-178.909922
53438	2.390457	0.078443	12.881621	-0.015370	0.030007	3.289048	1.000000	-0.000002	0.000047	-0.000057	0.482603	-10.450456	-178.908615
53439	2.403082	0.118506	12.878665	-0.027580	-0.010407	3.288763	1.000000	-0.000006	0.000046	-0.000081	0.482245	-10.450116	-178.917449
53440	2.355515	0.090048	12.878774	0.018603	0.018926	3.280008	1.000000	0.000005	0.000045	-0.000066	0.482708	-10.450047	-178.917183
53441	2.379312	0.112475	12.888382	-0.002495	-0.003799	3.293958	1.000000	-0.000001	0.000034	-0.000070	0.482470	-10.451127	-178.920124
53442	2.389335	0.094974	12.901161	-0.010214	0.013602	3.308197	1.000000	-0.000003	0.000041	-0.000072	0.482095	-10.451483	-178.920533
53443	2.388144	0.095318	12.901379	-0.009021	0.013257	3.308198	1.000000	0.000003	0.000050	-0.000075	0.482359	-10.450898	-178.919550
53444	2.351095	0.091249	12.879573	0.023330	0.017637	3.280002	1.000000	-0.000011	0.000043	-0.000063	0.480965	-10.451095	-178.918918
53445	2.393256	0.104946	12.861139	-0.020939	0.002787	3.269634	1.000000	0.000000	0.000027	-0.000067	0.480915	-10.453061	-178.920544
53446	2.374004	0.113982	12.889347	0.003454	-0.005412	3.293957	1.000000	0.000013	0.000049	-0.000060	0.482216	-10.452568	-178.919604
53447	2.380590	0.081457	12.883430	-0.004761	0.027110	3.289063	1.000000	0.000004	0.000040	-0.000081	0.482767	-10.453057	-178.920741
53448	2.371756	0.114797	12.889754	0.005831	-0.006065	3.293956	1.000000	-0.000011	0.000043	-0.000063	0.481374	-10.453255	-178.920110
53449	2.370638	0.115042	12.889958	0.007047	-0.006378	3.293955	1.000000	0.000005	0.000043	-0.000073	0.481943	-10.453590	-178.919614
53450	2.380564	0.097638	12.902762	-0.000680	0.011012	3.308203	1.000000	-0.000003	0.000041	-0.000072	0.481571	-10.453947	-178.920024
53451	2.400954	0.104873	12.893681	-0.022194	0.003391	3.303031	1.000000	0.000013	0.000046	-0.000067	0.482880	-10.453817	-178.917691
53452	2.367083	0.116272	12.890600	0.010638	-0.007342	3.293952	1.000000	-0.000004	0.000054	-0.000059	0.482154	-10.452768	-178.916630
53453	2.373509	0.083277	12.884725	0.002398	0.025200	3.289067	1.000000	-0.000012	0.000050	-0.000065	0.480612	-10.452145	-178.917813
53454	2.375631	0.098737	12.903663	0.004097	0.009731	3.308203	1.000000	-0.000004	0.000036	-0.000086	0.480426	-10.453086	-178.919939
53455	2.363531	0.116866	12.891246	0.014200	-0.008265	3.293948	1.000000	0.000005	0.000045	-0.000066	0.480973	-10.452971	-178.923807
53456	2.359126	0.101887	12.872724	0.014872	0.006574	3.274811	1.000000	-0.000003	0.000044	-0.000064	0.480511	-10.453037	-178.923361
53457	2.361107	0.117525	12.891684	0.016601	-0.008949	3.293945	1.000000	0.000003	0.000052	-0.000068	0.480556	-10.452218	-178.917493
53458	2.370918	0.100103	12.904519	0.008865	0.008430	3.308202	1.000000	-0.000003	0.000041	-0.000072	0.480187	-10.452576	-178.917904
53459	2.388034	0.091927	12.876729	-0.013177	0.015972	3.283911	1.000000	0.000003	0.000050	-0.000075	0.480626	-10.452048	-178.919212
53460	2.368582	0.100692	12.904943	0.011262	0.007810	3.308200	1.000000	-0.000012	0.000038	-0.000077	0.479422	-10.452832	-178.920299
53461	2.389096	0.107985	12.895858	-0.010276	0.000164	3.303047	1.000000	0.000023	0.000040	-0.000067	0.481842	-10.453265	-178.921018
53462	2.398408	0.132990	12.874187	-0.022868	-0.025157	3.283632	1.000000	-0.000012	0.000050	-0.000065	0.480282	-10.452643	-178.920634
53463	2.383383	0.093207	12.877581	-0.008446	0.014691	3.283916	1.000000	-0.000005	0.000051	-0.000066	0.479681	-10.451858	-178.922660
53464	2.374341	0.126501	12.883919	0.002224	-0.018467	3.288783	1.000000	-0.000003	0.000041	-0.000072	0.479314	-10.452217	-178.923073
53465	2.373735	0.084331	12.918633	0.008259	0.023908	3.322462	1.000000	-0.000013	0.000047	-0.000072	0.477856	-10.451873	-178.924859
53466	2.390333	0.118374	12.856351	-0.018666	-0.011266	3.264506	1.000000	0.000005	0.000043	-0.000073	0.478419	-10.452097	-178.925455
53467	2.367686	0.112016	12.865811	0.005244	-0.004208	3.269650	1.000000	0.000005	0.000043	-0.000073	0.479191	-10.452364	-178.930234
53468	2.399156	0.101355	12.869381	-0.025216	0.005825	3.278780	1.000000	-0.000010	0.000043	-0.000063	0.477804	-10.452566	-178.929607
53469	2.393858	0.107768	12.928952	-0.009102	0.000211	3.336452	1.000000	0.000014	0.000049	-0.000060	0.479161	-10.452144	-178.929080
53470	2.375295	0.095416	12.879060	-0.000112	0.012534	3.283921	1.000000	0.000007	0.000038	-0.000064	0.479803	-10.452900	-178.928575
53471	2.377321	0.111095	12.898007	0.001628	-0.002996	3.303050	1.000000	-0.000008	0.000051	-0.000091	0.479042	-10.452095	-178.930148
53472	2.372906	0.096000	12.879496	0.002241	0.011847	3.283921	1.000000	-0.000003	0.000044	-0.000064	0.478585	-10.452163	-178.929705
53473	2.371759	0.096237	12.879705	0.003460	0.011498	3.283921	1.000000	-0.000003	0.000044	-0.000064	0.477974	-10.452375	-178.923873
53474	2.373783	0.111800	12.898652	0.005236	-0.003978	3.303049	1.000000	-0.000003	0.000044	-0.000064	0.477517	-10.452443	-178.923430
53475	2.394215	0.118793	12.889612	-0.016297	-0.011662	3.297922	1.000000	-0.000011	0.000040	-0.000070	0.476162	-10.452873	-178.924999
53476	2.350030	0.105337	12.908298	0.030312	0.002731	3.308172	1.000000	0.000005	0.000045	-0.000066	0.476634	-10.452807	-178.924738
53477	2.370290	0.112617	12.899288	0.008774	-0.004962	3.303047	1.000000	0.000003	0.000052	-0.000068	0.476842	-10.451824	-178.926403
53478	2.401661	0.102087	12.902906	-0.021689	0.005024	3.312208	1.000000	-0.000003	0.000041	-0.000072	0.476480	-10.452184	-178.926818
53479	2.367884	0.113395	12.899723	0.011155	-0.005614	3.303045	1.000000	0.000014	0.000049	-0.000060	0.477693	-10.451680	-178.925345
53480	2.366655	0.113935	12.899944	0.012347	-0.005929	3.303043	1.000000	0.000005	0.000045	-0.000066	0.478165	-10.451613	-178.925085
53481	2.398122	0.103437	12.903554	-0.018145	0.004012	3.312214	1.000000	-0.000003	0.000041	-0.000072	0.477664	-10.451856	-178.926965
53482	2.364311	0.114514	12.900368	0.014703	-0.006592	3.303041	1.000000	-0.000005	0.000051	-0.000067	0.477037	-10.451102	-178.926766
53483	2.359808	0.099592	12.881875	0.015287	0.008229	3.283915	1.000000	0.000011	0.000054	-0.000070	0.478138	-10.450132	-178.924245
53484	2.394259	0.104616	12.904261	-0.014558	0.003025	3.312219	1.000000	0.000005	0.000045	-0.000066	0.478611	-10.450066	-178.923985
53485	2.379112	0.107390	12.873053	-0.005045	0.000218	3.278805	1.000000	0.000001	0.000027	-0.000067	0.478591	-10.452053	-178.925452
53486	2.356683	0.100806	12.882437	0.018847	0.007286	3.283911	1.000000	-0.000003	0.000041	-0.000072	0.478231	-10.452415	-178.925869
53487	2.409770	0.097342	12.876829	-0.034282	0.009809	3.287997	1.000000	0.000015	0.000039	-0.000065	0.479651	-10.453238	-178.918969
53488	2.379181	0.124068	12.892346	-0.000791	-0.015932	3.297927	1.000000	0.000005	0.000045	-0.000066	0.480126	-10.453172	-178.918710
53489	2.386026	0.091280	12.886453	-0.009243	0.016536	3.293103	1.000000	-0.000011	0.000040	-0.000070	0.478722	-10.453494	-178.922365
53490	2.341223	0.120043	12.870581	0.032567	-0.011672	3.269606	1.000000	0.000005	0.000045	-0.000066	0.479196	-10.453429	-178.922106
53491	2.397879	0.089498	12.918268	-0.015166	0.018407	3.326526	1.000000	-0.000005	0.000049	-0.000074	0.478802	-10.453020	-178.924806
53492	2.371213	0.109746	12.874490	0.003294	-0.002027	3.278805	1.000000	-0.000003	0.000059	-0.000045	0.477892	-10.451392	-178.922036
53493	2.381056	0.092265	12.887365	-0.004477	0.015302	3.293107	1.000000	-0.000004	0.000036	-0.000086	0.477748	-10.452349	-178.925141
53494	2.383027	0.107748	12.906315	-0.002627	-0.000183	3.312227	1.000000	-0.000012	0.000050	-0.000065	0.476196	-10.451733	-178.924764
53495	2.395350	0.147905	12.903427	-0.014486	-0.040733	3.311952	1.000000	0.000008	0.000043	-0.000049	0.476577	-10.451975	-178.920395
53496	2.377476	0.093057	12.888020	-0.000898	0.014334	3.293109	1.000000	0.000003	0.000052	-0.000068	0.476881	-10.451088	-178.920381
53497	2.368253	0.126422	12.894335	0.009920	-0.018761	3.297920	1.000000	-0.000003	0.000041	-0.000072	0.476636	-10.451410	-178.924180
53498	2.367686	0.084351	12.929058	0.015875	0.023607	3.331619	1.000000	-0.000004	0.000051	-0.000067	0.476013	-10.450658	-178.923984
53499	2.384178	0.118548	12.866854	-0.011050	-0.011648	3.273719	1.000000	0.000003	0.000050	-0.000075	0.476390	-10.450153	-178.922920
53500	2.389801	0.107385	12.939060	-0.003735	0.000376	3.345654	1.000000	0.000004	0.000040	-0.000081	0.477060	-10.450672	-178.924378
53501	2.360344	0.112440	12.876464	0.014028	-0.004904	3.278797	1.000000	-0.000002	0.000047	-0.000057	0.476292	-10.450461	-178.920234
53502	2.370289	0.094991	12.889329	0.006244	0.012407	3.293110	1.000000	-0.000003	0.000041	-0.000072	0.475938	-10.450826	-178.920654
53503	2.404865	0.100046	12.911746	-0.023545	0.007106	3.321465	1.000000	0.000013	0.000044	-0.000075	0.477427	-10.450890	-178.922520
53504	2.356953	0.113496	12.877076	0.017590	-0.005849	3.278793	1.000000	-0.000010	0.000043	-0.000063	0.476048	-10.451099	-178.921901
53505	2.366902	0.096051	12.889944	0.009826	0.011441	3.293108	1.000000	0.000005	0.000045	-0.000066	0.476449	-10.451134	-178.918835
53506	2.387304	0.103345	12.880966	-0.011678	0.003681	3.288039	1.000000	-0.000003	0.000041	-0.000072	0.476096	-10.451499	-178.919256
53507	2.375075	0.121379	12.868511	-0.001517	-0.014264	3.273721	1.000000	0.000005	0.000045	-0.000066	0.476528	-10.451402	-178.920174
53508	2.366541	0.112336	12.909309	0.014100	-0.004689	3.312219	1.000000	-0.000010	0.000043	-0.000063	0.475151	-10.451612	-178.919556
53509	2.405504	0.111151	12.872399	-0.030801	-0.004733	3.282980	1.000000	0.000007	0.000038	-0.000064	0.475813	-10.452406	-178.918851
53510	2.353414	0.130544	12.897010	0.025475	-0.022929	3.297892	1.000000	-0.000009	0.000036	-0.000061	0.474609	-10.453439	-178.917990
53511	2.389970	0.071718	12.875873	-0.015438	0.034867	3.283257	1.000000	0.000003	0.000050	-0.000075	0.474998	-10.452858	-178.919119
53512	2.372615	0.138197	12.888256	0.005176	-0.031020	3.292829	1.000000	0.000005	0.000043	-0.000073	0.475575	-10.453087	-178.919721
53513	2.361185	0.113952	12.910275	0.020089	-0.006277	3.312210	1.000000	-0.000001	0.000034	-0.000070	0.475335	-10.454342	-178.917876
53514	2.400197	0.112804	12.873375	-0.024833	-0.006351	3.282992	1.000000	-0.000003	0.000044	-0.000064	0.474887	-10.454416	-178.917439
53515	2.366427	0.123861	12.870080	0.008020	-0.016844	3.273715	1.000000	0.000005	0.000043	-0.000073	0.475292	-10.454587	-178.917513
53516	2.357878	0.115030	12.910870	0.023655	-0.007258	3.312204	1.000000	0.000005	0.000045	-0.000066	0.475773	-10.454523	-178.917258
53517	2.396727	0.113961	12.874012	-0.021314	-0.007364	3.282997	1.000000	-0.000002	0.000047	-0.000057	0.475157	-10.454136	-178.919372
53518	2.352522	0.100254	12.892544	0.025248	0.007273	3.293091	1.000000	-0.000003	0.000041	-0.000072	0.474808	-10.454502	-178.919794
53519	2.364885	0.140713	12.889650	0.013500	-0.033304	3.292818	1.000000	0.000015	0.000039	-0.000065	0.476365	-10.455128	-178.919390
53520	2.382996	0.090506	12.896450	-0.004050	0.016754	3.302380	1.000000	-0.000002	0.000047	-0.000057	0.475822	-10.454911	-178.918097
53521	2.367596	0.093132	12.865260	0.005340	0.014000	3.268937	1.000000	0.000003	0.000052	-0.000068	0.476051	-10.453901	-178.920526
53522	2.404850	0.113450	12.906536	-0.023617	-0.006567	3.316450	1.000000	-0.000004	0.000054	-0.000059	0.475336	-10.452861	-178.919477
53523	2.379107	0.091234	12.897163	-0.000504	0.015766	3.302382	1.000000	-0.000011	0.000040	-0.000070	0.473978	-10.453398	-178.918608
53524	2.366842	0.109348	12.884692	0.009680	-0.002143	3.288041	1.000000	0.000021	0.000048	-0.000069	0.476319	-10.453059	-178.918714
53525	2.365681	0.109911	12.884901	0.010882	-0.002476	3.288040	1.000000	-0.000003	0.000041	-0.000072	0.475888	-10.453474	-178.917734
53526	2.388994	0.132383	12.894725	-0.009827	-0.025473	3.302113	1.000000	-0.000012	0.000050	-0.000065	0.474343	-10.452865	-178.917364
53527	2.374308	0.092587	12.898038	0.004300	0.014500	3.302383	1.000000	0.000006	0.000050	-0.000051	0.474712	-10.452387	-178.912593
53528	2.394549	0.099905	12.889132	-0.017192	0.006675	3.297356	1.000000	-0.000005	0.000049	-0.000074	0.474193	-10.451933	-178.913263
53529	2.374858	0.108607	12.917230	0.007476	-0.001279	3.321486	1.000000	0.000007	0.000038	-0.000064	0.475007	-10.452709	-178.914589
53530	2.359585	0.111131	12.886008	0.016873	-0.003995	3.288034	1.000000	-0.000012	0.000053	-0.000058	0.473365	-10.451809	-178.913362
53531	2.391002	0.100719	12.889784	-0.013648	0.005777	3.297360	1.000000	0.000005	0.000043	-0.000073	0.474046	-10.451915	-178.918346
53532	2.368299	0.094377	12.899130	0.010220	0.012976	3.302381	1.000000	0.000021	0.000048	-0.000069	0.476389	-10.451576	-178.918453
53533	2.378160	0.077167	12.912048	0.002422	0.030224	3.316733	1.000000	-0.000012	0.000050	-0.000065	0.474777	-10.451048	-178.915405
53534	2.357696	0.128036	12.905632	0.022436	-0.020428	3.307128	1.000000	0.000007	0.000038	-0.000064	0.475436	-10.451808	-178.914908
53535	2.407885	0.109570	12.881503	-0.031514	-0.003044	3.292351	1.000000	0.000005	0.000043	-0.000073	0.476000	-10.452187	-178.912058
53536	2.366658	0.111349	12.918711	0.015849	-0.003485	3.321478	1.000000	0.000005	0.000043	-0.000073	0.476586	-10.452417	-178.912664
53537	2.384057	0.103371	12.891050	-0.006457	0.003843	3.297367	1.000000	-0.000005	0.000049	-0.000074	0.476044	-10.451970	-178.913118
53538	2.379963	0.088364	12.872508	-0.006096	0.018710	3.278268	1.000000	0.000008	0.000041	-0.000057	0.476606	-10.452438	-178.911763
53539	2.370577	0.121799	12.878781	0.004940	-0.014381	3.283008	1.000000	0.000003	0.000050	-0.000076	0.476920	-10.451863	-178.911129
53540	2.370190	0.079759	12.913498	0.010777	0.027979	3.316734	1.000000	-0.000011	0.000038	-0.000078	0.475749	-10.452664	-178.912235
53541	2.379478	0.104574	12.891886	-0.001667	0.002551	3.297368	1.000000	-0.000002	0.000047	-0.000057	0.475203	-10.452562	-178.908676
53542	2.378190	0.104890	12.892121	-0.000477	0.002235	3.297368	1.000000	0.000003	0.000052	-0.000068	0.475520	-10.451679	-178.908669
53543	2.358403	0.113443	12.920203	0.024274	-0.005679	3.321465	1.000000	-0.000011	0.000038	-0.000078	0.474500	-10.452659	-178.907708
53544	2.397428	0.112437	12.883429	-0.020727	-0.005920	3.292372	1.000000	0.000006	0.000048	-0.000059	0.474891	-10.452305	-178.906599
53545	2.371835	0.090377	12.873994	0.002248	0.016491	3.278272	1.000000	-0.000003	0.000041	-0.000072	0.474480	-10.452545	-178.910045
53546	2.398178	0.128428	12.902580	-0.017516	-0.021761	3.311471	1.000000	-0.000001	0.000034	-0.000070	0.474314	-10.453738	-178.910228
53547	2.394039	0.113517	12.884049	-0.017203	-0.006888	3.292376	1.000000	0.000009	0.000061	-0.000072	0.475405	-10.451815	-178.913055
53548	2.375753	0.100728	12.834080	-0.008723	0.005616	3.239816	1.000000	-0.000010	0.000043	-0.000063	0.474039	-10.452033	-178.912446
53549	2.388703	0.098620	12.865742	-0.015681	0.007680	3.273284	1.000000	-0.000003	0.000041	-0.000072	0.473776	-10.452451	-178.912764
53550	2.366144	0.091931	12.875030	0.008174	0.014935	3.278271	1.000000	0.000007	0.000038	-0.000064	0.474441	-10.453211	-178.912268
53551	2.367918	0.107762	12.893988	0.010243	-0.000590	3.297365	1.000000	0.000002	0.000047	-0.000083	0.474863	-10.452932	-178.912572
53552	2.388252	0.115183	12.885108	-0.011233	-0.008483	3.292382	1.000000	-0.000002	0.000044	-0.000064	0.474427	-10.453011	-178.912143
53553	2.384215	0.100172	12.866563	-0.010934	0.006414	3.273290	1.000000	0.000005	0.000045	-0.000066	0.475033	-10.452925	-178.914118
53554	2.385851	0.115976	12.885546	-0.008858	-0.009093	3.292383	1.000000	0.000003	0.000050	-0.000076	0.475453	-10.452336	-178.914972
53555	2.374157	0.091714	12.907588	0.005965	0.015690	3.311740	1.000000	0.000003	0.000052	-0.000068	0.475643	-10.451429	-178.914460
53556	2.380299	0.101248	12.867279	-0.007377	0.005434	3.273292	1.000000	-0.000015	0.000052	-0.000082	0.474132	-10.450590	-178.916061
53557	2.379019	0.101359	12.867515	-0.006216	0.005124	3.273293	1.000000	-0.000002	0.000047	-0.000057	0.473628	-10.450260	-178.918178
53558	2.380699	0.117172	12.886488	-0.004125	-0.010384	3.292385	1.000000	0.000013	0.000044	-0.000075	0.475150	-10.450352	-178.918966
53559	2.379645	0.117655	12.886678	-0.002968	-0.010678	3.292385	1.000000	-0.000001	0.000037	-0.000062	0.474991	-10.451109	-178.922992
53560	2.411187	0.107398	12.890525	-0.033473	-0.001057	3.301803	1.000000	-0.000004	0.000051	-0.000067	0.474384	-10.450366	-178.922810
53561	2.377291	0.118133	12.887109	-0.000593	-0.011341	3.292384	1.000000	-0.000003	0.000041	-0.000072	0.473921	-10.450707	-178.922873
53562	2.354545	0.111369	12.896406	0.023261	-0.004053	3.297347	1.000000	0.000003	0.000052	-0.000068	0.474243	-10.449825	-178.922870
53563	2.396351	0.125802	12.878485	-0.020839	-0.019624	3.287422	1.000000	-0.000010	0.000043	-0.000063	0.472693	-10.450179	-178.917778
53564	2.373636	0.118826	12.887776	0.003014	-0.012331	3.292383	1.000000	-0.000005	0.000048	-0.000074	0.472187	-10.449730	-178.918455
53565	2.362124	0.094691	12.909774	0.017864	0.012482	3.311732	1.000000	0.000023	0.000040	-0.000067	0.474648	-10.450373	-178.914584
53566	2.382535	0.102279	12.900907	-0.003606	0.004549	3.306775	1.000000	-0.000013	0.000045	-0.000080	0.473315	-10.450358	-178.915941
53567	2.367240	0.104716	12.869660	0.005678	0.001902	3.273294	1.000000	0.000004	0.000055	-0.000061	0.473534	-10.449137	-178.916210
53568	2.390311	0.127634	12.879589	-0.014851	-0.021232	3.287428	1.000000	0.000005	0.000043	-0.000073	0.474131	-10.449370	-178.916821
53569	2.367708	0.120998	12.888846	0.009009	-0.013944	3.292379	1.000000	0.000004	0.000040	-0.000081	0.474737	-10.449937	-178.916652
53570	2.377697	0.103766	12.901788	0.001156	0.003261	3.306776	1.000000	-0.000004	0.000051	-0.000067	0.474132	-10.449197	-178.916472
53571	2.395249	0.095657	12.874181	-0.021245	0.010475	3.282745	1.000000	-0.000008	0.000038	-0.000053	0.472706	-10.450022	-178.912745
53572	2.382834	0.113683	12.861679	-0.011010	-0.007360	3.268346	1.000000	0.000016	0.000057	-0.000088	0.474915	-10.448625	-178.915063
53573	2.359957	0.106755	12.870981	0.012863	0.000005	3.273289	1.000000	-0.000028	0.000047	-0.000062	0.471709	-10.448442	-178.913494
53574	2.405496	0.094352	12.906362	-0.025737	0.011876	3.316238	1.000000	0.000023	0.000040	-0.000067	0.474237	-10.448922	-178.913358
53575	2.371585	0.105244	12.902900	0.007188	0.001694	3.306774	1.000000	-0.000015	0.000052	-0.000082	0.472741	-10.448222	-178.912548
53576	2.356363	0.107570	12.871633	0.016458	-0.000934	3.273285	1.000000	-0.000002	0.000044	-0.000065	0.472311	-10.448303	-178.912123
53577	2.390677	0.112967	12.894297	-0.013027	-0.006601	3.301838	1.000000	0.000013	0.000046	-0.000068	0.473692	-10.448338	-178.906310
53578	2.400644	0.095740	12.907255	-0.020892	0.010586	3.316248	1.000000	-0.000013	0.000047	-0.000073	0.472263	-10.448033	-178.906812
53579	2.374299	0.115640	12.863240	-0.002576	-0.009479	3.268349	1.000000	-0.000002	0.000044	-0.000065	0.472114	-10.448110	-178.909085
53580	2.384472	0.098348	12.876161	-0.010444	0.007708	3.282760	1.000000	-0.000001	0.000034	-0.000070	0.471962	-10.449306	-178.909274
53581	2.372293	0.116201	12.863605	-0.000193	-0.010127	3.268349	1.000000	-0.000003	0.000041	-0.000072	0.471561	-10.449699	-178.909002
53582	2.396138	0.096559	12.908086	-0.016127	0.009357	3.316255	1.000000	-0.000017	0.000059	-0.000084	0.469887	-10.448046	-178.910856
53583	2.380886	0.098970	12.876820	-0.006850	0.006716	3.282763	1.000000	0.000008	0.000041	-0.000057	0.470351	-10.448627	-178.906242
53584	2.382448	0.114679	12.895805	-0.004657	-0.008800	3.301842	1.000000	-0.000004	0.000051	-0.000067	0.469750	-10.447889	-178.906065
53585	2.359815	0.107762	12.905038	0.019184	-0.001426	3.306762	1.000000	-0.000001	0.000034	-0.000070	0.469653	-10.449095	-178.906872
53586	2.380188	0.115400	12.896216	-0.002271	-0.009421	3.301843	1.000000	0.000011	0.000053	-0.000070	0.470909	-10.448075	-178.907051
53587	2.411679	0.105570	12.900155	-0.032829	0.000049	3.311346	1.000000	0.000008	0.000041	-0.000057	0.471392	-10.448376	-178.908417
53588	2.375166	0.101059	12.877860	-0.000945	0.005126	3.282765	1.000000	0.000004	0.000040	-0.000081	0.472099	-10.448903	-178.909890
53589	2.357917	0.125078	12.924635	0.024965	-0.017899	3.325831	1.000000	0.000003	0.000052	-0.000068	0.472442	-10.448155	-178.907651
53590	2.394263	0.109043	12.869280	-0.021183	-0.003195	3.277855	1.000000	-0.000003	0.000041	-0.000072	0.472119	-10.448532	-178.908088
53591	2.374221	0.117559	12.897296	0.003691	-0.011008	3.301841	1.000000	0.000004	0.000055	-0.000061	0.472394	-10.447403	-178.907358
53592	2.384139	0.100329	12.910279	-0.004188	0.006159	3.316266	1.000000	-0.000002	0.000044	-0.000065	0.471969	-10.447487	-178.906936
53593	2.382993	0.100575	12.910488	-0.002997	0.005842	3.316267	1.000000	-0.000002	0.000044	-0.000065	0.471542	-10.447566	-178.906978
53594	2.356694	0.120639	12.866431	0.015296	-0.014233	3.268336	1.000000	0.000005	0.000045	-0.000066	0.472046	-10.447508	-178.906734
53595	2.388261	0.110644	12.870382	-0.015221	-0.004775	3.277863	1.000000	-0.000002	0.000044	-0.000065	0.471616	-10.447626	-178.906195
53596	2.387286	0.111033	12.870559	-0.014032	-0.005093	3.277864	1.000000	0.000009	0.000031	-0.000062	0.472469	-10.449210	-178.905459
53597	2.364500	0.104262	12.879797	0.009822	0.002283	3.282762	1.000000	-0.000000	0.000067	-0.000073	0.472360	-10.446798	-178.903483
53598	2.384679	0.111796	12.871036	-0.011628	-0.005748	3.277866	1.000000	-0.000004	0.000036	-0.000087	0.472246	-10.447762	-178.905640
53599	2.406109	0.077115	12.896729	-0.028581	0.028890	3.306736	1.000000	0.000008	0.000041	-0.000057	0.472872	-10.448295	-178.904138
53600	2.363754	0.120710	12.899189	0.014469	-0.013853	3.301831	1.000000	-0.000002	0.000044	-0.000065	0.472449	-10.448380	-178.903718
53601	2.384047	0.128269	12.890412	-0.006975	-0.021909	3.296939	1.000000	0.000003	0.000050	-0.000076	0.472812	-10.447799	-178.904111
53602	2.380169	0.113244	12.871858	-0.006855	-0.007020	3.277869	1.000000	-0.000003	0.000041	-0.000072	0.472493	-10.448178	-178.904551
53603	2.390371	0.095990	12.884803	-0.014736	0.010121	3.292309	1.000000	-0.000000	0.000037	-0.000062	0.472211	-10.449135	-178.902349
53604	2.359061	0.122004	12.900036	0.019254	-0.015131	3.301823	1.000000	0.000002	0.000059	-0.000070	0.472369	-10.447438	-178.902600
53605	2.390484	0.112027	12.904045	-0.011272	-0.005724	3.311381	1.000000	-0.000003	0.000041	-0.000072	0.472034	-10.447822	-178.902698
53606	2.378069	0.129688	12.891502	-0.000993	-0.023503	3.296938	1.000000	-0.000012	0.000050	-0.000065	0.470510	-10.447231	-178.902348
53607	2.385478	0.097028	12.885702	-0.009954	0.008812	3.292314	1.000000	0.000007	0.000038	-0.000064	0.471033	-10.448106	-178.898441
53608	2.387152	0.112904	12.904654	-0.007668	-0.006713	3.311383	1.000000	0.000007	0.000038	-0.000064	0.471715	-10.448870	-178.897952
53609	2.372176	0.115520	12.873313	0.001523	-0.009265	3.277869	1.000000	0.000005	0.000045	-0.000066	0.472281	-10.448857	-178.897866
53610	2.403759	0.105594	12.877309	-0.029009	0.000120	3.287444	1.000000	-0.000002	0.000044	-0.000065	0.471861	-10.448943	-178.897448
53611	2.351151	0.124175	12.901460	0.027667	-0.017339	3.301806	1.000000	-0.000009	0.000033	-0.000068	0.470815	-10.450389	-178.895567
53612	2.401738	0.106050	12.877682	-0.026606	-0.000513	3.287449	1.000000	0.000005	0.000045	-0.000066	0.471324	-10.450333	-178.895326
53613	2.376635	0.083818	12.868059	-0.003922	0.022158	3.273254	1.000000	0.000001	0.000027	-0.000068	0.471438	-10.452274	-178.897619
53614	2.371190	0.189901	12.877311	0.005279	-0.083895	3.282223	1.000000	-0.000016	0.000064	-0.000070	0.469567	-10.450043	-178.897764
53615	2.305175	-0.010690	12.892421	0.068485	0.119778	3.283473	1.000000	0.000005	0.000045	-0.000066	0.478389	-10.450006	-178.896339
53616	2.513353	0.147398	12.924554	-0.127219	-0.041722	3.354121	1.000000	0.000004	0.000052	-0.000068	0.478743	-10.449134	-178.896337
53617	2.268040	0.084883	12.820026	0.093692	0.024171	3.206334	1.000000	-0.000003	0.000041	-0.000072	0.478451	-10.449475	-178.898770
53618	2.541953	0.080199	12.944578	-0.153258	0.025161	3.378444	1.000000	0.000004	0.000055	-0.000061	0.478700	-10.448309	-178.897908
53619	2.357668	0.103057	12.856697	0.012269	0.004695	3.258797	1.000000	-0.000007	0.000053	-0.000084	0.478122	-10.447420	-178.898345
53620	2.320253	0.177280	12.896661	0.057714	-0.068335	3.291925	1.000000	0.000005	0.000045	-0.000066	0.478651	-10.447368	-178.898096
53621	2.400173	0.033712	12.908254	-0.021755	0.073830	3.316633	1.000000	-0.000002	0.000046	-0.000057	0.478143	-10.447229	-178.895525
53622	2.403166	0.107002	12.911522	-0.022685	0.000433	3.320992	1.000000	-0.000008	0.000050	-0.000091	0.477710	-10.446560	-178.898172
53623	2.339928	0.064248	12.860537	0.029416	0.043862	3.259039	1.000000	0.000018	0.000037	-0.000049	0.479141	-10.447520	-178.891401
53624	2.378424	0.143054	12.886369	-0.002059	-0.035102	3.292069	1.000000	0.000003	0.000047	-0.000083	0.479707	-10.447235	-178.893119
53625	2.317652	0.115638	12.854176	0.051172	-0.006824	3.249168	1.000000	0.000004	0.000052	-0.000068	0.480056	-10.446409	-178.892092
53626	2.363073	0.103674	12.889778	0.012687	0.004718	3.292314	1.000000	-0.000003	0.000039	-0.000079	0.479869	-10.447088	-178.893388
53627	2.407594	0.134026	12.890855	-0.030195	-0.026448	3.301694	1.000000	0.000005	0.000045	-0.000066	0.480263	-10.447017	-178.891894
53628	2.349442	0.121857	12.877423	0.024176	-0.013358	3.277843	1.000000	-0.000004	0.000054	-0.000059	0.479586	-10.445996	-178.890858
53629	2.359641	0.104629	12.890399	0.016268	0.003773	3.292310	1.000000	0.000001	0.000027	-0.000068	0.479706	-10.448083	-178.890958
53630	2.401770	0.119544	12.872674	-0.027777	-0.012169	3.282640	1.000000	-0.000003	0.000041	-0.000072	0.479415	-10.448469	-178.891395
53631	2.368833	0.087697	12.903560	0.009548	0.020600	3.306780	1.000000	-0.000005	0.000048	-0.000074	0.479056	-10.448095	-178.892724
53632	2.410718	0.102580	12.885888	-0.034497	0.004646	3.297118	1.000000	-0.000003	0.000039	-0.000079	0.478872	-10.448774	-178.894021
53633	2.376888	0.113143	12.882232	-0.001586	-0.005245	3.287475	1.000000	0.000005	0.000042	-0.000073	0.479597	-10.448958	-178.897574
53634	2.386102	0.138325	12.860693	-0.013894	-0.030800	3.268172	1.000000	-0.000000	0.000037	-0.000062	0.479377	-10.449871	-178.896905
53635	2.385987	0.096408	12.895416	-0.008337	0.011552	3.301952	1.000000	0.000003	0.000050	-0.000076	0.479854	-10.449223	-178.900667
53636	2.373521	0.114128	12.882844	0.001971	-0.006176	3.287475	1.000000	-0.000010	0.000043	-0.000063	0.478531	-10.449461	-178.900069
53637	2.383624	0.096781	12.895850	-0.005983	0.010909	3.301954	1.000000	-0.000002	0.000046	-0.000057	0.477956	-10.449142	-178.901689
53638	2.382589	0.097165	12.896038	-0.004792	0.010596	3.301955	1.000000	0.000007	0.000033	-0.000079	0.478877	-10.450497	-178.902915
53639	2.370196	0.115225	12.883446	0.005553	-0.007141	3.287473	1.000000	0.000011	0.000053	-0.000070	0.480098	-10.449631	-178.899458
53640	2.382646	0.113561	12.915268	-0.001159	-0.005257	3.321011	1.000000	-0.000004	0.000051	-0.000067	0.479529	-10.448905	-178.899283
53641	2.409013	0.072850	12.881830	-0.034188	0.034444	3.292572	1.000000	-0.000004	0.000051	-0.000067	0.479053	-10.447978	-178.905663
53642	2.368695	0.131554	12.902959	0.010305	-0.023269	3.306525	1.000000	0.000004	0.000052	-0.000068	0.479412	-10.447107	-178.905665
53643	2.373831	0.083669	12.878393	-0.000090	0.024258	3.282903	1.000000	0.000002	0.000030	-0.000060	0.479378	-10.448791	-178.907076
53644	2.396852	0.106687	12.888441	-0.020284	0.000879	3.297148	1.000000	-0.000005	0.000048	-0.000074	0.478917	-10.448359	-178.907763
53645	2.371476	0.084481	12.878821	0.002311	0.023651	3.282904	1.000000	0.000019	0.000055	-0.000071	0.481202	-10.447326	-178.906010
53646	2.407084	0.147894	12.885966	-0.030116	-0.040209	3.296909	1.000000	-0.000008	0.000035	-0.000061	0.480057	-10.448385	-178.905167
53647	2.388279	0.076954	12.851530	-0.019138	0.030388	3.259050	1.000000	-0.000010	0.000043	-0.000063	0.478757	-10.448759	-178.901909
53648	2.378319	0.110053	12.857726	-0.007577	-0.002539	3.263611	1.000000	0.000003	0.000050	-0.000076	0.479225	-10.448183	-178.902772
53649	2.379518	0.125774	12.876746	-0.005114	-0.018032	3.282662	1.000000	-0.000004	0.000051	-0.000067	0.478812	-10.447564	-178.902759
53650	2.398369	0.075703	12.883799	-0.023439	0.031660	3.292603	1.000000	-0.000003	0.000041	-0.000072	0.478528	-10.447952	-178.903200
53651	2.390859	0.124184	12.908782	-0.010605	-0.016508	3.316208	1.000000	-0.000004	0.000054	-0.000059	0.477737	-10.446918	-178.901707
53652	2.365533	0.101950	12.899141	0.011934	0.006272	3.301953	1.000000	0.000021	0.000048	-0.000069	0.480131	-10.446577	-178.901814
53653	2.397162	0.092441	12.903261	-0.018599	0.015460	3.311660	1.000000	-0.000003	0.000041	-0.000072	0.479800	-10.447037	-178.900509
53654	2.382245	0.094746	12.871878	-0.009544	0.012977	3.278113	1.000000	-0.000002	0.000046	-0.000057	0.479303	-10.446839	-178.899231
53655	2.213315	0.208993	12.896033	0.163314	-0.097864	3.272184	1.000000	0.000000	0.000042	-0.000048	0.478928	-10.447189	-178.897053
53656	2.404903	0.075813	12.916727	-0.024160	0.031914	3.326169	1.000000	0.000001	0.000054	-0.000085	0.479331	-10.446088	-178.899024
53657	2.283987	-0.037813	12.867453	0.083630	0.147128	3.254857	1.000000	-0.000001	0.000022	-0.000032	0.478293	-10.448707	-178.895391
53658	2.371717	0.144149	12.897395	0.006921	-0.036102	3.301704	1.000000	0.000005	0.000040	-0.000081	0.479048	-10.449244	-178.896869
53659	2.293582	0.082274	12.927147	0.088095	0.027789	3.316284	1.000000	0.000009	0.000031	-0.000062	0.480008	-10.450835	-178.897118
53660	2.445919	0.149859	12.883834	-0.067631	-0.043028	3.301874	1.000000	0.000003	0.000020	-0.000065	0.480254	-10.453682	-178.896818
53661	2.438795	0.061723	12.862157	-0.066012	0.044974	3.278539	1.000000	-0.000003	0.000041	-0.000072	0.480000	-10.454052	-178.898311
53662	2.411307	0.160430	12.880237	-0.033498	-0.053133	3.292148	1.000000	-0.000008	0.000035	-0.000061	0.478860	-10.455113	-178.897471
53663	2.367384	0.145832	12.898172	0.012858	-0.037641	3.301695	1.000000	-0.000001	0.000034	-0.000070	0.478729	-10.456154	-178.901510
53664	2.403180	0.072455	12.858748	-0.030752	0.034548	3.268818	1.000000	-0.000000	0.000037	-0.000062	0.478517	-10.457070	-178.900846
53665	2.393247	0.105674	12.864911	-0.019093	0.001621	3.273350	1.000000	0.000003	0.000047	-0.000083	0.479012	-10.456874	-178.900614
53666	2.405704	0.104087	12.896754	-0.025735	0.003454	3.306910	1.000000	0.000004	0.000052	-0.000068	0.479377	-10.456006	-178.900620
53667	2.414778	0.129079	12.875264	-0.038005	-0.022137	3.287630	1.000000	-0.000016	0.000034	-0.000059	0.477352	-10.457166	-178.901686
53668	2.340341	0.140049	12.908043	0.041448	-0.031280	3.306447	1.000000	0.000021	0.000048	-0.000069	0.479750	-10.456824	-178.901794
53669	2.388608	0.107217	12.865761	-0.014334	0.000370	3.273356	1.000000	-0.000003	0.000041	-0.000072	0.479445	-10.457274	-178.901479
53670	2.389933	0.122662	12.884751	-0.011815	-0.015166	3.292398	1.000000	-0.000017	0.000044	-0.000054	0.477094	-10.457370	-178.899853
53671	2.400110	0.105160	12.897787	-0.019795	0.001896	3.306920	1.000000	-0.000010	0.000043	-0.000063	0.475842	-10.457518	-178.902553
53672	2.417949	0.097415	12.870364	-0.042534	0.008873	3.283127	1.000000	0.000004	0.000052	-0.000068	0.476209	-10.456649	-178.902560
53673	2.416684	0.097859	12.870598	-0.041350	0.008533	3.283131	1.000000	0.000006	0.000045	-0.000066	0.476650	-10.456579	-178.902679
53674	2.417870	0.113720	12.889612	-0.038818	-0.007008	3.302173	1.000000	0.000003	0.000050	-0.000076	0.477126	-10.456004	-178.903547
53675	2.418799	0.129295	12.908675	-0.036295	-0.022579	3.321215	1.000000	-0.000013	0.000065	-0.000045	0.475001	-10.453653	-178.902273
53676	2.401268	0.116318	12.858528	-0.028645	-0.009801	3.268614	1.000000	0.000020	0.000042	-0.000084	0.477619	-10.453899	-178.904102
53677	2.370600	0.099854	12.908112	0.009938	0.007865	3.311676	1.000000	-0.000016	0.000064	-0.000070	0.475615	-10.451733	-178.902541
53678	2.414491	0.130315	12.909472	-0.032693	-0.023568	3.321222	1.000000	0.000004	0.000052	-0.000068	0.475983	-10.450865	-178.902549
53679	2.377945	0.125315	12.886943	-0.001116	-0.018036	3.292400	1.000000	0.000003	0.000050	-0.000076	0.476557	-10.450273	-178.905228
53680	2.371785	0.094823	12.849618	-0.002654	0.012103	3.254328	1.000000	-0.000006	0.000055	-0.000076	0.475931	-10.449027	-178.906170
53681	2.365017	0.100870	12.909129	0.014709	0.006651	3.311672	1.000000	-0.000012	0.000050	-0.000065	0.474478	-10.448490	-178.906087
53682	2.366107	0.116276	12.928154	0.017273	-0.008885	3.330706	1.000000	-0.000012	0.000050	-0.000065	0.472992	-10.447917	-178.905747
53683	2.360028	0.085569	12.890816	0.015747	0.021228	3.292636	1.000000	-0.000004	0.000051	-0.000067	0.472297	-10.447339	-178.902314
53684	2.370056	0.068382	12.903891	0.007772	0.038260	3.307173	1.000000	-0.000005	0.000048	-0.000074	0.471849	-10.446913	-178.903009
53685	2.335820	0.078514	12.900145	0.040744	0.028576	3.297365	1.000000	-0.000006	0.000061	-0.000062	0.470984	-10.445237	-178.900215
53686	2.358431	0.101618	12.910327	0.020736	0.005069	3.311665	1.000000	-0.000003	0.000036	-0.000087	0.470933	-10.446217	-178.902383
53687	2.354971	0.086588	12.891734	0.020522	0.019999	3.292631	1.000000	0.000006	0.000048	-0.000059	0.471426	-10.445819	-178.903192
53688	2.353764	0.087032	12.891951	0.021710	0.019690	3.292629	1.000000	0.000006	0.000045	-0.000066	0.471974	-10.445770	-178.902953
53689	2.341140	0.104857	12.879339	0.032066	0.002057	3.278083	1.000000	0.000004	0.000055	-0.000061	0.472276	-10.444610	-178.902745
53690	2.372774	0.095275	12.883574	0.001503	0.011098	3.287904	1.000000	-0.000000	0.000037	-0.000063	0.472073	-10.445527	-178.902084
53691	2.341358	0.121005	12.898512	0.035842	-0.013809	3.297108	1.000000	0.000007	0.000035	-0.000071	0.472806	-10.446544	-178.902897
53692	2.339145	0.163767	12.864177	0.032794	-0.056763	3.263289	1.000000	0.000006	0.000045	-0.000066	0.473355	-10.446496	-178.902659
53693	2.341519	0.137264	12.917691	0.039602	-0.029638	3.316130	1.000000	-0.000003	0.000041	-0.000072	0.473164	-10.446720	-178.907268
53694	2.348380	0.147023	12.877401	0.025971	-0.040035	3.277831	1.000000	0.000002	0.000032	-0.000053	0.473028	-10.448162	-178.905499
53695	2.304439	0.132220	12.895207	0.072338	-0.024331	3.287254	1.000000	-0.000010	0.000040	-0.000071	0.471915	-10.448751	-178.905544
53696	2.345283	0.089591	12.893479	0.031178	0.017244	3.292614	1.000000	-0.000008	0.000035	-0.000061	0.470785	-10.449817	-178.904711
53697	2.369546	0.070341	12.938111	0.015458	0.036357	3.340747	1.000000	-0.000004	0.000021	-0.000057	0.470034	-10.452571	-178.902406
53698	2.346291	0.105280	12.912510	0.035000	0.001406	3.311636	1.000000	-0.000007	0.000023	-0.000074	0.469302	-10.455044	-178.903046
53699	2.364743	0.097625	12.885033	0.012174	0.008350	3.287900	1.000000	-0.000001	0.000031	-0.000077	0.469457	-10.456540	-178.904785
53700	2.418401	0.095621	12.880384	-0.040969	0.009335	3.293050	1.000000	0.000003	0.000020	-0.000066	0.469719	-10.459389	-178.904489
53701	2.394157	0.073119	12.870480	-0.018659	0.032263	3.278730	1.000000	0.000005	0.000013	-0.000063	0.470158	-10.463002	-178.904608
53702	2.408320	0.129416	12.886512	-0.027975	-0.023845	3.297522	1.000000	0.000018	0.000035	-0.000056	0.471878	-10.464148	-178.903188
53703	2.402716	0.098991	12.849105	-0.029691	0.006294	3.259475	1.000000	-0.000010	0.000040	-0.000071	0.470645	-10.464660	-178.904268
53704	2.428924	0.095328	12.912610	-0.043956	0.010137	3.326651	1.000000	0.000006	0.000045	-0.000066	0.471196	-10.464612	-178.904031
53705	2.470875	0.110765	12.895191	-0.087869	-0.006269	3.317267	1.000000	-0.000001	0.000034	-0.000070	0.470968	-10.466009	-178.900131
53706	2.428042	0.153823	12.897247	-0.044270	-0.048411	3.311859	1.000000	0.000008	0.000038	-0.000064	0.471696	-10.466779	-178.899647
53707	2.424670	0.138792	12.878651	-0.044542	-0.033483	3.292839	1.000000	-0.000002	0.000044	-0.000065	0.471375	-10.466870	-178.900325
53708	2.423541	0.138945	12.878862	-0.043347	-0.033801	3.292843	1.000000	-0.000010	0.000042	-0.000063	0.470071	-10.467119	-178.899742
53709	2.441645	0.131230	12.851474	-0.066189	-0.026926	3.269137	1.000000	-0.000003	0.000041	-0.000072	0.469799	-10.467551	-178.899603
53710	2.416507	0.108710	12.841730	-0.043905	-0.003971	3.254807	1.000000	0.000010	0.000063	-0.000065	0.470814	-10.465425	-178.899178
53711	2.463569	0.112587	12.896573	-0.080691	-0.008176	3.317312	1.000000	-0.000018	0.000068	-0.000079	0.469022	-10.462737	-178.901225
53712	2.424669	0.091662	12.855193	-0.050710	0.012717	3.269387	1.000000	-0.000002	0.000046	-0.000057	0.468536	-10.462544	-178.899956
53713	2.403964	0.099607	12.883057	-0.025456	0.005182	3.293091	1.000000	-0.000018	0.000068	-0.000079	0.466496	-10.459854	-178.900509
53714	2.404557	0.115054	12.902165	-0.022772	-0.010368	3.312113	1.000000	-0.000006	0.000061	-0.000062	0.465657	-10.458025	-178.899738
53715	2.381503	0.107772	12.911236	0.000997	-0.002613	3.316790	1.000000	0.000002	0.000059	-0.000071	0.465923	-10.456376	-178.900578
53716	2.389013	0.075268	12.905600	-0.008505	0.029601	3.312350	1.000000	-0.000008	0.000063	-0.000079	0.465132	-10.454318	-178.901777
53717	2.387521	0.075560	12.905874	-0.007326	0.029307	3.312351	1.000000	0.000004	0.000052	-0.000068	0.465595	-10.453408	-178.904047
53718	2.374652	0.093092	12.893280	0.003058	0.011705	3.297772	1.000000	-0.000016	0.000064	-0.000070	0.463764	-10.451205	-178.904214
53719	2.338008	0.087629	12.870662	0.034500	0.017413	3.268842	1.000000	0.000004	0.000055	-0.000061	0.464057	-10.450059	-178.904310
53720	2.358037	0.095476	12.862157	0.013121	0.009038	3.264173	1.000000	-0.000006	0.000058	-0.000069	0.463332	-10.448525	-178.904400
53721	2.380396	0.118763	12.872438	-0.006732	-0.014575	3.278523	1.000000	0.000006	0.000048	-0.000059	0.463793	-10.448210	-178.903578
53722	2.336070	0.103937	12.890213	0.039587	0.001261	3.287849	1.000000	-0.000006	0.000055	-0.000076	0.463181	-10.446971	-178.904530
53723	2.336943	0.119548	12.909257	0.042302	-0.014292	3.306860	1.000000	-0.000001	0.000049	-0.000050	0.462541	-10.446480	-178.902222
53724	2.314247	0.112211	12.918233	0.066058	-0.006518	3.311514	1.000000	-0.000005	0.000043	-0.000089	0.462332	-10.446647	-178.904647
