// Start Time: Unknown
// Update Rate: 100.0Hz
// Filter Profile: human (46.1)
// Firmware Version: 4.4.0
PacketCounter	Acc_X	Acc_Y	Acc_Z	FreeAcc_X	FreeAcc_Y	FreeAcc_Z	OriInc_q0	OriInc_q1	OriInc_q2	OriInc_q3	Roll	Pitch	Yaw
59659	1.620787	0.274100	9.648982	0.000000	-0.000000	-0.024688	1.000000	-0.000046	0.000030	0.000023	1.630032	-9.533139	46.939197
59660	1.630046	0.305650	9.642828	0.000181	0.024209	-0.028312	1.000000	-0.000046	0.000029	0.000016	1.714454	-9.484847	46.465785
59661	1.609213	0.297747	9.670086	-0.010920	0.001180	-0.005105	1.000000	-0.000040	0.000039	0.000022	1.709379	-9.480447	46.468528
59662	1.630095	0.308067	9.667097	-0.004214	0.024713	-0.004311	1.000000	-0.000052	0.000019	0.000009	1.703276	-9.477805	46.469548
59663	1.606854	0.291614	9.646320	-0.006413	0.000787	-0.029106	1.000000	-0.000040	0.000039	0.000022	1.698202	-9.473404	46.472290
59664	1.628878	0.306311	9.667358	-0.004211	0.024706	-0.004311	1.000000	-0.000039	0.000030	0.000007	1.693632	-9.469972	46.473234
59665	1.606764	0.294320	9.670598	-0.010861	0.001229	-0.005105	1.000000	-0.000033	0.000040	0.000014	1.689544	-9.465412	46.475011
59666	1.626243	0.300432	9.643634	0.000248	0.024241	-0.028312	1.000000	-0.000055	0.000035	0.000016	1.682989	-9.461520	46.476925
59667	1.638486	0.282391	9.670932	0.018863	0.018007	0.000091	1.000000	-0.000046	0.000030	0.000023	1.677267	-9.458176	46.479751
59668	1.591929	0.308472	9.643852	-0.029469	0.007404	-0.033508	1.000000	-0.000040	0.000039	0.000022	1.672354	-9.453960	46.482464
59669	1.625594	0.301767	9.668053	-0.004205	0.024647	-0.004311	1.000000	-0.000054	0.000027	0.000008	1.666028	-9.450931	46.483516
59670	1.623810	0.296612	9.644162	0.000269	0.024135	-0.028311	1.000000	-0.000039	0.000030	0.000007	1.661779	-9.447663	46.484406
59671	1.612871	0.321234	9.665149	-0.027248	0.031265	-0.008713	1.000000	-0.000046	0.000029	0.000016	1.656185	-9.444371	46.486318
59672	1.622760	0.294833	9.644393	0.000315	0.024023	-0.028311	1.000000	-0.000044	0.000022	0.000016	1.651457	-9.442216	46.488156
59673	1.632127	0.326332	9.638273	-0.016101	0.054183	-0.031918	1.000000	-0.000053	0.000028	0.000024	1.644878	-9.439082	46.491030
59674	1.622916	0.297025	9.668650	-0.004075	0.024281	-0.004310	1.000000	-0.000048	0.000036	0.000007	1.640237	-9.435550	46.491825
59675	1.622183	0.296193	9.668799	-0.004075	0.024281	-0.004310	1.000000	-0.000033	0.000041	0.000022	1.636024	-9.430937	46.494509
59676	1.601153	0.288290	9.696054	-0.015106	0.001011	0.018896	1.000000	-0.000050	0.000045	0.000022	1.631160	-9.426636	46.497053
59677	1.607742	0.311411	9.641968	-0.022621	0.030277	-0.032711	1.000000	-0.000040	0.000039	0.000022	1.626090	-9.422232	46.499787
59678	1.608857	0.256771	9.651455	0.016973	-0.006834	-0.024705	1.000000	-0.000046	0.000029	0.000008	1.622208	-9.419680	46.500523
59679	1.619426	0.292643	9.669369	-0.003893	0.023772	-0.004308	1.000000	-0.000037	0.000024	0.000023	1.617557	-9.416972	46.503326
59680	1.617540	0.287615	9.645488	0.000645	0.023035	-0.028309	1.000000	-0.000043	0.000045	0.000006	1.614098	-9.412710	46.503939
59681	1.640757	0.306564	9.690592	-0.001605	0.047403	0.020490	1.000000	-0.000029	0.000025	0.000015	1.610434	-9.409847	46.505779
59682	1.616280	0.286102	9.645744	0.000735	0.022662	-0.028308	1.000000	-0.000048	0.000036	0.000007	1.606674	-9.406974	46.506431
59683	1.604061	0.306410	9.642742	-0.022331	0.029344	-0.032708	1.000000	-0.000046	0.000029	0.000016	1.601084	-9.403682	46.508338
59684	1.638904	0.303947	9.690988	-0.001393	0.046610	0.020494	1.000000	-0.000041	0.000038	0.000007	1.598485	-9.400659	46.508884
59685	1.601493	0.300433	9.619004	-0.017760	0.028485	-0.056707	1.000000	-0.000048	0.000037	0.000023	1.592558	-9.396463	46.511667
59686	1.602164	0.303604	9.643146	-0.022028	0.028411	-0.032704	1.000000	-0.000051	0.000021	0.000024	1.589097	-9.395633	46.514181
59687	1.634563	0.292705	9.643361	0.007690	0.045206	-0.027506	1.000000	-0.000035	0.000048	0.000014	1.584810	-9.390214	46.515912
59688	1.612392	0.280541	9.646558	0.001183	0.021139	-0.028304	1.000000	-0.000053	0.000028	0.000024	1.581251	-9.388999	46.518250
59689	1.613098	0.283876	9.670688	-0.003264	0.021581	-0.004303	1.000000	-0.000029	0.000025	0.000015	1.577585	-9.386120	46.520085
59690	1.622247	0.315491	9.664663	-0.019528	0.051096	-0.007896	1.000000	-0.000059	0.000049	0.000007	1.573919	-9.382671	46.520496
59691	1.622689	0.318699	9.688845	-0.023975	0.051538	0.016106	1.000000	-0.000039	0.000031	0.000015	1.569181	-9.379151	46.522346
59692	1.600576	0.306645	9.692019	-0.030392	0.027262	0.015306	1.000000	-0.000041	0.000038	0.000007	1.568618	-9.377296	46.522613
59693	1.630628	0.287486	9.644184	0.008221	0.043182	-0.027497	1.000000	-0.000037	0.000023	0.000008	1.564221	-9.374678	46.523587
59694	1.599655	0.304988	9.692224	-0.030215	0.026472	0.015308	1.000000	-0.000050	0.000013	0.000017	1.562142	-9.375933	46.524795
59695	1.630923	0.289924	9.668412	0.003947	0.042834	-0.003492	1.000000	-0.000035	0.000048	0.000014	1.557832	-9.370506	46.526523
59696	1.617415	0.306090	9.641417	-0.014374	0.048150	-0.031884	1.000000	-0.000053	0.000028	0.000024	1.556365	-9.370134	46.528669
59697	1.630702	0.292210	9.692732	-0.000199	0.042334	0.020514	1.000000	-0.000043	0.000045	0.000006	1.551334	-9.364972	46.529535
59698	1.628783	0.287118	9.668857	0.004564	0.040829	-0.003484	1.000000	-0.000046	0.000031	0.000031	1.551228	-9.364841	46.532522
59699	1.616648	0.307335	9.665864	-0.018501	0.047516	-0.007876	1.000000	-0.000053	0.000028	0.000024	1.544657	-9.361691	46.535384
59700	1.606214	0.273872	9.672122	-0.001831	0.016224	-0.004292	1.000000	-0.000039	0.000031	0.000015	1.545620	-9.361971	46.536282
59701	1.615588	0.305532	9.666098	-0.018247	0.046385	-0.007870	1.000000	-0.000044	0.000022	0.000016	1.540247	-9.359523	46.538218
59702	1.627717	0.287547	9.693373	0.000759	0.039160	0.020527	1.000000	-0.000042	0.000046	0.000014	1.540697	-9.356862	46.539358
59703	1.613123	0.299512	9.642343	-0.013416	0.044994	-0.031867	1.000000	-0.000051	0.000021	0.000024	1.534359	-9.354559	46.542254
59704	1.625352	0.281385	9.669603	0.005454	0.037533	-0.003471	1.000000	-0.000048	0.000037	0.000015	1.534514	-9.354525	46.543059
59705	1.633491	0.308796	9.639579	-0.006516	0.067270	-0.031043	1.000000	-0.000044	0.000022	0.000016	1.529168	-9.352080	46.544994
59706	1.611597	0.296709	9.642685	-0.012786	0.042367	-0.031855	1.000000	-0.000037	0.000024	0.000023	1.532031	-9.353928	46.546989
59707	1.592024	0.292856	9.693854	-0.028314	0.019715	0.015330	1.000000	-0.000054	0.000027	0.000008	1.525794	-9.350923	46.548029
59708	1.643545	0.284732	9.643031	0.017238	0.057906	-0.026641	1.000000	-0.000048	0.000037	0.000023	1.526238	-9.350790	46.549738
59709	1.656963	0.270358	9.694324	0.031430	0.052032	0.025750	1.000000	-0.000091	0.000018	0.000018	1.515605	-9.348797	46.551944
59710	1.582694	0.321646	9.366632	-0.025875	0.078976	-0.308201	1.000000	-0.000022	0.000091	0.000025	1.518480	-9.341960	46.554525
59711	1.609464	0.478547	9.958390	-0.176371	0.126133	0.283941	1.000000	-0.000027	0.000018	0.000016	1.515142	-9.339969	46.556393
59712	1.633220	0.199058	9.683011	0.069591	-0.011059	0.008859	1.000000	-0.000013	0.000052	0.000004	1.520910	-9.336761	46.556100
59713	1.598294	0.204361	9.658998	0.044327	-0.028271	-0.020354	1.000000	-0.000044	0.000022	0.000016	1.515646	-9.334317	46.558031
59714	1.622617	0.404750	9.796761	-0.098307	0.107493	0.124718	1.000000	-0.000074	0.000015	0.000018	1.512485	-9.336495	46.559032
59715	1.586030	0.280356	9.472588	-0.003314	0.041449	-0.204239	1.000000	-0.000068	0.000024	0.000017	1.504439	-9.333832	46.561077
59716	1.662546	0.238548	9.674385	0.060599	0.039718	0.006143	1.000000	-0.000033	0.000041	0.000022	1.509375	-9.334463	46.562793
59717	1.654715	0.333503	9.782385	-0.024128	0.085255	0.113868	1.000000	-0.000040	0.000007	0.000017	1.504570	-9.333740	46.564796
59718	1.614188	0.197984	9.584370	0.065534	-0.010441	-0.091548	1.000000	-0.000037	0.000023	0.000008	1.508719	-9.335985	46.564947
59719	1.659060	0.347897	9.680385	-0.022305	0.112190	0.014331	1.000000	-0.000040	0.000039	0.000022	1.503859	-9.331622	46.567670
59720	1.611321	0.370112	9.629273	-0.065736	0.099678	-0.043246	1.000000	-0.000043	0.000045	0.000006	1.507578	-9.331408	46.568221
59721	1.635821	0.214938	9.629887	0.063839	0.012155	-0.042702	1.000000	-0.000048	0.000037	0.000015	1.502028	-9.327307	46.570081
59722	1.624896	0.359300	9.704789	-0.055562	0.092455	0.033159	1.000000	-0.000048	0.000038	0.000031	1.504483	-9.328613	46.573397
59723	1.600955	0.280926	9.644930	-0.009390	0.030913	-0.031808	1.000000	-0.000046	0.000029	0.000016	1.499166	-9.325360	46.575291
59724	1.623504	0.237499	9.651225	0.037103	0.015741	-0.023066	1.000000	-0.000039	0.000031	0.000015	1.503323	-9.328073	46.576021
59725	1.590477	0.308751	9.690171	-0.040941	0.036540	0.011840	1.000000	-0.000040	0.000039	0.000022	1.498581	-9.323747	46.578744
59726	1.610053	0.315029	9.663325	-0.029460	0.058398	-0.011306	1.000000	-0.000041	0.000038	0.000015	1.500406	-9.323004	46.579882
59727	1.629634	0.321309	9.636483	-0.018346	0.081443	-0.034457	1.000000	-0.000040	0.000039	0.000022	1.495686	-9.318666	46.582603
59728	1.631226	0.328617	9.684710	-0.026568	0.079666	0.013576	1.000000	-0.000048	0.000037	0.000015	1.503072	-9.322751	46.584628
59729	1.609764	0.258468	9.672849	0.010747	0.018888	-0.003422	1.000000	-0.000050	0.000013	0.000025	1.497355	-9.321430	46.587559
59730	1.619250	0.290140	9.666915	-0.005427	0.047241	-0.006916	1.000000	-0.000031	0.000033	0.000015	1.501972	-9.324457	46.588103
59731	1.629733	0.325964	9.685052	-0.026242	0.077707	0.013593	1.000000	-0.000046	0.000029	0.000016	1.496854	-9.321322	46.590007
59732	1.639634	0.299723	9.664204	0.002180	0.069318	-0.006043	1.000000	-0.000037	0.000024	0.000016	1.501761	-9.320521	46.593249
59733	1.650672	0.277669	9.667393	0.025302	0.062551	-0.001686	1.000000	-0.000039	0.000030	0.000007	1.497682	-9.317179	46.594182
59734	1.618153	0.290958	9.691429	-0.008585	0.045028	0.017103	1.000000	-0.000048	0.000036	0.000007	1.497622	-9.316735	46.593846
59735	1.626967	0.260420	9.646529	0.023392	0.037531	-0.026554	1.000000	-0.000057	0.000011	0.000017	1.491265	-9.315656	46.595909
59736	1.637556	0.296109	9.664668	0.002690	0.066860	-0.006027	1.000000	-0.000033	0.000040	0.000014	1.492740	-9.315621	46.595912
59737	1.634344	0.286984	9.616770	0.011595	0.066059	-0.054040	1.000000	-0.000061	0.000056	0.000006	1.486133	-9.309309	46.596802
59738	1.615450	0.287014	9.691998	-0.008174	0.041712	0.017118	1.000000	-0.000038	0.000032	0.000023	1.489934	-9.313464	46.598286
59739	1.602108	0.303308	9.665020	-0.026767	0.047961	-0.011241	1.000000	-0.000048	0.000037	0.000023	1.484602	-9.309433	46.601061
59740	1.613011	0.281132	9.668225	-0.003978	0.039719	-0.006882	1.000000	-0.000039	0.000030	0.000007	1.485057	-9.313739	46.599249
59741	1.656397	0.306778	9.686570	0.004934	0.086929	0.018886	1.000000	-0.000050	0.000044	0.000015	1.479626	-9.308966	46.601085
59742	1.598760	0.296516	9.641428	-0.022858	0.044040	-0.035233	1.000000	-0.000042	0.000046	0.000014	1.481149	-9.313182	46.600445
59743	1.609648	0.274423	9.644628	0.000247	0.037240	-0.030881	1.000000	-0.000037	0.000023	0.000008	1.477329	-9.310872	46.601437
59744	1.621460	0.314128	9.686831	-0.024990	0.066209	0.013680	1.000000	-0.000059	0.000018	0.000017	1.478143	-9.316786	46.602199
59745	1.640277	0.316323	9.635925	-0.009457	0.088884	-0.033443	1.000000	-0.000030	0.000024	-0.000001	1.475336	-9.314374	46.602238
59746	1.632083	0.291179	9.690101	-0.001953	0.057368	0.018043	1.000000	-0.000046	0.000030	0.000023	1.477607	-9.319962	46.603001
59747	1.618763	0.307505	9.663130	-0.020570	0.063602	-0.010312	1.000000	-0.000041	0.000038	0.000015	1.473310	-9.316038	46.604851
59748	1.618048	0.306603	9.663278	-0.019919	0.062218	-0.010302	1.000000	-0.000048	0.000037	0.000015	1.475981	-9.315105	46.608190
59749	1.617422	0.305645	9.663413	-0.019885	0.062093	-0.010301	1.000000	-0.000046	0.000029	0.000016	1.471055	-9.312201	46.610118
59750	1.615587	0.300691	9.639513	-0.014888	0.060002	-0.034296	1.000000	-0.000043	0.000045	0.000006	1.475739	-9.312233	46.611285
59751	1.628624	0.286771	9.690815	-0.000623	0.053828	0.018063	1.000000	-0.000031	0.000033	0.000015	1.472593	-9.308926	46.613115
59752	1.594935	0.296028	9.690789	-0.030442	0.035630	0.012822	1.000000	-0.000048	0.000037	0.000015	1.472137	-9.311257	46.612613
59753	1.604882	0.269665	9.669904	-0.002911	0.028465	-0.006843	1.000000	-0.000050	0.000013	0.000025	1.466703	-9.310260	46.615577
59754	1.601763	0.318515	9.636950	-0.036809	0.062756	-0.038609	1.000000	-0.000039	0.000031	0.000015	1.476414	-9.311621	46.620068
59755	1.593380	0.293276	9.691128	-0.029171	0.033064	0.012835	1.000000	-0.000040	0.000039	0.000022	1.472211	-9.307676	46.622827
59756	1.625694	0.282200	9.691441	0.000825	0.047693	0.018095	1.000000	-0.000055	0.000035	0.000023	1.475406	-9.311729	46.624960
59757	1.601344	0.261912	9.646358	0.003072	0.023418	-0.030839	1.000000	-0.000039	0.000031	0.000015	1.471604	-9.308750	46.626850
59758	1.622863	0.334104	9.682727	-0.038593	0.082819	0.010355	1.000000	-0.000056	0.000034	0.000008	1.471630	-9.311459	46.626255
59759	1.632500	0.307848	9.661887	-0.011052	0.075628	-0.009318	1.000000	-0.000035	0.000048	0.000014	1.468286	-9.306619	46.628032
59760	1.610254	0.295858	9.664915	-0.018445	0.050836	-0.010233	1.000000	-0.000038	0.000032	0.000023	1.465502	-9.311749	46.626559
59761	1.642635	0.284901	9.665222	0.011306	0.067426	-0.004973	1.000000	-0.000048	0.000035	-0.000001	1.460844	-9.308348	46.626657
59762	1.608835	0.294086	9.665205	-0.018099	0.048375	-0.010220	1.000000	-0.000042	0.000046	0.000014	1.466397	-9.311626	46.628877
59763	1.629669	0.304505	9.662471	-0.011421	0.071652	-0.009288	1.000000	-0.000037	0.000023	0.000008	1.462951	-9.309723	46.629915
59764	1.607662	0.292517	9.665448	-0.016988	0.046722	-0.010210	1.000000	-0.000039	0.000031	0.000015	1.468862	-9.308013	46.634903
59765	1.629684	0.306900	9.686760	-0.014717	0.070292	0.014734	1.000000	-0.000046	0.000029	0.000016	1.464288	-9.305381	46.636858
59766	1.648330	0.309162	9.635927	0.000926	0.090735	-0.032328	1.000000	-0.000040	0.000039	0.000022	1.469979	-9.310801	46.638251
59767	1.614722	0.318456	9.635872	-0.028746	0.073742	-0.037592	1.000000	-0.000037	0.000023	0.000008	1.466683	-9.308955	46.639293
59768	1.625823	0.296329	9.639009	-0.004880	0.064321	-0.033247	1.000000	-0.000044	0.000022	0.000016	1.475955	-9.314950	46.643045
59769	1.583331	0.277101	9.668901	-0.022525	0.017408	-0.011129	1.000000	-0.000033	0.000042	0.000030	1.472850	-9.311113	46.646709
59770	1.625670	0.298629	9.663328	-0.008558	0.062933	-0.009226	1.000000	-0.000053	0.000027	0.000016	1.475205	-9.311308	46.649887
59771	1.592119	0.307720	9.663263	-0.038214	0.045910	-0.014493	1.000000	-0.000046	0.000029	0.000008	1.471018	-9.308883	46.650945
59772	1.636039	0.275381	9.666617	0.015242	0.054051	-0.004895	1.000000	-0.000048	0.000036	0.000007	1.476148	-9.310326	46.654245
59773	1.601233	0.280486	9.642517	-0.009996	0.036748	-0.034175	1.000000	-0.000048	0.000037	0.000023	1.471558	-9.306966	46.657092
59774	1.613232	0.262159	9.669738	0.009124	0.028649	-0.005844	1.000000	-0.000054	0.000027	0.000008	1.474036	-9.309212	46.658989
59775	1.622728	0.293763	9.663972	-0.007248	0.058559	-0.009198	1.000000	-0.000037	0.000024	0.000023	1.470761	-9.307358	46.661859
59776	1.623152	0.296957	9.688166	-0.011426	0.056433	0.014828	1.000000	-0.000043	0.000045	0.000006	1.476521	-9.311483	46.663002
59777	1.622332	0.296192	9.688327	-0.011358	0.056150	0.014829	1.000000	-0.000033	0.000040	0.000014	1.473886	-9.307847	46.664852
59778	1.606923	0.304607	9.613256	-0.020917	0.060217	-0.061502	1.000000	-0.000053	0.000027	0.000016	1.476346	-9.311568	46.666047
59779	1.643227	0.367257	9.724999	-0.052699	0.114844	0.056189	1.000000	-0.000055	0.000035	0.000015	1.471193	-9.308608	46.668045
59780	1.559481	0.268043	9.547000	-0.020199	0.010770	-0.135472	1.000000	-0.000046	0.000030	0.000031	1.474355	-9.308580	46.673945
59781	1.646714	0.323429	9.806345	-0.025621	0.076943	0.135885	1.000000	-0.000040	0.000038	0.000015	1.470959	-9.305192	46.675845
59782	1.617019	0.283655	9.640871	-0.001322	0.049532	-0.033160	1.000000	-0.000014	0.000030	0.000022	1.478236	-9.310933	46.676855
59783	1.596069	0.275649	9.667865	-0.012290	0.025986	-0.010126	1.000000	-0.000061	0.000026	0.000016	1.472531	-9.309098	46.678942
59784	1.608946	0.319262	9.734290	-0.042202	0.053415	0.058605	1.000000	-0.000026	0.000011	0.000016	1.482342	-9.323734	46.680482
59785	1.579428	0.279284	9.568784	-0.017920	0.027959	-0.110466	1.000000	-0.000057	0.000042	0.000007	1.477294	-9.320196	46.681561
59786	1.628710	0.266781	9.692448	0.014166	0.037853	0.019188	1.000000	-0.000044	0.000022	0.000016	1.483183	-9.318083	46.687208
59787	1.659799	0.309611	9.683898	0.004428	0.091155	0.016877	1.000000	-0.000044	0.000022	0.000016	1.479570	-9.316793	46.689246
59788	1.623093	0.306849	9.611615	-0.012337	0.071753	-0.060435	1.000000	-0.000046	0.000029	0.000016	1.480779	-9.322939	46.688892
59789	1.625730	0.317925	9.683930	-0.025476	0.072065	0.011605	1.000000	-0.000039	0.000031	0.000015	1.477836	-9.320667	46.690858
59790	1.656101	0.298993	9.636122	0.014125	0.086764	-0.031114	1.000000	-0.000044	0.000022	0.000024	1.483750	-9.320724	46.697005
59791	1.622462	0.308140	9.636051	-0.015501	0.069622	-0.036403	1.000000	-0.000050	0.000044	0.000015	1.479612	-9.316954	46.698947
59792	1.621617	0.307239	9.636222	-0.015281	0.067670	-0.036389	1.000000	-0.000043	0.000044	-0.000009	1.483808	-9.319375	46.698694
59793	1.621991	0.310260	9.660434	-0.019597	0.067505	-0.012373	1.000000	-0.000053	0.000028	0.000024	1.479137	-9.317503	46.701668
59794	1.612255	0.280768	9.690468	-0.006221	0.035594	0.014930	1.000000	-0.000037	0.000055	0.000013	1.488344	-9.314184	46.708228
59795	1.598741	0.297231	9.663577	-0.024808	0.041698	-0.013367	1.000000	-0.000050	0.000045	0.000022	1.484217	-9.310397	46.711082
59796	1.620530	0.311389	9.685014	-0.022265	0.062854	0.011676	1.000000	-0.000048	0.000037	0.000023	1.489981	-9.315736	46.713155
59797	1.597262	0.295233	9.663883	-0.024394	0.038771	-0.013353	1.000000	-0.000048	0.000037	0.000015	1.486273	-9.312924	46.715140
59798	1.596556	0.294238	9.664030	-0.024184	0.037850	-0.013349	1.000000	-0.000048	0.000038	0.000031	1.484870	-9.311752	46.718210
59799	1.608528	0.275990	9.691225	-0.005397	0.030940	0.014946	1.000000	-0.000037	0.000023	0.000008	1.482556	-9.310474	46.719304
59800	1.617001	0.303619	9.661481	-0.017872	0.059463	-0.012318	1.000000	-0.000053	0.000029	0.000039	1.479848	-9.315131	46.722819
59801	1.626741	0.277341	9.640563	0.009697	0.052164	-0.032051	1.000000	-0.000043	0.000045	0.000006	1.476889	-9.311354	46.723818
59802	1.616578	0.305593	9.685859	-0.022854	0.057098	0.011710	1.000000	-0.000055	0.000035	0.000015	1.476036	-9.319372	46.719883
59803	1.613805	0.296648	9.637866	-0.013979	0.056304	-0.036315	1.000000	-0.000048	0.000037	0.000015	1.472316	-9.316708	46.721888
59804	1.613037	0.295659	9.638024	-0.013248	0.053467	-0.036298	1.000000	-0.000050	0.000044	0.000015	1.481156	-9.320931	46.725319
59805	1.646350	0.288327	9.662484	0.012150	0.069971	-0.006967	1.000000	-0.000063	0.000034	0.000024	1.475708	-9.318704	46.728335
59806	1.602249	0.322538	9.683474	-0.043664	0.058655	0.007474	1.000000	-0.000055	0.000034	0.000008	1.480945	-9.315280	46.735035
59807	1.609730	0.288304	9.614436	-0.007304	0.050990	-0.060299	1.000000	-0.000053	0.000059	0.000014	1.476790	-9.310105	46.736937
59808	1.611959	0.298921	9.686837	-0.020501	0.050238	0.011753	1.000000	-0.000062	0.000034	0.000032	1.474058	-9.311767	46.739268
59809	1.598594	0.315312	9.659944	-0.039098	0.056319	-0.016528	1.000000	-0.000037	0.000054	-0.000003	1.472082	-9.307146	46.739292
59810	1.609369	0.293087	9.663081	-0.015082	0.047514	-0.012248	1.000000	-0.000051	0.000021	0.000024	1.478375	-9.310087	46.744612
59811	1.608685	0.292030	9.663227	-0.014978	0.047048	-0.012246	1.000000	-0.000052	0.000051	0.000014	1.474512	-9.305806	46.746552
59812	1.587425	0.283765	9.690205	-0.025945	0.020803	0.010724	1.000000	-0.000046	0.000029	0.000015	1.481045	-9.314882	46.748298
59813	1.607271	0.290154	9.663518	-0.014836	0.043640	-0.012230	1.000000	-0.000040	0.000038	0.000015	1.478528	-9.312185	46.750271
59814	1.638672	0.275215	9.639809	0.019587	0.058201	-0.030911	1.000000	-0.000044	0.000022	0.000024	1.482901	-9.317208	46.753472
59815	1.617782	0.266960	9.666719	0.008685	0.034374	-0.007959	1.000000	-0.000052	0.000019	0.000009	1.479262	-9.316720	46.754699
59816	1.626229	0.294722	9.637042	-0.002287	0.062649	-0.035155	1.000000	-0.000033	0.000040	0.000014	1.487245	-9.315163	46.760880
59817	1.638973	0.280306	9.688336	0.012145	0.055724	0.017135	1.000000	-0.000057	0.000042	0.000007	1.483058	-9.312126	46.762003
59818	1.613433	0.314146	9.634342	-0.025540	0.066195	-0.039389	1.000000	-0.000042	0.000015	0.000024	1.487386	-9.323002	46.762719
59819	1.636908	0.274516	9.664490	0.016358	0.052404	-0.006864	1.000000	-0.000040	0.000038	0.000015	1.485041	-9.320443	46.764708
59820	1.625786	0.298952	9.685725	-0.011489	0.057750	0.012909	1.000000	-0.000039	0.000031	0.000015	1.484708	-9.324793	46.764735
59821	1.602582	0.283037	9.664508	-0.013617	0.033620	-0.012188	1.000000	-0.000040	0.000038	0.000015	1.482353	-9.322277	46.766729
59822	1.603075	0.286153	9.688696	-0.017675	0.032798	0.011832	1.000000	-0.000035	0.000017	0.000024	1.483168	-9.323137	46.769092
59823	1.610518	0.310005	9.634964	-0.025278	0.062201	-0.039362	1.000000	-0.000050	0.000044	0.000015	1.479755	-9.319977	46.771098
59824	1.622381	0.291607	9.662152	-0.004991	0.053024	-0.011080	1.000000	-0.000044	0.000022	0.000016	1.491915	-9.322236	46.778993
59825	1.643468	0.302062	9.659532	0.001736	0.075957	-0.009983	1.000000	-0.000030	0.000024	-0.000001	1.491225	-9.321317	46.779185
59826	1.621513	0.290035	9.662345	-0.004346	0.049668	-0.011062	1.000000	-0.000051	0.000021	0.000032	1.498530	-9.328883	46.786296
59827	1.608544	0.306553	9.635404	-0.022938	0.055699	-0.039317	1.000000	-0.000039	0.000030	0.000007	1.496730	-9.327337	46.787418
59828	1.599866	0.280928	9.689380	-0.014139	0.023120	0.011865	1.000000	-0.000048	0.000037	0.000015	1.506265	-9.330049	46.791290
59829	1.607264	0.304800	9.635673	-0.021744	0.052519	-0.039296	1.000000	-0.000039	0.000031	0.000015	1.504445	-9.328493	46.793326
59830	1.608684	0.311772	9.683961	-0.028673	0.049920	0.008761	1.000000	-0.000038	0.000032	0.000023	1.518919	-9.329495	46.803506
59831	1.606013	0.303186	9.635933	-0.019786	0.049145	-0.039275	1.000000	-0.000041	0.000038	0.000007	1.517164	-9.327152	46.804596
59832	1.619778	0.292601	9.711292	-0.009320	0.041625	0.037016	1.000000	-0.000048	0.000037	0.000015	1.517877	-9.325689	46.807433
59833	1.606752	0.309124	9.684366	-0.027898	0.047635	0.008774	1.000000	-0.000044	0.000022	0.000016	1.515563	-9.325196	46.809544
59834	1.605201	0.304315	9.660404	-0.023300	0.045600	-0.015236	1.000000	-0.000048	0.000036	0.000007	1.518844	-9.328538	46.810361
59835	1.617965	0.289745	9.711679	-0.008794	0.038454	0.037030	1.000000	-0.000048	0.000037	0.000023	1.516025	-9.326339	46.813322
59836	1.604870	0.306248	9.684769	-0.026104	0.042627	0.008802	1.000000	-0.000046	0.000029	0.000015	1.526554	-9.327752	46.821613
59837	1.614855	0.280100	9.663753	0.001517	0.035244	-0.010999	1.000000	-0.000044	0.000022	0.000016	1.524381	-9.327311	46.823728
59838	1.614299	0.279161	9.663873	0.001768	0.033251	-0.010992	1.000000	-0.000048	0.000037	0.000015	1.527797	-9.330702	46.824244
59839	1.624787	0.314690	9.682439	-0.018939	0.062855	0.009954	1.000000	-0.000037	0.000024	0.000023	1.526395	-9.330046	46.827229
59840	1.633723	0.284580	9.637347	0.013437	0.053313	-0.033859	1.000000	-0.000063	0.000033	0.000016	1.532435	-9.335797	46.830673
59841	1.622700	0.308859	9.658601	-0.013862	0.059415	-0.014045	1.000000	-0.000029	0.000025	0.000015	1.532098	-9.335037	46.832709
59842	1.599547	0.292845	9.637328	-0.014798	0.035202	-0.039206	1.000000	-0.000064	0.000041	0.000023	1.532682	-9.328047	46.841467
59843	1.653340	0.292716	9.635088	0.021656	0.074830	-0.032705	1.000000	-0.000048	0.000037	0.000015	1.530246	-9.325954	46.843519
59844	1.618594	0.298042	9.610883	-0.004155	0.056644	-0.062071	1.000000	-0.000050	0.000044	0.000014	1.527627	-9.328707	46.842031
59845	1.619595	0.304628	9.659256	-0.012709	0.056092	-0.014023	1.000000	-0.000061	0.000058	0.000022	1.523568	-9.324270	46.844946
59846	1.610594	0.278607	9.713230	-0.004452	0.023808	0.037079	1.000000	-0.000055	0.000035	0.000015	1.527878	-9.327864	46.848418
59847	1.609888	0.277617	9.713376	-0.004284	0.023148	0.037080	1.000000	-0.000040	0.000039	0.000022	1.526206	-9.325592	46.851345
59848	1.608008	0.272965	9.689459	-0.000381	0.020700	0.013064	1.000000	-0.000037	0.000055	0.000013	1.529518	-9.331481	46.851109
59849	1.618141	0.308407	9.708129	-0.021088	0.050232	0.034053	1.000000	-0.000057	0.000042	0.000007	1.526203	-9.328946	46.852279
59850	1.574446	0.284998	9.713572	-0.033141	0.001648	0.031726	1.000000	-0.000044	0.000023	0.000032	1.532019	-9.328801	46.859880
59851	1.616519	0.244849	9.668718	0.028531	0.011020	-0.006758	1.000000	-0.000044	0.000022	0.000016	1.530111	-9.328549	46.862012
59852	1.615721	0.301684	9.684370	-0.015950	0.044440	0.010060	1.000000	-0.000044	0.000022	0.000016	1.536595	-9.343029	46.857470
59853	1.626815	0.279515	9.687394	0.007314	0.037048	0.014257	1.000000	-0.000035	0.000016	0.000008	1.535945	-9.343586	46.858693
59854	1.613970	0.296220	9.660459	-0.011514	0.041075	-0.013948	1.000000	-0.000046	0.000029	0.000015	1.540798	-9.352008	46.859550
59855	1.645629	0.281378	9.636745	0.022692	0.057141	-0.032588	1.000000	-0.000033	0.000009	0.000024	1.540141	-9.353391	46.862637
59856	1.611582	0.287059	9.612396	-0.002112	0.038894	-0.061983	1.000000	-0.000031	0.000001	0.000009	1.544642	-9.357447	46.865321
59857	1.644353	0.276084	9.612748	0.027739	0.054967	-0.056599	1.000000	-0.000044	0.000023	0.000032	1.542611	-9.357301	46.869299
59858	1.633285	0.300472	9.634032	-0.000029	0.058775	-0.036747	1.000000	-0.000033	0.000040	0.000006	1.549080	-9.366478	46.867385
59859	1.611142	0.288596	9.636793	-0.006457	0.034568	-0.037944	1.000000	-0.000037	0.000023	0.000008	1.548344	-9.366351	46.868595
59860	1.633138	0.302831	9.658359	-0.003925	0.055820	-0.012707	1.000000	-0.000039	0.000031	0.000015	1.553958	-9.371142	46.871067
59861	1.611985	0.294608	9.685211	-0.014704	0.031586	0.010112	1.000000	-0.000046	0.000029	0.000015	1.552072	-9.370370	46.873206
59862	1.610324	0.289814	9.661262	-0.011021	0.029700	-0.013906	1.000000	-0.000050	0.000044	0.000014	1.550872	-9.376240	46.871397
59863	1.620749	0.325301	9.679933	-0.031739	0.059105	0.007153	1.000000	-0.000037	0.000023	0.000008	1.550177	-9.376214	46.872620
59864	1.631620	0.303075	9.682984	-0.008021	0.051533	0.011340	1.000000	-0.000048	0.000037	0.000015	1.550598	-9.373312	46.875311
59865	1.619676	0.323580	9.680171	-0.030967	0.057480	0.007165	1.000000	-0.000035	0.000017	0.000024	1.549861	-9.374026	46.878386
59866	1.629711	0.297639	9.659100	-0.003134	0.048528	-0.012668	1.000000	-0.000039	0.000030	0.000007	1.556197	-9.378830	46.879243
59867	1.605240	0.335698	9.629291	-0.044832	0.061198	-0.045038	1.000000	-0.000048	0.000037	0.000015	1.554163	-9.377294	46.881360
59868	1.629395	0.299603	9.683467	-0.006489	0.045088	0.011372	1.000000	-0.000046	0.000030	0.000023	1.562864	-9.381885	46.889269
59869	1.638863	0.331262	9.678067	-0.022850	0.074489	0.008438	1.000000	-0.000041	0.000038	0.000007	1.561892	-9.380222	46.890435
59870	1.627247	0.293985	9.659627	-0.000323	0.043121	-0.012642	1.000000	-0.000052	0.000020	0.000016	1.567914	-9.376582	46.901298
59871	1.637668	0.329445	9.678331	-0.021024	0.072470	0.008458	1.000000	-0.000035	0.000048	0.000014	1.567518	-9.373777	46.903294
59872	1.613496	0.309742	9.632897	-0.018325	0.047715	-0.040820	1.000000	-0.000053	0.000029	0.000039	1.568838	-9.374071	46.909349
59873	1.647934	0.305958	9.681516	0.002849	0.063622	0.012637	1.000000	-0.000059	0.000018	0.000017	1.565657	-9.374644	46.911610
59874	1.604288	0.282591	9.686847	-0.009811	0.015304	0.010157	1.000000	-0.000040	0.000039	0.000022	1.568222	-9.374082	46.915761
59875	1.603652	0.281610	9.686980	-0.009631	0.014524	0.010158	1.000000	-0.000053	0.000028	0.000024	1.565581	-9.373555	46.918859
59876	1.613256	0.313070	9.681588	-0.026490	0.043622	0.007249	1.000000	-0.000054	0.000027	0.000008	1.562176	-9.376409	46.916538
59877	1.602578	0.279594	9.687217	-0.009782	0.012670	0.010160	1.000000	-0.000039	0.000031	0.000015	1.561364	-9.375531	46.918641
59878	1.610176	0.303678	9.633645	-0.016240	0.040844	-0.040785	1.000000	-0.000048	0.000037	0.000023	1.570209	-9.374832	46.928155
59879	1.610586	0.306471	9.657866	-0.020393	0.039987	-0.016756	1.000000	-0.000052	0.000018	-0.000007	1.568356	-9.375355	46.927640
59880	1.620591	0.280393	9.636780	0.007781	0.031378	-0.036623	1.000000	-0.000038	0.000033	0.000038	1.574536	-9.377333	46.936943
59881	1.642488	0.294521	9.658419	0.010202	0.053987	-0.011333	1.000000	-0.000039	0.000030	0.000007	1.573973	-9.376515	46.938135
59882	1.630927	0.257372	9.639915	0.031828	0.021906	-0.032471	1.000000	-0.000044	0.000021	0.000008	1.580120	-9.379674	46.943343
59883	1.629144	0.310474	9.631631	-0.007640	0.057959	-0.039489	1.000000	-0.000039	0.000030	0.000007	1.579603	-9.378872	46.944535
59884	1.629870	0.255704	9.640138	0.033026	0.019362	-0.032469	1.000000	-0.000046	0.000029	0.000008	1.585665	-9.379078	46.950667
59885	1.606314	0.297578	9.634480	-0.013004	0.031925	-0.040747	1.000000	-0.000042	0.000046	0.000014	1.584651	-9.376532	46.952709
59886	1.640363	0.293966	9.683173	0.008386	0.047897	0.012723	1.000000	-0.000048	0.000037	0.000023	1.582925	-9.373554	46.957733
59887	1.627349	0.310760	9.656307	-0.010201	0.053872	-0.015438	1.000000	-0.000031	0.000033	0.000015	1.583173	-9.372479	46.959791
59888	1.616592	0.277456	9.661905	0.007468	0.023333	-0.012578	1.000000	-0.000038	0.000033	0.000038	1.584425	-9.365937	46.971700
59889	1.583102	0.286794	9.661687	-0.021998	0.005733	-0.017988	1.000000	-0.000044	0.000022	0.000016	1.583172	-9.366078	46.973867
59890	1.616444	0.279380	9.686242	0.003511	0.019854	0.011457	1.000000	-0.000048	0.000037	0.000023	1.588406	-9.372303	46.976257
59891	1.604400	0.299807	9.683479	-0.019399	0.025722	0.007329	1.000000	-0.000046	0.000029	0.000008	1.587122	-9.371691	46.977487
59892	1.603813	0.299022	9.683601	-0.019922	0.023838	0.007333	1.000000	-0.000031	0.000033	0.000015	1.588595	-9.378154	46.977694
59893	1.635296	0.284177	9.659949	0.014275	0.039938	-0.011270	1.000000	-0.000053	0.000027	0.000016	1.586320	-9.377751	46.979884
59894	1.591291	0.318539	9.680951	-0.042424	0.028033	0.003213	1.000000	-0.000046	0.000029	0.000008	1.589417	-9.379971	46.982981
59895	1.623393	0.307460	9.681459	-0.012551	0.044014	0.008641	1.000000	-0.000039	0.000062	0.000013	1.588913	-9.375564	46.984924
59896	1.600052	0.291606	9.660077	-0.015013	0.019544	-0.016684	1.000000	-0.000053	0.000028	0.000024	1.585812	-9.378121	46.987462
59897	1.621866	0.305391	9.681780	-0.012586	0.042079	0.008649	1.000000	-0.000057	0.000042	0.000007	1.583266	-9.376094	46.988682
59898	1.586299	0.307149	9.633382	-0.034046	0.024110	-0.044832	1.000000	-0.000040	0.000039	0.000022	1.582064	-9.379588	46.989078
59899	1.607148	0.317400	9.630986	-0.027299	0.046772	-0.043521	1.000000	-0.000048	0.000037	0.000015	1.580439	-9.378188	46.991202
59900	1.619690	0.302425	9.682238	-0.013284	0.038486	0.008663	1.000000	-0.000055	0.000035	0.000023	1.577087	-9.381753	46.992926
59901	1.596587	0.286565	9.660801	-0.015324	0.014317	-0.016676	1.000000	-0.000039	0.000031	0.000015	1.576511	-9.381020	46.995041
59902	1.607930	0.325620	9.703737	-0.041238	0.044036	0.028569	1.000000	-0.000055	0.000035	0.000015	1.567464	-9.380607	46.994024
59903	1.616819	0.295760	9.658547	-0.009287	0.036811	-0.015358	1.000000	-0.000040	0.000040	0.000038	1.566231	-9.378892	46.998843
59904	1.627268	0.331281	9.677374	-0.030074	0.064952	0.005877	1.000000	-0.000029	0.000025	0.000015	1.570628	-9.383706	46.998211
59905	1.594079	0.282910	9.661323	-0.015560	0.010627	-0.016671	1.000000	-0.000063	0.000033	0.000016	1.567241	-9.382778	47.000425
59906	1.624393	0.321800	9.629401	-0.020958	0.063856	-0.042168	1.000000	-0.000044	0.000022	0.000024	1.565251	-9.381556	47.002594
59907	1.614652	0.291954	9.659025	-0.008539	0.032721	-0.015343	1.000000	-0.000053	0.000028	0.000024	1.562785	-9.381211	47.005706
59908	1.636647	0.305808	9.680726	-0.005975	0.055424	0.010015	1.000000	-0.000044	0.000022	0.000024	1.561247	-9.380054	47.007475
59909	1.625091	0.268607	9.662117	0.015094	0.024592	-0.011221	1.000000	-0.000046	0.000029	0.000015	1.559764	-9.379533	47.009631
59910	1.633794	0.296567	9.632736	0.004621	0.052036	-0.038020	1.000000	-0.000038	0.000032	0.000023	1.574391	-9.381220	47.022586
59911	1.601316	0.309516	9.656595	-0.029174	0.034243	-0.019434	1.000000	-0.000057	0.000012	0.000033	1.571437	-9.382734	47.026708
59912	1.645318	0.276733	9.659914	0.023822	0.043354	-0.009874	1.000000	-0.000054	0.000027	0.000008	1.570104	-9.383174	47.027908
59913	1.600579	0.307335	9.656787	-0.028774	0.032405	-0.019427	1.000000	-0.000050	0.000013	0.000025	1.568138	-9.384525	47.031077
59914	1.623699	0.267285	9.686754	0.015311	0.016653	0.012817	1.000000	-0.000042	0.000046	0.000014	1.581415	-9.380190	47.042869
59915	1.610642	0.283983	9.659932	-0.003294	0.022667	-0.015311	1.000000	-0.000055	0.000035	0.000023	1.578920	-9.378979	47.045944
59916	1.642903	0.272733	9.660439	0.026836	0.037770	-0.009859	1.000000	-0.000040	0.000039	0.000022	1.582792	-9.380028	47.050169
59917	1.620611	0.260684	9.663086	0.020503	0.013444	-0.011209	1.000000	-0.000048	0.000036	0.000007	1.581444	-9.378709	47.051381
59918	1.597259	0.302625	9.657485	-0.025580	0.025378	-0.019397	1.000000	-0.000037	0.000024	0.000023	1.583246	-9.381447	47.054642
59919	1.620559	0.262681	9.687406	0.016565	0.010990	0.012823	1.000000	-0.000042	0.000014	0.000016	1.582391	-9.382644	47.056857
59920	1.630321	0.294409	9.682147	0.000620	0.039359	0.010095	1.000000	-0.000039	0.000030	0.000007	1.587824	-9.384287	47.062290
59921	1.629816	0.293546	9.682258	0.000830	0.038507	0.010098	1.000000	-0.000044	0.000023	0.000032	1.586529	-9.384558	47.066298
59922	1.616250	0.306652	9.631265	-0.012303	0.043108	-0.042040	1.000000	-0.000044	0.000022	0.000016	1.597238	-9.387163	47.076914
59923	1.649580	0.299309	9.655860	0.013270	0.058858	-0.012550	1.000000	-0.000031	0.000032	0.000007	1.597918	-9.386310	47.078077
59924	1.625588	0.280002	9.610245	0.015512	0.034419	-0.061978	1.000000	-0.000048	0.000037	0.000015	1.598421	-9.387383	47.079693
59925	1.614291	0.304154	9.631673	-0.011702	0.040022	-0.042026	1.000000	-0.000042	0.000047	0.000030	1.597442	-9.384921	47.083573
59926	1.634903	0.314470	9.629381	-0.005770	0.061481	-0.040637	1.000000	-0.000037	0.000055	0.000013	1.598530	-9.389823	47.081170
59927	1.602035	0.269864	9.637400	0.004503	0.006976	-0.039317	1.000000	-0.000053	0.000059	0.000014	1.596549	-9.386006	47.083214
59928	1.612884	0.308852	9.680524	-0.020074	0.035861	0.006051	1.000000	-0.000037	0.000055	0.000013	1.598141	-9.380807	47.088572
59929	1.623271	0.286375	9.683573	0.003269	0.028321	0.010132	1.000000	-0.000066	0.000049	0.000030	1.594392	-9.378152	47.092547
59930	1.590111	0.299242	9.707522	-0.030220	0.010011	0.028703	1.000000	-0.000039	0.000062	0.000005	1.597007	-9.374667	47.093010
59931	1.568494	0.290986	9.734278	-0.040831	-0.014573	0.051345	1.000000	-0.000039	0.000031	0.000015	1.596726	-9.374023	47.095128
59932	1.631796	0.319956	9.702889	-0.015556	0.054947	0.031495	1.000000	-0.000039	0.000030	0.000007	1.602844	-9.369938	47.102874
59933	1.641674	0.294016	9.681749	0.012093	0.047639	0.011537	1.000000	-0.000048	0.000036	0.000007	1.601668	-9.368670	47.104088
59934	1.607359	0.299789	9.657348	-0.012709	0.030120	-0.017955	1.000000	-0.000035	0.000016	0.000016	1.603579	-9.368640	47.108436
59935	1.650906	0.324816	9.676669	-0.003729	0.075983	0.008878	1.000000	-0.000055	0.000034	0.000007	1.601552	-9.367569	47.109688
59936	1.606397	0.297958	9.657565	-0.011619	0.027185	-0.017945	1.000000	-0.000035	0.000017	0.000024	1.609259	-9.371137	47.116018
59937	1.616106	0.329652	9.652383	-0.028001	0.056462	-0.020599	1.000000	-0.000048	0.000037	0.000015	1.607999	-9.369829	47.118142
59938	1.627921	0.310983	9.679447	-0.008346	0.048012	0.007504	1.000000	-0.000041	0.000007	0.000017	1.612783	-9.372403	47.124370
59939	1.592987	0.313079	9.630881	-0.029191	0.030818	-0.046026	1.000000	-0.000044	0.000022	0.000024	1.611829	-9.372749	47.127464
59940	1.625454	0.301846	9.631384	0.000565	0.046220	-0.040552	1.000000	-0.000046	0.000030	0.000031	1.612176	-9.375072	47.129607
59941	1.637124	0.283018	9.658471	0.019644	0.038418	-0.012459	1.000000	-0.000053	0.000029	0.000031	1.610032	-9.374748	47.133624
59942	1.624998	0.303352	9.655797	-0.003616	0.043486	-0.016507	1.000000	-0.000052	0.000051	0.000014	1.609735	-9.376285	47.132957
59943	1.613862	0.269774	9.661252	0.013229	0.012451	-0.013872	1.000000	-0.000050	0.000044	0.000014	1.608307	-9.374164	47.135056
59944	1.588581	0.304395	9.607505	-0.024065	0.023383	-0.070035	1.000000	-0.000042	0.000046	0.000022	1.616727	-9.379995	47.137644
59945	1.580094	0.281824	9.685308	-0.020074	-0.008481	0.004687	1.000000	-0.000048	0.000037	0.000015	1.615555	-9.378768	47.139776
59946	1.601058	0.292000	9.683009	-0.013176	0.013428	0.006119	1.000000	-0.000046	0.000029	0.000015	1.617975	-9.380712	47.141823
59947	1.599595	0.287423	9.659013	-0.008660	0.012809	-0.017913	1.000000	-0.000048	0.000036	0.000007	1.616953	-9.379537	47.143045
59948	1.631691	0.276198	9.659587	0.021199	0.027821	-0.012427	1.000000	-0.000044	0.000054	0.000021	1.619671	-9.380385	47.143897
59949	1.608472	0.260511	9.638039	0.019196	0.003722	-0.037900	1.000000	-0.000046	0.000029	0.000015	1.618739	-9.380039	47.146060
59950	1.598156	0.288242	9.683601	-0.012485	0.006831	0.006127	1.000000	-0.000048	0.000036	0.000007	1.625215	-9.388688	47.142503
59951	1.617462	0.291183	9.633058	0.002827	0.029992	-0.040489	1.000000	-0.000046	0.000029	0.000015	1.624323	-9.388396	47.144673
59952	1.585459	0.307830	9.681054	-0.035763	0.012579	0.002087	1.000000	-0.000042	0.000045	0.000006	1.617695	-9.384755	47.141910
59953	1.596148	0.285699	9.684008	-0.012400	0.004997	0.006128	1.000000	-0.000030	0.000024	-0.000001	1.618951	-9.384970	47.142205
59954	1.618058	0.299690	9.705837	-0.007941	0.028019	0.031618	1.000000	-0.000046	0.000029	0.000015	1.623685	-9.373467	47.156455
59955	1.595133	0.284092	9.684222	-0.009938	0.003930	0.006132	1.000000	-0.000037	0.000024	0.000015	1.623848	-9.373741	47.158604
59956	1.594668	0.283404	9.684319	-0.009628	0.002020	0.006133	1.000000	-0.000029	0.000025	0.000015	1.629235	-9.377838	47.161210
59957	1.615710	0.293900	9.682026	-0.002877	0.024594	0.007593	1.000000	-0.000031	0.000033	0.000015	1.630070	-9.377076	47.163293
59958	1.614329	0.289646	9.658007	0.001954	0.024017	-0.016439	1.000000	-0.000029	0.000026	0.000023	1.632280	-9.375759	47.167256
59959	1.602505	0.310365	9.655290	-0.020944	0.029774	-0.020464	1.000000	-0.000037	0.000024	0.000023	1.632335	-9.376002	47.170316
59960	1.601931	0.309488	9.655413	-0.020789	0.028421	-0.020459	1.000000	-0.000048	0.000037	0.000015	1.632688	-9.377070	47.169730
59961	1.634299	0.298414	9.655955	0.009100	0.044329	-0.014963	1.000000	-0.000030	0.000024	-0.000001	1.634007	-9.377240	47.170017
59962	1.600820	0.308036	9.655644	-0.019555	0.026262	-0.020451	1.000000	-0.000039	0.000031	0.000015	1.638673	-9.375115	47.176302
59963	1.611654	0.285829	9.658568	0.003830	0.018687	-0.016428	1.000000	-0.000037	0.000024	0.000015	1.638891	-9.375399	47.178449
59964	1.621334	0.317532	9.653487	-0.012126	0.047876	-0.018968	1.000000	-0.000048	0.000036	0.000007	1.640079	-9.372695	47.183350
59965	1.600725	0.312738	9.704277	-0.026917	0.022819	0.027631	1.000000	-0.000039	0.000030	0.000007	1.640234	-9.372160	47.184556
59966	1.599359	0.308213	9.680263	-0.022911	0.022566	0.003596	1.000000	-0.000053	0.000027	0.000016	1.634991	-9.372613	47.184726
59967	1.620388	0.318471	9.678004	-0.016162	0.045141	0.005079	1.000000	-0.000031	0.000033	0.000015	1.635847	-9.371831	47.186805
59968	1.631275	0.296361	9.680911	0.006767	0.037395	0.009099	1.000000	-0.000035	0.000016	0.000008	1.635069	-9.375573	47.181236
59969	1.619487	0.317055	9.678201	-0.016132	0.043151	0.005088	1.000000	-0.000039	0.000030	0.000007	1.635193	-9.375051	47.182442
59970	1.618210	0.312462	9.654177	-0.012207	0.042134	-0.018942	1.000000	-0.000059	0.000019	0.000032	1.631801	-9.380152	47.181433
59971	1.629909	0.293522	9.681228	0.006905	0.034211	0.009110	1.000000	-0.000046	0.000029	0.000015	1.630928	-9.379818	47.183591
59972	1.649291	0.296452	9.630717	0.022510	0.056695	-0.037461	1.000000	-0.000055	0.000035	0.000015	1.633594	-9.380897	47.186819
59973	1.616517	0.309369	9.654560	-0.011164	0.038617	-0.018926	1.000000	-0.000038	0.000032	0.000031	1.633332	-9.380284	47.190762
59974	1.660171	0.276626	9.657931	0.042607	0.048337	-0.009414	1.000000	-0.000055	0.000035	0.000023	1.632583	-9.374216	47.197540
59975	1.635275	0.311314	9.604195	0.005089	0.061467	-0.065494	1.000000	-0.000046	0.000029	0.000015	1.631737	-9.373862	47.199694
59976	1.605173	0.277376	9.684266	0.003156	0.005750	0.007622	1.000000	-0.000048	0.000038	0.000031	1.632919	-9.371146	47.206671
59977	1.613087	0.301722	9.630992	-0.004719	0.035705	-0.042949	1.000000	-0.000057	0.000042	0.000007	1.630949	-9.369331	47.207895
59978	1.646820	0.297385	9.679879	0.016436	0.050568	0.010636	1.000000	-0.000057	0.000043	0.000023	1.629058	-9.369704	47.210207
59979	1.602054	0.270508	9.660606	0.007936	0.003052	-0.016413	1.000000	-0.000048	0.000037	0.000015	1.628016	-9.368500	47.212333
59980	1.623753	0.284204	9.682540	0.010265	0.025654	0.009133	1.000000	-0.000048	0.000037	0.000023	1.624526	-9.366184	47.213556
59981	1.590825	0.297085	9.706396	-0.023394	0.007556	0.027664	1.000000	-0.000050	0.000044	0.000014	1.623265	-9.364123	47.215651
59982	1.622296	0.282154	9.682844	0.010579	0.023444	0.009139	1.000000	-0.000053	0.000027	0.000016	1.622346	-9.366334	47.216710
59983	1.599267	0.266514	9.661178	0.008578	-0.000578	-0.016414	1.000000	-0.000040	0.000039	0.000022	1.622014	-9.364885	47.219708
59984	1.609577	0.301861	9.680340	-0.012236	0.027116	0.005151	1.000000	-0.000033	0.000040	0.000014	1.626698	-9.368939	47.220876
59985	1.607973	0.297548	9.656358	-0.007737	0.026579	-0.018883	1.000000	-0.000042	0.000045	0.000006	1.626446	-9.366748	47.222026
59986	1.618657	0.275209	9.659279	0.016605	0.018411	-0.014890	1.000000	-0.000044	0.000023	0.000031	1.632107	-9.365903	47.230382
59987	1.608382	0.302876	9.704890	-0.014797	0.023382	0.029200	1.000000	-0.000039	0.000031	0.000015	1.632163	-9.365361	47.232497
59988	1.617610	0.273621	9.659499	0.017809	0.016204	-0.014888	1.000000	-0.000029	0.000026	0.000023	1.637752	-9.364195	47.238548
59989	1.605741	0.294341	9.656828	-0.005086	0.021948	-0.018870	1.000000	-0.000038	0.000032	0.000023	1.637696	-9.363605	47.241573
59990	1.605949	0.297028	9.681092	-0.009543	0.020479	0.005170	1.000000	-0.000046	0.000028	-0.000000	1.635791	-9.365838	47.239193
59991	1.614963	0.325210	9.651953	-0.021694	0.050103	-0.021309	1.000000	-0.000037	0.000024	0.000023	1.635930	-9.366107	47.242247
59992	1.604760	0.295544	9.681335	-0.009211	0.017864	0.005176	1.000000	-0.000028	0.000048	-0.000010	1.640080	-9.367567	47.239513
59993	1.625756	0.306029	9.679137	-0.002466	0.040422	0.006722	1.000000	-0.000035	0.000017	0.000024	1.640434	-9.368704	47.242595
59994	1.612459	0.319577	9.628169	-0.016798	0.046005	-0.045324	1.000000	-0.000046	0.000029	0.000007	1.644036	-9.372351	47.242585
59995	1.613454	0.325728	9.676581	-0.025045	0.044255	0.002758	1.000000	-0.000046	0.000029	0.000007	1.643410	-9.372093	47.243829
59996	1.623438	0.299891	9.655334	0.001986	0.036020	-0.017298	1.000000	-0.000039	0.000031	0.000015	1.645079	-9.378592	47.242331
59997	1.611527	0.320549	9.652684	-0.020916	0.041755	-0.021268	1.000000	-0.000039	0.000031	0.000015	1.645182	-9.378121	47.244453
59998	1.600626	0.287267	9.657890	-0.004585	0.010315	-0.018850	1.000000	-0.000031	0.000033	0.000015	1.645111	-9.381251	47.241676
59999	1.632163	0.329890	9.650599	-0.014494	0.063014	-0.019696	1.000000	-0.000072	0.000007	0.000018	1.641332	-9.383527	47.244040
60000	1.632738	0.274809	9.658555	0.024871	0.025064	-0.013310	1.000000	-0.000033	0.000040	0.000014	1.639896	-9.385553	47.239479
60001	1.642981	0.310129	9.677792	0.004215	0.053854	0.008326	1.000000	-0.000042	0.000045	0.000006	1.639704	-9.383457	47.240638
60002	1.630947	0.330681	9.675174	-0.018873	0.059372	0.004361	1.000000	-0.000046	0.000030	0.000023	1.638879	-9.384840	47.243276
60003	1.619996	0.297211	9.680378	-0.001987	0.028283	0.006764	1.000000	-0.000040	0.000039	0.000022	1.638621	-9.383520	47.246285
60004	1.629651	0.328877	9.675454	-0.018217	0.056931	0.004377	1.000000	-0.000046	0.000029	0.000015	1.640913	-9.385029	47.247018
60005	1.618663	0.295257	9.680661	-0.001329	0.025838	0.006771	1.000000	-0.000057	0.000043	0.000023	1.638750	-9.383280	47.250073
60006	1.617298	0.290719	9.656645	0.002896	0.024796	-0.017263	1.000000	-0.000044	0.000021	0.000008	1.639390	-9.387343	47.247878
60007	1.638296	0.300882	9.654491	0.009633	0.047337	-0.015677	1.000000	-0.000050	0.000044	0.000014	1.638221	-9.385441	47.249986
60008	1.604736	0.310279	9.654150	-0.019707	0.028824	-0.021219	1.000000	-0.000044	0.000022	0.000016	1.641071	-9.389122	47.253187
60009	1.614652	0.284426	9.632896	0.007923	0.021661	-0.041293	1.000000	-0.000042	0.000046	0.000022	1.640638	-9.386987	47.256172
60010	1.636984	0.301602	9.679077	0.005961	0.043867	0.008375	1.000000	-0.000048	0.000037	0.000015	1.636435	-9.384301	47.257884
60011	1.613929	0.285944	9.657351	0.003945	0.019902	-0.017252	1.000000	-0.000055	0.000035	0.000023	1.634476	-9.383418	47.260967
60012	1.613299	0.284977	9.657485	0.004290	0.018106	-0.017249	1.000000	-0.000039	0.000031	0.000015	1.638505	-9.386281	47.263091
60013	1.612727	0.284112	9.657606	0.004527	0.017163	-0.017247	1.000000	-0.000046	0.000029	0.000015	1.637758	-9.386094	47.265254
60014	1.612118	0.283085	9.657738	0.004481	0.016119	-0.017246	1.000000	-0.000055	0.000035	0.000015	1.635110	-9.386838	47.264578
60015	1.612072	0.285656	9.682048	0.000476	0.014708	0.006794	1.000000	-0.000035	0.000048	0.000014	1.635662	-9.384546	47.266613
60016	1.610578	0.281402	9.658044	0.005077	0.014141	-0.017243	1.000000	-0.000038	0.000032	0.000023	1.636544	-9.384031	47.269250
60017	1.598575	0.301894	9.655438	-0.017835	0.019873	-0.021193	1.000000	-0.000057	0.000042	0.000007	1.634663	-9.382395	47.270483
60018	1.610010	0.282896	9.682472	0.002091	0.011067	0.006799	1.000000	-0.000044	0.000022	0.000016	1.640391	-9.383031	47.275032
60019	1.597453	0.300104	9.655680	-0.016581	0.017272	-0.021186	1.000000	-0.000031	0.000033	0.000015	1.641382	-9.382434	47.277121
60020	1.630510	0.292494	9.680449	0.008291	0.032961	0.008415	1.000000	-0.000039	0.000031	0.000015	1.636857	-9.383799	47.274672
60021	1.617886	0.309689	9.653672	-0.010384	0.039174	-0.019567	1.000000	-0.000039	0.000031	0.000015	1.636968	-9.383415	47.276797
60022	1.607760	0.279917	9.682933	0.002165	0.007330	0.006802	1.000000	-0.000030	0.000024	-0.000001	1.638991	-9.385290	47.275929
60023	1.595803	0.300595	9.680320	-0.020747	0.013060	0.002859	1.000000	-0.000050	0.000044	0.000014	1.637837	-9.383420	47.278036
60024	1.616806	0.310736	9.678208	-0.015233	0.035232	0.004484	1.000000	-0.000044	0.000022	0.000016	1.633412	-9.390516	47.271255
60025	1.648504	0.296036	9.654663	0.018882	0.051575	-0.013978	1.000000	-0.000038	0.000032	0.000023	1.633369	-9.390127	47.274294
60026	1.604570	0.330487	9.675679	-0.037860	0.040029	0.000548	1.000000	-0.000042	0.000015	0.000024	1.633084	-9.391340	47.278391
60027	1.614800	0.304654	9.654349	-0.010243	0.032900	-0.019544	1.000000	-0.000044	0.000022	0.000016	1.632523	-9.392042	47.280581
60028	1.614243	0.303705	9.654472	-0.010282	0.032269	-0.019541	1.000000	-0.000048	0.000037	0.000023	1.628958	-9.390734	47.281338
60029	1.624909	0.281268	9.657345	0.013097	0.024645	-0.015598	1.000000	-0.000046	0.000029	0.000015	1.628179	-9.390584	47.283499
60030	1.635471	0.316453	9.676642	-0.007423	0.052921	0.006144	1.000000	-0.000037	0.000023	0.000008	1.630955	-9.392422	47.285090
60031	1.633357	0.308815	9.628464	0.001277	0.052990	-0.041928	1.000000	-0.000035	0.000048	0.000014	1.631490	-9.390167	47.287126
60032	1.633273	0.311426	9.652785	-0.002704	0.050879	-0.017881	1.000000	-0.000048	0.000037	0.000015	1.633270	-9.391915	47.287854
60033	1.632770	0.310566	9.652898	-0.002474	0.049932	-0.017876	1.000000	-0.000035	0.000017	0.000024	1.633641	-9.393234	47.290945
60034	1.610562	0.298596	9.655247	-0.008348	0.025605	-0.019520	1.000000	-0.000050	0.000044	0.000014	1.633790	-9.389416	47.297073
60035	1.631500	0.308717	9.653172	-0.001624	0.048135	-0.017867	1.000000	-0.000046	0.000029	0.000015	1.633034	-9.389271	47.299233
60036	1.631637	0.311284	9.677457	-0.005584	0.046303	0.006178	1.000000	-0.000038	0.000032	0.000023	1.634627	-9.390298	47.299645
60037	1.608718	0.295883	9.655637	-0.007613	0.022401	-0.019511	1.000000	-0.000046	0.000029	0.000007	1.634012	-9.390197	47.300894
60038	1.617825	0.324011	9.626656	-0.018951	0.051811	-0.045814	1.000000	-0.000053	0.000027	0.000016	1.637509	-9.388209	47.308251
60039	1.629233	0.304888	9.653677	0.000209	0.043656	-0.017846	1.000000	-0.000055	0.000034	0.000007	1.635853	-9.387453	47.309507
60040	1.606964	0.292820	9.656023	-0.005810	0.019072	-0.019503	1.000000	-0.000038	0.000033	0.000038	1.637238	-9.386730	47.316389
60041	1.605505	0.288316	9.632020	-0.001347	0.018659	-0.043541	1.000000	-0.000067	0.000047	-0.000001	1.634459	-9.384517	47.316716
60042	1.638386	0.280321	9.656854	0.024344	0.033677	-0.013912	1.000000	-0.000039	0.000031	0.000015	1.635961	-9.385291	47.320370
60043	1.604838	0.289757	9.656469	-0.005060	0.015926	-0.019497	1.000000	-0.000055	0.000035	0.000015	1.634179	-9.384499	47.322536
60044	1.604191	0.288863	9.656603	-0.004721	0.014563	-0.019495	1.000000	-0.000031	0.000033	0.000022	1.637141	-9.385278	47.325617
60045	1.581815	0.276938	9.658946	-0.010968	-0.009865	-0.021168	1.000000	-0.000050	0.000044	0.000014	1.636019	-9.383435	47.327722
60046	1.634965	0.273311	9.633256	0.029105	0.029822	-0.037939	1.000000	-0.000039	0.000031	0.000015	1.634673	-9.385953	47.327395
60047	1.634946	0.275833	9.657566	0.025117	0.028320	-0.013897	1.000000	-0.000050	0.000044	0.000014	1.633543	-9.384121	47.329500
60048	1.601948	0.288657	9.681362	-0.008227	0.009794	0.004551	1.000000	-0.000048	0.000037	0.000015	1.634730	-9.382950	47.332782
60049	1.601392	0.287717	9.681482	-0.007989	0.008840	0.004552	1.000000	-0.000044	0.000022	0.000016	1.634220	-9.383662	47.334965
60050	1.621861	0.294467	9.655241	0.003584	0.032079	-0.017802	1.000000	-0.000046	0.000029	0.000015	1.635646	-9.380332	47.340294
60051	1.600263	0.285911	9.681722	-0.006877	0.007087	0.004554	1.000000	-0.000040	0.000038	0.000014	1.635591	-9.379125	47.342386
60052	1.598985	0.281708	9.657678	-0.002547	0.006490	-0.019485	1.000000	-0.000037	0.000024	0.000015	1.636226	-9.381034	47.343824
60053	1.620108	0.292004	9.655610	0.004174	0.029016	-0.017792	1.000000	-0.000038	0.000032	0.000023	1.636239	-9.380644	47.346855
60054	1.619548	0.291043	9.655733	0.003956	0.027769	-0.017789	1.000000	-0.000053	0.000028	0.000023	1.633720	-9.383765	47.346202
60055	1.585907	0.300514	9.655348	-0.025446	0.010016	-0.023387	1.000000	-0.000035	0.000049	0.000029	1.634041	-9.381445	47.350057
60056	1.596511	0.278195	9.658189	-0.001001	0.001846	-0.019483	1.000000	-0.000044	0.000022	0.000016	1.640319	-9.380315	47.357348
60057	1.585452	0.302077	9.679758	-0.028131	0.006985	0.000660	1.000000	-0.000053	0.000028	0.000023	1.638641	-9.380340	47.360447
60058	1.626742	0.316550	9.627228	-0.006581	0.053558	-0.044008	1.000000	-0.000033	0.000040	0.000014	1.641510	-9.381796	47.361049
60059	1.638026	0.297635	9.654236	0.012605	0.045343	-0.016067	1.000000	-0.000046	0.000030	0.000023	1.640695	-9.381625	47.364114
60060	1.603772	0.303832	9.629665	-0.012742	0.028030	-0.045707	1.000000	-0.000033	0.000040	0.000014	1.641390	-9.381505	47.365904
60061	1.604459	0.309794	9.678137	-0.020925	0.025891	0.002377	1.000000	-0.000046	0.000030	0.000023	1.640573	-9.381338	47.368969
60062	1.624934	0.316633	9.651924	-0.010180	0.048886	-0.019945	1.000000	-0.000037	0.000023	0.000007	1.640754	-9.383128	47.370308
60063	1.581861	0.297107	9.680500	-0.027105	0.000379	0.000665	1.000000	-0.000037	0.000024	0.000023	1.640995	-9.383608	47.373365
60064	1.623881	0.315141	9.652150	-0.009646	0.046639	-0.019933	1.000000	-0.000033	0.000040	0.000014	1.643406	-9.383439	47.375825
60065	1.623241	0.314271	9.652286	-0.009406	0.045681	-0.019929	1.000000	-0.000054	0.000027	0.000008	1.642006	-9.383560	47.377101
60066	1.612908	0.284044	9.681433	0.003276	0.014070	0.006279	1.000000	-0.000048	0.000038	0.000030	1.640291	-9.382205	47.382593
60067	1.600294	0.301092	9.654716	-0.015435	0.020392	-0.021647	1.000000	-0.000055	0.000035	0.000015	1.638548	-9.381436	47.384754
60068	1.622002	0.314515	9.676878	-0.012145	0.041966	0.004128	1.000000	-0.000046	0.000029	0.000015	1.642649	-9.379630	47.391023
60069	1.631380	0.285335	9.631350	0.019671	0.035562	-0.040069	1.000000	-0.000046	0.000029	0.000015	1.641984	-9.379497	47.393174
60070	1.620156	0.309237	9.652967	-0.006922	0.040552	-0.019904	1.000000	-0.000048	0.000037	0.000023	1.643756	-9.376821	47.400074
60071	1.598534	0.300567	9.679409	-0.017348	0.015498	0.002406	1.000000	-0.000046	0.000029	0.000015	1.643101	-9.376680	47.402224
60072	1.630153	0.285796	9.655927	0.016658	0.031752	-0.016019	1.000000	-0.000048	0.000038	0.000030	1.642519	-9.376839	47.408136
60073	1.595654	0.291899	9.631383	-0.008526	0.014609	-0.045673	1.000000	-0.000046	0.000060	0.000005	1.642042	-9.373135	47.409238
60074	1.628447	0.283835	9.656272	0.017363	0.029004	-0.016012	1.000000	-0.000051	0.000021	0.000032	1.644751	-9.376721	47.414504
60075	1.627924	0.282741	9.656392	0.017609	0.028043	-0.016009	1.000000	-0.000055	0.000034	0.000007	1.643187	-9.375985	47.415752
60076	1.616770	0.249123	9.661351	0.033833	-0.003027	-0.013883	1.000000	-0.000050	0.000044	0.000014	1.638823	-9.376856	47.414596
60077	1.627035	0.284118	9.680883	0.013180	0.025522	0.008038	1.000000	-0.000040	0.000039	0.000022	1.638685	-9.375646	47.417599
60078	1.626332	0.283133	9.681030	0.013848	0.024522	0.008039	1.000000	-0.000055	0.000035	0.000015	1.638978	-9.373362	47.421211
60079	1.603977	0.271103	9.683288	0.007628	0.000082	0.006286	1.000000	-0.000040	0.000038	0.000007	1.639120	-9.372217	47.422390
60080	1.613581	0.302828	9.678658	-0.008970	0.029087	0.004178	1.000000	-0.000042	0.000046	0.000022	1.638864	-9.371493	47.424476
60081	1.612842	0.301976	9.678808	-0.008725	0.028123	0.004181	1.000000	-0.000038	0.000031	0.000023	1.638936	-9.371129	47.427502
60082	1.601629	0.326101	9.700432	-0.035508	0.033217	0.024363	1.000000	-0.000031	0.000032	0.000007	1.641444	-9.369138	47.431326
60083	1.611641	0.300448	9.679055	-0.007900	0.026235	0.004187	1.000000	-0.000046	0.000030	0.000031	1.640527	-9.368936	47.435295
60084	1.588780	0.285081	9.657103	-0.009580	0.001549	-0.021618	1.000000	-0.000046	0.000029	0.000015	1.645002	-9.371346	47.440598
60085	1.631514	0.306418	9.653027	0.003589	0.047540	-0.018077	1.000000	-0.000031	0.000033	0.000015	1.646089	-9.370814	47.442680
60086	1.609718	0.297996	9.679451	-0.006832	0.022431	0.004197	1.000000	-0.000035	0.000048	0.000021	1.646591	-9.368637	47.445543
60087	1.608491	0.293856	9.655398	-0.002392	0.022129	-0.019843	1.000000	-0.000042	0.000014	0.000016	1.646371	-9.370214	47.447740
60088	1.608583	0.296167	9.679696	-0.006649	0.020435	0.004202	1.000000	-0.000057	0.000043	0.000023	1.643228	-9.370091	47.448281
60089	1.596702	0.316803	9.677161	-0.029570	0.026136	0.000350	1.000000	-0.000030	0.000024	-0.000001	1.644785	-9.370484	47.448565
60090	1.606865	0.291206	9.655749	-0.001640	0.018627	-0.019836	1.000000	-0.000044	0.000023	0.000031	1.647716	-9.372221	47.455684
60091	1.606450	0.290291	9.655845	-0.001392	0.017662	-0.019834	1.000000	-0.000044	0.000021	0.000008	1.647436	-9.372992	47.456946
60092	1.606584	0.292790	9.680131	-0.005680	0.015735	0.004211	1.000000	-0.000039	0.000030	0.000007	1.647425	-9.375311	47.456542
60093	1.616499	0.324606	9.675494	-0.022144	0.044910	0.002154	1.000000	-0.000037	0.000023	0.000007	1.647998	-9.375885	47.457770
60094	1.605555	0.291270	9.680347	-0.005709	0.013383	0.004214	1.000000	-0.000039	0.000031	0.000015	1.647612	-9.379447	47.457722
60095	1.626935	0.301530	9.678341	0.000994	0.035889	0.006011	1.000000	-0.000039	-0.000000	0.000017	1.647798	-9.382753	47.459971
60096	1.647723	0.308317	9.652158	0.011538	0.059125	-0.016230	1.000000	-0.000053	0.000028	0.000023	1.644483	-9.384037	47.461444
60097	1.636874	0.274818	9.656991	0.028492	0.028015	-0.014179	1.000000	-0.000035	0.000017	0.000024	1.644974	-9.385407	47.464521
60098	1.580990	0.327523	9.651201	-0.047016	0.022883	-0.027508	1.000000	-0.000040	0.000038	0.000007	1.648861	-9.386439	47.467599
60099	1.613945	0.319536	9.676089	-0.021333	0.038025	0.002185	1.000000	-0.000044	0.000021	0.000008	1.648579	-9.387242	47.468862
60100	1.635908	0.275658	9.681510	0.025371	0.024302	0.009868	1.000000	-0.000038	0.000031	0.000023	1.646868	-9.383934	47.473761
60101	1.612939	0.317813	9.676314	-0.020725	0.036665	0.002192	1.000000	-0.000044	0.000022	0.000023	1.646304	-9.384655	47.476844
60102	1.623080	0.291976	9.654896	0.006566	0.029753	-0.018009	1.000000	-0.000053	0.000028	0.000023	1.643240	-9.385882	47.477957
60103	1.622506	0.291100	9.655019	0.006809	0.028787	-0.018006	1.000000	-0.000031	0.000033	0.000015	1.644316	-9.385381	47.480038
60104	1.643550	0.301200	9.653094	0.013592	0.051600	-0.016190	1.000000	-0.000063	0.000033	0.000015	1.640933	-9.383193	47.484978
60105	1.632603	0.267768	9.657912	0.030554	0.020494	-0.014167	1.000000	-0.000020	0.000020	0.000023	1.643130	-9.384144	47.487986
60106	1.620839	0.288570	9.655375	0.007819	0.026668	-0.018001	1.000000	-0.000048	0.000037	0.000015	1.641231	-9.380382	47.490659
60107	1.629927	0.316801	9.626650	-0.004475	0.056561	-0.044054	1.000000	-0.000057	0.000042	0.000007	1.639459	-9.378814	47.491872
60108	1.620006	0.289865	9.679860	0.003776	0.024074	0.006047	1.000000	-0.000039	0.000030	0.000007	1.638074	-9.379720	47.492044
60109	1.618153	0.282428	9.631625	0.012382	0.024548	-0.042036	1.000000	-0.000048	0.000036	0.000007	1.637354	-9.378799	47.493248
60110	1.639635	0.295949	9.653922	0.015107	0.045906	-0.016164	1.000000	-0.000035	0.000047	0.000006	1.640833	-9.377667	47.495507
60111	1.617870	0.287222	9.680296	0.004721	0.020742	0.006054	1.000000	-0.000061	0.000026	0.000016	1.638475	-9.377974	47.497712
60112	1.584490	0.296768	9.679803	-0.024329	0.003027	0.000399	1.000000	-0.000029	0.000025	0.000015	1.640928	-9.376742	47.502224
60113	1.638418	0.296478	9.678500	0.011986	0.042350	0.007890	1.000000	-0.000057	0.000042	0.000007	1.639161	-9.375173	47.503435
60114	1.626042	0.313783	9.651799	-0.006553	0.048626	-0.019971	1.000000	-0.000035	0.000017	0.000024	1.641199	-9.376348	47.507068
60115	1.615809	0.283732	9.680743	0.006244	0.016789	0.006060	1.000000	-0.000037	0.000024	0.000015	1.641621	-9.376881	47.509199
60116	1.591007	0.316090	9.603033	-0.028175	0.031232	-0.073709	1.000000	-0.000048	0.000037	0.000015	1.637588	-9.379878	47.504396
60117	1.603301	0.303487	9.678375	-0.017290	0.021388	0.002243	1.000000	-0.000040	0.000038	0.000014	1.637591	-9.378725	47.506477
60118	1.602748	0.302560	9.678496	-0.017472	0.020272	0.002245	1.000000	-0.000052	0.000019	0.000008	1.635160	-9.382058	47.505153
60119	1.623272	0.309380	9.652408	-0.006604	0.043525	-0.019947	1.000000	-0.000040	0.000040	0.000038	1.634745	-9.380809	47.509967
60120	1.600786	0.297466	9.654592	-0.012389	0.019645	-0.021793	1.000000	-0.000042	0.000045	0.000006	1.634291	-9.374747	47.514960
60121	1.600643	0.299903	9.678927	-0.016321	0.017936	0.002252	1.000000	-0.000038	0.000031	0.000023	1.634352	-9.374400	47.517973
60122	1.620407	0.303577	9.628683	-0.001933	0.041388	-0.043977	1.000000	-0.000042	0.000046	0.000022	1.633391	-9.377390	47.515368
60123	1.599113	0.298124	9.679235	-0.016491	0.015444	0.002256	1.000000	-0.000048	0.000037	0.000015	1.632527	-9.376451	47.517479
60124	1.631373	0.286674	9.679985	0.012871	0.030973	0.007931	1.000000	-0.000046	0.000030	0.000023	1.630775	-9.379655	47.520361
60125	1.597849	0.296178	9.679503	-0.016512	0.013202	0.002259	1.000000	-0.000048	0.000037	0.000023	1.629768	-9.378692	47.523383
60126	1.618334	0.302919	9.653442	-0.005297	0.036228	-0.019917	1.000000	-0.000053	0.000028	0.000023	1.630648	-9.378427	47.528919
60127	1.629496	0.283684	9.680390	0.013946	0.027831	0.007939	1.000000	-0.000040	0.000038	0.000007	1.630781	-9.377325	47.530087
60128	1.595927	0.293139	9.679913	-0.015422	0.010122	0.002265	1.000000	-0.000063	0.000033	0.000015	1.628001	-9.376476	47.533181
60129	1.638679	0.314183	9.676050	-0.002291	0.056103	0.006007	1.000000	-0.000038	0.000031	0.000023	1.628059	-9.376152	47.536195
60130	1.615826	0.299081	9.653982	-0.004662	0.032531	-0.019903	1.000000	-0.000038	0.000031	0.000023	1.626251	-9.376756	47.539253
60131	1.604028	0.319798	9.651488	-0.027599	0.038234	-0.023706	1.000000	-0.000038	0.000031	0.000023	1.626301	-9.376434	47.542266
60132	1.626450	0.279021	9.681037	0.014776	0.023503	0.007950	1.000000	-0.000053	0.000027	0.000015	1.623198	-9.375265	47.542027
60133	1.647005	0.285873	9.654978	0.025630	0.046791	-0.014213	1.000000	-0.000038	0.000031	0.000023	1.623242	-9.374938	47.545037
60134	1.624082	0.328153	9.649860	-0.020569	0.058193	-0.021808	1.000000	-0.000037	0.000024	0.000015	1.627157	-9.380032	47.547882
60135	1.645841	0.284202	9.655226	0.026022	0.043894	-0.014200	1.000000	-0.000050	0.000044	0.000014	1.626087	-9.378260	47.549966
60136	1.612644	0.296763	9.678971	-0.007503	0.025396	0.004159	1.000000	-0.000066	0.000048	0.000015	1.622963	-9.375686	47.553006
60137	1.621811	0.325037	9.650348	-0.019831	0.055360	-0.021790	1.000000	-0.000038	0.000031	0.000023	1.623016	-9.375371	47.556017
60138	1.632307	0.302506	9.653109	0.003785	0.047613	-0.017987	1.000000	-0.000057	0.000043	0.000022	1.622301	-9.373470	47.560474
60139	1.631481	0.301417	9.653282	0.004024	0.046649	-0.017982	1.000000	-0.000050	0.000044	0.000014	1.621233	-9.371693	47.562555
60140	1.630784	0.300447	9.653430	0.004198	0.046032	-0.017979	1.000000	-0.000046	0.000029	0.000015	1.618880	-9.370379	47.562686
60141	1.629600	0.296276	9.629371	0.008602	0.045870	-0.042018	1.000000	-0.000048	0.000037	0.000015	1.618008	-9.369447	47.564789
60142	1.628982	0.295348	9.629504	0.008945	0.044286	-0.042011	1.000000	-0.000046	0.000028	-0.000001	1.620586	-9.371724	47.565056
60143	1.650027	0.305490	9.627678	0.015623	0.066796	-0.040104	1.000000	-0.000040	0.000040	0.000038	1.620166	-9.370492	47.569863
60144	1.628170	0.296735	9.653987	0.005090	0.040651	-0.017956	1.000000	-0.000048	0.000037	0.000015	1.622166	-9.374145	47.570488
60145	1.627937	0.299040	9.678342	0.001166	0.038870	0.006091	1.000000	-0.000042	0.000045	0.000006	1.622104	-9.372214	47.571628
60146	1.627169	0.298063	9.678502	0.001746	0.037690	0.006095	1.000000	-0.000055	0.000035	0.000015	1.622731	-9.371063	47.576633
60147	1.605251	0.289233	9.704811	-0.008611	0.012428	0.028228	1.000000	-0.000042	0.000046	0.000022	1.622399	-9.369062	47.579594
60148	1.614999	0.321039	9.700411	-0.024683	0.041822	0.026363	1.000000	-0.000031	0.000033	0.000015	1.624432	-9.365889	47.585454
60149	1.602671	0.281235	9.656710	0.000623	0.012363	-0.019856	1.000000	-0.000050	0.000044	0.000014	1.623384	-9.364117	47.587533
60150	1.624139	0.294488	9.679120	0.002310	0.033940	0.006109	1.000000	-0.000048	0.000036	0.000007	1.619427	-9.366964	47.582980
60151	1.589916	0.300975	9.654427	-0.022907	0.016994	-0.023634	1.000000	-0.000035	0.000048	0.000014	1.620080	-9.364794	47.584998
60152	1.611427	0.314265	9.676835	-0.020987	0.038695	0.002335	1.000000	-0.000053	0.000029	0.000039	1.615421	-9.367081	47.587793
60153	1.621513	0.288565	9.655354	0.006590	0.031893	-0.017924	1.000000	-0.000039	0.000030	0.000007	1.615751	-9.366854	47.588977
60154	1.610294	0.312436	9.677083	-0.020546	0.036543	0.002344	1.000000	-0.000046	0.000030	0.000023	1.615656	-9.367826	47.590972
60155	1.576784	0.321978	9.676560	-0.049925	0.018770	-0.003360	1.000000	-0.000048	0.000037	0.000023	1.614652	-9.366890	47.593985
60156	1.620211	0.288930	9.679946	0.003129	0.028244	0.006127	1.000000	-0.000046	0.000030	0.000023	1.612704	-9.365401	47.597632
60157	1.618444	0.281569	9.631694	0.011681	0.028963	-0.041956	1.000000	-0.000049	0.000044	0.000022	1.611493	-9.363609	47.600617
60158	1.596654	0.272785	9.657949	0.001055	0.003387	-0.019849	1.000000	-0.000044	0.000021	-0.000000	1.611296	-9.366821	47.596965
60159	1.606552	0.304430	9.653572	-0.015453	0.032560	-0.021680	1.000000	-0.000050	0.000044	0.000014	1.610222	-9.365070	47.599039
60160	1.584611	0.295594	9.679850	-0.026449	0.007067	0.000422	1.000000	-0.000048	0.000037	0.000015	1.607366	-9.367597	47.597302
60161	1.583998	0.294556	9.679982	-0.026214	0.006098	0.000423	1.000000	-0.000053	0.000028	0.000023	1.605695	-9.367727	47.600365
60162	1.595124	0.275309	9.706885	-0.007455	-0.002712	0.028236	1.000000	-0.000031	0.000032	0.000007	1.605940	-9.370635	47.599157
60163	1.604626	0.303876	9.678297	-0.019807	0.027315	0.002376	1.000000	-0.000052	0.000020	0.000016	1.604605	-9.371658	47.601334
60164	1.637092	0.292452	9.679063	0.010643	0.042926	0.008102	1.000000	-0.000037	0.000023	0.000007	1.608626	-9.370871	47.603975
60165	1.636056	0.288521	9.654971	0.015032	0.042820	-0.015937	1.000000	-0.000039	0.000031	0.000015	1.608812	-9.370630	47.606067
60166	1.624259	0.309427	9.652518	-0.007561	0.047740	-0.019693	1.000000	-0.000024	0.000034	0.000014	1.615404	-9.371961	47.608266
60167	1.613676	0.279148	9.681324	0.005270	0.015759	0.006154	1.000000	-0.000061	0.000026	0.000016	1.613036	-9.372339	47.610448
60168	1.590797	0.321258	9.676293	-0.041153	0.027912	-0.001367	1.000000	-0.000039	0.000030	0.000007	1.612937	-9.374243	47.608579
60169	1.634165	0.288442	9.679678	0.011881	0.037065	0.008124	1.000000	-0.000033	0.000040	0.000014	1.613788	-9.372960	47.610617
60170	1.589563	0.319582	9.676551	-0.040352	0.024996	-0.001356	1.000000	-0.000059	0.000019	0.000024	1.616807	-9.377038	47.615172
60171	1.643302	0.315940	9.651214	0.000083	0.065171	-0.017691	1.000000	-0.000035	0.000016	0.000016	1.617425	-9.378516	47.617314
60172	1.632851	0.285683	9.679981	0.013721	0.033835	0.008133	1.000000	-0.000046	0.000029	0.000015	1.617649	-9.372460	47.621891
60173	1.620686	0.303158	9.653317	-0.005077	0.040418	-0.019659	1.000000	-0.000044	0.000022	0.000023	1.617072	-9.373241	47.624945
60174	1.631437	0.280673	9.655983	0.018752	0.032475	-0.015904	1.000000	-0.000044	0.000022	0.000023	1.619499	-9.373721	47.629102
60175	1.651549	0.284512	9.605809	0.033711	0.056759	-0.062006	1.000000	-0.000040	0.000039	0.000022	1.619382	-9.372596	47.632078
60176	1.640883	0.311583	9.651767	0.002599	0.060128	-0.017660	1.000000	-0.000035	0.000016	0.000008	1.622852	-9.375941	47.633512
60177	1.618204	0.296424	9.629555	0.000552	0.036586	-0.043683	1.000000	-0.000062	0.000034	0.000031	1.620035	-9.375402	47.637488
60178	1.650306	0.284893	9.630397	0.030235	0.051856	-0.037943	1.000000	-0.000035	0.000047	-0.000002	1.622482	-9.376430	47.636160
60179	1.638778	0.308756	9.652216	0.003147	0.056646	-0.017639	1.000000	-0.000050	0.000044	0.000014	1.621457	-9.374707	47.638233
60180	1.594522	0.285724	9.656137	-0.009108	0.008234	-0.021621	1.000000	-0.000050	0.000044	0.000014	1.624035	-9.373718	47.642529
60181	1.637097	0.306749	9.652565	0.003987	0.054194	-0.017625	1.000000	-0.000050	0.000044	0.000014	1.623021	-9.371997	47.644602
60182	1.615505	0.301133	9.703024	-0.010764	0.027481	0.028468	1.000000	-0.000035	0.000048	0.000014	1.624206	-9.372895	47.643700
60183	1.602515	0.315437	9.652222	-0.025430	0.035004	-0.023353	1.000000	-0.000064	0.000040	0.000015	1.621480	-9.371590	47.645831
60184	1.613373	0.295764	9.679157	-0.006521	0.026589	0.004430	1.000000	-0.000057	0.000043	0.000022	1.617197	-9.370884	47.646493
60185	1.601368	0.316300	9.676776	-0.029468	0.032280	0.000697	1.000000	-0.000042	0.000046	0.000022	1.616893	-9.368937	47.649446
60186	1.622760	0.329575	9.699291	-0.026912	0.053346	0.026756	1.000000	-0.000040	0.000038	0.000014	1.619026	-9.369907	47.649576
60187	1.622138	0.271486	9.682191	0.017412	0.016484	0.008172	1.000000	-0.000040	0.000038	0.000014	1.619069	-9.368848	47.651642
60188	1.610912	0.295228	9.703969	-0.009490	0.021377	0.028484	1.000000	-0.000052	0.000020	0.000016	1.618067	-9.368593	47.654350
60189	1.576612	0.298565	9.654955	-0.030589	0.005465	-0.025346	1.000000	-0.000046	0.000029	0.000015	1.617455	-9.368582	47.656466
60190	1.609454	0.290246	9.679977	-0.004662	0.020005	0.004446	1.000000	-0.000037	0.000025	0.000031	1.619910	-9.369802	47.662110
60191	1.619653	0.321982	9.675670	-0.021184	0.049161	0.002743	1.000000	-0.000042	0.000014	0.000016	1.619709	-9.371492	47.664272
60192	1.586945	0.277554	9.682003	-0.010809	-0.005647	0.002426	1.000000	-0.000038	0.000031	0.000023	1.619818	-9.373019	47.666298
60193	1.617624	0.314059	9.627484	-0.012639	0.048864	-0.045331	1.000000	-0.000048	0.000036	-0.000001	1.619288	-9.372228	47.666569
60194	1.596171	0.308300	9.677893	-0.026858	0.022177	0.000732	1.000000	-0.000048	0.000037	0.000023	1.620757	-9.371929	47.670909
60195	1.606282	0.282668	9.656346	0.000704	0.015477	-0.019586	1.000000	-0.000044	0.000022	0.000023	1.620219	-9.372743	47.673958
60196	1.627369	0.292708	9.654646	0.006991	0.038101	-0.017551	1.000000	-0.000050	0.000044	0.000014	1.617000	-9.371932	47.673602
60197	1.592719	0.296071	9.605684	-0.014118	0.022236	-0.071390	1.000000	-0.000049	0.000044	0.000022	1.615849	-9.370199	47.676580
60198	1.625232	0.287818	9.630768	0.011656	0.036918	-0.041586	1.000000	-0.000025	0.000042	0.000014	1.618589	-9.369305	47.679705
60199	1.592575	0.303735	9.678629	-0.025977	0.017223	0.000745	1.000000	-0.000055	0.000035	0.000023	1.616786	-9.368626	47.682734
60200	1.624284	0.289019	9.655276	0.008457	0.033932	-0.017537	1.000000	-0.000048	0.000037	0.000015	1.618257	-9.366279	47.687741
60201	1.590692	0.298766	9.654708	-0.020912	0.016154	-0.023293	1.000000	-0.000033	0.000040	0.000014	1.619167	-9.365015	47.689773
60202	1.623278	0.290428	9.679787	0.004568	0.031009	0.006512	1.000000	-0.000048	0.000038	0.000030	1.616996	-9.365038	47.692225
60203	1.622502	0.289415	9.679948	0.004809	0.030027	0.006515	1.000000	-0.000050	0.000044	0.000014	1.615989	-9.363334	47.694289
60204	1.621659	0.288410	9.680119	0.005080	0.028841	0.006519	1.000000	-0.000050	0.000044	0.000014	1.615930	-9.362396	47.697302
60205	1.609819	0.309003	9.677734	-0.017870	0.034527	0.002812	1.000000	-0.000046	0.000030	0.000023	1.615189	-9.362362	47.700323
60206	1.608331	0.301974	9.629428	-0.009331	0.035488	-0.045270	1.000000	-0.000039	0.000031	0.000015	1.615703	-9.362032	47.702149
60207	1.619842	0.285536	9.680509	0.005851	0.025880	0.006527	1.000000	-0.000061	0.000026	0.000016	1.613390	-9.362436	47.704313
60208	1.629796	0.317133	9.676314	-0.010554	0.055449	0.004882	1.000000	-0.000033	0.000041	0.000030	1.612920	-9.358795	47.709010
60209	1.606879	0.302192	9.654051	-0.012606	0.031988	-0.021217	1.000000	-0.000048	0.000038	0.000030	1.611833	-9.357871	47.712914
60210	1.639557	0.293709	9.679131	0.013181	0.046809	0.008597	1.000000	-0.000046	0.000029	0.000007	1.611673	-9.357703	47.713887
60211	1.616685	0.278677	9.656856	0.011129	0.023354	-0.017509	1.000000	-0.000049	0.000044	0.000022	1.610524	-9.355959	47.716855
60212	1.626415	0.310299	9.652714	-0.005429	0.052278	-0.019137	1.000000	-0.000042	0.000046	0.000022	1.611048	-9.355109	47.717696
60213	1.614581	0.273712	9.632971	0.015709	0.022163	-0.041548	1.000000	-0.000048	0.000038	0.000030	1.609963	-9.354186	47.721597
60214	1.636363	0.289710	9.679792	0.013880	0.042457	0.008615	1.000000	-0.000059	0.000050	0.000022	1.607470	-9.353622	47.724379
60215	1.601870	0.293120	9.630778	-0.007247	0.026682	-0.045240	1.000000	-0.000046	0.000029	0.000015	1.606864	-9.353616	47.726481
60216	1.613251	0.276689	9.681866	0.008259	0.017483	0.006543	1.000000	-0.000048	0.000037	0.000015	1.605621	-9.349570	47.728716
60217	1.623188	0.308149	9.677715	-0.008277	0.046636	0.004930	1.000000	-0.000063	0.000033	0.000015	1.603100	-9.349111	47.730846
60218	1.600198	0.293034	9.655442	-0.009410	0.023383	-0.021189	1.000000	-0.000044	0.000053	0.000014	1.606072	-9.341894	47.738542
60219	1.632626	0.284551	9.680576	0.016326	0.038196	0.008629	1.000000	-0.000048	0.000037	0.000015	1.605273	-9.341014	47.740614
60220	1.620300	0.302107	9.654002	-0.002919	0.044504	-0.019098	1.000000	-0.000050	0.000044	0.000014	1.604020	-9.342612	47.738353
60221	1.608840	0.325749	9.675870	-0.029985	0.049178	0.001263	1.000000	-0.000048	0.000037	0.000015	1.603219	-9.341741	47.740425
60222	1.630314	0.281596	9.681052	0.016874	0.034408	0.008642	1.000000	-0.000050	0.000043	0.000006	1.605165	-9.341136	47.741698
60223	1.607424	0.323867	9.676168	-0.029272	0.046761	0.001277	1.000000	-0.000037	0.000025	0.000039	1.605210	-9.341671	47.746521
60224	1.617916	0.301323	9.678813	-0.005980	0.038531	0.004967	1.000000	-0.000057	0.000041	-0.000009	1.605447	-9.343355	47.743902
60225	1.616798	0.297344	9.654737	-0.001624	0.038577	-0.019072	1.000000	-0.000038	0.000031	0.000023	1.605575	-9.343110	47.746881
60226	1.627675	0.277961	9.681601	0.018033	0.029399	0.008656	1.000000	-0.000040	0.000038	0.000014	1.609087	-9.342911	47.750894
60227	1.594089	0.287727	9.680994	-0.011327	0.011619	0.002876	1.000000	-0.000040	0.000039	0.000022	1.609022	-9.341819	47.753850
60228	1.614610	0.294748	9.655183	-0.000368	0.034516	-0.019057	1.000000	-0.000049	0.000044	0.000022	1.611241	-9.341996	47.758103
60229	1.613404	0.290800	9.631120	0.003985	0.034574	-0.043097	1.000000	-0.000040	0.000038	0.000014	1.611325	-9.340939	47.760150
60230	1.592276	0.288011	9.705664	-0.013889	0.006482	0.026925	1.000000	-0.000046	0.000029	0.000007	1.615632	-9.340801	47.764072
60231	1.590573	0.281123	9.657387	-0.005430	0.007588	-0.021161	1.000000	-0.000038	0.000062	0.000013	1.615980	-9.336990	47.766025
60232	1.590117	0.283174	9.681781	-0.008903	0.005455	0.002884	1.000000	-0.000053	0.000029	0.000039	1.616224	-9.336018	47.773475
60233	1.620812	0.319678	9.627537	-0.010839	0.060165	-0.044630	1.000000	-0.000046	0.000060	0.000005	1.615863	-9.332437	47.774543
60234	1.620778	0.267583	9.658674	0.024789	0.021264	-0.015369	1.000000	-0.000048	0.000037	0.000015	1.613135	-9.333915	47.772735
60235	1.587696	0.280338	9.682261	-0.008671	0.002424	0.002885	1.000000	-0.000039	0.000030	0.000007	1.613573	-9.333739	47.773892
60236	1.597294	0.308966	9.653945	-0.021328	0.032521	-0.022695	1.000000	-0.000055	0.000035	0.000015	1.611436	-9.334396	47.773004
60237	1.608615	0.292282	9.705022	-0.006088	0.022745	0.029059	1.000000	-0.000053	0.000027	0.000015	1.610020	-9.334600	47.775123
60238	1.618324	0.320784	9.676702	-0.018383	0.052802	0.003489	1.000000	-0.000053	0.000027	0.000007	1.609987	-9.334882	47.776856
60239	1.628717	0.298299	9.679343	0.005063	0.045149	0.007155	1.000000	-0.000035	0.000048	0.000014	1.610738	-9.332775	47.778850
60240	1.606312	0.286485	9.681196	-0.001114	0.020710	0.005023	1.000000	-0.000044	0.000023	0.000031	1.609973	-9.333605	47.783154
60241	1.594337	0.304059	9.654589	-0.019967	0.027462	-0.022677	1.000000	-0.000053	0.000028	0.000023	1.608419	-9.333778	47.786181
60242	1.593709	0.303095	9.654723	-0.019965	0.026246	-0.022673	1.000000	-0.000040	0.000038	0.000014	1.608363	-9.334698	47.787310
60243	1.593514	0.305295	9.679072	-0.023818	0.024182	0.001373	1.000000	-0.000037	0.000024	0.000015	1.608860	-9.335349	47.789396
60244	1.625157	0.287776	9.631494	0.014111	0.041560	-0.040907	1.000000	-0.000052	0.000020	0.000024	1.609349	-9.339432	47.789572
60245	1.625384	0.292803	9.680071	0.006160	0.038406	0.007183	1.000000	-0.000040	0.000038	0.000014	1.609448	-9.338391	47.791614
60246	1.613801	0.256326	9.660148	0.027624	0.008090	-0.015357	1.000000	-0.000052	0.000019	0.000000	1.611088	-9.339489	47.792722
60247	1.623061	0.281938	9.607638	0.019264	0.039413	-0.064938	1.000000	-0.000050	0.000044	0.000014	1.610136	-9.337801	47.794767
60248	1.622505	0.284048	9.632051	0.015461	0.037095	-0.040891	1.000000	-0.000036	0.000055	0.000013	1.611871	-9.335725	47.796717
60249	1.621489	0.283158	9.632249	0.015707	0.036111	-0.040888	1.000000	-0.000051	0.000051	0.000014	1.610721	-9.333189	47.798740
60250	1.608683	0.297647	9.581506	0.000331	0.043834	-0.092616	1.000000	-0.000066	0.000047	0.000007	1.605908	-9.334201	47.795941
60251	1.641650	0.294769	9.655190	0.017892	0.056342	-0.014672	1.000000	-0.000053	0.000058	0.000006	1.604691	-9.330852	47.797029
60252	1.607616	0.304339	9.654632	-0.011529	0.038788	-0.020479	1.000000	-0.000055	0.000066	0.000005	1.602086	-9.325935	47.795019
60253	1.639525	0.295729	9.679906	0.014226	0.053485	0.009380	1.000000	-0.000040	0.000070	0.000012	1.602236	-9.321298	47.796941
60254	1.616379	0.283826	9.681846	0.008494	0.029040	0.007214	1.000000	-0.000049	0.000076	0.000028	1.602905	-9.314269	47.801150
60255	1.583230	0.299541	9.729703	-0.029046	0.009038	0.049489	1.000000	-0.000031	0.000033	0.000014	1.604065	-9.313877	47.803181
60256	1.603350	0.303812	9.679742	-0.013988	0.033695	0.003580	1.000000	-0.000046	0.000060	0.000005	1.604840	-9.309570	47.805602
60257	1.591796	0.327597	9.701662	-0.041033	0.038258	0.023990	1.000000	-0.000029	0.000026	0.000031	1.605922	-9.309966	47.809475
60258	1.623403	0.310157	9.654120	-0.003589	0.055818	-0.018273	1.000000	-0.000053	0.000028	0.000023	1.603683	-9.314546	47.808129
60259	1.633936	0.287599	9.656715	0.019858	0.048160	-0.014632	1.000000	-0.000039	0.000031	0.000015	1.603987	-9.314365	47.810185
60260	1.600959	0.300345	9.680246	-0.013561	0.028942	0.003596	1.000000	-0.000044	0.000022	0.000015	1.605026	-9.316504	47.811731
60261	1.599774	0.293438	9.631890	-0.005138	0.030206	-0.044486	1.000000	-0.000053	0.000028	0.000023	1.603481	-9.316703	47.814747
60262	1.599290	0.292509	9.631999	-0.005462	0.028760	-0.044482	1.000000	-0.000037	0.000024	0.000015	1.603308	-9.321634	47.812591
60263	1.587918	0.316189	9.653899	-0.032510	0.033312	-0.024068	1.000000	-0.000050	0.000044	0.000014	1.602355	-9.319970	47.814628
60264	1.597772	0.290471	9.632312	-0.005094	0.026632	-0.044476	1.000000	-0.000066	0.000048	0.000014	1.599582	-9.319006	47.815952
60265	1.597314	0.292244	9.656716	-0.008939	0.024506	-0.020431	1.000000	-0.000048	0.000038	0.000030	1.598548	-9.318136	47.819830
60266	1.618288	0.302188	9.655232	-0.002546	0.047155	-0.018227	1.000000	-0.000049	0.000044	0.000022	1.595612	-9.316654	47.821061
60267	1.617393	0.301097	9.655416	-0.002303	0.046165	-0.018223	1.000000	-0.000059	0.000049	0.000006	1.593738	-9.314375	47.822186
60268	1.595452	0.294835	9.705705	-0.017038	0.019238	0.027661	1.000000	-0.000057	0.000043	0.000022	1.590771	-9.315299	47.820504
60269	1.593865	0.287866	9.657417	-0.008620	0.020540	-0.020421	1.000000	-0.000051	0.000051	0.000014	1.589608	-9.312793	47.822514
60270	1.614884	0.297712	9.655941	-0.002187	0.042914	-0.018208	1.000000	-0.000061	0.000025	0.000008	1.586910	-9.314511	47.821763
60271	1.592891	0.288481	9.681938	-0.012435	0.017316	0.003625	1.000000	-0.000055	0.000036	0.000038	1.584868	-9.313823	47.826571
60272	1.591668	0.284369	9.657883	-0.007970	0.017504	-0.020415	1.000000	-0.000061	0.000057	0.000006	1.583291	-9.310055	47.827687
60273	1.592044	0.288480	9.706456	-0.015898	0.014199	0.027671	1.000000	-0.000111	-0.000025	0.000035	1.574896	-9.316321	47.831938
60274	1.619795	0.365118	8.811699	0.023754	0.212040	-0.848449	1.000000	-0.000207	0.000303	-0.000013	1.555489	-9.287986	47.829588
60275	1.776117	0.504233	10.760702	-0.144400	0.148337	1.103296	1.000000	0.000505	-0.000135	0.000060	1.617314	-9.306976	47.836370
60276	1.351761	-0.333287	8.948812	0.355766	-0.471630	-0.775511	1.000000	-0.000572	0.000060	0.000016	1.554504	-9.303982	47.837054
60277	1.678018	0.592590	10.087139	-0.219541	0.231253	0.425262	1.000000	0.000081	0.000091	0.000024	1.568250	-9.296924	47.840417
60278	1.610929	0.263557	9.906354	-0.002135	-0.014041	0.227243	1.000000	0.000026	-0.000009	0.000016	1.575662	-9.304580	47.839881
60279	1.572066	0.221211	9.469276	0.042023	-0.010698	-0.211352	1.000000	-0.000094	0.000033	0.000016	1.569557	-9.304157	47.842052
60280	1.563033	0.268035	9.685144	-0.018128	-0.015716	0.001402	1.000000	0.000003	0.000057	0.000020	1.573091	-9.303346	47.841565
60281	1.673311	0.342688	9.846964	-0.014466	0.092303	0.180879	1.000000	-0.000044	0.000021	-0.000000	1.573000	-9.304319	47.841835
60282	1.603834	0.157004	9.501182	0.107874	-0.035477	-0.176479	1.000000	-0.000046	-0.000002	0.000017	1.574650	-9.310106	47.845369
60283	1.571181	0.286884	9.584417	-0.017839	0.015652	-0.096134	1.000000	-0.000033	0.000040	0.000006	1.575732	-9.308950	47.846458
60284	1.615390	0.379399	9.720370	-0.069768	0.091404	0.047627	1.000000	-0.000066	0.000047	0.000006	1.570347	-9.308115	47.844784
60285	1.625258	0.236755	9.638928	0.050014	0.014863	-0.034972	1.000000	-0.000037	0.000024	0.000015	1.570825	-9.308836	47.846849
60286	1.613333	0.314626	9.654429	-0.017175	0.055799	-0.019505	1.000000	-0.000046	0.000061	0.000021	1.571057	-9.307437	47.847996
60287	1.623914	0.294656	9.681277	0.002183	0.046930	0.008150	1.000000	-0.000076	0.000022	0.000016	1.567059	-9.308326	47.850159
60288	1.634073	0.326213	9.677385	-0.015266	0.075896	0.006804	1.000000	-0.000024	0.000035	0.000022	1.565682	-9.312019	47.846947
60289	1.566823	0.280974	9.585306	-0.017909	0.009351	-0.096126	1.000000	-0.000057	0.000043	0.000022	1.563700	-9.310581	47.849904
60290	1.643446	0.302844	9.680160	0.008414	0.066350	0.010431	1.000000	-0.000029	0.000057	0.000013	1.568600	-9.311250	47.853427
60291	1.620768	0.291165	9.681910	0.002246	0.041903	0.008172	1.000000	-0.000040	0.000039	0.000022	1.568538	-9.310267	47.856361
60292	1.597487	0.330579	9.652981	-0.039592	0.055807	-0.023070	1.000000	-0.000051	0.000052	0.000029	1.566891	-9.305340	47.859739
60293	1.618593	0.286318	9.658041	0.007051	0.041449	-0.015861	1.000000	-0.000044	0.000054	0.000021	1.566427	-9.302650	47.862625
60294	1.595972	0.331601	9.677586	-0.043332	0.052229	0.000985	1.000000	-0.000039	0.000031	0.000015	1.567628	-9.304689	47.863046
60295	1.573422	0.259691	9.637199	-0.001332	-0.006597	-0.044441	1.000000	-0.000061	0.000026	0.000015	1.565342	-9.305190	47.865159
60296	1.583894	0.296924	9.681866	-0.025844	0.019679	0.002319	1.000000	-0.000046	0.000061	0.000021	1.567311	-9.302645	47.869409
60297	1.594486	0.334240	9.726519	-0.050569	0.046364	0.049086	1.000000	-0.000050	0.000013	0.000024	1.566145	-9.304617	47.872452
60298	1.560523	0.281094	9.659451	-0.028318	-0.004898	-0.024000	1.000000	-0.000051	0.000051	0.000006	1.563804	-9.306215	47.869572
60299	1.603451	0.304767	9.680773	-0.019362	0.039775	0.004611	1.000000	-0.000057	0.000042	0.000014	1.561975	-9.304825	47.871618
60300	1.602786	0.303652	9.680918	-0.019451	0.038753	0.004615	1.000000	-0.000053	0.000027	0.000015	1.559208	-9.306527	47.868428
60301	1.579930	0.285927	9.634092	-0.017465	0.016776	-0.045750	1.000000	-0.000053	0.000027	0.000007	1.557918	-9.306868	47.869605
60302	1.601642	0.301639	9.681171	-0.019347	0.036602	0.004624	1.000000	-0.000040	0.000038	0.000014	1.557014	-9.308028	47.868242
60303	1.578981	0.286818	9.658597	-0.021439	0.013395	-0.021707	1.000000	-0.000061	0.000026	0.000015	1.554723	-9.308549	47.870350
60304	1.600438	0.299513	9.681436	-0.018946	0.034016	0.004634	1.000000	-0.000048	0.000037	0.000015	1.556000	-9.310617	47.871805
60305	1.588445	0.317167	9.654923	-0.037842	0.040950	-0.022990	1.000000	-0.000063	0.000034	0.000031	1.553230	-9.310238	47.875713
60306	1.588079	0.261883	9.661423	0.002215	0.002864	-0.018114	1.000000	-0.000040	0.000038	0.000014	1.553567	-9.311183	47.878055
60307	1.587924	0.266571	9.710059	-0.005705	-0.000638	0.029964	1.000000	-0.000055	0.000036	0.000030	1.551652	-9.310606	47.881941
60308	1.630595	0.284487	9.682890	0.011741	0.046403	0.010542	1.000000	-0.000053	0.000027	0.000015	1.552119	-9.310061	47.885162
60309	1.596895	0.291314	9.657893	-0.013558	0.029900	-0.019386	1.000000	-0.000048	0.000037	0.000022	1.551205	-9.309307	47.888113
60310	1.607578	0.271541	9.684679	0.006142	0.020849	0.008238	1.000000	-0.000046	0.000029	0.000015	1.552530	-9.308572	47.891311
60311	1.595266	0.286695	9.633924	-0.008688	0.029060	-0.043418	1.000000	-0.000035	0.000048	0.000014	1.553273	-9.306588	47.893284
60312	1.594997	0.291514	9.682578	-0.016636	0.025338	0.004664	1.000000	-0.000048	0.000037	0.000015	1.553112	-9.306857	47.895241
60313	1.615364	0.292933	9.608452	0.002207	0.051589	-0.065129	1.000000	-0.000053	0.000028	0.000023	1.551548	-9.307155	47.898235
60314	1.604513	0.265125	9.660995	0.010620	0.017870	-0.015793	1.000000	-0.000033	0.000040	0.000006	1.550677	-9.308196	47.894963
60315	1.614242	0.294143	9.632982	-0.001886	0.048278	-0.041080	1.000000	-0.000040	0.000038	0.000014	1.550761	-9.307272	47.896977
60316	1.624236	0.268778	9.611291	0.025747	0.041729	-0.061539	1.000000	-0.000050	0.000044	0.000006	1.551047	-9.305850	47.897396
60317	1.645331	0.281686	9.634220	0.028307	0.062902	-0.035167	1.000000	-0.000036	0.000054	0.000005	1.551731	-9.303051	47.898433
60318	1.600489	0.313106	9.631121	-0.024615	0.051681	-0.044636	1.000000	-0.000059	0.000049	0.000006	1.548951	-9.302895	47.896178
60319	1.632319	0.301363	9.632219	0.005220	0.067440	-0.038725	1.000000	-0.000044	0.000054	0.000021	1.548491	-9.300247	47.899057
60320	1.642242	0.278565	9.634838	0.028693	0.059100	-0.035145	1.000000	-0.000070	0.000063	0.000013	1.547981	-9.299238	47.902203
60321	1.630188	0.301922	9.656942	0.001648	0.063500	-0.014669	1.000000	-0.000040	0.000070	0.000013	1.548126	-9.294722	47.904109
60322	1.595720	0.308696	9.632055	-0.023884	0.047141	-0.044612	1.000000	-0.000073	0.000078	0.000013	1.543029	-9.289775	47.901716
60323	1.616049	0.318326	9.630858	-0.017256	0.069586	-0.042261	1.000000	-0.000057	0.000074	0.000020	1.541118	-9.284786	47.904552
60324	1.603844	0.341631	9.652993	-0.044426	0.073979	-0.021781	1.000000	-0.000057	0.000074	0.000013	1.538796	-9.280354	47.903288
60325	1.570362	0.302565	9.707103	-0.041919	0.016801	0.025167	1.000000	-0.000057	0.000074	0.000020	1.536883	-9.275366	47.906121
60326	1.590822	0.312193	9.705892	-0.035472	0.038931	0.027523	1.000000	-0.000070	0.000064	0.000029	1.533735	-9.273650	47.910409
60327	1.607609	1.268091	6.573607	-0.459601	1.122541	-3.035266	1.000000	-0.000249	0.000425	0.000091	1.508300	-9.228683	47.922467
60328	3.201503	-0.372968	17.261277	0.853070	-0.267334	7.724159	0.999999	-0.000772	-0.001191	0.000253	1.417728	-9.369472	47.942227
60329	-0.186704	-0.278833	3.937954	-0.270233	-0.847767	-5.961940	0.999991	-0.002281	0.003529	0.000200	1.156125	-8.969149	47.974908
60330	1.534316	-0.252404	8.912927	0.420817	-0.236438	-0.778062	0.999988	0.004372	-0.002376	-0.000129	1.662226	-9.242825	47.948175
60331	1.682145	2.927518	14.293098	-2.281873	1.200018	4.645720	0.999999	0.000927	0.000747	-0.000139	1.775636	-9.160234	47.934910
60332	1.214763	-0.695270	8.794125	0.554205	-0.764854	-0.958146	0.999987	-0.005034	0.000078	-0.000201	1.209679	-9.152529	47.914722
60333	1.069563	-1.517231	7.503968	1.160495	-1.231019	-2.269923	0.999999	0.001516	-0.000573	0.000296	1.383141	-9.222414	47.947807
60334	1.788925	1.878179	14.613463	-1.503793	0.570977	4.941752	0.999999	0.001723	0.000057	0.000014	1.587509	-9.222295	47.952359
60335	1.463277	-1.059834	7.255930	1.108467	-0.616261	-2.443545	0.999994	-0.003423	-0.000146	-0.000113	1.202364	-9.242091	47.939046
60336	2.440415	0.188334	7.941546	0.754898	0.841136	-1.579720	0.999997	0.002334	-0.000301	-0.000001	1.475370	-9.281581	47.938574
60337	1.366524	1.190879	11.081880	-0.964389	0.272695	1.371642	1.000000	0.000576	-0.000047	-0.000063	1.547518	-9.290227	47.931371
60338	1.798483	-0.462186	9.618491	0.676017	-0.312108	-0.044931	0.999999	-0.001108	-0.000297	-0.000034	1.424711	-9.329718	47.923281
60339	1.442697	0.835875	8.319783	-0.412642	0.472843	-1.350715	1.000000	0.000657	0.000300	-0.000099	1.506716	-9.298464	47.912889
60340	1.900687	0.468960	9.610805	0.052005	0.386411	-0.012275	1.000000	-0.000486	0.000069	0.000068	1.457846	-9.296457	47.927603
60341	1.935189	-0.020284	9.788527	0.421767	0.064021	0.156196	1.000000	0.000111	0.000103	0.000110	1.473426	-9.288411	47.940925
60342	1.513334	0.504745	9.487755	-0.219620	0.146520	-0.195373	1.000000	-0.000028	0.000156	0.000094	1.472314	-9.276329	47.950023
60343	1.515093	0.055868	9.907224	0.079950	-0.206124	0.207434	1.000000	-0.000124	0.000192	0.000031	1.462446	-9.257859	47.954398
60344	1.486258	0.108327	9.508808	0.058133	-0.135217	-0.188942	1.000000	-0.000007	0.000168	0.000077	1.462268	-9.243935	47.959079
60345	1.464800	0.308875	9.928967	-0.141166	-0.073492	0.227238	1.000000	-0.000019	0.000083	0.000019	1.464621	-9.237958	47.961790
60346	1.409289	0.082282	9.881199	-0.004916	-0.258282	0.165500	1.000000	-0.000103	0.000039	0.000007	1.457753	-9.239390	47.963543
60347	1.483155	0.352629	9.752030	-0.146178	-0.006104	0.056698	1.000000	-0.000001	0.000041	0.000029	1.462014	-9.238292	47.967276
60348	1.615937	0.282194	10.004657	-0.028563	0.009243	0.325514	1.000000	-0.000031	0.000001	0.000008	1.461882	-9.244257	47.966150
60349	1.591924	0.232839	9.666345	0.022093	0.003857	-0.013394	1.000000	-0.000000	-0.000031	0.000010	1.466651	-9.251302	47.967390
60350	1.593219	0.297910	9.757182	-0.033791	0.034503	0.078084	1.000000	-0.000004	-0.000048	0.000003	1.470634	-9.258506	47.964681
60351	1.625933	0.273366	9.636701	0.016326	0.057070	-0.036140	1.000000	-0.000023	-0.000040	-0.000052	1.473980	-9.266370	47.958698
60352	1.580797	0.335437	9.408881	-0.040163	0.094856	-0.266595	1.000000	-0.000004	-0.000018	-0.000030	1.478699	-9.274896	47.953625
60353	1.625802	0.319341	9.557733	-0.011472	0.095679	-0.112884	1.000000	-0.000002	0.000007	-0.000008	1.483610	-9.277545	47.952911
60354	1.646846	0.381444	9.526076	-0.040602	0.156080	-0.139130	1.000000	-0.000039	0.000029	-0.000017	1.486490	-9.277808	47.953991
60355	1.658387	0.201910	9.595269	0.094802	0.035143	-0.073592	1.000000	-0.000020	0.000019	0.000007	1.489009	-9.279107	47.955096
60356	1.601632	0.412227	9.523086	-0.093131	0.143718	-0.148579	1.000000	-0.000090	0.000082	0.000021	1.483927	-9.275379	47.956813
60357	1.591688	0.294081	9.757548	-0.032525	0.026464	0.078113	1.000000	-0.000057	0.000042	0.000014	1.482086	-9.274061	47.958824
60358	1.458105	0.317185	9.584075	-0.122621	-0.032005	-0.113971	1.000000	-0.000034	0.000080	0.000028	1.482183	-9.270552	47.960617
60359	1.545326	0.435716	9.766847	-0.169286	0.086450	0.083425	1.000000	-0.000064	0.000041	0.000030	1.479199	-9.269387	47.964468
60360	1.512404	0.285192	9.808469	-0.083080	-0.042925	0.115354	1.000000	-0.000051	0.000052	0.000029	1.474764	-9.267583	47.963228
60361	1.478244	0.289211	9.759169	-0.104350	-0.057889	0.061318	1.000000	-0.000075	0.000055	0.000038	1.470376	-9.264893	47.967961
60362	1.532612	0.293384	9.807430	-0.076343	-0.021858	0.117788	1.000000	-0.000055	0.000004	0.000024	1.469325	-9.269850	47.973120
60363	1.532650	0.178430	9.770982	0.012049	-0.093741	0.078926	1.000000	-0.000046	-0.000003	0.000009	1.468816	-9.273669	47.974345
60364	1.553641	0.286029	9.660508	-0.045719	0.007950	-0.023976	1.000000	-0.000058	-0.000021	0.000018	1.464532	-9.281731	47.973032
60365	1.575960	0.239093	9.640842	0.004977	-0.005049	-0.040963	1.000000	-0.000032	-0.000031	0.000002	1.465812	-9.288782	47.973411
60366	1.565031	0.254940	9.589932	-0.010065	0.003053	-0.092554	1.000000	-0.000013	-0.000010	0.000009	1.470071	-9.295940	47.976618
60367	1.652766	0.300956	9.608698	0.011669	0.094382	-0.058702	1.000000	-0.000017	-0.000028	0.000002	1.473063	-9.302592	47.976957
60368	1.685647	0.289869	9.609654	0.041659	0.109830	-0.052714	1.000000	-0.000020	0.000017	-0.000024	1.478077	-9.304595	47.977587
60369	1.663664	0.278464	9.611062	0.035489	0.085395	-0.055163	1.000000	-0.000031	0.000002	0.000024	1.478988	-9.307970	47.980592
60370	1.684904	0.342853	9.603789	0.001957	0.144233	-0.057258	1.000000	-0.000040	0.000039	0.000030	1.480011	-9.309330	47.985340
60371	1.619297	0.260267	9.662547	0.014948	0.033252	-0.012007	1.000000	-0.000048	0.000038	0.000046	1.478641	-9.308581	47.990991
60372	1.586131	0.278065	9.734553	-0.026923	0.010983	0.054116	1.000000	-0.000044	0.000054	0.000037	1.477346	-9.308365	47.993979
60373	1.574598	0.247139	9.762660	-0.013926	-0.021593	0.079193	1.000000	-0.000048	0.000038	0.000046	1.475975	-9.307621	47.999630
60374	1.541631	0.205320	9.792047	-0.007617	-0.077686	0.101790	1.000000	-0.000042	0.000016	0.000039	1.474343	-9.310962	48.003863
60375	1.563793	0.220970	9.839240	-0.009103	-0.058141	0.152324	1.000000	-0.000011	-0.000018	0.000009	1.477847	-9.316551	48.005070
60376	1.509267	0.212406	9.766743	-0.032945	-0.095312	0.071750	1.000000	-0.000030	-0.000038	0.000003	1.479495	-9.326608	48.005540
60377	1.554239	0.179670	9.769837	0.020093	-0.086293	0.081240	1.000000	0.000005	-0.000085	0.000012	1.484790	-9.339854	48.006936
60378	1.511876	0.263817	9.736050	-0.068764	-0.059101	0.043164	1.000000	0.000006	-0.000093	-0.000003	1.489493	-9.355202	48.005956
60379	1.546357	0.247832	9.688143	-0.030846	-0.040490	0.001087	1.000000	0.000004	-0.000118	-0.000025	1.495450	-9.372183	48.002898
60380	1.581055	0.288871	9.658474	-0.037219	0.012982	-0.021480	1.000000	0.000012	-0.000116	-0.000025	1.503492	-9.392046	48.002972
60381	1.637502	0.283936	9.609131	0.007078	0.055046	-0.061055	1.000000	0.000012	-0.000116	-0.000017	1.510164	-9.408806	48.000802
60382	1.693625	0.333150	9.553809	0.011445	0.133601	-0.105132	1.000000	0.000001	-0.000103	-0.000018	1.517562	-9.425078	48.003212
60383	1.694811	0.327838	9.504994	0.019751	0.135519	-0.153183	1.000000	-0.000001	-0.000063	-0.000004	1.522554	-9.435836	48.002719
60384	1.750070	0.382148	9.498406	0.016236	0.211550	-0.149175	1.000000	-0.000010	-0.000026	-0.000006	1.528008	-9.440796	48.004933
60385	1.684767	0.348985	9.502546	-0.002691	0.140258	-0.156656	1.000000	-0.000035	0.000017	0.000023	1.528518	-9.442498	48.007901
60386	1.661401	0.272318	9.413027	0.047528	0.084587	-0.250780	1.000000	-0.000043	0.000085	0.000020	1.530033	-9.436995	48.014543
60387	1.628343	0.357731	9.600590	-0.054247	0.091921	-0.069002	1.000000	-0.000053	0.000091	0.000027	1.528409	-9.430169	48.018222
60388	1.583350	0.340296	9.652194	-0.074947	0.040813	-0.025943	1.000000	-0.000038	0.000095	0.000035	1.529156	-9.424481	48.025464
60389	1.559170	0.323109	9.605384	-0.073022	0.019323	-0.076513	1.000000	-0.000050	0.000116	0.000034	1.527646	-9.414880	48.029974
60390	1.536451	0.327137	9.752704	-0.103240	-0.014534	0.065170	1.000000	-0.000045	0.000094	0.000051	1.529361	-9.409411	48.040926
60391	1.524412	0.296069	9.780878	-0.090211	-0.047159	0.090176	1.000000	-0.000059	0.000051	0.000037	1.526886	-9.407221	48.045657
60392	1.490343	0.300427	9.731574	-0.111245	-0.062394	0.036101	1.000000	-0.000042	0.000048	0.000053	1.528821	-9.406316	48.057215
60393	1.588607	0.329445	9.801384	-0.074435	0.019165	0.121769	1.000000	-0.000031	0.000002	0.000024	1.529746	-9.409728	48.060227
60394	1.642741	0.266515	9.734151	0.014133	0.025955	0.062659	1.000000	-0.000041	0.000008	0.000032	1.530491	-9.411807	48.067177
60395	1.686321	0.287382	9.731494	0.027092	0.071802	0.067715	1.000000	-0.000046	-0.000003	0.000009	1.529999	-9.415670	48.068406
60396	1.729987	0.305555	9.704526	0.044113	0.119408	0.048745	1.000000	-0.000050	-0.000020	0.000002	1.528263	-9.420228	48.067177
60397	1.707808	0.285765	9.633064	0.050070	0.099457	-0.025870	1.000000	-0.000048	0.000004	0.000001	1.527715	-9.423262	48.067473
60398	1.685749	0.328360	9.628537	0.003653	0.112082	-0.032824	1.000000	-0.000033	0.000008	0.000000	1.526948	-9.425541	48.064482
60399	1.663509	0.314022	9.605681	0.001538	0.089146	-0.059379	1.000000	-0.000052	0.000019	-0.000008	1.526143	-9.426898	48.063824
60400	1.619198	0.285910	9.559912	-0.002814	0.043838	-0.112505	1.000000	-0.000059	0.000017	0.000000	1.526591	-9.430019	48.066715
60401	1.608145	0.311788	9.606277	-0.033883	0.046504	-0.067915	1.000000	-0.000053	0.000027	0.000007	1.525300	-9.430480	48.067860
60402	1.585778	0.302446	9.632039	-0.043622	0.020540	-0.046418	1.000000	-0.000059	0.000049	-0.000002	1.525561	-9.426726	48.072544
60403	1.573844	0.266010	9.611565	-0.022511	-0.009069	-0.069518	1.000000	-0.000066	0.000048	0.000014	1.522675	-9.424808	48.074560
60404	1.573417	0.272544	9.684568	-0.034713	-0.014760	0.002574	1.000000	-0.000066	0.000049	0.000038	1.518413	-9.424700	48.076242
60405	1.572325	0.268533	9.660486	-0.030460	-0.014252	-0.021458	1.000000	-0.000066	0.000049	0.000030	1.515233	-9.422736	48.080076
60406	1.571275	0.267351	9.660690	-0.030317	-0.014758	-0.021458	1.000000	-0.000045	0.000062	0.000037	1.511934	-9.417404	48.080504
60407	1.570506	0.268882	9.685143	-0.034124	-0.017291	0.002572	1.000000	-0.000055	0.000036	0.000038	1.509856	-9.416911	48.085262
60408	1.602444	0.256935	9.686266	-0.004491	-0.001470	0.008595	1.000000	-0.000051	0.000052	0.000029	1.507247	-9.414843	48.087621
60409	1.579627	0.242409	9.663471	-0.006606	-0.024383	-0.017994	1.000000	-0.000048	0.000037	0.000015	1.506459	-9.414223	48.089626
60410	1.589556	0.271368	9.635775	-0.019243	0.006358	-0.042934	1.000000	-0.000049	0.000045	0.000030	1.504652	-9.412381	48.091166
60411	1.643487	0.273169	9.659864	0.012905	0.043990	-0.010313	1.000000	-0.000033	0.000041	0.000022	1.505427	-9.411333	48.094040
60412	1.620740	0.259070	9.637043	0.010614	0.021165	-0.036903	1.000000	-0.000025	0.000041	0.000006	1.506270	-9.410470	48.093735
60413	1.630968	0.293689	9.657897	-0.010050	0.048739	-0.013768	1.000000	-0.000033	0.000039	-0.000002	1.507480	-9.409496	48.093875
60414	1.641184	0.271287	9.660309	0.013232	0.041102	-0.010301	1.000000	-0.000040	0.000037	-0.000001	1.506875	-9.409095	48.092382
60415	1.629517	0.294992	9.682480	-0.013798	0.045240	0.010272	1.000000	-0.000020	0.000051	0.000013	1.509301	-9.406821	48.094284
60416	1.617582	0.313391	9.656104	-0.032630	0.052442	-0.017213	1.000000	-0.000048	0.000037	0.000015	1.509235	-9.405723	48.097263
60417	1.573490	0.296009	9.707382	-0.053189	0.001480	0.025703	1.000000	-0.000033	0.000040	0.000014	1.510151	-9.404700	48.099220
60418	1.572840	0.295102	9.707515	-0.053298	0.000450	0.025702	1.000000	-0.000053	0.000028	0.000031	1.507031	-9.406464	48.098936
60419	1.572383	0.293999	9.707622	-0.053078	-0.000564	0.025703	1.000000	-0.000052	0.000020	0.000023	1.505630	-9.407723	48.101896
60420	1.561089	0.314801	9.705446	-0.076159	0.005256	0.022248	1.000000	-0.000035	0.000016	0.000015	1.505380	-9.409156	48.102407
60421	1.539145	0.303085	9.706775	-0.082304	-0.019184	0.019666	1.000000	-0.000046	-0.000002	0.000017	1.504718	-9.412990	48.104512
60422	1.593611	0.296960	9.657924	-0.037936	0.023240	-0.019767	1.000000	-0.000052	-0.000012	0.000009	1.503592	-9.416657	48.105502
60423	1.582697	0.317789	9.655692	-0.060940	0.028923	-0.023216	1.000000	-0.000033	0.000009	0.000024	1.504294	-9.419212	48.108458
60424	1.593317	0.292646	9.633727	-0.033318	0.022624	-0.043789	1.000000	-0.000050	0.000012	0.000008	1.504729	-9.421467	48.112051
60425	1.636692	0.313528	9.631243	-0.020373	0.068473	-0.038599	1.000000	-0.000035	0.000016	0.000023	1.505235	-9.423172	48.114988
60426	1.658143	0.323675	9.630054	-0.013407	0.090732	-0.035994	1.000000	-0.000037	0.000023	-0.000001	1.508355	-9.423275	48.118598
60427	1.635393	0.363722	9.601432	-0.055621	0.104677	-0.066906	1.000000	-0.000044	0.000053	0.000006	1.508165	-9.420773	48.119617
60428	1.656478	0.322044	9.630395	-0.013207	0.088550	-0.035974	1.000000	-0.000042	0.000045	0.000006	1.507790	-9.420812	48.120189
60429	1.611817	0.299396	9.633134	-0.025709	0.040690	-0.041171	1.000000	-0.000045	0.000061	0.000029	1.506960	-9.417391	48.123919
60430	1.621616	0.333432	9.654139	-0.046577	0.068165	-0.017975	1.000000	-0.000062	0.000065	0.000021	1.503671	-9.414594	48.124313
60431	1.620670	0.280623	9.684392	-0.010283	0.028767	0.010338	1.000000	-0.000044	0.000054	0.000021	1.503186	-9.412049	48.127149
60432	1.630659	0.314769	9.705369	-0.031067	0.056159	0.033540	1.000000	-0.000051	0.000052	0.000029	1.501657	-9.410705	48.130121
60433	1.597211	0.272806	9.734574	-0.024357	0.000015	0.055790	1.000000	-0.000048	0.000038	0.000046	1.500273	-9.409993	48.135744
60434	1.618269	0.282560	9.733481	-0.017725	0.022354	0.058406	1.000000	-0.000057	0.000042	0.000014	1.498919	-9.408837	48.139039
60435	1.606781	0.248865	9.737099	-0.000636	-0.008777	0.059228	1.000000	-0.000052	0.000020	0.000023	1.497518	-9.410098	48.141986
60436	1.616949	0.272677	9.660870	-0.005197	0.025032	-0.013675	1.000000	-0.000052	0.000021	0.000031	1.496480	-9.411528	48.147175
60437	1.605910	0.241675	9.688700	0.007879	-0.007691	0.011168	1.000000	-0.000041	0.000007	0.000024	1.496330	-9.414290	48.150141
60438	1.616381	0.268265	9.636719	-0.000360	0.024130	-0.037697	1.000000	-0.000042	0.000015	0.000023	1.499629	-9.416821	48.159140
60439	1.626934	0.243119	9.614742	0.027101	0.018045	-0.058293	1.000000	-0.000042	0.000014	0.000016	1.499434	-9.418757	48.161179
60440	1.637525	0.274670	9.611350	0.010448	0.046810	-0.059089	1.000000	-0.000059	0.000018	0.000016	1.498709	-9.421731	48.164968
60441	1.636984	0.270981	9.587175	0.014679	0.047419	-0.083113	1.000000	-0.000053	0.000028	0.000023	1.497118	-9.422146	48.167898
60442	1.636455	0.272676	9.611589	0.011137	0.044768	-0.059081	1.000000	-0.000033	0.000039	-0.000009	1.499732	-9.420361	48.170161
60443	1.646505	0.250229	9.613986	0.034588	0.037079	-0.055651	1.000000	-0.000044	0.000053	0.000006	1.499552	-9.417868	48.171177
60444	1.634491	0.271069	9.611968	0.011402	0.042239	-0.059070	1.000000	-0.000046	0.000060	0.000005	1.500462	-9.417488	48.173300
60445	1.611705	0.264391	9.661977	-0.002743	0.014558	-0.013653	1.000000	-0.000046	0.000060	0.000005	1.500086	-9.414150	48.174298
60446	1.621535	0.296016	9.658736	-0.019478	0.043206	-0.014426	1.000000	-0.000051	0.000051	0.000006	1.500503	-9.414113	48.176411
60447	1.598858	0.289431	9.708715	-0.033619	0.015507	0.030986	1.000000	-0.000029	0.000056	0.000005	1.502037	-9.411229	48.177395
60448	1.598020	0.291333	9.733169	-0.037338	0.012783	0.055016	1.000000	-0.000033	0.000040	0.000014	1.503537	-9.410284	48.180421
60449	1.575335	0.331386	9.704588	-0.079573	0.026765	0.024155	1.000000	-0.000048	0.000037	0.000030	1.502462	-9.409634	48.184225
60450	1.596379	0.284496	9.684898	-0.028801	0.013771	0.006966	1.000000	-0.000040	0.000038	0.000014	1.503886	-9.409608	48.188060
60451	1.585020	0.307954	9.707068	-0.055816	0.017795	0.027580	1.000000	-0.000035	0.000016	0.000023	1.504410	-9.411334	48.190993
60452	1.595395	0.280415	9.660808	-0.024357	0.013333	-0.017058	1.000000	-0.000037	0.000024	0.000023	1.504931	-9.412460	48.192616
60453	1.584023	0.301353	9.658686	-0.047368	0.019003	-0.020468	1.000000	-0.000037	0.000024	0.000023	1.505257	-9.413336	48.195528
60454	1.638155	0.298070	9.634300	-0.006883	0.059688	-0.035749	1.000000	-0.000035	0.000016	0.000015	1.507916	-9.414265	48.201652
60455	1.615894	0.286385	9.635599	-0.013005	0.035254	-0.038410	1.000000	-0.000046	0.000029	0.000015	1.507340	-9.414512	48.203652
60456	1.626346	0.323048	9.680887	-0.037375	0.061251	0.008910	1.000000	-0.000048	0.000037	0.000014	1.507046	-9.411787	48.207818
60457	1.614671	0.287205	9.660152	-0.016260	0.031792	-0.014376	1.000000	-0.000024	0.000035	0.000022	1.508887	-9.411404	48.210675
60458	1.613990	0.286445	9.660288	-0.015788	0.030855	-0.014372	1.000000	-0.000048	0.000037	0.000022	1.508776	-9.409467	48.214511
60459	1.602361	0.309768	9.682519	-0.042796	0.034858	0.006255	1.000000	-0.000042	0.000045	0.000006	1.508808	-9.407827	48.215542
60460	1.579740	0.300519	9.708162	-0.053069	0.008705	0.027608	1.000000	-0.000049	0.000044	0.000006	1.507475	-9.407232	48.216317
60461	1.578882	0.297134	9.684032	-0.048848	0.009356	0.003583	1.000000	-0.000040	0.000038	-0.000001	1.507850	-9.406467	48.216454
60462	1.600026	0.307066	9.682991	-0.042430	0.031832	0.006267	1.000000	-0.000055	0.000034	-0.000001	1.505614	-9.406395	48.214674
60463	1.599362	0.305964	9.683136	-0.042207	0.030818	0.006272	1.000000	-0.000055	0.000035	0.000022	1.503835	-9.405963	48.217573
60464	1.609625	0.334970	9.655598	-0.054608	0.061612	-0.018460	1.000000	-0.000053	0.000026	-0.000008	1.503948	-9.405253	48.217118
60465	1.620167	0.312223	9.657900	-0.031149	0.053922	-0.015056	1.000000	-0.000050	0.000013	0.000024	1.502765	-9.407371	48.220070
60466	1.608924	0.276183	9.637063	-0.009888	0.024479	-0.038374	1.000000	-0.000042	0.000015	0.000023	1.503139	-9.408757	48.223859
60467	1.619453	0.307764	9.633786	-0.026563	0.053571	-0.039070	1.000000	-0.000053	0.000028	0.000023	1.501561	-9.409172	48.226773
60468	1.629960	0.287499	9.660383	-0.007065	0.044293	-0.011646	1.000000	-0.000044	0.000023	0.000031	1.500648	-9.409684	48.230740
60469	1.629392	0.284126	9.636208	-0.002850	0.044970	-0.035668	1.000000	-0.000038	0.000031	0.000022	1.500778	-9.409698	48.233618
60470	1.628710	0.283341	9.636346	-0.002411	0.043806	-0.035662	1.000000	-0.000033	0.000041	0.000038	1.502863	-9.408440	48.242721
60471	1.639131	0.260655	9.638652	0.021051	0.036121	-0.032270	1.000000	-0.000057	0.000011	0.000016	1.500976	-9.410777	48.244775
60472	1.638712	0.264625	9.687345	0.012999	0.031615	0.015786	1.000000	-0.000042	0.000045	0.000006	1.500090	-9.410751	48.243280
60473	1.637863	0.258839	9.638916	0.021201	0.034000	-0.032263	1.000000	-0.000038	0.000031	0.000022	1.500221	-9.410766	48.246156
60474	1.604490	0.273835	9.686603	-0.015685	0.012791	0.009698	1.000000	-0.000042	0.000046	0.000022	1.502105	-9.407589	48.252844
60475	1.614481	0.246309	9.640376	0.015753	0.008512	-0.034971	1.000000	-0.000040	0.000038	0.000006	1.502337	-9.406795	48.253881
60476	1.602823	0.272075	9.686929	-0.015236	0.010708	0.009701	1.000000	-0.000051	0.000051	0.000014	1.501378	-9.404738	48.254326
60477	1.612923	0.246824	9.664983	0.012214	0.004729	-0.010944	1.000000	-0.000053	0.000027	0.000007	1.500098	-9.405195	48.255411
60478	1.590609	0.291826	9.685013	-0.037857	0.015172	0.006326	1.000000	-0.000038	0.000031	0.000022	1.501699	-9.405355	48.259764
60479	1.611748	0.299418	9.659714	-0.027316	0.039295	-0.014975	1.000000	-0.000040	0.000037	-0.000009	1.502229	-9.404606	48.258978
60480	1.589196	0.287743	9.660997	-0.033212	0.014502	-0.017694	1.000000	-0.000048	0.000036	-0.000001	1.504111	-9.404786	48.260938
60481	1.610576	0.297607	9.659965	-0.026656	0.036911	-0.014964	1.000000	-0.000050	0.000013	0.000024	1.502938	-9.406904	48.263880
60482	1.631997	0.309918	9.683227	-0.023958	0.057331	0.011797	1.000000	-0.000048	0.000036	0.000007	1.503923	-9.406962	48.268583
60483	1.620367	0.274001	9.662389	-0.002838	0.027950	-0.011584	1.000000	-0.000038	0.000031	0.000022	1.504066	-9.406978	48.271457
60484	1.619863	0.329967	9.681309	-0.046897	0.061922	0.008440	1.000000	-0.000038	0.000031	0.000015	1.503898	-9.407823	48.273093
60485	1.608198	0.294186	9.660466	-0.025777	0.032546	-0.014946	1.000000	-0.000033	0.000040	0.000022	1.504696	-9.406790	48.275932
60486	1.596550	0.315161	9.658436	-0.048662	0.038218	-0.018309	1.000000	-0.000040	0.000038	0.000014	1.505326	-9.405407	48.278981
60487	1.606627	0.292655	9.660774	-0.025194	0.030533	-0.014938	1.000000	-0.000035	0.000047	0.000014	1.506075	-9.403544	48.280890
60488	1.584114	0.337794	9.680859	-0.075282	0.041260	0.002362	1.000000	-0.000038	0.000032	0.000038	1.506044	-9.402352	48.285092
60489	1.605081	0.290917	9.661084	-0.024594	0.028644	-0.014931	1.000000	-0.000051	0.000051	0.000014	1.504887	-9.400036	48.287012
60490	1.593400	0.311733	9.659067	-0.047114	0.034466	-0.018288	1.000000	-0.000038	0.000031	0.000022	1.506586	-9.397388	48.292740
60491	1.581952	0.280826	9.686756	-0.033941	0.001616	0.006352	1.000000	-0.000037	0.000023	0.000007	1.507224	-9.398291	48.293803
60492	1.603284	0.290885	9.685752	-0.027015	0.024282	0.009105	1.000000	-0.000038	0.000031	0.000022	1.507998	-9.395704	48.298854
60493	1.569969	0.300928	9.684810	-0.056353	0.006519	0.002999	1.000000	-0.000046	0.000029	0.000007	1.507585	-9.395950	48.299911
60494	1.613129	0.319104	9.658421	-0.039434	0.054442	-0.015515	1.000000	-0.000061	0.000025	0.000007	1.504442	-9.394810	48.300943
60495	1.623499	0.296294	9.660711	-0.015961	0.046762	-0.012155	1.000000	-0.000046	0.000029	0.000015	1.503879	-9.395032	48.302906
60496	1.622906	0.295198	9.660845	-0.015300	0.045963	-0.012150	1.000000	-0.000063	0.000033	0.000015	1.502505	-9.392172	48.308884
60497	1.611479	0.313435	9.634507	-0.034349	0.053382	-0.039520	1.000000	-0.000044	0.000022	0.000015	1.502141	-9.393239	48.310862
60498	1.622026	0.295498	9.685353	-0.018559	0.041925	0.011887	1.000000	-0.000059	0.000018	0.000016	1.502182	-9.394833	48.315097
60499	1.610690	0.313694	9.659005	-0.037609	0.049346	-0.015481	1.000000	-0.000053	0.000027	0.000007	1.500917	-9.395271	48.316163
60500	1.599116	0.280107	9.662392	-0.020127	0.018099	-0.014896	1.000000	-0.000048	0.000037	0.000014	1.502193	-9.394025	48.321143
60501	1.620344	0.287496	9.637138	-0.009616	0.042282	-0.036148	1.000000	-0.000053	0.000027	0.000015	1.500783	-9.394440	48.323118
60502	1.597887	0.280524	9.686949	-0.023248	0.014268	0.009134	1.000000	-0.000040	0.000039	0.000030	1.502411	-9.392229	48.331061
60503	1.619259	0.287921	9.661676	-0.012741	0.038453	-0.012114	1.000000	-0.000057	0.000011	0.000016	1.500545	-9.394544	48.333086
60504	1.629615	0.267589	9.688244	0.006649	0.028899	0.015255	1.000000	-0.000042	0.000045	0.000006	1.500422	-9.393815	48.332885
60505	1.596321	0.277572	9.687293	-0.022681	0.011130	0.009140	1.000000	-0.000050	0.000013	0.000023	1.499261	-9.395910	48.335802
60506	1.617591	0.285090	9.662040	-0.012084	0.035170	-0.012101	1.000000	-0.000035	0.000048	0.000029	1.500736	-9.394292	48.338597
60507	1.605856	0.249332	9.641120	0.009043	0.005866	-0.035570	1.000000	-0.000038	0.000031	0.000015	1.501039	-9.394307	48.340538
60508	1.605360	0.250891	9.665521	0.005240	0.003339	-0.011545	1.000000	-0.000044	0.000022	0.000015	1.499281	-9.394474	48.340314
60509	1.615838	0.282620	9.662406	-0.011464	0.032412	-0.012090	1.000000	-0.000038	0.000031	0.000015	1.499581	-9.394487	48.342250
60510	1.626161	0.259946	9.664672	0.012148	0.024739	-0.008755	1.000000	-0.000053	0.000027	0.000007	1.498901	-9.394402	48.344238
60511	1.647303	0.269886	9.663748	0.018692	0.047147	-0.005960	1.000000	-0.000035	0.000047	0.000014	1.499661	-9.392512	48.346123
60512	1.613765	0.279974	9.662829	-0.010779	0.029427	-0.012080	1.000000	-0.000048	0.000037	0.000014	1.498110	-9.392236	48.346183
60513	1.613113	0.281450	9.687260	-0.014504	0.026614	0.011947	1.000000	-0.000038	0.000032	0.000038	1.497963	-9.392187	48.350845
60514	1.634313	0.289059	9.662038	-0.004196	0.050625	-0.009273	1.000000	-0.000040	0.000038	-0.000001	1.498293	-9.393019	48.348986
60515	1.611803	0.275066	9.638933	-0.006323	0.028007	-0.036094	1.000000	-0.000038	0.000031	0.000015	1.498591	-9.393034	48.350916
60516	1.622121	0.309211	9.660168	-0.026803	0.054798	-0.012585	1.000000	-0.000040	0.000039	0.000022	1.501223	-9.393518	48.356137
60517	1.621316	0.308358	9.660330	-0.026572	0.053787	-0.012579	1.000000	-0.000042	0.000046	0.000014	1.501131	-9.391834	48.358035
60518	1.598608	0.294215	9.637257	-0.028480	0.031089	-0.039405	1.000000	-0.000049	0.000044	0.000022	1.501357	-9.389858	48.362501
60519	1.597882	0.297998	9.685998	-0.036153	0.026440	0.008645	1.000000	-0.000046	0.000029	0.000015	1.500807	-9.390075	48.364446
60520	1.608191	0.272986	9.663958	-0.008575	0.020422	-0.012055	1.000000	-0.000038	0.000031	0.000022	1.502248	-9.390228	48.368478
60521	1.618650	0.304846	9.660889	-0.025286	0.049490	-0.012552	1.000000	-0.000029	0.000025	0.000015	1.503606	-9.390896	48.370411
60522	1.596234	0.295689	9.686340	-0.034892	0.023315	0.008658	1.000000	-0.000038	0.000031	0.000022	1.505306	-9.388883	48.378500
60523	1.617542	0.303255	9.661124	-0.024404	0.047550	-0.012541	1.000000	-0.000046	0.000029	0.000015	1.504761	-9.389095	48.380442
60524	1.595052	0.291489	9.662295	-0.030846	0.023017	-0.015360	1.000000	-0.000048	0.000037	0.000014	1.502797	-9.390377	48.377005
60525	1.616234	0.301264	9.661406	-0.024307	0.045422	-0.012530	1.000000	-0.000055	0.000035	0.000015	1.501197	-9.389942	48.378941
60526	1.615657	0.300084	9.661539	-0.024238	0.044337	-0.012525	1.000000	-0.000061	0.000026	0.000023	1.498360	-9.391497	48.381175
60527	1.615045	0.299035	9.661674	-0.024006	0.043326	-0.012520	1.000000	-0.000040	0.000039	0.000022	1.498319	-9.390644	48.383992
60528	1.614272	0.298026	9.661834	-0.023407	0.042404	-0.012515	1.000000	-0.000057	0.000043	0.000022	1.497656	-9.387507	48.389704
60529	1.602514	0.264409	9.665140	-0.006226	0.011316	-0.012038	1.000000	-0.000048	0.000036	-0.000001	1.497210	-9.386910	48.389802
60530	1.612863	0.298400	9.686425	-0.026979	0.038549	0.011517	1.000000	-0.000046	0.000030	0.000023	1.496041	-9.387391	48.392876
60531	1.601227	0.264872	9.689699	-0.009796	0.007460	0.011986	1.000000	-0.000048	0.000036	0.000007	1.495445	-9.386774	48.393882
60532	1.611714	0.294170	9.662379	-0.022948	0.038718	-0.012498	1.000000	-0.000044	0.000022	0.000015	1.492061	-9.387847	48.389636
60533	1.633041	0.303961	9.661487	-0.016410	0.061122	-0.009650	1.000000	-0.000055	0.000035	0.000022	1.490306	-9.387390	48.392470
60534	1.621419	0.270350	9.664751	0.001290	0.030003	-0.009188	1.000000	-0.000046	0.000029	0.000015	1.492200	-9.385705	48.399551
60535	1.588284	0.280404	9.663738	-0.028036	0.012241	-0.015332	1.000000	-0.000042	0.000014	0.000015	1.492044	-9.387617	48.401512
60536	1.631641	0.303477	9.686107	-0.018937	0.056257	0.014392	1.000000	-0.000044	0.000022	0.000015	1.492337	-9.387626	48.404670
60537	1.620097	0.265210	9.640756	0.006128	0.028902	-0.033201	1.000000	-0.000057	0.000042	0.000006	1.490688	-9.386352	48.405664
60538	1.608546	0.286011	9.638788	-0.016928	0.034507	-0.036493	1.000000	-0.000038	0.000031	0.000022	1.490887	-9.386690	48.407324
60539	1.629915	0.295960	9.637897	-0.010393	0.056913	-0.033632	1.000000	-0.000044	0.000022	0.000015	1.490534	-9.387750	48.409263
60540	1.607501	0.286630	9.663308	-0.020331	0.030749	-0.012464	1.000000	-0.000038	0.000031	0.000022	1.490482	-9.386911	48.410069
60541	1.585055	0.274937	9.664425	-0.026401	0.006327	-0.015322	1.000000	-0.000046	0.000030	0.000023	1.489782	-9.387098	48.412897
60542	1.638848	0.276343	9.688994	0.005708	0.043709	0.017717	1.000000	-0.000027	0.000049	0.000014	1.490759	-9.384727	48.413271
60543	1.605464	0.286487	9.688014	-0.023616	0.025948	0.011567	1.000000	-0.000052	0.000020	0.000023	1.489400	-9.385964	48.416126
60544	1.604996	0.283385	9.663820	-0.019187	0.026551	-0.012450	1.000000	-0.000024	0.000034	0.000006	1.493777	-9.385755	48.418350
60545	1.626052	0.295858	9.687283	-0.016586	0.047067	0.014445	1.000000	-0.000042	0.000045	0.000006	1.493838	-9.384080	48.419307
60546	1.592723	0.301285	9.637703	-0.037829	0.033258	-0.039749	1.000000	-0.000046	0.000030	0.000023	1.493400	-9.382669	48.421848
60547	1.624870	0.289442	9.638946	-0.008038	0.049000	-0.033587	1.000000	-0.000038	0.000031	0.000015	1.493705	-9.382673	48.423746
60548	1.624170	0.290870	9.663385	-0.011574	0.046208	-0.009561	1.000000	-0.000048	0.000037	0.000022	1.493112	-9.380890	48.428693
60549	1.612626	0.311662	9.661432	-0.034597	0.051861	-0.012836	1.000000	-0.000048	0.000037	0.000014	1.492367	-9.380240	48.430584
60550	1.622860	0.288865	9.663666	-0.011122	0.044128	-0.009551	1.000000	-0.000053	0.000027	0.000015	1.491131	-9.380988	48.430849
60551	1.611473	0.307609	9.637386	-0.030216	0.051682	-0.036845	1.000000	-0.000016	0.000036	0.000014	1.494000	-9.380393	48.432703
60552	1.610752	0.309113	9.661827	-0.033838	0.049062	-0.012819	1.000000	-0.000063	0.000033	0.000015	1.490734	-9.378585	48.434728
60553	1.610205	0.305770	9.637657	-0.029675	0.049959	-0.036834	1.000000	-0.000038	0.000031	0.000022	1.490888	-9.378566	48.437526
60554	1.609409	0.307254	9.662110	-0.033291	0.047138	-0.012808	1.000000	-0.000042	0.000045	0.000006	1.490925	-9.376189	48.435390
60555	1.608688	0.301734	9.613671	-0.025202	0.049950	-0.060843	1.000000	-0.000049	0.000044	0.000014	1.489981	-9.374684	48.437254
60556	1.607852	0.303055	9.638135	-0.029289	0.046722	-0.036817	1.000000	-0.000048	0.000037	0.000014	1.488709	-9.376944	48.437613
60557	1.618177	0.337049	9.659528	-0.049942	0.073873	-0.013166	1.000000	-0.000038	0.000031	0.000015	1.489011	-9.376947	48.439498
60558	1.584777	0.290426	9.639347	-0.034913	0.021305	-0.039704	1.000000	-0.000053	0.000028	0.000031	1.488225	-9.376483	48.443197
60559	1.606115	0.300191	9.638515	-0.028380	0.043707	-0.036800	1.000000	-0.000046	0.000029	0.000015	1.487674	-9.376684	48.445091
60560	1.605268	0.301476	9.662980	-0.031967	0.040636	-0.012775	1.000000	-0.000051	0.000052	0.000029	1.487256	-9.374503	48.450493
60561	1.582773	0.289598	9.664063	-0.038030	0.016219	-0.015676	1.000000	-0.000050	0.000014	0.000039	1.485797	-9.376548	48.455161
60562	1.614999	0.277678	9.665310	-0.007983	0.032207	-0.009502	1.000000	-0.000040	0.000038	-0.000001	1.486354	-9.373644	48.455812
60563	1.603302	0.300857	9.687690	-0.034929	0.035930	0.011259	1.000000	-0.000049	0.000044	0.000014	1.485411	-9.372138	48.457668
60564	1.624563	0.308383	9.662591	-0.024525	0.060206	-0.009844	1.000000	-0.000046	0.000030	0.000023	1.484709	-9.372756	48.459453
60565	1.612973	0.274792	9.665731	-0.007327	0.029127	-0.009492	1.000000	-0.000053	0.000027	0.000015	1.483305	-9.373152	48.461352
60566	1.634242	0.284544	9.664929	-0.000641	0.051604	-0.006572	1.000000	-0.000048	0.000037	0.000022	1.482799	-9.371536	48.466000
60567	1.622786	0.305362	9.662986	-0.023667	0.057257	-0.009824	1.000000	-0.000046	0.000029	0.000015	1.482250	-9.371732	48.467884
60568	1.633218	0.278182	9.616569	0.007850	0.053380	-0.054600	1.000000	-0.000038	0.000031	0.000007	1.483908	-9.371440	48.470489
60569	1.599691	0.292859	9.664170	-0.029305	0.031738	-0.012733	1.000000	-0.000048	0.000037	0.000014	1.483164	-9.370783	48.472354
60570	1.609871	0.270183	9.666378	-0.005847	0.023752	-0.009476	1.000000	-0.000038	0.000031	0.000022	1.484392	-9.372304	48.475541
60571	1.609447	0.264904	9.617884	0.002221	0.026649	-0.057511	1.000000	-0.000031	0.000033	0.000022	1.485404	-9.372085	48.478309
60572	1.619842	0.298868	9.639320	-0.018465	0.053803	-0.033809	1.000000	-0.000053	0.000027	0.000015	1.483659	-9.372436	48.477760
60573	1.575272	0.280792	9.689907	-0.038647	0.002071	0.008368	1.000000	-0.000048	0.000037	0.000022	1.482765	-9.371763	48.480532
60574	1.629259	0.277343	9.665979	0.001607	0.043408	-0.006533	1.000000	-0.000048	0.000036	0.000007	1.482364	-9.369094	48.481993
60575	1.606859	0.322381	9.686286	-0.048595	0.053762	0.010998	1.000000	-0.000031	0.000033	0.000014	1.483525	-9.368890	48.483844
60576	1.627938	0.275741	9.666248	0.002330	0.041348	-0.006524	1.000000	-0.000048	0.000037	0.000014	1.484069	-9.367461	48.484390
60577	1.616473	0.296636	9.664315	-0.020696	0.047001	-0.009763	1.000000	-0.000038	0.000031	0.000022	1.484228	-9.367436	48.487159
60578	1.615547	0.300220	9.713083	-0.028241	0.041671	0.038281	1.000000	-0.000049	0.000044	0.000022	1.484821	-9.367419	48.491081
60579	1.593258	0.281777	9.641204	-0.022564	0.023172	-0.036715	1.000000	-0.000038	0.000031	0.000015	1.485133	-9.367414	48.492941
60580	1.636460	0.302463	9.639523	-0.009910	0.068880	-0.030814	1.000000	-0.000046	0.000030	0.000023	1.484079	-9.368648	48.495289
60581	1.613965	0.293085	9.664843	-0.019875	0.042492	-0.009740	1.000000	-0.000037	0.000023	0.000007	1.484736	-9.369513	48.496253
60582	1.635480	0.300713	9.639744	-0.009019	0.066872	-0.030799	1.000000	-0.000053	0.000027	0.000015	1.485208	-9.368240	48.501442
60583	1.580150	0.302204	9.663921	-0.048532	0.023734	-0.015920	1.000000	-0.000040	0.000039	0.000038	1.484874	-9.367329	48.506011
60584	1.623124	0.322919	9.662297	-0.035731	0.069546	-0.010001	1.000000	-0.000042	0.000045	-0.000010	1.485125	-9.365699	48.501807
60585	1.589462	0.278632	9.666278	-0.024809	0.015070	-0.012681	1.000000	-0.000053	0.000028	0.000023	1.483579	-9.366072	48.504592
60586	1.599778	0.312545	9.687780	-0.045427	0.042147	0.011070	1.000000	-0.000033	0.000040	0.000014	1.484616	-9.364875	48.505615
60587	1.599217	0.309575	9.663604	-0.041285	0.043129	-0.012942	1.000000	-0.000038	0.000031	0.000015	1.484928	-9.364868	48.507465
60588	1.631072	0.302289	9.713523	-0.019171	0.054791	0.041294	1.000000	-0.000031	0.000033	0.000022	1.486832	-9.364495	48.509509
60589	1.576059	0.297252	9.664743	-0.046969	0.017631	-0.015899	1.000000	-0.000048	0.000037	0.000014	1.486095	-9.363835	48.511351
60590	1.597273	0.309319	9.688297	-0.044155	0.038035	0.011093	1.000000	-0.000044	0.000022	0.000015	1.486553	-9.364092	48.513302
60591	1.607751	0.282170	9.641847	-0.012848	0.034370	-0.033713	1.000000	-0.000040	0.000039	0.000038	1.486220	-9.363179	48.517860
60592	1.628640	0.296601	9.689747	-0.014292	0.053031	0.017299	1.000000	-0.000033	0.000040	0.000014	1.485353	-9.361577	48.516948
60593	1.595410	0.302283	9.640103	-0.035807	0.039297	-0.036928	1.000000	-0.000057	0.000042	0.000006	1.483714	-9.360280	48.517868
60594	1.605331	0.281639	9.666621	-0.016185	0.029206	-0.009685	1.000000	-0.000048	0.000037	0.000030	1.484386	-9.361328	48.519159
60595	1.626610	0.291346	9.665890	-0.009658	0.051599	-0.006698	1.000000	-0.000053	0.000028	0.000023	1.482841	-9.361700	48.521929
60596	1.593375	0.301357	9.664829	-0.039118	0.033990	-0.012897	1.000000	-0.000046	0.000029	0.000015	1.481126	-9.361861	48.521621
60597	1.592668	0.302695	9.689264	-0.042779	0.030964	0.011124	1.000000	-0.000038	0.000031	0.000022	1.481287	-9.361836	48.524365
