// Start Time: Unknown
// Update Rate: 100.0Hz
// Filter Profile: human (46.1)
// Firmware Version: 4.4.0
PacketCounter	Acc_X	Acc_Y	Acc_Z	FreeAcc_X	FreeAcc_Y	FreeAcc_Z	OriInc_q0	OriInc_q1	OriInc_q2	OriInc_q3	Roll	Pitch	Yaw
18145	9.896413	-0.206108	0.693706	0.000000	-0.000000	0.110150	1.000000	0.000013	0.000028	0.000009	-16.547535	-85.819383	15.559212
18146	9.928448	-0.207802	0.707034	-0.038513	-0.009912	0.142993	1.000000	0.000011	0.000038	0.000023	-16.450753	-85.981388	15.617205
18147	9.878621	-0.189998	0.694557	-0.028581	0.007158	0.092099	1.000000	0.000023	0.000022	0.000020	-16.470082	-85.978352	15.639199
18148	9.887291	-0.181781	0.673922	-0.006809	0.015626	0.099197	1.000000	0.000026	0.000025	0.000028	-16.495857	-85.974726	15.668767
18149	9.881821	-0.223211	0.683706	-0.016943	-0.025236	0.095225	1.000000	0.000009	0.000031	0.000027	-16.523144	-85.970413	15.697178
18150	9.904880	-0.199540	0.675505	-0.006238	-0.000849	0.117203	1.000000	0.000016	0.000031	0.000016	-16.532124	-85.966400	15.708050
18151	9.887156	-0.182978	0.675571	-0.006802	0.015628	0.099197	1.000000	0.000028	0.000015	0.000013	-16.542614	-85.964281	15.721802
18152	9.896085	-0.209008	0.697509	-0.027983	-0.009354	0.110106	1.000000	0.000021	0.000027	0.000046	-16.598209	-85.959706	15.779985
18153	9.881627	-0.224988	0.685917	-0.016923	-0.025238	0.095225	1.000000	0.000010	0.000041	0.000012	-16.596820	-85.954809	15.779719
18154	9.887009	-0.184385	0.677341	-0.006750	0.015641	0.099197	1.000000	0.000015	0.000025	0.000020	-16.615651	-85.951170	15.800271
18155	9.890250	-0.216982	0.666036	0.004874	-0.016720	0.102323	1.000000	0.000016	0.000031	0.000016	-16.624471	-85.947201	15.810984
18156	9.878192	-0.193673	0.699625	-0.028469	0.007157	0.092100	1.000000	0.000016	0.000031	0.000016	-16.633740	-85.942987	15.822146
18157	9.878142	-0.193971	0.700250	-0.028469	0.007157	0.092100	1.000000	0.000016	0.000031	0.000016	-16.642523	-85.939018	15.832822
18158	9.918900	-0.186955	0.692440	-0.017117	0.015068	0.132084	1.000000	0.000013	0.000028	0.000009	-16.640273	-85.935108	15.832125
18159	9.886766	-0.186041	0.680429	-0.006621	0.015662	0.099197	1.000000	0.000007	0.000040	0.000042	-16.685042	-85.929305	15.877768
18160	9.892368	-0.179662	0.714616	-0.039327	0.023016	0.106981	1.000000	0.000017	0.000041	0.000001	-16.660795	-85.924181	15.855423
18161	9.872258	-0.202172	0.669585	0.004550	-0.000250	0.084316	1.000000	0.000016	0.000021	0.000032	-16.697740	-85.920789	15.894266
18162	9.877864	-0.195823	0.703646	-0.028119	0.007078	0.092101	1.000000	0.000022	0.000047	0.000015	-16.689221	-85.914374	15.888353
18163	9.895481	-0.213050	0.704820	-0.027554	-0.009399	0.110107	1.000000	0.000017	0.000028	0.000027	-16.716592	-85.910411	15.917793
18164	9.904164	-0.204997	0.684313	-0.005581	-0.000946	0.117204	1.000000	0.000020	0.000031	0.000035	-16.744614	-85.904766	15.948242
18165	9.886439	-0.188682	0.684444	-0.006146	0.015531	0.099197	1.000000	0.000015	0.000025	0.000020	-16.762641	-85.901366	15.967993
18166	9.909727	-0.199002	0.718782	-0.038169	0.006367	0.124990	1.000000	0.000014	0.000028	0.000009	-16.751552	-85.896799	15.958500
18167	9.871958	-0.204606	0.673257	0.005141	-0.000421	0.084316	1.000000	0.000024	0.000028	0.000016	-16.760801	-85.893184	15.970587
18168	9.895052	-0.180884	0.665005	0.016101	0.023892	0.106293	1.000000	0.000006	0.000028	0.000020	-16.766759	-85.888095	15.977339
18169	9.863109	-0.214132	0.695595	-0.016358	-0.008993	0.077221	1.000000	0.000025	0.000040	0.000038	-16.802817	-85.882427	16.016330
18170	9.871799	-0.206043	0.675151	0.005650	-0.000559	0.084315	1.000000	0.000015	0.000025	0.000020	-16.810008	-85.877743	16.024974
18171	9.891792	-0.184234	0.721403	-0.038224	0.022707	0.106986	1.000000	0.000019	0.000034	0.000023	-16.827650	-85.873203	16.044844
18172	9.900492	-0.176011	0.700900	-0.016142	0.031085	0.114082	1.000000	0.000015	0.000025	0.000020	-16.828837	-85.868201	16.047773
18173	9.880573	-0.232673	0.698428	-0.015218	-0.025659	0.095227	1.000000	0.000016	0.000031	0.000016	-16.837255	-85.864219	16.058074
18174	9.886000	-0.192139	0.689802	-0.004845	0.015079	0.099199	1.000000	0.000027	0.000031	0.000023	-16.840748	-85.858929	16.064815
18175	9.885954	-0.192590	0.690329	-0.004846	0.015079	0.099199	1.000000	0.000005	0.000022	0.000024	-16.867206	-85.855742	16.091871
18176	9.877159	-0.201641	0.711856	-0.026311	0.006403	0.092106	1.000000	0.000023	0.000022	0.000020	-16.865568	-85.851347	16.093085
18177	9.903533	-0.210378	0.691767	-0.003985	-0.001575	0.117205	1.000000	0.000012	0.000034	0.000035	-16.900785	-85.846462	16.129769
18178	9.868146	-0.177060	0.691557	-0.004885	0.031270	0.081195	1.000000	0.000015	0.000035	0.000005	-16.877069	-85.841375	16.107120
18179	9.885758	-0.194163	0.692694	-0.004322	0.014793	0.099200	1.000000	0.000019	0.000034	0.000023	-16.894673	-85.836865	16.126935
18180	9.897736	-0.218292	0.660420	0.029405	-0.009318	0.109411	1.000000	0.000009	0.000031	0.000027	-16.893921	-85.831046	16.127680
18181	9.908944	-0.205216	0.727768	-0.036233	0.005447	0.124998	1.000000	0.000017	0.000028	0.000027	-16.920753	-85.827109	16.156561
18182	9.894372	-0.186999	0.673371	0.018039	0.022854	0.106292	1.000000	0.000015	0.000025	0.000020	-16.918014	-85.822552	16.155365
18183	9.882294	-0.163684	0.706823	-0.015354	0.046716	0.096082	1.000000	0.000025	0.000028	0.000016	-16.927223	-85.818980	16.167383
18184	9.903167	-0.213178	0.696137	-0.002917	-0.002456	0.117205	1.000000	0.000003	0.000041	0.000023	-16.912483	-85.812924	16.153485
18185	9.885454	-0.196521	0.696368	-0.003497	0.014024	0.099201	1.000000	0.000021	0.000028	-0.000002	-16.894416	-85.809927	16.137718
18186	9.867749	-0.179895	0.696470	-0.003988	0.030152	0.081198	1.000000	0.000017	0.000028	0.000027	-16.892441	-85.806115	16.138819
18187	9.885359	-0.197155	0.697523	-0.003433	0.013672	0.099202	1.000000	0.000016	0.000031	0.000016	-16.901016	-85.802229	16.149293
18188	9.894084	-0.188954	0.677055	0.018157	0.021834	0.106294	1.000000	0.000009	0.000031	0.000027	-16.905204	-85.799457	16.154504
18189	9.894033	-0.189368	0.677677	0.018129	0.021835	0.106294	1.000000	0.000016	0.000031	0.000016	-16.914070	-85.795637	16.165257
18190	9.893980	-0.189690	0.678366	0.018271	0.021378	0.106295	1.000000	0.000029	0.000037	0.000019	-16.884891	-85.790844	16.141044
18191	9.885145	-0.198722	0.700108	-0.003518	0.012877	0.099203	1.000000	-0.000012	0.000028	0.000024	-16.910047	-85.787099	16.164952
18192	9.902758	-0.216010	0.701074	-0.002804	-0.004025	0.117204	1.000000	0.000023	0.000022	0.000020	-16.893290	-85.783930	16.151214
18193	9.861790	-0.189514	0.667311	0.028841	0.021561	0.073405	1.000000	0.000019	0.000034	0.000023	-16.910951	-85.779550	16.171150
18194	9.925830	-0.192822	0.693527	0.007996	0.019941	0.139187	1.000000	0.000019	0.000034	0.000023	-16.894377	-85.774982	16.157213
18195	9.876150	-0.209039	0.723623	-0.025067	0.003547	0.092111	1.000000	0.000019	0.000034	0.000023	-16.911956	-85.770598	16.177074
18196	9.893673	-0.192196	0.682133	0.018394	0.020084	0.106298	1.000000	0.000008	0.000035	0.000016	-16.886050	-85.767370	16.153807
18197	9.884822	-0.201133	0.703970	-0.003399	0.011583	0.099204	1.000000	0.000021	0.000041	0.000019	-16.894512	-85.762451	16.164743
18198	9.899152	-0.186171	0.717013	-0.014507	0.027113	0.114096	1.000000	0.000030	0.000034	0.000031	-16.896499	-85.758569	16.168801
18199	9.893501	-0.193516	0.684251	0.018272	0.019736	0.106298	1.000000	-0.000012	0.000028	0.000024	-16.921671	-85.754867	16.192716
18200	9.893458	-0.193950	0.684747	0.018242	0.019384	0.106299	1.000000	0.000023	0.000022	0.000020	-16.914139	-85.752557	16.185488
18201	9.902268	-0.219682	0.706819	-0.002986	-0.005597	0.117203	1.000000	0.000014	0.000028	0.000009	-16.914306	-85.749357	16.187178
18202	9.893363	-0.194480	0.685967	0.018330	0.018927	0.106300	1.000000	0.000013	0.000044	0.000019	-16.884241	-85.743922	16.159894
18203	9.878909	-0.210299	0.674451	0.029350	0.003052	0.091407	1.000000	0.000019	0.000034	0.000023	-16.901993	-85.739576	16.179888
18204	9.884442	-0.203963	0.708485	-0.003844	0.009966	0.099206	1.000000	0.000009	0.000031	0.000027	-16.901041	-85.738146	16.181902
18205	9.884356	-0.170362	0.666412	0.039062	0.043449	0.095400	1.000000	0.000006	0.000028	0.000020	-16.918434	-85.734622	16.200103
18206	9.893155	-0.196144	0.688487	0.017932	0.018024	0.106302	1.000000	0.000012	0.000022	0.000013	-16.892561	-85.732148	16.175896
18207	9.896359	-0.228947	0.677242	0.029519	-0.014339	0.109405	1.000000	0.000023	0.000034	0.000042	-16.936990	-85.727261	16.223120
18208	9.907447	-0.181832	0.701901	0.005924	0.033491	0.121198	1.000000	0.000023	0.000022	0.000020	-16.944772	-85.730012	16.233930
18209	9.875372	-0.180648	0.689604	0.016357	0.034107	0.088309	1.000000	0.000014	0.000028	0.000009	-16.945223	-85.726921	16.235945
18210	9.869755	-0.221788	0.699607	0.006190	-0.007266	0.084312	1.000000	0.000013	0.000044	0.000019	-16.914564	-85.722476	16.209493
18211	9.924937	-0.199604	0.704311	0.006346	0.016485	0.139195	1.000000	0.000015	0.000025	0.000020	-16.932706	-85.719375	16.229420
18212	9.892858	-0.198492	0.692070	0.016862	0.016695	0.106307	1.000000	0.000016	0.000031	0.000016	-16.909776	-85.715893	16.208552
18213	9.883988	-0.207445	0.713778	-0.004947	0.008195	0.099207	1.000000	0.000027	0.000031	0.000024	-16.928202	-85.711992	16.230224
18214	9.883935	-0.173764	0.671761	0.037561	0.041352	0.095415	1.000000	0.000008	0.000035	0.000016	-16.921008	-85.710672	16.221467
18215	9.892697	-0.199439	0.694103	0.016315	0.016364	0.106308	1.000000	0.000028	0.000041	0.000008	-16.912804	-85.706228	16.216457
18216	9.866180	-0.191412	0.715364	-0.006747	0.023963	0.081214	1.000000	0.000006	0.000028	0.000020	-16.916049	-85.707259	16.219562
18217	9.901419	-0.191632	0.674268	0.037269	0.024466	0.113413	1.000000	0.000028	0.000028	0.000035	-16.952823	-85.703438	16.259685
18218	9.892546	-0.200733	0.695877	0.015026	0.015658	0.106311	1.000000	0.000015	0.000025	0.000020	-16.957695	-85.703254	16.261186
18219	9.892504	-0.201162	0.696342	0.014956	0.015662	0.106311	1.000000	0.000005	0.000022	0.000024	-16.984898	-85.700438	16.288915
18220	9.892463	-0.201591	0.696806	0.013949	0.015229	0.106313	1.000000	0.000015	0.000025	0.000020	-16.991905	-85.703399	16.298756
18221	9.892413	-0.201891	0.697431	0.013864	0.015234	0.106314	1.000000	0.000018	0.000038	0.000012	-16.992975	-85.699322	16.301814
18222	9.892358	-0.202212	0.698120	0.013698	0.014820	0.106314	1.000000	0.000027	0.000031	0.000024	-16.983270	-85.696727	16.295154
18223	9.895591	-0.200919	0.644183	0.068191	0.015942	0.105637	1.000000	0.000005	0.000022	0.000024	-17.010702	-85.693983	16.323116
18224	9.883433	-0.211561	0.720226	-0.008875	0.005788	0.099206	1.000000	0.000014	0.000028	0.000009	-16.985612	-85.695576	16.306046
18225	9.895507	-0.201425	0.645309	0.067364	0.015409	0.105643	1.000000	0.000026	0.000034	0.000012	-16.987259	-85.691901	16.310705
18226	9.920949	-0.172748	0.724975	-0.010339	0.045675	0.136105	1.000000	0.000008	0.000025	0.000032	-17.017725	-85.694282	16.340568
18227	9.900957	-0.195530	0.679906	0.033444	0.022438	0.113432	1.000000	0.000011	0.000038	0.000023	-17.036115	-85.689951	16.360227
18228	9.900903	-0.196014	0.680559	0.032549	0.022081	0.113435	1.000000	0.000017	0.000028	0.000028	-17.055270	-85.691571	16.378842
18229	9.874381	-0.188117	0.701699	0.010125	0.030088	0.088331	1.000000	0.000016	0.000031	0.000016	-17.065896	-85.688218	16.391301
18230	9.883111	-0.213985	0.723930	-0.012369	0.004786	0.099203	1.000000	0.000009	0.000031	0.000027	-17.096470	-85.691673	16.418180
18231	9.900752	-0.197366	0.682362	0.031009	0.021777	0.113441	1.000000	0.000017	0.000028	0.000028	-17.125381	-85.688405	16.449041
18232	9.891842	-0.206333	0.704190	0.009024	0.012795	0.106323	1.000000	0.000023	0.000047	0.000015	-17.092482	-85.684807	16.423329
18233	9.850921	-0.213750	0.713111	-0.002342	0.004938	0.066322	1.000000	0.000023	0.000022	0.000020	-17.113119	-85.682460	16.446567
18234	9.882961	-0.181679	0.683884	0.028410	0.037422	0.095461	1.000000	0.000014	0.000041	0.000030	-17.147695	-85.687065	16.483712
18235	9.874038	-0.190719	0.705801	0.006507	0.028934	0.088337	1.000000	0.000013	0.000044	0.000019	-17.158135	-85.682429	16.495553
18236	9.886077	-0.214819	0.673612	0.040434	0.004736	0.098557	1.000000	0.000023	0.000022	0.000020	-17.139509	-85.676762	16.474353
18237	9.882799	-0.182857	0.685907	0.028678	0.037107	0.095462	1.000000	0.000016	0.000031	0.000016	-17.150713	-85.673534	16.487342
18238	9.914668	-0.218686	0.741991	-0.025548	0.002567	0.132077	1.000000	0.000023	0.000022	0.000020	-17.153178	-85.675347	16.494618
18239	9.868314	-0.198977	0.674811	0.038861	0.020824	0.080575	1.000000	0.000005	0.000047	0.000019	-17.162759	-85.670309	16.504639
18240	9.882637	-0.183971	0.687931	0.025740	0.036292	0.095473	1.000000	0.000019	0.000034	0.000023	-17.195065	-85.677923	16.542447
18241	9.891333	-0.209974	0.710240	0.004364	0.011305	0.106328	1.000000	0.000012	0.000034	0.000035	-17.232570	-85.673951	16.581358
18242	9.882535	-0.184974	0.689139	0.024934	0.035840	0.095477	1.000000	0.000020	0.000019	0.000013	-17.221323	-85.675762	16.577487
18243	9.891244	-0.210692	0.711268	0.003554	0.010849	0.106328	1.000000	0.000016	0.000031	0.000016	-17.233079	-85.672753	16.591117
18244	9.900063	-0.202545	0.690785	0.025237	0.019056	0.113463	1.000000	0.000017	0.000028	0.000028	-17.239074	-85.669588	16.593603
18245	9.887914	-0.179255	0.724173	-0.008304	0.042935	0.103233	1.000000	0.000006	0.000028	0.000020	-17.259137	-85.666754	16.614377
18246	9.899972	-0.203385	0.691841	0.023770	0.018767	0.113467	1.000000	0.000023	0.000022	0.000021	-17.283844	-85.671426	16.638211
18247	9.885548	-0.219104	0.679965	0.034665	0.002911	0.098579	1.000000	0.000012	0.000022	0.000013	-17.296372	-85.669589	16.652001
18248	9.882274	-0.187142	0.692278	0.021758	0.034949	0.095487	1.000000	0.000019	0.000034	0.000023	-17.317250	-85.672799	16.674638
18249	9.885452	-0.219746	0.681151	0.033179	0.002591	0.098584	1.000000	0.000014	0.000028	0.000009	-17.321096	-85.670470	16.679904
18250	9.899783	-0.204710	0.694152	0.020457	0.018082	0.113476	1.000000	0.000014	0.000041	0.000030	-17.354386	-85.674783	16.717812
18251	9.882117	-0.188292	0.694207	0.019709	0.034593	0.095493	1.000000	0.000023	0.000022	0.000021	-17.376992	-85.672901	16.742969
18252	9.890799	-0.214144	0.716408	-0.004219	0.009350	0.106330	1.000000	0.000019	0.000034	0.000023	-17.435826	-85.683969	16.801399
18253	9.908518	-0.197454	0.674824	0.039021	0.026338	0.120635	1.000000	0.000023	0.000022	0.000021	-17.459380	-85.682266	16.827459
18254	9.867587	-0.204810	0.683634	0.026531	0.018186	0.080621	1.000000	0.000010	0.000041	0.000012	-17.464131	-85.685196	16.832298
18255	9.881918	-0.189774	0.696635	0.015180	0.034059	0.095503	1.000000	0.000017	0.000028	0.000028	-17.495975	-85.682632	16.866034
18256	9.899474	-0.207154	0.697831	0.014054	0.017146	0.113488	1.000000	0.000019	0.000034	0.000023	-17.518987	-85.687979	16.897120
18257	9.899423	-0.207454	0.698456	0.013774	0.017155	0.113489	1.000000	0.000014	0.000028	0.000009	-17.524706	-85.686105	16.904255
18258	9.881765	-0.190851	0.698503	0.012289	0.033478	0.095509	1.000000	0.000019	0.000034	0.000023	-17.549581	-85.687245	16.922303
18259	9.881708	-0.191177	0.699221	0.012003	0.033491	0.095509	1.000000	0.000018	0.000038	0.000012	-17.555286	-85.684271	16.929863
18260	9.899259	-0.208454	0.700488	0.010825	0.016754	0.113493	1.000000	0.000009	0.000031	0.000027	-17.601280	-85.689768	16.972384
18261	9.876117	-0.198873	0.667075	0.042845	0.025897	0.087803	1.000000	0.000015	0.000025	0.000020	-17.625697	-85.688003	16.998262
18262	9.881557	-0.192411	0.701023	0.009368	0.033143	0.095513	1.000000	0.000027	0.000031	0.000024	-17.647831	-85.687610	17.010739
18263	9.867125	-0.208269	0.689231	0.020155	0.017298	0.080637	1.000000	0.000005	0.000022	0.000024	-17.680945	-85.686053	17.044095
18264	9.895854	-0.177775	0.714367	-0.003586	0.048695	0.110390	1.000000	0.000014	0.000028	0.000009	-17.690435	-85.691863	17.058029
18265	9.875933	-0.200360	0.669344	0.040027	0.025467	0.087816	1.000000	0.000003	0.000041	0.000023	-17.713543	-85.688339	17.081147
18266	9.878144	-0.161654	0.715083	-0.005649	0.064812	0.092411	1.000000	0.000034	0.000021	0.000028	-17.738029	-85.692610	17.115622
18267	9.893436	-0.218154	0.671116	0.038966	0.008573	0.105804	1.000000	0.000008	0.000035	0.000016	-17.753328	-85.690080	17.131571
18268	9.872569	-0.169235	0.682905	0.024826	0.057343	0.084722	1.000000	0.000016	0.000031	0.000016	-17.800326	-85.697683	17.168811
18269	9.866826	-0.210491	0.692837	0.014333	0.016515	0.080649	1.000000	0.000017	0.000028	0.000028	-17.834967	-85.695589	17.205114
18270	9.881153	-0.195633	0.705809	0.003050	0.031934	0.095521	1.000000	0.000022	0.000037	0.000031	-17.830531	-85.692193	17.208174
18271	9.893227	-0.219738	0.673675	0.036037	0.008062	0.105815	1.000000	0.000032	0.000028	0.000005	-17.830908	-85.690840	17.211794
18272	9.889973	-0.187755	0.685896	0.023598	0.040135	0.102710	1.000000	0.000016	0.000021	0.000032	-17.862474	-85.692567	17.243183
18273	9.921904	-0.189563	0.699445	0.012633	0.039510	0.135560	1.000000	0.000017	0.000041	0.000001	-17.852327	-85.689971	17.234552
18274	9.889876	-0.188401	0.687111	0.023161	0.039835	0.102712	1.000000	0.000006	0.000018	0.000036	-17.873126	-85.687706	17.253131
18275	9.880909	-0.197493	0.708702	0.001076	0.031380	0.095523	1.000000	0.000019	0.000034	0.000023	-17.898386	-85.685031	17.280233
18276	9.892990	-0.221698	0.676510	0.033112	0.007376	0.105826	1.000000	0.000015	0.000025	0.000020	-17.937346	-85.688980	17.308299
18277	9.904117	-0.174382	0.701110	0.010065	0.055642	0.117585	1.000000	0.000027	0.000031	0.000024	-17.963890	-85.686701	17.337527
18278	9.892893	-0.222405	0.677697	0.031413	0.007112	0.105832	1.000000	0.000005	0.000032	0.000009	-17.971444	-85.690897	17.344297
18279	9.884181	-0.197200	0.656614	0.052301	0.032119	0.095052	1.000000	0.000025	0.000028	0.000016	-17.989669	-85.689257	17.364846
18280	9.907176	-0.207728	0.691240	0.018825	0.022782	0.120702	1.000000	0.000041	0.000034	0.000038	-18.033873	-85.690811	17.408308
18281	9.863008	-0.182845	0.711760	-0.004242	0.047363	0.077546	1.000000	-0.000003	0.000035	0.000009	-18.041417	-85.688727	17.414962
18282	9.898418	-0.182990	0.670775	0.038268	0.047514	0.109932	1.000000	0.000002	0.000019	0.000017	-18.070750	-85.694555	17.443203
18283	9.907034	-0.208810	0.692955	0.016616	0.022564	0.120707	1.000000	0.000027	0.000031	0.000024	-18.098208	-85.692436	17.473278
18284	9.875014	-0.207699	0.680570	0.025437	0.023008	0.087871	1.000000	0.000015	0.000025	0.000020	-18.142307	-85.699457	17.514216
18285	9.903735	-0.177346	0.705750	0.002815	0.054773	0.117594	1.000000	0.000017	0.000028	0.000028	-18.178646	-85.697616	17.552017
18286	9.874916	-0.208519	0.681751	0.024180	0.022802	0.087874	1.000000	0.000018	0.000038	0.000012	-18.179235	-85.698229	17.548673
18287	9.889245	-0.193486	0.694732	0.012664	0.038702	0.102735	1.000000	0.000017	0.000028	0.000028	-18.215746	-85.696402	17.586608
18288	9.898131	-0.185349	0.674354	0.032710	0.046960	0.109955	1.000000	0.000010	0.000041	0.000012	-18.237592	-85.701252	17.604771
18289	9.889140	-0.194159	0.696042	0.010555	0.038533	0.102738	1.000000	0.000023	0.000022	0.000021	-18.266759	-85.700432	17.635922
18290	9.892296	-0.226827	0.684904	0.021682	0.005832	0.105859	1.000000	0.000008	0.000035	0.000016	-18.259654	-85.699073	17.627300
18291	9.880399	-0.169445	0.675624	0.030975	0.063220	0.091983	1.000000	0.000011	0.000038	0.000023	-18.286555	-85.696401	17.654810
18292	9.888981	-0.195362	0.697971	0.009406	0.038048	0.102741	1.000000	0.000017	0.000028	0.000028	-18.303592	-85.694342	17.664320
18293	9.879974	-0.204305	0.719718	-0.012746	0.029630	0.095520	1.000000	0.000021	0.000041	0.000019	-18.322168	-85.691455	17.684564
18294	9.888861	-0.196200	0.699435	0.007610	0.037937	0.102743	1.000000	0.000011	0.000038	0.000023	-18.358712	-85.694461	17.713782
18295	9.894560	-0.155852	0.690718	0.017364	0.078812	0.106848	1.000000	0.000017	0.000028	0.000028	-18.396057	-85.692719	17.752390
18296	9.888746	-0.197185	0.700771	0.005928	0.037742	0.102745	1.000000	0.000032	0.000040	0.000027	-18.424224	-85.694743	17.779180
18297	9.900839	-0.221254	0.668836	0.038780	0.013844	0.113098	1.000000	0.000017	0.000041	0.000001	-18.417063	-85.692564	17.773083
18298	9.888626	-0.197751	0.702304	0.003822	0.037370	0.102748	1.000000	0.000020	0.000031	0.000035	-18.459243	-85.697926	17.825674
18299	9.902955	-0.182877	0.715225	-0.007740	0.053280	0.117600	1.000000	0.000007	0.000028	0.000020	-18.487622	-85.696523	17.854042
18300	9.888521	-0.198581	0.703547	0.001622	0.036934	0.102750	1.000000	0.000018	0.000038	0.000012	-18.491547	-85.702512	17.870037
18301	9.888467	-0.198839	0.704235	0.001163	0.036969	0.102750	1.000000	0.000016	0.000031	0.000016	-18.511660	-85.700988	17.891321
18302	9.888772	-0.165279	0.662088	0.042588	0.070112	0.099263	1.000000	0.000027	0.000031	0.000024	-18.545319	-85.706119	17.926970
18303	9.888369	-0.199655	0.705386	-0.000905	0.036725	0.102751	1.000000	0.000005	0.000022	0.000024	-18.583391	-85.705396	17.964912
18304	9.897284	-0.191641	0.684948	0.018985	0.044834	0.110000	1.000000	0.000032	0.000040	0.000027	-18.617331	-85.710808	18.005129
18305	9.897230	-0.191965	0.685635	0.018501	0.044870	0.110001	1.000000	0.000014	0.000028	0.000009	-18.629464	-85.710006	18.018091
18306	9.888208	-0.200867	0.707285	-0.004365	0.036047	0.102752	1.000000	0.000020	0.000031	0.000035	-18.662685	-85.712339	18.055447
18307	9.897130	-0.192903	0.686815	0.016869	0.044536	0.110006	1.000000	0.000007	0.000028	0.000020	-18.691916	-85.711176	18.084748
18308	9.874105	-0.183290	0.653381	0.048735	0.053320	0.084445	1.000000	0.000019	0.000034	0.000023	-18.697225	-85.710288	18.089432
18309	9.911019	-0.212204	0.743206	-0.038345	0.026697	0.128314	1.000000	0.000016	0.000031	0.000016	-18.718068	-85.708935	18.111451
18310	9.873996	-0.184061	0.654812	0.047832	0.052841	0.084452	1.000000	0.000016	0.000047	0.000026	-18.702796	-85.706033	18.106616
18311	9.878944	-0.211549	0.731668	-0.028536	0.026855	0.095495	1.000000	0.000005	0.000022	0.000024	-18.741081	-85.705414	18.144839
18312	9.896854	-0.195059	0.690176	0.013320	0.043550	0.110015	1.000000	0.000032	0.000040	0.000027	-18.779138	-85.709237	18.180523
18313	9.887812	-0.203980	0.711917	-0.008903	0.035131	0.102753	1.000000	0.000007	0.000028	0.000020	-18.808518	-85.708126	18.209980
18314	9.887760	-0.204441	0.712506	-0.010720	0.034723	0.102752	1.000000	0.000009	0.000031	0.000027	-18.846008	-85.714496	18.254428
18315	9.879135	-0.179473	0.691336	0.010070	0.059730	0.092048	1.000000	0.000015	0.000025	0.000020	-18.876513	-85.713807	18.285983
18316	9.870100	-0.188295	0.712950	-0.013516	0.051001	0.084779	1.000000	0.000016	0.000031	0.000016	-18.908453	-85.720656	18.317609
18317	9.882225	-0.212566	0.680821	0.019232	0.027104	0.095186	1.000000	0.000018	0.000028	0.000028	-18.947920	-85.719444	18.358459
18318	9.896559	-0.197508	0.693690	0.007168	0.042669	0.110026	1.000000	0.000022	0.000025	0.000009	-18.947081	-85.722003	18.357645
18319	9.905503	-0.189508	0.673226	0.028356	0.051155	0.117303	1.000000	0.000023	0.000034	0.000042	-19.003769	-85.719621	18.416394
18320	9.891066	-0.205301	0.661634	0.038126	0.034939	0.102474	1.000000	0.000017	0.000041	0.000001	-18.990702	-85.723361	18.406452
18321	9.896398	-0.198681	0.695654	0.004724	0.042385	0.110028	1.000000	0.000016	0.000021	0.000032	-19.039802	-85.722746	18.456751
18322	9.869786	-0.190686	0.716644	-0.018129	0.050349	0.084775	1.000000	0.000021	0.000041	0.000019	-19.055684	-85.721918	18.460841
18323	9.878733	-0.182581	0.696244	0.003050	0.058832	0.092058	1.000000	0.000015	0.000025	0.000020	-19.087119	-85.721356	18.493232
18324	9.887238	-0.208413	0.718575	-0.018852	0.033554	0.102744	1.000000	0.000019	0.000034	0.000024	-19.093244	-85.720536	18.498594
18325	9.870080	-0.157986	0.675711	0.023255	0.083523	0.081377	1.000000	0.000007	0.000028	0.000020	-19.123776	-85.719620	18.529126
18326	9.890777	-0.207648	0.665213	0.034201	0.034179	0.102491	1.000000	0.000002	0.000019	0.000017	-19.131382	-85.723179	18.541834
18327	9.869547	-0.192555	0.719436	-0.021317	0.049711	0.084772	1.000000	0.000025	0.000028	0.000016	-19.154411	-85.722452	18.566952
18328	9.878496	-0.184589	0.699066	0.000822	0.057882	0.092064	1.000000	0.000025	0.000040	0.000038	-19.155508	-85.714856	18.563006
18329	9.886982	-0.210446	0.721497	-0.021039	0.032954	0.102742	1.000000	0.000014	0.000028	0.000009	-19.168898	-85.714319	18.577165
18330	9.878388	-0.185330	0.700403	-0.000400	0.057544	0.092066	1.000000	0.000011	0.000038	0.000023	-19.171976	-85.713845	18.582263
18331	9.895890	-0.202696	0.701692	-0.000548	0.041057	0.110035	1.000000	0.000023	0.000022	0.000021	-19.204136	-85.713612	18.616312
18332	9.890479	-0.210037	0.668886	0.030591	0.033288	0.102505	1.000000	0.000011	0.000038	0.000023	-19.235392	-85.718819	18.650502
18333	9.895779	-0.203504	0.703031	-0.002823	0.040748	0.110036	1.000000	0.000029	0.000037	0.000020	-19.257621	-85.716971	18.675323
18334	9.887190	-0.178589	0.681961	0.017081	0.065366	0.099372	1.000000	0.000020	0.000031	0.000035	-19.300011	-85.720811	18.721149
18335	9.863738	-0.202924	0.691315	0.005972	0.041093	0.077241	1.000000	0.000008	0.000035	0.000016	-19.321392	-85.719434	18.742722
18336	9.881237	-0.220118	0.692646	0.005553	0.024335	0.095210	1.000000	0.000014	0.000028	0.000009	-19.321821	-85.720871	18.737057
18337	9.890212	-0.211961	0.672221	0.026709	0.032810	0.102518	1.000000	0.000019	0.000034	0.000024	-19.352780	-85.719260	18.769466
18338	9.936458	-0.198509	0.698283	0.004134	0.047521	0.150140	1.000000	0.000016	0.000031	0.000016	-19.337714	-85.719626	18.764402
18339	9.863532	-0.204196	0.693867	0.003434	0.040435	0.077245	1.000000	0.000019	0.000034	0.000024	-19.368534	-85.718021	18.796712
18340	9.877858	-0.189215	0.706804	-0.007661	0.055859	0.092073	1.000000	0.000015	0.000025	0.000020	-19.349543	-85.714985	18.782579
18341	9.886836	-0.181242	0.686376	0.013498	0.064334	0.099384	1.000000	0.000022	0.000037	0.000031	-19.388591	-85.712755	18.823483
18342	9.877755	-0.190215	0.707980	-0.010241	0.055569	0.092072	1.000000	0.000013	0.000018	0.000025	-19.440542	-85.721603	18.877861
18343	9.886737	-0.182069	0.687587	0.010904	0.064043	0.099390	1.000000	0.000012	0.000047	0.000008	-19.443193	-85.719209	18.881089
18344	9.904227	-0.199292	0.688995	0.004234	-0.002668	0.117474	1.000000	0.000023	0.000022	0.000021	-15.832136	-85.841006	14.997479
18345	9.868562	-0.199631	0.730927	-0.040152	-0.003024	0.084837	1.000000	0.000019	0.000034	0.000024	-15.834188	-85.840551	14.999877
18346	9.904130	-0.200112	0.690146	0.002993	-0.003438	0.117475	1.000000	0.000015	0.000025	0.000020	-15.835895	-85.841194	15.007672
18347	9.889710	-0.215891	0.678324	0.013469	-0.019665	0.102580	1.000000	0.000007	0.000028	0.000020	-15.837173	-85.841512	15.007830
18348	9.877455	-0.192437	0.711553	-0.020194	0.004123	0.092212	1.000000	0.000018	0.000028	0.000028	-15.846962	-85.841221	15.012851
18349	9.894942	-0.209880	0.712870	-0.020550	-0.012882	0.110090	1.000000	0.000027	0.000031	0.000024	-15.849720	-85.841127	15.016897
18350	9.895440	-0.176460	0.670701	0.022021	0.019962	0.106981	1.000000	0.000019	0.000034	0.000024	-15.854538	-85.840800	15.008792
18351	9.877296	-0.193709	0.713416	-0.022091	0.003007	0.092208	1.000000	0.000025	0.000028	0.000017	-15.848046	-85.841260	15.003242
18352	9.877249	-0.194050	0.713975	-0.022680	0.002633	0.092207	1.000000	0.000007	0.000028	0.000020	-15.849051	-85.841381	14.995353
18353	9.903789	-0.203080	0.694159	-0.001303	-0.006094	0.117474	1.000000	0.000016	0.000021	0.000032	-15.869471	-85.842081	15.015764
18354	9.862782	-0.210324	0.702642	-0.012796	-0.013978	0.077310	1.000000	0.000006	0.000032	0.000009	-15.851705	-85.842200	15.002786
18355	9.886165	-0.186665	0.694544	-0.002772	0.009764	0.099597	1.000000	0.000014	0.000028	0.000009	-15.835254	-85.842855	14.985989
18356	9.903649	-0.203938	0.695908	-0.003123	-0.007242	0.117472	1.000000	0.000019	0.000034	0.000024	-15.837235	-85.842278	14.994475
18357	9.880741	-0.194356	0.662452	0.028846	0.001439	0.092101	1.000000	0.000019	0.000034	0.000024	-15.839302	-85.841824	14.996890
18358	9.876955	-0.196291	0.717421	-0.026286	0.000334	0.092199	1.000000	0.000013	0.000018	0.000025	-15.848429	-85.842651	15.003780
18359	9.871594	-0.203632	0.684549	0.005936	-0.007614	0.084704	1.000000	0.000008	0.000035	0.000016	-15.840532	-85.842391	14.994943
18360	9.894975	-0.180186	0.676546	0.016056	0.016122	0.107000	1.000000	0.000019	0.000034	0.000024	-15.840759	-85.841381	14.987319
18361	9.885864	-0.189141	0.698146	-0.006311	0.007466	0.099598	1.000000	0.000016	0.000021	0.000032	-15.861188	-85.842082	15.007739
18362	9.885824	-0.189521	0.698611	-0.006985	0.007098	0.099597	1.000000	0.000022	0.000025	0.000009	-15.847683	-85.843367	14.987810
18363	9.888931	-0.222227	0.687564	0.003726	-0.025762	0.102574	1.000000	0.000009	0.000031	0.000027	-15.858228	-85.843130	14.997584
18364	9.903255	-0.207364	0.700479	-0.007950	-0.010290	0.117467	1.000000	0.000026	0.000024	0.000028	-15.869816	-85.843319	14.992373
18365	9.880377	-0.197797	0.666853	0.024038	-0.001629	0.092114	1.000000	0.000007	0.000028	0.000020	-15.871102	-85.843637	14.992542
18366	9.885636	-0.191291	0.700779	-0.009475	0.005600	0.099596	1.000000	0.000026	0.000024	0.000028	-15.885921	-85.844361	15.014174
18367	9.885577	-0.191734	0.701494	-0.010099	0.005217	0.099596	1.000000	0.000005	0.000047	0.000019	-15.877378	-85.842609	15.004276
18368	9.885521	-0.192107	0.702179	-0.010629	0.004818	0.099596	1.000000	0.000023	0.000021	0.000021	-15.877088	-85.843145	15.013675
18369	9.902994	-0.209390	0.703562	-0.011027	-0.012201	0.117462	1.000000	0.000010	0.000041	0.000012	-15.860009	-85.842308	14.995838
18370	9.871048	-0.208139	0.691033	-0.000791	-0.011784	0.084701	1.000000	0.000013	0.000018	0.000025	-15.872167	-85.843637	15.007188
18371	9.894455	-0.184786	0.682879	0.009230	0.011936	0.107014	1.000000	0.000019	0.000034	0.000024	-15.874249	-85.843183	15.009619
18372	9.885316	-0.193650	0.704634	-0.013065	0.003298	0.099593	1.000000	0.000011	0.000038	0.000023	-15.874264	-85.841971	15.000966
18373	9.885257	-0.194092	0.705349	-0.013689	0.002915	0.099593	1.000000	0.000019	0.000034	0.000024	-15.876347	-85.841517	15.003399
18374	9.897444	-0.218428	0.673212	0.018733	-0.021686	0.109988	1.000000	0.000010	0.000015	0.000017	-15.879661	-85.843380	15.008221
18375	9.885169	-0.194703	0.706407	-0.014948	0.002163	0.099591	1.000000	0.000028	0.000041	0.000008	-15.854838	-85.842688	14.984701
18376	9.879834	-0.201922	0.673631	0.017348	-0.005824	0.092126	1.000000	0.000023	0.000021	0.000021	-15.855051	-85.843326	14.991138
18377	9.888213	-0.227847	0.696000	-0.004806	-0.031101	0.102559	1.000000	0.000012	0.000034	0.000035	-15.874865	-85.842533	15.010528
18378	9.908485	-0.172247	0.699435	-0.006110	0.025122	0.121913	1.000000	0.000013	0.000018	0.000025	-15.888369	-85.843836	15.003968
18379	9.879696	-0.203398	0.675207	0.015461	-0.006955	0.092129	1.000000	0.000017	0.000031	0.000016	-15.881198	-85.843938	14.996801
18380	9.872684	-0.172793	0.741948	-0.050981	0.024513	0.089183	1.000000	0.000021	0.000041	0.000019	-15.872578	-85.842525	14.990586
18381	9.879591	-0.204027	0.676547	0.014284	-0.007722	0.092130	1.000000	0.000012	0.000022	0.000013	-15.865332	-85.843758	14.982819
18382	9.902336	-0.214324	0.711290	-0.018910	-0.017153	0.117443	1.000000	0.000008	0.000035	0.000016	-15.855440	-85.843099	14.977300
18383	9.884763	-0.197886	0.711191	-0.019733	-0.000891	0.099583	1.000000	0.000023	0.000034	0.000042	-15.885241	-85.842111	15.007966
18384	9.879429	-0.205257	0.678537	0.012506	-0.008867	0.092131	1.000000	0.000017	0.000041	0.000001	-15.850962	-85.841494	14.969550
18385	9.911264	-0.207170	0.692311	0.000976	-0.010053	0.124881	1.000000	0.000016	0.000021	0.000032	-15.871422	-85.842194	14.990002
18386	9.884603	-0.199035	0.713088	-0.021581	-0.002020	0.099579	1.000000	0.000017	0.000031	0.000016	-15.864831	-85.842260	14.992570
18387	9.902761	-0.182532	0.671670	0.021280	0.014074	0.114471	1.000000	0.000008	0.000035	0.000016	-15.856946	-85.842001	14.983749
18388	9.879235	-0.206664	0.680931	0.009998	-0.010382	0.092133	1.000000	0.000015	0.000025	0.000020	-15.859967	-85.842792	14.992715
18389	9.884456	-0.200070	0.714829	-0.023473	-0.003163	0.099574	1.000000	0.000015	0.000025	0.000020	-15.861990	-85.843471	14.994564
18390	9.920129	-0.200745	0.674173	0.019647	-0.003724	0.132330	1.000000	0.000022	0.000037	0.000031	-15.871772	-85.842057	15.000599
18391	9.879095	-0.207933	0.682575	0.008200	-0.011534	0.092133	1.000000	0.000028	0.000015	0.000014	-15.865989	-85.844012	14.996178
18392	9.875925	-0.175866	0.694580	-0.003683	0.020585	0.089172	1.000000	0.000007	0.000028	0.000020	-15.867300	-85.844160	14.986592
18393	9.910874	-0.210311	0.696922	-0.003944	-0.013104	0.124876	1.000000	0.000016	0.000047	0.000026	-15.868761	-85.842213	14.987991
18394	9.861431	-0.192203	0.683700	0.006197	0.003983	0.074282	1.000000	0.000018	0.000028	0.000028	-15.880061	-85.842213	15.007968
18395	9.902376	-0.185952	0.676392	0.016389	0.011018	0.114484	1.000000	0.000018	0.000028	0.000028	-15.891355	-85.842336	15.019434
18396	9.878836	-0.210138	0.685647	0.005162	-0.013431	0.092133	1.000000	0.000017	0.000031	0.000016	-15.884048	-85.842266	15.013761
18397	9.893154	-0.195129	0.698670	-0.006570	0.002026	0.107024	1.000000	0.000019	0.000034	0.000024	-15.886160	-85.841812	15.016226
18398	9.861225	-0.194054	0.686144	0.003821	0.002451	0.074284	1.000000	0.000020	0.000031	0.000035	-15.904413	-85.840939	15.039109
18399	9.878679	-0.211511	0.687477	0.003374	-0.014589	0.092132	1.000000	0.000012	0.000022	0.000013	-15.897193	-85.842173	15.031369
18400	9.898247	-0.189381	0.733874	-0.041188	0.008465	0.114445	1.000000	0.000010	0.000041	0.000012	-15.879496	-85.841209	15.029033
18401	9.892952	-0.196671	0.701095	-0.008960	0.000479	0.107022	1.000000	0.000023	0.000021	0.000021	-15.882268	-85.842248	15.032573
18402	9.887669	-0.204107	0.668157	0.023343	-0.007509	0.099602	1.000000	0.000026	0.000024	0.000028	-15.892570	-85.842321	15.047715
18403	9.878495	-0.213054	0.689651	0.000984	-0.016125	0.092130	1.000000	0.000016	0.000021	0.000032	-15.913062	-85.843020	15.068200
18404	9.878445	-0.213577	0.690207	0.000371	-0.016499	0.092129	1.000000	0.000019	0.000034	0.000024	-15.915734	-85.842493	15.070179
18405	9.892760	-0.198574	0.703263	-0.011370	-0.001048	0.107019	1.000000	0.000008	0.000035	0.000016	-15.907853	-85.842235	15.061365
18406	9.887470	-0.205988	0.670513	0.020875	-0.009028	0.099606	1.000000	0.000009	0.000031	0.000028	-15.918336	-85.841922	15.088151
18407	9.892645	-0.199437	0.704631	-0.012604	-0.001816	0.107018	1.000000	0.000021	0.000041	0.000019	-15.911271	-85.840893	15.081622
18408	9.892594	-0.199803	0.705254	-0.013242	-0.002184	0.107017	1.000000	0.000023	0.000021	0.000021	-15.915538	-85.841988	15.085795
18409	9.892536	-0.200242	0.705938	-0.013865	-0.002568	0.107016	1.000000	0.000016	0.000047	0.000026	-15.916992	-85.840042	15.087190
18410	9.874986	-0.183608	0.705828	-0.014638	0.013720	0.089174	1.000000	0.000004	0.000025	0.000013	-15.909265	-85.840802	15.081404
18411	9.915954	-0.177118	0.698467	-0.004488	0.020732	0.129391	1.000000	0.000012	0.000022	0.000013	-15.902058	-85.842037	15.073678
18412	9.883251	-0.209568	0.728648	-0.037461	-0.011931	0.099524	1.000000	0.000007	0.000028	0.000020	-15.904484	-85.842410	15.076791
18413	9.896269	-0.200230	0.653808	0.038234	-0.003455	0.107102	1.000000	0.000019	0.000034	0.000024	-15.906616	-85.841957	15.079278
18414	9.892280	-0.202009	0.709020	-0.017002	-0.004451	0.107010	1.000000	0.000013	0.000044	0.000019	-15.900587	-85.840674	15.070067
18415	9.883883	-0.176840	0.687940	0.003947	0.020060	0.096664	1.000000	0.000016	0.000035	0.000005	-15.875018	-85.840756	15.044342
18416	9.877803	-0.217948	0.697985	-0.007138	-0.021037	0.092118	1.000000	0.000016	0.000021	0.000032	-15.896632	-85.841540	15.070699
18417	9.892111	-0.203127	0.711044	-0.018890	-0.005593	0.107006	1.000000	0.000016	0.000047	0.000026	-15.898106	-85.839594	15.072115
18418	9.874564	-0.186395	0.710985	-0.019602	0.010694	0.089169	1.000000	0.000024	0.000031	0.000005	-15.871921	-85.839662	15.046834
18419	9.886787	-0.210673	0.679076	0.012788	-0.013963	0.099614	1.000000	0.000019	0.000034	0.000024	-15.874064	-85.839210	15.049333
18420	9.918586	-0.212688	0.692952	0.001233	-0.015193	0.132339	1.000000	0.000017	0.000031	0.000016	-15.865891	-85.839072	15.051095
18421	9.883571	-0.178998	0.691856	0.000301	0.017766	0.096670	1.000000	0.000007	0.000028	0.000020	-15.867205	-85.839391	15.051297
18422	9.900996	-0.196507	0.693384	-0.000183	0.000723	0.114504	1.000000	0.000014	0.000041	0.000031	-15.879238	-85.838077	15.061379
18423	9.869088	-0.195414	0.680838	0.010177	0.001188	0.081782	1.000000	0.000018	0.000028	0.000028	-15.890559	-85.838201	15.072875
18424	9.900889	-0.197521	0.694624	-0.001431	-0.000044	0.114504	1.000000	0.000007	0.000028	0.000020	-15.891998	-85.838513	15.085514
18425	9.883360	-0.180800	0.694397	-0.002204	0.016246	0.096672	1.000000	0.000027	0.000034	0.000012	-15.876460	-85.838401	15.071109
18426	9.895586	-0.205273	0.662527	0.030235	-0.008410	0.107127	1.000000	0.000012	0.000034	0.000035	-15.895273	-85.837321	15.088382
18427	9.883237	-0.181871	0.695853	-0.003397	0.015479	0.096673	1.000000	0.000006	0.000044	0.000030	-15.905182	-85.835591	15.097112
18428	9.891482	-0.207700	0.718447	-0.025616	-0.009784	0.106988	1.000000	0.000025	0.000028	0.000017	-15.900412	-85.836111	15.086474
18429	9.877941	-0.189624	0.663752	0.028208	0.007125	0.089302	1.000000	0.000017	0.000031	0.000016	-15.893312	-85.836215	15.079384
18430	9.883079	-0.182982	0.697811	-0.005271	0.014353	0.096674	1.000000	0.000019	0.000034	0.000024	-15.895953	-85.835721	15.081530
18431	9.886141	-0.215723	0.686847	0.005380	-0.018532	0.099614	1.000000	0.000012	0.000022	0.000013	-15.888769	-85.836956	15.073830
18432	9.845958	-0.189140	0.652273	0.037389	0.006838	0.056592	1.000000	0.000012	0.000034	0.000035	-15.908405	-85.835937	15.084658
18433	9.908698	-0.226834	0.722230	-0.028563	-0.028360	0.124804	1.000000	0.000016	0.000021	0.000032	-15.928910	-85.836635	15.105158
18434	9.909545	-0.193661	0.679816	0.014144	0.004366	0.122025	1.000000	0.000018	0.000028	0.000028	-15.940869	-85.836692	15.111113
18435	9.882836	-0.185355	0.700625	-0.008332	0.012456	0.096674	1.000000	0.000018	0.000038	0.000012	-15.924598	-85.836220	15.095035
18436	9.895073	-0.209664	0.668773	0.024024	-0.012220	0.107140	1.000000	0.000017	0.000031	0.000016	-15.918417	-85.836341	15.084971
18437	9.891927	-0.177603	0.680817	0.012144	0.019903	0.104204	1.000000	0.000023	0.000021	0.000021	-15.921255	-85.837381	15.088580
18438	9.882687	-0.186320	0.702459	-0.010206	0.011327	0.096674	1.000000	0.000021	0.000041	0.000019	-15.914976	-85.836351	15.078050
18439	9.900096	-0.203685	0.704081	-0.010712	-0.005741	0.114497	1.000000	0.000008	0.000034	0.000016	-15.907129	-85.836094	15.069274
18440	9.885670	-0.219216	0.692508	-0.000194	-0.021950	0.099608	1.000000	0.000001	0.000048	0.000001	-15.870850	-85.834858	15.043610
18441	9.868142	-0.202514	0.692379	-0.000934	-0.005648	0.081786	1.000000	0.000029	0.000027	0.000035	-15.892197	-85.834787	15.066421
18442	9.894759	-0.211611	0.672797	0.020310	-0.014513	0.107145	1.000000	0.000014	0.000028	0.000009	-15.875771	-85.835274	15.042073
18443	9.868048	-0.203154	0.693528	-0.002151	-0.006407	0.081785	1.000000	0.000017	0.000031	0.000016	-15.868686	-85.835378	15.035001
18444	9.918234	-0.188476	0.665322	0.029652	0.008745	0.129575	1.000000	0.000015	0.000025	0.000021	-15.871433	-85.836037	15.036174
18445	9.882324	-0.188624	0.706938	-0.014531	0.008660	0.096671	1.000000	0.000016	0.000021	0.000032	-15.891946	-85.836736	15.056683
18446	9.894577	-0.213211	0.674971	0.017817	-0.016037	0.107147	1.000000	0.000019	0.000034	0.000024	-15.894535	-85.836261	15.060625
18447	9.867856	-0.204774	0.695789	-0.004636	-0.007924	0.081783	1.000000	0.000016	0.000035	0.000005	-15.869022	-85.836344	15.034961
18448	9.899629	-0.206926	0.709688	-0.016292	-0.009172	0.114486	1.000000	0.000021	0.000027	0.000046	-15.908354	-85.835918	15.082721
18449	9.876961	-0.197439	0.675947	0.015845	-0.000493	0.089332	1.000000	0.000014	0.000028	0.000009	-15.892015	-85.836578	15.066049
18450	9.882071	-0.190687	0.709914	-0.017612	0.006754	0.096668	1.000000	0.000007	0.000028	0.000020	-15.892858	-85.836726	15.067191
18451	9.876869	-0.198176	0.677063	0.014630	-0.001258	0.089334	1.000000	0.000018	0.000028	0.000028	-15.904212	-85.836849	15.078723
18452	9.899425	-0.208672	0.712017	-0.018754	-0.010696	0.114480	1.000000	0.000011	0.000037	0.000023	-15.906191	-85.835990	15.075955
18453	9.891125	-0.183670	0.690790	0.002249	0.013803	0.104222	1.000000	0.000017	0.000031	0.000016	-15.899116	-85.836094	15.068894
18454	9.908531	-0.201019	0.692342	0.001716	-0.003268	0.122036	1.000000	0.000008	0.000034	0.000016	-15.892015	-85.835848	15.060720
18455	9.891024	-0.184278	0.692067	0.000999	0.013043	0.104223	1.000000	0.000025	0.000028	0.000017	-15.885705	-85.836313	15.055364
18456	9.881752	-0.193091	0.713701	-0.021340	0.004486	0.096662	1.000000	0.000012	0.000034	0.000035	-15.906149	-85.835472	15.068585
18457	9.876559	-0.200428	0.680915	0.010902	-0.003537	0.089338	1.000000	0.000021	0.000028	-0.000002	-15.872150	-85.836473	15.035031
18458	9.890871	-0.185368	0.693963	-0.000863	0.011909	0.104224	1.000000	0.000004	0.000037	0.000035	-15.891940	-85.835316	15.049684
18459	9.873359	-0.168876	0.693738	-0.001569	0.028224	0.086414	1.000000	0.000028	0.000031	0.000024	-15.894898	-85.835225	15.053944
18460	9.893856	-0.218745	0.683715	0.009108	-0.021373	0.107149	1.000000	0.000015	0.000025	0.000021	-15.897610	-85.835908	15.050361
18461	9.893809	-0.219089	0.684275	0.008483	-0.021757	0.107149	1.000000	0.000017	0.000031	0.000016	-15.890544	-85.836012	15.043309
18462	9.908128	-0.204064	0.697200	-0.003300	-0.006310	0.122034	1.000000	0.000023	0.000021	0.000021	-15.894473	-85.837143	15.052257
18463	9.873183	-0.170417	0.695871	-0.004075	0.026708	0.086418	1.000000	0.000018	0.000028	0.000028	-15.905844	-85.837266	15.063806
18464	9.902907	-0.212125	0.664781	0.028308	-0.014721	0.114723	1.000000	0.000016	0.000021	0.000032	-15.926983	-85.838004	15.088530
18465	9.890527	-0.188480	0.698022	-0.005255	0.009245	0.104226	1.000000	0.000007	0.000054	0.000015	-15.909290	-85.835679	15.069682
18466	9.885332	-0.195888	0.665485	0.026988	0.001217	0.096919	1.000000	0.000019	0.000034	0.000024	-15.911892	-85.835220	15.072395
18467	9.858596	-0.187571	0.686198	0.004574	0.009367	0.071536	1.000000	0.000007	0.000028	0.000020	-15.913233	-85.835539	15.072628
18468	9.893442	-0.222136	0.688595	0.004093	-0.024421	0.107145	1.000000	0.000018	0.000028	0.000028	-15.924782	-85.835622	15.081683
18469	9.885188	-0.197178	0.667252	0.025125	0.000067	0.096924	1.000000	0.000017	0.000031	0.000016	-15.917727	-85.835726	15.074643
18470	9.881010	-0.198773	0.722358	-0.030082	-0.000819	0.096640	1.000000	0.000029	0.000037	0.000020	-15.911958	-85.835028	15.063751
18471	9.875841	-0.206233	0.689537	0.002161	-0.008860	0.089340	1.000000	0.000005	0.000022	0.000024	-15.922472	-85.835921	15.072974
18472	9.875802	-0.206660	0.689969	0.001547	-0.009239	0.089340	1.000000	0.000023	0.000021	0.000021	-15.925537	-85.836902	15.074161
18473	9.885003	-0.198534	0.669583	0.022646	-0.001463	0.096930	1.000000	0.000017	0.000041	0.000001	-15.890873	-85.836412	15.039533
18474	9.881868	-0.166379	0.681771	0.010863	0.030681	0.094015	1.000000	0.000009	0.000031	0.000028	-15.900625	-85.835971	15.047275
18475	9.890007	-0.192119	0.704364	-0.011430	0.005432	0.104223	1.000000	0.000027	0.000034	0.000013	-15.885179	-85.835861	15.032970
18476	9.884849	-0.199474	0.671576	0.020812	-0.002613	0.096934	1.000000	0.000007	0.000028	0.000020	-15.886814	-85.836186	15.036941
18477	9.921700	-0.194609	0.719007	-0.023775	0.003777	0.136905	1.000000	0.000014	0.000040	0.000031	-15.897520	-85.834817	15.047417
18478	9.875485	-0.208800	0.693854	-0.002155	-0.011535	0.089338	1.000000	0.000013	0.000018	0.000025	-15.908917	-85.836072	15.065894
18479	9.875440	-0.209189	0.694380	-0.002778	-0.011918	0.089337	1.000000	0.000008	0.000034	0.000016	-15.901094	-85.835816	15.057146
18480	9.899014	-0.185866	0.686335	0.007183	0.011674	0.111822	1.000000	0.000023	0.000021	0.000021	-15.903705	-85.836776	15.065087
18481	9.884604	-0.201751	0.674488	0.017710	-0.004528	0.096939	1.000000	0.000012	0.000034	0.000035	-15.923583	-85.835982	15.084551
18482	9.894755	-0.188047	0.741868	-0.048660	0.010412	0.111497	1.000000	0.000030	0.000021	0.000010	-15.909278	-85.837402	15.075305
18483	9.884520	-0.202429	0.675512	0.016457	-0.005291	0.096941	1.000000	0.000015	0.000025	0.000021	-15.911407	-85.838082	15.077268
18484	9.889575	-0.195756	0.709419	-0.017020	0.001982	0.104217	1.000000	0.000015	0.000025	0.000021	-15.912996	-85.838669	15.084768
18485	9.884433	-0.203270	0.676534	0.015229	-0.006060	0.096943	1.000000	0.000018	0.000028	0.000028	-15.924399	-85.838793	15.096353
18486	9.875115	-0.211922	0.698162	-0.007123	-0.014599	0.089331	1.000000	-0.000002	0.000035	0.000009	-15.906948	-85.838807	15.086812
18487	9.884340	-0.203852	0.677717	0.013969	-0.006824	0.096944	1.000000	0.000041	0.000021	0.000017	-15.902254	-85.839996	15.084959
18488	9.898660	-0.188829	0.690618	0.002188	0.008607	0.111828	1.000000	0.000007	0.000028	0.000020	-15.903894	-85.840303	15.086490
18489	9.898599	-0.189278	0.691365	0.001564	0.008223	0.111828	1.000000	0.000016	0.000047	0.000027	-15.905440	-85.838359	15.087991
18490	9.889263	-0.198022	0.713116	-0.020782	-0.000314	0.104210	1.000000	0.000007	0.000028	0.000020	-15.907276	-85.838723	15.091753
18491	9.884130	-0.205434	0.680295	0.011469	-0.008353	0.096946	1.000000	0.000017	0.000031	0.000016	-15.900238	-85.838828	15.084734
18492	9.871738	-0.181643	0.713307	-0.022039	0.015647	0.086418	1.000000	0.000015	0.000025	0.000021	-15.902203	-85.839370	15.082058
18493	9.875894	-0.180801	0.659386	0.031928	0.015755	0.086782	1.000000	0.000015	0.000025	0.000021	-15.904342	-85.840050	15.084033
18494	9.889075	-0.199491	0.715320	-0.023269	-0.001842	0.104204	1.000000	-0.000001	0.000031	0.000020	-15.905428	-85.840100	15.090600
18495	9.901367	-0.223894	0.683589	0.009014	-0.026606	0.114734	1.000000	0.000028	0.000041	0.000008	-15.880828	-85.839416	15.067327
18496	9.898243	-0.191971	0.695717	-0.002797	0.005549	0.111830	1.000000	0.000021	0.000027	0.000046	-15.920325	-85.838954	15.103931
18497	9.883831	-0.207762	0.683928	0.007743	-0.010645	0.096948	1.000000	0.000034	0.000034	0.000001	-15.887241	-85.839189	15.072770
18498	9.898134	-0.192734	0.697054	-0.004046	0.004790	0.111830	1.000000	0.000004	0.000037	0.000035	-15.907117	-85.838034	15.084629
18499	9.888790	-0.201441	0.718709	-0.026383	-0.003738	0.104196	1.000000	0.000014	0.000028	0.000009	-15.890812	-85.838696	15.067997
18500	9.875543	-0.183497	0.663882	0.027558	0.013087	0.086799	1.000000	0.000018	0.000028	0.000028	-15.902753	-85.838837	15.080734
18501	9.883625	-0.209381	0.686412	0.005241	-0.012167	0.096947	1.000000	0.000018	0.000028	0.000028	-15.914178	-85.838961	15.092341
18502	9.866159	-0.192694	0.685964	0.004593	0.004182	0.079165	1.000000	0.000004	0.000025	0.000013	-15.906783	-85.839880	15.087212
18503	9.907185	-0.186324	0.679006	0.014533	0.011020	0.119469	1.000000	0.000028	0.000041	0.000008	-15.882197	-85.839197	15.063954
18504	9.883484	-0.210307	0.688154	0.003385	-0.013312	0.096947	1.000000	0.000003	0.000015	0.000029	-15.901560	-85.840536	15.077030
18505	9.897792	-0.195475	0.701123	-0.008403	0.002113	0.111828	1.000000	0.000032	0.000040	0.000027	-15.904710	-85.839316	15.082019
18506	9.875260	-0.185914	0.667412	0.023847	0.010789	0.086812	1.000000	0.000007	0.000028	0.000020	-15.906105	-85.839598	15.081695
18507	9.897687	-0.196375	0.702364	-0.009645	0.001347	0.111827	1.000000	0.000018	0.000028	0.000028	-15.917540	-85.839722	15.093311
18508	9.888332	-0.205065	0.723953	-0.031966	-0.007175	0.104177	1.000000	0.000017	0.000031	0.000016	-15.910089	-85.839754	15.090059
18509	9.906898	-0.188854	0.682482	0.010831	0.008711	0.119476	1.000000	0.000023	0.000021	0.000021	-15.913043	-85.840796	15.093790
18510	9.888234	-0.205882	0.725070	-0.033220	-0.007935	0.104173	1.000000	0.000022	0.000037	0.000031	-15.925169	-85.839819	15.106529
18511	9.900543	-0.230575	0.693234	-0.000965	-0.032727	0.114720	1.000000	0.000005	0.000022	0.000024	-15.935713	-85.840712	15.115785
18512	9.892391	-0.205457	0.671869	0.020124	-0.008242	0.104598	1.000000	0.000018	0.000041	0.000001	-15.901165	-85.840203	15.082485
18513	9.906703	-0.190291	0.684909	0.008331	0.007180	0.119480	1.000000	0.000023	0.000021	0.000021	-15.904124	-85.841245	15.086220
18514	9.892305	-0.206140	0.672926	0.018884	-0.009009	0.104600	1.000000	0.000016	0.000021	0.000032	-15.924883	-85.841891	15.103643
18515	9.889208	-0.174156	0.684872	0.007098	0.023150	0.101707	1.000000	0.000017	0.000031	0.000016	-15.917863	-85.841997	15.096645
18516	9.892211	-0.206899	0.674075	0.017639	-0.009773	0.104602	1.000000	0.000017	0.000031	0.000016	-15.911336	-85.842075	15.084202
18517	9.874753	-0.190116	0.673699	0.017027	0.006581	0.086829	1.000000	0.000017	0.000031	0.000016	-15.904317	-85.842180	15.077205
18518	9.906472	-0.192309	0.687672	0.005220	0.005270	0.119483	1.000000	0.000008	0.000025	0.000032	-15.924621	-85.842530	15.092213
18519	9.882741	-0.216299	0.696906	-0.005947	-0.019042	0.096936	1.000000	0.000028	0.000041	0.000008	-15.900041	-85.841849	15.068965
18520	9.897049	-0.201199	0.709947	-0.017753	-0.003614	0.111815	1.000000	0.000023	0.000021	0.000021	-15.903667	-85.842963	15.076343
18521	9.891970	-0.208791	0.677027	0.014502	-0.011686	0.104605	1.000000	-0.000000	0.000028	0.000031	-15.922702	-85.842938	15.093496
18522	9.883842	-0.183899	0.655582	0.035617	0.012790	0.094508	1.000000	0.000025	0.000028	0.000017	-15.916420	-85.843350	15.088457
18523	9.882551	-0.217852	0.699109	-0.008445	-0.020570	0.096931	1.000000	0.000015	0.000025	0.000021	-15.918593	-85.844030	15.090466
18524	9.888783	-0.177562	0.690111	0.001512	0.019715	0.101717	1.000000	0.000019	0.000034	0.000024	-15.920780	-85.843475	15.088056
18525	9.865043	-0.201655	0.699307	-0.009650	-0.004589	0.079161	1.000000	0.000018	0.000028	0.000028	-15.932245	-85.843599	15.099705
18526	9.874330	-0.193787	0.678837	0.011431	0.003144	0.086839	1.000000	0.000004	0.000025	0.000013	-15.924701	-85.844500	15.093110
18527	9.906045	-0.195919	0.692797	-0.000392	0.001822	0.119486	1.000000	0.000018	0.000028	0.000028	-15.936172	-85.844624	15.104765
18528	9.850540	-0.218159	0.688621	-0.000357	-0.021536	0.064279	1.000000	0.000010	0.000041	0.000012	-15.919610	-85.843827	15.089678
18529	9.897874	-0.171142	0.672159	0.020092	0.025914	0.109405	1.000000	0.000014	0.000028	0.000009	-15.903306	-85.844490	15.073051
18530	9.891525	-0.212219	0.682434	0.008898	-0.015130	0.104607	1.000000	0.000014	0.000040	0.000031	-15.914374	-85.843134	15.084685
18531	9.888424	-0.180217	0.694550	-0.002864	0.017039	0.101722	1.000000	0.000017	0.000031	0.000016	-15.907369	-85.843240	15.077703
18532	9.891417	-0.212967	0.683772	0.007657	-0.015894	0.104606	1.000000	0.000017	0.000031	0.000016	-15.900677	-85.843282	15.059610
18533	9.873974	-0.196215	0.683308	0.007075	0.000471	0.086844	1.000000	0.000015	0.000025	0.000021	-15.902857	-85.843963	15.061628
18534	9.900661	-0.205391	0.664025	0.028118	-0.008558	0.112299	1.000000	0.000031	0.000044	0.000016	-15.887926	-85.842703	15.042773
18535	9.891263	-0.214012	0.685671	0.005785	-0.017041	0.104606	1.000000	0.000005	0.000022	0.000024	-15.898477	-85.843596	15.052036
18536	9.897526	-0.173882	0.676566	0.015753	0.023233	0.109419	1.000000	0.000029	0.000027	0.000035	-15.920345	-85.843503	15.069879
18537	9.881821	-0.223342	0.707650	-0.017171	-0.025899	0.096908	1.000000	0.000023	0.000021	0.000021	-15.923345	-85.844545	15.073658
18538	9.914829	-0.191741	0.678714	0.014451	0.005716	0.127183	1.000000	-0.000001	0.000041	0.000005	-15.896649	-85.843913	15.042587
18539	9.878681	-0.191367	0.720319	-0.029536	0.005903	0.094023	1.000000	0.000015	0.000025	0.000021	-15.898833	-85.844593	15.044610
18540	9.905371	-0.200713	0.701014	-0.008499	-0.003141	0.119482	1.000000	0.000014	0.000040	0.000031	-15.909602	-85.843175	15.052479
18541	9.873572	-0.199488	0.688140	0.002106	-0.002580	0.086846	1.000000	0.000013	0.000018	0.000025	-15.920977	-85.844429	15.063508
18542	9.873527	-0.199943	0.688665	0.001488	-0.002960	0.086846	1.000000	0.000020	0.000034	0.000024	-15.923417	-85.843952	15.063831
18543	9.887834	-0.185053	0.701647	-0.010305	0.012466	0.101724	1.000000	0.000005	0.000022	0.000024	-15.933981	-85.844844	15.073108
18544	9.887797	-0.185367	0.702080	-0.009234	0.011822	0.101726	1.000000	0.000030	0.000021	0.000010	-15.864249	-85.837084	15.038461
18545	9.900149	-0.209988	0.670202	0.022978	-0.013027	0.112307	1.000000	0.000029	0.000027	0.000035	-15.885577	-85.836975	15.061284
18546	9.878337	-0.194487	0.724182	-0.032180	0.002959	0.094016	1.000000	0.000009	0.000034	0.000016	-15.877956	-85.836728	15.056781
18547	9.873300	-0.201944	0.691325	0.000088	-0.005131	0.086845	1.000000	0.000023	0.000021	0.000021	-15.880716	-85.837731	15.060343
18548	9.870220	-0.169901	0.703293	-0.011653	0.027048	0.083972	1.000000	0.000011	0.000037	0.000023	-15.882332	-85.836900	15.063121
18549	9.890583	-0.219884	0.693582	-0.001206	-0.022657	0.104596	1.000000	0.000015	0.000025	0.000021	-15.884280	-85.837541	15.064932
18550	9.914252	-0.196744	0.685674	0.008708	0.000852	0.127191	1.000000	0.000032	0.000040	0.000027	-15.887364	-85.836232	15.064777
18551	9.895448	-0.213604	0.728398	-0.035317	-0.015712	0.111756	1.000000	0.000009	0.000034	0.000016	-15.879333	-85.835936	15.055853
18552	9.863663	-0.212183	0.715474	-0.024697	-0.015130	0.079124	1.000000	0.000023	0.000021	0.000021	-15.882675	-85.836989	15.062204
18553	9.896726	-0.180652	0.686425	0.006913	0.016462	0.109443	1.000000	0.000014	0.000028	0.000009	-15.866170	-85.837612	15.045401
18554	9.887311	-0.189196	0.707877	-0.015417	0.007991	0.101722	1.000000	0.000013	0.000018	0.000025	-15.877734	-85.838882	15.063242
18555	9.890297	-0.222084	0.696938	-0.004917	-0.024957	0.104590	1.000000	0.000015	0.000025	0.000021	-15.879688	-85.839523	15.065058
18556	9.896605	-0.181744	0.687880	0.005044	0.015314	0.109446	1.000000	0.000017	0.000031	0.000016	-15.873034	-85.839631	15.060486
18557	9.869788	-0.173298	0.708519	-0.017201	0.023607	0.083973	1.000000	0.000014	0.000040	0.000031	-15.883586	-85.838223	15.070840
18558	9.908905	-0.206778	0.656832	0.036637	-0.009936	0.120044	1.000000	0.000009	0.000019	0.000006	-15.867025	-85.839902	15.046352
18559	9.872716	-0.206562	0.698265	-0.007306	-0.009720	0.086839	1.000000	0.000023	0.000034	0.000042	-15.896865	-85.838874	15.077097
18560	9.882050	-0.198932	0.677834	0.013773	-0.002018	0.094570	1.000000	0.000023	0.000021	0.000021	-15.900154	-85.839906	15.078860
18561	9.889991	-0.224457	0.700511	-0.008625	-0.027252	0.104581	1.000000	0.000018	0.000041	0.000001	-15.865300	-85.839381	15.044083
18562	9.886918	-0.192235	0.712528	-0.020340	0.004936	0.101715	1.000000	-0.000003	0.000025	0.000024	-15.875026	-85.839846	15.049168
18563	9.904239	-0.209771	0.714220	-0.021040	-0.012219	0.119456	1.000000	0.000030	0.000037	0.000020	-15.868764	-85.839144	15.044430
18564	9.896196	-0.184835	0.692910	0.000129	0.012247	0.109452	1.000000	0.000011	0.000037	0.000023	-15.870404	-85.838295	15.046126
18565	9.881787	-0.200622	0.681160	0.010698	-0.003936	0.094574	1.000000	0.000028	0.000031	0.000024	-15.873316	-85.838167	15.050376
18566	9.867386	-0.216332	0.669316	0.021265	-0.020115	0.079696	1.000000	0.000025	0.000028	0.000017	-15.867235	-85.838609	15.046836
18567	9.913421	-0.203151	0.695756	-0.001813	-0.005679	0.127193	1.000000	0.000005	0.000022	0.000024	-15.877544	-85.839462	15.055882
18568	9.869244	-0.177547	0.715013	-0.023958	0.019415	0.083968	1.000000	0.000023	0.000021	0.000021	-15.881009	-85.840520	15.062593
18569	9.898981	-0.219114	0.684381	0.008128	-0.022242	0.112314	1.000000	0.000018	0.000041	0.000001	-15.846160	-85.839994	15.027821
18570	9.881557	-0.202257	0.684016	0.007607	-0.005849	0.094575	1.000000	0.000010	0.000031	0.000028	-15.856851	-85.839714	15.041698
18571	9.913225	-0.204565	0.698122	-0.004294	-0.007214	0.127191	1.000000	0.000018	0.000028	0.000028	-15.868119	-85.839799	15.053177
18572	9.895808	-0.187856	0.697627	-0.004813	0.009181	0.109454	1.000000	0.000017	0.000031	0.000017	-15.861261	-85.839852	15.047206
18573	9.895760	-0.188205	0.698217	-0.005429	0.008795	0.109454	1.000000	0.000007	0.000028	0.000020	-15.862403	-85.840130	15.047272
18574	9.889318	-0.229274	0.708409	-0.016664	-0.032224	0.104556	1.000000	0.000007	0.000028	0.000020	-15.864288	-85.840464	15.048123
18575	9.863950	-0.187160	0.685807	0.004621	0.009016	0.076841	1.000000	0.000025	0.000028	0.000017	-15.857918	-85.840893	15.042744
18576	9.908044	-0.213556	0.667568	0.025505	-0.016858	0.120069	1.000000	0.000007	0.000028	0.000020	-15.859126	-85.841118	15.040906
18577	9.881217	-0.205050	0.688076	0.003296	-0.008530	0.094576	1.000000	0.000020	0.000034	0.000024	-15.861233	-85.840629	15.043411
18578	9.878153	-0.172951	0.700071	-0.008418	0.023663	0.091720	1.000000	0.000017	0.000031	0.000017	-15.854584	-85.840755	15.043325
18579	9.881114	-0.205725	0.689350	0.002054	-0.009295	0.094576	1.000000	0.000017	0.000031	0.000017	-15.847388	-85.840822	15.036182
18580	9.895419	-0.190728	0.702347	-0.009766	0.006118	0.109452	1.000000	0.000015	0.000025	0.000021	-15.850074	-85.841512	15.040552
18581	9.890437	-0.198286	0.669518	0.022509	-0.001995	0.102342	1.000000	0.000020	0.000034	0.000024	-15.852188	-85.841023	15.043065
18582	9.895323	-0.191599	0.703462	-0.010990	0.005351	0.109452	1.000000	0.000013	0.000018	0.000025	-15.863377	-85.842189	15.053745
18583	9.877917	-0.174766	0.702949	-0.011492	0.021749	0.091722	1.000000	0.000029	0.000041	0.000009	-15.838672	-85.841470	15.030407
18584	9.880873	-0.207609	0.692234	-0.001020	-0.011209	0.094574	1.000000	0.000016	0.000021	0.000032	-15.859159	-85.842096	15.051354
18585	9.877815	-0.175774	0.704121	-0.012716	0.020982	0.091722	1.000000	0.000012	0.000034	0.000035	-15.878921	-85.841262	15.070735
18586	9.912482	-0.210387	0.706894	-0.013575	-0.012972	0.127177	1.000000	0.000019	0.000022	0.000002	-15.854362	-85.842850	15.050832
18587	9.895083	-0.193528	0.706315	-0.014074	0.003429	0.109449	1.000000	0.000010	0.000031	0.000028	-15.864821	-85.842572	15.060563
18588	9.877675	-0.176811	0.705824	-0.014566	0.019832	0.091722	1.000000	0.000017	0.000031	0.000017	-15.857653	-85.842616	15.055107
18589	9.890061	-0.201512	0.674106	0.017591	-0.005072	0.102351	1.000000	0.000018	0.000028	0.000028	-15.868951	-85.842701	15.066618
18590	9.872657	-0.184793	0.673613	0.017093	0.011335	0.084627	1.000000	0.000009	0.000034	0.000016	-15.861272	-85.842434	15.060891
18591	9.897886	-0.227643	0.697314	-0.005463	-0.030686	0.112293	1.000000	0.000021	0.000015	0.000025	-15.873279	-85.844012	15.073516
18592	9.885404	-0.203804	0.730111	-0.038832	-0.006541	0.101659	1.000000	0.000020	0.000034	0.000024	-15.875359	-85.843425	15.069939
18593	9.881963	-0.177974	0.654178	0.036960	0.018233	0.092419	1.000000	0.000016	0.000021	0.000032	-15.895846	-85.844083	15.090451
18594	9.912090	-0.213632	0.711401	-0.018501	-0.016043	0.127165	1.000000	0.000008	0.000038	0.000005	-15.869676	-85.843751	15.061193
18595	9.886769	-0.171395	0.688996	0.002840	0.025204	0.099510	1.000000	0.000013	0.000044	0.000019	-15.861788	-85.842326	15.052954
18596	9.875357	-0.219506	0.666041	0.024490	-0.023548	0.087480	1.000000	0.000019	0.000037	0.000012	-15.845732	-85.841833	15.036657
18597	9.877207	-0.180200	0.711494	-0.020084	0.016390	0.091718	1.000000	0.000020	0.000034	0.000024	-15.847867	-85.841344	15.039193
18598	9.903947	-0.189533	0.692298	0.000863	0.007258	0.117233	1.000000	0.000017	0.000031	0.000017	-15.840517	-85.841361	15.033000
18599	9.906895	-0.222430	0.681571	0.011310	-0.025710	0.120077	1.000000	0.000018	0.000028	0.000028	-15.851824	-85.841446	15.044521
18600	9.889506	-0.205741	0.680937	0.010826	-0.009297	0.102358	1.000000	0.000023	0.000021	0.000021	-15.855154	-85.842492	15.051477
18601	9.903806	-0.190929	0.693938	-0.000995	0.006105	0.117234	1.000000	0.000012	0.000034	0.000035	-15.874934	-85.841658	15.070877
18602	9.872065	-0.189471	0.680949	0.009735	0.006732	0.084641	1.000000	0.000011	0.000025	0.000002	-15.849377	-85.842851	15.047852
18603	9.876925	-0.182557	0.714802	-0.023776	0.014089	0.091714	1.000000	0.000013	0.000018	0.000025	-15.860553	-85.844067	15.058707
18604	9.879874	-0.215492	0.703984	-0.013333	-0.018876	0.094553	1.000000	0.000028	0.000031	0.000024	-15.863867	-85.843953	15.063843
18605	9.879822	-0.215972	0.704572	-0.013949	-0.019260	0.094552	1.000000	0.000018	0.000028	0.000028	-15.875188	-85.844038	15.075378
18606	9.903580	-0.192812	0.696637	-0.004100	0.004185	0.117234	1.000000	0.000006	0.000031	0.000009	-15.858541	-85.844383	15.061458
18607	9.889182	-0.208498	0.684780	0.006493	-0.011985	0.102359	1.000000	0.000018	0.000028	0.000028	-15.869867	-85.844468	15.072998
18608	9.894021	-0.201585	0.718822	-0.027021	-0.004622	0.109421	1.000000	0.000034	0.000034	0.000002	-15.837031	-85.844664	15.040761
18609	9.871746	-0.191908	0.684881	0.005414	0.004050	0.084646	1.000000	-0.000000	0.000028	0.000031	-15.855840	-85.844598	15.057715
18610	9.903394	-0.194150	0.698906	-0.006568	0.002649	0.117233	1.000000	0.000028	0.000015	0.000014	-15.850480	-85.846528	15.056093
18611	9.903353	-0.194534	0.699370	-0.007184	0.002263	0.117233	1.000000	0.000010	0.000031	0.000028	-15.860964	-85.846250	15.065852
18612	9.898418	-0.202239	0.666570	0.025100	-0.005866	0.110177	1.000000	0.000010	0.000031	0.000028	-15.871552	-85.845962	15.078286
18613	9.885915	-0.178376	0.699397	-0.008256	0.018298	0.099522	1.000000	0.000015	0.000025	0.000021	-15.873566	-85.846604	15.080168
18614	9.879384	-0.219438	0.709625	-0.019488	-0.022705	0.094535	1.000000	0.000028	0.000031	0.000024	-15.876371	-85.846364	15.079103
18615	9.898280	-0.203571	0.668211	0.023270	-0.007025	0.110180	1.000000	0.000005	0.000022	0.000025	-15.886719	-85.847216	15.088191
18616	9.871427	-0.194816	0.688650	0.001120	0.001367	0.084648	1.000000	0.000018	0.000041	0.000001	-15.852410	-85.846760	15.058380
18617	9.893570	-0.205244	0.723969	-0.032561	-0.008075	0.109402	1.000000	0.000005	0.000034	0.000046	-15.889876	-85.845580	15.094685
18618	9.888642	-0.212907	0.691201	-0.000275	-0.016209	0.102355	1.000000	0.000024	0.000031	0.000005	-15.865119	-85.845987	15.074040
18619	9.912418	-0.189719	0.683307	0.009578	0.007217	0.125058	1.000000	0.000010	0.000031	0.000028	-15.875608	-85.845710	15.083804
18620	9.898016	-0.205542	0.671506	0.020178	-0.008945	0.110185	1.000000	0.000020	0.000034	0.000024	-15.878099	-85.845206	15.086623
18621	9.893337	-0.206924	0.726671	-0.035023	-0.009609	0.109393	1.000000	0.000013	0.000044	0.000019	-15.870226	-85.843782	15.078403
18622	9.880577	-0.189142	0.671742	0.019116	0.007100	0.092483	1.000000	0.000002	0.000019	0.000017	-15.871910	-85.845195	15.077049
18623	9.902721	-0.199356	0.706919	-0.014575	-0.002343	0.117225	1.000000	0.000029	0.000040	0.000009	-15.847254	-85.844479	15.053769
18624	9.875853	-0.190611	0.727403	-0.036691	0.006063	0.091682	1.000000	0.000007	0.000028	0.000020	-15.848633	-85.844714	15.052409
18625	9.897759	-0.207326	0.674741	0.017099	-0.010866	0.110189	1.000000	0.000029	0.000027	0.000035	-15.870166	-85.844606	15.075444
18626	9.870889	-0.198821	0.695185	-0.005018	-0.002455	0.084647	1.000000	0.000030	0.000037	0.000020	-15.864453	-85.843885	15.069233
18627	9.888158	-0.216310	0.697041	-0.005816	-0.019653	0.102347	1.000000	0.000017	0.000031	0.000017	-15.857302	-85.843954	15.062140
18628	9.885131	-0.184164	0.708912	-0.017463	0.012560	0.099519	1.000000	0.000007	0.000028	0.000020	-15.858765	-85.844218	15.062887
18629	9.894578	-0.176365	0.688537	0.003606	0.020194	0.107365	1.000000	0.000017	0.000031	0.000017	-15.851616	-85.844286	15.055797
18630	9.870688	-0.200082	0.697668	-0.007478	-0.003985	0.084645	1.000000	0.000006	0.000031	0.000009	-15.834676	-85.844561	15.038245
18631	9.902299	-0.202402	0.711953	-0.019502	-0.005406	0.117215	1.000000	0.000023	0.000034	0.000042	-15.864684	-85.843535	15.069163
18632	9.880081	-0.193016	0.677906	0.012974	0.003266	0.092495	1.000000	0.000023	0.000021	0.000021	-15.867837	-85.844538	15.074753
18633	9.902198	-0.203183	0.713132	-0.020736	-0.006174	0.117212	1.000000	0.000018	0.000041	0.000001	-15.833013	-85.844015	15.040020
18634	9.897300	-0.210639	0.680429	0.011550	-0.014319	0.110193	1.000000	0.000010	0.000031	0.000028	-15.843846	-85.843733	15.050646
18635	9.865588	-0.209375	0.667309	0.022350	-0.013664	0.077625	1.000000	0.000016	0.000021	0.000032	-15.864383	-85.844392	15.071210
18636	9.902045	-0.204522	0.714869	-0.022594	-0.007321	0.117207	1.000000	0.000007	0.000028	0.000020	-15.866166	-85.844707	15.073785
18637	9.897162	-0.212105	0.681975	0.009693	-0.015471	0.110193	1.000000	0.000015	0.000025	0.000021	-15.868205	-85.845349	15.075694
18638	9.879802	-0.195327	0.681313	0.009279	0.000969	0.092500	1.000000	0.000007	0.000028	0.000020	-15.869752	-85.845604	15.075248
18639	9.879745	-0.195596	0.682060	0.008664	0.000584	0.092500	1.000000	0.000012	0.000047	0.000008	-15.843393	-85.844163	15.048387
18640	9.887491	-0.221280	0.704897	-0.013838	-0.024628	0.102328	1.000000	0.000016	0.000021	0.000032	-15.864379	-85.844836	15.070681
18641	9.879632	-0.196530	0.683423	0.007430	-0.000182	0.092501	1.000000	0.000016	0.000047	0.000027	-15.865854	-85.842856	15.072161
18642	9.911236	-0.198858	0.697699	-0.004628	-0.001607	0.125064	1.000000	0.000021	0.000015	0.000025	-15.878787	-85.844489	15.087995
18643	9.879537	-0.197468	0.684534	0.006188	-0.000944	0.092502	1.000000	0.000020	0.000034	0.000024	-15.880981	-85.844001	15.090597
18644	9.879480	-0.197911	0.685215	0.005575	-0.001325	0.092503	1.000000	0.000020	0.000034	0.000024	-15.883480	-85.843496	15.094170
18645	9.893776	-0.182997	0.698265	-0.006266	0.014065	0.107375	1.000000	0.000015	0.000025	0.000021	-15.885530	-85.844138	15.096091
18646	9.893726	-0.183301	0.698887	-0.006880	0.013684	0.107375	1.000000	0.000019	0.000037	0.000012	-15.869539	-85.843618	15.079891
18647	9.893673	-0.183675	0.699538	-0.007495	0.013298	0.107375	1.000000	0.000018	0.000028	0.000028	-15.880916	-85.843703	15.091485
18648	9.879281	-0.199463	0.687631	0.003125	-0.002856	0.092503	1.000000	0.000007	0.000028	0.000020	-15.882372	-85.843925	15.088303
18649	9.869702	-0.208007	0.709209	-0.019169	-0.011240	0.084623	1.000000	0.000020	0.000034	0.000024	-15.884573	-85.843438	15.090912
18650	9.893524	-0.184969	0.701303	-0.009341	0.012152	0.107375	1.000000	0.000015	0.000025	0.000021	-15.887128	-85.844119	15.097182
18651	9.896437	-0.217825	0.690639	0.001050	-0.020837	0.110188	1.000000	0.000009	0.000034	0.000016	-15.879131	-85.843826	15.088306
18652	9.902960	-0.177545	0.681526	0.011106	0.019383	0.115259	1.000000	0.000015	0.000025	0.000021	-15.881360	-85.844455	15.091888
18653	9.896339	-0.218524	0.691820	-0.000181	-0.021606	0.110187	1.000000	0.000009	0.000034	0.000016	-15.873364	-85.844161	15.083014
18654	9.878986	-0.201648	0.691227	-0.000567	-0.005155	0.092503	1.000000	0.000025	0.000028	0.000017	-15.867357	-85.844557	15.076731
18655	9.883742	-0.194745	0.725271	-0.034089	0.002238	0.099483	1.000000	0.000009	0.000034	0.000016	-15.859363	-85.844263	15.067858
18656	9.888429	-0.194178	0.671451	0.019877	0.002074	0.100394	1.000000	0.000023	0.000021	0.000021	-15.862689	-85.845275	15.072778
18657	9.878843	-0.202487	0.693029	-0.002415	-0.006306	0.092502	1.000000	0.000018	0.000041	0.000001	-15.827884	-85.844753	15.038068
18658	9.878791	-0.202794	0.693681	-0.003019	-0.006685	0.092502	1.000000	0.000008	0.000025	0.000032	-15.847760	-85.844979	15.053205
18659	9.902628	-0.179812	0.685751	0.006811	0.016693	0.115268	1.000000	0.000017	0.000031	0.000017	-15.840644	-85.845048	15.046151
18660	9.861395	-0.186530	0.693569	-0.004007	0.009386	0.074822	1.000000	0.000008	0.000025	0.000032	-15.860550	-85.845307	15.063827
18661	9.905491	-0.213243	0.675591	0.016577	-0.016685	0.118078	1.000000	0.000025	0.000028	0.000017	-15.854313	-85.845740	15.058593
18662	9.892944	-0.189254	0.708312	-0.016712	0.007554	0.107370	1.000000	0.000026	0.000024	0.000028	-15.866901	-85.846208	15.075417
18663	9.895848	-0.222181	0.697661	-0.006336	-0.025441	0.110175	1.000000	0.000009	0.000034	0.000016	-15.858907	-85.845914	15.066545
18664	9.870752	-0.179851	0.674996	0.015217	0.015841	0.082727	1.000000	0.000018	0.000041	0.000001	-15.824296	-85.845340	15.030054
18665	9.868885	-0.213478	0.718880	-0.028992	-0.017350	0.084591	1.000000	0.000020	0.000034	0.000024	-15.826525	-85.844853	15.032693
18666	9.924357	-0.192237	0.724819	-0.030640	0.004957	0.139911	1.000000	0.000019	0.000037	0.000012	-15.810517	-85.844305	15.015468
18667	9.868772	-0.214226	0.720213	-0.030216	-0.018112	0.084586	1.000000	0.000008	0.000025	0.000032	-15.830212	-85.844601	15.034252
18668	9.929026	-0.192300	0.671654	0.022701	0.004378	0.140860	1.000000	0.000020	0.000034	0.000024	-15.832788	-85.844145	15.041924
18669	9.892562	-0.191696	0.712971	-0.021013	0.004872	0.107363	1.000000	0.000017	0.000031	0.000017	-15.825684	-85.844214	15.034883
18670	9.887730	-0.199401	0.680166	0.011282	-0.003301	0.100407	1.000000	0.000021	0.000031	0.000035	-15.846600	-85.843728	15.057455
18671	9.892452	-0.192669	0.714240	-0.022243	0.004104	0.107361	1.000000	0.000009	0.000034	0.000016	-15.838618	-85.843435	15.048596
18672	9.860773	-0.191038	0.701145	-0.011360	0.004800	0.074819	1.000000	0.000014	0.000028	0.000009	-15.822518	-85.844019	15.030731
18673	9.887585	-0.200517	0.681934	0.009441	-0.004453	0.100409	1.000000	0.000016	0.000021	0.000032	-15.843101	-85.844679	15.051343
18674	9.919169	-0.202890	0.696149	-0.002668	-0.005911	0.132948	1.000000	0.000007	0.000028	0.000020	-15.844511	-85.844933	15.051606
18675	9.877924	-0.209468	0.703966	-0.013459	-0.013194	0.092486	1.000000	0.000017	0.000031	0.000017	-15.837412	-85.845003	15.044572
18676	9.887446	-0.201671	0.683607	0.007590	-0.005602	0.100410	1.000000	0.000025	0.000028	0.000017	-15.831636	-85.845472	15.043157
18677	9.884448	-0.169526	0.695481	-0.004001	0.026628	0.097611	1.000000	0.000011	0.000037	0.000024	-15.832996	-85.844622	15.043989
18678	9.860472	-0.193349	0.704729	-0.015055	0.002505	0.074815	1.000000	0.000022	0.000040	0.000020	-15.826448	-85.843603	15.042594
18679	9.901619	-0.187547	0.698131	-0.005506	0.009011	0.115279	1.000000	0.000005	0.000022	0.000025	-15.836811	-85.844455	15.051700
18680	9.860378	-0.194087	0.705842	-0.016286	0.001743	0.074814	1.000000	0.000014	0.000028	0.000009	-15.820914	-85.845089	15.036015
18681	9.904467	-0.220719	0.688093	0.004232	-0.024371	0.118075	1.000000	0.000032	0.000040	0.000027	-15.824225	-85.843837	15.041216
18682	9.879430	-0.178670	0.665276	0.025838	0.016920	0.090681	1.000000	0.000015	0.000025	0.000021	-15.826661	-85.844405	15.039451
18683	9.910997	-0.181037	0.679665	0.013708	0.015450	0.123215	1.000000	0.000014	0.000040	0.000031	-15.837368	-85.842999	15.049976
18684	9.869740	-0.187737	0.687521	0.002927	0.008186	0.082747	1.000000	0.000015	0.000025	0.000021	-15.839976	-85.843700	15.056702
18685	9.877390	-0.213369	0.710257	-0.019631	-0.017018	0.092470	1.000000	0.000025	0.000028	0.000017	-15.833781	-85.844133	15.051511
18686	9.886933	-0.205669	0.689806	0.001417	-0.009432	0.100410	1.000000	0.000005	0.000022	0.000025	-15.844633	-85.845005	15.062269
18687	9.891633	-0.198739	0.723852	-0.032112	-0.002017	0.107334	1.000000	0.000029	0.000040	0.000009	-15.820096	-85.844292	15.039119
18688	9.891578	-0.199000	0.724536	-0.032735	-0.002399	0.107332	1.000000	0.000007	0.000028	0.000020	-15.821801	-85.844605	15.041910
18689	9.886785	-0.206739	0.691605	-0.000437	-0.010584	0.100409	1.000000	0.000016	0.000021	0.000032	-15.842408	-85.845264	15.062547
18690	9.901078	-0.191828	0.704610	-0.012292	0.004801	0.115276	1.000000	0.000035	0.000031	0.000013	-15.828208	-85.845438	15.048957
18691	9.886691	-0.207405	0.692752	-0.001661	-0.011349	0.100408	1.000000	0.000017	0.000031	0.000017	-15.821126	-85.845508	15.041941
18692	9.883711	-0.175111	0.704514	-0.013240	0.020891	0.097617	1.000000	0.000022	0.000025	0.000010	-15.805969	-85.846502	15.028743
18693	9.886600	-0.207984	0.693870	-0.002895	-0.012116	0.100406	1.000000	0.000010	0.000031	0.000028	-15.816518	-85.846226	15.038574
18694	9.878876	-0.183229	0.672233	0.018449	0.012322	0.090704	1.000000	0.000018	0.000028	0.000028	-15.828332	-85.846286	15.050054
18695	9.891235	-0.201797	0.728436	-0.037038	-0.005075	0.107316	1.000000	0.000018	0.000028	0.000028	-15.839777	-85.846372	15.061721
18696	9.886454	-0.209495	0.695506	-0.004734	-0.013263	0.100404	1.000000	0.000023	0.000021	0.000021	-15.842890	-85.847346	15.065962
18697	9.896017	-0.201695	0.675059	0.016316	-0.005693	0.108363	1.000000	0.000014	0.000028	0.000009	-15.826457	-85.847973	15.049249
18698	9.900702	-0.194799	0.709073	-0.017198	0.001733	0.115269	1.000000	0.000010	0.000031	0.000028	-15.836879	-85.847589	15.055565
18699	9.854695	-0.208743	0.683565	0.004984	-0.013316	0.067882	1.000000	0.000024	0.000043	0.000027	-15.839327	-85.845974	15.058966
18700	9.922730	-0.212081	0.657424	0.035857	-0.015760	0.133981	1.000000	0.000004	0.000025	0.000013	-15.831249	-85.846765	15.048893
18701	9.883263	-0.178723	0.709865	-0.018737	0.017443	0.097615	1.000000	0.000011	0.000041	0.000012	-15.814104	-85.845898	15.031068
18702	9.900476	-0.196308	0.711808	-0.019658	0.000196	0.115265	1.000000	0.000026	0.000024	0.000028	-15.826681	-85.846356	15.047209
18703	9.886088	-0.212043	0.699913	-0.009023	-0.015952	0.100397	1.000000	0.000009	0.000034	0.000016	-15.818710	-85.846062	15.038366
18704	9.895657	-0.204322	0.679530	0.012034	-0.008384	0.108367	1.000000	0.000023	0.000021	0.000021	-15.821979	-85.847015	15.040863
18705	9.900320	-0.197514	0.713638	-0.021499	-0.000954	0.115261	1.000000	0.000016	0.000047	0.000027	-15.823542	-85.845036	15.042440
18706	9.885926	-0.213164	0.701868	-0.010862	-0.017099	0.100393	1.000000	0.000022	0.000025	0.000010	-15.808217	-85.846017	15.029790
18707	9.905127	-0.197308	0.660453	0.031850	-0.001595	0.116344	1.000000	0.000023	0.000021	0.000021	-15.811221	-85.847023	15.033610
18708	9.878202	-0.188499	0.680617	0.009886	0.006949	0.090722	1.000000	0.000017	0.000031	0.000017	-15.804582	-85.847065	15.026212
18709	9.895414	-0.206132	0.682508	0.008957	-0.010306	0.108368	1.000000	0.000018	0.000028	0.000028	-15.816045	-85.847152	15.037898
18710	9.868476	-0.197509	0.702760	-0.012998	-0.001756	0.082742	1.000000	0.000001	0.000034	0.000027	-15.826004	-85.846458	15.044289
18711	9.895309	-0.207087	0.683748	0.007732	-0.011072	0.108369	1.000000	0.000025	0.000028	0.000017	-15.819845	-85.846892	15.039137
18712	9.909601	-0.192225	0.696728	-0.004140	0.004307	0.123234	1.000000	0.000016	0.000021	0.000032	-15.840824	-85.847548	15.061389
18713	9.919181	-0.184474	0.676412	0.016906	0.011858	0.131220	1.000000	0.000018	0.000041	0.000001	-15.806053	-85.847030	15.026724
18714	9.877908	-0.191047	0.684172	0.006194	0.004652	0.090726	1.000000	0.000009	0.000021	0.000043	-15.844993	-85.847399	15.068024
18715	9.872925	-0.192485	0.739119	-0.049001	0.004153	0.089614	1.000000	0.000012	0.000037	0.000024	-15.846380	-85.846550	15.068887
18716	9.904693	-0.201279	0.665753	0.026303	-0.005052	0.116359	1.000000	0.000015	0.000025	0.000021	-15.848749	-85.847170	15.071411
18717	9.895009	-0.209795	0.687247	0.004025	-0.013374	0.108368	1.000000	0.000010	0.000031	0.000028	-15.859315	-85.846893	15.081262
18718	9.868066	-0.201108	0.707484	-0.017909	-0.004813	0.082734	1.000000	0.000028	0.000031	0.000024	-15.862583	-85.846686	15.083198
18719	9.887291	-0.185381	0.666262	0.024799	0.010666	0.098724	1.000000	0.000009	0.000034	0.000016	-15.854618	-85.846393	15.074363
18720	9.901583	-0.170414	0.679310	0.012946	0.026044	0.113591	1.000000	0.000023	0.000021	0.000021	-15.857788	-85.847290	15.073925
18721	9.891892	-0.178768	0.700866	-0.009331	0.017730	0.105594	1.000000	0.000011	0.000041	0.000012	-15.840646	-85.846425	15.056105
18722	9.877502	-0.194348	0.689090	0.001326	0.001590	0.090729	1.000000	0.000017	0.000031	0.000017	-15.833711	-85.846406	15.045513
18723	9.882137	-0.187454	0.723167	-0.032207	0.009041	0.097591	1.000000	0.000020	0.000034	0.000024	-15.836017	-85.845920	15.048236
18724	9.884992	-0.220328	0.712717	-0.021900	-0.023977	0.100361	1.000000	0.000019	0.000037	0.000013	-15.819982	-85.845366	15.030804
18725	9.874428	-0.162820	0.702268	-0.011423	0.033079	0.087958	1.000000	0.000007	0.000028	0.000020	-15.821196	-85.845645	15.030955
18726	9.877289	-0.195782	0.691725	-0.001136	0.000059	0.090729	1.000000	0.000020	0.000034	0.000024	-15.824009	-85.845209	15.037199
18727	9.899160	-0.206117	0.727166	-0.035016	-0.009369	0.115218	1.000000	0.000009	0.000034	0.000016	-15.816055	-85.844915	15.028375
18728	9.881867	-0.189233	0.726390	-0.035285	0.007131	0.097583	1.000000	0.000023	0.000021	0.000021	-15.819405	-85.845919	15.032974
18729	9.886792	-0.188661	0.672717	0.018679	0.006826	0.098741	1.000000	0.000002	0.000048	0.000001	-15.782847	-85.844673	14.994647
18730	9.916246	-0.224086	0.730436	-0.037215	-0.027398	0.132842	1.000000	0.000023	0.000021	0.000021	-15.786158	-85.845651	14.998462
18731	9.859797	-0.180010	0.693519	-0.003853	0.015026	0.073097	1.000000	0.000017	0.000031	0.000017	-15.779119	-85.845721	14.991493
18732	9.886650	-0.189576	0.674546	0.016834	0.005678	0.098745	1.000000	0.000028	0.000031	0.000024	-15.782813	-85.845612	14.997977
18733	9.867272	-0.205978	0.717090	-0.027099	-0.010537	0.082708	1.000000	0.000019	0.000037	0.000013	-15.766612	-85.845109	14.982040
18734	9.886546	-0.190103	0.675914	0.015604	0.004911	0.098747	1.000000	0.000006	0.000031	0.000009	-15.749617	-85.845358	14.964487
18735	9.894067	-0.215861	0.698840	-0.007029	-0.020274	0.108355	1.000000	0.000023	0.000034	0.000042	-15.779838	-85.844334	14.995627
18736	9.891105	-0.183799	0.710607	-0.018554	0.011985	0.105589	1.000000	0.000014	0.000028	0.000009	-15.763760	-85.844996	14.982720
18737	9.908283	-0.201370	0.712703	-0.019532	-0.005288	0.123216	1.000000	0.000016	0.000047	0.000027	-15.765386	-85.843018	14.984365
18738	9.886317	-0.191894	0.678764	0.013144	0.003374	0.098751	1.000000	0.000012	0.000037	0.000024	-15.766900	-85.842120	14.984807
18739	9.876583	-0.200374	0.700437	-0.009128	-0.004922	0.090724	1.000000	0.000012	0.000037	0.000024	-15.768323	-85.841271	14.985709
18740	9.900533	-0.177411	0.692691	0.000656	0.018365	0.113616	1.000000	0.000017	0.000031	0.000017	-15.761691	-85.841292	14.977069
18741	9.871814	-0.208482	0.668404	0.022570	-0.013532	0.083891	1.000000	0.000014	0.000040	0.000031	-15.772472	-85.839887	14.987677
18742	9.900423	-0.178167	0.694057	-0.000577	0.017596	0.113618	1.000000	0.000011	0.000025	0.000002	-15.747015	-85.841071	14.963128
18743	9.883149	-0.161092	0.693225	-0.000820	0.034102	0.095995	1.000000	0.000025	0.000028	0.000017	-15.740911	-85.841505	14.958036
18744	9.876327	-0.202015	0.703568	-0.011898	-0.005824	0.090720	1.000000	0.000007	0.000028	0.000020	-15.814048	-85.838587	15.030865
18745	9.903192	-0.211535	0.684626	0.008769	-0.015193	0.116380	1.000000	0.000027	0.000034	0.000013	-15.799013	-85.838441	15.017033
18746	9.876230	-0.202665	0.704745	-0.013120	-0.006584	0.090718	1.000000	0.000005	0.000022	0.000025	-15.809742	-85.839244	15.024834
18747	9.885870	-0.195035	0.684345	0.007921	0.000937	0.098757	1.000000	0.000017	0.000031	0.000017	-15.802941	-85.839306	15.018104
18748	9.903048	-0.212652	0.686364	0.006937	-0.016338	0.116379	1.000000	0.000020	0.000034	0.000024	-15.805352	-85.838741	15.018600
18749	9.900094	-0.180474	0.698150	-0.004563	0.015928	0.113619	1.000000	0.000017	0.000031	0.000017	-15.798554	-85.838803	15.011873
18750	9.885715	-0.196027	0.686301	0.006096	-0.000209	0.098759	1.000000	-0.000002	0.000035	0.000009	-15.780514	-85.838657	14.990960
18751	9.875970	-0.204308	0.707908	-0.016174	-0.008488	0.090712	1.000000	0.000038	0.000034	0.000020	-15.775762	-85.838318	14.988698
18752	9.902837	-0.214021	0.688977	0.004494	-0.017869	0.116378	1.000000	-0.000000	0.000028	0.000032	-15.794511	-85.838146	15.002379
18753	9.885558	-0.197196	0.688221	0.004268	-0.001356	0.098760	1.000000	0.000027	0.000034	0.000013	-15.779492	-85.838000	14.988564
18754	9.890136	-0.190388	0.722267	-0.029254	0.006127	0.105569	1.000000	0.000011	0.000028	0.000039	-15.808491	-85.837647	15.014076
18755	9.902682	-0.215503	0.690742	0.002659	-0.019019	0.116377	1.000000	0.000015	0.000025	0.000021	-15.810852	-85.838281	15.016315
18756	9.904810	-0.182648	0.648105	0.045746	0.013278	0.114870	1.000000	0.000020	0.000034	0.000024	-15.813569	-85.837796	15.021569
18757	9.885359	-0.198978	0.690570	0.001822	-0.002884	0.098760	1.000000	0.000014	0.000028	0.000009	-15.797432	-85.838415	15.005157
18758	9.895011	-0.191276	0.670301	0.022870	0.004621	0.106818	1.000000	0.000012	0.000037	0.000024	-15.798884	-85.837509	15.004859
18759	9.885261	-0.199745	0.691747	0.000601	-0.003649	0.098760	1.000000	0.000021	0.000015	0.000025	-15.811326	-85.839080	15.017924
18760	9.880586	-0.207423	0.659001	0.032912	-0.011898	0.091961	1.000000	0.000007	0.000054	0.000015	-15.793874	-85.836696	14.999683
18761	9.867925	-0.183322	0.691785	-0.000222	0.012491	0.081147	1.000000	0.000016	0.000021	0.000032	-15.814737	-85.837346	15.020577
18762	9.902323	-0.218211	0.695027	-0.001653	-0.021694	0.116371	1.000000	0.000022	0.000025	0.000010	-15.799828	-85.838371	15.009640
18763	9.894776	-0.193229	0.673212	0.019789	0.002710	0.106826	1.000000	0.000015	0.000025	0.000021	-15.802197	-85.839006	15.011887
18764	9.867798	-0.184443	0.693295	-0.002073	0.011348	0.081148	1.000000	0.000010	0.000031	0.000028	-15.813059	-85.838739	15.024021
18765	9.902182	-0.219478	0.696638	-0.003505	-0.022843	0.116368	1.000000	0.000026	0.000024	0.000028	-15.825715	-85.839181	15.037842
18766	9.894639	-0.194723	0.674785	0.017943	0.001562	0.106829	1.000000	0.000005	0.000022	0.000025	-15.836380	-85.840010	15.047192
18767	9.880264	-0.210335	0.662896	0.028602	-0.014574	0.091971	1.000000	0.000029	0.000040	0.000009	-15.812222	-85.839293	15.024435
18768	9.889436	-0.196178	0.730246	-0.037878	0.000788	0.105541	1.000000	0.000012	0.000009	0.000040	-15.851866	-85.841163	15.067814
18769	9.897399	-0.228522	0.665157	0.026944	-0.032244	0.109580	1.000000	0.000014	0.000028	0.000009	-15.835732	-85.841783	15.051406
18770	9.884738	-0.204399	0.697835	-0.006168	-0.007845	0.098756	1.000000	0.000034	0.000037	0.000039	-15.857793	-85.840454	15.072674
18771	9.884677	-0.204913	0.698546	-0.006782	-0.008227	0.098755	1.000000	0.000009	0.000034	0.000016	-15.850080	-85.840153	15.064095
18772	9.886873	-0.171945	0.655864	0.036325	0.024053	0.097312	1.000000	0.000012	0.000022	0.000014	-15.843225	-85.841332	15.056830
18773	9.867382	-0.188320	0.698160	-0.007588	0.007921	0.081149	1.000000	0.000026	0.000024	0.000028	-15.855907	-85.841774	15.070677
18774	9.892020	-0.231315	0.722480	-0.030698	-0.034153	0.108272	1.000000	0.000020	0.000034	0.000024	-15.858645	-85.841273	15.073873
18775	9.877006	-0.181188	0.678509	0.012835	0.015032	0.089235	1.000000	0.000009	0.000034	0.000016	-15.850931	-85.840972	15.065294
18776	9.908493	-0.183607	0.692988	0.000521	0.013490	0.121697	1.000000	0.000016	0.000021	0.000032	-15.871896	-85.841594	15.085886
18777	9.887270	-0.239858	0.690787	0.000384	-0.043177	0.101493	1.000000	0.000014	0.000028	0.000009	-15.855769	-85.842214	15.069486
18778	9.898667	-0.192403	0.714987	-0.022357	0.004856	0.113607	1.000000	0.000021	0.000031	0.000035	-15.876997	-85.841722	15.091314
18779	9.884284	-0.208197	0.703124	-0.011694	-0.011276	0.098747	1.000000	0.000009	0.000034	0.000016	-15.869284	-85.841421	15.082735
18780	9.876762	-0.183324	0.681473	0.009772	0.013124	0.089241	1.000000	0.000020	0.000034	0.000024	-15.871926	-85.840936	15.086973
18781	9.884173	-0.208949	0.704457	-0.012925	-0.012040	0.098745	1.000000	0.000017	0.000031	0.000017	-15.865160	-85.841000	15.080282
18782	9.866928	-0.191960	0.703563	-0.013098	0.004502	0.081145	1.000000	0.000012	0.000022	0.000014	-15.858634	-85.842153	15.071465
18783	9.879495	-0.217075	0.672110	0.018777	-0.020682	0.091983	1.000000	0.000023	0.000034	0.000042	-15.889100	-85.841116	15.102852
18784	9.898346	-0.194962	0.718734	-0.026040	0.002576	0.113599	1.000000	0.000027	0.000034	0.000013	-15.874304	-85.840933	15.087945
18785	9.876511	-0.185347	0.684560	0.006715	0.011223	0.089246	1.000000	0.000020	0.000034	0.000024	-15.876895	-85.840440	15.090958
18786	9.901105	-0.228242	0.709012	-0.016428	-0.030853	0.116334	1.000000	0.000009	0.000034	0.000016	-15.869281	-85.840097	15.081403
18787	9.871830	-0.193359	0.652464	0.038423	0.002571	0.082495	1.000000	0.000017	0.000031	0.000017	-15.862523	-85.840160	15.074720
18788	9.883800	-0.211700	0.708855	-0.017213	-0.014696	0.098735	1.000000	0.000010	0.000031	0.000028	-15.873478	-85.839864	15.085498
18789	9.886057	-0.178898	0.666217	0.025915	0.017556	0.097358	1.000000	0.000017	0.000031	0.000017	-15.866723	-85.839928	15.078819
18790	9.907769	-0.189288	0.701762	-0.008076	0.008146	0.121700	1.000000	0.000023	0.000037	0.000031	-15.878728	-85.838858	15.091343
18791	9.883627	-0.213011	0.710869	-0.019055	-0.015840	0.098730	1.000000	0.000009	0.000034	0.000016	-15.871027	-85.838558	15.082779
18792	9.903094	-0.197305	0.669669	0.023632	-0.000514	0.114956	1.000000	0.000014	0.000028	0.000009	-15.854863	-85.839116	15.063917
18793	9.876089	-0.188335	0.689822	0.001827	0.008174	0.089251	1.000000	0.000033	0.000040	0.000027	-15.858611	-85.837858	15.069570
18794	9.866271	-0.196861	0.711379	-0.020436	-0.000055	0.081134	1.000000	0.000008	0.000025	0.000032	-15.878926	-85.838160	15.090166
18795	9.878851	-0.222040	0.679915	0.011419	-0.025258	0.091984	1.000000	0.000018	0.000028	0.000028	-15.890689	-85.838238	15.102158
18796	9.875930	-0.189953	0.691640	-0.000018	0.007035	0.089252	1.000000	0.000012	0.000037	0.000024	-15.892575	-85.837374	15.103665
18797	9.902829	-0.199756	0.672858	0.020549	-0.002425	0.114963	1.000000	0.000010	0.000031	0.000028	-15.903384	-85.837087	15.113763
18798	9.907325	-0.192874	0.707033	-0.012976	0.005095	0.121697	1.000000	0.000014	0.000044	0.000020	-15.895661	-85.835548	15.101683
18799	9.892948	-0.208482	0.695164	-0.002308	-0.011036	0.106839	1.000000	0.000012	0.000022	0.000014	-15.888738	-85.836740	15.094294
18800	9.892906	-0.208805	0.695661	-0.002914	-0.011415	0.106839	1.000000	0.000007	0.000028	0.000020	-15.890247	-85.836947	15.092370
18801	9.890000	-0.176731	0.707225	-0.014342	0.020879	0.104109	1.000000	0.000016	0.000021	0.000032	-15.911178	-85.837595	15.113333
18802	9.885403	-0.184593	0.674316	0.017963	0.012595	0.097383	1.000000	0.000028	0.000031	0.000024	-15.915326	-85.837513	15.120979
18803	9.875570	-0.192955	0.695934	-0.004295	0.004372	0.089252	1.000000	0.000022	0.000040	0.000020	-15.908775	-85.836448	15.115050
18804	9.919661	-0.220047	0.678560	0.015781	-0.022030	0.132553	1.000000	0.000016	0.000021	0.000032	-15.929826	-85.837105	15.137600
18805	9.865695	-0.201899	0.717918	-0.027168	-0.004228	0.081117	1.000000	0.000015	0.000025	0.000021	-15.932259	-85.837740	15.139916
18806	9.899532	-0.171105	0.689216	0.004209	0.026814	0.112245	1.000000	0.000020	0.000034	0.000024	-15.935218	-85.837280	15.145259
18807	9.902340	-0.204149	0.678709	0.014402	-0.006247	0.114972	1.000000	0.000005	0.000022	0.000025	-15.945857	-85.838120	15.154645
18808	9.862685	-0.170659	0.730739	-0.039818	0.027311	0.078386	1.000000	0.000003	0.000041	0.000023	-15.946537	-85.836871	15.153879
18809	9.878116	-0.228319	0.688455	0.002822	-0.030593	0.091975	1.000000	0.000020	0.000034	0.000024	-15.949153	-85.836377	15.156921
18810	9.906713	-0.198100	0.714126	-0.020367	0.000518	0.121685	1.000000	0.000025	0.000028	0.000017	-15.943530	-85.836778	15.151355
18811	9.884954	-0.188461	0.679816	0.012435	0.009158	0.097395	1.000000	0.000017	0.000031	0.000017	-15.936808	-85.836842	15.144711
18812	9.884905	-0.188767	0.680436	0.011829	0.008779	0.097396	1.000000	0.000017	0.000031	0.000017	-15.930188	-85.836854	15.136854
18813	9.889387	-0.181727	0.714486	-0.021716	0.016312	0.104104	1.000000	0.000017	0.000031	0.000017	-15.923467	-85.836918	15.130212
18814	9.884808	-0.189380	0.681676	0.010604	0.008014	0.097398	1.000000	0.000017	0.000031	0.000017	-15.916681	-85.836966	15.123771
18815	9.860638	-0.212932	0.690702	-0.000361	-0.015941	0.074392	1.000000	0.000009	0.000034	0.000016	-15.908996	-85.836666	15.115225
18816	9.887567	-0.222618	0.671769	0.020164	-0.025434	0.100121	1.000000	0.000040	0.000015	0.000022	-15.914469	-85.838435	15.125982
18817	9.862230	-0.173610	0.736169	-0.045322	0.023896	0.078371	1.000000	-0.000002	0.000035	0.000009	-15.896462	-85.838329	15.105830
18818	9.916120	-0.192724	0.697941	-0.003660	0.005289	0.129831	1.000000	0.000029	0.000027	0.000036	-15.918887	-85.838250	15.132006
18819	9.901741	-0.208578	0.686062	0.007017	-0.010837	0.114976	1.000000	0.000012	0.000037	0.000024	-15.920549	-85.837392	15.133156
18820	9.860386	-0.214970	0.693665	-0.003450	-0.017844	0.074388	1.000000	0.000020	0.000034	0.000024	-15.923563	-85.836940	15.138785
18821	9.884457	-0.192179	0.685972	0.006280	0.005341	0.097404	1.000000	0.000020	0.000034	0.000024	-15.926197	-85.836447	15.141846
18822	9.884404	-0.192555	0.686622	0.005681	0.004964	0.097404	1.000000	0.000017	0.000031	0.000017	-15.919596	-85.836416	15.131734
18823	9.874544	-0.200802	0.708174	-0.016571	-0.003239	0.089240	1.000000	0.000009	0.000034	0.000016	-15.911916	-85.836116	15.123195
18824	9.925597	-0.187308	0.681077	0.014288	0.010819	0.137996	1.000000	0.000020	0.000034	0.000024	-15.914662	-85.835616	15.126905
18825	9.884249	-0.193772	0.688510	0.003839	0.003818	0.097406	1.000000	0.000016	0.000021	0.000032	-15.935621	-85.836262	15.147898
18826	9.874386	-0.202124	0.709996	-0.018406	-0.004380	0.089236	1.000000	0.000019	0.000037	0.000013	-15.919736	-85.835717	15.131808
18827	9.884151	-0.194496	0.689716	0.002617	0.003055	0.097407	1.000000	0.000015	0.000025	0.000021	-15.922192	-85.836352	15.134147
18828	9.911082	-0.204280	0.670901	0.023132	-0.006457	0.123147	1.000000	0.000020	0.000034	0.000024	-15.924876	-85.835812	15.135854
18829	9.884052	-0.195332	0.690890	0.001396	0.002293	0.097407	1.000000	0.000015	0.000025	0.000021	-15.927334	-85.836446	15.138196
18830	9.884002	-0.195685	0.691511	0.000801	0.001912	0.097407	1.000000	0.000001	0.000038	0.000016	-15.918386	-85.835673	15.124195
18831	9.898288	-0.180755	0.704445	-0.011111	0.017271	0.112261	1.000000	0.000025	0.000002	0.000022	-15.931775	-85.838735	15.138604
18832	9.874103	-0.204318	0.713301	-0.022061	-0.006662	0.089227	1.000000	0.000024	0.000047	0.000016	-15.916045	-85.837075	15.123606
18833	9.901030	-0.214023	0.694589	-0.001563	-0.016184	0.114971	1.000000	0.000023	0.000021	0.000021	-15.919483	-85.838075	15.127867
18834	9.876495	-0.171997	0.671175	0.020515	0.025142	0.088027	1.000000	-0.000000	0.000028	0.000032	-15.938525	-85.837960	15.144256
18835	9.883773	-0.197760	0.694196	-0.002262	0.000003	0.097407	1.000000	0.000020	0.000034	0.000024	-15.941176	-85.837466	15.147336
18836	9.910705	-0.207628	0.675425	0.018223	-0.009524	0.123155	1.000000	0.000018	0.000028	0.000028	-15.953283	-85.837577	15.161185
18837	9.888154	-0.191368	0.728893	-0.036433	0.007176	0.104072	1.000000	0.000012	0.000037	0.000024	-15.954953	-85.836719	15.162344
18838	9.879119	-0.206553	0.662711	0.028825	-0.009079	0.090743	1.000000	0.000028	0.000031	0.000024	-15.958500	-85.836573	15.167419
18839	9.912203	-0.169061	0.721738	-0.027324	0.029956	0.127112	1.000000	0.000005	0.000022	0.000025	-15.969156	-85.837413	15.176825
18840	9.883519	-0.199965	0.697161	-0.005340	-0.001904	0.097406	1.000000	0.000014	0.000028	0.000009	-15.953346	-85.838043	15.161753
18841	9.897800	-0.184950	0.710192	-0.017256	0.013453	0.112258	1.000000	0.000023	0.000021	0.000021	-15.956808	-85.839042	15.166038
18842	9.893274	-0.192781	0.677253	0.015068	0.005134	0.105601	1.000000	0.000018	0.000028	0.000028	-15.968772	-85.839094	15.177554
18843	9.900537	-0.218357	0.700256	-0.007722	-0.020004	0.114961	1.000000	0.000006	0.000031	0.000009	-15.951740	-85.839354	15.159318
18844	9.897654	-0.186067	0.711926	-0.019091	0.012311	0.112256	1.000000	0.000020	0.000034	0.000024	-15.954374	-85.838825	15.161272
18845	9.897604	-0.186485	0.712513	-0.019706	0.011929	0.112255	1.000000	0.000015	0.000025	0.000021	-15.956855	-85.839460	15.163637
18846	9.897549	-0.186928	0.713161	-0.020322	0.011546	0.112255	1.000000	0.000033	0.000040	0.000027	-15.960708	-85.838208	15.170310
18847	9.875864	-0.177626	0.678946	0.012546	0.020178	0.088052	1.000000	-0.000006	0.000035	0.000038	-15.988087	-85.837201	15.195255
18848	9.897433	-0.188137	0.714459	-0.021548	0.010785	0.112253	1.000000	0.000023	0.000021	0.000021	-15.991660	-85.838172	15.198674
18849	9.892912	-0.195823	0.681648	0.010773	0.002456	0.105608	1.000000	0.000011	0.000041	0.000012	-15.974815	-85.837305	15.181171
18850	9.883002	-0.203957	0.703317	-0.011469	-0.005716	0.097399	1.000000	0.000019	0.000037	0.000013	-15.958960	-85.836767	15.164491
18851	9.875658	-0.179000	0.681576	0.010103	0.018653	0.088058	1.000000	0.000017	0.000031	0.000017	-15.952282	-85.836833	15.157896
18852	9.902606	-0.188829	0.662838	0.030567	0.009097	0.113822	1.000000	0.000010	0.000031	0.000028	-15.963122	-85.836535	15.168064
18853	9.882853	-0.205076	0.705081	-0.013312	-0.006861	0.097396	1.000000	0.000010	0.000015	0.000018	-15.965430	-85.838298	15.169712
18854	9.882806	-0.205535	0.705605	-0.013920	-0.007243	0.097395	1.000000	0.000023	0.000037	0.000031	-15.977337	-85.837209	15.182586
18855	9.892615	-0.198050	0.685303	0.007097	0.000161	0.105611	1.000000	0.000012	0.000022	0.000014	-15.970481	-85.838402	15.175268
18856	9.892579	-0.198368	0.685735	0.006490	-0.000222	0.105612	1.000000	0.000023	0.000021	0.000021	-15.973827	-85.839352	15.178297
18857	9.892527	-0.198809	0.686351	0.005875	-0.000605	0.105612	1.000000	0.000033	0.000040	0.000027	-15.977681	-85.838096	15.184067
18858	9.892471	-0.199256	0.687032	0.005269	-0.000988	0.105612	1.000000	0.000007	0.000028	0.000020	-15.978969	-85.838318	15.183485
18859	9.875283	-0.182357	0.686106	0.005222	0.015596	0.088067	1.000000	0.000020	0.000034	0.000024	-15.981648	-85.837825	15.186596
18860	9.892368	-0.200098	0.688270	0.004049	-0.001755	0.105613	1.000000	0.000007	0.000028	0.000020	-15.982827	-85.838036	15.185116
18861	9.892320	-0.200450	0.688859	0.003434	-0.002137	0.105613	1.000000	0.000017	0.000031	0.000017	-15.976157	-85.838102	15.178530
18862	9.892260	-0.200855	0.689603	0.002825	-0.002517	0.105613	1.000000	0.000025	0.000043	0.000027	-15.979113	-85.836445	15.181768
18863	9.892207	-0.201231	0.690254	0.002210	-0.002900	0.105613	1.000000	0.000012	0.000022	0.000014	-15.972264	-85.837639	15.174458
18864	9.889343	-0.168862	0.701867	-0.009142	0.029421	0.102921	1.000000	0.000011	0.000041	0.000012	-15.955360	-85.836801	15.158614
18865	9.892116	-0.201862	0.691369	0.000975	-0.003667	0.105613	1.000000	0.000019	0.000009	0.000029	-15.977198	-85.838938	15.180881
18866	9.901944	-0.194613	0.671005	0.021988	0.003724	0.113848	1.000000	0.000017	0.000043	0.000038	-15.997671	-85.836965	15.202273
18867	9.892007	-0.202953	0.692604	-0.000257	-0.004431	0.105613	1.000000	0.000014	0.000028	0.000009	-15.981659	-85.837590	15.186000
18868	9.891960	-0.203257	0.693192	-0.000869	-0.004813	0.105613	1.000000	0.000028	0.000031	0.000024	-15.985363	-85.837444	15.191060
18869	9.874778	-0.186418	0.692248	-0.000899	0.011778	0.088073	1.000000	0.000010	0.000031	0.000028	-15.996220	-85.837155	15.201213
18870	9.906176	-0.188924	0.706913	-0.013407	0.010159	0.120462	1.000000	0.000015	0.000025	0.000021	-15.998802	-85.837771	15.203326
18871	9.891809	-0.204560	0.694955	-0.002712	-0.005959	0.105612	1.000000	0.000009	0.000034	0.000016	-15.991139	-85.837473	15.194810
18872	9.891758	-0.204914	0.695576	-0.003331	-0.006340	0.105611	1.000000	0.000007	0.000028	0.000021	-15.992859	-85.837765	15.196485
18873	9.901597	-0.197337	0.675313	0.017680	0.001043	0.113858	1.000000	0.000027	0.000034	0.000013	-15.978040	-85.837627	15.182890
18874	9.891656	-0.205662	0.696813	-0.004558	-0.007103	0.105610	1.000000	0.000029	0.000027	0.000036	-16.000316	-85.837483	15.205654
18875	9.874475	-0.188888	0.695890	-0.004578	0.009492	0.088075	1.000000	0.000012	0.000037	0.000024	-16.002005	-85.836626	15.206839
18876	9.901436	-0.198720	0.677261	0.015853	-0.000106	0.113861	1.000000	0.000017	0.000031	0.000017	-15.995069	-85.836609	15.196724
18877	9.874371	-0.189685	0.697156	-0.005790	0.008729	0.088075	1.000000	0.000018	0.000028	0.000028	-16.006939	-85.836684	15.208829
18878	9.901344	-0.199645	0.678342	0.014624	-0.000871	0.113863	1.000000	0.000005	0.000022	0.000025	-16.017695	-85.837508	15.218417
18879	9.895815	-0.200422	0.733276	-0.040558	-0.001036	0.112199	1.000000	0.000029	0.000040	0.000009	-15.993716	-85.836802	15.195861
18880	9.896826	-0.207627	0.646214	0.046341	-0.009616	0.107274	1.000000	0.000007	0.000028	0.000021	-15.995035	-85.837020	15.194564
18881	9.874181	-0.191149	0.699441	-0.008233	0.007204	0.088074	1.000000	0.000023	0.000021	0.000021	-15.998571	-85.838020	15.198926
18882	9.874135	-0.191609	0.699964	-0.008837	0.006822	0.088074	1.000000	0.000010	0.000031	0.000028	-16.009171	-85.837676	15.206870
18883	9.901104	-0.201606	0.681252	0.011564	-0.002789	0.113866	1.000000	0.000018	0.000028	0.000028	-16.021052	-85.837751	15.218986
18884	9.883937	-0.184690	0.680287	0.011562	0.013810	0.096338	1.000000	0.000009	0.000034	0.000016	-16.013372	-85.837447	15.210267
18885	9.883883	-0.185070	0.680968	0.010948	0.013428	0.096340	1.000000	0.000020	0.000034	0.000024	-16.016082	-85.836954	15.213412
18886	9.900942	-0.202744	0.683269	0.009716	-0.003937	0.113868	1.000000	0.000019	0.000037	0.000013	-16.000489	-85.836462	15.198513
18887	9.908096	-0.228303	0.706327	-0.013141	-0.029053	0.123125	1.000000	0.000005	0.000022	0.000025	-16.011176	-85.837300	15.207951
18888	9.873821	-0.194086	0.703702	-0.012520	0.004535	0.088071	1.000000	0.000020	0.000034	0.000024	-16.013805	-85.836804	15.211289
18889	9.900797	-0.204091	0.684970	0.007870	-0.005087	0.113869	1.000000	0.000016	0.000021	0.000032	-16.034866	-85.837447	15.232387
18890	9.897955	-0.171934	0.696487	-0.003442	0.027252	0.111193	1.000000	0.000009	0.000034	0.000016	-16.027436	-85.837150	15.223601
18891	9.883584	-0.187593	0.684613	0.007261	0.011137	0.096346	1.000000	0.000020	0.000034	0.000024	-16.030153	-85.836658	15.226754
18892	9.873609	-0.195790	0.706202	-0.014982	0.003012	0.088069	1.000000	0.000019	0.000037	0.000013	-16.014417	-85.836182	15.212751
18893	9.900580	-0.205607	0.687637	0.005401	-0.006616	0.113870	1.000000	0.000020	0.000034	0.000024	-16.017137	-85.835689	15.215907
18894	9.883421	-0.188573	0.686688	0.005416	0.009991	0.096348	1.000000	0.000006	0.000031	0.000009	-16.000189	-85.835934	15.197455
18895	9.859137	-0.211948	0.695595	-0.005502	-0.013862	0.073218	1.000000	0.000025	0.000028	0.000017	-15.994581	-85.836366	15.192873
18896	9.900436	-0.206504	0.689438	0.003564	-0.007764	0.113870	1.000000	0.000007	0.000028	0.000021	-15.995916	-85.836592	15.192133
18897	9.883275	-0.189606	0.688512	0.003581	0.008844	0.096350	1.000000	0.000033	0.000040	0.000027	-15.999850	-85.835337	15.197989
18898	9.883219	-0.190053	0.689192	0.002970	0.008462	0.096351	1.000000	0.000007	0.000028	0.000021	-16.001284	-85.835590	15.198507
18899	9.883167	-0.190474	0.689810	0.002356	0.008080	0.096351	1.000000	0.000020	0.000034	0.000024	-16.004014	-85.835097	15.201674
18900	9.890285	-0.216052	0.712944	-0.020510	-0.017031	0.105578	1.000000	0.000017	0.000031	0.000017	-15.997120	-85.835119	15.193849
18901	9.873128	-0.198968	0.712014	-0.020485	-0.000419	0.088059	1.000000	0.000019	0.000037	0.000013	-15.981338	-85.834618	15.178357
18902	9.910045	-0.201059	0.672530	0.021512	-0.002331	0.122163	1.000000	0.000029	0.000027	0.000036	-16.003414	-85.834434	15.200285
18903	9.900055	-0.209399	0.694021	-0.000725	-0.010445	0.113868	1.000000	0.000009	0.000034	0.000016	-15.995775	-85.834136	15.191798
18904	9.900007	-0.209639	0.694644	-0.001332	-0.010830	0.113868	1.000000	0.000014	0.000028	0.000009	-15.979460	-85.834712	15.174144
18905	9.872917	-0.200443	0.714516	-0.022921	-0.001943	0.088054	1.000000	0.000020	0.000034	0.000024	-15.982199	-85.834219	15.177321
18906	9.892741	-0.185154	0.673515	0.019702	0.013129	0.104654	1.000000	0.000022	0.000040	0.000020	-15.975859	-85.833178	15.172133
18907	9.864061	-0.216045	0.649104	0.041732	-0.018714	0.074962	1.000000	0.000017	0.000031	0.000017	-15.969249	-85.833245	15.165613
18908	9.882695	-0.193684	0.695655	-0.003139	0.004640	0.096353	1.000000	0.000015	0.000025	0.000021	-15.971781	-85.833836	15.166112
18909	9.904110	-0.204064	0.731238	-0.037351	-0.004734	0.120405	1.000000	0.000018	0.000028	0.000028	-15.983684	-85.833911	15.178253
18910	9.865509	-0.177139	0.695106	-0.003719	0.020875	0.078842	1.000000	0.000014	0.000028	0.000009	-15.967808	-85.834577	15.163221
18911	9.906822	-0.171610	0.688984	0.005306	0.026944	0.119508	1.000000	0.000025	0.000028	0.000017	-15.962224	-85.835009	15.158666
18912	9.892456	-0.187491	0.677037	0.016023	0.010832	0.104663	1.000000	0.000005	0.000034	0.000046	-15.999831	-85.833760	15.193673
18913	9.899532	-0.213253	0.700283	-0.006872	-0.014272	0.113861	1.000000	0.000011	0.000041	0.000012	-15.983041	-85.832893	15.176236
18914	9.903829	-0.206085	0.734464	-0.040420	-0.006641	0.120392	1.000000	0.000009	0.000034	0.000016	-15.975214	-85.832532	15.165955
18915	9.882331	-0.196520	0.700016	-0.007428	0.001967	0.096352	1.000000	0.000007	0.000028	0.000021	-15.976743	-85.832801	15.166437
18916	9.882279	-0.196941	0.700634	-0.008061	0.001585	0.096351	1.000000	0.000020	0.000034	0.000024	-15.979868	-85.832413	15.174224
18917	9.882228	-0.197316	0.701251	-0.008676	0.001203	0.096351	1.000000	0.000025	0.000028	0.000017	-15.974299	-85.832845	15.169686
18918	9.875059	-0.172290	0.679302	0.012989	0.025540	0.087166	1.000000	0.000003	0.000028	0.000002	-15.948028	-85.833706	15.143071
18919	9.892098	-0.189734	0.681628	0.011705	0.008152	0.104672	1.000000	0.000029	0.000040	0.000009	-15.924155	-85.833001	15.120628
18920	9.882076	-0.198080	0.703172	-0.010528	0.000056	0.096349	1.000000	0.000022	0.000027	0.000047	-15.963935	-85.832541	15.162487
18921	9.913412	-0.200727	0.718065	-0.023145	-0.001607	0.128697	1.000000	0.000011	0.000041	0.000012	-15.947164	-85.831674	15.145070
18922	9.864878	-0.181544	0.702884	-0.011084	0.016298	0.078846	1.000000	0.000025	0.000028	0.000017	-15.941470	-85.832120	15.140882
18923	9.881912	-0.199213	0.705151	-0.012374	-0.001092	0.096347	1.000000	0.000009	0.000034	0.000016	-15.933853	-85.831822	15.132418
18924	9.923225	-0.193895	0.699125	-0.003381	0.004953	0.137022	1.000000	0.000018	0.000028	0.000028	-15.945795	-85.831896	15.144172
18925	9.881809	-0.200164	0.706323	-0.013603	-0.001855	0.096345	1.000000	0.000018	0.000028	0.000028	-15.957715	-85.831972	15.156331
18926	9.867452	-0.215854	0.694308	-0.002878	-0.017964	0.081499	1.000000	0.000025	0.000028	0.000017	-15.951855	-85.832358	15.150949
18927	9.891695	-0.193147	0.686507	0.006791	0.005086	0.104679	1.000000	0.000005	0.000022	0.000025	-15.962542	-85.833196	15.160389
18928	9.913046	-0.203447	0.722344	-0.027448	-0.004287	0.128685	1.000000	0.000008	0.000053	0.000015	-15.944841	-85.830801	15.141639
18929	9.887246	-0.201436	0.654563	0.038514	-0.003701	0.098174	1.000000	0.000016	0.000021	0.000032	-15.965913	-85.831445	15.162751
18930	9.881553	-0.202194	0.709321	-0.016661	-0.003765	0.096340	1.000000	0.000022	0.000025	0.000010	-15.950903	-85.832440	15.149211
18931	9.881510	-0.202473	0.709847	-0.017275	-0.004147	0.096339	1.000000	0.000007	0.000028	0.000021	-15.952439	-85.832710	15.149702
18932	9.891438	-0.195145	0.689633	0.003707	0.003174	0.104681	1.000000	0.000023	0.000037	0.000031	-15.965011	-85.831746	15.166652
18933	9.877071	-0.210867	0.677772	0.014426	-0.012933	0.089837	1.000000	0.000009	0.000034	0.000016	-15.957399	-85.831448	15.158195
18934	9.867041	-0.219075	0.699127	-0.007803	-0.021016	0.081491	1.000000	0.000021	0.000015	0.000025	-15.970119	-85.833032	15.171779
18935	9.891292	-0.196290	0.691394	0.001860	0.002025	0.104682	1.000000	0.000029	0.000040	0.000009	-15.946274	-85.832329	15.149369
18936	9.895556	-0.189097	0.725510	-0.031704	0.009663	0.111176	1.000000	0.000007	0.000028	0.000021	-15.947547	-85.832613	15.150480
18937	9.886875	-0.204524	0.659199	0.033576	-0.006770	0.098190	1.000000	-0.000000	0.000028	0.000032	-15.966562	-85.832526	15.167659
18938	9.901133	-0.189676	0.672392	0.021621	0.008569	0.113036	1.000000	0.000027	0.000034	0.000013	-15.951922	-85.832408	15.154512
18939	9.866791	-0.220806	0.702094	-0.010878	-0.022927	0.081484	1.000000	0.000012	0.000022	0.000014	-15.945138	-85.833602	15.147273
18940	9.859668	-0.195862	0.680179	0.010819	0.001407	0.072349	1.000000	0.000011	0.000041	0.000012	-15.928483	-85.832748	15.131022
18941	9.908064	-0.215648	0.696760	-0.002542	-0.017294	0.122171	1.000000	0.000015	0.000025	0.000021	-15.931061	-85.833383	15.133493
18942	9.900947	-0.190883	0.674778	0.019163	0.007035	0.113042	1.000000	0.000028	0.000031	0.000024	-15.934647	-85.833233	15.138423
18943	9.873816	-0.181724	0.694730	-0.002354	0.015981	0.087194	1.000000	0.000006	0.000047	0.000019	-15.926222	-85.831442	15.128765
18944	9.895126	-0.192020	0.730592	-0.037006	0.005910	0.111160	1.000000	0.000007	0.000028	0.000021	-15.881611	-85.834898	15.076036
18945	9.863707	-0.190418	0.716823	-0.025569	0.006830	0.078830	1.000000	0.000016	0.000021	0.000032	-15.902613	-85.835551	15.097078
18946	9.849356	-0.206034	0.704768	-0.014837	-0.009271	0.063985	1.000000	0.000024	0.000031	0.000006	-15.878460	-85.835934	15.072415
18947	9.869321	-0.190690	0.663703	0.027768	0.005714	0.080723	1.000000	0.000020	0.000034	0.000024	-15.881170	-85.835450	15.075568
18948	9.873560	-0.183672	0.697847	-0.005790	0.013371	0.087197	1.000000	0.000012	0.000037	0.000024	-15.882937	-85.834576	15.076112
18949	9.880549	-0.209259	0.721167	-0.028736	-0.011719	0.096306	1.000000	0.000022	0.000040	0.000020	-15.876506	-85.833523	15.070326
18950	9.890506	-0.201791	0.700992	-0.007742	-0.004422	0.104678	1.000000	0.000025	0.000028	0.000017	-15.870924	-85.833961	15.066684
18951	9.876158	-0.217452	0.688906	0.002982	-0.020526	0.089835	1.000000	0.000005	0.000022	0.000025	-15.881508	-85.834807	15.076023
18952	9.917490	-0.212121	0.682948	0.011921	-0.014541	0.130534	1.000000	0.000011	0.000041	0.000012	-15.864289	-85.833869	15.056010
18953	9.886066	-0.210348	0.669416	0.023372	-0.013618	0.098212	1.000000	0.000020	0.000034	0.000024	-15.867009	-85.833385	15.059173
18954	9.890296	-0.203367	0.703500	-0.010197	-0.005956	0.104675	1.000000	0.000010	0.000031	0.000028	-15.878068	-85.833128	15.071599
18955	9.907305	-0.221214	0.705757	-0.011545	-0.023370	0.122152	1.000000	0.000015	0.000025	0.000021	-15.880553	-85.833771	15.073978
18956	9.900220	-0.196457	0.683790	0.010187	0.000953	0.113058	1.000000	0.000020	0.000034	0.000024	-15.883279	-85.833229	15.076105
18957	9.873086	-0.187243	0.703588	-0.011301	0.009928	0.087196	1.000000	0.000017	0.000031	0.000017	-15.876625	-85.833303	15.069548
18958	9.900132	-0.197088	0.684873	0.008946	0.000185	0.113059	1.000000	0.000008	0.000012	0.000010	-15.869671	-85.835675	15.064725
18959	9.858699	-0.203268	0.691961	-0.001195	-0.006556	0.072353	1.000000	0.000007	0.000040	0.000042	-15.898217	-85.833912	15.092333
18960	9.900024	-0.198117	0.686141	0.007726	-0.000585	0.113060	1.000000	0.000027	0.000034	0.000013	-15.883152	-85.833718	15.077708
18961	9.887196	-0.173446	0.718486	-0.025100	0.024114	0.102036	1.000000	0.000014	0.000028	0.000010	-15.867119	-85.834351	15.061426
18962	9.906953	-0.223769	0.709882	-0.015853	-0.026055	0.122140	1.000000	0.000007	0.000028	0.000021	-15.868702	-85.834609	15.062161
18963	9.882833	-0.181671	0.686164	0.006623	0.015299	0.095589	1.000000	0.000018	0.000028	0.000028	-15.880579	-85.834694	15.074281
18964	9.889797	-0.207379	0.709313	-0.016342	-0.009786	0.104664	1.000000	0.000010	0.000031	0.000028	-15.891481	-85.834412	15.085314
18965	9.889744	-0.207801	0.709932	-0.016959	-0.010169	0.104663	1.000000	0.000017	0.000031	0.000017	-15.884834	-85.834486	15.078765
18966	9.882684	-0.182979	0.687954	0.004776	0.014151	0.095592	1.000000	0.000007	0.000028	0.000021	-15.886479	-85.834772	15.079526
18967	9.872597	-0.191225	0.709358	-0.017443	0.006104	0.087190	1.000000	0.000018	0.000028	0.000028	-15.898363	-85.834857	15.091652
18968	9.868291	-0.199167	0.676413	0.014878	-0.002331	0.080752	1.000000	0.000023	0.000021	0.000021	-15.902311	-85.835951	15.100207
18969	9.899592	-0.201603	0.691339	0.002162	-0.004039	0.113062	1.000000	0.000011	0.000041	0.000012	-15.885469	-85.835092	15.082728
18970	9.889488	-0.209720	0.712932	-0.020055	-0.012081	0.104655	1.000000	0.000020	0.000034	0.000024	-15.888441	-85.834595	15.086635
18971	9.892479	-0.177219	0.670192	0.023289	0.019897	0.104004	1.000000	0.000020	0.000034	0.000024	-15.891184	-85.834111	15.089825
18972	9.882379	-0.185486	0.691655	0.001065	0.011853	0.095596	1.000000	0.000018	0.000028	0.000028	-15.903199	-85.834230	15.103666
18973	9.909420	-0.195484	0.673186	0.021293	0.002086	0.121473	1.000000	0.000019	0.000037	0.000013	-15.887418	-85.833737	15.088187
18974	9.882273	-0.186197	0.692982	-0.000169	0.011087	0.095597	1.000000	0.000028	0.000031	0.000024	-15.891357	-85.833641	15.094821
18975	9.909311	-0.196204	0.674582	0.020055	0.001317	0.121476	1.000000	-0.000007	0.000041	0.000016	-15.881567	-85.832618	15.082315
18976	9.872107	-0.194597	0.715225	-0.023000	0.002661	0.087180	1.000000	0.000014	0.000028	0.000010	-15.865413	-85.833258	15.066468
18977	9.865081	-0.169819	0.693137	-0.001249	0.026979	0.078135	1.000000	0.000016	0.000021	0.000032	-15.886448	-85.833911	15.087544
18978	9.909166	-0.197222	0.676413	0.018190	0.000163	0.121480	1.000000	0.000021	0.000044	0.000009	-15.862049	-85.832920	15.066222
18979	9.871951	-0.195588	0.717109	-0.024858	0.001515	0.087176	1.000000	0.000017	0.000031	0.000017	-15.855422	-85.832995	15.059694
18980	9.879228	-0.155573	0.707669	-0.014450	0.041546	0.092978	1.000000	0.000026	0.000024	0.000028	-15.868238	-85.833398	15.072780
18981	9.871852	-0.196534	0.718214	-0.026079	0.000751	0.087173	1.000000	0.000010	0.000031	0.000028	-15.879081	-85.833117	15.082929
18982	9.898902	-0.206588	0.699700	-0.005868	-0.009028	0.113057	1.000000	0.000025	0.000028	0.000017	-15.873606	-85.833559	15.079091
18983	9.881817	-0.189495	0.698574	-0.005711	0.007637	0.095598	1.000000	0.000009	0.000034	0.000016	-15.865927	-85.833268	15.070573
18984	9.867470	-0.205107	0.686537	0.005031	-0.008458	0.080758	1.000000	0.000023	0.000021	0.000021	-15.869515	-85.834277	15.075729
18985	9.898754	-0.207779	0.701431	-0.007718	-0.010180	0.113055	1.000000	0.000013	0.000034	0.000035	-15.889749	-85.833438	15.095617
18986	9.891737	-0.182995	0.679521	0.014049	0.014131	0.104031	1.000000	0.000016	0.000034	0.000005	-15.864273	-85.833466	15.069499
18987	9.884351	-0.223660	0.690109	0.002413	-0.026662	0.098213	1.000000	0.000015	0.000025	0.000021	-15.866792	-85.834109	15.071916
18988	9.891648	-0.183696	0.680633	0.012823	0.013363	0.104034	1.000000	0.000018	0.000028	0.000028	-15.878710	-85.834167	15.083730
18989	9.884253	-0.224542	0.691220	0.001185	-0.027428	0.098211	1.000000	0.000017	0.000031	0.000017	-15.872092	-85.834242	15.077213
18990	9.891557	-0.184466	0.681742	0.011584	0.012591	0.104036	1.000000	0.000023	0.000021	0.000021	-15.875600	-85.835301	15.083362
18991	9.877219	-0.200162	0.669577	0.022328	-0.003503	0.089198	1.000000	0.000005	0.000022	0.000025	-15.886209	-85.836147	15.092727
18992	9.881392	-0.193119	0.703568	-0.011242	0.004184	0.095596	1.000000	0.000020	0.000034	0.000024	-15.889122	-85.835654	15.096583
18993	9.881333	-0.193457	0.704311	-0.011857	0.003800	0.095595	1.000000	0.000011	0.000041	0.000012	-15.872299	-85.834795	15.079126
18994	9.897223	-0.185801	0.629973	0.063675	0.010624	0.106095	1.000000	0.000012	0.000037	0.000024	-15.873877	-85.833942	15.080756
18995	9.905600	-0.171278	0.697493	-0.002853	0.026379	0.118881	1.000000	0.000018	0.000028	0.000028	-15.885796	-85.834027	15.092921
18996	9.881159	-0.194669	0.706415	-0.013705	0.002649	0.095593	1.000000	0.000011	0.000041	0.000012	-15.869068	-85.833188	15.076423
18997	9.908216	-0.204643	0.688028	0.006477	-0.007156	0.121492	1.000000	0.000007	0.000028	0.000021	-15.870535	-85.833465	15.076851
18998	9.864036	-0.177964	0.705854	-0.014133	0.018940	0.078144	1.000000	0.000015	0.000025	0.000021	-15.872930	-85.834088	15.079017
18999	9.881009	-0.195727	0.708210	-0.015547	0.001498	0.095591	1.000000	0.000009	0.000034	0.000016	-15.865260	-85.833797	15.070511
19000	9.866654	-0.211366	0.696291	-0.004795	-0.014592	0.080751	1.000000	0.000020	0.000034	0.000024	-15.868045	-85.833291	15.073457
19001	9.870800	-0.204300	0.730405	-0.038366	-0.006899	0.087131	1.000000	0.000020	0.000034	0.000024	-15.870833	-85.832808	15.076696
19002	9.876639	-0.204515	0.676780	0.015565	-0.007726	0.089209	1.000000	0.000028	0.000031	0.000024	-15.874764	-85.832709	15.082776
19003	9.912099	-0.199603	0.725273	-0.030178	-0.001388	0.127868	1.000000	0.000012	0.000037	0.000024	-15.876487	-85.831860	15.084011
19004	9.890826	-0.190086	0.690740	0.002968	0.007213	0.104048	1.000000	0.000017	0.000031	0.000017	-15.869939	-85.831943	15.077959
19005	9.886582	-0.198024	0.657890	0.035310	-0.001250	0.097675	1.000000	0.000018	0.000028	0.000028	-15.881867	-85.832029	15.090134
19006	9.897645	-0.216057	0.714468	-0.020660	-0.018248	0.113025	1.000000	0.000004	0.000025	0.000013	-15.873701	-85.832833	15.080166
19007	9.866286	-0.214292	0.700608	-0.009097	-0.017273	0.080744	1.000000	0.000018	0.000028	0.000028	-15.885635	-85.832918	15.092347
19008	9.887443	-0.224559	0.736381	-0.043493	-0.026640	0.104551	1.000000	0.000044	0.000027	0.000014	-15.873328	-85.833575	15.084583
19009	9.890584	-0.192028	0.693669	-0.000113	0.005291	0.104050	1.000000	0.000017	0.000047	0.000027	-15.875309	-85.831600	15.086629
19010	9.886340	-0.199934	0.660946	0.032237	-0.003176	0.097685	1.000000	0.000004	0.000025	0.000013	-15.867227	-85.832398	15.076545
19011	9.887767	-0.160017	0.705753	-0.011886	0.037296	0.101449	1.000000	0.000017	0.000031	0.000017	-15.860638	-85.832473	15.070059
19012	9.876135	-0.208372	0.682922	0.009419	-0.011568	0.089213	1.000000	0.000018	0.000028	0.000028	-15.872387	-85.832542	15.082274
19013	9.900501	-0.185846	0.675217	0.019025	0.011373	0.112528	1.000000	0.000015	0.000025	0.000021	-15.874935	-85.833186	15.084722
19014	9.876045	-0.209116	0.684002	0.008183	-0.012334	0.089213	1.000000	0.000006	0.000031	0.000009	-15.858150	-85.833481	15.067804
19015	9.890286	-0.194352	0.697256	-0.003802	0.002987	0.104050	1.000000	0.000024	0.000034	0.000043	-15.888879	-85.832450	15.099476
19016	9.897128	-0.219854	0.720440	-0.026839	-0.022082	0.113002	1.000000	0.000009	0.000022	-0.000005	-15.854382	-85.834225	15.064939
19017	9.907212	-0.212379	0.700043	-0.005867	-0.014850	0.121484	1.000000	0.000016	0.000021	0.000032	-15.875471	-85.834878	15.086072
19018	9.890153	-0.195490	0.698830	-0.005657	0.001839	0.104049	1.000000	0.000012	0.000037	0.000024	-15.877378	-85.834043	15.088163
19019	9.885928	-0.203331	0.666044	0.026687	-0.006634	0.097700	1.000000	0.000014	0.000028	0.000010	-15.861398	-85.834678	15.071940
19020	9.868876	-0.186215	0.664859	0.026921	0.010053	0.080270	1.000000	0.000020	0.000034	0.000024	-15.863869	-85.834108	15.073083
19021	9.889997	-0.196488	0.700748	-0.007489	0.000687	0.104048	1.000000	0.000017	0.000031	0.000017	-15.857288	-85.834183	15.066607
19022	9.917075	-0.206571	0.682376	0.012643	-0.009159	0.129970	1.000000	0.000020	0.000034	0.000024	-15.860265	-85.833714	15.070607
19023	9.862765	-0.187510	0.720972	-0.029471	0.009386	0.078124	1.000000	0.000012	0.000022	0.000014	-15.853423	-85.834916	15.063318
19024	9.899980	-0.189737	0.681746	0.012259	0.007145	0.112542	1.000000	0.000011	0.000041	0.000012	-15.836366	-85.833994	15.044511
19025	9.872791	-0.180477	0.701440	-0.009101	0.016229	0.086618	1.000000	0.000029	0.000027	0.000036	-15.858803	-85.833888	15.068482
19026	9.899882	-0.190760	0.682884	0.011030	0.006377	0.112544	1.000000	0.000013	0.000018	0.000025	-15.870551	-85.835083	15.079906
19027	9.899844	-0.191196	0.683314	0.010414	0.005992	0.112545	1.000000	0.000015	0.000025	0.000021	-15.873116	-85.835727	15.082372
19028	9.903957	-0.184120	0.717273	-0.023158	0.013706	0.118880	1.000000	0.000018	0.000028	0.000028	-15.885009	-85.835784	15.094149
19029	9.882750	-0.174719	0.682636	0.010036	0.022302	0.095121	1.000000	0.000020	0.000034	0.000024	-15.887835	-85.835302	15.097428
19030	9.892246	-0.232957	0.695232	-0.002489	-0.035546	0.106631	1.000000	0.000022	0.000040	0.000020	-15.881421	-85.834244	15.091743
19031	9.899636	-0.192982	0.685815	0.007956	0.004453	0.112548	1.000000	0.000005	0.000022	0.000025	-15.892049	-85.835089	15.101129
19032	9.889461	-0.201212	0.706945	-0.014230	-0.003532	0.104040	1.000000	0.000019	0.000009	0.000029	-15.913648	-85.837149	15.121380
19033	9.885277	-0.209117	0.673877	0.018115	-0.012019	0.097714	1.000000	0.000014	0.000028	0.000010	-15.897671	-85.837785	15.105162
19034	9.899519	-0.194178	0.687171	0.006121	0.003296	0.112550	1.000000	0.000004	0.000041	0.000023	-15.898226	-85.836577	15.104658
19035	9.903607	-0.187131	0.721321	-0.027456	0.011017	0.118872	1.000000	0.000010	0.000031	0.000028	-15.909117	-85.836295	15.114861
19036	9.885116	-0.210393	0.675828	0.016260	-0.013175	0.097716	1.000000	0.000015	0.000025	0.000021	-15.911705	-85.836979	15.118622
19037	9.889215	-0.203310	0.709788	-0.017317	-0.005453	0.104035	1.000000	0.000018	0.000028	0.000028	-15.923690	-85.837063	15.130857
19038	9.885029	-0.211249	0.676845	0.015026	-0.013945	0.097717	1.000000	0.000012	0.000022	0.000014	-15.916861	-85.838277	15.124057
19039	9.872135	-0.186458	0.709067	-0.017685	0.010864	0.086614	1.000000	0.000029	0.000040	0.000009	-15.893085	-85.837586	15.101736
19040	9.874766	-0.219554	0.699029	-0.007797	-0.022304	0.089196	1.000000	0.000013	0.000034	0.000035	-15.913673	-85.836797	15.123548
19041	9.913461	-0.181998	0.703987	-0.009591	0.016303	0.127387	1.000000	0.000016	0.000021	0.000032	-15.934815	-85.837448	15.144735
19042	9.871974	-0.187973	0.710913	-0.019527	0.009716	0.086611	1.000000	0.000009	0.000034	0.000016	-15.926881	-85.837095	15.134778
19043	9.874612	-0.220972	0.700755	-0.009633	-0.023454	0.089192	1.000000	0.000025	0.000027	0.000017	-15.921416	-85.837539	15.130359
19044	9.909190	-0.190605	0.672220	0.021535	0.007037	0.121081	1.000000	0.000012	0.000022	0.000014	-15.914589	-85.838728	15.123017
19045	9.867712	-0.196433	0.679048	0.011595	0.000456	0.080305	1.000000	0.000015	0.000025	0.000021	-15.917181	-85.839371	15.125512
19046	9.909111	-0.191323	0.673177	0.020306	0.006266	0.121084	1.000000	0.000015	0.000025	0.000021	-15.919651	-85.839993	15.127549
19047	9.881926	-0.181898	0.692617	-0.001012	0.015387	0.095140	1.000000	0.000012	0.000022	0.000014	-15.912834	-85.841196	15.120287
19048	9.874409	-0.222606	0.703097	-0.012710	-0.025367	0.089184	1.000000	0.000023	0.000021	0.000021	-15.916800	-85.842230	15.125864
19049	9.884536	-0.215192	0.682770	0.008254	-0.018168	0.097718	1.000000	0.000014	0.000028	0.000010	-15.900817	-85.842866	15.109642
19050	9.913073	-0.185004	0.708654	-0.015126	0.012844	0.127385	1.000000	0.000012	0.000037	0.000024	-15.902563	-85.842002	15.110801
19051	9.881742	-0.183191	0.694901	-0.003474	0.013855	0.095141	1.000000	0.000009	0.000034	0.000016	-15.894903	-85.841713	15.102312
19052	9.908845	-0.193300	0.676521	0.016615	0.003955	0.121092	1.000000	0.000015	0.000025	0.000021	-15.897229	-85.842296	15.103447
19053	9.888454	-0.209072	0.718652	-0.027160	-0.011585	0.104007	1.000000	0.000015	0.000025	0.000021	-15.899829	-85.842940	15.105950
19054	9.881601	-0.184359	0.696597	-0.005308	0.012707	0.095142	1.000000	0.000012	0.000037	0.000024	-15.901922	-85.842090	15.107767
19055	9.908706	-0.194496	0.678219	0.014763	0.002804	0.121095	1.000000	0.000042	0.000021	0.000018	-15.898672	-85.843267	15.107440
19056	9.871323	-0.192796	0.718613	-0.028119	0.004364	0.086595	1.000000	0.000004	0.000041	0.000023	-15.899281	-85.842074	15.107265
19057	9.891629	-0.177739	0.677661	0.014422	0.019128	0.103692	1.000000	0.000014	0.000028	0.000010	-15.883303	-85.842710	15.091049
19058	9.881404	-0.185818	0.699002	-0.007766	0.011168	0.095142	1.000000	0.000008	0.000025	0.000032	-15.903005	-85.842975	15.109665
19059	9.895649	-0.171035	0.712176	-0.019768	0.026481	0.109975	1.000000	0.000017	0.000031	0.000017	-15.896451	-85.843052	15.103221
19060	9.898283	-0.204083	0.701943	-0.009881	-0.006697	0.112545	1.000000	0.000023	0.000021	0.000021	-15.899910	-85.843974	15.105951
19061	9.866976	-0.202227	0.687981	0.001792	-0.005678	0.080310	1.000000	0.000017	0.000031	0.000017	-15.893356	-85.844051	15.099507
19062	9.891407	-0.179610	0.680403	0.011366	0.017204	0.103699	1.000000	0.000017	0.000031	0.000017	-15.886895	-85.844129	15.093575
19063	9.898136	-0.205052	0.703738	-0.011731	-0.007848	0.112542	1.000000	0.000009	0.000034	0.000016	-15.879237	-85.843839	15.085089
19064	9.877020	-0.195520	0.668987	0.021531	0.000737	0.088870	1.000000	0.000023	0.000021	0.000021	-15.882667	-85.844816	15.088927
19065	9.891266	-0.180469	0.682227	0.009527	0.016048	0.103703	1.000000	0.000018	0.000041	0.000001	-15.848366	-85.844317	15.054801
