// Start Time: Unknown
// Update Rate: 100.0Hz
// Filter Profile: human (46.1)
// Firmware Version: 4.4.0
PacketCounter	Acc_X	Acc_Y	Acc_Z	FreeAcc_X	FreeAcc_Y	FreeAcc_Z	OriInc_q0	OriInc_q1	OriInc_q2	OriInc_q3	Roll	Pitch	Yaw
06389	9.606948	-0.019325	-2.163182	0.000000	-0.000000	0.034809	1.000000	-0.000006	0.000027	0.000020	-179.493008	-77.308383	-154.175426
06390	9.639753	-0.027869	-2.170337	-0.000000	-0.000000	0.068405	1.000000	-0.000014	0.000031	0.000037	-179.273059	-77.308995	-154.711248
06391	9.643905	-0.034224	-2.146593	-0.017323	-0.020622	0.067252	1.000000	-0.000010	0.000011	0.000018	-179.379627	-77.308360	-154.451612
06392	9.628349	-0.008382	-2.162473	-0.011551	0.011328	0.055505	1.000000	-0.000014	0.000025	0.000020	-179.370688	-77.311235	-154.462382
06393	9.574668	-0.013013	-2.153678	-0.006409	0.009093	0.001213	1.000000	-0.000006	0.000026	0.000028	-179.355145	-77.313701	-154.479094
06394	9.615540	-0.033280	-2.114368	-0.039900	-0.029318	0.032505	1.000000	-0.000017	0.000008	0.000026	-179.343802	-77.314553	-154.492680
06395	9.615628	-0.033683	-2.113962	-0.039889	-0.029313	0.032505	1.000000	-0.000008	0.000035	0.000021	-179.333627	-77.318567	-154.504065
06396	9.628748	-0.010099	-2.160692	-0.011648	0.011353	0.055504	1.000000	-0.000020	0.000022	0.000028	-179.321438	-77.321090	-154.518963
06397	9.628846	-0.010478	-2.160252	-0.011616	0.011366	0.055504	1.000000	-0.000021	0.000023	0.000020	-179.313369	-77.323935	-154.529718
06398	9.619382	-0.043395	-2.166401	0.010331	-0.014122	0.047707	1.000000	-0.000011	0.000017	0.000027	-179.300775	-77.325850	-154.543934
06399	9.615447	-0.037913	-2.189220	0.029017	0.001601	0.048859	1.000000	-0.000025	0.000038	0.000023	-179.291820	-77.330370	-154.556040
06400	9.612107	-0.029807	-2.134862	-0.021170	-0.013578	0.033657	1.000000	-0.000004	0.000019	0.000027	-179.278398	-77.332513	-154.570230
06401	9.640843	-0.032552	-2.165428	0.001324	-0.004838	0.068404	1.000000	-0.000014	0.000031	0.000037	-179.260650	-77.336169	-154.590083
06402	9.612296	-0.030772	-2.133997	-0.021144	-0.013555	0.033657	1.000000	-0.000018	0.000010	0.000010	-179.257384	-77.337260	-154.595545
06403	9.612385	-0.031175	-2.133591	-0.021101	-0.013517	0.033657	1.000000	-0.000007	0.000033	0.000037	-179.238616	-77.341273	-154.615560
06404	9.625514	-0.007729	-2.180399	0.007139	0.027149	0.056656	1.000000	-0.000019	0.000015	0.000027	-179.226811	-77.342955	-154.629840
06405	9.591429	-0.044504	-2.132261	-0.011979	-0.022742	0.012961	1.000000	-0.000010	0.000016	0.000035	-179.210213	-77.345096	-154.648085
06406	9.625691	-0.008763	-2.179612	0.007196	0.027173	0.056655	1.000000	-0.000008	0.000035	0.000021	-179.199956	-77.349030	-154.659551
06407	9.624316	-0.053344	-2.139003	-0.008104	-0.029716	0.046557	1.000000	-0.000003	0.000014	0.000010	-179.195297	-77.350936	-154.664707
06408	9.612826	-0.033393	-2.131570	-0.020985	-0.013476	0.033657	1.000000	-0.000004	0.000019	0.000027	-179.181836	-77.353074	-154.678935
06409	9.612912	-0.033872	-2.131173	-0.020889	-0.013408	0.033658	1.000000	-0.000020	0.000022	0.000028	-179.169026	-77.356268	-154.694417
06410	9.662780	-0.024305	-2.162306	-0.007485	0.004558	0.089100	1.000000	-0.000006	0.000026	0.000028	-179.155125	-77.359241	-154.709317
06411	9.609109	-0.028876	-2.153454	-0.002111	0.002379	0.034808	1.000000	-0.000032	0.000036	0.000023	-179.146411	-77.364163	-154.721994
06412	9.634401	-0.022951	-2.130075	-0.029830	-0.004082	0.054354	1.000000	-0.000006	0.000026	0.000028	-179.132496	-77.367133	-154.736907
06413	9.609363	-0.029700	-2.152310	-0.001925	0.002471	0.034808	1.000000	-0.000023	0.000031	0.000022	-179.123740	-77.371819	-154.748700
06414	9.613499	-0.036004	-2.128488	-0.020578	-0.013238	0.033659	1.000000	-0.000004	0.000019	0.000027	-179.110245	-77.373957	-154.762967
06415	9.630662	-0.018304	-2.152089	-0.010803	0.011829	0.055505	1.000000	-0.000002	0.000013	0.000018	-179.100713	-77.376622	-154.773137
06416	9.630743	-0.018638	-2.151724	-0.010803	0.011830	0.055505	1.000000	-0.000014	0.000025	0.000020	-179.091638	-77.379488	-154.784052
06417	9.592639	-0.049318	-2.126704	-0.011131	-0.022338	0.012963	1.000000	-0.000016	0.000033	0.000022	-179.083436	-77.384318	-154.794236
06418	9.642535	-0.039638	-2.157759	0.002276	-0.004370	0.068404	1.000000	0.000003	0.000022	0.000019	-179.073147	-77.386802	-154.804420
06419	9.631096	-0.019691	-2.150134	-0.010376	0.011971	0.055505	1.000000	-0.000023	0.000031	0.000022	-179.064615	-77.391737	-154.815977
06420	9.642766	-0.040313	-2.156714	0.002507	-0.004267	0.068404	1.000000	-0.000014	0.000025	0.000020	-179.055524	-77.394604	-154.826909
06421	9.631339	-0.020357	-2.149038	-0.010154	0.012068	0.055505	1.000000	-0.000016	0.000033	0.000022	-179.046174	-77.399704	-154.838542
06422	9.606311	-0.027091	-2.171287	0.017563	0.018529	0.035956	1.000000	-0.000013	0.000024	0.000028	-179.032991	-77.402449	-154.853596
06423	9.627510	-0.015330	-2.171529	0.008714	0.027743	0.056653	1.000000	-0.000017	0.000008	0.000026	-179.024875	-77.404324	-154.863564
06424	9.610467	-0.033827	-2.147316	-0.000875	0.002784	0.034808	1.000000	-0.000014	0.000025	0.000020	-179.015795	-77.407194	-154.874477
06425	9.606574	-0.028264	-2.170107	0.017956	0.018430	0.035955	1.000000	-0.000016	0.000033	0.000022	-179.009831	-77.411674	-154.882314
06426	9.599159	-0.014269	-2.139115	-0.013577	0.018960	0.021911	1.000000	-0.000020	0.000022	0.000028	-178.997524	-77.414192	-154.897324
06427	9.624426	-0.008378	-2.115765	-0.041267	0.012439	0.041461	1.000000	-0.000008	0.000035	0.000021	-178.988833	-77.418084	-154.907583
06428	9.614949	-0.041237	-2.121834	-0.019323	-0.013049	0.033661	1.000000	-0.000012	0.000018	0.000019	-178.980154	-77.420106	-154.917864
06429	9.632142	-0.023501	-2.145406	-0.009599	0.011675	0.055506	1.000000	-0.000019	0.000015	0.000027	-178.975430	-77.421864	-154.923624
06430	9.632216	-0.023897	-2.145069	-0.009604	0.011671	0.055506	1.000000	-0.000004	0.000020	0.000019	-178.965963	-77.424084	-154.933795
06431	9.632292	-0.024384	-2.144722	-0.009069	0.011575	0.055507	1.000000	-0.000010	0.000016	0.000035	-178.957553	-77.428467	-154.944196
06432	9.611257	-0.036987	-2.143726	-0.000006	0.002324	0.034809	1.000000	-0.000024	0.000032	0.000014	-178.952981	-77.432065	-154.951631
06433	9.599845	-0.017094	-2.136010	-0.012465	0.018344	0.021913	1.000000	-0.000014	0.000031	0.000037	-178.945499	-77.437229	-154.960473
06434	9.621117	-0.005388	-2.135937	-0.021517	0.027586	0.042612	1.000000	-0.000016	0.000033	0.000022	-178.936122	-77.440951	-154.971861
06435	9.628752	-0.020197	-2.165976	0.010098	0.026881	0.056654	1.000000	-0.000002	0.000012	0.000026	-178.928000	-77.442183	-154.980858
06436	9.611672	-0.038868	-2.141829	0.000507	0.001920	0.034809	1.000000	-0.000010	0.000016	0.000035	-178.911276	-77.443950	-154.999179
06437	9.611774	-0.039353	-2.141362	0.001161	0.001612	0.034809	1.000000	-0.000016	0.000033	0.000022	-178.916692	-77.450376	-154.995073
06438	9.625040	-0.015742	-2.188040	0.029419	0.042272	0.057799	1.000000	-0.000013	0.000024	0.000028	-178.903742	-77.453150	-155.009811
06439	9.608016	-0.034348	-2.163626	0.020146	0.017086	0.035954	1.000000	-0.000015	0.000032	0.000029	-178.899254	-77.457859	-155.016909
06440	9.644833	-0.048731	-2.147277	0.005337	-0.005625	0.068402	1.000000	-0.000009	0.000036	0.000014	-178.893196	-77.461971	-155.024098
06441	9.629394	-0.022837	-2.163090	0.010982	0.026056	0.056655	1.000000	-0.000017	0.000008	0.000026	-178.886795	-77.461471	-155.032845
06442	9.629426	-0.023226	-2.162945	0.010991	0.026050	0.056655	1.000000	0.000007	0.000007	0.000017	-178.877575	-77.462314	-155.041434
06443	9.625949	-0.015073	-2.108786	-0.038838	0.010613	0.041473	1.000000	-0.000030	0.000029	0.000022	-178.880052	-77.466870	-155.043568
06444	9.608482	-0.036194	-2.161526	0.020430	0.016542	0.035954	1.000000	-0.000022	0.000029	0.000037	-178.863379	-77.470152	-155.063161
06445	9.624116	-0.062972	-2.144789	0.014296	-0.015902	0.047700	1.000000	-0.000013	0.000024	0.000028	-178.857861	-77.469665	-155.068839
06446	9.618311	-0.004657	-2.153942	-0.001878	0.041527	0.043766	1.000000	-0.000014	0.000025	0.000020	-178.848941	-77.472534	-155.079509
06447	9.601252	-0.023163	-2.129619	-0.011649	0.016104	0.021918	1.000000	-0.000020	0.000022	0.000028	-178.845913	-77.472911	-155.083756
06448	9.634040	-0.031704	-2.136758	-0.007819	0.009094	0.055510	1.000000	0.000001	0.000029	0.000020	-178.835328	-77.476202	-155.094350
06449	9.634162	-0.032007	-2.136203	-0.007591	0.008653	0.055511	1.000000	-0.000007	0.000028	0.000012	-178.842773	-77.479544	-155.086489
06450	9.630303	-0.026333	-2.159004	0.011064	0.024352	0.056659	1.000000	-0.000030	0.000029	0.000022	-178.835127	-77.482763	-155.097770
06451	9.614910	-0.000502	-2.174705	0.016788	0.055730	0.044921	1.000000	-0.000006	0.000026	0.000028	-178.834694	-77.484089	-155.096395
06452	9.618984	-0.006843	-2.150931	-0.001862	0.040000	0.043772	1.000000	-0.000012	0.000018	0.000019	-178.826391	-77.486071	-155.106108
06453	9.624984	-0.065920	-2.140803	0.014133	-0.018125	0.047696	1.000000	-0.000008	0.000035	0.000021	-178.830546	-77.487239	-155.099965
06454	9.619192	-0.007608	-2.149999	-0.002062	0.039288	0.043775	1.000000	-0.000009	0.000010	0.000026	-178.818663	-77.488215	-155.112994
06455	9.651954	-0.016159	-2.157247	0.001423	0.031737	0.077368	1.000000	0.000001	0.000029	0.000020	-178.817146	-77.488342	-155.113451
06456	9.617317	-0.055242	-2.186214	0.051073	0.012713	0.050000	1.000000	-0.000029	0.000021	0.000021	-178.810070	-77.490616	-155.123792
06457	9.619472	-0.008845	-2.148739	-0.002025	0.037960	0.043780	1.000000	0.000004	0.000020	0.000035	-178.814666	-77.493092	-155.113826
06458	9.623545	-0.015260	-2.124922	-0.020676	0.022212	0.042628	1.000000	-0.000030	0.000029	0.000022	-178.807388	-77.496226	-155.124527
06459	9.631200	-0.030021	-2.154949	0.011357	0.021270	0.056666	1.000000	-0.000011	0.000017	0.000027	-178.810360	-77.499746	-155.123120
06460	9.615796	-0.004257	-2.170782	0.017117	0.053197	0.044935	1.000000	-0.000013	0.000024	0.000028	-178.797888	-77.502424	-155.137102
06461	9.614177	-0.049019	-2.130347	0.001249	-0.004599	0.034808	1.000000	-0.000002	0.000013	0.000018	-178.804476	-77.498797	-155.125561
06462	9.606336	-0.037557	-2.176638	0.038535	0.026800	0.037118	1.000000	-0.000022	0.000030	0.000029	-178.792395	-77.502010	-155.140171
06463	9.631610	-0.031836	-2.153089	0.010249	0.019718	0.056670	1.000000	-0.000002	0.000043	0.000030	-178.784298	-77.502311	-155.147077
06464	9.589434	-0.056608	-2.151482	0.028363	0.001225	0.015259	1.000000	-0.000029	0.000021	0.000021	-178.777498	-77.504535	-155.156996
06465	9.624241	-0.018384	-2.121745	-0.021834	0.019464	0.042631	1.000000	-0.000015	0.000006	0.000042	-178.769734	-77.500456	-155.161893
06466	9.595193	-0.019227	-2.167823	0.024494	0.041639	0.024244	1.000000	0.000007	0.000007	0.000017	-178.760971	-77.501031	-155.169622
06467	9.631930	-0.033661	-2.151630	0.009104	0.018284	0.056674	1.000000	-0.000017	0.000040	0.000023	-178.759308	-77.500958	-155.172268
06468	9.602995	-0.034289	-2.197229	0.055423	0.040460	0.038292	1.000000	-0.000021	0.000023	0.000020	-178.751599	-77.503298	-155.182173
06469	9.632143	-0.034442	-2.150663	0.008281	0.017786	0.056676	1.000000	-0.000018	0.000014	0.000035	-178.737458	-77.499501	-155.199950
06470	9.620688	-0.014568	-2.143256	-0.004657	0.033988	0.043794	1.000000	-0.000019	0.000016	0.000019	-178.730031	-77.500949	-155.209357
06471	9.628305	-0.029224	-2.173486	0.026017	0.032518	0.057846	1.000000	-0.000017	0.000009	0.000018	-178.736118	-77.494976	-155.198494
06472	9.603612	-0.033328	-2.118817	-0.015144	0.008046	0.021923	1.000000	-0.000022	0.000030	0.000029	-178.723695	-77.497870	-155.213294
06473	9.624882	-0.021587	-2.118806	-0.024712	0.016724	0.042629	1.000000	0.000003	0.000022	0.000019	-178.720806	-77.496375	-155.215161
06474	9.644071	-0.056611	-2.155904	0.019651	-0.000089	0.069562	1.000000	-0.000030	0.000029	0.000022	-178.713249	-77.499137	-155.225919
06475	9.611486	-0.048913	-2.147875	0.015439	0.006235	0.035975	1.000000	-0.000011	0.000016	0.000035	-178.709095	-77.497066	-155.226312
06476	9.621222	-0.016912	-2.140840	-0.006603	0.031639	0.043801	1.000000	-0.000014	0.000025	0.000020	-178.700370	-77.499416	-155.236256
06477	9.600150	-0.029399	-2.139945	0.003338	0.021852	0.023095	1.000000	-0.000012	0.000018	0.000019	-178.715669	-77.504707	-155.216911
06478	9.628956	-0.031913	-2.170564	0.025745	0.030494	0.057853	1.000000	-0.000019	0.000016	0.000019	-178.708538	-77.506082	-155.225853
06479	9.617530	-0.011981	-2.163057	0.012170	0.046072	0.044978	1.000000	-0.000013	0.000024	0.000028	-178.703771	-77.503563	-155.230162
06480	9.611905	-0.050716	-2.145957	0.015450	0.004831	0.035976	1.000000	-0.000020	0.000017	0.000011	-178.700715	-77.505011	-155.234964
06481	9.617702	-0.012547	-2.162286	0.011625	0.045343	0.044982	1.000000	0.000003	0.000022	0.000019	-178.701234	-77.503272	-155.230296
06482	9.596631	-0.025121	-2.161387	0.020638	0.036071	0.024274	1.000000	-0.000020	0.000022	0.000028	-178.689524	-77.505255	-155.243995
06483	9.612198	-0.051714	-2.144622	0.013970	0.002970	0.035979	1.000000	-0.000016	0.000034	0.000014	-178.701134	-77.501286	-155.223551
06484	9.610468	0.000741	-2.130298	-0.020997	0.044582	0.030932	1.000000	-0.000013	0.000024	0.000028	-178.688697	-77.503399	-155.237001
06485	9.633577	-0.040301	-2.144129	0.003653	0.011297	0.056688	1.000000	-0.000012	0.000018	0.000019	-178.686447	-77.497292	-155.235495
06486	9.575882	-0.038721	-2.159036	0.027458	0.024795	0.003579	1.000000	-0.000020	0.000022	0.000028	-178.674752	-77.499081	-155.249011
06487	9.633755	-0.041144	-2.143313	0.003103	0.010551	0.056689	1.000000	-0.000020	0.000022	0.000028	-178.673488	-77.497526	-155.248640
06488	9.651104	-0.023464	-2.166629	0.012539	0.035406	0.078583	1.000000	0.000001	0.000029	0.000020	-178.663393	-77.500100	-155.257934
06489	9.597380	-0.027783	-2.158025	0.017646	0.032174	0.024294	1.000000	-0.000030	0.000029	0.000022	-178.680209	-77.499802	-155.231615
06490	9.622578	-0.021891	-2.134692	-0.010170	0.025533	0.043815	1.000000	-0.000012	0.000018	0.000019	-178.672528	-77.501059	-155.239852
06491	9.655365	-0.030321	-2.141776	-0.006764	0.017685	0.077401	1.000000	-0.000016	0.000034	0.000014	-178.681932	-77.500764	-155.225051
06492	9.618873	-0.016446	-2.157048	0.007938	0.040382	0.045007	1.000000	-0.000012	0.000018	0.000019	-178.674333	-77.501990	-155.233150
06493	9.609295	-0.049317	-2.163304	0.028941	0.014225	0.037177	1.000000	-0.000013	0.000024	0.000028	-178.667520	-77.497571	-155.236578
06494	9.651747	-0.025434	-2.163740	0.010627	0.032501	0.078595	1.000000	-0.000014	0.000025	0.000020	-178.659362	-77.499558	-155.245439
06495	9.598021	-0.029833	-2.155143	0.015742	0.029948	0.024304	1.000000	-0.000007	0.000034	0.000029	-178.652936	-77.501414	-155.251789
06496	9.613529	-0.056503	-2.138528	0.009917	-0.002135	0.035984	1.000000	-0.000025	0.000007	0.000018	-178.647378	-77.501283	-155.259309
06497	9.644445	-0.012273	-2.131996	-0.022022	0.031829	0.064528	1.000000	-0.000006	0.000026	0.000028	-178.639485	-77.498246	-155.263031
06498	9.605851	-0.045526	-2.184502	0.046197	0.028627	0.038381	1.000000	-0.000011	0.000016	0.000035	-178.623514	-77.499086	-155.279517
06499	9.656123	-0.033650	-2.138309	-0.009033	0.014604	0.077404	1.000000	-0.000014	0.000025	0.000020	-178.638428	-77.500892	-155.256042
06500	9.612050	-0.005550	-2.123142	-0.025875	0.037789	0.030949	1.000000	-0.000013	0.000024	0.000028	-178.626333	-77.502713	-155.268778
06501	9.619749	-0.020296	-2.153102	0.006504	0.036970	0.045022	1.000000	-0.000030	0.000029	0.000022	-178.636295	-77.509727	-155.259092
06502	9.623773	-0.026648	-2.129244	-0.012211	0.021109	0.043823	1.000000	-0.000013	0.000024	0.000028	-178.624347	-77.511634	-155.271700
06503	9.598791	-0.033317	-2.151662	0.016155	0.027261	0.024311	1.000000	-0.000006	0.000026	0.000028	-178.628091	-77.517044	-155.268627
06504	9.627615	-0.036004	-2.182318	0.038488	0.035852	0.059092	1.000000	-0.000015	0.000000	0.000025	-178.618575	-77.516281	-155.278954
06505	9.608591	-0.001629	-2.144453	-0.006586	0.051818	0.032158	1.000000	-0.000007	0.000028	0.000012	-178.623821	-77.514320	-155.269028
06506	9.612606	-0.007931	-2.120618	-0.025294	0.035949	0.030957	1.000000	-0.000021	0.000022	0.000028	-178.612888	-77.516018	-155.281426
06507	9.620311	-0.022598	-2.150569	0.005794	0.034055	0.045033	1.000000	-0.000024	0.000032	0.000014	-178.638234	-77.513841	-155.240938
06508	9.620437	-0.022861	-2.150003	0.005692	0.033931	0.045033	1.000000	-0.000006	0.000027	0.000020	-178.630016	-77.516073	-155.248736
06509	9.641716	-0.011070	-2.150004	-0.003686	0.042427	0.065749	1.000000	-0.000012	0.000018	0.000019	-178.634639	-77.515028	-155.245601
06510	9.632097	-0.043909	-2.156371	0.018243	0.016901	0.057902	1.000000	-0.000019	0.000015	0.000027	-178.624546	-77.515821	-155.256737
06511	9.587987	-0.015897	-2.141416	0.001338	0.039148	0.011461	1.000000	-0.000018	0.000014	0.000035	-178.632628	-77.513901	-155.236182
06512	9.624668	-0.030482	-2.125146	-0.013550	0.016171	0.043831	1.000000	-0.000009	0.000036	0.000014	-178.628287	-77.517066	-155.240189
06513	9.620924	-0.024823	-2.147800	0.005867	0.030855	0.045043	1.000000	-0.000001	0.000037	0.000021	-178.653151	-77.522954	-155.202945
06514	9.613229	-0.013287	-2.194071	0.042963	0.062260	0.047463	1.000000	-0.000017	0.000008	0.000026	-178.644124	-77.522940	-155.212593
06515	9.621106	-0.025550	-2.146977	0.004517	0.029943	0.045047	1.000000	-0.000016	0.000034	0.000014	-178.642911	-77.518176	-155.210527
06516	9.609734	-0.005544	-2.139319	-0.008521	0.046025	0.032185	1.000000	-0.000021	0.000022	0.000028	-178.632813	-77.519751	-155.221685
06517	9.617431	-0.020442	-2.169349	0.022655	0.044797	0.046265	1.000000	-0.000012	0.000023	0.000036	-178.630587	-77.518609	-155.217655
06518	9.621413	-0.026914	-2.145584	0.003959	0.028866	0.045050	1.000000	-0.000004	0.000020	0.000019	-178.623433	-77.519918	-155.223872
06519	9.600312	-0.039345	-2.144764	0.011763	0.018269	0.024338	1.000000	-0.000029	0.000021	0.000020	-178.636692	-77.511718	-155.195795
06520	9.617699	-0.021629	-2.168149	0.021096	0.043037	0.046277	1.000000	-0.000004	0.000019	0.000027	-178.625548	-77.512789	-155.205898
06521	9.617756	-0.022093	-2.167892	0.020373	0.042079	0.046282	1.000000	-0.000017	0.000008	0.000026	-178.629441	-77.507442	-155.193115
06522	9.596620	-0.034582	-2.167225	0.029376	0.032777	0.025566	1.000000	-0.000012	0.000018	0.000019	-178.623286	-77.508372	-155.199002
06523	9.610284	-0.008509	-2.136839	-0.011865	0.041756	0.032201	1.000000	-0.000011	0.000017	0.000027	-178.618106	-77.505670	-155.206818
06524	9.637227	-0.055653	-2.127316	-0.004695	-0.006651	0.056692	1.000000	-0.000006	0.000026	0.000028	-178.606498	-77.507499	-155.217550
06525	9.639294	-0.011744	-2.166752	0.010569	0.049762	0.067007	1.000000	-0.000015	0.000032	0.000029	-178.607700	-77.510746	-155.215557
06526	9.629686	-0.044754	-2.172998	0.032515	0.024237	0.059148	1.000000	-0.000011	0.000016	0.000035	-178.593385	-77.511402	-155.229638
06527	9.622148	-0.030938	-2.142230	0.000772	0.024273	0.045063	1.000000	-0.000019	0.000015	0.000027	-178.588415	-77.510914	-155.235587
06528	9.618374	-0.025435	-2.165112	0.019219	0.039901	0.046294	1.000000	-0.000007	0.000034	0.000029	-178.576342	-77.513603	-155.247033
06529	9.601173	-0.043988	-2.140816	0.009011	0.014146	0.024348	1.000000	0.000003	0.000022	0.000019	-178.577580	-77.509948	-155.237438
06530	9.618583	-0.026460	-2.164170	0.018311	0.038901	0.046299	1.000000	-0.000019	0.000020	0.000044	-178.559489	-77.511036	-155.256391
06531	9.618682	-0.027097	-2.163721	0.018622	0.038160	0.046302	1.000000	-0.000006	0.000026	0.000028	-178.567123	-77.513851	-155.243983
06532	9.618790	-0.027598	-2.163235	0.018492	0.037988	0.046303	1.000000	-0.000013	0.000024	0.000028	-178.556539	-77.515458	-155.254486
06533	9.611293	-0.013674	-2.132269	-0.013827	0.037657	0.032215	1.000000	-0.000006	0.000027	0.000020	-178.555774	-77.512431	-155.252508
06534	9.626742	-0.040413	-2.115563	-0.019585	0.005456	0.043833	1.000000	-0.000021	0.000022	0.000028	-178.546020	-77.513768	-155.263006
06535	9.619101	-0.028846	-2.161836	0.017041	0.035958	0.046313	1.000000	0.000003	0.000022	0.000019	-178.556959	-77.510828	-155.243354
06536	9.632783	-0.002723	-2.131354	-0.023761	0.045307	0.052939	1.000000	-0.000029	0.000021	0.000020	-178.552292	-77.512035	-155.249509
06537	9.605808	-0.053737	-2.113922	-0.011690	-0.005855	0.023111	1.000000	0.000004	0.000020	0.000035	-178.548884	-77.508788	-155.246937
06538	9.640563	-0.018051	-2.161059	0.006996	0.043799	0.067039	1.000000	-0.000012	0.000018	0.000019	-178.543068	-77.509577	-155.252249
06539	9.611823	-0.016275	-2.129862	-0.016388	0.034389	0.032223	1.000000	-0.000011	0.000016	0.000035	-178.531901	-77.504167	-155.261130
06540	9.640741	-0.019100	-2.160253	0.005819	0.042898	0.067043	1.000000	-0.000007	0.000034	0.000029	-178.520114	-77.506662	-155.272026
06541	9.594584	-0.037797	-2.182319	0.042329	0.040152	0.026855	1.000000	-0.000011	0.000017	0.000027	-178.511270	-77.505819	-155.286866
06542	9.623593	-0.038096	-2.135611	-0.004104	0.017457	0.045077	1.000000	-0.000014	0.000025	0.000020	-178.504834	-77.507383	-155.293031
06543	9.612250	-0.018109	-2.127916	-0.018705	0.032740	0.032224	1.000000	-0.000008	0.000035	0.000021	-178.498497	-77.500219	-155.291652
06544	9.641189	-0.020684	-2.158241	0.003475	0.041245	0.067051	1.000000	-0.000029	0.000021	0.000020	-178.493670	-77.501235	-155.297869
06545	9.620044	-0.033088	-2.157572	0.011805	0.031250	0.046336	1.000000	0.000007	0.000007	0.000017	-178.496721	-77.495473	-155.281714
06546	9.602748	-0.051734	-2.133565	0.002234	0.006138	0.024360	1.000000	-0.000019	0.000020	0.000044	-178.478794	-77.496264	-155.300211
06547	9.616384	-0.028218	-2.180057	0.029490	0.045983	0.047602	1.000000	-0.000010	0.000042	0.000023	-178.481809	-77.495169	-155.293853
06548	9.641597	-0.022652	-2.156398	0.001586	0.039061	0.067061	1.000000	-0.000014	0.000031	0.000037	-178.466687	-77.497116	-155.308846
06549	9.606992	-0.059324	-2.108386	-0.017404	-0.011600	0.023098	1.000000	-0.000014	0.000025	0.000020	-178.475172	-77.496770	-155.291363
06550	9.587939	-0.027381	-2.147492	0.006551	0.036061	0.012775	1.000000	-0.000013	0.000024	0.000028	-178.464711	-77.498010	-155.301400
06551	9.634307	-0.009622	-2.124435	-0.031064	0.037735	0.052950	1.000000	-0.000014	0.000025	0.000020	-178.464031	-77.495280	-155.307794
06552	9.620812	-0.036466	-2.154094	0.009422	0.028042	0.046349	1.000000	-0.000004	0.000019	0.000027	-178.453205	-77.495875	-155.317082
06553	9.620904	-0.036791	-2.153678	0.008505	0.027462	0.046351	1.000000	-0.000022	0.000024	0.000013	-178.452695	-77.492344	-155.315277
06554	9.630752	-0.004663	-2.146491	-0.013825	0.052562	0.054220	1.000000	-0.000021	0.000022	0.000028	-178.443006	-77.493280	-155.325364
06555	9.621085	-0.037554	-2.152853	0.009930	0.026510	0.046352	1.000000	-0.000011	0.000017	0.000027	-178.466957	-77.502018	-155.290493
06556	9.627103	0.000397	-2.168994	0.006155	0.067429	0.055497	1.000000	-0.000015	0.000032	0.000029	-178.456232	-77.504103	-155.300955
06557	9.613673	-0.024124	-2.121420	-0.022802	0.025597	0.032237	1.000000	-0.000004	0.000020	0.000019	-178.461434	-77.498102	-155.294085
06558	9.621406	-0.038887	-2.151393	0.008515	0.024996	0.046358	1.000000	-0.000015	0.000032	0.000029	-178.450769	-77.500125	-155.304417
06559	9.617719	-0.033331	-2.174088	0.026344	0.040035	0.047637	1.000000	-0.000001	0.000037	0.000021	-178.450808	-77.498545	-155.298806
06560	9.614046	-0.025342	-2.119713	-0.023891	0.024361	0.032237	1.000000	-0.000029	0.000021	0.000020	-178.446435	-77.499384	-155.304265
06561	9.625599	-0.046238	-2.126392	-0.011341	0.007239	0.045084	1.000000	-0.000004	0.000024	0.000044	-178.441529	-77.497637	-155.295447
06562	9.610428	-0.020239	-2.142100	-0.005971	0.039067	0.033519	1.000000	-0.000008	0.000030	-0.000003	-178.446943	-77.499544	-155.288436
06563	9.629602	-0.055199	-2.179293	0.038206	0.021427	0.060493	1.000000	-0.000001	0.000011	0.000034	-178.452502	-77.496533	-155.266636
06564	9.610607	-0.021004	-2.141291	-0.006467	0.037771	0.033524	1.000000	-0.000016	0.000033	0.000021	-178.446141	-77.498620	-155.272501
06565	9.643386	-0.029692	-2.148297	-0.004297	0.030092	0.067091	1.000000	-0.000011	0.000017	0.000027	-178.428009	-77.490598	-155.293302
06566	9.610804	-0.021737	-2.140399	-0.008287	0.037009	0.033525	1.000000	-0.000014	0.000026	0.000013	-178.426056	-77.491917	-155.294504
06567	9.601149	-0.054582	-2.146657	0.013836	0.010854	0.025649	1.000000	-0.000005	0.000025	0.000036	-178.429026	-77.492338	-155.280623
06568	9.618615	-0.036951	-2.170064	0.022956	0.035533	0.047662	1.000000	-0.000025	0.000007	0.000018	-178.425787	-77.491398	-155.284339
06569	9.607232	-0.016977	-2.162629	0.010505	0.051003	0.034822	1.000000	-0.000006	0.000026	0.000028	-178.435920	-77.495425	-155.255507
06570	9.643803	-0.031782	-2.146391	-0.004427	0.027758	0.067098	1.000000	-0.000002	0.000012	0.000026	-178.426181	-77.495058	-155.263162
06571	9.611207	-0.023981	-2.138568	-0.008899	0.034252	0.033535	1.000000	-0.000013	0.000024	0.000028	-178.421126	-77.492490	-155.272440
06572	9.622775	-0.044826	-2.145148	0.003878	0.017809	0.046376	1.000000	-0.000015	0.000032	0.000029	-178.410758	-77.494371	-155.282254
06573	9.640291	-0.027245	-2.168369	0.013658	0.042535	0.068394	1.000000	-0.000004	0.000019	0.000027	-178.406784	-77.498518	-155.280872
06574	9.607691	-0.019422	-2.160569	0.009674	0.049456	0.034831	1.000000	-0.000019	0.000015	0.000027	-178.398247	-77.498545	-155.289284
06575	9.644276	-0.034131	-2.144231	-0.005813	0.025465	0.067104	1.000000	-0.000016	0.000033	0.000021	-178.403775	-77.495860	-155.273927
06576	9.611691	-0.026313	-2.136364	-0.009799	0.032384	0.033540	1.000000	-0.000009	0.000009	0.000034	-178.390839	-77.495105	-155.285631
06577	9.596501	-0.000465	-2.152299	-0.004547	0.063950	0.022002	1.000000	-0.000021	0.000022	0.000028	-178.387581	-77.494924	-155.292041
06578	9.644512	-0.035530	-2.143146	-0.006491	0.024481	0.067106	1.000000	-0.000012	0.000018	0.000019	-178.382326	-77.495274	-155.296242
06579	9.604314	-0.015566	-2.181993	0.026309	0.062336	0.036150	1.000000	-0.000021	0.000022	0.000028	-178.390747	-77.492954	-155.276586
06580	9.633229	-0.016085	-2.135290	-0.020117	0.039384	0.054271	1.000000	-0.000018	0.000014	0.000035	-178.378278	-77.492780	-155.288853
06581	9.612086	-0.028693	-2.134555	-0.011927	0.030006	0.033545	1.000000	-0.000006	0.000026	0.000028	-178.360807	-77.489409	-155.315346
06582	9.629624	-0.010960	-2.157746	-0.002848	0.054670	0.055577	1.000000	-0.000014	0.000026	0.000013	-178.359121	-77.490673	-155.316147
06583	9.623725	-0.049708	-2.140772	0.001420	0.013302	0.046384	1.000000	-0.000019	0.000015	0.000027	-178.359832	-77.494734	-155.321304
06584	9.637393	-0.023868	-2.110277	-0.039493	0.022429	0.052967	1.000000	-0.000012	0.000023	0.000036	-178.345921	-77.495623	-155.334434
06585	9.633699	-0.018416	-2.133150	-0.021381	0.038002	0.054274	1.000000	-0.000006	0.000026	0.000028	-178.334467	-77.495744	-155.346647
06586	9.620221	-0.045310	-2.162772	0.019118	0.028399	0.047694	1.000000	-0.000006	0.000026	0.000028	-178.323716	-77.496992	-155.355760
06587	9.597467	-0.004928	-2.147981	-0.007354	0.059929	0.022026	1.000000	-0.000024	0.000032	0.000014	-178.334907	-77.495893	-155.334846
06588	9.616668	-0.040015	-2.185040	0.036921	0.043163	0.049010	1.000000	-0.000012	0.000023	0.000036	-178.320978	-77.496757	-155.347984
06589	9.651589	-0.002067	-2.154794	-0.014588	0.021790	0.076480	1.000000	-0.000021	0.000023	0.000020	-179.262422	-77.392114	-154.565756
06590	9.624423	-0.052945	-2.137554	-0.001993	-0.028829	0.046351	1.000000	-0.000002	0.000012	0.000026	-179.260662	-77.390801	-154.566271
06591	9.609277	-0.026882	-2.153423	0.003298	0.002719	0.034959	1.000000	-0.000014	0.000026	0.000013	-179.265970	-77.390860	-154.557281
06592	9.630600	-0.015148	-2.153359	-0.006129	0.011105	0.055721	1.000000	-0.000019	0.000015	0.000027	-179.265459	-77.389933	-154.558486
06593	9.624666	-0.054035	-2.136436	-0.002666	-0.030514	0.046345	1.000000	-0.000021	0.000022	0.000028	-179.264487	-77.390248	-154.564478
06594	9.605762	-0.022082	-2.175552	0.021224	0.016856	0.036345	1.000000	-0.000006	0.000026	0.000028	-179.261867	-77.390608	-154.566312
06595	9.630906	-0.016496	-2.151983	-0.006734	0.009407	0.055722	1.000000	-0.000023	0.000031	0.000022	-179.264617	-77.391504	-154.560121
06596	9.617408	-0.043260	-2.181718	0.033736	-0.000574	0.049116	1.000000	-0.000002	0.000012	0.000026	-179.262857	-77.390191	-154.560636
06597	9.623424	-0.002984	-2.120750	-0.038721	0.008737	0.041566	1.000000	-0.000014	0.000025	0.000020	-179.263783	-77.390265	-154.562788
06598	9.621393	-0.050139	-2.157446	0.014707	-0.017527	0.047727	1.000000	-0.000007	0.000034	0.000029	-179.260734	-77.391461	-154.565282
06599	9.606308	-0.024332	-2.173113	0.020058	0.014075	0.036352	1.000000	-0.000005	0.000025	0.000036	-179.252559	-77.391843	-154.584630
06600	9.639055	-0.033149	-2.180207	0.023580	0.006164	0.069883	1.000000	-0.000010	0.000011	0.000018	-179.255701	-77.390429	-154.581070
06601	9.610254	-0.031183	-2.149001	0.001077	-0.002921	0.034960	1.000000	-0.000016	0.000033	0.000021	-179.257908	-77.391483	-154.570558
06602	9.598947	-0.011064	-2.141337	-0.012103	0.012790	0.022195	1.000000	-0.000022	0.000024	0.000013	-179.265092	-77.391641	-154.564244
06603	9.618107	-0.046069	-2.178578	0.032069	-0.004490	0.049120	1.000000	-0.000002	0.000012	0.000026	-179.261945	-77.390169	-154.571772
06604	9.618075	-0.044336	-2.101042	-0.036700	-0.036280	0.032161	1.000000	-0.000006	0.000026	0.000028	-179.259326	-77.390529	-154.573606
06605	9.631866	-0.020712	-2.147645	-0.009074	0.003790	0.055724	1.000000	-0.000011	0.000017	0.000027	-179.257237	-77.389916	-154.580514
06606	9.631942	-0.021198	-2.147299	-0.009298	0.003213	0.055724	1.000000	-0.000004	0.000019	0.000027	-179.255049	-77.389439	-154.581688
06607	9.610827	-0.033671	-2.146399	-0.000253	-0.006278	0.034958	1.000000	-0.000010	0.000042	0.000023	-179.255662	-77.391961	-154.587727
06608	9.610912	-0.034224	-2.146012	-0.000477	-0.006853	0.034958	1.000000	-0.000014	-0.000002	0.000040	-179.247899	-77.389112	-154.595782
06609	9.632231	-0.022762	-2.145988	-0.009863	0.001542	0.055724	1.000000	-0.000001	0.000037	0.000021	-179.247910	-77.390999	-154.600939
06610	9.620938	-0.002671	-2.138285	-0.023039	0.017260	0.042965	1.000000	-0.000022	0.000024	0.000013	-179.255095	-77.391158	-154.594622
06611	9.615117	-0.043744	-2.198435	0.048950	0.006829	0.050530	1.000000	-0.000005	0.000025	0.000036	-179.248740	-77.391579	-154.597731
06612	9.632559	-0.024035	-2.144497	-0.010502	-0.000185	0.055724	1.000000	-0.000004	0.000019	0.000027	-179.246553	-77.391102	-154.598903
06613	9.622790	-0.056813	-2.151040	0.011478	-0.025966	0.047712	1.000000	-0.000017	0.000009	0.000018	-179.250376	-77.389719	-154.600908
06614	9.628929	-0.018751	-2.167265	0.007617	0.014521	0.057135	1.000000	-0.000013	0.000024	0.000028	-179.248600	-77.389854	-154.602753
06615	9.582599	-0.034987	-2.112508	-0.024204	-0.019251	0.000016	1.000000	-0.000009	0.000010	0.000026	-179.246684	-77.388328	-154.614036
06616	9.600160	-0.017464	-2.135848	-0.015111	0.004938	0.022198	1.000000	-0.000012	0.000023	0.000036	-179.240851	-77.388337	-154.619967
06617	9.632947	-0.026313	-2.142730	-0.011627	-0.002988	0.055722	1.000000	-0.000016	0.000033	0.000021	-179.241990	-77.389334	-154.619123
06618	9.608063	-0.032520	-2.165233	0.015896	0.003340	0.036369	1.000000	-0.000022	0.000024	0.000013	-179.249176	-77.389494	-154.612805
06619	9.611904	-0.038883	-2.141485	-0.002827	-0.013044	0.034951	1.000000	-0.000011	0.000017	0.000027	-179.247647	-77.389025	-154.624198
06620	9.644658	-0.047722	-2.148504	0.000681	-0.020994	0.068473	1.000000	-0.000013	0.000024	0.000028	-179.245873	-77.389159	-154.626041
06621	9.633328	-0.027734	-2.140999	-0.012511	-0.005249	0.055720	1.000000	-0.000019	0.000016	0.000019	-179.248739	-77.388305	-154.625193
06622	9.608409	-0.033981	-2.163676	0.015014	0.001082	0.036371	1.000000	-0.000021	0.000023	0.000020	-179.251868	-77.388340	-154.622961
06623	9.608513	-0.034296	-2.163210	0.014873	0.000512	0.036371	1.000000	-0.000014	0.000025	0.000020	-179.255000	-77.389046	-154.618022
06624	9.629907	-0.022633	-2.162876	0.005428	0.008859	0.057143	1.000000	-0.000017	0.000040	0.000023	-179.256425	-77.390978	-154.617097
06625	9.608754	-0.035033	-2.162127	0.014467	-0.000626	0.036372	1.000000	-0.000017	0.000008	0.000026	-179.256566	-77.389465	-154.620175
06626	9.608822	-0.035318	-2.161820	0.014243	-0.001200	0.036372	1.000000	-0.000022	0.000024	0.000013	-179.263755	-77.389625	-154.613855
06627	9.630172	-0.023728	-2.161684	0.004783	0.007150	0.057145	1.000000	0.000004	0.000020	0.000035	-179.256325	-77.389199	-154.615519
06628	9.605088	-0.027968	-2.107107	-0.036223	-0.017709	0.020765	1.000000	-0.000030	0.000029	0.000022	-179.259869	-77.389845	-154.613956
06629	9.609116	-0.036593	-2.160491	0.013479	-0.002906	0.036373	1.000000	-0.000011	0.000017	0.000027	-179.257479	-77.388740	-154.605813
06630	9.622805	-0.010763	-2.129839	-0.027449	0.005890	0.042967	1.000000	-0.000015	0.000032	0.000029	-179.255277	-77.389711	-154.608316
06631	9.613076	-0.043557	-2.136126	-0.005495	-0.019886	0.034939	1.000000	-0.000014	0.000025	0.000020	-179.257242	-77.389971	-154.605571
06632	9.619268	-0.005430	-2.152296	-0.009382	0.020590	0.044402	1.000000	-0.000010	0.000011	0.000018	-179.260389	-77.388557	-154.602007
06633	9.605712	-0.032036	-2.182350	0.031057	0.010666	0.037810	1.000000	-0.000008	0.000003	0.000017	-179.263067	-77.386129	-154.599990
06634	9.634488	-0.032695	-2.135700	-0.015438	-0.012690	0.055709	1.000000	-0.000019	0.000020	0.000044	-179.254026	-77.385788	-154.610015
06635	9.634568	-0.033234	-2.135331	-0.015665	-0.013261	0.055708	1.000000	-0.000012	0.000018	0.000019	-179.256549	-77.385207	-154.605296
06636	9.619537	-0.007195	-2.151086	-0.010328	0.018310	0.044406	1.000000	-0.000015	0.000032	0.000029	-179.254347	-77.386177	-154.607797
06637	9.634772	-0.034037	-2.134396	-0.016127	-0.014403	0.055705	1.000000	-0.000019	0.000016	0.000019	-179.257470	-77.385330	-154.604513
06638	9.623438	-0.014037	-2.126959	-0.029309	0.001324	0.042963	1.000000	-0.000011	0.000017	0.000027	-179.256130	-77.384628	-154.605695
06639	9.642625	-0.049056	-2.164062	0.014943	-0.016009	0.069889	1.000000	-0.000016	0.000034	0.000014	-179.262425	-77.386079	-154.597605
06640	9.627619	-0.023019	-2.179746	0.020274	0.015566	0.058595	1.000000	-0.000012	0.000023	0.000036	-179.256598	-77.386087	-154.603532
06641	9.652705	-0.017647	-2.156227	-0.007724	0.008055	0.077925	1.000000	-0.000021	0.000022	0.000028	-179.254937	-77.385929	-154.609285
06642	9.598873	-0.021547	-2.148118	-0.002434	0.006000	0.023633	1.000000	-0.000022	0.000024	0.000013	-179.262125	-77.386089	-154.602964
06643	9.631661	-0.030354	-2.154959	0.001088	-0.001984	0.057148	1.000000	-0.000007	0.000033	0.000037	-179.255162	-77.387304	-154.609412
06644	9.599120	-0.022391	-2.147006	-0.002858	0.004857	0.023633	1.000000	-0.000014	0.000026	0.000012	-179.261507	-77.387688	-154.603081
06645	9.624457	-0.019037	-2.200618	0.037660	0.028576	0.060054	1.000000	-0.000012	0.000023	0.000036	-179.255227	-77.387697	-154.612764
06646	9.620578	-0.011365	-2.146408	-0.012552	0.012609	0.044412	1.000000	-0.000011	0.000017	0.000027	-179.253888	-77.386994	-154.613945
06647	9.632048	-0.032218	-2.153201	0.000245	-0.004263	0.057148	1.000000	-0.000011	0.000017	0.000027	-179.253016	-77.386643	-154.619330
06648	9.649689	-0.014708	-2.176426	0.009294	0.019893	0.079383	1.000000	-0.000012	0.000023	0.000036	-179.247191	-77.386652	-154.625255
06649	9.603298	-0.030943	-2.121543	-0.022407	-0.013847	0.022176	1.000000	-0.000016	0.000033	0.000021	-179.249513	-77.387868	-154.618889
06650	9.617254	-0.007130	-2.168020	0.005149	0.026160	0.045873	1.000000	-0.000012	0.000018	0.000019	-179.252232	-77.387291	-154.615982
06651	9.599801	-0.025524	-2.143924	-0.004327	0.000844	0.023634	1.000000	-0.000016	0.000033	0.000021	-179.254536	-77.388447	-154.608065
06652	9.611280	-0.046293	-2.150657	0.008412	-0.016037	0.036366	1.000000	-0.000017	0.000008	0.000026	-179.254476	-77.386684	-154.608593
06653	9.653877	-0.022875	-2.150922	-0.010307	0.001143	0.077926	1.000000	-0.000003	0.000018	0.000035	-179.248025	-77.386072	-154.614460
06654	9.609932	0.005402	-2.135922	-0.027212	0.024308	0.031684	1.000000	-0.000008	0.000035	0.000021	-179.249036	-77.387392	-154.612865
06655	9.600156	-0.027367	-2.142311	-0.005203	-0.001456	0.023634	1.000000	-0.000019	0.000015	0.000027	-179.249014	-77.386563	-154.608635
06656	9.640617	-0.050410	-2.179667	0.029759	-0.009918	0.071341	1.000000	-0.000009	0.000036	0.000014	-179.254082	-77.388008	-154.602954
06657	9.633011	-0.036367	-2.148822	-0.001935	-0.010047	0.057143	1.000000	-0.000008	0.000003	0.000017	-179.257700	-77.385747	-154.596675
06658	9.600435	-0.028522	-2.141046	-0.005875	-0.003181	0.023633	1.000000	-0.000008	0.000039	0.000046	-179.246113	-77.387527	-154.607996
06659	9.629533	-0.031424	-2.171168	0.016143	0.004665	0.058614	1.000000	-0.000021	0.000023	0.000020	-179.249400	-77.387698	-154.609080
06660	9.600667	-0.029487	-2.139992	-0.006299	-0.004325	0.023632	1.000000	-0.000013	0.000024	0.000028	-179.247634	-77.387832	-154.610917
06661	9.622047	-0.018001	-2.139771	-0.015762	0.003955	0.044415	1.000000	-0.000013	0.000024	0.000028	-179.246142	-77.388018	-154.608180
06662	9.643423	-0.006502	-2.139566	-0.025240	0.012238	0.065198	1.000000	-0.000021	0.000022	0.000028	-179.245224	-77.387928	-154.610025
06663	9.616012	-0.057373	-2.122540	-0.012524	-0.038218	0.034878	1.000000	-0.000009	0.000010	0.000026	-179.243708	-77.386209	-154.609754
06664	9.622282	-0.019471	-2.138697	-0.016473	0.002234	0.044414	1.000000	-0.000012	0.000023	0.000036	-179.237887	-77.386217	-154.615676
06665	9.622432	-0.019977	-2.138019	-0.016656	0.001661	0.044414	1.000000	-0.000019	0.000047	0.000024	-179.239297	-77.389206	-154.616641
06666	9.612651	-0.052731	-2.144371	0.005346	-0.024077	0.036352	1.000000	-0.000017	0.000008	0.000026	-179.239244	-77.387443	-154.617163
06667	9.601335	-0.032794	-2.136945	-0.007841	-0.008337	0.023628	1.000000	-0.000013	0.000024	0.000028	-179.237405	-77.387618	-154.618558
06668	9.634105	-0.041724	-2.143815	-0.004353	-0.016372	0.057134	1.000000	-0.000006	0.000026	0.000028	-179.234791	-77.387976	-154.620387
06669	9.622832	-0.021756	-2.136200	-0.017537	-0.000621	0.044412	1.000000	-0.000014	0.000025	0.000020	-179.236812	-77.388326	-154.623062
06670	9.619253	-0.015974	-2.159084	0.000735	0.014669	0.045898	1.000000	-0.000021	0.000023	0.000020	-179.239952	-77.388361	-154.620819
06671	9.598074	-0.028248	-2.158384	0.009794	0.005250	0.025113	1.000000	-0.000014	0.000025	0.000020	-179.242467	-77.388749	-154.616620
06672	9.623163	-0.022819	-2.134698	-0.018186	-0.002348	0.044411	1.000000	-0.000007	0.000034	0.000029	-179.239422	-77.389942	-154.619111
06673	9.634629	-0.043690	-2.141420	-0.005406	-0.019224	0.057128	1.000000	-0.000017	0.000008	0.000026	-179.239495	-77.388390	-154.624322
06674	9.602072	-0.035621	-2.133583	-0.009338	-0.012328	0.023623	1.000000	-0.000034	0.000043	0.000024	-179.242190	-77.390711	-154.624066
06675	9.623456	-0.024135	-2.133362	-0.018820	-0.004058	0.044409	1.000000	0.000001	0.000003	0.000032	-179.236724	-77.388468	-154.627047
06676	9.619842	-0.018510	-2.156438	-0.000550	0.011235	0.045903	1.000000	-0.000014	0.000025	0.000020	-179.239016	-77.388727	-154.624796
06677	9.631317	-0.039373	-2.163110	0.012209	-0.005655	0.058619	1.000000	-0.000020	0.000021	0.000036	-179.234242	-77.388575	-154.625155
06678	9.620043	-0.019538	-2.155531	-0.000987	0.010082	0.045904	1.000000	-0.000006	0.000026	0.000028	-179.231630	-77.388932	-154.626984
06679	9.606168	-0.044260	-2.108271	-0.028889	-0.031070	0.022119	1.000000	-0.000009	0.000009	0.000034	-179.227060	-77.387455	-154.630685
06680	9.620190	-0.020569	-2.154869	-0.001401	0.008932	0.045905	1.000000	-0.000014	0.000025	0.000020	-179.229353	-77.387714	-154.628434
06681	9.616647	-0.014801	-2.177663	0.016863	0.024244	0.047407	1.000000	-0.000016	0.000033	0.000021	-179.230811	-77.388841	-154.631260
06682	9.602811	-0.039208	-2.130195	-0.011072	-0.016905	0.023614	1.000000	-0.000022	0.000024	0.000013	-179.238010	-77.389003	-154.624928
06683	9.641799	-0.009510	-2.153653	-0.011317	0.016050	0.066696	1.000000	-0.000009	0.000010	0.000026	-179.237366	-77.387616	-154.624332
06684	9.599293	-0.033885	-2.152876	0.006998	-0.002177	0.025117	1.000000	-0.000006	0.000026	0.000028	-179.234755	-77.387973	-154.626160
06685	9.595740	-0.028197	-2.175734	0.025275	0.013129	0.026623	1.000000	-0.000014	0.000025	0.000020	-179.237037	-77.388319	-154.625582
06686	9.639493	-0.055315	-2.112526	-0.026708	-0.042562	0.055601	1.000000	-0.000014	0.000025	0.000020	-179.239332	-77.388578	-154.623329
06687	9.632261	-0.043494	-2.158823	0.010046	-0.011380	0.058616	1.000000	-0.000011	0.000017	0.000027	-179.237848	-77.387915	-154.623433
06688	9.642276	-0.011556	-2.151506	-0.012426	0.013180	0.066699	1.000000	-0.000014	0.000025	0.000020	-179.240143	-77.388175	-154.621180
06689	9.596138	-0.029562	-2.173962	0.024434	0.010861	0.026628	1.000000	-0.000022	0.000024	0.000013	-179.247348	-77.388655	-154.629294
06690	9.611232	-0.056543	-2.157405	0.018693	-0.021905	0.037823	1.000000	-0.000001	0.000010	0.000041	-179.237493	-77.387086	-154.637970
06691	9.621246	-0.024758	-2.150105	-0.003754	0.002663	0.045908	1.000000	-0.000023	0.000031	0.000021	-179.240311	-77.388085	-154.636232
06692	9.617688	-0.019094	-2.173027	0.014509	0.017962	0.047424	1.000000	-0.000018	0.000014	0.000035	-179.235781	-77.387033	-154.641491
06693	9.596491	-0.031496	-2.172375	0.023599	0.008577	0.026632	1.000000	-0.000016	0.000033	0.000021	-179.237931	-77.388354	-154.645027
06694	9.654236	-0.034476	-2.155941	-0.000691	-0.006565	0.079405	1.000000	-0.000023	0.000031	0.000021	-179.240647	-77.389227	-154.643437
06695	9.621653	-0.026454	-2.148260	-0.004617	0.000376	0.045908	1.000000	-0.000016	0.000007	0.000034	-179.236305	-77.387328	-154.647524
06696	9.610367	-0.006538	-2.140793	-0.017813	0.016123	0.033206	1.000000	0.000001	0.000029	0.000020	-179.236898	-77.388034	-154.645262
06697	9.621852	-0.027278	-2.147357	-0.005041	-0.000777	0.045908	1.000000	-0.000030	0.000029	0.000022	-179.240787	-77.388810	-154.640730
06698	9.621924	-0.027748	-2.147031	-0.005265	-0.001353	0.045908	1.000000	0.000008	0.000005	0.000032	-179.234569	-77.386754	-154.644654
06699	9.622004	-0.028249	-2.146666	-0.005487	-0.001923	0.045908	1.000000	-0.000016	0.000033	0.000021	-179.236342	-77.387879	-154.642731
06700	9.625773	-0.034725	-2.122739	-0.024193	-0.018377	0.044381	1.000000	-0.000006	0.000027	0.000020	-179.237787	-77.388362	-154.640471
06701	9.622247	-0.028966	-2.145566	-0.005918	-0.003069	0.045907	1.000000	-0.000006	0.000027	0.000020	-179.239298	-77.388946	-154.638914
06702	9.622345	-0.029230	-2.145121	-0.006142	-0.003645	0.045907	1.000000	-0.000012	0.000019	0.000011	-179.246083	-77.388495	-154.631912
06703	9.612515	-0.061830	-2.151536	0.015933	-0.029343	0.037808	1.000000	-0.000008	0.000035	0.000021	-179.247570	-77.390045	-154.630159
06704	9.611216	-0.009571	-2.136968	-0.019522	0.011529	0.033209	1.000000	-0.000027	0.000019	0.000036	-179.243465	-77.389605	-154.636077
06705	9.611303	-0.010048	-2.136571	-0.019741	0.010956	0.033209	1.000000	0.000003	0.000022	0.000019	-179.244476	-77.389513	-154.631099
06706	9.622776	-0.030816	-2.143167	-0.006990	-0.005944	0.045905	1.000000	-0.000016	0.000033	0.000021	-179.246344	-77.390609	-154.629502
06707	9.619243	-0.025157	-2.166070	0.011292	0.009370	0.047440	1.000000	-0.000018	0.000014	0.000035	-179.241926	-77.389718	-154.638501
06708	9.622945	-0.031754	-2.142392	-0.007411	-0.007087	0.045904	1.000000	-0.000004	0.000020	0.000019	-179.243806	-77.389364	-154.635579
06709	9.619416	-0.025981	-2.165290	0.010868	0.008222	0.047442	1.000000	-0.000006	0.000027	0.000020	-179.245472	-77.389986	-154.633367
06710	9.619529	-0.026328	-2.164785	0.010643	0.007647	0.047442	1.000000	-0.000014	0.000025	0.000020	-179.247773	-77.390246	-154.631107
06711	9.623268	-0.032804	-2.140927	-0.008045	-0.008810	0.045902	1.000000	-0.000006	0.000027	0.000020	-179.249333	-77.390797	-154.627041
06712	9.623357	-0.033205	-2.140521	-0.008269	-0.009386	0.045901	1.000000	-0.000019	0.000015	0.000027	-179.248865	-77.389871	-154.628208
06713	9.619825	-0.027398	-2.163457	0.010005	0.005931	0.047444	1.000000	-0.000007	0.000028	0.000012	-179.254427	-77.390620	-154.626329
06714	9.623569	-0.033776	-2.139557	-0.008695	-0.010529	0.045900	1.000000	-0.000030	0.000029	0.000021	-179.258004	-77.391271	-154.624731
06715	9.630016	0.004219	-2.155465	-0.012702	0.029895	0.055555	1.000000	-0.000013	0.000023	0.000036	-179.252172	-77.391341	-154.629989
06716	9.612424	-0.014372	-2.131499	-0.022111	0.004653	0.033209	1.000000	-0.000021	0.000022	0.000028	-179.251274	-77.391252	-154.631815
06717	9.616621	-0.022971	-2.184945	0.027577	0.019530	0.048995	1.000000	-0.000011	0.000017	0.000027	-179.249630	-77.390501	-154.631222
06718	9.635296	-0.056144	-2.144946	0.003385	-0.029148	0.058584	1.000000	-0.000006	0.000026	0.000028	-179.247024	-77.390857	-154.633046
06719	9.620454	-0.030105	-2.160621	0.008671	0.002503	0.047447	1.000000	-0.000015	0.000032	0.000029	-179.244734	-77.391937	-154.643106
06720	9.602822	-0.048603	-2.136793	-0.000734	-0.022733	0.025093	1.000000	-0.000015	0.000000	0.000025	-179.245134	-77.389338	-154.642949
06721	9.624187	-0.036974	-2.136724	-0.010246	-0.014529	0.045893	1.000000	-0.000022	0.000024	0.000013	-179.252283	-77.389545	-154.638443
06722	9.609328	-0.010724	-2.152507	-0.004974	0.017114	0.034762	1.000000	-0.000021	0.000022	0.000028	-179.251386	-77.389455	-154.640268
06723	9.624397	-0.037658	-2.135767	-0.010667	-0.015675	0.045891	1.000000	-0.000023	0.000031	0.000021	-179.254318	-77.390486	-154.642937
06724	9.620902	-0.031824	-2.158600	0.007582	-0.000364	0.047448	1.000000	-0.000021	0.000023	0.000020	-179.257477	-77.390523	-154.640675
06725	9.634560	-0.006097	-2.127929	-0.033387	0.008283	0.054008	1.000000	-0.000018	0.000014	0.000035	-179.252766	-77.389497	-154.646838
06726	9.621049	-0.032722	-2.157934	0.007134	-0.001507	0.047448	1.000000	-0.000012	0.000018	0.000019	-179.255501	-77.388920	-154.643917
06727	9.613432	-0.018868	-2.126913	-0.024548	-0.001620	0.033204	1.000000	-0.000017	0.000039	0.000030	-179.252444	-77.390714	-154.650291
06728	9.617690	-0.027497	-2.180182	0.025147	0.013244	0.049012	1.000000	-0.000004	0.000019	0.000027	-179.250271	-77.390233	-154.651453
06729	9.613610	-0.019837	-2.126101	-0.024975	-0.002779	0.033203	1.000000	-0.000017	0.000008	0.000026	-179.250605	-77.388566	-154.645437
06730	9.600125	-0.046453	-2.155990	0.015549	-0.012558	0.026644	1.000000	-0.000024	0.000037	0.000030	-179.248846	-77.390149	-154.648580
06731	9.610223	-0.014633	-2.148486	-0.006957	0.011963	0.034769	1.000000	-0.000004	0.000019	0.000027	-179.246601	-77.389672	-154.645616
06732	9.621649	-0.035524	-2.155211	0.005799	-0.004946	0.047448	1.000000	-0.000021	0.000022	0.000028	-179.245707	-77.389583	-154.647438
06733	9.631733	-0.003606	-2.147782	-0.016687	0.019568	0.055575	1.000000	-0.000014	0.000025	0.000020	-179.248251	-77.389963	-154.645082
06734	9.621840	-0.036147	-2.154347	0.005373	-0.006096	0.047448	1.000000	-0.000020	0.000017	0.000011	-179.255897	-77.389290	-154.638074
06735	9.621892	-0.036424	-2.154110	0.005143	-0.006667	0.047447	1.000000	-0.000017	0.000008	0.000026	-179.255683	-77.387502	-154.634702
06736	9.624208	0.009585	-2.116325	-0.048817	0.018278	0.041327	1.000000	0.000002	0.000027	0.000036	-179.248169	-77.387953	-154.640609
06737	9.622075	-0.037409	-2.153279	0.004716	-0.007817	0.047447	1.000000	-0.000022	0.000024	0.000012	-179.255625	-77.388234	-154.635803
06738	9.610884	-0.017221	-2.145506	-0.008491	0.007942	0.034772	1.000000	-0.000034	0.000043	0.000024	-179.258347	-77.390559	-154.635518
06739	9.643689	-0.026239	-2.152112	-0.005036	-0.000222	0.068253	1.000000	-0.000005	0.000025	0.000036	-179.251701	-77.390817	-154.638395
06740	9.586225	-0.024015	-2.167581	0.018834	0.013950	0.015545	1.000000	-0.000013	0.000024	0.000028	-179.249953	-77.390950	-154.640216
06741	9.651643	-0.041469	-2.181650	0.025992	-0.001817	0.082506	1.000000	-0.000021	0.000023	0.000020	-179.253637	-77.391148	-154.637511
06742	9.590021	-0.031019	-2.143275	-0.000039	-0.003102	0.013965	1.000000	-0.000022	0.000029	0.000037	-179.248260	-77.391768	-154.644075
06743	9.622748	-0.040135	-2.150216	0.003418	-0.011270	0.047444	1.000000	-0.000024	0.000005	0.000034	-179.245041	-77.389710	-154.650034
06744	9.619207	-0.034429	-2.173382	0.021652	0.004056	0.049028	1.000000	0.000005	0.000015	0.000018	-179.246498	-77.388741	-154.646451
06745	9.611541	-0.020427	-2.142533	-0.010018	0.003917	0.034773	1.000000	-0.000022	0.000024	0.000012	-179.253651	-77.388896	-154.636748
06746	9.611672	-0.020740	-2.141944	-0.010243	0.003341	0.034773	1.000000	-0.000024	0.000037	0.000030	-179.251897	-77.390480	-154.639887
06747	9.623131	-0.041474	-2.148479	0.002526	-0.013568	0.047441	1.000000	-0.000022	0.000024	0.000012	-179.259119	-77.390676	-154.632187
06748	9.623236	-0.041713	-2.148002	0.002302	-0.014143	0.047441	1.000000	-0.000014	0.000025	0.000020	-179.261425	-77.390935	-154.629922
06749	9.623337	-0.042104	-2.147545	0.002084	-0.014717	0.047440	1.000000	-0.000021	0.000022	0.000028	-179.260562	-77.390880	-154.629764
06750	9.641177	-0.024523	-2.170645	0.010994	0.009340	0.069842	1.000000	-0.000011	0.000017	0.000027	-179.259248	-77.390176	-154.630923
06751	9.623481	-0.043003	-2.146879	0.001654	-0.015867	0.047438	1.000000	-0.000026	0.000013	0.000027	-179.259821	-77.389122	-154.632881
06752	9.608675	-0.016814	-2.162698	0.006892	0.015802	0.036367	1.000000	0.000001	0.000029	0.000020	-179.260412	-77.389826	-154.630621
06753	9.608790	-0.017084	-2.162184	0.006683	0.015230	0.036368	1.000000	-0.000022	0.000024	0.000012	-179.267751	-77.390079	-154.625667
06754	9.623746	-0.044111	-2.145670	0.000998	-0.017591	0.047435	1.000000	-0.000016	0.000006	0.000041	-179.259623	-77.388063	-154.634331
06755	9.608918	-0.018125	-2.161607	0.006242	0.014081	0.036370	1.000000	-0.000013	0.000024	0.000028	-179.257967	-77.388242	-154.634593
06756	9.616781	-0.032782	-2.191607	0.037457	0.013078	0.050635	1.000000	-0.000014	0.000025	0.000020	-179.260275	-77.388501	-154.632327
06757	9.641787	-0.027492	-2.167899	0.009463	0.005307	0.069847	1.000000	-0.000013	0.000024	0.000028	-179.258625	-77.388646	-154.630017
06758	9.620574	-0.039774	-2.167233	0.018563	-0.003983	0.049035	1.000000	-0.000016	0.000033	0.000021	-179.260501	-77.389742	-154.628410
06759	9.630711	-0.007730	-2.159676	-0.003964	0.020495	0.057187	1.000000	-0.000022	0.000024	0.000012	-179.267825	-77.389994	-154.625694
06760	9.620783	-0.040495	-2.166290	0.018129	-0.005131	0.049035	1.000000	-0.000003	0.000017	0.000042	-179.257551	-77.389257	-154.635022
06761	9.634455	-0.014926	-2.135488	-0.022851	0.003436	0.055581	1.000000	-0.000030	0.000029	0.000021	-179.261119	-77.389970	-154.637607
06762	9.613234	-0.027189	-2.134847	-0.013749	-0.005849	0.034767	1.000000	-0.000006	0.000026	0.000028	-179.258516	-77.390324	-154.639427
06763	9.621090	-0.041852	-2.164899	0.017477	-0.006857	0.049035	1.000000	-0.000012	0.000018	0.000019	-179.261527	-77.389795	-154.633533
06764	9.613412	-0.027989	-2.134035	-0.014185	-0.007006	0.034766	1.000000	-0.000021	0.000022	0.000028	-179.260644	-77.389705	-154.635345
06765	9.631314	-0.010256	-2.156974	-0.005299	0.017036	0.057193	1.000000	-0.000024	0.000032	0.000014	-179.267422	-77.390690	-154.625498
06766	9.613645	-0.028618	-2.132979	-0.014635	-0.008158	0.034764	1.000000	-0.000013	0.000024	0.000028	-179.265680	-77.390822	-154.627313
06767	9.618005	-0.037212	-2.186162	0.035036	0.006758	0.050650	1.000000	-0.000002	0.000043	0.000030	-179.261543	-77.393158	-154.632638
06768	9.635263	-0.017712	-2.131820	-0.024399	-0.000610	0.055578	1.000000	-0.000029	0.000021	0.000020	-179.265573	-77.392974	-154.630360
06769	9.628273	-0.005739	-2.178062	0.012253	0.030652	0.058814	1.000000	-0.000006	0.000026	0.000028	-179.262827	-77.393316	-154.631489
06770	9.621853	-0.044606	-2.161453	0.015918	-0.010879	0.049034	1.000000	-0.000008	0.000003	0.000017	-179.266436	-77.391065	-154.627240
06771	9.614171	-0.030670	-2.130579	-0.015756	-0.011030	0.034760	1.000000	-0.000025	0.000038	0.000023	-179.268515	-77.392701	-154.621892
06772	9.607222	-0.018630	-2.176672	0.020895	0.020236	0.038004	1.000000	-0.000014	0.000025	0.000020	-179.270826	-77.392960	-154.619622
06773	9.643528	-0.033813	-2.160049	0.005901	-0.003911	0.069850	1.000000	-0.000006	0.000026	0.000028	-179.268298	-77.393353	-154.622646
06774	9.610978	-0.025644	-2.152350	0.002016	0.003166	0.036382	1.000000	-0.000021	0.000023	0.000020	-179.271470	-77.393391	-154.620370
06775	9.635980	-0.020303	-2.128555	-0.025983	-0.004648	0.055573	1.000000	-0.000016	0.000033	0.000021	-179.273399	-77.394478	-154.616201
06776	9.632559	-0.014422	-2.151385	-0.007773	0.010699	0.057200	1.000000	-0.000029	0.000021	0.000020	-179.277432	-77.394293	-154.613920
06777	9.626118	-0.053199	-2.134796	-0.004084	-0.030828	0.047402	1.000000	0.000007	0.000007	0.000017	-179.279420	-77.392528	-154.610525
06778	9.632678	-0.015286	-2.150844	-0.008215	0.009545	0.057201	1.000000	-0.000019	0.000020	0.000044	-179.270436	-77.392185	-154.620503
06779	9.618505	-0.039974	-2.103554	-0.035968	-0.031555	0.033119	1.000000	-0.000024	0.000032	0.000014	-179.277032	-77.393181	-154.615677
06780	9.611565	-0.027929	-2.149699	0.000674	-0.000280	0.036382	1.000000	-0.000006	0.000026	0.000028	-179.274431	-77.393535	-154.617496
06781	9.611677	-0.028444	-2.149195	0.000431	-0.000852	0.036382	1.000000	-0.000006	0.000026	0.000028	-179.271549	-77.393794	-154.612572
06782	9.644419	-0.037508	-2.156009	0.003864	-0.009095	0.069848	1.000000	-0.000019	0.000015	0.000027	-179.271102	-77.392868	-154.613721
06785	9.620245	-0.027996	-2.140180	-0.027833	-0.013264	19.753704	1.000000	-0.000032	0.000075	0.000084	-179.242407	-77.398696	-154.642461
06786	9.608638	-0.024647	-2.170354	0.018184	0.013354	0.038021	1.000000	-0.000021	0.000022	0.000028	-179.241528	-77.398606	-154.644268
06787	9.615780	-0.037432	-2.123195	-0.018888	-0.019085	0.034742	1.000000	-0.000014	0.000025	0.000020	-179.243936	-77.398894	-154.640706
06788	9.645041	-0.040185	-2.153173	0.002970	-0.011403	0.069846	1.000000	-0.000008	0.000035	0.000021	-179.244953	-77.400211	-154.639102
06789	9.616026	-0.038293	-2.122065	-0.019312	-0.020234	0.034739	1.000000	-0.000013	0.000023	0.000036	-179.239409	-77.400345	-154.648916
06790	9.612616	-0.032593	-2.144930	-0.001110	-0.004877	0.036381	1.000000	-0.000006	0.000027	0.000020	-179.240861	-77.400826	-154.646649
06791	9.634053	-0.021220	-2.144625	-0.010766	0.002831	0.057203	1.000000	-0.000026	0.000012	0.000035	-179.245410	-77.398185	-154.626457
06792	9.612799	-0.033443	-2.144096	-0.001637	-0.006406	0.036380	1.000000	-0.000009	0.000036	0.000014	-179.250521	-77.399625	-154.620678
06793	9.619468	0.004723	-2.159837	-0.005810	0.033959	0.046212	1.000000	0.000003	0.000022	0.000019	-179.251474	-77.399488	-154.614697
06794	9.609505	-0.027959	-2.166470	0.016332	0.008386	0.038029	1.000000	-0.000021	0.000022	0.000028	-179.250639	-77.399394	-154.616414
06795	9.634472	-0.022723	-2.142728	-0.011660	0.000525	0.057202	1.000000	-0.000014	0.000025	0.000020	-179.252975	-77.399692	-154.614439
06796	9.609713	-0.028754	-2.165536	0.015890	0.007237	0.038031	1.000000	-0.000013	0.000024	0.000028	-179.251277	-77.399819	-154.616163
06797	9.634664	-0.023607	-2.141853	-0.012108	-0.000630	0.057201	1.000000	-0.000011	0.000017	0.000027	-179.249973	-77.399117	-154.614821
06798	9.609891	-0.029628	-2.164734	0.015442	0.006087	0.038033	1.000000	-0.000014	0.000025	0.000020	-179.252328	-77.399372	-154.612459
06799	9.634832	-0.024417	-2.141091	-0.012542	-0.001784	0.057201	1.000000	-0.000002	0.000012	0.000026	-179.250736	-77.398131	-154.615168
06800	9.613542	-0.036618	-2.140713	-0.003406	-0.011008	0.036376	1.000000	-0.000029	0.000021	0.000020	-179.254819	-77.397944	-154.612789
06801	9.613602	-0.036927	-2.140438	-0.003620	-0.011583	0.036375	1.000000	0.000007	0.000007	0.000017	-179.256795	-77.396183	-154.608786
06802	9.623746	-0.004982	-2.133025	-0.026220	0.012826	0.044566	1.000000	-0.000030	0.000029	0.000021	-179.260445	-77.396832	-154.607067
06803	9.613793	-0.037641	-2.139565	-0.004056	-0.012730	0.036373	1.000000	-0.000006	0.000026	0.000028	-179.257874	-77.397262	-154.612000
06804	9.635259	-0.026228	-2.139145	-0.013643	-0.004667	0.057198	1.000000	-0.000021	0.000023	0.000020	-179.261094	-77.397296	-154.609628
06805	9.631855	-0.020342	-2.162079	0.004548	0.010707	0.058863	1.000000	-0.000004	0.000020	0.000019	-179.262905	-77.396972	-154.607547
06806	9.599293	-0.012120	-2.154492	0.000675	0.017838	0.025406	1.000000	-0.000021	0.000022	0.000028	-179.262073	-77.396878	-154.609261
06807	9.610700	-0.032957	-2.161091	0.013472	0.000920	0.038037	1.000000	-0.000016	0.000033	0.000021	-179.263989	-77.398016	-154.608257
06808	9.632174	-0.021563	-2.160647	0.003881	0.008977	0.058865	1.000000	-0.000004	0.000019	0.000027	-179.261863	-77.397527	-154.609327
06809	9.617891	-0.046197	-2.113438	-0.023786	-0.032130	0.034697	1.000000	-0.000030	0.000029	0.000021	-179.265638	-77.398225	-154.606667
06810	9.599733	-0.013693	-2.152522	-0.000206	0.015536	0.025410	1.000000	-0.000021	0.000022	0.000028	-179.264808	-77.398131	-154.608379
06811	9.632476	-0.022720	-2.159289	0.003222	0.007247	0.058866	1.000000	-0.000004	0.000020	0.000019	-179.266709	-77.397816	-154.606175
06812	9.632546	-0.023097	-2.158972	0.002997	0.006669	0.058867	1.000000	-0.000026	0.000013	0.000027	-179.267177	-77.396665	-154.607218
06813	9.619066	-0.049516	-2.189018	0.043569	-0.002926	0.052340	1.000000	-0.000006	0.000027	0.000020	-179.268538	-77.397173	-154.606760
06814	9.621469	-0.003453	-2.150908	-0.010465	0.021868	0.046242	1.000000	-0.000022	0.000030	0.000029	-179.267276	-77.397916	-154.609131
06815	9.632851	-0.024270	-2.157596	0.002340	0.004945	0.058868	1.000000	-0.000019	0.000016	0.000019	-179.271030	-77.397193	-154.609466
06816	9.603768	-0.022164	-2.126680	-0.019934	-0.003857	0.023735	1.000000	-0.000014	0.000025	0.000020	-179.273388	-77.397448	-154.607100
06817	9.636516	-0.031343	-2.133409	-0.016510	-0.012161	0.057188	1.000000	-0.000019	0.000020	0.000044	-179.264478	-77.397131	-154.616907
06818	9.623044	-0.057822	-2.163421	0.024061	-0.021756	0.050661	1.000000	-0.000022	0.000024	0.000012	-179.271754	-77.397293	-154.610447
06819	9.600570	-0.017333	-2.148758	-0.002195	0.010367	0.025417	1.000000	-0.000003	0.000018	0.000035	-179.265574	-77.396679	-154.612366
06820	9.615402	-0.044486	-2.132192	-0.007805	-0.022512	0.036354	1.000000	-0.000012	0.000018	0.000019	-179.268365	-77.396097	-154.609341
06821	9.618626	-0.000213	-2.171425	0.006389	0.033785	0.047935	1.000000	0.000004	0.000021	0.000027	-179.265382	-77.395868	-154.610284
06822	9.615590	-0.045333	-2.131324	-0.008246	-0.023664	0.036351	1.000000	-0.000023	0.000031	0.000021	-179.268174	-77.396739	-154.608568
06823	9.633607	-0.027705	-2.154178	0.000553	0.000334	0.058869	1.000000	-0.000013	0.000024	0.000028	-179.266272	-77.396881	-154.612387
06824	9.637182	-0.034339	-2.130350	-0.018073	-0.016200	0.057179	1.000000	-0.000014	0.000025	0.000020	-179.268631	-77.397136	-154.610021
06825	9.608963	-0.034006	-2.176606	0.027891	0.006527	0.039729	1.000000	-0.000012	0.000018	0.000019	-179.271479	-77.396590	-154.605603
06826	9.609057	-0.034421	-2.176182	0.027666	0.005951	0.039730	1.000000	-0.000006	0.000026	0.000028	-179.268921	-77.396937	-154.607333
06827	9.622712	-0.008805	-2.145323	-0.013347	0.014374	0.046253	1.000000	-0.000019	0.000016	0.000019	-179.272702	-77.396194	-154.604630
06828	9.605772	-0.028895	-2.198730	0.045628	0.020757	0.041428	1.000000	-0.000014	0.000025	0.000020	-179.275062	-77.396449	-154.602263
06829	9.634182	-0.029967	-2.151577	-0.000787	-0.003137	0.058869	1.000000	-0.000013	0.000024	0.000028	-179.273320	-77.396512	-154.596524
06830	9.634265	-0.030427	-2.151198	-0.001011	-0.003715	0.058869	1.000000	-0.000019	0.000015	0.000027	-179.272929	-77.395582	-154.597572
06831	9.634350	-0.030811	-2.150810	-0.001227	-0.004289	0.058868	1.000000	-0.000014	0.000025	0.000020	-179.275312	-77.395893	-154.598459
06832	9.631025	-0.025076	-2.173552	0.016944	0.011094	0.060569	1.000000	-0.000016	0.000038	0.000038	-179.268705	-77.397565	-154.605580
06833	9.598478	-0.016807	-2.165947	0.013088	0.018276	0.027123	1.000000	-0.000018	0.000010	0.000010	-179.276829	-77.396085	-154.600196
06834	9.616747	-0.050109	-2.125990	-0.010903	-0.030576	0.036329	1.000000	-0.000014	0.000031	0.000037	-179.270655	-77.396921	-154.606658
06835	9.644898	-0.000338	-2.141703	-0.024526	0.018348	0.067091	1.000000	-0.000014	0.000025	0.000020	-179.273021	-77.397202	-154.605365
06836	9.610051	-0.038466	-2.171719	0.025441	0.000197	0.039738	1.000000	-0.000004	0.000020	0.000019	-179.274948	-77.396840	-154.602349
06837	9.623711	-0.012805	-2.140819	-0.015583	0.008601	0.046256	1.000000	-0.000014	0.000025	0.000020	-179.277351	-77.397120	-154.599239
06838	9.610234	-0.039187	-2.170898	0.024998	-0.000954	0.039739	1.000000	-0.000019	0.000015	0.000027	-179.276962	-77.396189	-154.600285
06839	9.631731	-0.027875	-2.170390	0.015379	0.007057	0.060576	1.000000	-0.000017	0.000039	0.000030	-179.274358	-77.397973	-154.601146
06840	9.602666	-0.025868	-2.139286	-0.006869	-0.001717	0.025420	1.000000	-0.000014	0.000025	0.000020	-179.276721	-77.398228	-154.598777
06841	9.635371	-0.034998	-2.146166	-0.003458	-0.010066	0.058864	1.000000	-0.000007	0.000001	0.000032	-179.272336	-77.395725	-154.600911
06842	9.610599	-0.041092	-2.169245	0.024100	-0.003257	0.039741	1.000000	-0.000006	0.000026	0.000028	-179.269779	-77.396072	-154.602639
06843	9.635533	-0.035960	-2.145424	-0.003902	-0.011228	0.058862	1.000000	-0.000021	0.000023	0.000020	-179.273190	-77.396117	-154.598605
06844	9.620913	-0.009572	-2.161247	0.001234	0.020517	0.047974	1.000000	-0.000012	0.000018	0.000019	-179.275986	-77.395534	-154.595577
06845	9.621007	-0.009895	-2.160831	0.001022	0.019936	0.047975	1.000000	-0.000014	0.000025	0.000020	-179.278585	-77.395842	-154.593792
06846	9.635819	-0.036923	-2.144123	-0.004562	-0.012967	0.058860	1.000000	-0.000014	0.000025	0.000020	-179.280948	-77.396096	-154.591422
06847	9.603274	-0.028653	-2.136517	-0.008431	-0.005764	0.025417	1.000000	-0.000013	0.000024	0.000028	-179.279095	-77.396136	-154.586962
06848	9.610067	0.009417	-2.152260	-0.012701	0.034557	0.035376	1.000000	-0.000014	0.000025	0.000020	-179.281458	-77.396390	-154.584592
06849	9.624867	-0.017675	-2.135581	-0.018294	0.001651	0.046255	1.000000	-0.000021	0.000022	0.000028	-179.280445	-77.396222	-154.581778
06850	9.614803	-0.050340	-2.142426	0.003915	-0.023847	0.038017	1.000000	-0.000017	0.000008	0.000026	-179.280491	-77.394455	-154.582162
06851	9.624995	-0.018641	-2.134994	-0.018746	0.000489	0.046254	1.000000	-0.000013	0.000023	0.000036	-179.274810	-77.394425	-154.583319
06852	9.621655	-0.012883	-2.157928	-0.000593	0.015890	0.047982	1.000000	-0.000004	0.000020	0.000019	-179.276736	-77.394062	-154.580303
06853	9.615060	-0.051766	-2.141240	0.003230	-0.025581	0.038013	1.000000	-0.000022	0.000030	0.000029	-179.275309	-77.394714	-154.577027
06854	9.625304	-0.019923	-2.133591	-0.019436	-0.001248	0.046253	1.000000	-0.000021	0.000023	0.000020	-179.278541	-77.394748	-154.574644
06855	9.600573	-0.025745	-2.156554	0.008122	0.005600	0.027144	1.000000	-0.000012	0.000018	0.000019	-179.281333	-77.394168	-154.571437
06856	9.611916	-0.046677	-2.163289	0.020935	-0.011328	0.039742	1.000000	-0.000013	0.000023	0.000036	-179.275597	-77.394166	-154.577235
06857	9.610894	0.005462	-2.148577	-0.014765	0.029362	0.035389	1.000000	-0.000021	0.000022	0.000028	-179.274662	-77.394113	-154.582951
06858	9.636968	-0.042090	-2.138857	-0.007292	-0.019906	0.058847	1.000000	-0.000034	0.000043	0.000024	-179.277466	-77.396438	-154.582531
06859	9.622406	-0.015850	-2.154556	-0.002187	0.011853	0.047988	1.000000	-0.000001	0.000011	0.000033	-179.271657	-77.394944	-154.582514
06860	9.601084	-0.028079	-2.154248	0.007000	0.002727	0.027146	1.000000	-0.000021	0.000023	0.000020	-179.274890	-77.394979	-154.580130
06861	9.604591	-0.034644	-2.130502	-0.011599	-0.013826	0.025406	1.000000	-0.000012	0.000018	0.000019	-179.277432	-77.394393	-154.578797
06862	9.637311	-0.043735	-2.137278	-0.008197	-0.022212	0.058841	1.000000	-0.000011	0.000017	0.000027	-179.276179	-77.393682	-154.579852
06863	9.594485	-0.016816	-2.199881	0.043079	0.032979	0.030633	1.000000	-0.000003	0.000018	0.000035	-179.270159	-77.393140	-154.588290
06864	9.618388	-0.010129	-2.098916	-0.053076	-0.006643	0.031909	1.000000	-0.000014	0.000025	0.000020	-179.272522	-77.393394	-154.585920
06865	9.612769	-0.050708	-2.159405	0.018944	-0.016504	0.039739	1.000000	-0.000006	0.000026	0.000028	-179.270211	-77.393817	-154.590718
06866	9.626441	-0.025268	-2.128396	-0.022102	-0.008169	0.046244	1.000000	-0.000006	0.000026	0.000028	-179.267656	-77.394162	-154.592446
06867	9.590473	-0.010698	-2.144234	-0.007576	0.015067	0.014557	1.000000	-0.000019	0.000016	0.000019	-179.271132	-77.393392	-154.592015
06868	9.634441	-0.040091	-2.158133	0.008858	-0.009687	0.060581	1.000000	-0.000012	0.000019	0.000011	-179.277978	-77.392937	-154.584902
06869	9.594033	-0.017499	-2.120204	-0.026384	-0.002071	0.012807	1.000000	-0.000011	0.000017	0.000027	-179.276815	-77.392276	-154.587907
06870	9.631177	-0.034595	-2.180829	0.026786	0.005145	0.062333	1.000000	-0.000019	0.000015	0.000027	-179.276436	-77.391345	-154.588945
06871	9.602035	-0.032522	-2.149939	0.004569	-0.003595	0.027147	1.000000	-0.000023	0.000031	0.000021	-179.279183	-77.392187	-154.584178
06872	9.623551	-0.021246	-2.149390	-0.005074	0.004361	0.047993	1.000000	-0.000013	0.000023	0.000036	-179.273452	-77.392184	-154.589972
06873	9.623656	-0.021821	-2.148914	-0.005301	0.003780	0.047993	1.000000	-0.000006	0.000026	0.000028	-179.270938	-77.392512	-154.589803
06874	9.631631	-0.036479	-2.178791	0.025879	0.002835	0.062337	1.000000	-0.000001	0.000036	0.000021	-179.271126	-77.394042	-154.588122
06875	9.623890	-0.022638	-2.147857	-0.005746	0.002623	0.047993	1.000000	-0.000010	0.000011	0.000018	-179.274442	-77.392638	-154.582527
06876	9.645367	-0.011286	-2.147484	-0.015394	0.010570	0.068840	1.000000	-0.000013	0.000024	0.000028	-179.272760	-77.392763	-154.584237
06877	9.624042	-0.023439	-2.147167	-0.006201	0.001473	0.047993	1.000000	-0.000003	0.000013	0.000018	-179.274919	-77.391545	-154.580568
06878	9.624087	-0.023740	-2.146962	-0.006426	0.000895	0.047993	1.000000	-0.000018	0.000009	0.000018	-179.279021	-77.389905	-154.576862
06879	9.620761	-0.017845	-2.169993	0.011716	0.016314	0.049758	1.000000	-0.000013	0.000024	0.000028	-179.277348	-77.390064	-154.579584
06880	9.624226	-0.024661	-2.146328	-0.006869	-0.000258	0.047993	1.000000	-0.000009	0.000009	0.000033	-179.272486	-77.388387	-154.584057
06881	9.609681	0.001603	-2.162149	-0.001767	0.031520	0.037179	1.000000	-0.000016	0.000033	0.000021	-179.274523	-77.389518	-154.584398
06882	9.606444	0.007617	-2.184809	0.016367	0.046938	0.038950	1.000000	-0.000025	0.000039	0.000015	-179.280942	-77.391355	-154.579245
06883	9.591932	-0.068116	-2.074790	-0.043747	-0.067003	0.000984	1.000000	0.000006	0.000012	0.000033	-179.274459	-77.390180	-154.588264
06884	9.605402	-0.041353	-2.298718	0.137921	0.052164	0.062930	1.000000	-0.000016	0.000033	0.000021	-179.276392	-77.391271	-154.586550
06885	9.652963	-0.027508	-2.097075	-0.054118	-0.026629	0.065295	1.000000	-0.000036	0.000019	0.000028	-179.277427	-77.390728	-154.588541
06886	9.588843	-0.012132	-2.159659	0.006551	0.020122	0.016338	1.000000	-0.000006	0.000026	0.000028	-179.274874	-77.391073	-154.590267
06887	9.590014	-0.065316	-2.173470	0.041843	-0.021690	0.020643	1.000000	-0.000006	0.000026	0.000028	-179.272358	-77.391421	-154.592612
06888	9.661251	0.057450	-1.997231	-0.180893	0.006108	0.051350	1.000000	0.000010	-0.000002	0.000031	-179.266620	-77.388509	-154.595798
06889	9.594539	-0.125385	-2.164011	0.058559	-0.080066	0.023165	1.000000	-0.000021	0.000022	0.000028	-179.265687	-77.388453	-154.599914
06890	9.671388	0.038965	-2.181545	-0.013715	0.067840	0.101525	1.000000	-0.000002	0.000012	0.000026	-179.264002	-77.387124	-154.600320
06891	9.587929	-0.113597	-2.209994	0.094832	-0.049222	0.026720	1.000000	-0.000031	0.000030	0.000014	-179.271851	-77.387913	-154.594795
06892	9.658040	0.012509	-2.211145	0.026665	0.057806	0.095037	1.000000	-0.000014	0.000025	0.000020	-179.274217	-77.388167	-154.592422
06893	9.644731	0.035890	-2.049147	-0.122818	0.010334	0.046620	1.000000	-0.000006	0.000027	0.000020	-179.275682	-77.388664	-154.590160
06894	9.587222	-0.061917	-2.194155	0.058645	-0.009707	0.022425	1.000000	-0.000013	0.000024	0.000028	-179.274004	-77.388789	-154.591867
06895	9.649402	0.027170	-2.102089	-0.073510	0.024804	0.062760	1.000000	-0.000019	0.000016	0.000019	-179.277773	-77.388020	-154.589671
06896	9.633527	-0.096636	-2.107069	-0.011601	-0.082729	0.048699	1.000000	-0.000013	0.000023	0.000036	-179.272050	-77.388017	-154.595459
06897	9.582028	0.048396	-2.187699	0.005295	0.087020	0.015641	1.000000	-0.000012	0.000018	0.000019	-179.275131	-77.387488	-154.592829
06898	9.619089	-0.070555	-2.122523	-0.006724	-0.051522	0.037909	1.000000	-0.000037	0.000021	0.000012	-179.284165	-77.387213	-154.586319
06899	9.629409	0.012416	-2.177939	0.003155	0.045620	0.059850	1.000000	-0.000000	0.000004	0.000025	-179.283135	-77.385118	-154.587096
06900	9.625992	-0.032866	-2.138282	-0.011289	-0.011819	0.047981	1.000000	-0.000026	0.000012	0.000035	-179.279596	-77.383840	-154.592186
06901	9.614839	-0.012860	-2.130822	-0.024545	0.003973	0.035413	1.000000	0.000003	0.000022	0.000019	-179.280790	-77.383761	-154.591341
06902	9.637327	-0.054355	-2.144895	0.001320	-0.029343	0.060546	1.000000	-0.000014	-0.000002	0.000040	-179.273201	-77.380899	-154.599209
06903	9.597969	-0.033524	-2.184440	0.034197	0.009968	0.030718	1.000000	-0.000010	0.000011	0.000018	-179.276519	-77.379497	-154.595101
06904	9.616077	-0.015885	-2.207474	0.042879	0.033880	0.053373	1.000000	-0.000019	0.000015	0.000027	-179.276151	-77.378567	-154.596128
06905	9.622893	-0.028756	-2.160398	0.005968	0.001296	0.049776	1.000000	-0.000022	0.000024	0.000012	-179.283540	-77.378794	-154.592827
06906	9.605024	0.003955	-2.199609	0.029396	0.049097	0.040815	1.000000	-0.000026	0.000012	0.000035	-179.280005	-77.377516	-154.597912
06907	9.626419	-0.035985	-2.136308	-0.012838	-0.015864	0.047974	1.000000	-0.000022	0.000029	0.000037	-179.274646	-77.378086	-154.601752
06908	9.608579	-0.003479	-2.175412	0.010586	0.031941	0.039018	1.000000	-0.000004	0.000019	0.000027	-179.272529	-77.377593	-154.602816
06909	9.612032	-0.010264	-2.151649	-0.007990	0.015358	0.037214	1.000000	-0.000013	0.000024	0.000028	-179.270803	-77.377699	-154.604801
06910	9.644751	-0.019441	-2.158354	-0.004615	0.006884	0.070633	1.000000	-0.000003	0.000013	0.000018	-179.273161	-77.376498	-154.601129
06911	9.641457	-0.013546	-2.181418	0.013494	0.022311	0.072441	1.000000	-0.000011	0.000017	0.000027	-179.271852	-77.375732	-154.599448
06912	9.602109	-0.043617	-2.157578	0.013824	-0.011216	0.028920	1.000000	-0.000012	0.000050	0.000016	-179.276084	-77.378845	-154.594993
06913	9.620326	-0.025898	-2.180193	0.022481	0.012684	0.051587	1.000000	-0.000012	0.000018	0.000019	-179.278817	-77.378195	-154.589141
06914	9.602343	-0.044467	-2.156521	0.013365	-0.012370	0.028919	1.000000	-0.000005	0.000024	0.000044	-179.268185	-77.378281	-154.599017
06915	9.627239	-0.039644	-2.132545	-0.014645	-0.020497	0.047963	1.000000	-0.000016	0.000033	0.000021	-179.270320	-77.379393	-154.597890
06916	9.617331	-0.021090	-2.201963	0.040153	0.026960	0.053406	1.000000	-0.000016	0.000033	0.000021	-179.272254	-77.380484	-154.596174
06917	9.624147	-0.034179	-2.154729	0.003241	-0.005641	0.049776	1.000000	-0.000013	0.000023	0.000036	-179.266485	-77.380444	-154.600667
06918	9.627604	-0.041030	-2.130872	-0.015322	-0.022232	0.047958	1.000000	-0.000022	0.000030	0.000029	-179.265254	-77.381188	-154.603008
06919	9.632250	-0.049337	-2.184138	0.034188	-0.007156	0.064150	1.000000	0.000001	0.000029	0.000020	-179.265994	-77.381904	-154.599699
06920	9.621181	-0.029199	-2.176376	0.020912	0.008639	0.051595	1.000000	-0.000032	0.000036	0.000023	-179.269248	-77.383395	-154.598600
06921	9.624655	-0.035907	-2.152429	0.002357	-0.007956	0.049775	1.000000	-0.000006	0.000026	0.000028	-179.266845	-77.383767	-154.600294
06922	9.649610	-0.030941	-2.128144	-0.025662	-0.016096	0.068811	1.000000	0.000001	0.000061	0.000017	-179.268892	-77.388154	-154.596537
06923	9.603602	-0.048500	-2.150818	0.011356	-0.017567	0.028914	1.000000	-0.000022	0.000029	0.000037	-179.263605	-77.388696	-154.599147
06924	9.639709	-0.064093	-2.133897	-0.003606	-0.042084	0.060500	1.000000	-0.000008	0.000035	0.000021	-179.264665	-77.390005	-154.597449
06925	9.596020	-0.035111	-2.119007	-0.020475	-0.018373	0.014533	1.000000	-0.000018	0.000041	0.000015	-179.270405	-77.392058	-154.589481
06926	9.632125	-0.050464	-2.102072	-0.035436	-0.042895	0.046115	1.000000	-0.000021	0.000023	0.000020	-179.273656	-77.392094	-154.587079
06927	9.599592	-0.041926	-2.094547	-0.039252	-0.035550	0.012700	1.000000	-0.000007	0.000028	0.000012	-179.279239	-77.392684	-154.577846
06928	9.629013	-0.044497	-2.124427	-0.017551	-0.028035	0.047940	1.000000	-0.000030	0.000024	0.000005	-179.291458	-77.392759	-154.567259
06929	9.624519	-0.036979	-2.070317	-0.067491	-0.044283	0.031723	1.000000	-0.000016	0.000006	0.000041	-179.283450	-77.390738	-154.577744
06930	9.578372	-0.054566	-2.093653	-0.030454	-0.045720	-0.008171	1.000000	-0.000012	0.000018	0.000019	-179.286256	-77.390155	-154.574705
06931	9.617990	-0.025195	-2.116442	-0.031279	-0.013392	0.035386	1.000000	-0.000012	0.000018	0.000019	-179.288943	-77.389578	-154.569250
06932	9.636160	-0.007581	-2.139416	-0.022643	0.010492	0.058083	1.000000	-0.000010	0.000010	0.000026	-179.288138	-77.388029	-154.569633
06933	9.644104	-0.022154	-2.169613	0.008522	0.009564	0.072467	1.000000	-0.000004	0.000020	0.000019	-179.290113	-77.387684	-154.567514
06934	9.622742	-0.034230	-2.169387	0.017765	0.000552	0.051605	1.000000	-0.000019	0.000015	0.000027	-179.289753	-77.386753	-154.568534
06935	9.622804	-0.034572	-2.169107	0.017541	-0.000024	0.051606	1.000000	-0.000027	0.000014	0.000019	-179.294289	-77.385734	-154.566439
06936	9.600462	0.006092	-2.154564	-0.008803	0.032148	0.026517	1.000000	0.000005	0.000014	0.000018	-179.295770	-77.384750	-154.562787
06937	9.622912	-0.035273	-2.168618	0.017091	-0.001171	0.051606	1.000000	-0.000017	0.000008	0.000026	-179.295663	-77.382994	-154.563233
06938	9.611775	-0.015221	-2.161195	0.003806	0.014627	0.039063	1.000000	-0.000021	0.000022	0.000028	-179.294871	-77.382901	-154.564910
06939	9.604008	-0.001524	-2.130194	-0.027786	0.014412	0.024676	1.000000	-0.000015	0.000032	0.000029	-179.292674	-77.383973	-154.572926
06940	9.608674	-0.009914	-2.183587	0.021697	0.029511	0.040913	1.000000	-0.000018	0.000014	0.000035	-179.288274	-77.382913	-154.578022
06941	9.600880	0.003780	-2.152708	-0.009895	0.029285	0.026525	1.000000	-0.000006	0.000027	0.000020	-179.289940	-77.383461	-154.579376
06942	9.604291	-0.002971	-2.128917	-0.028444	0.012682	0.024676	1.000000	-0.000004	0.000019	0.000027	-179.287826	-77.382967	-154.580439
06943	9.611296	0.034971	-2.144694	-0.032858	0.052937	0.034854	1.000000	-0.000018	0.000014	0.000035	-179.283563	-77.382002	-154.589440
06944	9.622559	0.013786	-2.151531	-0.020025	0.035979	0.047395	1.000000	-0.000003	0.000017	0.000042	-179.273368	-77.381250	-154.598656
06945	9.605777	-0.006324	-2.205113	0.038937	0.042650	0.042777	1.000000	0.000003	0.000022	0.000019	-179.274625	-77.381126	-154.597381
06946	9.641821	-0.022066	-2.188334	0.023971	0.018084	0.074329	1.000000	-0.000005	0.000024	0.000044	-179.263997	-77.381210	-154.607255
06947	9.594474	-0.038232	-2.134197	-0.006996	-0.015003	0.016347	1.000000	-0.000008	0.000034	0.000029	-179.261207	-77.382437	-154.611207
06948	9.655630	0.002496	-2.156605	-0.017327	0.025693	0.080805	1.000000	-0.000005	0.000025	0.000036	-179.254620	-77.382650	-154.617004
06949	9.642149	-0.023994	-2.186869	0.023304	0.016346	0.074334	1.000000	-0.000001	0.000011	0.000033	-179.248894	-77.381183	-154.622290
06950	9.624085	-0.042576	-2.163276	0.014236	-0.008672	0.051607	1.000000	0.000002	0.000028	0.000028	-179.245467	-77.381744	-154.624033
06951	9.613017	-0.022628	-2.155603	0.000967	0.007129	0.039072	1.000000	0.000002	0.000028	0.000028	-179.242305	-77.382374	-154.628987
06952	9.606152	-0.061633	-2.139064	0.004960	-0.034269	0.028875	1.000000	-0.000004	0.000019	0.000027	-179.240195	-77.381880	-154.630045
06953	9.624399	-0.044188	-2.161845	0.013588	-0.010411	0.051606	1.000000	-0.000029	0.000027	0.000037	-179.235998	-77.382328	-154.639206
06954	9.610022	-0.017848	-2.177596	0.018626	0.021425	0.040940	1.000000	0.000003	0.000022	0.000019	-179.237049	-77.382182	-154.636211
06955	9.621306	-0.038775	-2.184284	0.031460	0.004461	0.053473	1.000000	-0.000013	0.000024	0.000028	-179.235453	-77.382300	-154.637680
06956	9.634985	-0.013437	-2.153132	-0.009626	0.012643	0.059943	1.000000	-0.000015	0.000032	0.000029	-179.233352	-77.383262	-154.640034
06957	9.646287	-0.034424	-2.159725	0.003206	-0.004321	0.072474	1.000000	-0.000013	0.000024	0.000028	-179.231661	-77.383371	-154.641996
06958	9.613738	-0.026132	-2.152345	-0.000595	0.003086	0.039075	1.000000	-0.000011	0.000016	0.000035	-179.226393	-77.382529	-154.647105
06959	9.624964	-0.047134	-2.159268	0.012245	-0.013876	0.051604	1.000000	-0.000024	0.000006	0.000026	-179.227403	-77.380571	-154.648796
06960	9.625069	-0.047574	-2.158787	0.012021	-0.014454	0.051603	1.000000	-0.000026	0.000044	0.000031	-179.225310	-77.382990	-154.652449
06961	9.600466	-0.053481	-2.181662	0.039606	-0.007402	0.032608	1.000000	0.000004	0.000020	0.000035	-179.218552	-77.382602	-154.657891
06962	9.625307	-0.048645	-2.157705	0.011580	-0.015616	0.051602	1.000000	-0.000030	0.000029	0.000021	-179.222256	-77.383259	-154.656117
06963	9.596081	-0.046423	-2.126798	-0.010524	-0.024226	0.016325	1.000000	-0.000023	0.000031	0.000021	-179.225101	-77.384201	-154.657894
06964	9.622238	-0.042987	-2.180095	0.029458	-0.000734	0.053480	1.000000	-0.000010	0.000010	0.000026	-179.224313	-77.382652	-154.658263
06965	9.602810	-0.059966	-2.079302	-0.047593	-0.057446	0.012560	1.000000	-0.000008	0.000034	0.000029	-179.221514	-77.383870	-154.662448
06966	9.619205	-0.037643	-2.202352	0.047332	0.014142	0.055364	1.000000	-0.000024	0.000037	0.000030	-179.219860	-77.385452	-154.665437
06967	9.612339	-0.076469	-2.185660	0.051354	-0.027248	0.045133	1.000000	-0.000007	0.000028	0.000012	-179.225542	-77.386121	-154.662075
06968	9.598023	-0.049998	-2.201284	0.056385	0.004601	0.034495	1.000000	-0.000008	0.000034	0.000029	-179.222561	-77.387301	-154.664454
06969	9.611263	-0.075703	-2.107194	-0.017094	-0.060112	0.026951	1.000000	-0.000025	0.000039	0.000015	-179.229092	-77.389143	-154.659491
06970	9.611913	-0.024748	-2.169167	0.015073	0.012188	0.040962	1.000000	-0.000010	0.000043	0.000015	-179.233758	-77.391420	-154.654374
06971	9.659170	-0.060767	-2.159106	0.013159	-0.028821	0.084989	1.000000	-0.000010	0.000042	0.000023	-179.234233	-77.393544	-154.652646
06972	9.610876	-0.023951	-2.090459	-0.053381	-0.020676	0.022772	1.000000	-0.000016	0.000033	0.000021	-179.236179	-77.394636	-154.650918
06973	9.629200	-0.006248	-2.113061	-0.044783	0.003156	0.045535	1.000000	-0.000007	0.000028	0.000012	-179.241865	-77.395246	-154.644638
06974	9.604560	-0.011800	-2.136199	-0.017202	0.010237	0.026553	1.000000	-0.000010	0.000011	0.000018	-179.245121	-77.393827	-154.640925
06975	9.622846	0.006001	-2.159000	-0.008601	0.034074	0.049323	1.000000	-0.000007	0.000029	0.000005	-179.254785	-77.394609	-154.632796
06976	9.604712	-0.012395	-2.135514	-0.017641	0.009086	0.026554	1.000000	0.000001	0.000002	0.000040	-179.245465	-77.392180	-154.640692
06977	9.603866	0.039737	-2.120931	-0.053482	0.049671	0.022395	1.000000	-0.000027	0.000014	0.000019	-179.250052	-77.391189	-154.638713
06978	9.601570	-0.006759	-2.158335	0.000223	0.023972	0.028452	1.000000	-0.000022	0.000024	0.000012	-179.257361	-77.391357	-154.632215
06979	9.633366	0.036654	-2.150691	-0.032056	0.056528	0.057689	1.000000	-0.000005	-0.000006	0.000031	-179.253467	-77.388019	-154.635756
06980	9.615186	0.018060	-2.127397	-0.041092	0.031542	0.034915	1.000000	-0.000003	0.000018	0.000035	-179.247320	-77.387394	-154.640890
06981	9.623168	0.003282	-2.157570	-0.009941	0.030608	0.049333	1.000000	-0.000018	0.000014	0.000035	-179.243028	-77.386363	-154.646668
06982	9.615342	0.016890	-2.126703	-0.041537	0.030386	0.034916	1.000000	-0.000006	0.000026	0.000028	-179.240486	-77.386705	-154.648384
06983	9.623376	0.002184	-2.156642	-0.010383	0.029447	0.049336	1.000000	0.000009	0.000030	0.000028	-179.236419	-77.387512	-154.650832
06984	9.612326	0.022085	-2.149000	-0.023672	0.045265	0.036825	1.000000	-0.000013	0.000023	0.000036	-179.230722	-77.387507	-154.656597
06985	9.626811	-0.005483	-2.132466	-0.029130	0.012250	0.047431	1.000000	-0.000001	0.000009	0.000041	-179.221104	-77.385961	-154.666747
06986	9.623624	0.000129	-2.155534	-0.011050	0.027713	0.049340	1.000000	0.000004	0.000020	0.000035	-179.214077	-77.385552	-154.671905
06987	9.594357	0.002135	-2.124709	-0.033124	0.019131	0.014042	1.000000	-0.000008	0.000035	0.000021	-179.215393	-77.386934	-154.672612
06988	9.610308	-0.026673	-2.185129	0.029388	0.017841	0.042886	1.000000	-0.000020	0.000021	0.000036	-179.210583	-77.386711	-154.678346
06989	9.620703	0.004833	-2.177446	0.006621	0.042001	0.051258	1.000000	-0.000003	0.000018	0.000035	-179.205113	-77.386173	-154.686115
06990	9.646334	-0.043345	-2.168031	0.014217	-0.007416	0.074362	1.000000	-0.000002	0.000016	0.000050	-179.190895	-77.385285	-154.699396
06991	9.592252	-0.046959	-2.161154	0.019943	-0.008303	0.020096	1.000000	-0.000021	-0.000005	0.000048	-179.180355	-77.382071	-154.710648
06994	9.627139	-0.061257	-2.152072	0.033223	-0.082868	19.781987	1.000000	-0.000050	0.000053	0.000089	-179.151334	-77.385430	-154.744736
06995	9.633053	-0.072246	-2.197383	0.054426	-0.017869	0.067907	1.000000	-0.000013	0.000023	0.000036	-179.145896	-77.385436	-154.750058
06996	9.611690	-0.084496	-2.197051	0.063709	-0.026792	0.047027	1.000000	-0.000014	0.000031	0.000037	-179.139761	-77.386266	-154.756485
06998	9.631421	-0.096135	-2.176327	0.093927	-0.094882	9.936284	1.000000	-0.000021	0.000058	0.000057	-179.123837	-77.390172	-154.773129
06999	9.612050	-0.086159	-2.195410	0.063263	-0.027944	0.047027	1.000000	-0.000005	0.000025	0.000036	-179.117256	-77.390381	-154.778921
07000	9.625739	-0.060842	-2.164158	0.022162	-0.019826	0.053480	1.000000	-0.000009	0.000036	0.000014	-179.122438	-77.391802	-154.772053
07001	9.632358	-0.073759	-2.116709	-0.014660	-0.052496	0.049627	1.000000	0.000013	0.000042	0.000006	-179.128909	-77.394028	-154.762297
07002	9.622875	-0.054953	-2.185896	0.040006	-0.004937	0.055405	1.000000	-0.000019	0.000047	0.000024	-179.130044	-77.396744	-154.759526
07003	9.621553	-0.053883	-2.108004	-0.028177	-0.037258	0.037119	1.000000	-0.000006	0.000027	0.000020	-179.131545	-77.397217	-154.757161
07004	9.639960	-0.036222	-2.130482	-0.019611	-0.013450	0.059928	1.000000	-0.000010	0.000043	0.000015	-179.136263	-77.399536	-154.753704
07005	9.604276	-0.021159	-2.146168	-0.005092	0.010088	0.028475	1.000000	-0.000016	0.000034	0.000014	-179.142252	-77.400762	-154.747893
07006	9.604402	-0.021419	-2.145602	-0.005323	0.009508	0.028476	1.000000	-0.000014	0.000025	0.000020	-179.144652	-77.400978	-154.743738
07007	9.625990	-0.010057	-2.144921	-0.015064	0.017262	0.049359	1.000000	-0.000022	0.000024	0.000012	-179.151975	-77.401150	-154.737225
07008	9.632537	-0.022939	-2.097680	-0.051888	-0.015418	0.045489	1.000000	-0.000024	0.000032	0.000014	-179.158644	-77.402101	-154.729190
07009	9.603208	-0.020523	-2.067010	-0.073956	-0.023975	0.010169	1.000000	-0.000018	0.000010	0.000010	-179.166851	-77.400598	-154.721345
07010	9.626259	-0.010563	-2.143712	-0.015754	0.015526	0.049360	1.000000	-0.000012	0.000018	0.000019	-179.169754	-77.400000	-154.717223
07011	9.604867	-0.022389	-2.143512	-0.006459	0.006624	0.028477	1.000000	-0.000022	0.000024	0.000012	-179.177076	-77.400172	-154.710711
07012	9.626454	-0.011106	-2.142834	-0.016187	0.014375	0.049361	1.000000	-0.000013	0.000024	0.000028	-179.175502	-77.400390	-154.715739
07013	9.601850	-0.016806	-2.165998	0.011399	0.021530	0.030420	1.000000	-0.000011	0.000017	0.000027	-179.174293	-77.399678	-154.716754
07014	9.626594	-0.012025	-2.142200	-0.016641	0.013217	0.049362	1.000000	-0.000017	0.000008	0.000026	-179.174408	-77.397889	-154.715876
07015	9.626666	-0.012492	-2.141874	-0.016866	0.012639	0.049363	1.000000	-0.000006	0.000026	0.000028	-179.171869	-77.398230	-154.717589
07016	9.590936	0.002420	-2.157850	-0.002362	0.036201	0.017931	1.000000	-0.000029	0.000022	0.000020	-179.176025	-77.398000	-154.712683
07017	9.615689	0.007297	-2.134004	-0.030398	0.027882	0.036871	1.000000	-0.000017	0.000008	0.000026	-179.176147	-77.396234	-154.713000
07018	9.637218	0.018434	-2.133602	-0.040139	0.035614	0.057757	1.000000	-0.000002	0.000012	0.000026	-179.174713	-77.394941	-154.714469
07019	9.626928	-0.014229	-2.140684	-0.017765	0.010318	0.049364	1.000000	-0.000011	0.000016	0.000035	-179.169465	-77.394097	-154.719561
07020	9.645302	0.003181	-2.163427	-0.009226	0.034102	0.072202	1.000000	-0.000013	0.000024	0.000028	-179.168039	-77.394232	-154.721055
07021	9.623900	-0.008787	-2.163257	0.000076	0.025215	0.051317	1.000000	-0.000019	0.000016	0.000019	-179.171761	-77.393435	-154.717956
07022	9.605680	-0.027121	-2.139811	-0.008898	0.000269	0.028478	1.000000	-0.000011	0.000017	0.000027	-179.170668	-77.392757	-154.719869
07023	9.599364	-0.014774	-2.186155	0.027445	0.031813	0.032389	1.000000	-0.000004	0.000020	0.000019	-179.172611	-77.392393	-154.716837
07024	9.610546	-0.035858	-2.193073	0.040306	0.014828	0.044879	1.000000	0.000001	0.000002	0.000040	-179.163491	-77.390007	-154.726135
07025	9.602628	-0.022340	-2.162495	0.008723	0.014598	0.030435	1.000000	-0.000041	0.000008	0.000034	-179.161807	-77.388298	-154.731089
07026	9.602656	-0.022910	-2.162366	0.008493	0.014026	0.030436	1.000000	0.000008	0.000005	0.000032	-179.155531	-77.386190	-154.734086
07027	9.605911	-0.029857	-2.138736	-0.010013	-0.002612	0.028476	1.000000	-0.000013	0.000024	0.000028	-179.153884	-77.386315	-154.735763
07028	9.602821	-0.023957	-2.161619	0.008060	0.012867	0.030438	1.000000	-0.000013	0.000024	0.000028	-179.152575	-77.386503	-154.739351
07029	9.599717	-0.018125	-2.184582	0.026116	0.028353	0.032403	1.000000	-0.000011	0.000016	0.000035	-179.147335	-77.385658	-154.744436
07030	9.635617	-0.034101	-2.167742	0.011148	0.003599	0.063812	1.000000	-0.000005	0.000025	0.000036	-179.140780	-77.385836	-154.749006
07031	9.638918	-0.041125	-2.143876	-0.007356	-0.013043	0.061846	1.000000	-0.000022	0.000029	0.000037	-179.135545	-77.386449	-154.755391
07032	9.614352	-0.046970	-2.166919	0.020229	-0.005844	0.042924	1.000000	0.000002	0.000027	0.000036	-179.127926	-77.386853	-154.760515
07033	9.633537	-0.082132	-2.203992	0.064437	-0.023172	0.069857	1.000000	-0.000030	0.000029	0.000021	-179.131655	-77.387515	-154.758714
07034	9.625712	-0.068383	-2.172986	0.032859	-0.023409	0.055405	1.000000	-0.000006	0.000026	0.000028	-179.129214	-77.387847	-154.760151
07035	9.625834	-0.068888	-2.172431	0.032635	-0.023986	0.055404	1.000000	-0.000015	0.000032	0.000029	-179.127124	-77.388808	-154.762495
07036	9.593332	-0.060335	-2.164991	0.028875	-0.016441	0.022034	1.000000	-0.000014	0.000025	0.000020	-179.129612	-77.389073	-154.760503
07037	9.626077	-0.069636	-2.171329	0.032190	-0.025142	0.055403	1.000000	-0.000016	0.000033	0.000021	-179.131560	-77.390168	-154.758771
07038	9.626216	-0.069979	-2.170702	0.031975	-0.025718	0.055402	1.000000	-0.000016	0.000033	0.000021	-179.133564	-77.391315	-154.759157
07039	9.618417	-0.056138	-2.139550	0.000398	-0.025952	0.040947	1.000000	-0.000001	0.000037	0.000014	-179.137768	-77.392974	-154.753418
07040	9.604279	-0.029492	-2.155063	0.005374	0.005949	0.030447	1.000000	-0.000032	0.000036	0.000022	-179.141150	-77.394495	-154.753230
07041	9.618731	-0.056613	-2.138127	-0.000044	-0.027107	0.040943	1.000000	-0.000002	0.000039	0.000006	-179.149395	-77.396286	-154.743409
07042	9.634025	-0.032546	-2.183993	0.026727	0.012727	0.065797	1.000000	-0.000021	0.000022	0.000028	-179.148658	-77.396142	-154.743555
07043	9.618239	-0.004679	-2.122490	-0.036203	0.012831	0.036882	1.000000	-0.000008	0.000035	0.000021	-179.149717	-77.397452	-154.741854
07044	9.629505	-0.025588	-2.128954	-0.023342	-0.004152	0.049357	1.000000	-0.000008	0.000035	0.000021	-179.150703	-77.398804	-154.741952
07045	9.626467	-0.019456	-2.151735	-0.005295	0.011341	0.051341	1.000000	-0.000022	0.000024	0.000012	-179.158032	-77.398978	-154.735432
07046	9.623424	-0.013289	-2.174553	0.012769	0.026836	0.053329	1.000000	-0.000023	0.000031	0.000021	-179.161009	-77.399948	-154.736981
07047	9.626679	-0.020040	-2.150782	-0.005727	0.010188	0.051342	1.000000	-0.000026	0.000013	0.000027	-179.161594	-77.398804	-154.737917
07048	9.594169	-0.011442	-2.143398	-0.009488	0.017757	0.017977	1.000000	-0.000017	0.000040	0.000022	-179.163059	-77.400725	-154.736699
07049	9.615853	-0.000220	-2.142338	-0.019260	0.025447	0.038872	1.000000	-0.000034	0.000044	0.000024	-179.165915	-77.403063	-154.736219
07050	9.605597	-0.032617	-2.149138	0.003148	0.000184	0.030449	1.000000	-0.000012	0.000018	0.000019	-179.168963	-77.402485	-154.732869
07051	9.683345	0.142365	1.898153	-3.634889	-1.587814	-0.776270	1.000000	-0.000251	0.000147	0.000030	-179.192508	-77.416657	-154.736650
07052	9.640885	-1.485341	-3.120136	1.473555	-0.888082	0.283254	0.999996	0.002484	-0.001467	0.000168	-178.846763	-77.245858	-154.797629
07053	8.372210	4.016386	-2.730040	-1.047820	3.997347	-1.060458	0.999995	-0.003060	0.000787	0.000061	-179.170857	-77.333277	-154.823302
07054	11.785714	-3.788999	-2.416391	1.441348	-3.467422	2.228825	0.999999	0.001079	-0.000116	-0.000013	-179.066642	-77.317387	-154.797067
07055	8.915008	2.063869	-4.608879	1.354297	3.001709	-0.110404	1.000000	0.000247	-0.000168	-0.000057	-179.080095	-77.295670	-154.752678
07057	9.645286	-0.338102	-1.484686	-0.937122	-1.135859	9.661198	1.000000	-0.000179	0.000183	0.000073	-179.073193	-77.313654	-154.773394
07058	9.642970	-0.141061	-3.393601	1.118075	0.431776	0.340479	1.000000	-0.000236	0.000068	0.000105	-179.057312	-77.318612	-154.815877
07059	9.481086	-0.524817	-2.709392	0.720412	-0.191260	0.033716	1.000000	0.000123	0.000052	0.000020	-179.043643	-77.321926	-154.814833
07060	9.470072	0.725880	-2.236006	-0.241735	0.730036	-0.085535	1.000000	0.000085	0.000106	0.000021	-179.033506	-77.331408	-154.813636
07061	9.772550	-0.879338	-1.819909	0.043023	-0.917530	0.124331	1.000000	-0.000153	0.000197	0.000019	-179.050850	-77.351162	-154.806360
07062	9.441308	0.060123	-2.280683	0.101256	0.155505	-0.101406	1.000000	-0.000126	0.000120	-0.000002	-179.076486	-77.362278	-154.793291
07063	9.758889	-0.066746	-2.254856	0.072788	0.000657	0.203272	1.000000	-0.000008	0.000030	-0.000003	-179.089512	-77.362819	-154.769404
07064	9.567046	0.281288	-1.800215	-0.439673	0.135572	-0.084554	1.000000	0.000012	0.000112	0.000016	-179.090128	-77.373006	-154.765794
07065	9.392978	-0.474756	-1.982620	0.088241	-0.448290	-0.211882	1.000000	-0.000079	0.000032	0.000023	-179.097692	-77.373809	-154.761867
07066	9.563416	0.042859	-2.373733	0.169074	0.168836	0.038114	1.000000	0.000080	0.000001	0.000021	-179.088883	-77.371277	-154.759944
07067	9.672904	-0.125711	-1.719994	-0.351748	-0.274047	0.002629	1.000000	0.000025	-0.000032	0.000042	-179.075641	-77.364838	-154.767686
07068	9.580791	0.011617	-2.512645	0.299118	0.198930	0.085597	1.000000	0.000006	-0.000019	0.000029	-179.071758	-77.360020	-154.769442
07069	9.590843	-0.224793	-2.068323	0.011458	-0.205640	-0.000942	1.000000	0.000026	-0.000006	0.000030	-179.064503	-77.356617	-154.771470
07070	9.698933	0.200305	-2.374521	0.070520	0.297728	0.170006	1.000000	0.000020	0.000018	0.000018	-179.064201	-77.356060	-154.767890
07071	9.650363	-0.026855	-2.046768	-0.106756	-0.042883	0.051706	1.000000	-0.000030	0.000029	0.000021	-179.067620	-77.356484	-154.757550
07072	9.618221	-0.010770	-2.394879	0.197307	0.124441	0.096466	1.000000	-0.000019	0.000015	0.000027	-179.067321	-77.355555	-154.758513
07073	9.723813	-0.059627	-2.089677	-0.068840	-0.060747	0.132885	1.000000	-0.000019	0.000074	0.000004	-179.077908	-77.361217	-154.742933
07074	9.669857	-0.002261	-2.422256	0.208989	0.139437	0.152770	1.000000	-0.000049	0.000102	0.000033	-179.077174	-77.370251	-154.747828
07075	9.656182	-0.035682	-2.095915	-0.058143	-0.029431	0.068190	1.000000	-0.000018	0.000073	0.000012	-179.083424	-77.375797	-154.740103
07076	9.653403	-0.029430	-2.117658	-0.040127	-0.013910	0.070214	1.000000	-0.000031	0.000093	0.000015	-179.089859	-77.383855	-154.735590
07077	9.638530	-0.053827	-2.069398	-0.067277	-0.054898	0.045255	1.000000	-0.000048	0.000098	0.000008	-179.101101	-77.392351	-154.727645
07078	9.581646	-0.049859	-2.084462	-0.043209	-0.039392	-0.006975	1.000000	-0.000045	0.000083	0.000006	-179.113831	-77.399274	-154.718285
07079	9.593701	-0.022992	-1.975298	-0.152200	-0.063379	-0.019106	1.000000	-0.000003	0.000045	0.000015	-179.117187	-77.401519	-154.704256
07080	9.604971	-0.043888	-1.981571	-0.139314	-0.080367	-0.006661	1.000000	-0.000002	0.000044	0.000023	-179.116897	-77.403878	-154.703272
07081	9.574930	0.010874	-1.936186	-0.197105	-0.047852	-0.046056	1.000000	-0.000006	0.000026	0.000028	-179.114098	-77.404087	-154.698551
07082	9.563227	-0.016703	-2.043793	-0.088601	-0.025009	-0.033925	1.000000	0.000023	0.000009	0.000032	-179.106163	-77.402423	-154.702462
07083	9.635111	0.055616	-2.058890	-0.122093	0.039741	0.039267	1.000000	-0.000003	-0.000014	0.000038	-179.097949	-77.397819	-154.705944
07084	9.601984	-0.040097	-2.004270	-0.122028	-0.066594	-0.004656	1.000000	0.000022	-0.000017	0.000044	-179.084183	-77.393160	-154.715953
07085	9.626292	0.020633	-2.144184	-0.032058	0.045913	0.049377	1.000000	0.000015	-0.000024	0.000028	-179.079570	-77.387690	-154.721299
07086	9.635517	0.000875	-2.074619	-0.086969	-0.003003	0.043258	1.000000	-0.000024	-0.000026	0.000029	-179.079268	-77.382010	-154.722904
07087	9.680863	-0.030610	-2.166236	-0.002770	0.003717	0.107626	1.000000	-0.000040	-0.000025	0.000045	-179.072441	-77.376429	-154.728821
07088	9.645051	-0.015690	-2.183135	0.011708	0.027465	0.076319	1.000000	-0.000012	-0.000014	0.000022	-179.073932	-77.372150	-154.727103
07089	9.688655	-0.045776	-2.197494	0.028101	0.002262	0.122116	1.000000	-0.000024	-0.000027	0.000036	-179.069522	-77.366244	-154.726210
07090	9.644917	-0.016718	-2.183720	0.011237	0.026305	0.076323	1.000000	-0.000041	0.000008	0.000034	-179.067890	-77.364535	-154.731117
07091	9.596301	-0.079742	-2.245383	0.102437	0.000582	0.042595	1.000000	-0.000050	0.000010	0.000011	-179.079075	-77.362878	-154.722207
07092	9.628591	-0.092743	-2.074247	-0.048043	-0.088235	0.036717	1.000000	-0.000036	0.000020	0.000020	-179.084150	-77.362489	-154.719694
07093	9.594676	-0.078838	-2.167660	0.034193	-0.032511	0.024007	1.000000	-0.000041	0.000009	0.000027	-179.086158	-77.360837	-154.721913
07094	9.565225	-0.076426	-2.137247	0.012229	-0.040982	-0.011394	1.000000	-0.000027	0.000015	0.000011	-179.094805	-77.359959	-154.714707
07095	9.584299	-0.111306	-2.174735	0.056466	-0.058252	0.015541	1.000000	0.000001	-0.000002	0.000016	-179.098203	-77.357114	-154.710109
07096	9.586768	-0.065409	-2.136882	0.002197	-0.033950	0.009508	1.000000	-0.000006	-0.000004	0.000016	-179.102364	-77.354020	-154.705047
07097	9.594705	-0.079984	-2.167492	0.033303	-0.034812	0.024002	1.000000	0.000011	-0.000010	0.000030	-179.097138	-77.350157	-154.695845
07098	9.616158	-0.068909	-2.167535	0.023481	-0.027211	0.044907	1.000000	-0.000001	-0.000026	0.000012	-179.102631	-77.344551	-154.688782
07099	9.631377	-0.044977	-2.214343	0.050045	0.012641	0.069929	1.000000	0.000013	-0.000017	0.000029	-179.097458	-77.339728	-154.686512
07100	9.639277	-0.059634	-2.245087	0.081154	0.011788	0.084429	1.000000	0.000003	-0.000010	0.000022	-179.097142	-77.335876	-154.684888
07101	9.617113	-0.018792	-2.230897	0.054670	0.044028	0.059556	1.000000	-0.000016	0.000003	0.000009	-179.105366	-77.333477	-154.680451
07102	9.652867	-0.034450	-2.214227	0.039752	0.019086	0.090841	1.000000	-0.000027	0.000014	0.000019	-179.109978	-77.332464	-154.677320
07103	9.624606	0.019413	-2.246215	0.049705	0.083597	0.070098	1.000000	-0.000031	0.000031	0.000006	-179.121270	-77.333437	-154.669409
07104	9.628477	-0.039600	-2.236772	0.067114	0.025910	0.072003	1.000000	-0.000033	0.000038	0.000007	-179.132585	-77.335204	-154.660163
07105	9.628650	-0.039707	-2.236023	0.066886	0.025338	0.072006	1.000000	-0.000049	0.000040	0.000023	-179.137213	-77.337112	-154.656613
07106	9.577814	-0.048790	-2.205255	0.054540	0.008713	0.015690	1.000000	-0.000029	0.000054	0.000017	-179.142734	-77.340633	-154.652791
07108	9.609967	-0.057302	-2.171607	0.047841	-0.032204	9.892114	1.000000	-0.000083	0.000144	0.000016	-179.153734	-77.354234	-154.646724
07109	9.614407	-0.064384	-2.184858	0.039362	-0.016815	0.046965	1.000000	-0.000024	0.000064	0.000010	-179.161950	-77.358940	-154.639533
07110	9.606665	-0.050303	-2.153312	0.007787	-0.017114	0.032460	1.000000	-0.000004	0.000047	-0.000001	-179.173408	-77.361595	-154.626199
07111	9.634571	-0.051889	-2.105428	-0.038456	-0.041803	0.049222	1.000000	-0.000002	0.000044	0.000023	-179.173110	-77.363950	-154.625221
07112	9.610135	-0.057213	-2.128236	-0.010868	-0.034394	0.030384	1.000000	-0.000003	0.000046	0.000007	-179.180611	-77.366566	-154.613676
07113	9.642315	-0.013789	-2.119640	-0.043441	-0.002259	0.059770	1.000000	-0.000002	0.000038	0.000006	-179.188811	-77.368350	-154.603896
07114	9.609843	-0.004883	-2.112191	-0.047192	0.005414	0.026429	1.000000	-0.000007	0.000028	0.000012	-179.194192	-77.368898	-154.591794
07115	9.620411	0.026959	-2.104257	-0.070159	0.029391	0.034908	1.000000	-0.000005	0.000021	0.000011	-179.200146	-77.368660	-154.584713
07116	9.620476	0.026803	-2.103960	-0.070406	0.028819	0.034908	1.000000	-0.000018	0.000010	0.000010	-179.207808	-77.367083	-154.573011
07117	9.598993	0.015114	-2.104040	-0.061015	0.020095	0.013998	1.000000	-0.000019	0.000016	0.000019	-179.211528	-77.366283	-154.569917
07118	9.628591	0.012150	-2.133905	-0.039558	0.027395	0.049419	1.000000	-0.000026	0.000013	0.000027	-179.211858	-77.364959	-154.575317
07119	9.617526	0.032251	-2.126737	-0.052914	0.043224	0.036993	1.000000	-0.000020	-0.000010	0.000031	-179.209741	-77.361167	-154.578332
07120	9.639683	-0.008995	-2.140952	-0.026899	0.009836	0.061846	1.000000	-0.000036	0.000016	-0.000005	-179.226896	-77.360253	-154.557869
07121	9.628675	0.011556	-2.133529	-0.040257	0.025663	0.049421	1.000000	-0.000027	0.000014	0.000019	-179.231511	-77.359238	-154.554738
07122	9.634903	-0.001693	-2.086485	-0.076859	-0.007210	0.045244	1.000000	-0.000021	0.000022	0.000028	-179.230763	-77.359209	-154.549744
07123	9.607302	-0.000616	-2.133106	-0.031079	0.016372	0.028510	1.000000	-0.000036	0.000020	0.000020	-179.235839	-77.358817	-154.547231
07124	9.602467	0.006695	-2.078874	-0.080840	-0.000105	0.011904	1.000000	-0.000021	0.000022	0.000028	-179.234909	-77.358614	-154.543626
07125	9.610523	-0.007826	-2.109086	-0.049738	-0.000938	0.026418	1.000000	-0.000025	0.000006	0.000025	-179.235936	-77.356629	-154.543900
07126	9.610579	-0.008285	-2.108830	-0.049983	-0.001516	0.026416	1.000000	0.000004	0.000021	0.000027	-179.232763	-77.356218	-154.548474
07127	9.589086	-0.020433	-2.108935	-0.040582	-0.010221	0.005502	1.000000	0.000008	0.000004	0.000040	-179.222588	-77.353988	-154.556384
07129	9.599281	-0.013059	-2.158891	-0.005382	0.034725	9.865409	1.000000	-0.000016	0.000010	0.000066	-179.202025	-77.352295	-154.579705
07130	9.604518	0.001899	-2.155169	-0.014298	0.029052	0.030609	1.000000	0.000012	-0.000012	0.000046	-179.188716	-77.348255	-154.590345
07131	9.620457	-0.027027	-2.216344	0.048134	0.027967	0.059648	1.000000	-0.000020	-0.000010	0.000031	-179.186802	-77.344517	-154.586992
07132	9.634523	-0.054543	-2.200401	0.042864	-0.005170	0.069969	1.000000	-0.000019	-0.000017	0.000030	-179.185139	-77.339886	-154.589330
07133	9.620335	-0.028022	-2.216865	0.047659	0.026810	0.059654	1.000000	-0.000020	-0.000010	0.000031	-179.182842	-77.335959	-154.592985
07134	9.644938	-0.023439	-2.193237	0.019619	0.018195	0.078467	1.000000	-0.000032	0.000004	0.000025	-179.184778	-77.333760	-154.593208
07135	9.639405	-0.063499	-2.254370	0.091662	0.009002	0.086598	1.000000	-0.000019	0.000015	0.000027	-179.184211	-77.332795	-154.596934
07136	9.617928	-0.075462	-2.254384	0.101068	0.000313	0.065686	1.000000	-0.000028	0.000019	0.000036	-179.180352	-77.332351	-154.602582
07137	9.631559	-0.050081	-2.223252	0.059865	0.008101	0.072080	1.000000	-0.000019	0.000012	-0.000006	-179.196207	-77.330999	-154.591701
07138	9.631722	-0.050184	-2.222542	0.059639	0.007524	0.072082	1.000000	-0.000023	0.000062	0.000026	-179.196380	-77.335438	-154.592632
07139	9.610398	-0.062044	-2.221894	0.069055	-0.001156	0.051168	1.000000	-0.000010	0.000042	0.000023	-179.196984	-77.337624	-154.589055
07140	9.635209	-0.057537	-2.197317	0.041014	-0.009780	0.069974	1.000000	-0.000004	0.000050	0.000032	-179.192220	-77.340681	-154.592807
07141	9.602826	-0.048968	-2.189537	0.037277	-0.002053	0.036644	1.000000	0.000003	0.000053	0.000024	-179.190498	-77.344050	-154.592122
07142	9.598103	-0.041791	-2.134711	-0.012447	-0.018535	0.020004	1.000000	-0.000004	0.000051	0.000024	-179.189750	-77.347241	-154.591815
07143	9.606356	-0.056267	-2.164065	0.018625	-0.019360	0.034530	1.000000	-0.000008	0.000067	0.000018	-179.191784	-77.352128	-154.592533
07144	9.601611	-0.049058	-2.109276	-0.031098	-0.035841	0.017883	1.000000	-0.000008	0.000033	0.000029	-179.188798	-77.353296	-154.594919
07145	9.584638	-0.016007	-2.148050	-0.008143	0.012309	0.009707	1.000000	-0.000019	0.000047	0.000024	-179.189450	-77.355857	-154.593948
07146	9.634566	-0.058891	-2.114447	-0.028078	-0.045309	0.051205	1.000000	-0.000025	0.000039	0.000015	-179.195871	-77.357702	-154.588779
07147	9.617601	-0.025745	-2.153227	-0.005104	0.002840	0.043035	1.000000	-0.000009	0.000041	0.000030	-179.192366	-77.359623	-154.587205
07148	9.620767	-0.032569	-2.129308	-0.023504	-0.013899	0.040913	1.000000	-0.000012	0.000019	0.000011	-179.199208	-77.359169	-154.580092
07149	9.645430	-0.027699	-2.105282	-0.051535	-0.022544	0.059705	1.000000	-0.000035	0.000013	0.000011	-179.208760	-77.358134	-154.571129
07150	9.645501	-0.027941	-2.104956	-0.051759	-0.023124	0.059703	1.000000	-0.000028	0.000021	0.000028	-179.208920	-77.357823	-154.572717
07151	9.650553	-0.035984	-2.158441	-0.002513	-0.007783	0.076361	1.000000	-0.000019	0.000015	0.000027	-179.208326	-77.356789	-154.571911
07152	9.642660	-0.022138	-2.127406	-0.034056	-0.008118	0.061826	1.000000	-0.000018	0.000042	0.000007	-179.217870	-77.358980	-154.562719
07153	9.607170	-0.006680	-2.143308	-0.019639	0.015797	0.030630	1.000000	-0.000007	0.000028	0.000012	-179.222989	-77.359430	-154.558501
07154	9.610316	-0.013519	-2.119442	-0.038034	-0.000946	0.028499	1.000000	-0.000006	0.000026	0.000028	-179.220441	-77.359760	-154.560226
07155	9.610429	-0.013788	-2.118927	-0.038289	-0.001524	0.028498	1.000000	-0.000015	0.000027	0.000005	-179.230490	-77.360119	-154.547600
07156	9.632100	-0.002517	-2.118039	-0.048162	0.005979	0.049417	1.000000	-0.000014	0.000025	0.000020	-179.232869	-77.360368	-154.545214
07157	9.602645	-0.000231	-2.087362	-0.070059	-0.002431	0.013958	1.000000	-0.000008	0.000035	0.000021	-179.233783	-77.361647	-154.545720
07158	9.638388	-0.016268	-2.070262	-0.084953	-0.027512	0.045142	1.000000	-0.000004	0.000019	0.000027	-179.231674	-77.361140	-154.546785
07159	9.610839	-0.015232	-2.117060	-0.039189	-0.003838	0.028494	1.000000	-0.000010	0.000010	0.000026	-179.231052	-77.359584	-154.544098
07160	9.602853	-0.001671	-2.086402	-0.070728	-0.004173	0.013952	1.000000	-0.000009	0.000009	0.000033	-179.226262	-77.357892	-154.548521
07161	9.632472	-0.004826	-2.116343	-0.049305	0.003084	0.049413	1.000000	-0.000017	0.000008	0.000026	-179.226223	-77.356038	-154.553443
07162	9.610925	-0.016589	-2.116659	-0.039878	-0.005568	0.028490	1.000000	-0.000023	-0.000000	0.000017	-179.231721	-77.353348	-154.548986
07163	9.604850	-0.004088	-2.163488	-0.003777	0.026195	0.032776	1.000000	-0.000003	-0.000014	0.000038	-179.224200	-77.348985	-154.554044
07164	9.640443	-0.020333	-2.147046	-0.018672	0.001102	0.063953	1.000000	-0.000015	-0.000001	0.000032	-179.220756	-77.346241	-154.557756
07165	9.618861	-0.032245	-2.147506	-0.009252	-0.007543	0.043030	1.000000	-0.000014	-0.000007	0.000023	-179.221607	-77.342745	-154.553557
07166	9.637420	-0.014808	-2.170393	-0.000971	0.016119	0.066099	1.000000	-0.000018	0.000014	0.000034	-179.217289	-77.341676	-154.558587
07167	9.591318	-0.031712	-2.194284	0.036289	0.015596	0.026403	1.000000	-0.000010	0.000010	0.000026	-179.216487	-77.340196	-154.556952
07168	9.634995	-0.061946	-2.208010	0.052711	-0.009744	0.072119	1.000000	-0.000009	0.000009	0.000033	-179.211705	-77.338503	-154.561367
07169	9.602438	-0.053200	-2.201042	0.048984	-0.001960	0.038802	1.000000	-0.000003	0.000014	0.000010	-179.217740	-77.337404	-154.557105
07170	9.624069	-0.042164	-2.200370	0.039099	0.005524	0.059726	1.000000	-0.000011	0.000016	0.000035	-179.212520	-77.336549	-154.562180
07171	9.624163	-0.042747	-2.199948	0.038861	0.004950	0.059728	1.000000	0.000002	0.000028	0.000028	-179.208791	-77.337038	-154.568602
07172	9.605724	-0.061196	-2.176477	0.030137	-0.019858	0.036649	1.000000	-0.000006	0.000026	0.000028	-179.206244	-77.337367	-154.570327
07173	9.627398	-0.050339	-2.175611	0.020230	-0.012374	0.057573	1.000000	-0.000013	0.000023	0.000036	-179.200254	-77.337239	-154.573247
07174	9.616457	-0.030253	-2.168054	0.006852	0.003465	0.045181	1.000000	-0.000004	0.000020	0.000019	-179.202161	-77.336863	-154.570254
07175	9.609019	-0.069327	-2.151828	0.011275	-0.037760	0.034488	1.000000	-0.000005	0.000024	0.000044	-179.191480	-77.336834	-154.574474
07176	9.613648	-0.024917	-2.190500	0.024540	0.018489	0.047343	1.000000	-0.000014	0.000025	0.000020	-179.193851	-77.337083	-154.572095
07177	9.606231	-0.063895	-2.174163	0.028950	-0.022725	0.036646	1.000000	-0.000015	0.000031	0.000037	-179.187229	-77.337759	-154.581336
07178	9.592315	-0.037219	-2.189836	0.033724	0.009296	0.026421	1.000000	-0.000022	0.000025	0.000012	-179.194520	-77.337929	-154.574853
07179	9.625005	-0.046677	-2.196180	0.036969	0.000355	0.059736	1.000000	-0.000011	0.000017	0.000027	-179.193014	-77.337115	-154.573810
07180	9.595493	-0.044394	-2.165710	0.015104	-0.008030	0.024256	1.000000	-0.000021	0.000023	0.000020	-179.196290	-77.337151	-154.571384
07181	9.595613	-0.044711	-2.165173	0.014866	-0.008604	0.024256	1.000000	-0.000015	0.000033	0.000021	-179.198036	-77.338169	-154.567592
07182	9.614340	-0.027128	-2.187432	0.023122	0.015044	0.047352	1.000000	-0.000025	0.000038	0.000022	-179.200433	-77.339879	-154.566488
07183	9.650118	-0.043083	-2.170028	0.008236	-0.010094	0.078495	1.000000	-0.000003	0.000045	0.000015	-179.204114	-77.342370	-154.557966
07184	9.625722	-0.048285	-2.193000	0.035830	-0.002522	0.059740	1.000000	-0.000032	0.000036	0.000022	-179.207419	-77.343868	-154.556812
07185	9.603839	-0.007543	-2.177975	0.009286	0.029742	0.034971	1.000000	-0.000009	0.000041	0.000030	-179.203844	-77.345910	-154.555552
07186	9.629060	-0.055591	-2.168114	0.017238	-0.019853	0.057566	1.000000	-0.000010	0.000043	0.000015	-179.208451	-77.348180	-154.550483
07187	9.613168	-0.027748	-2.106330	-0.045592	-0.019978	0.028447	1.000000	-0.000010	0.000042	0.000023	-179.209119	-77.350349	-154.550186
07188	9.621369	-0.042136	-2.136070	-0.014510	-0.020782	0.043005	1.000000	-0.000008	0.000036	0.000014	-179.214168	-77.351781	-154.544452
07189	9.613473	-0.028342	-2.104931	-0.046069	-0.021122	0.028442	1.000000	-0.000015	0.000033	0.000021	-179.215623	-77.352739	-154.548777
07190	9.632190	-0.010764	-2.127295	-0.037826	0.002515	0.051548	1.000000	-0.000014	0.000025	0.000020	-179.217999	-77.352987	-154.546394
07191	9.595051	-0.046884	-2.081198	-0.055008	-0.046493	0.005327	1.000000	-0.000016	0.000001	0.000017	-179.222376	-77.350381	-154.543089
07192	9.621295	0.009319	-2.119575	-0.051461	0.017774	0.039167	1.000000	-0.000023	0.000032	0.000013	-179.229237	-77.351387	-154.537256
07193	9.610816	-0.023111	-2.126781	-0.028850	-0.007242	0.030617	1.000000	-0.000016	0.000006	0.000041	-179.221206	-77.349335	-154.542430
07194	9.599835	-0.002981	-2.119454	-0.042237	0.008598	0.018237	1.000000	-0.000003	0.000014	0.000010	-179.227569	-77.348254	-154.534717
07195	9.629504	-0.005948	-2.149307	-0.020843	0.015815	0.053731	1.000000	-0.000017	0.000008	0.000026	-179.227637	-77.346464	-154.536158
07196	9.629554	-0.006466	-2.149080	-0.021069	0.015237	0.053732	1.000000	-0.000011	0.000016	0.000035	-179.222416	-77.345607	-154.541237
07197	9.605048	-0.011973	-2.172615	0.006503	0.022840	0.034992	1.000000	-0.000009	0.000009	0.000033	-179.217286	-77.343796	-154.548226
07198	9.626682	-0.001086	-2.171959	-0.003405	0.030277	0.055924	1.000000	-0.000019	0.000015	0.000027	-179.216989	-77.342860	-154.549194
07199	9.616148	-0.033488	-2.179383	0.019203	0.005264	0.047370	1.000000	-0.000015	0.000000	0.000024	-179.217505	-77.340174	-154.548846
07200	9.626789	-0.001968	-2.171483	-0.003871	0.029119	0.055927	1.000000	-0.000008	0.000033	0.000029	-179.214516	-77.341338	-154.551236
07201	9.629877	-0.009118	-2.147624	-0.022243	0.012348	0.053733	1.000000	-0.000020	0.000020	0.000043	-179.205620	-77.340922	-154.564454
07202	9.629935	-0.009670	-2.147361	-0.022469	0.011770	0.053733	1.000000	0.000007	0.000007	0.000017	-179.207496	-77.339082	-154.560192
07203	9.575798	-0.012271	-2.140871	-0.016481	0.011608	-0.000502	1.000000	-0.000019	0.000015	0.000027	-179.207090	-77.338193	-154.561977
07204	9.638114	-0.024608	-2.177236	0.008385	0.010394	0.068305	1.000000	-0.000006	0.000026	0.000028	-179.204540	-77.338520	-154.563706
07205	9.644117	-0.038177	-2.130238	-0.028130	-0.022569	0.063904	1.000000	-0.000017	0.000007	0.000033	-179.200339	-77.336539	-154.570359
07206	9.584044	-0.027851	-2.170440	0.014128	0.009662	0.014072	1.000000	-0.000019	0.000015	0.000027	-179.200044	-77.335603	-154.571325
07207	9.619650	-0.043966	-2.153607	-0.000771	-0.015535	0.045172	1.000000	-0.000025	0.000006	0.000025	-179.201038	-77.333530	-154.572325
07208	9.605721	-0.017270	-2.169602	0.003974	0.016508	0.035006	1.000000	-0.000019	0.000015	0.000027	-179.200744	-77.332593	-154.573291
07209	9.630771	-0.065519	-2.160220	0.011928	-0.033104	0.057539	1.000000	0.000004	0.000020	0.000035	-179.193319	-77.332115	-154.583697
07210	9.616854	-0.039116	-2.176172	0.016675	-0.001060	0.047376	1.000000	-0.000016	0.000006	0.000041	-179.185444	-77.330072	-154.592109
07211	9.606320	-0.071625	-2.183515	0.039302	-0.026051	0.038811	1.000000	-0.000004	0.000020	0.000019	-179.187158	-77.329710	-154.591793
07212	9.627991	-0.060568	-2.182710	0.029387	-0.018632	0.059744	1.000000	-0.000012	0.000018	0.000019	-179.189967	-77.329120	-154.588755
07213	9.595524	-0.051717	-2.175433	0.025684	-0.010767	0.026443	1.000000	-0.000010	0.000042	0.000023	-179.190295	-77.331249	-154.589885
07214	9.595667	-0.052243	-2.174792	0.025460	-0.011342	0.026443	1.000000	-0.000005	0.000025	0.000036	-179.183733	-77.331440	-154.595669
07215	9.625442	-0.055422	-2.204226	0.046829	-0.004164	0.061957	1.000000	-0.000025	0.000038	0.000022	-179.186180	-77.333088	-154.594893
07216	9.614601	-0.035105	-2.196374	0.033439	0.011687	0.049594	1.000000	-0.000008	0.000036	0.000014	-179.191211	-77.334520	-154.589175
07217	9.623578	-0.054974	-2.125800	-0.021194	-0.037485	0.042943	1.000000	0.000003	0.000022	0.000019	-179.192056	-77.334276	-154.583524
07218	9.606847	-0.021696	-2.164570	0.001676	0.010764	0.035015	1.000000	-0.000038	0.000058	0.000026	-179.194043	-77.338287	-154.584352
07219	9.609971	-0.028626	-2.140438	-0.016691	-0.006008	0.032795	1.000000	-0.000013	0.000024	0.000028	-179.192144	-77.338342	-154.584888
07220	9.610107	-0.029045	-2.139821	-0.016916	-0.006585	0.032794	1.000000	-0.000017	0.000040	0.000022	-179.193634	-77.340265	-154.583834
07221	9.621270	-0.050053	-2.146226	-0.003973	-0.023582	0.045155	1.000000	-0.000024	0.000037	0.000030	-179.191845	-77.341867	-154.586881
07222	9.632013	-0.018571	-2.137962	-0.027065	0.000247	0.053729	1.000000	-0.000015	0.000032	0.000029	-179.189762	-77.342818	-154.589222
07223	9.624465	-0.057445	-2.121717	-0.022545	-0.040942	0.042926	1.000000	-0.000029	0.000022	0.000020	-179.194024	-77.342647	-154.584361
07224	9.621633	-0.051245	-2.144571	-0.004644	-0.025315	0.045150	1.000000	0.000001	0.000029	0.000020	-179.194576	-77.343318	-154.582088
07225	9.635283	-0.026079	-2.113107	-0.045894	-0.017703	0.051499	1.000000	-0.000022	0.000025	0.000012	-179.201692	-77.343311	-154.574867
07226	9.610857	-0.031283	-2.136420	-0.018293	-0.010048	0.032789	1.000000	-0.000030	0.000027	0.000037	-179.197416	-77.343703	-154.581160
07227	9.624470	-0.006366	-2.105117	-0.059529	-0.002427	0.039137	1.000000	-0.000010	0.000010	0.000026	-179.196291	-77.342079	-154.579615
07228	9.632602	-0.020801	-2.135285	-0.028462	-0.003227	0.053724	1.000000	-0.000021	0.000023	0.000020	-179.199573	-77.342114	-154.577183
07229	9.600109	-0.011964	-2.128150	-0.032157	0.004656	0.020430	1.000000	-0.000013	0.000024	0.000028	-179.197920	-77.342200	-154.578389
07230	9.611204	-0.033038	-2.134830	-0.019211	-0.012350	0.032785	1.000000	-0.000013	0.000024	0.000028	-179.196279	-77.342313	-154.580068
07231	9.621898	-0.001625	-2.126827	-0.042312	0.011465	0.041367	1.000000	-0.000011	0.000016	0.000035	-179.191041	-77.341484	-154.580978
07232	9.643596	0.009232	-2.125921	-0.052247	0.018847	0.062305	1.000000	0.000001	0.000029	0.000020	-179.191591	-77.342154	-154.578707
07233	9.594664	-0.000758	-2.172992	0.003166	0.034782	0.024906	1.000000	-0.000030	0.000029	0.000021	-179.194965	-77.342765	-154.576925
07234	9.630278	-0.016974	-2.155891	-0.011713	0.009523	0.055959	1.000000	-0.000011	0.000016	0.000035	-179.189752	-77.341905	-154.581999
07235	9.633257	-0.023971	-2.132296	-0.030081	-0.007266	0.053717	1.000000	-0.000010	0.000011	0.000018	-179.192625	-77.340341	-154.576514
07236	9.597826	-0.008483	-2.148587	-0.015656	0.016844	0.022669	1.000000	-0.000030	0.000029	0.000021	-179.196378	-77.341002	-154.574690
07237	9.622447	-0.004110	-2.124337	-0.043713	0.008009	0.041364	1.000000	-0.000011	0.000016	0.000035	-179.191034	-77.340122	-154.580651
07238	9.608972	-0.030124	-2.155018	-0.002936	-0.000734	0.035020	1.000000	-0.000018	0.000014	0.000034	-179.186733	-77.339050	-154.585670
07239	9.630637	-0.019351	-2.154267	-0.012883	0.006632	0.055960	1.000000	-0.000018	0.000014	0.000034	-179.182495	-77.337931	-154.585890
07240	9.601022	-0.017125	-2.123990	-0.034681	-0.001681	0.020422	1.000000	0.000005	0.000014	0.000018	-179.183925	-77.336925	-154.582297
07241	9.617214	-0.045693	-2.184710	0.027674	-0.002671	0.049618	1.000000	-0.000026	0.000012	0.000034	-179.180451	-77.335678	-154.581675
07242	9.617285	-0.046157	-2.184385	0.027449	-0.003248	0.049618	1.000000	0.000003	0.000022	0.000019	-179.181438	-77.335510	-154.578746
07243	9.606385	-0.025980	-2.176866	0.014025	0.012601	0.037272	1.000000	-0.000011	0.000017	0.000027	-179.180122	-77.334682	-154.578877
07244	9.609370	-0.032990	-2.153202	-0.004307	-0.004196	0.035019	1.000000	-0.000011	0.000017	0.000027	-179.178923	-77.333956	-154.579892
07245	9.631087	-0.022136	-2.152230	-0.014264	0.003171	0.055960	1.000000	-0.000008	0.000033	0.000029	-179.175649	-77.335074	-154.581884
07246	9.596065	-0.059333	-2.183112	0.036240	-0.013484	0.028678	1.000000	-0.000006	0.000027	0.000020	-179.177106	-77.335532	-154.579563
07247	9.617825	-0.048361	-2.181960	0.026286	-0.006119	0.049620	1.000000	-0.000010	0.000042	0.000023	-179.177516	-77.337638	-154.574221
07248	9.606963	-0.028321	-2.174287	0.012877	0.009732	0.037277	1.000000	-0.000018	0.000013	0.000042	-179.169210	-77.336430	-154.583291
07249	9.607051	-0.028792	-2.173892	0.012650	0.009152	0.037278	1.000000	-0.000007	0.000028	0.000012	-179.174778	-77.337005	-154.575957
07250	9.610084	-0.035617	-2.149968	-0.005676	-0.007651	0.035016	1.000000	-0.000015	0.000033	0.000021	-179.176707	-77.338089	-154.574242
07251	9.618265	-0.050073	-2.179978	0.025371	-0.008427	0.049621	1.000000	-0.000011	0.000017	0.000027	-179.175364	-77.337290	-154.570614
07252	9.599284	-0.015882	-2.142021	-0.019325	0.007623	0.022674	1.000000	-0.000011	0.000017	0.000027	-179.174166	-77.336564	-154.571628
07253	9.618442	-0.050941	-2.179178	0.024909	-0.009579	0.049621	1.000000	-0.000015	0.000033	0.000021	-179.175952	-77.337585	-154.569400
07254	9.596960	-0.062681	-2.179081	0.034413	-0.018076	0.028677	1.000000	-0.000023	0.000030	0.000029	-179.174783	-77.338322	-154.571685
07255	9.632267	-0.026301	-2.146894	-0.016581	-0.002615	0.055956	1.000000	-0.000010	0.000043	0.000015	-179.179077	-77.340454	-154.564376
07256	9.643367	-0.047428	-2.153467	-0.003618	-0.019621	0.068294	1.000000	-0.000003	0.000017	0.000042	-179.168943	-77.339668	-154.573559
07257	9.610878	-0.038547	-2.146367	-0.007313	-0.011687	0.035011	1.000000	-0.000031	0.000031	0.000006	-179.180535	-77.340532	-154.561439
07258	9.632629	-0.027336	-2.145255	-0.017271	-0.004349	0.055955	1.000000	0.000008	0.000032	0.000013	-179.184176	-77.341547	-154.555175
07259	9.622104	-0.059656	-2.152368	0.005431	-0.029271	0.047346	1.000000	-0.000013	0.000024	0.000028	-179.182634	-77.341651	-154.550452
07260	9.597393	-0.012299	-2.160870	-0.003089	0.019242	0.024949	1.000000	-0.000015	0.000033	0.000021	-179.184564	-77.342735	-154.548736
07261	9.632990	-0.028540	-2.143618	-0.017968	-0.006097	0.055953	1.000000	-0.000013	0.000024	0.000028	-179.182849	-77.342718	-154.550597
07262	9.600502	-0.019653	-2.136527	-0.021649	0.001845	0.022672	1.000000	-0.000021	0.000023	0.000020	-179.186137	-77.342752	-154.548160
07263	9.630310	-0.022756	-2.166039	-0.000330	0.008991	0.058231	1.000000	-0.000013	0.000024	0.000028	-179.184379	-77.342885	-154.548917
07264	9.641394	-0.043802	-2.172672	0.012638	-0.008014	0.070565	1.000000	0.000001	0.000029	0.000020	-179.184923	-77.343553	-154.546652
07265	9.600793	-0.020882	-2.135205	-0.022340	0.000125	0.022670	1.000000	-0.000017	0.000008	0.000025	-179.184737	-77.341698	-154.541704
07266	9.622491	-0.009900	-2.134335	-0.032306	0.007448	0.043616	1.000000	-0.000030	0.000029	0.000021	-179.188498	-77.342359	-154.539872
07267	9.636451	-0.037373	-2.117620	-0.037434	-0.025805	0.053661	1.000000	-0.000014	0.000025	0.000020	-179.190673	-77.342507	-154.531731
07268	9.633662	-0.031115	-2.140560	-0.019578	-0.010138	0.055946	1.000000	-0.000019	0.000016	0.000019	-179.194403	-77.341703	-154.528632
07269	9.601172	-0.022295	-2.133487	-0.023279	-0.002185	0.022668	1.000000	-0.000015	0.000031	0.000037	-179.188041	-77.342404	-154.531531
07270	9.633836	-0.032094	-2.139762	-0.020050	-0.011295	0.055944	1.000000	-0.000025	0.000006	0.000025	-179.189117	-77.340416	-154.531767
07271	9.641659	0.005969	-2.155261	-0.025157	0.028693	0.066853	1.000000	-0.000002	0.000011	0.000026	-179.187254	-77.338990	-154.536872
07272	9.601334	-0.023850	-2.132738	-0.023968	-0.003912	0.022666	1.000000	-0.000018	0.000013	0.000042	-179.178953	-77.337781	-154.545938
07273	9.628229	-0.020428	-2.185818	0.015412	0.019470	0.060529	1.000000	-0.000018	0.000010	0.000010	-179.187150	-77.336275	-154.529745
07274	9.623070	-0.013385	-2.131703	-0.034166	0.002816	0.043613	1.000000	-0.000020	0.000020	0.000043	-179.178409	-77.335903	-154.539472
07275	9.631228	-0.027951	-2.161893	-0.003090	0.002078	0.058235	1.000000	-0.000010	0.000011	0.000018	-179.181589	-77.334641	-154.533601
07276	9.609672	-0.039639	-2.162104	0.006435	-0.006380	0.037286	1.000000	-0.000021	0.000022	0.000028	-179.180867	-77.334539	-154.535219
07277	9.595930	-0.012911	-2.177916	0.011070	0.025721	0.027261	1.000000	-0.000011	0.000017	0.000027	-179.179629	-77.333775	-154.533600
07278	9.631456	-0.029168	-2.160861	-0.003774	0.000343	0.058235	1.000000	-0.000012	0.000018	0.000019	-179.182441	-77.333182	-154.530561
07279	9.609880	-0.040922	-2.161156	0.005744	-0.008112	0.037285	1.000000	-0.000017	0.000007	0.000033	-179.178523	-77.331210	-154.531537
07280	9.642549	-0.050770	-2.167388	0.008971	-0.017240	0.070557	1.000000	-0.000008	0.000033	0.000029	-179.175526	-77.332368	-154.533936
07281	9.607190	-0.035366	-2.183714	0.023344	0.007000	0.039589	1.000000	-0.000017	0.000008	0.000025	-179.175291	-77.330516	-154.536614
07282	9.620783	-0.010568	-2.152429	-0.017912	0.014463	0.045913	1.000000	0.000004	0.000020	0.000035	-179.168255	-77.330074	-154.541799
07283	9.639924	-0.045710	-2.189653	0.026350	-0.002698	0.072862	1.000000	-0.000021	0.000023	0.000020	-179.171396	-77.330168	-154.537439
07284	9.623836	-0.017944	-2.128209	-0.036423	-0.002943	0.043604	1.000000	-0.000014	0.000025	0.000020	-179.173764	-77.330413	-154.535064
