// Start Time: Unknown
// Update Rate: 100.0Hz
// Filter Profile: human (46.1)
// Firmware Version: 4.4.0
PacketCounter	Acc_X	Acc_Y	Acc_Z	FreeAcc_X	FreeAcc_Y	FreeAcc_Z	OriInc_q0	OriInc_q1	OriInc_q2	OriInc_q3	Roll	Pitch	Yaw
55811	9.893127	-0.118495	0.571095	0.000000	0.000000	0.097618	1.000000	0.000030	0.000035	0.000045	-11.687187	-86.628449	13.684034
55812	9.930217	-0.139052	0.596397	0.000000	0.000000	0.136395	1.000000	0.000020	0.000018	0.000034	-13.098080	-86.472536	15.213637
55813	9.911612	-0.129877	0.584534	-0.001011	-0.001561	0.116995	1.000000	0.000019	0.000034	0.000041	-12.436318	-86.548313	14.495572
55814	9.929498	-0.133612	0.555758	0.029422	-0.003351	0.133205	1.000000	0.000024	0.000023	0.000025	-12.471307	-86.545128	14.533367
55815	9.913755	-0.148330	0.568560	0.016864	-0.018172	0.118435	1.000000	0.000016	0.000036	0.000034	-12.516180	-86.540136	14.580704
55816	9.911476	-0.131767	0.586406	-0.000979	-0.001571	0.116995	1.000000	0.000026	0.000036	0.000039	-12.569389	-86.535103	14.637052
55817	9.897324	-0.157084	0.540418	0.045619	-0.024716	0.100489	1.000000	0.000027	0.000029	0.000035	-12.620290	-86.531025	14.691133
55818	9.897277	-0.157917	0.541036	0.045619	-0.024716	0.100489	1.000000	0.000033	0.000033	0.000052	-12.698990	-86.526053	14.773807
55819	9.862964	-0.162963	0.541499	0.043904	-0.029451	0.066333	1.000000	0.000034	0.000031	0.000033	-12.746332	-86.521916	14.825164
55820	9.894963	-0.142179	0.559320	0.027734	-0.008090	0.099049	1.000000	0.000042	0.000020	0.000044	-12.813269	-86.518581	14.897000
55821	9.929198	-0.138637	0.559879	0.029322	-0.003283	0.133206	1.000000	0.000046	0.000017	0.000031	-12.864888	-86.516315	14.953971
55822	9.892063	-0.119475	0.535510	0.051156	0.016822	0.094434	1.000000	0.000019	0.000026	0.000038	-12.920677	-86.512438	15.012099
55823	9.908354	-0.112949	0.565474	0.022253	0.023407	0.112380	1.000000	0.000045	0.000018	0.000050	-13.006893	-86.509860	15.103619
55824	9.891998	-0.121154	0.536333	0.051014	0.016857	0.094434	1.000000	0.000031	0.000019	0.000039	-13.066591	-86.506711	15.166957
55825	9.889740	-0.104693	0.553918	0.032966	0.033457	0.092995	1.000000	0.000041	0.000028	0.000047	-13.140432	-86.503555	15.245644
55826	9.889709	-0.105403	0.554331	0.032966	0.033457	0.092995	1.000000	0.000028	0.000013	0.000029	-13.184567	-86.501313	15.293044
55827	9.889675	-0.106238	0.554775	0.032699	0.033387	0.092996	1.000000	0.000037	0.000031	0.000059	-13.274814	-86.497920	15.387680
55828	9.921680	-0.085581	0.572691	0.016526	0.054748	0.125711	1.000000	0.000023	0.000031	0.000029	-13.310969	-86.493762	15.426598
55829	9.905926	-0.100186	0.585299	0.003620	0.039765	0.110941	1.000000	0.000036	0.000008	0.000024	-13.338730	-86.494254	15.458515
55830	9.926665	-0.127915	0.580874	0.010543	0.013111	0.131767	1.000000	0.000020	0.000018	0.000034	-13.391158	-86.491291	15.513324
55831	9.892366	-0.132849	0.581032	0.008550	0.008120	0.097611	1.000000	0.000023	0.000017	0.000041	-13.443432	-86.490513	15.568434
55832	9.926603	-0.129341	0.581606	0.010218	0.012879	0.131767	1.000000	0.000027	0.000021	0.000032	-13.489627	-86.487314	15.617852
55833	9.910242	-0.137444	0.552644	0.038642	0.006076	0.113826	1.000000	0.000030	0.000035	0.000045	-13.538882	-86.484526	15.670648
55834	9.926519	-0.130878	0.582707	0.009879	0.012624	0.131768	1.000000	0.000031	0.000019	0.000039	-13.597646	-86.481343	15.733050
55835	9.925905	-0.124743	0.541390	0.050838	0.020622	0.128602	1.000000	0.000024	0.000023	0.000025	-13.616856	-86.480694	15.755170
55836	9.910122	-0.139556	0.554261	0.038252	0.005812	0.113828	1.000000	0.000029	0.000042	0.000048	-13.682570	-86.474674	15.824396
55837	9.928604	-0.150389	0.567325	0.026840	-0.004534	0.133212	1.000000	0.000015	0.000022	0.000047	-13.741834	-86.474170	15.885702
55838	9.893720	-0.148631	0.525882	0.066528	-0.001026	0.095891	1.000000	0.000027	0.000029	0.000035	-13.789823	-86.470007	15.936877
55839	9.907778	-0.124740	0.573036	0.019318	0.021847	0.112389	1.000000	0.000023	0.000024	0.000044	-13.847254	-86.469877	15.997025
55840	9.891422	-0.132901	0.544118	0.048085	0.015300	0.094452	1.000000	0.000026	0.000036	0.000038	-13.897364	-86.464765	16.050275
55841	9.909895	-0.143592	0.557284	0.036510	0.004936	0.113835	1.000000	0.000037	0.000037	0.000043	-13.943073	-86.463553	16.100589
55842	9.872795	-0.124538	0.533194	0.058360	0.025047	0.075075	1.000000	0.000045	0.000040	0.000041	-13.993459	-86.457999	16.156219
55843	9.889059	-0.117960	0.563326	0.028745	0.031236	0.093015	1.000000	0.000005	0.000021	0.000042	-14.049241	-86.459796	16.212510
55844	9.906990	-0.121927	0.534479	0.059170	0.029443	0.109239	1.000000	0.000056	0.000025	0.000039	-14.101513	-86.455914	16.271363
55845	9.904740	-0.105391	0.552095	0.040321	0.045604	0.107801	1.000000	0.000030	0.000027	0.000042	-14.148458	-86.458049	16.321690
55846	9.906918	-0.123390	0.535485	0.058163	0.029002	0.109246	1.000000	0.000027	0.000021	0.000032	-14.193558	-86.454815	16.370007
55847	9.872613	-0.128202	0.535695	0.055513	0.023668	0.075095	1.000000	0.000038	0.000022	0.000037	-14.219273	-86.457871	16.399186
55848	9.893308	-0.156094	0.531453	0.062423	-0.002992	0.095917	1.000000	0.000020	0.000018	0.000034	-14.270450	-86.454863	16.452710
55849	9.907363	-0.132153	0.578523	0.014764	0.019602	0.112402	1.000000	0.000030	0.000027	0.000042	-14.308495	-86.457357	16.493512
55850	9.906788	-0.126175	0.537230	0.056119	0.027866	0.109261	1.000000	0.000020	0.000018	0.000034	-14.359499	-86.454323	16.546848
55851	9.870801	-0.120497	0.596366	-0.005922	0.030872	0.076796	1.000000	0.000030	0.000035	0.000045	-14.400809	-86.456844	16.591067
55852	9.906716	-0.127664	0.538210	0.054917	0.027277	0.109270	1.000000	0.000057	0.000010	0.000033	-14.448389	-86.454815	16.645242
55853	9.909423	-0.152352	0.563319	0.030250	0.001814	0.113857	1.000000	0.000019	0.000034	0.000041	-14.480910	-86.457266	16.680037
55854	9.940917	-0.124960	0.539480	0.055405	0.031422	0.143438	1.000000	0.000019	0.000026	0.000038	-14.533827	-86.453264	16.735231
55855	9.906601	-0.129842	0.539806	0.052451	0.026052	0.109286	1.000000	0.000038	0.000029	0.000040	-14.566631	-86.457191	16.772290
55856	9.940836	-0.126412	0.540625	0.054087	0.030793	0.143447	1.000000	0.000027	0.000029	0.000035	-14.613432	-86.452975	16.822200
55857	9.922814	-0.123911	0.570480	0.022275	0.031917	0.127208	1.000000	0.000030	0.000027	0.000042	-14.650388	-86.457637	16.862436
55858	9.923289	-0.131438	0.612780	-0.019079	0.023656	0.130326	1.000000	0.000041	0.000028	0.000047	-14.716368	-86.453220	16.933186
55859	9.902030	-0.098319	0.576117	0.014098	0.057871	0.106396	1.000000	0.000031	0.000019	0.000039	-14.744629	-86.458233	16.964165
55860	9.908609	-0.150969	0.525413	0.067618	0.008061	0.110757	1.000000	0.000045	0.000032	0.000038	-14.791704	-86.453572	17.016419
55861	9.924854	-0.144331	0.555608	0.037240	0.013775	0.128674	1.000000	0.000019	0.000034	0.000041	-14.816709	-86.458830	17.041674
55862	9.867124	-0.097981	0.535821	0.052247	0.060580	0.069137	1.000000	0.000031	0.000019	0.000039	-14.874081	-86.455573	17.102541
55863	9.906281	-0.135840	0.544185	0.046924	0.023006	0.109322	1.000000	0.000034	0.000031	0.000033	-14.874678	-86.459541	17.105559
55864	9.922022	-0.122462	0.532644	0.059487	0.037806	0.124126	1.000000	0.000026	0.000036	0.000038	-14.923447	-86.454393	17.157289
55865	9.904475	-0.126638	0.604421	-0.014174	0.030561	0.110964	1.000000	0.000037	0.000037	0.000043	-14.960363	-86.460912	17.198564
55866	9.888151	-0.134761	0.575374	0.014605	0.024027	0.093066	1.000000	0.000031	0.000011	0.000036	-15.016066	-86.458657	17.257755
55867	9.903419	-0.114826	0.521795	0.067115	0.046214	0.104798	1.000000	0.000041	0.000028	0.000047	-15.043498	-86.463496	17.287858
55868	9.883181	-0.095069	0.568688	0.018865	0.064635	0.087069	1.000000	0.000030	0.000027	0.000042	-15.103197	-86.459349	17.350919
55869	9.903824	-0.123120	0.564704	0.024213	0.037116	0.107888	1.000000	0.000019	0.000034	0.000041	-15.125113	-86.464308	17.375498
55870	9.885297	-0.113909	0.552851	0.035156	0.047191	0.088538	1.000000	0.000027	0.000029	0.000035	-15.172197	-86.460184	17.425530
55871	9.885257	-0.114577	0.553424	0.034318	0.046170	0.088545	1.000000	0.000027	0.000029	0.000035	-15.150815	-86.462352	17.403688
55872	9.885699	-0.121866	0.595678	-0.007059	0.037918	0.091617	1.000000	0.000027	0.000021	0.000032	-15.195948	-86.459166	17.451754
55873	9.903666	-0.125857	0.566881	0.022171	0.035117	0.107900	1.000000	0.000030	0.000027	0.000042	-15.199882	-86.463079	17.456842
55874	9.903619	-0.126662	0.567522	0.022150	0.035121	0.107900	1.000000	0.000037	0.000037	0.000043	-15.255465	-86.457788	17.516487
55875	9.905785	-0.144572	0.550916	0.038992	0.017617	0.109367	1.000000	0.000025	0.000007	0.000019	-15.231243	-86.463436	17.495657
55876	9.903559	-0.127947	0.568281	0.021134	0.034231	0.107906	1.000000	0.000037	0.000023	0.000056	-15.316439	-86.459320	17.584952
55877	9.921987	-0.138814	0.581339	0.008816	0.023224	0.127254	1.000000	0.000019	0.000034	0.000041	-15.326122	-86.463452	17.595334
55878	9.903477	-0.129573	0.569332	0.019753	0.033307	0.107912	1.000000	0.000038	0.000014	0.000034	-15.376361	-86.461075	17.649725
55879	9.905641	-0.147619	0.552694	0.036866	0.015755	0.109378	1.000000	0.000030	0.000027	0.000042	-15.371643	-86.462444	17.645020
55880	9.937685	-0.126915	0.570601	0.020580	0.037077	0.142084	1.000000	0.000034	0.000031	0.000033	-15.412949	-86.458171	17.689928
55881	9.919174	-0.117653	0.558719	0.030163	0.046269	0.122753	1.000000	0.000038	0.000029	0.000040	-15.426542	-86.462960	17.704762
55882	9.885296	-0.129071	0.600823	-0.012819	0.033326	0.091628	1.000000	0.000045	0.000032	0.000038	-15.474625	-86.458508	17.757649
55883	9.921285	-0.136556	0.542840	0.046558	0.028911	0.124225	1.000000	0.000026	0.000022	0.000051	-15.524533	-86.463480	17.814421
55884	9.901032	-0.116650	0.589679	-0.001708	0.047359	0.106462	1.000000	0.000023	0.000030	0.000028	-15.559640	-86.459511	17.851866
55885	9.905378	-0.152080	0.556184	0.033679	0.013295	0.109393	1.000000	0.000052	0.000028	0.000051	-15.563780	-86.457791	17.862602
55886	9.916342	-0.097547	0.536680	0.051884	0.069554	0.118267	1.000000	0.000020	0.000011	0.000031	-15.613760	-86.455894	17.914599
55887	9.886849	-0.143573	0.544550	0.042187	0.022519	0.090072	1.000000	0.000026	0.000036	0.000038	-15.655151	-86.465724	17.956036
55888	9.918896	-0.122936	0.562507	0.025850	0.043832	0.122776	1.000000	0.000030	0.000027	0.000042	-15.716098	-86.461831	18.020095
55889	9.884572	-0.127667	0.562727	0.022752	0.038197	0.088613	1.000000	0.000035	0.000024	0.000030	-15.715160	-86.468524	18.014178
55890	9.881916	-0.104162	0.538482	0.046213	0.063064	0.084129	1.000000	0.000020	0.000025	0.000019	-15.736698	-86.465651	18.037499
55891	9.902940	-0.138731	0.576463	0.011480	0.027249	0.107943	1.000000	0.000029	0.000050	0.000052	-15.728271	-86.461197	18.031336
55892	9.902474	-0.132839	0.535280	0.052773	0.035499	0.104929	1.000000	0.000035	0.000008	0.000024	-15.765223	-86.459956	18.071823
55893	9.865963	-0.120269	0.552406	0.031756	0.046588	0.069300	1.000000	0.000026	0.000030	0.000054	-15.817380	-86.465543	18.121720
55894	9.902404	-0.134340	0.536196	0.051048	0.034663	0.104941	1.000000	0.000024	0.000023	0.000025	-15.851749	-86.462684	18.158209
55895	9.918629	-0.127547	0.566165	0.021252	0.040387	0.122801	1.000000	0.000031	0.000019	0.000039	-15.864849	-86.466188	18.174162
55896	9.902754	-0.142249	0.578799	0.008617	0.025630	0.107950	1.000000	0.000038	0.000022	0.000037	-15.918537	-86.463118	18.231628
55897	9.918564	-0.128970	0.566992	0.019661	0.039625	0.122808	1.000000	0.000031	0.000019	0.000039	-15.950819	-86.469504	18.265550
55898	9.900087	-0.119595	0.554920	0.030558	0.049724	0.103489	1.000000	0.000031	0.000025	0.000023	-15.979631	-86.466539	18.297269
55899	9.900058	-0.120052	0.555335	0.029887	0.048892	0.103495	1.000000	0.000035	0.000016	0.000027	-15.961333	-86.469160	18.278461
55900	9.884178	-0.134811	0.567950	0.017239	0.034140	0.088639	1.000000	0.000037	0.000023	0.000056	-16.048835	-86.465405	18.369601
55901	9.918423	-0.131840	0.568788	0.017623	0.038017	0.122818	1.000000	0.000026	0.000030	0.000054	-16.090915	-86.468191	18.409779
55902	9.915789	-0.108643	0.544700	0.041065	0.062880	0.118362	1.000000	0.000038	0.000036	0.000024	-16.115330	-86.464085	18.437802
55903	9.916142	-0.115739	0.587141	-0.001880	0.053853	0.121350	1.000000	0.000034	0.000031	0.000033	-16.130548	-86.469784	18.447130
55904	9.918292	-0.133781	0.570627	0.015816	0.037241	0.122824	1.000000	0.000031	0.000019	0.000039	-16.191558	-86.467077	18.510828
55905	9.916068	-0.117183	0.588109	-0.003281	0.053110	0.121354	1.000000	0.000030	0.000027	0.000042	-16.220561	-86.471254	18.540068
55906	9.915638	-0.111327	0.546919	0.037962	0.061342	0.118384	1.000000	0.000034	0.000031	0.000033	-16.264646	-86.467457	18.587178
55907	9.902302	-0.149966	0.584555	0.000980	0.020935	0.107965	1.000000	0.000030	0.000034	0.000045	-16.278618	-86.468518	18.600432
55908	9.915549	-0.112770	0.548227	0.036954	0.060547	0.118393	1.000000	0.000023	0.000030	0.000028	-16.316118	-86.464942	18.639677
55909	9.899639	-0.127345	0.561142	0.023403	0.045008	0.103531	1.000000	0.000034	0.000039	0.000036	-16.317573	-86.466536	18.637639
55910	9.899595	-0.128202	0.561729	0.023266	0.045024	0.103531	1.000000	0.000019	0.000020	0.000053	-16.405782	-86.463360	18.727075
55911	9.913235	-0.097750	0.567083	0.016786	0.075687	0.116933	1.000000	0.000026	0.000036	0.000038	-16.424971	-86.466154	18.749558
55912	9.897326	-0.112444	0.579857	0.004096	0.060955	0.102060	1.000000	0.000031	0.000019	0.000039	-16.486789	-86.463581	18.813901
55913	9.901657	-0.147872	0.546342	0.037175	0.027005	0.105027	1.000000	0.000034	0.000031	0.000033	-16.543028	-86.474393	18.867655
55914	9.901623	-0.148518	0.546773	0.036999	0.027023	0.105027	1.000000	0.000031	0.000011	0.000036	-16.604339	-86.472906	18.931451
55915	9.899403	-0.131908	0.564243	0.018769	0.042856	0.103550	1.000000	0.000030	0.000034	0.000045	-16.604803	-86.471443	18.929787
55916	9.919961	-0.159962	0.560368	0.025369	0.016145	0.124330	1.000000	0.000035	0.000023	0.000030	-16.648443	-86.468782	18.976270
55917	9.880904	-0.123271	0.552832	0.028383	0.052240	0.084259	1.000000	0.000045	0.000032	0.000038	-16.668129	-86.472336	18.989991
55918	9.935753	-0.147322	0.549321	0.036470	0.030178	0.139218	1.000000	0.000027	0.000029	0.000035	-16.719747	-86.468958	19.043475
55919	9.899235	-0.134652	0.566548	0.016045	0.041463	0.103561	1.000000	0.000030	0.000027	0.000042	-16.749495	-86.472176	19.064493
55920	9.898845	-0.128898	0.525334	0.057248	0.049663	0.100636	1.000000	0.000038	0.000029	0.000040	-16.807856	-86.468595	19.125863
55921	9.915038	-0.122198	0.555406	0.027133	0.055560	0.118454	1.000000	0.000038	0.000022	0.000037	-16.838877	-86.473300	19.152327
55922	9.912821	-0.105619	0.572875	0.009146	0.072233	0.116969	1.000000	0.000034	0.000025	0.000049	-16.916623	-86.469957	19.232553
55923	9.896894	-0.120382	0.585606	-0.004869	0.056848	0.102084	1.000000	0.000019	0.000026	0.000038	-16.955436	-86.475233	19.264292
55924	9.917439	-0.148371	0.581737	0.001662	0.030132	0.122860	1.000000	0.000023	0.000030	0.000028	-16.995411	-86.472019	19.305430
55925	9.912373	-0.101236	0.532674	0.047593	0.079069	0.114075	1.000000	0.000041	0.000020	0.000044	-17.038181	-86.476792	19.329478
55926	9.880883	-0.136420	0.599365	-0.019106	0.041504	0.087192	1.000000	0.000030	0.000027	0.000042	-17.104012	-86.473550	19.397102
55927	9.898912	-0.140523	0.570750	0.009501	0.038977	0.103579	1.000000	0.000031	0.000033	0.000026	-17.131701	-86.479696	19.418107
55928	9.896359	-0.117202	0.546680	0.032891	0.063808	0.099192	1.000000	0.000034	0.000039	0.000036	-17.180526	-86.475408	19.469013
55929	9.914712	-0.127849	0.559926	0.020520	0.053094	0.118483	1.000000	0.000027	0.000029	0.000035	-17.210798	-86.479508	19.487400
55930	9.912494	-0.111187	0.577471	0.002508	0.069796	0.116990	1.000000	0.000030	0.000027	0.000042	-17.277728	-86.476396	19.555880
55931	9.914635	-0.129222	0.560979	0.018532	0.052550	0.118490	1.000000	0.000024	0.000023	0.000025	-17.313015	-86.483811	19.580896
55932	9.932679	-0.133340	0.532270	0.048597	0.050618	0.134889	1.000000	0.000030	0.000027	0.000042	-17.380606	-86.480777	19.649926
55933	9.896161	-0.120807	0.549470	0.028917	0.061909	0.099217	1.000000	0.000026	0.000030	0.000054	-17.406906	-86.479595	19.652833
55934	9.914512	-0.131492	0.562630	0.017581	0.051870	0.118495	1.000000	0.000039	0.000028	0.000021	-17.435059	-86.477133	19.683151
55935	9.896083	-0.122125	0.550573	0.027834	0.061299	0.099223	1.000000	0.000023	0.000024	0.000044	-17.467408	-86.478803	19.715788
55936	9.911954	-0.108947	0.538907	0.040137	0.076036	0.114132	1.000000	0.000034	0.000031	0.000033	-17.515973	-86.475585	19.766031
55937	9.898177	-0.140972	0.534727	0.044469	0.043998	0.100728	1.000000	0.000030	0.000027	0.000042	-17.543009	-86.477255	19.792677
55938	9.914342	-0.134351	0.564933	0.015359	0.050647	0.118505	1.000000	0.000037	0.000037	0.000043	-17.605687	-86.473077	19.857363
55939	9.893741	-0.107604	0.569924	0.007088	0.076864	0.097738	1.000000	0.000024	0.000023	0.000025	-17.638929	-86.479631	19.890775
55940	9.914262	-0.135762	0.565995	0.013472	0.050137	0.118510	1.000000	0.000037	0.000023	0.000056	-17.732603	-86.476605	19.986446
55941	9.877454	-0.116721	0.541384	0.034439	0.069682	0.079976	1.000000	0.000019	0.000034	0.000041	-17.770381	-86.479471	20.021272
55942	9.893628	-0.109994	0.571428	0.005301	0.076336	0.097743	1.000000	0.000038	0.000014	0.000034	-17.830148	-86.478258	20.083100
55943	9.895763	-0.128081	0.554957	0.021327	0.059070	0.099253	1.000000	0.000026	0.000036	0.000038	-17.880335	-86.483558	20.132341
55944	9.911928	-0.121451	0.585062	-0.007828	0.065728	0.117015	1.000000	0.000034	0.000017	0.000046	-17.960781	-86.481619	20.214385
55945	9.895685	-0.129556	0.555999	0.019962	0.058477	0.099259	1.000000	0.000031	0.000033	0.000026	-17.963996	-86.484196	20.222411
55946	9.929945	-0.126330	0.556984	0.021098	0.063131	0.133446	1.000000	0.000041	0.000027	0.000047	-18.039522	-86.481148	20.300327
55947	9.893434	-0.113495	0.574080	0.001492	0.074514	0.097759	1.000000	0.000024	0.000023	0.000025	-18.021185	-86.481465	20.277345
55948	9.909330	-0.100242	0.562354	0.013741	0.089241	0.112682	1.000000	0.000030	0.000027	0.000042	-18.090240	-86.478652	20.347474
55949	9.897699	-0.149821	0.541124	0.034744	0.040604	0.100781	1.000000	0.000015	0.000022	0.000047	-18.174200	-86.486357	20.429115
55952	9.900763	-0.129319	0.555048	0.062576	0.186710	19.938119	1.000000	0.000076	0.000081	0.000115	-18.335336	-86.475075	20.596759
55953	9.913733	-0.145338	0.572857	0.005168	0.046499	0.118536	1.000000	0.000034	0.000031	0.000033	-18.316531	-86.474141	20.583753
55954	9.911269	-0.122203	0.548584	0.028517	0.071296	0.114207	1.000000	0.000023	0.000024	0.000044	-18.392018	-86.471588	20.659478
55955	9.929587	-0.133053	0.561783	0.017020	0.060470	0.133470	1.000000	0.000030	0.000034	0.000045	-18.394565	-86.469761	20.666239
55956	9.911181	-0.123762	0.549819	0.027821	0.070582	0.114214	1.000000	0.000023	0.000030	0.000028	-18.438138	-86.467096	20.710078
55957	9.911145	-0.124439	0.550324	0.026708	0.069908	0.114222	1.000000	0.000041	0.000020	0.000044	-18.476172	-86.470786	20.757466
55960	9.905754	-0.130416	0.555407	0.066589	0.195149	19.953108	1.000000	0.000088	0.000080	0.000100	-18.609397	-86.460097	20.898576
55961	9.929352	-0.137169	0.564938	0.014097	0.059156	0.133483	1.000000	0.000034	0.000017	0.000046	-18.652613	-86.464292	20.945763
55962	9.895008	-0.141805	0.564997	0.012341	0.054590	0.099294	1.000000	0.000027	0.000029	0.000035	-18.709134	-86.461656	21.002965
55963	9.910922	-0.128586	0.553376	0.023657	0.068566	0.114239	1.000000	0.000034	0.000031	0.000033	-18.724624	-86.465197	21.021987
55964	9.892758	-0.125714	0.583127	-0.006974	0.070625	0.097785	1.000000	0.000030	0.000027	0.000042	-18.794023	-86.462548	21.092482
55965	9.908683	-0.112716	0.571323	0.004685	0.084595	0.112731	1.000000	0.000026	0.000015	0.000048	-18.835038	-86.465516	21.128151
55966	9.894852	-0.144681	0.566996	0.009531	0.053251	0.099304	1.000000	0.000031	0.000025	0.000023	-18.871968	-86.463744	21.166195
55967	9.910771	-0.131377	0.555420	0.021638	0.067158	0.114253	1.000000	0.000034	0.000039	0.000036	-18.855737	-86.462150	21.154811
55968	9.910729	-0.132019	0.556019	0.021290	0.067194	0.114254	1.000000	0.000027	0.000021	0.000032	-18.911493	-86.460510	21.211279
55969	9.922337	-0.083988	0.578167	-0.003292	0.114643	0.126173	1.000000	0.000030	0.000027	0.000042	-18.967002	-86.466415	21.261025
55970	9.910661	-0.133460	0.556882	0.019275	0.066589	0.114262	1.000000	0.000031	0.000011	0.000036	-19.035042	-86.465724	21.330185
55971	9.908465	-0.116783	0.574285	0.001205	0.082525	0.112750	1.000000	0.000030	0.000034	0.000045	-19.033569	-86.463705	21.336216
55972	9.912740	-0.152462	0.541000	0.036317	0.049141	0.115787	1.000000	0.000056	0.000025	0.000039	-19.095939	-86.461424	21.402627
55973	9.908381	-0.118190	0.575437	-0.000711	0.081918	0.112755	1.000000	0.000023	0.000030	0.000028	-19.122694	-86.466924	21.424061
55974	9.924317	-0.105046	0.563763	0.011463	0.096623	0.127708	1.000000	0.000023	0.000024	0.000044	-19.198992	-86.464566	21.500535
55975	9.892125	-0.126998	0.546974	0.025825	0.074729	0.095047	1.000000	0.000031	0.000033	0.000026	-19.239880	-86.472099	21.526294
55976	9.926396	-0.123835	0.547971	0.026827	0.079353	0.129240	1.000000	0.000023	0.000024	0.000044	-19.316863	-86.469808	21.603344
55977	9.910376	-0.138496	0.560702	0.013099	0.064013	0.114289	1.000000	0.000030	0.000027	0.000042	-19.353412	-86.473218	21.631531
55978	9.906030	-0.104260	0.594972	-0.022731	0.097500	0.111237	1.000000	0.000028	0.000013	0.000029	-19.410015	-86.472721	21.688678
55979	9.910485	-0.146313	0.603537	-0.029756	0.055340	0.117037	1.000000	0.000029	0.000050	0.000051	-19.440696	-86.472466	21.722539
55980	9.910242	-0.140825	0.562501	0.011279	0.063385	0.114295	1.000000	0.000030	0.000027	0.000042	-19.511573	-86.470030	21.794291
55981	9.889723	-0.114036	0.567284	0.003695	0.089516	0.093543	1.000000	0.000035	0.000023	0.000030	-19.523692	-86.473435	21.803248
55982	9.891841	-0.132208	0.550865	0.021013	0.072826	0.095072	1.000000	0.000041	0.000027	0.000047	-19.601068	-86.470771	21.882716
55983	9.891794	-0.133011	0.551503	0.020274	0.072143	0.095079	1.000000	0.000026	0.000036	0.000038	-19.610028	-86.470915	21.881322
55984	9.889598	-0.116191	0.569027	0.002161	0.088915	0.093549	1.000000	0.000035	0.000023	0.000030	-19.661349	-86.469332	21.933901
55985	9.909865	-0.137908	0.523478	0.048092	0.069495	0.111592	1.000000	0.000027	0.000029	0.000035	-19.721906	-86.477191	21.997251
55986	9.925990	-0.131107	0.553594	0.018781	0.076194	0.129283	1.000000	0.000045	0.000024	0.000034	-19.780152	-86.475433	22.057999
55987	9.889489	-0.118129	0.570510	-0.000860	0.087635	0.093561	1.000000	0.000031	0.000019	0.000039	-19.790187	-86.476502	22.072050
55988	9.907606	-0.122420	0.541863	0.028975	0.085583	0.110069	1.000000	0.000023	0.000030	0.000028	-19.836368	-86.474301	22.118194
55989	9.907721	-0.129434	0.584309	-0.012144	0.076842	0.112788	1.000000	0.000019	0.000034	0.000041	-19.806936	-86.469099	22.077007
55990	9.905376	-0.106342	0.559874	0.011182	0.101594	0.108542	1.000000	0.000031	0.000011	0.000036	-19.876799	-86.468616	22.147704
55991	9.909806	-0.148328	0.568218	0.003499	0.059511	0.114325	1.000000	0.000019	0.000026	0.000037	-19.927759	-86.474609	22.202521
55992	9.923619	-0.117813	0.573445	-0.002082	0.090931	0.127768	1.000000	0.000030	0.000027	0.000042	-19.999300	-86.472279	22.274802
55993	9.905272	-0.108624	0.561283	0.008901	0.100299	0.108558	1.000000	0.000023	0.000024	0.000044	-20.005400	-86.470657	22.276959
55994	9.925689	-0.136912	0.557576	0.014988	0.073521	0.129310	1.000000	0.000038	0.000029	0.000040	-20.070378	-86.468128	22.343474
55995	9.907343	-0.127630	0.545457	0.024854	0.082963	0.110102	1.000000	0.000019	0.000026	0.000037	-20.111039	-86.472452	22.375490
55996	9.923458	-0.120933	0.575574	-0.004470	0.089680	0.127779	1.000000	0.000030	0.000027	0.000042	-20.182671	-86.470139	22.447773
55997	9.907268	-0.129068	0.546488	0.022757	0.082397	0.110112	1.000000	0.000035	0.000023	0.000030	-20.224517	-86.476813	22.484807
55998	9.891209	-0.143606	0.559295	0.009773	0.067806	0.095125	1.000000	0.000040	0.000035	0.000050	-20.303376	-86.473342	22.565481
55999	9.939348	-0.109370	0.565087	0.005004	0.103124	0.142777	1.000000	0.000027	0.000028	0.000035	-20.325609	-86.475567	22.571787
56000	9.907138	-0.131327	0.548295	0.020912	0.081848	0.110121	1.000000	0.000038	0.000029	0.000040	-20.391388	-86.473132	22.638935
56001	9.907092	-0.132066	0.548951	0.019674	0.081193	0.110129	1.000000	0.000026	0.000036	0.000038	-20.420286	-86.475833	22.665926
56002	9.904901	-0.115374	0.566461	0.001543	0.097994	0.108585	1.000000	0.000023	0.000024	0.000044	-20.499031	-86.473789	22.744354
56003	9.888831	-0.130012	0.579264	-0.011192	0.082642	0.093597	1.000000	0.000030	0.000034	0.000045	-20.495169	-86.470923	22.742070
56004	9.904816	-0.117068	0.567589	0.000913	0.097301	0.108592	1.000000	0.000041	0.000020	0.000043	-20.573053	-86.469371	22.821772
56005	9.890892	-0.149129	0.563440	0.004903	0.065242	0.095146	1.000000	0.000019	0.000034	0.000041	-20.602509	-86.471749	22.856387
56006	9.920772	-0.104687	0.556392	0.011865	0.111279	0.123596	1.000000	0.000024	0.000015	0.000022	-20.648518	-86.471587	22.902206
56007	9.904704	-0.119072	0.569131	-0.001186	0.095912	0.108605	1.000000	0.000037	0.000037	0.000043	-20.647848	-86.470230	22.909821
56008	9.906807	-0.137333	0.552793	0.016046	0.079186	0.110151	1.000000	0.000030	0.000019	0.000039	-20.719440	-86.468957	22.982045
56009	9.904630	-0.120554	0.570100	-0.002150	0.095244	0.108611	1.000000	0.000038	0.000021	0.000037	-20.722619	-86.469509	22.988865
56010	9.941056	-0.135045	0.554169	0.016396	0.083061	0.144359	1.000000	0.000030	0.000027	0.000042	-20.794501	-86.467283	23.061334
56011	9.904557	-0.122061	0.571044	-0.002845	0.094590	0.108617	1.000000	0.000030	0.000019	0.000039	-20.795906	-86.466615	23.056083
56012	9.904428	-0.116408	0.529656	0.038162	0.102537	0.105972	1.000000	0.000035	0.000023	0.000030	-20.848194	-86.465225	23.109397
56013	9.920530	-0.109618	0.559754	0.009050	0.108528	0.123629	1.000000	0.000030	0.000027	0.000042	-20.847214	-86.463442	23.101016
56014	9.904356	-0.117912	0.530667	0.037512	0.101857	0.105981	1.000000	0.000023	0.000024	0.000044	-20.925080	-86.461358	23.178567
56015	9.938734	-0.121204	0.573421	-0.002867	0.097784	0.142832	1.000000	0.000027	0.000021	0.000032	-20.911469	-86.460734	23.161488
56016	9.904375	-0.125607	0.573436	-0.004624	0.093283	0.108629	1.000000	0.000038	0.000029	0.000040	-20.976309	-86.458278	23.227676
56017	9.922604	-0.136316	0.586751	-0.016099	0.082540	0.127828	1.000000	0.000034	0.000031	0.000033	-20.959627	-86.456478	23.204755
56018	9.906427	-0.144467	0.557759	0.012366	0.075861	0.110183	1.000000	0.000038	0.000029	0.000040	-21.024290	-86.454008	23.270720
56019	9.885979	-0.117542	0.562453	0.005315	0.102075	0.089449	1.000000	0.000024	0.000023	0.000025	-21.020337	-86.455486	23.254291
56020	9.902073	-0.110705	0.592546	-0.024034	0.108836	0.107091	1.000000	0.000030	0.000027	0.000042	-21.091413	-86.453196	23.325766
56021	9.922362	-0.132581	0.547182	0.022600	0.089256	0.125209	1.000000	0.000038	0.000035	0.000024	-21.100732	-86.456520	23.324149
56022	9.906264	-0.146969	0.559999	0.009592	0.074703	0.110195	1.000000	0.000023	0.000024	0.000044	-21.178440	-86.454432	23.401357
56023	9.922281	-0.133985	0.548308	0.021653	0.088553	0.125217	1.000000	0.000027	0.000028	0.000035	-21.171439	-86.454214	23.405101
56024	9.904047	-0.130921	0.577885	-0.009008	0.090790	0.108649	1.000000	0.000030	0.000019	0.000039	-21.242331	-86.452898	23.476414
56025	9.922210	-0.135419	0.549238	0.020376	0.087901	0.125226	1.000000	0.000019	0.000026	0.000037	-21.259196	-86.454532	23.496789
56026	9.885714	-0.122248	0.566107	0.000973	0.100203	0.089470	1.000000	0.000035	0.000023	0.000030	-21.311106	-86.453138	23.549556
56027	9.919999	-0.119130	0.567158	0.001440	0.104044	0.123681	1.000000	0.000034	0.000031	0.000033	-21.315813	-86.454470	23.554769
56028	9.919958	-0.119969	0.567702	0.000986	0.104079	0.123681	1.000000	0.000037	0.000023	0.000056	-21.412129	-86.452046	23.652285
56029	9.905982	-0.151961	0.563634	0.005287	0.071977	0.110218	1.000000	0.000038	0.000035	0.000024	-21.392774	-86.453142	23.642926
56030	9.922004	-0.138969	0.552072	0.017381	0.086596	0.125243	1.000000	0.000026	0.000030	0.000054	-21.482992	-86.450039	23.733079
56031	9.919825	-0.122375	0.569513	-0.000765	0.102638	0.123696	1.000000	0.000030	0.000027	0.000042	-21.487695	-86.449743	23.746566
56032	9.905844	-0.154352	0.565414	0.003881	0.071293	0.110223	1.000000	0.000027	0.000028	0.000035	-21.545930	-86.447591	23.804846
56033	9.903667	-0.137565	0.582838	-0.014837	0.087383	0.108673	1.000000	0.000030	0.000027	0.000042	-21.576599	-86.450231	23.845134
56034	9.919707	-0.124544	0.571096	-0.002751	0.102000	0.123702	1.000000	0.000027	0.000021	0.000032	-21.634757	-86.449050	23.903409
56035	9.919635	-0.119047	0.529758	0.038534	0.109131	0.121122	1.000000	0.000041	0.000027	0.000047	-21.636643	-86.446870	23.906346
56036	9.885295	-0.129737	0.571723	-0.004671	0.096791	0.089502	1.000000	0.000034	0.000039	0.000036	-21.688343	-86.443598	23.958923
56037	9.903505	-0.140330	0.584934	-0.017337	0.086066	0.108680	1.000000	0.000035	0.000008	0.000024	-21.716559	-86.450696	23.991858
56038	9.885229	-0.131087	0.572556	-0.006528	0.096166	0.089508	1.000000	0.000029	0.000028	0.000061	-21.819006	-86.447522	24.094727
56039	9.921645	-0.145809	0.556737	0.010983	0.083272	0.125281	1.000000	0.000035	0.000023	0.000030	-21.853104	-86.452754	24.121127
56040	9.917342	-0.111460	0.591038	-0.024781	0.116901	0.122158	1.000000	0.000030	0.000034	0.000045	-21.924175	-86.449622	24.192603
56041	9.899063	-0.102213	0.578824	-0.013953	0.126316	0.102996	1.000000	0.000030	0.000019	0.000039	-21.936752	-86.450006	24.198227
56042	9.901156	-0.120483	0.562449	0.003219	0.109543	0.104558	1.000000	0.000037	0.000029	0.000040	-22.001233	-86.447648	24.263961
56043	9.919355	-0.131269	0.575684	-0.008794	0.098769	0.123731	1.000000	0.000030	0.000019	0.000039	-22.019123	-86.449502	24.283357
56044	9.884989	-0.135559	0.575645	-0.010528	0.094295	0.089522	1.000000	0.000023	0.000030	0.000028	-22.064832	-86.447515	24.328671
56045	9.919276	-0.132704	0.576714	-0.009688	0.098094	0.123737	1.000000	0.000037	0.000023	0.000056	-22.096432	-86.446622	24.359095
56046	9.898874	-0.099718	0.539451	0.024971	0.132821	0.100455	1.000000	0.000035	0.000023	0.000030	-22.148118	-86.445311	24.411676
56047	9.900970	-0.124071	0.564946	0.001300	0.107434	0.104581	1.000000	0.000027	0.000028	0.000035	-22.114754	-86.441680	24.379266
56048	9.903055	-0.148452	0.590520	-0.023010	0.082831	0.108696	1.000000	0.000034	0.000031	0.000033	-22.166057	-86.439394	24.431428
56049	9.916990	-0.111752	0.553874	0.013210	0.121319	0.119637	1.000000	0.000023	0.000024	0.000044	-22.169126	-86.437548	24.433803
56050	9.900843	-0.126298	0.566678	0.000195	0.106783	0.104588	1.000000	0.000030	0.000034	0.000045	-22.239083	-86.434369	24.504131
56051	9.884702	-0.134454	0.537637	0.028380	0.099368	0.086999	1.000000	0.000024	0.000023	0.000025	-22.236713	-86.436474	24.496607
56052	9.916873	-0.113914	0.555523	0.011535	0.120703	0.119646	1.000000	0.000030	0.000027	0.000042	-22.306698	-86.434252	24.566984
56053	9.886760	-0.153369	0.521666	0.044808	0.081888	0.088574	1.000000	0.000031	0.000011	0.000036	-22.326924	-86.437069	24.587209
56054	9.916810	-0.115446	0.556337	0.010331	0.120040	0.119656	1.000000	0.000022	0.000032	0.000047	-22.403210	-86.434070	24.662990
56055	9.900636	-0.136104	0.610989	-0.044431	0.096996	0.107143	1.000000	0.000027	0.000028	0.000035	-22.410427	-86.435052	24.668651
56056	9.934944	-0.127025	0.570262	-0.002174	0.109311	0.138819	1.000000	0.000030	0.000027	0.000042	-22.480306	-86.432840	24.738901
56057	9.900571	-0.131445	0.570244	-0.003601	0.104108	0.104616	1.000000	0.000030	0.000027	0.000042	-22.476694	-86.430921	24.732664
56058	9.882318	-0.121971	0.558016	0.007240	0.114196	0.085462	1.000000	0.000039	0.000028	0.000021	-22.508630	-86.429519	24.765871
56059	9.934820	-0.129156	0.571933	-0.003836	0.107923	0.138834	1.000000	0.000036	0.000031	0.000059	-22.563411	-86.430693	24.823568
56060	9.916563	-0.119930	0.559768	0.007004	0.118012	0.119683	1.000000	0.000023	0.000030	0.000028	-22.608073	-86.428693	24.867776
56061	9.934734	-0.130610	0.573100	-0.004494	0.107225	0.138841	1.000000	0.000056	0.000025	0.000039	-22.597170	-86.427122	24.859196
56062	9.916487	-0.121400	0.560795	0.006351	0.117313	0.119692	1.000000	0.000026	0.000022	0.000051	-22.685443	-86.424959	24.947388
56063	9.914331	-0.104761	0.578093	-0.012023	0.133470	0.118132	1.000000	0.000023	0.000024	0.000044	-22.714791	-86.426215	24.966628
56064	9.898163	-0.119219	0.590845	-0.025049	0.118951	0.103066	1.000000	0.000037	0.000029	0.000040	-22.777692	-86.423829	25.030697
56065	9.916368	-0.123888	0.562354	0.004134	0.115987	0.119708	1.000000	0.000030	0.000027	0.000042	-22.809581	-86.426091	25.054859
56066	9.898138	-0.114617	0.549898	0.014985	0.126069	0.100563	1.000000	0.000016	0.000006	0.000040	-22.892232	-86.426111	25.136221
56067	9.914191	-0.107763	0.579939	-0.014361	0.132091	0.118147	1.000000	0.000049	0.000036	0.000028	-22.861879	-86.425058	25.110308
56068	9.898064	-0.115915	0.550950	0.014102	0.125335	0.100574	1.000000	0.000030	0.000027	0.000042	-22.931048	-86.422845	25.179792
56069	9.881884	-0.130354	0.563770	0.000626	0.110050	0.085512	1.000000	0.000019	0.000034	0.000040	-22.946589	-86.424169	25.198195
56070	9.918295	-0.144985	0.548054	0.018978	0.097701	0.121298	1.000000	0.000016	0.000020	0.000027	-22.997485	-86.423302	25.247815
56071	9.900005	-0.141691	0.577558	-0.011052	0.099210	0.104661	1.000000	0.000019	0.000026	0.000037	-22.967765	-86.420183	25.217496
56072	9.918229	-0.146149	0.548952	0.018635	0.096918	0.121306	1.000000	0.000032	0.000017	0.000020	-23.005745	-86.419919	25.255946
56073	9.918198	-0.146716	0.549363	0.018710	0.096168	0.121313	1.000000	0.000012	0.000023	0.000040	-22.989129	-86.417165	25.234859
56074	9.934238	-0.139851	0.579478	-0.010700	0.102967	0.138882	1.000000	0.000042	0.000026	0.000028	-23.032596	-86.415658	25.279990
56075	9.847332	-0.137569	0.566104	-0.002767	0.103383	0.051321	1.000000	0.000056	0.000032	0.000042	-23.052385	-86.417230	25.305084
56076	9.869778	-0.177432	0.503954	0.062121	0.067387	0.071116	1.000000	0.000041	0.000020	0.000043	-23.127134	-86.415677	25.381471
56077	9.952302	-0.152121	0.593866	-0.023958	0.091503	0.158029	1.000000	-0.000018	0.000027	0.000036	-23.130494	-86.415466	25.371546
56078	9.913706	-0.121221	0.627325	-0.060839	0.120761	0.120666	1.000000	0.000038	0.000014	0.000034	-23.193007	-86.414972	25.435314
56079	9.899788	-0.140781	0.539490	0.026520	0.104108	0.102207	1.000000	0.000071	0.000030	0.000035	-23.186779	-86.415727	25.433515
56080	9.901855	-0.158985	0.523332	0.043640	0.087268	0.103782	1.000000	0.000016	0.000035	0.000034	-23.236252	-86.412940	25.481620
56081	9.913664	-0.116979	0.587116	-0.020393	0.127009	0.118203	1.000000	0.000020	0.000018	0.000034	-23.211812	-86.410924	25.452404
56082	9.897557	-0.125161	0.557995	0.008079	0.120227	0.100644	1.000000	0.000045	0.000032	0.000037	-23.266850	-86.408354	25.509456
56083	9.934059	-0.133609	0.500464	0.067725	0.114750	0.133975	1.000000	0.000050	0.000020	0.000022	-23.242927	-86.410559	25.495007
56084	9.913645	-0.112844	0.546759	0.019513	0.133956	0.115742	1.000000	0.000011	0.000025	0.000059	-23.341930	-86.407737	25.592216
56085	9.929666	-0.106115	0.577053	-0.010635	0.140074	0.133306	1.000000	0.000027	0.000042	0.000022	-23.338342	-86.410377	25.581246
56086	9.897394	-0.127657	0.560313	0.005276	0.118775	0.100663	1.000000	0.000068	0.000024	0.000025	-23.374808	-86.409251	25.622356
56087	9.897357	-0.128195	0.560840	0.005104	0.117999	0.100673	1.000000	0.000027	0.000028	0.000035	-23.352656	-86.407548	25.598140
56088	9.911375	-0.097687	0.565967	-0.000391	0.149380	0.114191	1.000000	0.000019	0.000026	0.000037	-23.414224	-86.405594	25.658813
56089	9.913343	-0.122007	0.591501	-0.025502	0.124092	0.118228	1.000000	0.000034	0.000023	0.000030	-23.431403	-86.409868	25.674832
56090	9.913409	-0.116484	0.550270	0.015529	0.131801	0.115778	1.000000	0.000023	0.000038	0.000031	-23.473854	-86.406941	25.716775
56091	9.897192	-0.130700	0.563177	0.003480	0.116512	0.100691	1.000000	0.000034	0.000031	0.000033	-23.417248	-86.401545	25.656751
56092	9.911215	-0.100338	0.568298	-0.002005	0.147890	0.114213	1.000000	0.000037	0.000023	0.000056	-23.509093	-86.399069	25.749747
56093	9.931446	-0.129056	0.564860	0.004676	0.120202	0.134919	1.000000	0.000025	0.000030	0.000054	-23.494309	-86.393028	25.724114
56094	9.894959	-0.115751	0.581571	-0.014559	0.132646	0.099125	1.000000	0.000024	0.000023	0.000025	-23.536694	-86.391941	25.766042
56095	9.913208	-0.120377	0.553049	0.014861	0.129491	0.115810	1.000000	0.000030	0.000027	0.000042	-23.548906	-86.392978	25.778076
56096	9.894882	-0.117114	0.582613	-0.015743	0.131880	0.099134	1.000000	0.000027	0.000028	0.000035	-23.603118	-86.390830	25.832200
56097	9.913127	-0.121751	0.554195	0.013446	0.128758	0.115821	1.000000	0.000034	0.000031	0.000033	-23.610012	-86.393026	25.829769
56098	9.894798	-0.118482	0.583756	-0.017157	0.131156	0.099141	1.000000	0.000023	0.000024	0.000044	-23.682928	-86.390930	25.902150
56099	9.913045	-0.123163	0.555349	0.012232	0.128039	0.115832	1.000000	0.000049	0.000036	0.000028	-23.669437	-86.391645	25.886812
56100	9.929051	-0.116296	0.585607	-0.017185	0.134874	0.133369	1.000000	0.000030	0.000027	0.000042	-23.735890	-86.389397	25.953548
56101	9.899017	-0.149738	0.510092	0.057776	0.103538	0.099885	1.000000	0.000030	0.000027	0.000042	-23.737921	-86.389264	25.956611
56102	9.880684	-0.146483	0.539624	0.027175	0.105942	0.083201	1.000000	0.000019	0.000026	0.000037	-23.798274	-86.387294	26.016000
56103	9.894734	-0.116052	0.544717	0.021237	0.136546	0.096745	1.000000	0.000030	0.000027	0.000042	-23.820291	-86.389480	26.039494
56104	9.894694	-0.116823	0.545274	0.020765	0.136547	0.096746	1.000000	0.000037	0.000029	0.000040	-23.880125	-86.387085	26.100454
56105	9.912797	-0.127734	0.558731	0.008435	0.125718	0.115866	1.000000	0.000022	0.000032	0.000047	-23.907172	-86.388438	26.128037
56106	9.914859	-0.146165	0.542457	0.025516	0.108827	0.117447	1.000000	0.000030	0.000019	0.000039	-23.973866	-86.387160	26.195060
56107	9.880317	-0.156510	0.584208	-0.017869	0.096030	0.085642	1.000000	0.000030	0.000034	0.000045	-23.988194	-86.387094	26.197580
56108	9.914774	-0.147750	0.543586	0.024347	0.108079	0.117458	1.000000	0.000056	0.000024	0.000039	-24.047901	-86.385226	26.260522
56109	9.896431	-0.144336	0.573135	-0.006919	0.109742	0.100766	1.000000	0.000023	0.000030	0.000028	-24.054068	-86.388714	26.262393
56110	9.912427	-0.137474	0.603339	-0.036353	0.116587	0.118285	1.000000	0.000030	0.000027	0.000042	-24.120157	-86.386507	26.328741
56111	9.894418	-0.122085	0.549111	0.016144	0.133461	0.096796	1.000000	0.000038	0.000021	0.000037	-24.112798	-86.386913	26.321567
56112	9.896309	-0.146452	0.574697	-0.008316	0.108938	0.100774	1.000000	0.000037	0.000029	0.000040	-24.172294	-86.384550	26.382163
56113	9.910551	-0.110006	0.537957	0.027786	0.147145	0.111933	1.000000	0.000030	0.000027	0.000042	-24.174739	-86.384293	26.375470
56114	9.928467	-0.126871	0.593258	-0.025634	0.129482	0.133422	1.000000	0.000045	0.000031	0.000037	-24.227652	-86.381773	26.430308
56115	9.894262	-0.125028	0.551266	0.014055	0.131893	0.096820	1.000000	0.000030	0.000019	0.000039	-24.237800	-86.383534	26.442394
56116	9.928568	-0.122316	0.552439	0.014733	0.136294	0.131046	1.000000	0.000019	0.000034	0.000040	-24.296898	-86.380662	26.500437
56117	9.873769	-0.104888	0.598145	-0.034527	0.150454	0.078534	1.000000	0.000030	0.000027	0.000042	-24.296841	-86.380443	26.494501
56118	9.910173	-0.119755	0.582535	-0.016315	0.137941	0.114343	1.000000	0.000045	0.000024	0.000034	-24.350077	-86.378876	26.549695
56119	9.894103	-0.127909	0.553449	0.011944	0.130281	0.096845	1.000000	0.000034	0.000031	0.000033	-24.340731	-86.379795	26.542801
56120	9.928403	-0.125119	0.554774	0.012614	0.134674	0.131071	1.000000	0.000026	0.000036	0.000038	-24.393116	-86.376775	26.594958
56121	9.871704	-0.083928	0.575311	-0.012858	0.173371	0.074595	1.000000	0.000020	0.000018	0.000034	-24.398285	-86.378950	26.593719
56122	9.894177	-0.123947	0.513337	0.051827	0.137056	0.094489	1.000000	0.000063	0.000035	0.000040	-24.450141	-86.376012	26.649555
56123	9.897932	-0.171843	0.563988	0.003381	0.087217	0.102405	1.000000	-0.000028	0.000011	0.000025	-24.435516	-86.378116	26.627633
56124	9.849109	-0.046313	0.639033	-0.079404	0.208835	0.054710	1.000000	0.000050	0.000013	0.000019	-24.471117	-86.378439	26.665699
56125	9.986991	-0.187604	0.520204	0.051690	0.075814	0.189181	1.000000	0.000056	0.000024	0.000039	-24.494582	-86.381926	26.682209
56126	9.841194	-0.131484	0.585012	-0.023456	0.125935	0.045924	1.000000	-0.000039	0.000018	0.000023	-24.543195	-86.381470	26.723095
56127	9.903365	-0.078226	0.678971	-0.115261	0.177110	0.111984	1.000000	0.000078	0.000032	0.000032	-24.494781	-86.378864	26.674438
56128	9.936512	-0.200351	0.491355	0.078524	0.063652	0.137469	1.000000	0.000020	0.000018	0.000034	-24.554435	-86.377906	26.733068
56129	9.927893	-0.136574	0.600669	-0.034399	0.122994	0.133478	1.000000	-0.000014	0.000026	0.000043	-24.593319	-86.382040	26.777307
56130	9.925546	-0.125812	0.659739	-0.093946	0.132353	0.134232	1.000000	0.000052	0.000020	0.000048	-24.670610	-86.380248	26.857324
56131	9.946152	-0.142070	0.572538	-0.005402	0.119638	0.150223	1.000000	0.000054	0.000017	0.000010	-24.624181	-86.383357	26.815345
56132	9.912197	-0.134131	0.488828	0.076057	0.130347	0.111315	1.000000	0.000040	0.000050	0.000056	-24.692595	-86.378063	26.885059
56133	9.927943	-0.133611	0.560998	0.005143	0.128825	0.131155	1.000000	0.000000	0.000017	0.000051	-24.712293	-86.378303	26.897611
56134	9.905613	-0.089129	0.582193	-0.018924	0.172727	0.108899	1.000000	0.000063	0.000042	0.000043	-24.762661	-86.374449	26.951887
56135	9.960331	-0.108205	0.538003	0.029648	0.156767	0.161474	1.000000	0.000052	0.000042	0.000038	-24.722615	-86.371545	26.910898
56136	9.855142	-0.101609	0.553467	0.008270	0.160553	0.057198	1.000000	0.000030	0.000034	0.000045	-24.786007	-86.368423	26.974435
56137	9.889685	-0.093100	0.512944	0.050106	0.171624	0.089115	1.000000	0.000022	0.000032	0.000047	-24.803950	-86.369481	26.987955
56138	9.921671	-0.078846	0.572770	-0.008309	0.185383	0.124083	1.000000	0.000048	0.000022	0.000041	-24.868178	-86.367827	27.054502
56139	9.889607	-0.094689	0.514161	0.048193	0.170747	0.089140	1.000000	0.000033	0.000046	0.000039	-24.884266	-86.370859	27.068456
56140	9.905572	-0.087962	0.544482	0.018736	0.177616	0.106620	1.000000	0.000015	0.000022	0.000046	-24.961131	-86.369014	27.143829
56141	9.905296	-0.094581	0.586708	-0.023425	0.169217	0.108950	1.000000	0.000024	0.000015	0.000022	-24.938367	-86.371956	27.118695
56142	9.877169	-0.151596	0.536268	0.027475	0.113986	0.079496	1.000000	0.000022	0.000032	0.000047	-25.007907	-86.369019	27.187533
56143	9.857204	-0.118761	0.498788	0.061962	0.147640	0.056544	1.000000	0.000022	0.000024	0.000044	-25.032518	-86.372018	27.212223
56144	9.875010	-0.135583	0.553916	0.008448	0.130046	0.077916	1.000000	0.000031	0.000011	0.000036	-25.098104	-86.371787	27.278082
56145	9.893069	-0.146410	0.567174	-0.002784	0.119067	0.096992	1.000000	0.000012	0.000023	0.000040	-25.059317	-86.368837	27.224382
56146	9.909296	-0.133811	0.555388	0.009306	0.133449	0.112161	1.000000	0.000018	0.000020	0.000053	-25.147835	-86.366849	27.311795
56147	9.897156	-0.183494	0.534593	0.031322	0.084195	0.100188	1.000000	0.000019	0.000026	0.000037	-25.127732	-86.366857	27.288543
56148	9.892956	-0.148871	0.568502	-0.004155	0.118081	0.097004	1.000000	0.000020	0.000018	0.000034	-25.186091	-86.365948	27.345882
56149	9.909186	-0.136225	0.556768	0.007422	0.131587	0.112188	1.000000	0.000025	0.000030	0.000054	-25.218152	-86.367814	27.378655
56150	9.929307	-0.164857	0.553470	0.012934	0.104546	0.132841	1.000000	0.000038	0.000021	0.000037	-25.275856	-86.366482	27.437435
56151	9.876832	-0.158880	0.540364	0.022713	0.109359	0.079560	1.000000	0.000048	0.000030	0.000044	-25.273812	-86.366739	27.437299
56152	9.929214	-0.166363	0.554678	0.011831	0.103626	0.132852	1.000000	0.000034	0.000038	0.000036	-25.317380	-86.363660	27.481439
56153	9.929169	-0.167110	0.555265	0.010827	0.102745	0.132863	1.000000	0.000041	0.000019	0.000043	-25.340058	-86.367051	27.504409
56154	9.941255	-0.119024	0.576940	-0.012059	0.151036	0.144853	1.000000	0.000045	0.000024	0.000034	-25.391170	-86.365591	27.557426
56155	9.941213	-0.119726	0.577506	-0.013226	0.150137	0.144865	1.000000	0.000056	0.000032	0.000042	-25.405839	-86.368678	27.571739
56156	9.892609	-0.154890	0.572917	-0.009920	0.114397	0.097043	1.000000	0.000023	0.000030	0.000028	-25.444446	-86.366868	27.609719
56157	9.888702	-0.114296	0.565057	-0.004267	0.154909	0.091593	1.000000	0.000030	0.000026	0.000042	-25.456973	-86.369452	27.617323
56158	9.890732	-0.132607	0.549031	0.012708	0.137900	0.093191	1.000000	0.000038	0.000043	0.000027	-25.481752	-86.366421	27.643114
56159	9.922957	-0.112159	0.567280	-0.004265	0.158297	0.125843	1.000000	0.000034	0.000038	0.000036	-25.457755	-86.366166	27.617893
56160	9.906924	-0.120413	0.538271	0.024209	0.151331	0.108396	1.000000	0.000019	0.000026	0.000037	-25.514715	-86.364377	27.673786
56161	9.919024	-0.072291	0.560028	0.001500	0.198732	0.120408	1.000000	0.000027	0.000028	0.000035	-25.487475	-86.364164	27.639558
56162	9.890252	-0.141117	0.593390	-0.030797	0.128522	0.095473	1.000000	0.000027	0.000021	0.000032	-25.538784	-86.363177	27.690680
56163	9.888751	-0.112225	0.526948	0.034324	0.159428	0.089386	1.000000	0.000023	0.000038	0.000031	-25.503054	-86.363184	27.650060
56164	9.890478	-0.136432	0.552664	0.009724	0.134959	0.093235	1.000000	0.000020	0.000018	0.000034	-25.560592	-86.362346	27.706581
56165	9.888678	-0.113569	0.528022	0.033459	0.158409	0.089405	1.000000	0.000019	0.000034	0.000040	-25.535158	-86.361417	27.679604
56166	9.872339	-0.127603	0.540845	0.020370	0.143988	0.074210	1.000000	0.000039	0.000027	0.000021	-25.561128	-86.360294	27.706686
56167	9.888287	-0.120462	0.571002	-0.009002	0.149935	0.091666	1.000000	0.000024	0.000022	0.000025	-25.518023	-86.361335	27.671660
56168	9.906632	-0.125195	0.542536	0.020549	0.147277	0.108465	1.000000	0.000034	0.000023	0.000030	-25.562360	-86.360213	27.716683
56169	9.908671	-0.143551	0.526328	0.037061	0.129352	0.110079	1.000000	0.000030	0.000026	0.000042	-25.572416	-86.362915	27.720728
56170	9.888185	-0.122286	0.572378	-0.010953	0.148910	0.091680	1.000000	0.000035	0.000015	0.000027	-25.617694	-86.362754	27.766732
56171	9.922516	-0.119697	0.573426	-0.010822	0.152288	0.125932	1.000000	0.000037	0.000015	0.000053	-25.652033	-86.366046	27.795754
56172	9.940865	-0.124841	0.544857	0.018717	0.149609	0.142739	1.000000	0.000041	0.000019	0.000043	-25.720616	-86.364653	27.865819
56173	9.890156	-0.142492	0.556881	0.004213	0.129934	0.093306	1.000000	0.000040	0.000035	0.000050	-25.726735	-86.365845	27.861536
56174	9.934574	-0.073440	0.595996	-0.034998	0.199545	0.137957	1.000000	0.000038	0.000014	0.000034	-25.784060	-86.365556	27.920000
56175	9.922373	-0.123036	0.575198	-0.013402	0.150214	0.125961	1.000000	0.000033	0.000025	0.000049	-25.792716	-86.366976	27.925668
56176	9.902555	-0.090310	0.537632	0.021752	0.184609	0.103120	1.000000	0.000033	0.000032	0.000052	-25.865348	-86.363847	27.998863
56177	9.903896	-0.120634	0.605274	-0.044616	0.151804	0.109159	1.000000	0.000030	0.000026	0.000042	-25.857152	-86.365289	27.985296
56178	9.920520	-0.102152	0.551688	0.009045	0.173491	0.122167	1.000000	0.000022	0.000024	0.000044	-25.924886	-86.363403	28.052404
56179	9.905877	-0.140130	0.589632	-0.027637	0.133709	0.110772	1.000000	0.000036	0.000030	0.000059	-25.906810	-86.359979	28.033354
56180	9.884012	-0.089707	0.568746	-0.009906	0.185101	0.086345	1.000000	0.000030	0.000026	0.000042	-25.967742	-86.357942	28.094500
56181	9.922114	-0.128330	0.578487	-0.016413	0.146995	0.126004	1.000000	0.000034	0.000023	0.000030	-25.951147	-86.361330	28.072461
56182	9.888064	-0.126507	0.536507	0.023610	0.150016	0.089565	1.000000	0.000029	0.000042	0.000048	-26.009790	-86.357413	28.131231
56183	9.905683	-0.143404	0.592091	-0.030220	0.131589	0.110793	1.000000	0.000022	0.000032	0.000047	-26.008455	-86.358203	28.124988
56184	9.937933	-0.123224	0.610114	-0.047121	0.152835	0.143435	1.000000	0.000019	0.000026	0.000037	-26.063360	-86.356478	28.178865
56185	9.889626	-0.152598	0.563578	-0.001881	0.123512	0.093389	1.000000	0.000022	0.000032	0.000047	-26.034756	-86.354517	28.141323
56186	9.905915	-0.139952	0.551931	0.010209	0.137780	0.108617	1.000000	0.000008	0.000025	0.000033	-26.083631	-86.353082	28.187925
56187	9.905873	-0.140525	0.552542	0.009817	0.136775	0.108632	1.000000	0.000049	0.000036	0.000028	-26.033062	-86.352841	28.133459
56188	9.889490	-0.154636	0.565400	-0.003292	0.122380	0.093403	1.000000	0.000004	0.000029	0.000045	-26.099123	-86.350449	28.196747
56189	9.889446	-0.155474	0.565949	-0.003635	0.121349	0.093415	1.000000	0.000030	0.000026	0.000042	-26.075389	-86.350317	28.164629
56190	9.907810	-0.160532	0.537509	0.025881	0.118574	0.110249	1.000000	0.000030	0.000019	0.000039	-26.136381	-86.349243	28.225861
56191	9.887307	-0.139270	0.583568	-0.022268	0.137304	0.091828	1.000000	0.000037	0.000029	0.000040	-26.123676	-86.350783	28.205789
56192	9.905673	-0.144307	0.555154	0.007245	0.134519	0.108665	1.000000	0.000030	0.000019	0.000039	-26.184541	-86.349717	28.266891
56193	9.905640	-0.145017	0.555559	0.007055	0.133455	0.108679	1.000000	0.000038	0.000021	0.000037	-26.145919	-86.349623	28.227850
56194	9.887586	-0.135489	0.543087	0.018120	0.143425	0.089674	1.000000	0.000023	0.000030	0.000028	-26.181182	-86.347919	28.262499
56195	9.887548	-0.136202	0.543592	0.017557	0.142398	0.089690	1.000000	0.000052	0.000020	0.000048	-26.178394	-86.349099	28.268451
56196	9.921478	-0.139477	0.586757	-0.023510	0.139268	0.126101	1.000000	0.000023	0.000030	0.000028	-26.213478	-86.347401	28.302918
56197	9.901367	-0.112245	0.590986	-0.030230	0.165315	0.105512	1.000000	0.000056	0.000024	0.000039	-26.205619	-86.350264	28.302117
56198	9.917684	-0.099478	0.579249	-0.018134	0.179550	0.120757	1.000000	0.000034	0.000023	0.000030	-26.247471	-86.349230	28.344645
56199	9.919710	-0.117812	0.563024	-0.001256	0.161452	0.122374	1.000000	0.000038	0.000021	0.000037	-26.223747	-86.350836	28.324292
56200	9.937685	-0.128568	0.576470	-0.013345	0.151324	0.141375	1.000000	0.000034	0.000023	0.000030	-26.265432	-86.349808	28.366653
56201	9.919649	-0.119017	0.563841	-0.001909	0.160294	0.122393	1.000000	0.000038	0.000013	0.000034	-26.225886	-86.350584	28.319277
56202	9.899561	-0.091797	0.567826	-0.008237	0.187305	0.101798	1.000000	0.000019	0.000018	0.000034	-26.280109	-86.349832	28.372487
56203	9.919584	-0.120415	0.564685	-0.002933	0.159134	0.122411	1.000000	0.000029	0.000034	0.000045	-26.258672	-86.349701	28.349925
56204	9.899070	-0.099055	0.610803	-0.050852	0.178847	0.103961	1.000000	0.000034	0.000023	0.000030	-26.299925	-86.348677	28.391849
56205	9.905199	-0.152820	0.561295	0.000986	0.126632	0.108771	1.000000	0.000008	0.000025	0.000033	-26.262335	-86.349325	28.349606
56206	9.919470	-0.122432	0.566260	-0.004316	0.157892	0.122431	1.000000	0.000030	0.000026	0.000042	-26.320686	-86.347341	28.408133
56207	9.919012	-0.128927	0.608618	-0.046177	0.149512	0.124583	1.000000	0.000027	0.000021	0.000032	-26.278725	-86.348383	28.339705
56208	9.900971	-0.119447	0.596175	-0.035085	0.159470	0.105592	1.000000	0.000026	0.000036	0.000038	-26.323562	-86.345613	28.384269
56209	9.903409	-0.132088	0.538202	0.023607	0.148566	0.105074	1.000000	0.000038	0.000021	0.000037	-26.288351	-86.346415	28.332437
56210	9.903365	-0.132916	0.538809	0.023102	0.148475	0.105077	1.000000	0.000022	0.000039	0.000050	-26.350211	-86.342683	28.393534
56211	9.915588	-0.084929	0.560560	0.000795	0.195756	0.117167	1.000000	0.000019	0.000026	0.000037	-26.305740	-86.342302	28.337667
56212	9.886911	-0.147772	0.552096	0.009805	0.132969	0.089831	1.000000	0.000045	0.000016	0.000031	-26.352933	-86.341937	28.386805
56213	9.921244	-0.145234	0.553329	0.010302	0.136075	0.124099	1.000000	0.000030	0.000026	0.000042	-26.329113	-86.342911	28.358036
56214	9.899111	-0.100364	0.574198	-0.013339	0.180175	0.101924	1.000000	0.000045	0.000031	0.000037	-26.373729	-86.340663	28.404509
56215	9.901127	-0.118861	0.557987	0.003369	0.162014	0.103539	1.000000	0.000052	0.000012	0.000045	-26.374918	-86.343755	28.393679
56216	9.903590	-0.131645	0.499840	0.061845	0.152049	0.103023	1.000000	0.000030	0.000026	0.000042	-26.432135	-86.341788	28.451060
56217	9.901062	-0.120467	0.558807	0.002279	0.160823	0.103558	1.000000	0.000023	0.000016	0.000041	-26.419760	-86.343949	28.446592
56218	9.896926	-0.085821	0.592639	-0.032960	0.194892	0.100368	1.000000	0.000048	0.000037	0.000047	-26.474874	-86.340611	28.503902
56219	9.882996	-0.111910	0.546927	0.013145	0.169652	0.084601	1.000000	0.000045	0.000024	0.000034	-26.428189	-86.340812	28.460831
56220	9.935316	-0.119553	0.561140	0.002021	0.163724	0.137833	1.000000	0.000005	0.000013	0.000039	-26.493241	-86.340362	28.523141
56221	9.898873	-0.105666	0.577334	-0.017411	0.175498	0.102002	1.000000	0.000034	0.000023	0.000030	-26.476700	-86.344834	28.517081
56222	9.918850	-0.134360	0.574353	-0.012175	0.148265	0.122572	1.000000	0.000032	0.000040	0.000055	-26.542980	-86.340838	28.583812
56223	9.900824	-0.125065	0.562003	-0.001214	0.157213	0.103616	1.000000	0.000027	0.000028	0.000035	-26.517442	-86.342867	28.539706
56224	9.884389	-0.139097	0.574759	-0.014346	0.142859	0.088334	1.000000	0.000019	0.000026	0.000037	-26.568284	-86.341224	28.589429
56225	9.920761	-0.154346	0.559482	0.002646	0.128887	0.124200	1.000000	0.000027	0.000028	0.000035	-26.570717	-86.346362	28.602022
56226	9.884772	-0.134774	0.534056	0.025404	0.148869	0.086266	1.000000	0.000037	0.000037	0.000043	-26.619589	-86.343365	28.651816
56227	9.920671	-0.155773	0.560677	0.001854	0.127579	0.124217	1.000000	0.000009	0.000018	0.000030	-26.570834	-86.345028	28.582222
56228	9.884228	-0.141820	0.576845	-0.016996	0.140371	0.088365	1.000000	0.000019	0.000018	0.000034	-26.622696	-86.344353	28.633016
56229	9.902636	-0.146909	0.548492	0.012156	0.136397	0.105269	1.000000	0.000045	0.000031	0.000037	-26.601742	-86.346725	28.599588
56230	9.902592	-0.147719	0.549055	0.011644	0.136284	0.105272	1.000000	0.000033	0.000025	0.000049	-26.669988	-86.344660	28.668352
56231	9.900510	-0.130826	0.566201	-0.006238	0.152242	0.103692	1.000000	0.000030	0.000026	0.000042	-26.644151	-86.345714	28.646444
56232	9.884065	-0.144852	0.578888	-0.019378	0.137896	0.088396	1.000000	0.000027	0.000021	0.000032	-26.689330	-86.344922	28.691378
56233	9.900435	-0.132237	0.567177	-0.006851	0.150870	0.103713	1.000000	0.000048	0.000029	0.000044	-26.636290	-86.343779	28.634085
56234	9.902428	-0.150861	0.551162	0.009980	0.133641	0.105309	1.000000	0.000022	0.000032	0.000047	-26.697020	-86.341071	28.694054
56235	9.914728	-0.102853	0.572640	-0.012683	0.180932	0.117440	1.000000	0.000041	0.000012	0.000040	-26.684422	-86.344441	28.668006
56236	9.900820	-0.128867	0.526683	0.033134	0.156616	0.101677	1.000000	0.000034	0.000023	0.000030	-26.722753	-86.343523	28.706946
56237	9.882328	-0.124913	0.556106	0.003302	0.158252	0.084798	1.000000	0.000038	0.000035	0.000024	-26.620927	-86.341478	28.613794
56238	9.916662	-0.122272	0.557504	0.003769	0.162305	0.119059	1.000000	0.000027	0.000021	0.000032	-26.665289	-86.340691	28.657927
56239	9.880727	-0.102622	0.531783	0.026557	0.181192	0.081177	1.000000	0.000030	0.000019	0.000039	-26.635511	-86.342738	28.637848
56240	9.900174	-0.136927	0.570612	-0.009904	0.146758	0.103772	1.000000	0.000034	0.000031	0.000033	-26.672018	-86.340880	28.674928
56241	9.916554	-0.124321	0.558970	0.001880	0.159809	0.119101	1.000000	0.000030	0.000026	0.000042	-26.658476	-86.343542	28.666193
56242	9.915000	-0.101522	0.534087	0.025666	0.183943	0.115468	1.000000	0.000027	0.000013	0.000029	-26.703827	-86.343718	28.711361
56243	9.896506	-0.097760	0.563391	-0.004988	0.185652	0.098584	1.000000	0.000029	0.000034	0.000045	-26.678926	-86.344658	28.695786
56244	9.900019	-0.139831	0.572590	-0.012456	0.144141	0.103807	1.000000	0.000041	0.000019	0.000043	-26.740574	-86.343440	28.758849
56245	9.914376	-0.109430	0.577487	-0.017279	0.174250	0.117552	1.000000	0.000023	0.000030	0.000028	-26.669681	-86.343341	28.663114
56246	9.916884	-0.122197	0.519685	0.041170	0.164113	0.117115	1.000000	0.000018	0.000041	0.000043	-26.715766	-86.339887	28.707986
56247	9.898371	-0.118513	0.549213	0.010074	0.165893	0.100223	1.000000	0.000037	0.000029	0.000040	-26.711340	-86.343972	28.700120
56248	9.932176	-0.121839	0.592525	-0.031115	0.162795	0.136512	1.000000	0.000030	0.000026	0.000042	-26.765644	-86.342126	28.754534
56249	9.898288	-0.120135	0.550347	0.008904	0.164556	0.100247	1.000000	0.000022	0.000032	0.000047	-26.746608	-86.343218	28.734118
56250	9.932619	-0.117771	0.551832	0.009345	0.168565	0.134513	1.000000	0.000034	0.000031	0.000033	-26.782286	-86.341410	28.770340
56251	9.932036	-0.124185	0.594382	-0.032394	0.160174	0.136551	1.000000	0.000029	0.000034	0.000045	-26.727938	-86.340077	28.694763
56252	9.898155	-0.122454	0.552223	0.007782	0.162984	0.100274	1.000000	0.000030	0.000026	0.000042	-26.781742	-86.338241	28.748673
56253	9.916045	-0.133366	0.565883	-0.004211	0.151655	0.119228	1.000000	0.000045	0.000031	0.000037	-26.724254	-86.338434	28.681224
56254	9.898069	-0.123996	0.553431	0.006972	0.161558	0.100298	1.000000	0.000022	0.000032	0.000047	-26.782837	-86.335792	28.739028
56255	9.895990	-0.107068	0.570716	-0.010370	0.177414	0.098731	1.000000	0.000037	0.000036	0.000043	-26.717566	-86.333820	28.667113
56256	9.914424	-0.112373	0.542530	0.019070	0.174292	0.115657	1.000000	0.000030	0.000026	0.000042	-26.770762	-86.331988	28.720414
56257	9.879454	-0.121936	0.584085	-0.024134	0.161883	0.083415	1.000000	0.000030	0.000026	0.000042	-26.741977	-86.333431	28.707379
56258	9.934294	-0.142090	0.540118	0.023551	0.145737	0.136198	1.000000	0.000036	0.000030	0.000059	-26.817694	-86.330336	28.783943
56259	9.895820	-0.110532	0.573002	-0.012448	0.174652	0.098777	1.000000	0.000019	0.000026	0.000037	-26.776489	-86.331965	28.720425
56260	9.897821	-0.128893	0.556740	0.004339	0.157344	0.100367	1.000000	0.000035	0.000008	0.000024	-26.814876	-86.333007	28.759480
56261	9.897225	-0.134973	0.599072	-0.037991	0.149021	0.102378	1.000000	0.000038	0.000035	0.000024	-26.748892	-86.335182	28.700264
56262	9.916236	-0.134577	0.528908	0.033087	0.152926	0.117323	1.000000	0.000018	0.000020	0.000053	-26.826279	-86.333476	28.776459
56263	9.914174	-0.117634	0.545983	0.015117	0.168839	0.115758	1.000000	0.000026	0.000028	0.000035	-26.787403	-86.335735	28.737104
56264	9.877728	-0.103687	0.562313	-0.003618	0.181735	0.079907	1.000000	0.000029	0.000034	0.000045	-26.838520	-86.332994	28.788263
56265	9.931999	-0.129399	0.560312	0.002209	0.157366	0.134701	1.000000	0.000030	0.000026	0.000042	-26.809937	-86.335112	28.764895
56266	9.915492	-0.143455	0.573055	-0.010947	0.143051	0.119350	1.000000	0.000030	0.000026	0.000042	-26.862204	-86.333322	28.817246
56267	9.899563	-0.151777	0.543935	0.017867	0.134607	0.102039	1.000000	0.000034	0.000031	0.000033	-26.790363	-86.333340	28.733819
56268	9.897507	-0.134490	0.560980	0.000073	0.151616	0.100457	1.000000	0.000024	0.000015	0.000022	-26.820976	-86.333768	28.763808
56269	9.931853	-0.132152	0.562251	0.000821	0.154398	0.134748	1.000000	0.000036	0.000023	0.000056	-26.793294	-86.333461	28.718685
56270	9.898870	-0.159432	0.587162	-0.024996	0.125950	0.104031	1.000000	0.000042	0.000025	0.000028	-26.821642	-86.332522	28.748442
56271	9.913873	-0.123401	0.550151	0.011646	0.162985	0.115861	1.000000	0.000030	0.000026	0.000042	-26.778294	-86.333309	28.703975
56272	9.915265	-0.147527	0.575945	-0.013243	0.138631	0.119410	1.000000	0.000027	0.000020	0.000032	-26.819125	-86.332639	28.744524
56273	9.913201	-0.130492	0.593083	-0.030290	0.154425	0.117849	1.000000	0.000040	0.000035	0.000049	-26.746326	-86.329346	28.669482
56274	9.913755	-0.125656	0.551762	0.010861	0.161259	0.115890	1.000000	0.000045	0.000023	0.000034	-26.786114	-86.328246	28.711072
56275	9.880755	-0.152755	0.576733	-0.015005	0.131706	0.085176	1.000000	0.000034	0.000031	0.000033	-26.732163	-86.329872	28.656511
56276	9.895174	-0.122410	0.581670	-0.020122	0.162854	0.098966	1.000000	0.000030	0.000026	0.000042	-26.783119	-86.328101	28.707534
56277	9.911010	-0.115576	0.611894	-0.049376	0.168669	0.116310	1.000000	0.000030	0.000026	0.000042	-26.731853	-86.328283	28.654499
56278	9.895095	-0.123847	0.582717	-0.020879	0.161362	0.098989	1.000000	0.000042	0.000025	0.000028	-26.759178	-86.327359	28.683216
56279	9.912157	-0.105659	0.529115	0.032490	0.181211	0.112436	1.000000	0.000030	0.000026	0.000042	-26.744578	-86.331026	28.658771
56280	9.913526	-0.129839	0.554904	0.007583	0.156863	0.115964	1.000000	0.000030	0.000019	0.000039	-26.796516	-86.330216	28.710809
56281	9.910074	-0.089287	0.546633	0.014062	0.196901	0.110889	1.000000	0.000034	0.000031	0.000033	-26.744338	-86.332499	28.659513
56282	9.894929	-0.126620	0.584925	-0.023507	0.158438	0.099030	1.000000	0.000026	0.000044	0.000041	-26.780070	-86.329035	28.694816
56283	9.915409	-0.149789	0.540198	0.022951	0.136867	0.117586	1.000000	0.000030	0.000019	0.000039	-26.750957	-86.332258	28.677673
56284	9.875573	-0.094546	0.547526	0.011418	0.191189	0.076649	1.000000	0.000030	0.000026	0.000042	-26.801211	-86.330527	28.727981
56285	9.911298	-0.115704	0.574385	-0.012480	0.169708	0.114457	1.000000	0.000019	0.000033	0.000040	-26.744593	-86.330769	28.680267
56286	9.911258	-0.116367	0.574950	-0.012987	0.169525	0.114459	1.000000	0.000034	0.000023	0.000030	-26.777567	-86.330018	28.713787
56287	9.929732	-0.121676	0.546745	0.016443	0.165078	0.131446	1.000000	0.000029	0.000034	0.000045	-26.733548	-86.330670	28.658224
56288	9.876790	-0.120787	0.575235	-0.014880	0.163938	0.080207	1.000000	0.000023	0.000030	0.000028	-26.759289	-86.329279	28.683226
56289	9.911129	-0.118333	0.576769	-0.014602	0.166659	0.114505	1.000000	0.000034	0.000031	0.000033	-26.707207	-86.331622	28.615156
56290	9.896594	-0.150109	0.572997	-0.010524	0.135165	0.100690	1.000000	0.000040	0.000027	0.000046	-26.762540	-86.329623	28.671782
56291	9.895188	-0.127383	0.548140	0.013225	0.157983	0.097222	1.000000	0.000024	0.000022	0.000025	-26.706041	-86.333297	28.608944
56292	9.909658	-0.097098	0.552808	0.008137	0.189097	0.111048	1.000000	0.000011	0.000010	0.000052	-26.787919	-86.332777	28.688787
56293	9.912999	-0.139311	0.561977	0.000439	0.146389	0.116126	1.000000	0.000051	0.000027	0.000051	-26.758900	-86.333883	28.649687
56294	9.912956	-0.140120	0.562539	-0.000071	0.146195	0.116129	1.000000	0.000026	0.000028	0.000035	-26.796131	-86.332358	28.686562
56295	9.912914	-0.140850	0.563086	-0.000406	0.144799	0.116150	1.000000	0.000030	0.000026	0.000042	-26.743807	-86.333295	28.621300
56296	9.910863	-0.123813	0.580170	-0.018146	0.161827	0.114579	1.000000	0.000030	0.000026	0.000042	-26.792835	-86.331613	28.670371
56297	9.892961	-0.114357	0.567496	-0.006603	0.170492	0.095728	1.000000	0.000038	0.000021	0.000037	-26.730928	-86.332790	28.601403
56298	9.896935	-0.150741	0.534995	0.027343	0.135836	0.098874	1.000000	0.000044	0.000039	0.000040	-26.765692	-86.329909	28.637845
56299	9.894883	-0.133823	0.552108	0.009790	0.151666	0.097325	1.000000	0.000011	0.000017	0.000055	-26.744818	-86.331134	28.595229
56300	9.909361	-0.103473	0.556955	0.004742	0.182768	0.111169	1.000000	0.000017	0.000034	0.000014	-26.745208	-86.330115	28.594061
56301	9.912664	-0.145226	0.566373	-0.003158	0.140050	0.116217	1.000000	0.000030	0.000026	0.000042	-26.708709	-86.332487	28.551351
56302	9.912622	-0.145889	0.566938	-0.003668	0.139846	0.116220	1.000000	0.000023	0.000030	0.000028	-26.733002	-86.331154	28.574879
56303	9.912579	-0.146526	0.567529	-0.003519	0.138370	0.116241	1.000000	0.000037	0.000029	0.000040	-26.645964	-86.329578	28.485390
56304	9.896012	-0.160472	0.580192	-0.016706	0.124108	0.100826	1.000000	0.000023	0.000016	0.000041	-26.701641	-86.328994	28.540299
56305	9.894651	-0.137817	0.555266	0.007208	0.146851	0.097399	1.000000	0.000026	0.000028	0.000035	-26.647796	-86.330989	28.485483
56306	9.911143	-0.125434	0.543585	0.019382	0.160693	0.112824	1.000000	0.000033	0.000024	0.000049	-26.707675	-86.329177	28.545785
56307	9.892570	-0.121466	0.572806	-0.011459	0.162530	0.095857	1.000000	0.000024	0.000022	0.000025	-26.659718	-86.334131	28.505986
56308	9.878004	-0.153073	0.568943	-0.007434	0.131022	0.082001	1.000000	0.000056	0.000024	0.000039	-26.701836	-86.332883	28.551107
56309	9.911034	-0.127470	0.545101	0.017395	0.157720	0.112875	1.000000	0.000019	0.000033	0.000040	-26.648910	-86.333973	28.497100
56310	9.894457	-0.141290	0.557844	0.004210	0.143459	0.097451	1.000000	0.000016	0.000020	0.000027	-26.679995	-86.333744	28.526624
56311	9.894415	-0.141860	0.558450	0.003482	0.142094	0.097471	1.000000	0.000041	0.000041	0.000034	-26.617233	-86.335134	28.485308
56312	9.929457	-0.133961	0.518135	0.045528	0.152722	0.129904	1.000000	0.000034	0.000023	0.000030	-26.647540	-86.334492	28.516136
56313	9.890335	-0.107371	0.592546	-0.031927	0.174954	0.094368	1.000000	0.000012	0.000016	0.000036	-26.600823	-86.337549	28.461053
56314	9.908850	-0.112660	0.564213	-0.002554	0.171526	0.111370	1.000000	0.000042	0.000025	0.000028	-26.624605	-86.336784	28.486203
56315	9.912811	-0.148948	0.531773	0.031609	0.135588	0.114518	1.000000	0.000070	0.000036	0.000038	-26.544589	-86.336404	28.408808
56316	9.908764	-0.114066	0.565440	-0.003304	0.169870	0.111398	1.000000	-0.000011	0.000024	0.000049	-26.609793	-86.334679	28.469388
56317	9.941100	-0.094157	0.583644	-0.020225	0.189691	0.144149	1.000000	0.000044	0.000046	0.000043	-26.550117	-86.334353	28.422854
56318	9.890834	-0.105422	0.553606	0.007421	0.178323	0.092581	1.000000	0.000053	0.000018	0.000029	-26.580469	-86.334252	28.455853
56319	9.931189	-0.156667	0.505445	0.059391	0.129103	0.131575	1.000000	0.000019	0.000026	0.000037	-26.529426	-86.336363	28.385692
56320	9.926432	-0.127125	0.580928	-0.017201	0.156555	0.130294	1.000000	0.000008	0.000025	0.000033	-26.564490	-86.335364	28.418296
56321	9.921121	-0.068695	0.589099	-0.027536	0.213718	0.123809	1.000000	0.000063	0.000026	0.000037	-26.497303	-86.336831	28.366607
56323	9.910872	-0.133695	0.531482	0.063445	0.302214	10.036937	1.000000	0.000038	0.000044	0.000071	-26.575897	-86.331949	28.446283
56324	9.887895	-0.097144	0.615000	-0.054126	0.184004	0.092934	1.000000	0.000040	0.000034	0.000049	-26.539249	-86.333320	28.429058
56325	9.926237	-0.130558	0.583488	-0.019378	0.153207	0.130342	1.000000	0.000039	0.000019	0.000018	-26.551179	-86.333697	28.441995
56326	9.910371	-0.138796	0.554312	0.009065	0.144597	0.113086	1.000000	0.000029	0.000034	0.000045	-26.502229	-86.334706	28.403701
56327	9.873940	-0.124588	0.570486	-0.009492	0.157675	0.077242	1.000000	0.000034	0.000031	0.000033	-26.529746	-86.333178	28.431687
56328	9.908286	-0.122429	0.572028	-0.009204	0.160174	0.111556	1.000000	0.000033	0.000024	0.000049	-26.493622	-86.334978	28.400757
56329	9.892422	-0.130857	0.542865	0.019312	0.152765	0.094286	1.000000	0.000034	0.000031	0.000033	-26.520935	-86.333459	28.428538
56330	9.928022	-0.151977	0.569740	-0.004527	0.131128	0.131964	1.000000	0.000023	0.000016	0.000041	-26.462226	-86.334593	28.381891
56331	9.890355	-0.114330	0.560364	0.001408	0.168321	0.092759	1.000000	0.000049	0.000035	0.000028	-26.476658	-86.332815	28.398476
56332	9.924702	-0.112196	0.561944	0.002193	0.170801	0.127076	1.000000	0.000036	0.000023	0.000055	-26.430410	-86.331893	28.358698
56333	9.908089	-0.126168	0.574631	-0.010975	0.156540	0.111612	1.000000	0.000008	0.000025	0.000033	-26.464048	-86.330932	28.389868
56334	9.908045	-0.126913	0.575221	-0.011361	0.155083	0.111635	1.000000	0.000029	0.000034	0.000045	-26.407419	-86.331331	28.322794
56335	9.873609	-0.130616	0.574846	-0.012703	0.150920	0.077344	1.000000	0.000037	0.000029	0.000040	-26.446022	-86.329665	28.362252
56336	9.907960	-0.128421	0.576351	-0.012044	0.153357	0.111661	1.000000	0.000037	0.000021	0.000037	-26.373172	-86.330558	28.297869
56337	9.892112	-0.136794	0.547032	0.016479	0.145942	0.094394	1.000000	0.000030	0.000019	0.000039	-26.419086	-86.329970	28.343838
56338	9.924481	-0.116709	0.564911	-0.000399	0.165683	0.127163	1.000000	0.000019	0.000018	0.000034	-26.364689	-86.332788	28.300595
56339	9.909850	-0.148337	0.561105	0.003633	0.134165	0.113236	1.000000	0.000034	0.000030	0.000033	-26.390790	-86.331291	28.327145
56340	9.924404	-0.118089	0.565990	-0.001481	0.163984	0.127191	1.000000	0.000004	0.000029	0.000045	-26.349448	-86.333046	28.281577
56341	9.906564	-0.108587	0.553286	0.009851	0.173830	0.108382	1.000000	0.000034	0.000023	0.000030	-26.376621	-86.332501	28.309237
56342	9.893143	-0.163507	0.574831	-0.010494	0.117028	0.097793	1.000000	0.000019	0.000018	0.000034	-26.315650	-86.334672	28.261903
56343	9.906497	-0.109946	0.554216	0.008957	0.172135	0.108412	1.000000	0.000029	0.000034	0.000045	-26.358470	-86.332223	28.304667
56344	9.891848	-0.141694	0.550546	0.012884	0.139419	0.094493	1.000000	0.000026	0.000028	0.000035	-26.298240	-86.334587	28.255071
56345	9.909608	-0.152638	0.564216	0.000545	0.129046	0.113305	1.000000	0.000023	0.000016	0.000041	-26.349679	-86.334164	28.305695
56346	9.907585	-0.135408	0.581175	-0.017084	0.144825	0.111781	1.000000	0.000023	0.000030	0.000028	-26.268757	-86.335914	28.226987
56347	9.891735	-0.143778	0.552023	0.011449	0.137414	0.094523	1.000000	0.000040	0.000027	0.000046	-26.318215	-86.334136	28.277669
56348	9.908297	-0.131394	0.540318	0.023425	0.149908	0.110041	1.000000	0.000034	0.000023	0.000030	-26.253859	-86.337886	28.214683
56349	9.922077	-0.106496	0.587097	-0.023309	0.174051	0.125763	1.000000	0.000019	0.000033	0.000040	-26.290347	-86.335753	28.249877
56350	9.893599	-0.163772	0.537142	0.026875	0.116916	0.096110	1.000000	0.000037	0.000021	0.000037	-26.234795	-86.338703	28.205693
56351	9.906196	-0.115647	0.558423	0.004633	0.165157	0.108534	1.000000	0.000048	0.000029	0.000044	-26.277603	-86.336814	28.250572
56352	9.925929	-0.144478	0.555671	0.009549	0.136293	0.128894	1.000000	0.000027	0.000020	0.000032	-26.210799	-86.339415	28.181976
56353	9.890323	-0.124771	0.529673	0.032738	0.156262	0.091308	1.000000	0.000040	0.000027	0.000046	-26.259709	-86.337666	28.232111
56354	9.906074	-0.117965	0.560107	0.003393	0.161914	0.108588	1.000000	0.000036	0.000044	0.000046	-26.187572	-86.336443	28.166425
56355	9.922650	-0.105624	0.548376	0.015544	0.175618	0.124102	1.000000	0.000031	0.000003	0.000033	-26.234121	-86.337814	28.213095
56356	9.922620	-0.106268	0.548792	0.014840	0.174130	0.124129	1.000000	0.000033	0.000038	0.000036	-26.169546	-86.339788	28.148306
56357	9.905965	-0.119956	0.561611	0.001685	0.159876	0.108621	1.000000	0.000034	0.000023	0.000030	-26.195087	-86.339309	28.174324
56358	9.922545	-0.107554	0.549897	0.013327	0.172374	0.124162	1.000000	0.000030	0.000026	0.000042	-26.162426	-86.343578	28.151982
56359	9.905893	-0.121326	0.562572	0.000173	0.158119	0.108650	1.000000	0.000027	0.000020	0.000032	-26.194149	-86.343246	28.183331
56360	9.907841	-0.139808	0.546529	0.016814	0.139337	0.110209	1.000000	0.000034	0.000023	0.000030	-26.122479	-86.346339	28.115434
56361	9.887225	-0.117736	0.592183	-0.030717	0.159622	0.091622	1.000000	0.000030	0.000026	0.000042	-26.164918	-86.344919	28.157854
56362	9.905785	-0.123303	0.564045	-0.001344	0.154840	0.108701	1.000000	0.000026	0.000028	0.000035	-26.096747	-86.346624	28.096498
56363	9.923510	-0.134421	0.577883	-0.013707	0.144418	0.127485	1.000000	0.000036	0.000030	0.000058	-26.162003	-86.343961	28.162479
56364	9.920349	-0.094054	0.569430	-0.006640	0.184286	0.122725	1.000000	0.000034	0.000023	0.000030	-26.079725	-86.345673	28.073587
56365	9.903693	-0.107849	0.582009	-0.019791	0.170036	0.107201	1.000000	0.000026	0.000014	0.000048	-26.141351	-86.345187	28.134788
56366	9.887864	-0.116323	0.552806	0.008702	0.161395	0.089982	1.000000	0.000033	0.000038	0.000036	-26.068239	-86.346416	28.064208
56367	9.921371	-0.119603	0.596439	-0.032715	0.158103	0.126003	1.000000	0.000030	0.000026	0.000042	-26.110033	-86.345018	28.105981
56368	9.887781	-0.117847	0.553975	0.007278	0.159559	0.090013	1.000000	0.000030	0.000026	0.000042	-26.068923	-86.349165	28.067308
56369	9.942716	-0.138566	0.510512	0.054562	0.142473	0.142922	1.000000	0.000026	0.000036	0.000038	-26.097234	-86.346993	28.095162
56370	9.905452	-0.129660	0.568461	-0.005287	0.147635	0.108810	1.000000	0.000033	0.000024	0.000049	-26.041594	-86.347077	28.042613
56371	9.905416	-0.130358	0.568929	-0.005791	0.147338	0.108814	1.000000	0.000024	0.000022	0.000025	-26.059929	-86.346946	28.060182
56372	9.905380	-0.131122	0.569380	-0.006485	0.145818	0.108836	1.000000	0.000036	0.000022	0.000055	-26.035075	-86.349492	28.041656
56373	9.906450	-0.155501	0.595330	-0.031511	0.121427	0.112060	1.000000	0.000010	0.000025	0.000058	-26.106134	-86.347424	28.110516
56374	9.906156	-0.127806	0.528455	0.034290	0.150818	0.107172	1.000000	0.000037	0.000029	0.000040	-26.040076	-86.348775	28.047028
56375	9.923868	-0.138814	0.542278	0.021909	0.140365	0.125940	1.000000	0.000030	0.000026	0.000042	-26.081077	-86.347412	28.088009
56376	9.889432	-0.142435	0.541713	0.020828	0.135075	0.091652	1.000000	0.000022	0.000024	0.000044	-26.024275	-86.348455	28.030671
56377	9.907140	-0.153468	0.555515	0.008444	0.124619	0.110415	1.000000	0.000037	0.000029	0.000040	-26.058752	-86.346965	28.065970
56378	9.906001	-0.130898	0.530605	0.032401	0.147187	0.107233	1.000000	0.000026	0.000028	0.000035	-25.991777	-86.349319	28.006120
56379	9.887346	-0.126570	0.559769	0.002078	0.150228	0.090161	1.000000	0.000024	0.000022	0.000025	-26.009274	-86.349218	28.022849
56380	9.924765	-0.165742	0.570323	-0.004680	0.111119	0.129211	1.000000	0.000036	0.000022	0.000055	-25.962964	-86.349103	27.978366
56381	9.887280	-0.127934	0.560628	0.001411	0.148408	0.090189	1.000000	0.000017	0.000018	0.000008	-25.957094	-86.350251	27.970988
56382	9.889212	-0.146455	0.544655	0.017914	0.129588	0.091731	1.000000	0.000025	0.000030	0.000054	-25.923467	-86.352118	27.937227
56383	9.923563	-0.144471	0.546362	0.018169	0.133042	0.126048	1.000000	0.000041	0.000033	0.000030	-25.938925	-86.350672	27.953962
56384	9.923526	-0.145079	0.546874	0.017470	0.131521	0.126069	1.000000	0.000019	0.000018	0.000034	-25.885627	-86.354805	27.901147
56385	9.885167	-0.112619	0.579078	-0.018125	0.162025	0.088725	1.000000	0.000027	0.000020	0.000032	-25.914691	-86.354577	27.929842
56386	9.886208	-0.136455	0.605002	-0.042850	0.136461	0.091923	1.000000	0.000034	0.000023	0.000030	-25.829820	-86.355790	27.844714
56387	9.921456	-0.128923	0.564752	-0.000896	0.146687	0.124583	1.000000	0.000023	0.000038	0.000031	-25.844172	-86.353832	27.858214
56388	9.937182	-0.121801	0.595095	-0.030655	0.152284	0.141831	1.000000	0.000034	0.000023	0.000030	-25.776815	-86.357646	27.798432
56389	9.886984	-0.132771	0.564708	-0.002844	0.141088	0.090295	1.000000	0.000060	0.000020	0.000027	-25.793619	-86.357693	27.818678
56390	9.903616	-0.120296	0.553017	0.008986	0.153454	0.105895	1.000000	0.000034	0.000030	0.000033	-25.728162	-86.361205	27.761608
56391	9.939934	-0.136164	0.538306	0.026391	0.139578	0.141730	1.000000	0.000019	0.000033	0.000040	-25.760703	-86.359254	27.792848
56392	9.900505	-0.080476	0.545302	0.015281	0.192979	0.101260	1.000000	0.000023	0.000038	0.000031	-25.679859	-86.360856	27.717166
56393	9.901513	-0.104300	0.571506	-0.009760	0.168571	0.104417	1.000000	0.000041	0.000033	0.000030	-25.694460	-86.359456	27.733041
56394	9.885707	-0.112769	0.542416	0.018636	0.159906	0.087223	1.000000	0.000032	0.000032	0.000052	-25.653359	-86.361203	27.694716
56395	9.918102	-0.092786	0.560566	0.001705	0.180602	0.120034	1.000000	0.000012	0.000029	0.000023	-25.662260	-86.360510	27.701573
56396	9.903352	-0.124232	0.556853	0.005908	0.147898	0.105982	1.000000	0.000034	0.000023	0.000030	-25.581077	-86.362377	27.624137
56397	9.885603	-0.114414	0.543972	0.017311	0.157745	0.087260	1.000000	0.000039	0.000019	0.000018	-25.585291	-86.363024	27.629318
56398	9.886602	-0.138253	0.570060	-0.007302	0.132182	0.090416	1.000000	0.000011	0.000039	0.000045	-25.510910	-86.361193	27.549653
56399	9.901275	-0.108173	0.574914	-0.012322	0.163046	0.104506	1.000000	0.000022	0.000024	0.000044	-25.555986	-86.360069	27.593865
56400	9.919882	-0.113949	0.546781	0.016803	0.158084	0.121634	1.000000	0.000030	0.000026	0.000042	-25.503331	-86.362953	27.541922
56401	9.903159	-0.127761	0.559484	0.003660	0.143855	0.106042	1.000000	0.000022	0.000024	0.000044	-25.548240	-86.361838	27.585968
56402	9.903121	-0.128475	0.559998	0.003245	0.142334	0.106064	1.000000	0.000016	0.000028	0.000030	-25.469702	-86.363805	27.500573
56403	9.885367	-0.119073	0.547260	0.014659	0.152178	0.087352	1.000000	0.000036	0.000030	0.000058	-25.531483	-86.361329	27.563077
56404	9.902015	-0.107043	0.535624	0.026868	0.164523	0.102981	1.000000	0.000030	0.000026	0.000042	-25.469633	-86.362926	27.503005
56405	9.885294	-0.120760	0.548197	0.013725	0.150300	0.087382	1.000000	0.000030	0.000011	0.000036	-25.510000	-86.363575	27.543439
56406	9.918720	-0.124045	0.591633	-0.027339	0.145751	0.123329	1.000000	0.000030	0.000026	0.000042	-25.437724	-86.363289	27.465505
56407	9.885221	-0.122382	0.549152	0.013152	0.148466	0.087410	1.000000	0.000032	0.000032	0.000052	-25.486850	-86.360968	27.514962
56408	9.920584	-0.143873	0.576337	-0.011591	0.126514	0.124853	1.000000	0.000025	0.000022	0.000051	-25.459915	-86.365048	27.487803
56409	9.917588	-0.103637	0.567702	-0.004671	0.167543	0.120262	1.000000	0.000033	0.000024	0.000049	-25.509965	-86.363681	27.538226
56410	9.920494	-0.145663	0.577439	-0.012634	0.124628	0.124876	1.000000	0.000044	0.000039	0.000040	-25.439474	-86.364666	27.464706
56411	9.921407	-0.141315	0.536054	0.028577	0.131015	0.123291	1.000000	0.000010	0.000017	0.000055	-25.508183	-86.363711	27.531254
56412	9.885016	-0.126867	0.551816	0.010399	0.143137	0.087492	1.000000	0.000023	0.000030	0.000028	-25.418410	-86.364987	27.443157
56413	9.919377	-0.124903	0.553520	0.010608	0.146456	0.121821	1.000000	0.000051	0.000027	0.000051	-25.467718	-86.363221	27.494919
56414	9.900675	-0.120708	0.582692	-0.019730	0.148361	0.104725	1.000000	0.000026	0.000028	0.000035	-25.397346	-86.365615	27.426574
56415	9.902585	-0.139335	0.566838	-0.003094	0.130686	0.106225	1.000000	0.000026	0.000028	0.000035	-25.422354	-86.364560	27.451171
56416	9.902544	-0.140022	0.567376	-0.003989	0.129108	0.106245	1.000000	0.000019	0.000026	0.000037	-25.370665	-86.368898	27.400331
56417	9.883838	-0.135710	0.596556	-0.034271	0.132224	0.089125	1.000000	0.000044	0.000031	0.000037	-25.395212	-86.367443	27.426549
56418	9.886719	-0.149120	0.538819	0.024121	0.120112	0.089068	1.000000	0.000044	0.000031	0.000037	-25.324120	-86.368851	27.358024
56419	9.920116	-0.123795	0.514955	0.048903	0.147451	0.120342	1.000000	0.000023	0.000022	0.000025	-25.337603	-86.368902	27.370741
56420	9.884692	-0.132348	0.556317	0.005902	0.135553	0.087602	1.000000	0.000019	0.000033	0.000040	-25.275462	-86.370555	27.309656
56421	9.886595	-0.151051	0.540553	0.022532	0.117863	0.089099	1.000000	0.000044	0.000031	0.000037	-25.299673	-86.369117	27.335531
56422	9.902279	-0.144019	0.570997	-0.007126	0.123454	0.106315	1.000000	0.000033	0.000038	0.000036	-25.224262	-86.370497	27.263408
56423	9.886504	-0.152406	0.541838	0.021449	0.115964	0.089124	1.000000	0.000037	0.000021	0.000037	-25.255606	-86.370146	27.295613
56424	9.901248	-0.122168	0.546465	0.016373	0.145615	0.103299	1.000000	0.000037	0.000021	0.000037	-25.196279	-86.373281	27.238527
56425	9.917944	-0.109936	0.534663	0.028511	0.159085	0.118951	1.000000	0.000030	0.000018	0.000039	-25.233748	-86.373073	27.276007
56426	9.901195	-0.123460	0.547125	0.015200	0.143709	0.103329	1.000000	0.000035	0.000007	0.000024	-25.166268	-86.378740	27.208372
56427	9.882491	-0.118883	0.576153	-0.015072	0.146843	0.086197	1.000000	0.000049	0.000035	0.000028	-25.171453	-86.377335	27.215663
56428	9.917851	-0.111634	0.536041	0.026921	0.155618	0.119011	1.000000	0.000019	0.000033	0.000040	-25.100675	-86.378195	27.144756
56429	9.882406	-0.120188	0.577327	-0.015989	0.144928	0.086224	1.000000	0.000045	0.000015	0.000031	-25.126240	-86.378677	27.172066
56430	9.915837	-0.095036	0.553424	0.008844	0.171061	0.117559	1.000000	0.000029	0.000034	0.000045	-25.065678	-86.379379	27.110690
56431	9.932454	-0.111186	0.609326	-0.045345	0.153779	0.137769	1.000000	0.000042	0.000025	0.000027	-25.077768	-86.379065	27.124087
56432	9.900968	-0.127247	0.550359	0.012467	0.138008	0.103414	1.000000	0.000037	0.000028	0.000040	-25.007518	-86.380004	27.058847
56433	9.898989	-0.109996	0.567223	-0.005156	0.154974	0.101937	1.000000	0.000030	0.000018	0.000039	-25.044273	-86.379828	27.095611
56434	9.897013	-0.092728	0.584054	-0.022520	0.170833	0.100480	1.000000	0.000019	0.000026	0.000037	-24.972973	-86.380615	27.020694
56435	9.900855	-0.129492	0.551870	0.011216	0.135768	0.103446	1.000000	0.000029	0.000034	0.000045	-25.007587	-86.378559	27.055227
56436	9.913670	-0.081280	0.573084	-0.010908	0.182716	0.116179	1.000000	0.000023	0.000030	0.000028	-24.924041	-86.381013	26.968441
56437	9.916492	-0.122998	0.582790	-0.018906	0.140961	0.120658	1.000000	0.000034	0.000023	0.000030	-24.941822	-86.380852	26.986680
56438	9.917476	-0.118565	0.541456	0.022369	0.146111	0.119166	1.000000	0.000021	0.000039	0.000050	-24.886144	-86.380779	26.927778
56440	9.916891	-0.122384	0.563397	0.002005	0.284781	10.052544	1.000000	0.000074	0.000057	0.000079	-24.953964	-86.374679	27.000727
56441	9.898652	-0.115806	0.571930	-0.008347	0.147741	0.102045	1.000000	0.000026	0.000036	0.000038	-24.880365	-86.375613	26.924437
56442	9.900546	-0.134468	0.556210	0.008260	0.130003	0.103526	1.000000	0.000034	0.000030	0.000033	-24.896794	-86.374522	26.941276
56443	9.880916	-0.106989	0.559735	0.002775	0.156044	0.083418	1.000000	0.000025	0.000022	0.000051	-24.850079	-86.375699	26.894249
56444	9.916176	-0.128418	0.586977	-0.021685	0.135210	0.120733	1.000000	0.000030	0.000026	0.000042	-24.884867	-86.374613	26.928993
56445	9.884720	-0.144547	0.527951	0.036014	0.119395	0.086392	1.000000	0.000034	0.000023	0.000030	-24.804894	-86.377320	26.856073
56446	9.915206	-0.106687	0.562538	0.001961	0.157281	0.117790	1.000000	0.000039	0.000042	0.000052	-24.843685	-86.374084	26.895975
56447	9.916042	-0.130720	0.588727	-0.023339	0.131686	0.120776	1.000000	0.000030	0.000018	0.000039	-24.789403	-86.377940	26.841788
56448	9.917069	-0.126291	0.547143	0.017891	0.137951	0.119292	1.000000	0.000030	0.000018	0.000039	-24.824780	-86.377814	26.877168
56449	9.883502	-0.152839	0.571986	-0.008085	0.108800	0.087931	1.000000	0.000030	0.000026	0.000042	-24.769187	-86.380759	26.828468
56450	9.881711	-0.107368	0.521420	0.040670	0.156440	0.082033	1.000000	0.000040	0.000034	0.000049	-24.808612	-86.378485	26.869052
56451	9.917817	-0.151788	0.574356	-0.008503	0.110393	0.122289	1.000000	0.000023	0.000022	0.000025	-24.726164	-86.381993	26.788005
56452	9.882516	-0.131937	0.547869	0.014974	0.130469	0.085012	1.000000	0.000037	0.000007	0.000049	-24.786783	-86.382558	26.849457
56453	9.899255	-0.119908	0.536078	0.026689	0.142690	0.100734	1.000000	0.000018	0.000033	0.000040	-24.736592	-86.386064	26.797715
56454	9.917710	-0.153969	0.575620	-0.010445	0.108039	0.122313	1.000000	0.000023	0.000022	0.000025	-24.746862	-86.386237	26.807202
56455	9.933594	-0.118441	0.538282	0.026618	0.144299	0.135103	1.000000	0.000034	0.000023	0.000030	-24.659435	-86.387577	26.718618
56456	9.916782	-0.131967	0.550995	0.013473	0.130126	0.119405	1.000000	0.000037	0.000028	0.000039	-24.687018	-86.386406	26.747005
56457	9.899962	-0.145610	0.563741	0.000234	0.114812	0.103717	1.000000	0.000030	0.000026	0.000042	-24.630455	-86.388779	26.696370
56458	9.899072	-0.123223	0.538692	0.024370	0.138418	0.100801	1.000000	0.000037	0.000028	0.000039	-24.657877	-86.387617	26.724596
56459	9.914733	-0.116091	0.568963	-0.005309	0.144004	0.117991	1.000000	0.000023	0.000022	0.000025	-24.577952	-86.391150	26.644711
56460	9.895979	-0.111641	0.598085	-0.035546	0.147207	0.100821	1.000000	0.000040	0.000034	0.000049	-24.616708	-86.388920	26.684617
56461	9.914651	-0.117533	0.570102	-0.006149	0.142074	0.118018	1.000000	0.000034	0.000023	0.000030	-24.533911	-86.390884	26.601909
56462	9.918473	-0.154276	0.537857	0.027531	0.106922	0.120943	1.000000	0.000022	0.000024	0.000044	-24.573536	-86.390011	26.640646
56463	9.896955	-0.108675	0.557702	0.004788	0.150375	0.099423	1.000000	0.000034	0.000030	0.000033	-24.497802	-86.392253	26.566837
56464	9.897745	-0.132453	0.583892	-0.020363	0.125963	0.102329	1.000000	0.000026	0.000028	0.000035	-24.518639	-86.391382	26.587237
56465	9.916426	-0.138249	0.555828	0.008909	0.120805	0.119528	1.000000	0.000027	0.000020	0.000032	-24.445888	-86.394099	26.515660
56466	9.896841	-0.110508	0.559369	0.003330	0.148020	0.099459	1.000000	0.000030	0.000040	0.000029	-24.447075	-86.392284	26.516822
56467	9.898719	-0.129361	0.543718	0.019889	0.129083	0.100937	1.000000	0.000036	0.000030	0.000058	-24.410567	-86.393181	26.481347
56468	9.896753	-0.112165	0.560597	0.002301	0.146046	0.099488	1.000000	0.000034	0.000023	0.000030	-24.425633	-86.393129	26.496867
56469	9.931132	-0.110201	0.562228	0.002461	0.147992	0.133856	1.000000	0.000019	0.000018	0.000034	-24.358752	-86.396002	26.432265
56470	9.896692	-0.113407	0.561417	0.001337	0.144093	0.099517	1.000000	0.000045	0.000023	0.000034	-24.379770	-86.395687	26.454975
56471	9.915386	-0.119274	0.533296	0.030176	0.138866	0.116729	1.000000	0.000030	0.000018	0.000039	-24.332104	-86.400573	26.412600
56472	9.896630	-0.114795	0.562231	-0.000048	0.142090	0.099546	1.000000	0.000037	0.000021	0.000037	-24.359268	-86.400408	26.440613
56473	9.898523	-0.133498	0.546278	0.016689	0.123202	0.101017	1.000000	0.000019	0.000018	0.000034	-24.290751	-86.402667	26.367558
56474	9.898488	-0.134195	0.546744	0.016186	0.122780	0.101023	1.000000	0.000037	0.000028	0.000039	-24.316930	-86.401565	26.394541
56475	9.913336	-0.104056	0.551361	0.011407	0.152383	0.115339	1.000000	0.000030	0.000018	0.000039	-24.253955	-86.403533	26.328188
56476	9.914094	-0.127936	0.577503	-0.013763	0.127970	0.118202	1.000000	0.000018	0.000033	0.000040	-24.279274	-86.401900	26.352187
56477	9.913261	-0.105471	0.552438	0.010119	0.150399	0.115371	1.000000	0.000034	0.000023	0.000030	-24.211086	-86.406207	26.288238
56478	9.913229	-0.106302	0.552867	0.009616	0.149972	0.115378	1.000000	0.000028	0.000020	0.000058	-24.274367	-86.405142	26.351411
56479	9.913977	-0.130310	0.578978	-0.015934	0.124413	0.118244	1.000000	0.000026	0.000028	0.000035	-24.214554	-86.409182	26.293513
56480	9.913931	-0.131066	0.579597	-0.016439	0.123985	0.118249	1.000000	0.000029	0.000034	0.000045	-24.245783	-86.407302	26.324655
56481	9.898208	-0.139639	0.550427	0.012132	0.115318	0.101119	1.000000	0.000029	0.000026	0.000042	-24.186431	-86.409390	26.267050
56482	9.929520	-0.125021	0.610451	-0.046593	0.129129	0.135418	1.000000	0.000025	0.000022	0.000051	-24.237007	-86.408471	26.317128
56483	9.913809	-0.133628	0.581087	-0.018031	0.120479	0.118289	1.000000	0.000030	0.000018	0.000039	-24.180440	-86.411524	26.260516
56484	9.913004	-0.111275	0.555900	0.006141	0.144028	0.115469	1.000000	0.000029	0.000026	0.000042	-24.212149	-86.410600	26.292182
56485	9.898045	-0.142983	0.552511	0.010036	0.111405	0.101166	1.000000	0.000018	0.000049	0.000046	-24.146675	-86.410102	26.222602
56486	9.915581	-0.153999	0.566668	-0.002514	0.100694	0.119756	1.000000	0.000034	0.000023	0.000030	-24.160277	-86.410117	26.236653
56487	9.896042	-0.126257	0.570060	-0.007950	0.126850	0.099750	1.000000	0.000026	0.000028	0.000035	-24.085970	-86.411675	26.158393
56488	9.897161	-0.121924	0.528635	0.033296	0.132986	0.098384	1.000000	0.000029	0.000026	0.000042	-24.117355	-86.410766	26.189732
56489	9.915456	-0.156098	0.568273	-0.004291	0.097169	0.119790	1.000000	0.000037	0.000028	0.000039	-24.062867	-86.414384	26.136188
56490	9.898997	-0.141381	0.513441	0.049005	0.113576	0.099853	1.000000	0.000023	0.000030	0.000028	-24.069198	-86.413737	26.141694
56491	9.912707	-0.116395	0.560139	0.002580	0.136622	0.115575	1.000000	0.000035	0.000030	0.000058	-24.027990	-86.413023	26.098349
56492	9.899652	-0.166134	0.540289	0.023551	0.087679	0.102674	1.000000	0.000023	0.000030	0.000028	-24.034135	-86.412379	26.103668
56493	9.912627	-0.117757	0.561264	0.001509	0.134673	0.115602	1.000000	0.000034	0.000023	0.000030	-23.961341	-86.415463	26.029913
56494	9.912596	-0.118465	0.561659	0.001005	0.134230	0.115608	1.000000	0.000033	0.000017	0.000046	-24.005510	-86.415395	26.074461
56495	9.880791	-0.162925	0.570181	-0.007458	0.087977	0.085489	1.000000	0.000037	0.000028	0.000039	-23.933020	-86.415649	25.998780
56496	9.932001	-0.148306	0.559846	0.005256	0.104602	0.135634	1.000000	0.000034	0.000030	0.000033	-23.945046	-86.414749	26.011208
56497	9.912482	-0.120589	0.563216	-0.000093	0.130802	0.115654	1.000000	0.000037	0.000021	0.000037	-23.876719	-86.416570	25.945489
56498	9.929291	-0.108468	0.551512	0.012044	0.144026	0.131450	1.000000	0.000026	0.000028	0.000035	-23.894843	-86.415815	25.963170
56499	9.897468	-0.152749	0.560169	0.003040	0.097754	0.101315	1.000000	0.000034	0.000030	0.000033	-23.828759	-86.419013	25.896651
56500	9.929213	-0.109807	0.552662	0.010770	0.142058	0.131480	1.000000	0.000029	0.000026	0.000042	-23.859255	-86.418145	25.927088
56501	9.896676	-0.131041	0.535496	0.027116	0.119786	0.098571	1.000000	0.000045	0.000015	0.000031	-23.778263	-86.419538	25.845886
56502	9.912301	-0.123985	0.565669	-0.002504	0.126466	0.115709	1.000000	0.000022	0.000024	0.000044	-23.814840	-86.418813	25.881560
56503	9.892793	-0.096338	0.569047	-0.008136	0.152661	0.095747	1.000000	0.000034	0.000030	0.000033	-23.743423	-86.421419	25.813382
56504	9.914126	-0.143416	0.550489	0.013372	0.107069	0.117159	1.000000	0.000026	0.000028	0.000035	-23.761100	-86.420683	25.830612
56505	9.877765	-0.128546	0.566055	-0.004619	0.119655	0.081394	1.000000	0.000029	0.000026	0.000042	-23.700918	-86.421780	25.770504
56506	9.909530	-0.085740	0.558573	0.003122	0.163933	0.111588	1.000000	0.000029	0.000034	0.000045	-23.730262	-86.419985	25.799745
56507	9.912088	-0.127624	0.568579	-0.005002	0.121059	0.115776	1.000000	0.000034	0.000030	0.000033	-23.652003	-86.421438	25.721237
56508	9.913258	-0.123188	0.527209	0.036254	0.127119	0.114464	1.000000	0.000023	0.000030	0.000028	-23.656845	-86.420831	25.725239
56509	9.910105	-0.110787	0.585971	-0.023113	0.136516	0.114379	1.000000	0.000040	0.000019	0.000043	-23.607562	-86.423608	25.682059
56510	9.946389	-0.127232	0.571391	-0.006023	0.121973	0.150164	1.000000	0.000022	0.000024	0.000044	-23.643549	-86.422910	25.717141
56511	9.913158	-0.125418	0.528570	0.034501	0.123635	0.114515	1.000000	0.000027	0.000020	0.000032	-23.580736	-86.426668	25.655593
56512	9.892449	-0.102780	0.573873	-0.012713	0.144395	0.095866	1.000000	0.000022	0.000031	0.000047	-23.615955	-86.425036	25.689863
56513	9.893631	-0.098567	0.532492	0.028184	0.149377	0.094587	1.000000	0.000026	0.000028	0.000035	-23.557883	-86.428864	25.634315
56514	9.894936	-0.145413	0.584512	-0.021777	0.101031	0.100026	1.000000	0.000044	0.000038	0.000040	-23.574216	-86.426818	25.652234
56515	9.927964	-0.097606	0.535046	0.027677	0.150741	0.128981	1.000000	0.000004	0.000021	0.000041	-23.525232	-86.429383	25.600980
56516	9.894192	-0.123868	0.559743	0.001895	0.123012	0.097335	1.000000	0.000030	0.000011	0.000036	-23.555869	-86.430454	25.631633
56517	9.911706	-0.134923	0.573535	-0.010837	0.111183	0.115887	1.000000	0.000040	0.000019	0.000043	-23.508848	-86.433638	25.587861
56518	9.894125	-0.125443	0.560572	0.000754	0.121027	0.097360	1.000000	0.000029	0.000034	0.000045	-23.537449	-86.431889	25.616358
56519	9.911623	-0.136548	0.574589	-0.011687	0.109238	0.115907	1.000000	0.000030	0.000018	0.000039	-23.476059	-86.433722	25.553796
56520	9.892158	-0.108879	0.577753	-0.017120	0.136522	0.095971	1.000000	0.000030	0.000018	0.000039	-23.505764	-86.433863	25.583479
56521	9.895916	-0.145883	0.545607	0.016675	0.100174	0.098812	1.000000	0.000033	0.000024	0.000049	-23.453484	-86.434137	25.532639
56522	9.911509	-0.139023	0.575949	-0.012956	0.106831	0.115932	1.000000	0.000022	0.000031	0.000047	-23.488024	-86.432536	25.566231
56523	9.912708	-0.134933	0.534627	0.027961	0.111804	0.114676	1.000000	0.000029	0.000034	0.000045	-23.442527	-86.435191	25.520871
56524	9.891999	-0.112253	0.579831	-0.019228	0.132606	0.096020	1.000000	0.000030	0.000011	0.000036	-23.472560	-86.436285	25.550921
56525	9.908860	-0.100126	0.567976	-0.007336	0.144707	0.111885	1.000000	0.000034	0.000023	0.000030	-23.405365	-86.440237	25.487015
56526	9.895716	-0.149723	0.548192	0.013563	0.095732	0.098860	1.000000	0.000037	0.000036	0.000042	-23.427175	-86.438372	25.509565
56527	9.911302	-0.142676	0.578620	-0.015926	0.101399	0.115985	1.000000	0.000026	0.000028	0.000035	-23.354601	-86.439414	25.434187
56528	9.893731	-0.133045	0.565748	-0.004319	0.111245	0.097474	1.000000	0.000026	0.000036	0.000038	-23.369942	-86.437810	25.449034
56529	9.910580	-0.120978	0.554218	0.007565	0.123345	0.113344	1.000000	0.000034	0.000030	0.000033	-23.303078	-86.440825	25.385706
56530	9.893644	-0.134432	0.566947	-0.005579	0.109268	0.097495	1.000000	0.000022	0.000024	0.000044	-23.337757	-86.440200	25.419472
56531	9.892988	-0.112174	0.541669	0.018529	0.131703	0.094861	1.000000	0.000030	0.000018	0.000039	-23.287186	-86.443608	25.370515
56532	9.910472	-0.123258	0.555629	0.005906	0.120896	0.113376	1.000000	0.000029	0.000026	0.000042	-23.315483	-86.442848	25.398744
56533	9.909146	-0.128998	0.598329	-0.036516	0.112941	0.114635	1.000000	0.000044	0.000046	0.000043	-23.250873	-86.443165	25.336716
56534	9.910376	-0.124695	0.557034	0.004748	0.118925	0.113400	1.000000	0.000023	0.000022	0.000025	-23.254387	-86.443583	25.339425
56535	9.910335	-0.125264	0.557635	0.004303	0.117452	0.113418	1.000000	0.000033	0.000038	0.000036	-23.176973	-86.443963	25.265137
56536	9.894067	-0.110775	0.502682	0.057693	0.133760	0.093690	1.000000	0.000033	0.000016	0.000046	-23.218173	-86.444046	25.306697
56537	9.908371	-0.108687	0.574896	-0.013856	0.132941	0.112043	1.000000	0.000026	0.000028	0.000035	-23.154626	-86.446591	25.243500
56538	9.891424	-0.122042	0.587595	-0.026997	0.118875	0.096176	1.000000	0.000045	0.000023	0.000034	-23.170562	-86.446509	25.261098
56539	9.912077	-0.146230	0.543295	0.019218	0.096073	0.114861	1.000000	0.000030	0.000018	0.000039	-23.113611	-86.448754	25.204196
56540	9.890768	-0.100379	0.562661	-0.003170	0.140843	0.093578	1.000000	0.000019	0.000018	0.000034	-23.135556	-86.449217	25.224880
56541	9.894510	-0.137202	0.530540	0.030411	0.104452	0.096389	1.000000	0.000034	0.000022	0.000030	-23.058805	-86.451398	25.150805
56542	9.910093	-0.130087	0.560820	0.000767	0.111086	0.113492	1.000000	0.000029	0.000026	0.000042	-23.086451	-86.450669	25.178384
56543	9.926969	-0.118152	0.549179	0.012773	0.123169	0.129391	1.000000	0.000037	0.000028	0.000039	-23.027899	-86.452847	25.125273
56544	9.925044	-0.100713	0.566027	-0.004738	0.140140	0.128005	1.000000	0.000034	0.000030	0.000033	-23.036502	-86.452093	25.134270
56545	9.926892	-0.119475	0.550281	0.011930	0.121223	0.129416	1.000000	0.000037	0.000021	0.000037	-22.970309	-86.453622	25.069746
56546	9.890559	-0.104435	0.565583	-0.006073	0.134974	0.093659	1.000000	0.000030	0.000018	0.000039	-22.998196	-86.453847	25.097611
56547	9.909899	-0.133672	0.563386	-0.001658	0.105698	0.113551	1.000000	0.000029	0.000034	0.000045	-22.940033	-86.454224	25.043325
56548	9.907973	-0.116200	0.580252	-0.019165	0.122671	0.112166	1.000000	0.000049	0.000027	0.000025	-22.936322	-86.454132	25.041744
56549	9.909250	-0.111789	0.538842	0.022159	0.127665	0.110986	1.000000	0.000023	0.000030	0.000028	-22.856008	-86.455717	24.957600
56550	9.926693	-0.122811	0.553119	0.009509	0.116819	0.129472	1.000000	0.000036	0.000044	0.000045	-22.875893	-86.452982	24.978187
56551	9.909715	-0.136415	0.565964	-0.003285	0.101847	0.113591	1.000000	0.000025	0.000022	0.000051	-22.830339	-86.452761	24.929647
56552	9.924731	-0.106463	0.570431	-0.008148	0.132373	0.128109	1.000000	0.000030	0.000018	0.000039	-22.857743	-86.452998	24.957027
56553	9.892153	-0.127665	0.553363	0.007617	0.110214	0.095137	1.000000	0.000026	0.000036	0.000038	-22.796711	-86.455081	24.899082
56554	9.926531	-0.125991	0.555313	0.007596	0.112908	0.129519	1.000000	0.000045	0.000023	0.000034	-22.811492	-86.455037	24.915531
56555	9.926499	-0.126674	0.555732	0.006865	0.111433	0.129536	1.000000	0.000030	0.000018	0.000039	-22.765221	-86.458836	24.868012
56556	9.908982	-0.117239	0.542590	0.018514	0.121284	0.111073	1.000000	0.000036	0.000022	0.000055	-22.817312	-86.457932	24.920811
56557	9.891992	-0.130884	0.555485	0.005525	0.106309	0.095181	1.000000	0.000018	0.000049	0.000046	-22.750877	-86.456151	24.853100
56558	9.907013	-0.100797	0.560151	0.000667	0.136823	0.109717	1.000000	0.000027	0.000012	0.000029	-22.765670	-86.457456	24.867519
56559	9.909395	-0.142558	0.570035	-0.007581	0.094010	0.113666	1.000000	0.000019	0.000026	0.000037	-22.703769	-86.458973	24.803184
56560	9.891879	-0.132909	0.557012	0.004074	0.103864	0.095208	1.000000	0.000026	0.000028	0.000035	-22.717517	-86.458398	24.816478
56561	9.908785	-0.120969	0.545367	0.016173	0.115940	0.111141	1.000000	0.000029	0.000026	0.000042	-22.664316	-86.460167	24.764985
56562	9.908754	-0.121652	0.545784	0.015668	0.115433	0.111148	1.000000	0.000045	0.000015	0.000031	-22.679000	-86.461087	24.781375
56563	9.891776	-0.135139	0.558298	0.002585	0.100473	0.095243	1.000000	0.000010	0.000017	0.000055	-22.655523	-86.462696	24.755382
56564	9.910555	-0.141439	0.530476	0.031695	0.096000	0.112548	1.000000	0.000048	0.000042	0.000031	-22.649814	-86.460754	24.751718
56565	9.910505	-0.142107	0.531235	0.031057	0.094543	0.112564	1.000000	0.000018	0.000033	0.000040	-22.593526	-86.462362	24.695781
56566	9.909106	-0.147580	0.573773	-0.011234	0.087638	0.113720	1.000000	0.000023	0.000022	0.000025	-22.594595	-86.462849	24.696051
56567	9.907201	-0.130040	0.590412	-0.028667	0.103706	0.112360	1.000000	0.000030	0.000018	0.000039	-22.541308	-86.465089	24.640771
56568	9.908523	-0.125824	0.549009	0.012613	0.109583	0.111219	1.000000	0.000030	0.000040	0.000029	-22.535172	-86.463550	24.634599
56569	9.908981	-0.149383	0.575466	-0.012464	0.084294	0.113748	1.000000	0.000034	0.000030	0.000033	-22.456144	-86.463749	24.555806
56570	9.942868	-0.124663	0.551528	0.012302	0.110797	0.145621	1.000000	0.000027	0.000012	0.000029	-22.470007	-86.465081	24.569292
56571	9.873990	-0.130105	0.549176	0.010838	0.103092	0.076876	1.000000	0.000035	0.000030	0.000058	-22.444288	-86.465719	24.543448
56572	9.908359	-0.128681	0.551317	0.010790	0.105711	0.111263	1.000000	0.000022	0.000045	0.000034	-22.443767	-86.463389	24.542005
56573	9.910189	-0.147488	0.535651	0.027221	0.086773	0.112646	1.000000	0.000030	0.000011	0.000036	-22.392408	-86.466994	24.493804
56574	9.906907	-0.134815	0.594274	-0.032043	0.097382	0.112413	1.000000	0.000034	0.000030	0.000033	-22.399003	-86.466306	24.500791
56575	9.906379	-0.112559	0.569050	-0.008144	0.119787	0.109934	1.000000	0.000022	0.000024	0.000044	-22.365543	-86.470244	24.469758
56576	9.906340	-0.113285	0.569589	-0.008649	0.119270	0.109940	1.000000	0.000034	0.000030	0.000033	-22.372040	-86.469564	24.476648
56577	9.908167	-0.132135	0.553932	0.007778	0.100350	0.111321	1.000000	0.000029	0.000026	0.000042	-22.321974	-86.471285	24.424974
56578	9.889287	-0.127339	0.582874	-0.022328	0.103844	0.094011	1.000000	0.000026	0.000028	0.000035	-22.334598	-86.470757	24.437143
56579	9.906220	-0.115474	0.571236	-0.010230	0.115909	0.109978	1.000000	0.000040	0.000026	0.000046	-22.290050	-86.472192	24.395827
56580	9.908045	-0.134327	0.555583	0.006227	0.097883	0.111347	1.000000	0.000023	0.000030	0.000028	-22.289794	-86.471768	24.394730
56581	9.906143	-0.116710	0.572322	-0.011275	0.113977	0.110000	1.000000	0.000034	0.000022	0.000030	-22.221466	-86.474366	24.325217
56582	9.907972	-0.135536	0.556595	0.005180	0.095947	0.111367	1.000000	0.000029	0.000026	0.000042	-22.246617	-86.473748	24.350298
56583	9.906072	-0.118207	0.573236	-0.012427	0.112035	0.110020	1.000000	0.000033	0.000016	0.000046	-22.213402	-86.476868	24.316475
56584	9.923014	-0.106354	0.561598	-0.000298	0.124987	0.125989	1.000000	0.000033	0.000038	0.000035	-22.219098	-86.475266	24.322521
56585	9.909259	-0.133058	0.516220	0.045385	0.098945	0.110304	1.000000	0.000029	0.000026	0.000042	-22.166254	-86.476362	24.268188
56586	9.905945	-0.120424	0.574959	-0.013870	0.109588	0.110046	1.000000	0.000026	0.000028	0.000035	-22.178397	-86.475852	24.279871
56587	9.890337	-0.129067	0.545578	0.014856	0.101054	0.093001	1.000000	0.000036	0.000015	0.000052	-22.150460	-86.477679	24.255264
56588	9.905434	-0.099066	0.549977	0.010033	0.131509	0.107621	1.000000	0.000034	0.000022	0.000030	-22.156540	-86.477968	24.261772
56589	9.888848	-0.135291	0.588500	-0.028156	0.092769	0.094106	1.000000	0.000018	0.000033	0.000040	-22.105585	-86.479891	24.209219
56590	9.907659	-0.141640	0.560636	0.000923	0.088186	0.111440	1.000000	0.000040	0.000019	0.000043	-22.137137	-86.479991	24.241969
56591	9.905757	-0.124238	0.577384	-0.016834	0.104270	0.110098	1.000000	0.000026	0.000036	0.000038	-22.082279	-86.482253	24.189365
56592	9.890143	-0.132809	0.548191	0.011822	0.096614	0.093049	1.000000	0.000029	0.000026	0.000042	-22.106887	-86.481663	24.213901
56593	9.905242	-0.102764	0.552749	0.006702	0.126160	0.107694	1.000000	0.000026	0.000028	0.000035	-22.052501	-86.484858	24.161867
56594	9.907487	-0.144559	0.562927	-0.001706	0.084258	0.111474	1.000000	0.000044	0.000030	0.000037	-22.064522	-86.483982	24.175511
56595	9.888157	-0.116671	0.566194	-0.006785	0.110798	0.091732	1.000000	0.000023	0.000037	0.000031	-21.984113	-86.483827	24.093947
56596	9.922950	-0.137999	0.594173	-0.031730	0.089471	0.128540	1.000000	0.000033	0.000038	0.000035	-21.989174	-86.482255	24.099359
56597	9.905485	-0.128253	0.581163	-0.020221	0.098460	0.110151	1.000000	0.000034	0.000022	0.000030	-21.927074	-86.485712	24.037463
56598	9.905042	-0.106067	0.555711	0.004128	0.121769	0.107750	1.000000	0.000018	0.000012	0.000050	-21.976952	-86.486282	24.086000
56599	9.905416	-0.129853	0.581984	-0.021165	0.096543	0.110168	1.000000	0.000026	0.000035	0.000038	-21.912226	-86.486490	24.021025
56600	9.920522	-0.099817	0.586635	-0.025981	0.126976	0.124820	1.000000	0.000037	0.000028	0.000039	-21.930159	-86.485775	24.039732
56601	9.907177	-0.149552	0.567053	-0.005272	0.077097	0.111531	1.000000	0.000029	0.000034	0.000045	-21.882428	-86.486444	23.988520
56602	9.889723	-0.139921	0.553970	0.006450	0.086963	0.093143	1.000000	0.000027	0.000020	0.000032	-21.893916	-86.486918	23.999587
56603	9.924098	-0.138480	0.556109	0.006035	0.088578	0.127548	1.000000	0.000028	0.000049	0.000050	-21.853637	-86.487211	23.959733
56604	9.906251	-0.105878	0.517311	0.042626	0.122277	0.106782	1.000000	0.000024	0.000014	0.000022	-21.852431	-86.488728	23.957758
56605	9.907008	-0.152359	0.569258	-0.007904	0.073195	0.111559	1.000000	0.000040	0.000019	0.000043	-21.818442	-86.492417	23.929137
56606	9.906583	-0.130255	0.543878	0.016454	0.096487	0.109187	1.000000	0.000022	0.000024	0.000044	-21.848589	-86.492017	23.958363
56607	9.905076	-0.135793	0.586394	-0.025608	0.088842	0.110230	1.000000	0.000037	0.000028	0.000039	-21.786782	-86.491914	23.895736
56608	9.889106	-0.121492	0.531218	0.027927	0.105002	0.090825	1.000000	0.000033	0.000016	0.000046	-21.823631	-86.492217	23.932933
56609	9.904623	-0.114401	0.561501	-0.001683	0.110766	0.107879	1.000000	0.000034	0.000030	0.000033	-21.754577	-86.493197	23.863228
56610	9.906437	-0.133194	0.545825	0.014738	0.092682	0.109226	1.000000	0.000027	0.000020	0.000032	-21.765598	-86.493690	23.873828
56611	9.906770	-0.156844	0.572180	-0.010574	0.067493	0.111597	1.000000	0.000029	0.000034	0.000045	-21.715393	-86.493735	23.822337
56612	9.940783	-0.132420	0.548389	0.014182	0.093769	0.143639	1.000000	0.000034	0.000022	0.000030	-21.720046	-86.494083	23.827413
56613	9.888922	-0.125050	0.533808	0.025956	0.099861	0.090884	1.000000	0.000025	0.000029	0.000054	-21.679246	-86.492288	23.782572
56614	9.925162	-0.141811	0.519542	0.042756	0.084757	0.126621	1.000000	0.000034	0.000015	0.000027	-21.683953	-86.493577	23.787739
56615	9.905894	-0.113844	0.522431	0.037638	0.111361	0.106930	1.000000	0.000037	0.000021	0.000036	-21.629212	-86.495426	23.731599
56616	9.904372	-0.119303	0.564895	-0.004676	0.104547	0.107946	1.000000	0.000029	0.000026	0.000042	-21.652512	-86.494892	23.754817
56617	9.904336	-0.120039	0.565362	-0.004993	0.005864	0.108495	1.000000	0.000037	0.000021	0.000036	-12.646760	-86.681943	14.965473
56618	9.906146	-0.138973	0.549660	0.011483	-0.012384	0.109655	1.000000	0.000029	0.000026	0.000042	-12.653752	-86.681911	14.972317
56619	9.886878	-0.111040	0.552662	0.006151	0.015014	0.090234	1.000000	0.000023	0.000022	0.000025	-12.631857	-86.683125	14.971996
56620	9.906075	-0.140366	0.550588	0.010415	-0.013876	0.109654	1.000000	0.000036	0.000022	0.000055	-12.666239	-86.683167	15.006996
56621	9.904187	-0.123078	0.567311	-0.007057	0.002876	0.108495	1.000000	0.000018	0.000033	0.000040	-12.667013	-86.682307	15.006266
56622	9.904143	-0.123831	0.567925	-0.007559	0.002134	0.108495	1.000000	0.000037	0.000028	0.000039	-12.667931	-86.682078	15.007885
56623	9.921152	-0.112028	0.556216	0.004561	0.014662	0.124664	1.000000	0.000030	0.000018	0.000039	-12.671200	-86.682785	15.007285
56624	9.871486	-0.145635	0.551213	0.008090	-0.019487	0.075227	1.000000	0.000026	0.000028	0.000035	-12.664495	-86.682717	15.000051
56625	9.904027	-0.126015	0.569471	-0.008997	-0.000099	0.108494	1.000000	0.000029	0.000034	0.000045	-12.672713	-86.681579	14.998125
56626	9.903656	-0.103934	0.544231	0.015319	0.023072	0.106416	1.000000	0.000029	0.000026	0.000042	-12.679699	-86.681548	15.004963
56627	9.904269	-0.150363	0.596386	-0.034786	-0.025496	0.110567	1.000000	0.000023	0.000022	0.000025	-12.655210	-86.682165	14.969175
56628	9.919122	-0.097303	0.575058	-0.014839	0.028447	0.123514	1.000000	0.000044	0.000030	0.000037	-12.650059	-86.681739	14.965572
56629	9.922439	-0.111555	0.517540	0.043444	0.016562	0.123757	1.000000	0.000018	0.000033	0.000040	-12.650718	-86.680793	14.960614
56630	9.903818	-0.129547	0.572306	-0.011443	-0.003818	0.108491	1.000000	0.000029	0.000026	0.000042	-12.657700	-86.680763	14.967449
56631	9.886403	-0.119969	0.559258	0.000242	0.006086	0.090246	1.000000	0.000036	0.000036	0.000042	-12.662191	-86.679901	14.984378
56632	9.903423	-0.108146	0.547643	0.012329	0.018598	0.106430	1.000000	0.000026	0.000020	0.000032	-12.653162	-86.680767	14.974852
56633	9.905228	-0.127083	0.531929	0.028824	0.000325	0.107585	1.000000	0.000022	0.000024	0.000044	-12.664933	-86.680750	14.978548
56634	9.903644	-0.132607	0.574601	-0.013472	-0.006792	0.108486	1.000000	0.000036	0.000044	0.000045	-12.670488	-86.678658	14.984734
56635	9.903598	-0.133400	0.575221	-0.013948	-0.007534	0.108485	1.000000	0.000030	0.000018	0.000039	-12.674111	-86.679409	14.979434
56636	9.920634	-0.121580	0.563410	-0.001858	0.004966	0.124674	1.000000	0.000019	0.000018	0.000034	-12.671150	-86.680472	14.975127
56637	9.903530	-0.134761	0.576071	-0.014850	-0.009015	0.108483	1.000000	0.000044	0.000030	0.000037	-12.662730	-86.679453	14.938905
56638	9.905033	-0.130769	0.534656	0.026446	-0.003423	0.107591	1.000000	0.000026	0.000028	0.000035	-12.656022	-86.679387	14.931665
56639	9.903445	-0.136222	0.577177	-0.015860	-0.010501	0.108480	1.000000	0.000032	0.000024	0.000048	-12.676346	-86.679415	14.949319
56640	9.886049	-0.126636	0.564016	-0.004102	-0.000598	0.090247	1.000000	0.000026	0.000028	0.000035	-12.669636	-86.679350	14.942078
56641	9.920438	-0.125194	0.566058	-0.004236	0.001233	0.124675	1.000000	0.000019	0.000026	0.000037	-12.667389	-86.679322	14.934382
56642	9.920395	-0.125867	0.566663	-0.004740	0.000489	0.124675	1.000000	0.000015	0.000035	0.000033	-12.655376	-86.678484	14.920574
56644	9.912714	-0.142269	0.565450	-0.006019	-0.031278	10.046983	1.000000	0.000085	0.000041	0.000078	-12.716615	-86.675414	14.964261
56645	9.903200	-0.140641	0.580323	-0.018280	-0.014209	0.108471	1.000000	0.000025	0.000029	0.000054	-12.745591	-86.674685	14.992586
56646	9.902891	-0.118614	0.555032	0.006199	0.008897	0.106449	1.000000	0.000026	0.000028	0.000035	-12.736184	-86.674082	14.958661
56647	9.902851	-0.119247	0.555612	0.005696	0.008155	0.106450	1.000000	0.000034	0.000030	0.000033	-12.723425	-86.673821	14.946218
56648	9.920154	-0.130260	0.569885	-0.007154	-0.003229	0.124673	1.000000	0.000026	0.000028	0.000035	-12.718120	-86.674126	14.954645
56649	9.902771	-0.120578	0.556752	0.004623	0.006669	0.106452	1.000000	0.000037	0.000028	0.000039	-12.719024	-86.673901	14.956247
56650	9.885641	-0.133801	0.569490	-0.008485	-0.007275	0.090241	1.000000	0.000037	0.000028	0.000039	-12.719599	-86.673655	14.956807
56651	9.919782	-0.109560	0.545684	0.016232	0.018380	0.122666	1.000000	0.000019	0.000026	0.000037	-12.718943	-86.673787	14.954770
56652	9.902897	-0.145654	0.584243	-0.021764	-0.019398	0.108455	1.000000	0.000029	0.000026	0.000042	-12.725243	-86.673679	14.956241
56653	9.900785	-0.105295	0.575066	-0.014279	0.021267	0.105310	1.000000	0.000044	0.000030	0.000037	-12.720094	-86.673259	14.952638
56654	9.919666	-0.111662	0.547368	0.014586	0.016150	0.122672	1.000000	0.000023	0.000030	0.000028	-12.703160	-86.673971	14.968196
56655	9.902535	-0.124767	0.560019	0.001480	0.002210	0.106455	1.000000	0.000030	0.000018	0.000039	-12.707822	-86.674876	14.972739
56656	9.902501	-0.125554	0.560440	0.000849	0.001470	0.106455	1.000000	0.000022	0.000024	0.000044	-12.724303	-86.675756	15.006957
56657	9.902229	-0.103519	0.535157	0.025231	0.024579	0.104469	1.000000	0.000036	0.000036	0.000042	-12.727497	-86.674601	15.010813
56658	9.919728	-0.137518	0.575558	-0.012430	-0.010672	0.124662	1.000000	0.000033	0.000045	0.000038	-12.718635	-86.672394	14.997731
56659	9.902131	-0.104998	0.536675	0.024247	0.023087	0.104476	1.000000	0.000019	0.000025	0.000037	-12.717976	-86.672527	14.995689
56660	9.900499	-0.110297	0.579040	-0.018032	0.016061	0.105314	1.000000	0.000030	0.000011	0.000036	-12.719144	-86.674207	14.990332
56661	9.915967	-0.103118	0.609287	-0.047743	0.022234	0.122377	1.000000	0.000044	0.000030	0.000037	-12.714001	-86.673789	14.986733
56662	9.884931	-0.119544	0.550107	0.010201	0.007661	0.088253	1.000000	0.000030	0.000018	0.000039	-12.717664	-86.674553	14.982446
56663	9.884688	-0.097460	0.524662	0.034603	0.030753	0.086286	1.000000	0.000029	0.000026	0.000042	-12.724616	-86.674526	14.989245
56664	9.919495	-0.141871	0.578507	-0.015411	-0.015129	0.124652	1.000000	0.000029	0.000026	0.000042	-12.731769	-86.674524	14.989538
56665	9.903754	-0.127747	0.523284	0.038202	0.001033	0.105630	1.000000	0.000032	0.000024	0.000048	-12.752389	-86.674533	15.010385
56666	9.900280	-0.114930	0.581877	-0.021019	0.011615	0.105314	1.000000	0.000011	0.000023	0.000039	-12.757276	-86.674873	15.012660
56667	9.919172	-0.121537	0.554162	0.007986	0.006464	0.122691	1.000000	0.000029	0.000034	0.000044	-12.766499	-86.673915	15.021695
56668	9.920947	-0.140478	0.538682	0.024452	-0.011874	0.123829	1.000000	0.000023	0.000030	0.000028	-12.743801	-86.673428	14.981523
56669	9.917270	-0.104712	0.571471	-0.009842	0.022557	0.121556	1.000000	0.000050	0.000027	0.000051	-12.765984	-86.673083	15.006010
56670	9.919051	-0.123677	0.555851	0.006557	0.004220	0.122693	1.000000	0.000023	0.000022	0.000025	-12.742555	-86.673882	14.977925
56671	9.903525	-0.132145	0.526517	0.035262	-0.003462	0.105641	1.000000	0.000037	0.000028	0.000039	-12.743456	-86.673662	14.979520
56672	9.903667	-0.155809	0.552942	0.009791	-0.028019	0.107582	1.000000	0.000032	0.000024	0.000048	-12.764616	-86.673931	15.014676
56673	9.901632	-0.115513	0.543668	0.017319	0.012642	0.104509	1.000000	0.000026	0.000028	0.000035	-12.757894	-86.673870	15.007419
56674	9.901762	-0.139109	0.570211	-0.008198	-0.011914	0.106445	1.000000	0.000047	0.000036	0.000047	-12.771142	-86.673064	15.037356
56675	9.918849	-0.127349	0.558628	0.003902	0.000500	0.122696	1.000000	0.000023	0.000022	0.000025	-12.748488	-86.673901	15.013819
56676	9.918646	-0.105154	0.533203	0.028366	0.023561	0.120768	1.000000	0.000029	0.000026	0.000042	-12.754041	-86.673668	15.005893
56677	9.884343	-0.130803	0.558057	0.002650	-0.003481	0.088260	1.000000	0.000029	0.000026	0.000042	-12.760985	-86.673644	15.012682
56678	9.920547	-0.147826	0.544050	0.019370	-0.019336	0.123828	1.000000	0.000029	0.000026	0.000042	-12.766574	-86.673267	14.994036
56679	9.901400	-0.119891	0.546945	0.014318	0.008179	0.104518	1.000000	0.000026	0.000028	0.000035	-12.759849	-86.673208	14.986775
56680	9.901360	-0.120590	0.547506	0.013933	0.007424	0.104519	1.000000	0.000037	0.000028	0.000039	-12.757139	-86.672358	14.960087
56681	9.935753	-0.119292	0.549621	0.013708	0.009160	0.138957	1.000000	0.000019	0.000025	0.000037	-12.756455	-86.672493	14.958017
56682	9.901278	-0.122042	0.548679	0.012966	0.005931	0.104522	1.000000	0.000044	0.000038	0.000040	-12.751957	-86.670945	14.948388
56683	9.901383	-0.145463	0.575196	-0.012502	-0.018586	0.106430	1.000000	0.000023	0.000022	0.000025	-12.729308	-86.671782	14.924855
56684	9.901199	-0.123267	0.549831	0.011864	0.004448	0.104524	1.000000	0.000018	0.000033	0.000040	-12.732898	-86.671510	14.949829
56685	9.901156	-0.124046	0.550421	0.011361	0.003706	0.104525	1.000000	0.000029	0.000026	0.000042	-12.739833	-86.671487	14.956608
56686	9.918268	-0.112372	0.538721	0.023365	0.016093	0.120796	1.000000	0.000037	0.000020	0.000036	-12.740797	-86.672768	14.980999
56687	9.883936	-0.137900	0.563542	-0.002356	-0.010903	0.088255	1.000000	0.000037	0.000028	0.000039	-12.741696	-86.672551	14.982590
56688	9.916518	-0.118448	0.581744	-0.019372	0.008431	0.121564	1.000000	0.000032	0.000024	0.000048	-12.759653	-86.672061	14.978611
56690	9.900146	-0.129772	0.573683	-0.023152	-0.004696	10.022504	1.000000	0.000055	0.000054	0.000076	-12.818121	-86.668061	15.040006
56691	9.900923	-0.128657	0.553551	0.008660	-0.000002	0.104528	1.000000	0.000029	0.000034	0.000044	-12.832090	-86.668080	15.090121
56692	9.883727	-0.141804	0.566230	-0.004449	-0.013865	0.088250	1.000000	0.000019	0.000018	0.000034	-12.829168	-86.669148	15.085846
56693	9.900733	-0.107145	0.528657	0.032536	0.022307	0.102650	1.000000	0.000038	0.000034	0.000023	-12.798036	-86.669039	15.073312
56694	9.900798	-0.130634	0.555317	0.007086	-0.002231	0.104529	1.000000	0.000021	0.000039	0.000050	-12.815472	-86.667346	15.089674
56695	9.900754	-0.131453	0.555912	0.006591	-0.002975	0.104529	1.000000	0.000037	0.000020	0.000036	-12.813757	-86.668020	15.083315
56696	9.902412	-0.127641	0.514461	0.047914	0.002461	0.103785	1.000000	0.000026	0.000035	0.000038	-12.809272	-86.667031	15.078257
56697	9.933302	-0.112608	0.574694	-0.011093	0.015582	0.137844	1.000000	0.000030	0.000018	0.000039	-12.814780	-86.668248	15.099717
56698	9.917799	-0.121254	0.545388	0.017629	0.007908	0.120818	1.000000	0.000036	0.000036	0.000042	-12.817907	-86.667102	15.103500
56699	9.917760	-0.122021	0.545931	0.017188	0.007156	0.120819	1.000000	0.000030	0.000018	0.000039	-12.820721	-86.667684	15.089748
56700	9.883386	-0.147546	0.570700	-0.008521	-0.019803	0.088238	1.000000	0.000029	0.000026	0.000042	-12.827642	-86.667662	15.096510
56701	9.915891	-0.105166	0.562931	-0.000717	0.023281	0.119699	1.000000	0.000034	0.000022	0.000030	-12.813182	-86.668517	15.089298
56702	9.900394	-0.113906	0.533582	0.028007	0.015601	0.102677	1.000000	0.000028	0.000028	0.000060	-12.855661	-86.667826	15.131495
56703	9.917693	-0.148010	0.573857	-0.009776	-0.019598	0.122672	1.000000	0.000026	0.000028	0.000035	-12.847925	-86.667503	15.108743
56704	9.919374	-0.144283	0.532289	0.031549	-0.014189	0.121946	1.000000	0.000033	0.000016	0.000046	-12.866274	-86.668448	15.127346
56705	9.900364	-0.139256	0.560927	0.001626	-0.010415	0.104526	1.000000	0.000032	0.000024	0.000048	-12.884842	-86.668212	15.138061
56706	9.898537	-0.121627	0.577379	-0.015733	0.006470	0.103405	1.000000	0.000024	0.000014	0.000022	-12.860021	-86.669988	15.112388
56707	9.917476	-0.128265	0.549640	0.013182	0.001187	0.120828	1.000000	0.000050	0.000034	0.000054	-12.884807	-86.668966	15.154397
56708	9.900248	-0.141398	0.562444	0.000075	-0.012648	0.104524	1.000000	0.000023	0.000030	0.000028	-12.864413	-86.668878	15.133085
56709	9.917331	-0.106799	0.524851	0.037077	0.023471	0.118999	1.000000	0.000034	0.000022	0.000030	-12.850672	-86.669954	15.132289
56710	9.898375	-0.124424	0.579545	-0.017857	0.003486	0.103403	1.000000	0.000024	0.000029	0.000053	-12.879494	-86.669228	15.160449
56711	9.919105	-0.149552	0.535840	0.027857	-0.019406	0.121948	1.000000	0.000037	0.000028	0.000039	-12.882967	-86.669623	15.190246
56712	9.915479	-0.113674	0.568496	-0.006376	0.015085	0.119713	1.000000	0.000019	0.000025	0.000037	-12.882259	-86.669762	15.188149
56713	9.899982	-0.122238	0.539346	0.022360	0.007411	0.102701	1.000000	0.000022	0.000045	0.000034	-12.866228	-86.667795	15.165226
56714	9.898192	-0.127270	0.582054	-0.019972	0.000514	0.103400	1.000000	0.000041	0.000024	0.000027	-12.845223	-86.668289	15.145412
56715	9.898149	-0.127940	0.582637	-0.020429	-0.000227	0.103399	1.000000	0.000029	0.000033	0.000044	-12.852643	-86.667091	15.138462
56716	9.917054	-0.111832	0.529021	0.033500	0.018249	0.119023	1.000000	0.000034	0.000022	0.000030	-12.837666	-86.667778	15.123826
56717	9.882621	-0.137183	0.553896	0.007878	-0.008654	0.086388	1.000000	0.000018	0.000033	0.000040	-12.836872	-86.666527	15.098642
56718	9.915224	-0.117603	0.572146	-0.009251	0.010628	0.119716	1.000000	0.000034	0.000022	0.000030	-12.821895	-86.667213	15.084005
56719	9.897955	-0.107856	0.558825	0.002746	0.020564	0.101595	1.000000	0.000029	0.000026	0.000042	-12.825667	-86.666629	15.063583
56720	9.915118	-0.096214	0.547223	0.014855	0.032882	0.117920	1.000000	0.000034	0.000030	0.000032	-12.812907	-86.666383	15.051131
56721	9.916896	-0.137913	0.557719	0.006154	-0.009246	0.120830	1.000000	0.000026	0.000028	0.000035	-12.806961	-86.666476	15.050637
56722	9.897865	-0.132607	0.586410	-0.023794	-0.005399	0.103390	1.000000	0.000037	0.000020	0.000036	-12.805626	-86.667197	15.050021
56723	9.897811	-0.110427	0.560866	0.000747	0.017598	0.101601	1.000000	0.000023	0.000022	0.000025	-12.781973	-86.667855	15.015720
56724	9.899560	-0.129306	0.545416	0.017074	-0.000796	0.102714	1.000000	0.000033	0.000038	0.000035	-12.771441	-86.666677	15.005461
56725	9.897745	-0.134345	0.588032	-0.025281	-0.007622	0.103385	1.000000	0.000034	0.000022	0.000030	-12.756199	-86.667422	14.991675
56726	9.899475	-0.130732	0.546610	0.016058	-0.002286	0.102716	1.000000	0.000024	0.000037	0.000056	-12.787226	-86.665769	15.022002
56727	9.916648	-0.142065	0.561080	0.003205	-0.013724	0.120826	1.000000	0.000037	0.000028	0.000039	-12.785489	-86.665253	15.013697
56728	9.897600	-0.114025	0.563862	-0.001713	0.013875	0.101607	1.000000	0.000026	0.000028	0.000035	-12.778746	-86.665200	15.006412
56729	9.914773	-0.125105	0.578335	-0.014565	0.002453	0.119715	1.000000	0.000033	0.000038	0.000035	-12.766536	-86.663689	14.980172
56730	9.897510	-0.115451	0.565153	-0.002654	0.012392	0.101609	1.000000	0.000040	0.000026	0.000046	-12.781057	-86.663514	14.995757
56731	9.918260	-0.140516	0.521488	0.043058	-0.010650	0.120167	1.000000	0.000034	0.000030	0.000032	-12.768923	-86.663436	14.987380
56732	9.914641	-0.127174	0.580137	-0.016107	0.000226	0.119713	1.000000	0.000023	0.000030	0.000028	-12.748545	-86.663348	14.966081
56733	9.916389	-0.146034	0.564624	0.000192	-0.018189	0.120820	1.000000	0.000034	0.000022	0.000030	-12.733343	-86.664098	14.951845
56734	9.899138	-0.136403	0.551315	0.012107	-0.008248	0.102718	1.000000	0.000024	0.000029	0.000053	-12.762111	-86.663377	14.979944
56735	9.914541	-0.106648	0.555667	0.007504	0.021698	0.117959	1.000000	0.000029	0.000018	0.000039	-12.764143	-86.663813	14.959947
56736	9.897280	-0.119692	0.568287	-0.005619	0.007938	0.101612	1.000000	0.000037	0.000028	0.000039	-12.765027	-86.663605	14.961515
56737	9.916226	-0.149116	0.566674	-0.001761	-0.021163	0.120814	1.000000	0.000034	0.000030	0.000032	-12.752538	-86.663414	14.948317
56738	9.897197	-0.120993	0.569445	-0.006635	0.006457	0.101612	1.000000	0.000026	0.000028	0.000035	-12.745791	-86.663362	14.941026
56739	9.897187	-0.099030	0.543992	0.017867	0.029413	0.099873	1.000000	0.000040	0.000026	0.000046	-12.761570	-86.663442	14.964473
56740	9.914313	-0.132999	0.584417	-0.020121	-0.005707	0.119704	1.000000	0.000018	0.000033	0.000040	-12.763048	-86.662650	14.964526
56741	9.897110	-0.100639	0.545101	0.016885	0.027922	0.099879	1.000000	0.000040	0.000018	0.000043	-12.774411	-86.663314	14.972960
56742	9.897032	-0.124125	0.571636	-0.008675	0.003491	0.101612	1.000000	0.000026	0.000035	0.000038	-12.769879	-86.662332	14.967851
56743	9.914226	-0.112557	0.560116	0.003375	0.015753	0.117973	1.000000	0.000037	0.000028	0.000039	-12.772172	-86.662481	14.984308
