// Start Time: Unknown
// Update Rate: 100.0Hz
// Filter Profile: human (46.1)
// Firmware Version: 4.4.0
PacketCounter	Acc_X	Acc_Y	Acc_Z	FreeAcc_X	FreeAcc_Y	FreeAcc_Z	OriInc_q0	OriInc_q1	OriInc_q2	OriInc_q3	Roll	Pitch	Yaw
37433	9.555411	-0.140090	2.384371	-0.000000	0.000000	0.036715	1.000000	0.000038	0.000017	0.000025	-3.359048	-75.966895	-4.597697
37434	9.585861	-0.150911	2.340705	-0.000000	-0.000000	0.055971	1.000000	0.000044	0.000015	0.000014	-3.688401	-76.251386	-3.983278
37435	9.552562	-0.151667	2.331624	0.024364	-0.009993	0.021448	1.000000	0.000019	0.000014	0.000020	-3.525346	-76.108651	-4.284386
37436	9.579853	-0.138511	2.361267	0.004525	0.006707	0.054850	1.000000	0.000035	0.000020	0.000018	-3.529254	-76.106285	-4.276206
37437	9.540693	-0.126362	2.372175	-0.013278	0.020981	0.019270	1.000000	0.000034	0.000015	0.000008	-3.529586	-76.104075	-4.272417
37438	9.579677	-0.138590	2.361977	0.004598	0.006746	0.054850	1.000000	0.000022	0.000022	0.000005	-3.528811	-76.101511	-4.270636
37439	9.546348	-0.139164	2.353029	0.005580	0.005507	0.020359	1.000000	0.000022	0.000022	0.000005	-3.527882	-76.098936	-4.269004
37440	9.560639	-0.153680	2.366888	-0.005864	-0.007219	0.037770	1.000000	0.000027	0.000017	0.000019	-3.533131	-76.096883	-4.260387
37441	9.573552	-0.126205	2.382998	-0.014257	0.022202	0.053761	1.000000	0.000022	0.000011	0.000027	-3.542609	-76.095386	-4.248037
37442	9.595149	-0.195782	2.374332	-0.009893	-0.048144	0.073680	1.000000	0.000046	0.000002	0.000007	-3.540263	-76.095152	-4.244971
37443	9.556406	-0.123249	2.316476	0.046362	0.016728	0.021118	1.000000	0.000017	0.000017	0.000013	-3.544111	-76.093069	-4.239073
37444	9.573374	-0.126548	2.383695	-0.014241	0.022212	0.053761	1.000000	0.000043	0.000022	0.000018	-3.546658	-76.090391	-4.231350
37445	9.560288	-0.154533	2.368251	-0.005856	-0.007234	0.037770	1.000000	0.000027	0.000017	0.000019	-3.551414	-76.088380	-4.223213
37446	9.544440	-0.098076	2.357387	0.008638	0.047645	0.018940	1.000000	0.000026	0.000013	0.000008	-3.552012	-76.086886	-4.219575
37447	9.570449	-0.138208	2.331327	0.034898	0.003928	0.038528	1.000000	0.000025	0.000019	0.000012	-3.552889	-76.084617	-4.215697
37448	9.555976	-0.124115	2.318203	0.046342	0.016654	0.021118	1.000000	0.000021	0.000018	0.000031	-3.564111	-76.082315	-4.201686
37449	9.565824	-0.168081	2.349555	0.012896	-0.022832	0.038859	1.000000	0.000035	0.000008	0.000004	-3.559754	-76.081839	-4.201961
37450	9.584636	-0.153145	2.345571	0.023359	-0.008874	0.055939	1.000000	0.000040	0.000003	0.000018	-3.563392	-76.081358	-4.193489
37451	9.564309	-0.126102	2.352387	0.015812	0.019284	0.037440	1.000000	0.000030	0.000036	0.000019	-3.566415	-76.077867	-4.186727
37452	9.590280	-0.166358	2.326480	0.042083	-0.024378	0.057029	1.000000	0.000028	0.000010	0.000015	-3.570017	-76.076627	-4.179680
37453	9.564141	-0.126393	2.353055	0.015611	0.019255	0.037440	1.000000	0.000026	0.000013	0.000008	-3.569553	-76.076290	-4.177064
37454	9.545194	-0.141450	2.357567	0.005148	0.005297	0.020360	1.000000	0.000031	0.000029	0.000015	-3.572050	-76.072854	-4.170780
37455	9.578283	-0.140918	2.367485	0.003942	0.006469	0.054850	1.000000	0.000030	0.000025	0.000004	-3.568075	-76.071248	-4.171261
37456	9.544978	-0.141577	2.358434	0.004926	0.005237	0.020360	1.000000	0.000039	0.000010	0.000022	-3.573335	-76.069951	-4.161247
37457	9.559264	-0.156242	2.372268	-0.006751	-0.007564	0.037769	1.000000	0.000026	0.000024	0.000023	-3.577975	-76.068393	-4.153262
37458	9.590969	-0.113786	2.384497	-0.004685	0.035820	0.070842	1.000000	0.000014	0.000030	0.000020	-3.584787	-76.064765	-4.144552
37459	9.575210	-0.153044	2.315786	0.052674	-0.011931	0.039623	1.000000	0.000034	0.000015	0.000008	-3.580882	-76.064052	-4.144367
37460	9.577795	-0.141796	2.369407	0.003513	0.006278	0.054851	1.000000	0.000036	0.000013	0.000015	-3.583125	-76.062502	-4.137773
37461	9.577732	-0.141870	2.369657	0.003235	0.006184	0.054851	1.000000	0.000026	0.000013	0.000008	-3.580981	-76.062578	-4.136925
37462	9.563286	-0.127592	2.356462	0.014682	0.018911	0.037443	1.000000	0.000035	0.000020	0.000018	-3.584856	-76.060213	-4.128783
37463	9.544355	-0.142700	2.360888	0.003933	0.004819	0.020360	1.000000	0.000036	0.000013	0.000015	-3.583355	-76.060277	-4.125810
37464	9.587847	-0.125681	2.333033	0.043711	0.017266	0.055617	1.000000	0.000034	0.000015	0.000008	-3.582598	-76.058473	-4.122626
37465	9.548677	-0.113549	2.343921	0.025493	0.031342	0.020037	1.000000	0.000026	0.000024	0.000023	-3.584927	-76.057553	-4.116878
37466	9.562962	-0.128052	2.357750	0.014045	0.018615	0.037444	1.000000	0.000035	0.000008	0.000004	-3.582547	-76.056565	-4.115239
37467	9.562910	-0.128063	2.357961	0.013705	0.018373	0.037445	1.000000	0.000036	0.000013	0.000015	-3.578360	-76.056884	-4.114665
37468	9.543978	-0.143132	2.362386	0.003246	0.004416	0.020361	1.000000	0.000025	0.000019	0.000012	-3.580559	-76.054571	-4.109502
37469	9.562725	-0.128391	2.358694	0.013288	0.018112	0.037446	1.000000	0.000026	0.000024	0.000023	-3.580404	-76.054020	-4.106124
37470	9.563978	-0.170782	2.356865	0.010238	-0.024041	0.038859	1.000000	0.000033	0.000022	0.000011	-3.581249	-76.051402	-4.101408
37471	9.582731	-0.156104	2.353150	0.020347	-0.010318	0.055944	1.000000	0.000021	0.000018	0.000031	-3.586225	-76.051013	-4.093277
37472	9.543527	-0.143999	2.364153	0.002483	0.003922	0.020361	1.000000	0.000026	0.000034	0.000001	-3.582673	-76.047062	-4.093841
37473	9.557764	-0.158361	2.378165	-0.009323	-0.009019	0.037766	1.000000	0.000044	0.000015	0.000014	-3.577816	-76.047168	-4.092909
37474	9.568019	-0.141951	2.341058	0.031444	0.002196	0.038541	1.000000	0.000021	0.000029	0.000009	-3.578600	-76.043773	-4.089629
37475	9.576399	-0.143439	2.374946	0.000748	0.004772	0.054852	1.000000	0.000031	0.000018	0.000001	-3.570268	-76.043897	-4.094505
37476	9.567795	-0.141924	2.341974	0.031059	0.002032	0.038542	1.000000	0.000031	0.000029	0.000015	-3.572717	-76.040442	-4.088255
37477	9.561812	-0.129218	2.362348	0.011796	0.017308	0.037449	1.000000	0.000035	0.000020	0.000018	-3.571227	-76.040343	-4.084788
37478	9.567581	-0.142239	2.342829	0.030658	0.001837	0.038543	1.000000	0.000024	0.000019	0.000012	-3.573381	-76.038008	-4.079647
37479	9.553163	-0.128056	2.329557	0.041645	0.014376	0.021143	1.000000	0.000031	0.000007	0.000022	-3.574558	-76.039648	-4.074396
37480	9.571424	-0.173239	2.394441	-0.022020	-0.022304	0.055166	1.000000	0.000056	0.000019	-0.000005	-3.565080	-76.037452	-4.077517
37481	9.581708	-0.156810	2.357265	0.018231	-0.011232	0.055948	1.000000	0.000010	0.000018	0.000024	-3.570250	-76.038124	-4.071105
37482	9.561397	-0.129667	2.364001	0.010829	0.016965	0.037451	1.000000	0.000039	0.000021	-0.000000	-3.565099	-76.035743	-4.071794
37483	9.600389	-0.142033	2.353875	0.028164	0.002562	0.073038	1.000000	0.000019	0.000014	0.000020	-3.566943	-76.036959	-4.067258
37484	9.554118	-0.170587	2.328925	0.037571	-0.028085	0.022554	1.000000	0.000026	0.000013	0.000008	-3.567484	-76.035458	-4.063658
37485	9.565678	-0.100610	2.347283	0.031692	0.043389	0.037144	1.000000	0.000032	0.000022	0.000011	-3.565039	-76.035842	-4.062150
37486	9.561066	-0.130085	2.365319	0.009786	0.016703	0.037453	1.000000	0.000027	0.000017	0.000019	-3.570201	-76.033779	-4.053604
37487	9.548002	-0.158110	2.349804	0.017589	-0.012902	0.021459	1.000000	0.000028	0.000010	0.000015	-3.568344	-76.035971	-4.051797
37488	9.572639	-0.156203	2.326182	0.046897	-0.014418	0.039649	1.000000	0.000031	0.000029	0.000015	-3.570776	-76.032534	-4.045562
37489	9.571180	-0.114223	2.328859	0.049358	0.027656	0.038247	1.000000	0.000038	0.000017	0.000025	-3.574793	-76.033817	-4.037851
37490	9.593914	-0.130278	2.376166	0.007587	0.017662	0.071945	1.000000	0.000044	0.000015	0.000014	-3.575678	-76.031958	-4.031716
37491	9.552121	-0.129386	2.333751	0.038430	0.013560	0.021157	1.000000	0.000029	0.000032	0.000008	-3.570935	-76.030975	-4.033670
37492	9.560467	-0.130975	2.367688	0.008118	0.016298	0.037455	1.000000	0.000035	0.000020	0.000018	-3.574806	-76.028598	-4.025542
37493	9.572117	-0.156971	2.328275	0.045336	-0.014804	0.039655	1.000000	0.000027	0.000017	0.000019	-3.575245	-76.029337	-4.022370
37494	9.585035	-0.129291	2.344362	0.036932	0.014619	0.055649	1.000000	0.000044	0.000015	0.000014	-3.576178	-76.027454	-4.016210
37495	9.566058	-0.144326	2.348914	0.025876	0.000459	0.038557	1.000000	0.000031	0.000029	0.000015	-3.572596	-76.027450	-4.015166
37496	9.584817	-0.129510	2.345240	0.036330	0.014412	0.055652	1.000000	0.000006	0.000017	0.000007	-3.574512	-76.025472	-4.012516
37497	9.565864	-0.144648	2.349682	0.025077	0.000396	0.038559	1.000000	0.000038	0.000017	0.000025	-3.578581	-76.028027	-4.006355
37498	9.570338	-0.115450	2.332256	0.046989	0.027084	0.038260	1.000000	0.000035	0.000008	0.000004	-3.576305	-76.027020	-4.004665
37499	9.580070	-0.159244	2.363749	0.013059	-0.012550	0.055954	1.000000	0.000038	0.000017	0.000025	-3.576954	-76.028043	-3.998712
37500	9.565640	-0.145055	2.350569	0.024528	0.000186	0.038561	1.000000	0.000032	0.000022	0.000011	-3.577894	-76.025392	-3.993955
37501	9.565561	-0.145168	2.350885	0.023988	0.000033	0.038562	1.000000	0.000028	0.000010	0.000015	-3.576904	-76.027209	-3.991640
37502	9.565487	-0.145343	2.351175	0.023997	0.000037	0.038562	1.000000	0.000035	0.000020	0.000018	-3.580852	-76.024798	-3.983474
37503	9.579730	-0.159989	2.365076	0.011809	-0.012842	0.055955	1.000000	0.000030	0.000014	0.000026	-3.584335	-76.027137	-3.976117
37504	9.550966	-0.131492	2.338357	0.034747	0.012627	0.021172	1.000000	0.000031	0.000029	0.000015	-3.586895	-76.023659	-3.969822
37505	9.540448	-0.148033	2.376299	-0.006828	0.001303	0.020360	1.000000	0.000028	0.000010	0.000015	-3.586474	-76.027114	-3.967186
37506	9.583979	-0.131206	2.348570	0.032916	0.013739	0.055665	1.000000	0.000021	0.000029	0.000009	-3.587387	-76.023717	-3.963854
37507	9.559120	-0.133283	2.372992	0.003259	0.015061	0.037460	1.000000	0.000044	0.000015	0.000014	-3.582907	-76.023835	-3.961643
37508	9.564908	-0.146317	2.353467	0.022123	-0.000405	0.038566	1.000000	0.000035	0.000020	0.000018	-3.586827	-76.021424	-3.953493
37509	9.556375	-0.144949	2.320365	0.051360	-0.003357	0.022288	1.000000	0.000034	0.000015	0.000008	-3.578955	-76.025894	-3.955323
37510	9.573183	-0.147944	2.387599	-0.009290	0.002113	0.054849	1.000000	0.000035	0.000020	0.000018	-3.582821	-76.023533	-3.947205
37511	9.544436	-0.119327	2.360846	0.013725	0.027444	0.020072	1.000000	0.000032	0.000022	0.000011	-3.580507	-76.020344	-3.945333
37512	9.550251	-0.132322	2.341229	0.032592	0.011976	0.021180	1.000000	0.000029	0.000003	0.000012	-3.582496	-76.019854	-3.939833
37513	9.574956	-0.130520	2.317443	0.061252	0.010320	0.039394	1.000000	0.000038	0.000017	0.000025	-3.584998	-76.021376	-3.932740
37514	9.545591	-0.161915	2.359321	0.010061	-0.014844	0.021467	1.000000	0.000046	0.000002	0.000007	-3.582690	-76.021084	-3.929655
37515	9.558537	-0.134021	2.375297	0.000827	0.014479	0.037461	1.000000	0.000022	0.000022	0.000005	-3.578243	-76.023255	-3.932195
37516	9.597505	-0.146458	2.365335	0.018655	0.000226	0.073061	1.000000	0.000043	0.000022	0.000018	-3.580787	-76.020544	-3.924506
37517	9.564214	-0.147070	2.356240	0.018651	-0.001140	0.038573	1.000000	0.000034	0.000015	0.000008	-3.574648	-76.024755	-3.926024
37518	9.564129	-0.147122	2.356580	0.018649	-0.001139	0.038573	1.000000	0.000024	0.000019	0.000012	-3.576864	-76.022462	-3.920870
37519	9.558156	-0.134307	2.376816	-0.001272	0.014265	0.037461	1.000000	0.000024	0.000019	0.000012	-3.575748	-76.026371	-3.920025
37520	9.563950	-0.147289	2.357299	0.017571	-0.001201	0.038575	1.000000	0.000034	0.000015	0.000008	-3.575018	-76.024643	-3.916847
37521	9.563853	-0.147439	2.357680	0.016903	-0.001301	0.038576	1.000000	0.000026	0.000024	0.000023	-3.578351	-76.025623	-3.910427
37522	9.568317	-0.118225	2.340394	0.038797	0.025386	0.038300	1.000000	0.000039	0.000021	-0.000000	-3.573281	-76.023343	-3.911095
37523	9.536355	-0.160977	2.329089	0.036370	-0.018003	0.005204	1.000000	0.000028	0.000010	0.000015	-3.575719	-76.024512	-3.907510
37524	9.572005	-0.149067	2.392248	-0.013874	0.001422	0.054843	1.000000	0.000031	0.000029	0.000015	-3.578271	-76.021157	-3.901239
37525	9.563467	-0.147704	2.359231	0.015913	-0.001430	0.038578	1.000000	0.000034	0.000015	0.000008	-3.573815	-76.022479	-3.901339
37526	9.571798	-0.149276	2.393064	-0.014434	0.001310	0.054843	1.000000	0.000026	0.000024	0.000023	-3.580703	-76.019695	-3.891229
37527	9.538500	-0.150098	2.383979	-0.013611	0.000198	0.020353	1.000000	0.000027	0.000017	0.000019	-3.588023	-76.018972	-3.884914
37528	9.582044	-0.133408	2.356329	0.026094	0.012630	0.055687	1.000000	0.000031	0.000029	0.000015	-3.590653	-76.015608	-3.878608
37529	9.548753	-0.134106	2.347228	0.026827	0.011231	0.021198	1.000000	0.000028	0.000010	0.000015	-3.589185	-76.016115	-3.874571
37530	9.557092	-0.135759	2.381009	-0.003516	0.013974	0.037461	1.000000	0.000026	0.000024	0.000023	-3.596118	-76.013303	-3.864441
37531	9.581778	-0.133884	2.357381	0.025457	0.012121	0.055689	1.000000	0.000043	0.000011	0.000003	-3.583836	-76.013668	-3.866748
37532	9.542604	-0.121482	2.368133	0.007645	0.026381	0.020082	1.000000	0.000031	0.000029	0.000015	-3.586323	-76.010286	-3.860512
37533	9.581574	-0.133947	2.358209	0.024494	0.011963	0.055692	1.000000	0.000034	0.000015	0.000008	-3.580112	-76.014011	-3.861668
37534	9.581511	-0.134023	2.358458	0.024475	0.011965	0.055692	1.000000	0.000028	0.000010	0.000015	-3.583693	-76.012881	-3.854670
37535	9.554102	-0.147646	2.329537	0.044233	-0.004670	0.022323	1.000000	0.000039	0.000032	0.000014	-3.585793	-76.010015	-3.851695
37536	9.553996	-0.147861	2.329956	0.044218	-0.004666	0.022323	1.000000	0.000011	0.000011	0.000021	-3.593748	-76.008669	-3.842247
37537	9.570755	-0.150866	2.397131	-0.017016	0.000786	0.054839	1.000000	0.000044	0.000015	0.000014	-3.593305	-76.010079	-3.839254
37538	9.553861	-0.148298	2.330483	0.043640	-0.004679	0.022325	1.000000	0.000022	0.000011	0.000027	-3.602943	-76.008691	-3.826834
37539	9.566780	-0.120617	2.346546	0.034415	0.024674	0.038319	1.000000	0.000030	0.000025	0.000004	-3.597964	-76.010479	-3.828880
37540	9.572555	-0.133579	2.327168	0.053243	0.009210	0.039441	1.000000	0.000032	0.000022	0.000011	-3.598915	-76.008007	-3.824153
37541	9.556086	-0.137065	2.384968	-0.007249	0.013591	0.037460	1.000000	0.000027	0.000017	0.000019	-3.605620	-76.011132	-3.818871
37542	9.586660	-0.148239	2.341554	0.040847	-0.003399	0.056822	1.000000	0.000032	0.000022	0.000011	-3.606645	-76.008705	-3.814114
37543	9.570191	-0.151744	2.399327	-0.019041	0.000933	0.054835	1.000000	0.000019	0.000014	0.000020	-3.614348	-76.008545	-3.807705
37544	9.561718	-0.150365	2.366142	0.011269	-0.001795	0.038584	1.000000	0.000040	0.000014	-0.000004	-3.607883	-76.007176	-3.809812
37545	9.547301	-0.136111	2.353013	0.022465	0.011122	0.021209	1.000000	0.000024	0.000037	0.000030	-3.621986	-76.004453	-3.798793
37546	9.566069	-0.121476	2.349398	0.032864	0.025084	0.038323	1.000000	0.000044	0.000015	0.000014	-3.623230	-76.002766	-3.792519
37547	9.566018	-0.121488	2.349608	0.032811	0.025162	0.038323	1.000000	0.000027	0.000006	0.000005	-3.624112	-76.002417	-3.792851
37548	9.561352	-0.150836	2.367590	0.010867	-0.001492	0.038585	1.000000	0.000027	0.000017	0.000019	-3.629726	-76.000505	-3.784129
37549	9.571779	-0.134735	2.330290	0.050991	0.009532	0.039453	1.000000	0.000036	0.000013	0.000015	-3.626702	-76.002652	-3.781155
37550	9.586015	-0.149286	2.344124	0.039470	-0.003180	0.056827	1.000000	0.000031	0.000007	0.000022	-3.633676	-76.001834	-3.770576
37551	9.559894	-0.109274	2.370348	0.012279	0.040717	0.037198	1.000000	0.000019	0.000014	0.000020	-3.643829	-76.005981	-3.764395
37552	9.565711	-0.122387	2.350809	0.031090	0.025261	0.038328	1.000000	0.000034	0.000015	0.000008	-3.643557	-76.004398	-3.761021
37553	9.561014	-0.151776	2.368896	0.008850	-0.001526	0.038587	1.000000	0.000038	0.000017	0.000025	-3.647104	-76.004072	-3.753128
37554	9.579835	-0.137069	2.365084	0.019241	0.012440	0.055703	1.000000	0.000044	0.000015	0.000014	-3.648485	-76.002428	-3.746796
37555	9.571351	-0.135725	2.331989	0.048884	0.009837	0.039463	1.000000	0.000022	0.000022	0.000005	-3.650281	-76.004024	-3.748027
37556	9.560738	-0.152070	2.369989	0.008074	-0.001324	0.038588	1.000000	0.000035	0.000020	0.000018	-3.654694	-76.001902	-3.739692
37557	9.571155	-0.136002	2.332777	0.048466	0.009892	0.039465	1.000000	0.000035	0.000020	0.000018	-3.658671	-76.001754	-3.734595
37558	9.560525	-0.152475	2.370823	0.007655	-0.001265	0.038588	1.000000	0.000034	0.000026	0.000022	-3.664726	-75.998818	-3.724721
37559	9.570918	-0.136364	2.333727	0.047150	0.010008	0.039471	1.000000	0.000040	0.000025	0.000011	-3.664384	-76.003407	-3.723702
37560	9.593495	-0.152194	2.381187	0.005246	0.000072	0.073077	1.000000	0.000039	0.000010	0.000022	-3.670281	-76.002428	-3.713455
37561	9.570776	-0.136440	2.334306	0.045793	0.009901	0.039478	1.000000	0.000029	0.000014	-0.000010	-3.656477	-76.008530	-3.722316
37562	9.545915	-0.138372	2.358499	0.016464	0.011474	0.021221	1.000000	0.000022	0.000011	0.000027	-3.666635	-76.007425	-3.709683
37563	9.597917	-0.123132	2.364238	0.025440	0.026692	0.072829	1.000000	0.000030	0.000025	0.000004	-3.665437	-76.006683	-3.711188
37564	9.537354	-0.137185	2.325748	0.046387	0.008810	0.004992	1.000000	0.000026	0.000012	0.000008	-3.666696	-76.005584	-3.707304
37565	9.578839	-0.138115	2.369052	0.014045	0.012843	0.055711	1.000000	0.000035	0.000020	0.000018	-3.670568	-76.008537	-3.702556
37566	9.569116	-0.094633	2.337943	0.047417	0.052267	0.038096	1.000000	0.000034	0.000015	0.000008	-3.670519	-76.007169	-3.699102
37567	9.578667	-0.138287	2.369736	0.013665	0.013043	0.055711	1.000000	0.000035	0.000020	0.000018	-3.677912	-76.006659	-3.694069
37568	9.564326	-0.124027	2.356354	0.025107	0.025805	0.038344	1.000000	0.000045	0.000008	0.000010	-3.678006	-76.006046	-3.689133
37569	9.551225	-0.151805	2.341036	0.032514	-0.003542	0.022369	1.000000	0.000027	0.000027	-0.000003	-3.673289	-76.008869	-3.694838
37570	9.570014	-0.136995	2.337396	0.042857	0.010438	0.039491	1.000000	0.000026	0.000024	0.000023	-3.680922	-76.006471	-3.684437
37571	9.559395	-0.153357	2.375319	0.001102	-0.000382	0.038591	1.000000	0.000045	0.000008	0.000010	-3.687221	-76.011295	-3.682773
37572	9.597145	-0.123595	2.367347	0.021860	0.027540	0.072835	1.000000	0.000022	0.000022	0.000005	-3.687378	-76.009256	-3.680645
37573	9.530671	-0.124664	2.348741	0.023679	0.025092	0.003861	1.000000	0.000040	0.000025	0.000011	-3.686043	-76.008535	-3.680450
37574	9.563738	-0.124167	2.358732	0.022494	0.026359	0.038349	1.000000	0.000032	0.000022	0.000011	-3.687882	-76.006436	-3.675350
37575	9.577930	-0.138679	2.372693	0.009661	0.013591	0.055715	1.000000	0.000031	0.000007	0.000022	-3.691222	-76.013091	-3.668961
37576	9.536283	-0.137973	2.330091	0.041025	0.009644	0.005015	1.000000	0.000026	0.000034	0.000001	-3.688651	-76.009739	-3.669162
37577	9.577692	-0.138745	2.373648	0.008923	0.013721	0.055716	1.000000	0.000032	0.000022	0.000011	-3.690478	-76.010889	-3.667881
37578	9.569237	-0.137481	2.340545	0.039181	0.010992	0.039505	1.000000	0.000044	0.000015	0.000014	-3.692424	-76.009635	-3.661324
37579	9.583421	-0.151932	2.354537	0.027370	-0.001294	0.056869	1.000000	0.000016	0.000017	0.000013	-3.706083	-76.009439	-3.657733
37580	9.569081	-0.137673	2.341171	0.038800	0.011477	0.039506	1.000000	0.000034	0.000015	0.000008	-3.706532	-76.008242	-3.654061
37581	9.569009	-0.137813	2.341458	0.038328	0.011514	0.039508	1.000000	0.000019	0.000014	0.000020	-3.713301	-76.009258	-3.648910
37582	9.564285	-0.167368	2.359526	0.016272	-0.015072	0.039746	1.000000	0.000022	0.000011	0.000027	-3.724084	-76.008367	-3.636005
37583	9.583152	-0.152849	2.355574	0.025442	-0.000818	0.056874	1.000000	0.000031	0.000007	0.000022	-3.736608	-76.014814	-3.627779
37584	9.568793	-0.138603	2.342297	0.036867	0.011956	0.039513	1.000000	0.000026	0.000034	0.000001	-3.734370	-76.011551	-3.627837
37585	9.549801	-0.153422	2.346735	0.025411	-0.001554	0.022390	1.000000	0.000030	-0.000004	0.000008	-3.743592	-76.018156	-3.626273
37586	9.562768	-0.125697	2.362581	0.016896	0.027956	0.038355	1.000000	0.000026	0.000024	0.000023	-3.751847	-76.015994	-3.615606
37587	9.587477	-0.124080	2.339101	0.045443	0.026484	0.056646	1.000000	0.000043	0.000022	0.000018	-3.755877	-76.017427	-3.610885
37588	9.574380	-0.152119	2.323771	0.053716	-0.002886	0.040683	1.000000	0.000028	0.000010	0.000015	-3.760988	-76.016921	-3.603226
37589	9.582663	-0.153626	2.357510	0.021922	0.000214	0.056883	1.000000	0.000027	0.000017	0.000019	-3.771177	-76.023331	-3.597395
37590	9.549414	-0.154328	2.348250	0.022915	-0.000938	0.022396	1.000000	0.000036	0.000013	0.000015	-3.775021	-76.022585	-3.590151
37591	9.576595	-0.140795	2.377952	0.001821	0.015795	0.055716	1.000000	0.000030	0.000025	0.000004	-3.770890	-76.026440	-3.591613
37592	9.568161	-0.139581	2.344817	0.032046	0.013061	0.039529	1.000000	0.000039	0.000010	0.000022	-3.777744	-76.025992	-3.580961
37593	9.557537	-0.155810	2.382622	-0.009918	0.001959	0.038586	1.000000	0.000035	0.000008	0.000004	-3.773992	-76.031895	-3.581776
37594	9.549101	-0.154503	2.349509	0.020300	-0.000775	0.022402	1.000000	0.000021	0.000029	0.000009	-3.776361	-76.029423	-3.577890
37595	9.556108	-0.113636	2.385358	-0.009225	0.044673	0.037185	1.000000	0.000044	0.000015	0.000014	-3.785599	-76.041351	-3.574622
37596	9.567849	-0.139793	2.346077	0.028227	0.013721	0.039539	1.000000	0.000036	0.000013	0.000015	-3.789562	-76.040823	-3.567341
37597	9.563119	-0.168990	2.364133	0.005194	-0.012079	0.039762	1.000000	0.000035	0.000008	0.000004	-3.805752	-76.046281	-3.567315
37598	9.553472	-0.125405	2.332910	0.038573	0.027324	0.022188	1.000000	0.000030	0.000025	0.000004	-3.805498	-76.044482	-3.565253
37599	9.575946	-0.141021	2.380550	-0.004657	0.017257	0.055713	1.000000	0.000032	0.000022	0.000011	-3.799316	-76.049300	-3.564048
37600	9.556938	-0.156020	2.385012	-0.015261	0.003421	0.038579	1.000000	0.000039	0.000010	0.000022	-3.806460	-76.049120	-3.553279
37601	9.587592	-0.167529	2.341652	0.032678	-0.013935	0.058081	1.000000	0.000026	0.000024	0.000023	-3.807356	-76.046661	-3.546608
37602	9.573226	-0.153269	2.328442	0.044063	-0.001153	0.040731	1.000000	0.000027	0.000027	-0.000003	-3.803988	-76.044653	-3.548018
37603	9.553008	-0.125946	2.334779	0.036731	0.027018	0.022196	1.000000	0.000042	0.000000	0.000025	-3.809426	-76.044951	-3.538971
37604	9.575538	-0.141806	2.382145	-0.005399	0.017246	0.055713	1.000000	0.000027	0.000017	0.000019	-3.816457	-76.043980	-3.529680
37605	9.548200	-0.155554	2.353099	0.013901	0.001022	0.022413	1.000000	0.000036	0.000013	0.000015	-3.830783	-76.046483	-3.524657
37606	9.571742	-0.111644	2.331406	0.046130	0.041655	0.039333	1.000000	0.000024	0.000019	0.000012	-3.834937	-76.045284	-3.518720
37607	9.561019	-0.127864	2.369533	0.005079	0.031089	0.038359	1.000000	0.000039	0.000032	0.000014	-3.848236	-76.043249	-3.514639
37608	9.566858	-0.141002	2.350044	0.023692	0.015657	0.039548	1.000000	0.000041	-0.000004	0.000014	-3.852444	-76.044689	-3.506774
37609	9.560902	-0.128018	2.369993	0.004189	0.031364	0.038359	1.000000	0.000032	0.000022	0.000011	-3.856412	-76.046271	-3.504229
37610	9.547756	-0.155987	2.354873	0.012375	0.002009	0.022415	1.000000	0.000021	0.000029	0.000009	-3.859322	-76.044023	-3.500119
37611	9.580823	-0.155552	2.364852	0.010622	0.003222	0.056901	1.000000	0.000036	0.000013	0.000015	-3.860026	-76.045905	-3.496294
37612	9.566509	-0.141343	2.351445	0.022016	0.016007	0.039552	1.000000	0.000024	0.000019	0.000012	-3.864365	-76.044736	-3.490275
37613	9.560485	-0.128468	2.371651	0.003331	0.031521	0.038359	1.000000	0.000034	0.000026	0.000022	-3.869387	-76.040888	-3.482995
37614	9.560394	-0.128678	2.372006	0.003146	0.031625	0.038358	1.000000	0.000028	0.000010	0.000015	-3.875167	-76.040761	-3.475059
37615	9.560292	-0.128800	2.372412	0.003646	0.031406	0.038359	1.000000	0.000039	0.000032	0.000014	-3.871597	-76.033988	-3.471963
37616	9.551903	-0.127630	2.339203	0.033847	0.028652	0.022202	1.000000	0.000041	-0.000004	0.000014	-3.875842	-76.035393	-3.464081
37617	9.540042	-0.101743	2.378859	-0.004043	0.059726	0.019816	1.000000	0.000010	0.000018	0.000024	-3.884805	-76.034893	-3.455654
37618	9.560083	-0.129370	2.373223	0.002987	0.031609	0.038358	1.000000	0.000032	0.000022	0.000011	-3.887784	-76.033347	-3.450089
37619	9.565955	-0.142538	2.353625	0.021554	0.016411	0.039552	1.000000	0.000033	-0.000007	0.000015	-3.899233	-76.035434	-3.445402
37620	9.578992	-0.114801	2.369176	0.013011	0.045979	0.055493	1.000000	0.000032	0.000000	0.000019	-3.906522	-76.036321	-3.435515
37621	9.605035	-0.155476	2.343417	0.040123	0.002112	0.075228	1.000000	0.000032	0.000000	0.000019	-3.910671	-76.029536	-3.430287
37622	9.609741	-0.126535	2.325544	0.061974	0.028814	0.075013	1.000000	0.000032	0.000000	0.000019	-3.917971	-76.030346	-3.420390
37623	9.595454	-0.112482	2.312045	0.072889	0.042029	0.057665	1.000000	0.000026	0.000024	0.000023	-3.937203	-76.031647	-3.412841
37624	9.601279	-0.125889	2.292634	0.091506	0.026591	0.058862	1.000000	0.000011	0.000011	0.000021	-3.947488	-76.031206	-3.402397
37625	9.582272	-0.140926	2.297050	0.079705	0.012699	0.041739	1.000000	0.000044	0.000015	0.000014	-3.946997	-76.037376	-3.398577
37626	9.573860	-0.140003	2.263959	0.109910	0.009932	0.025591	1.000000	0.000019	0.000025	0.000034	-3.962108	-76.035289	-3.382173
37627	9.573699	-0.140396	2.264615	0.108764	0.010469	0.025603	1.000000	0.000019	0.000043	0.000016	-3.978022	-76.037189	-3.378667
37628	9.587719	-0.154970	2.279184	0.096978	-0.002083	0.042953	1.000000	0.000029	0.000043	0.000022	-3.986083	-76.033218	-3.368461
37629	9.587468	-0.155189	2.280224	0.097074	-0.001590	0.042952	1.000000	0.000030	0.000065	0.000015	-4.000044	-76.025298	-3.366496
37630	9.581247	-0.142186	2.301242	0.078121	0.014090	0.041750	1.000000	0.000027	0.000067	0.000008	-4.000969	-76.018622	-3.363955
37631	9.550065	-0.130897	2.346515	0.029731	0.031436	0.022207	1.000000	0.000036	0.000103	0.000014	-4.002649	-76.009176	-3.363859
37632	9.538997	-0.147094	2.385801	-0.011262	0.020548	0.021213	1.000000	0.000010	0.000069	0.000013	-4.007887	-76.002294	-3.358914
37633	9.532771	-0.134229	2.406731	-0.030943	0.036272	0.020004	1.000000	0.000044	0.000055	0.000024	-4.014772	-76.001167	-3.352068
37634	9.530101	-0.151505	2.478968	-0.102325	0.028297	0.035144	1.000000	0.000045	0.000059	-0.000001	-4.009912	-75.995543	-3.353392
37635	9.488397	-0.150846	2.436895	-0.070934	0.024826	-0.015481	1.000000	0.000028	0.000050	0.000026	-4.032794	-75.990929	-3.346917
37636	9.507186	-0.136190	2.433380	-0.060676	0.038869	0.001653	1.000000	0.000033	0.000015	0.000008	-4.034888	-75.990226	-3.342544
37637	9.515434	-0.137496	2.466971	-0.090202	0.041678	0.017799	1.000000	0.000044	-0.000007	0.000021	-4.038446	-75.985719	-3.335746
37638	9.540359	-0.135930	2.442918	-0.061168	0.040149	0.036141	1.000000	0.000045	-0.000013	0.000018	-4.044865	-75.988150	-3.325600
37639	9.566517	-0.176514	2.416819	-0.036495	-0.003097	0.055903	1.000000	0.000039	-0.000030	0.000011	-4.057953	-75.998882	-3.322110
37640	9.565467	-0.134315	2.418138	-0.033369	0.039175	0.054478	1.000000	0.000027	-0.000023	0.000009	-4.062622	-76.002543	-3.315901
37641	9.604617	-0.147178	2.407738	-0.017580	0.024224	0.090172	1.000000	0.000029	-0.000008	0.000034	-4.057371	-76.013297	-3.302938
37642	9.629511	-0.145849	2.383768	0.011426	0.022693	0.108526	1.000000	0.000024	-0.000002	0.000020	-4.066612	-76.014568	-3.292335
37643	9.577366	-0.161297	2.378432	0.002017	0.006845	0.056904	1.000000	0.000033	0.000015	0.000008	-4.049033	-76.013487	-3.294198
37644	9.602153	-0.159611	2.354921	0.031024	0.005311	0.075259	1.000000	0.000032	0.000022	0.000011	-4.052544	-76.012010	-3.288420
37645	9.562944	-0.147049	2.365552	0.013025	0.019422	0.039562	1.000000	0.000029	0.000032	0.000008	-4.046284	-76.010734	-3.288385
37646	9.521332	-0.146444	2.323174	0.044419	0.015378	-0.011048	1.000000	0.000027	0.000045	0.000015	-4.051449	-76.006560	-3.281582
37647	9.543603	-0.162139	2.371234	0.000822	0.005837	0.022421	1.000000	0.000030	0.000036	0.000019	-4.057969	-76.011640	-3.277057
37648	9.504334	-0.149655	2.382075	-0.016941	0.020280	-0.013282	1.000000	0.000036	0.000041	0.000011	-4.060238	-76.008039	-3.272190
37649	9.508917	-0.120533	2.364876	0.004788	0.046224	-0.013478	1.000000	0.000037	0.000034	0.000007	-4.042673	-76.005708	-3.273405
37650	9.512326	-0.150775	2.416660	-0.047857	0.022693	0.002837	1.000000	0.000046	0.000001	0.000007	-4.043020	-76.006693	-3.269195
37651	9.517058	-0.121628	2.398870	-0.026039	0.048651	0.002643	1.000000	0.000025	0.000012	0.000008	-4.028582	-76.006312	-3.269553
37652	9.556123	-0.134290	2.388845	-0.008673	0.034455	0.038345	1.000000	0.000022	-0.000007	0.000009	-4.032884	-76.008210	-3.264040
37653	9.541972	-0.119986	2.374899	0.002511	0.047768	0.021004	1.000000	0.000031	-0.000011	0.000005	-4.046980	-76.012302	-3.263530
37654	9.575203	-0.119467	2.384213	0.001105	0.049146	0.055486	1.000000	0.000027	-0.000023	0.000009	-4.051298	-76.016093	-3.257510
37655	9.600182	-0.117854	2.359970	0.028888	0.048475	0.073852	1.000000	0.000026	-0.000016	0.000012	-4.076818	-76.026485	-3.253989
37656	9.586124	-0.103675	2.345629	0.040319	0.061253	0.056514	1.000000	0.000035	-0.000042	0.000015	-4.084237	-76.032455	-3.244006
37657	9.598103	-0.130172	2.305657	0.077913	0.030069	0.058969	1.000000	0.000020	-0.000015	0.000024	-4.093017	-76.033460	-3.235199
37658	9.583959	-0.116184	2.291648	0.089347	0.042844	0.041632	1.000000	0.000036	-0.000009	0.000022	-4.102345	-76.035585	-3.223137
37659	9.604113	-0.143840	2.285548	0.095001	0.014682	0.060213	1.000000	0.000025	-0.000009	0.000016	-4.106777	-76.045059	-3.217040
37660	9.608898	-0.114938	2.267519	0.116856	0.041362	0.060023	1.000000	0.000032	0.000000	0.000019	-4.114667	-76.046172	-3.206909
37661	9.589880	-0.130106	2.271896	0.106274	0.027980	0.042878	1.000000	0.000039	0.000021	0.000036	-4.139254	-76.044585	-3.194214
37662	9.589760	-0.130434	2.272386	0.106060	0.028114	0.042880	1.000000	0.000031	0.000029	0.000015	-4.144544	-76.042439	-3.186887
37663	9.576582	-0.158510	2.257403	0.112589	-0.001357	0.026989	1.000000	0.000031	0.000029	0.000015	-4.144948	-76.049469	-3.183589
37664	9.584693	-0.159893	2.291540	0.081962	0.001727	0.043089	1.000000	0.000041	0.000036	0.000025	-4.153464	-76.046502	-3.171820
37665	9.572611	-0.133897	2.331907	0.042748	0.033534	0.040619	1.000000	0.000032	0.000062	0.000022	-4.170858	-76.049521	-3.166126
37666	9.598370	-0.174661	2.307421	0.068340	-0.010147	0.060439	1.000000	0.000023	0.000055	0.000012	-4.174882	-76.044550	-3.161180
37667	9.567268	-0.163222	2.352136	0.019056	0.007468	0.040808	1.000000	0.000047	0.000063	0.000009	-4.177918	-76.045346	-3.163579
37668	9.542093	-0.164942	2.377112	-0.010355	0.009311	0.022413	1.000000	0.000015	0.000052	0.000012	-4.183348	-76.040722	-3.158163
37669	9.566768	-0.163388	2.354154	0.016520	0.007565	0.040813	1.000000	0.000036	0.000041	0.000011	-4.178585	-76.049295	-3.159125
37670	9.535729	-0.152024	2.398524	-0.031639	0.025007	0.021159	1.000000	0.000019	0.000043	0.000016	-4.185454	-76.045813	-3.151784
37671	9.534415	-0.109928	2.400949	-0.028398	0.067280	0.019727	1.000000	0.000021	0.000029	0.000009	-4.189318	-76.043196	-3.152492
37672	9.546191	-0.136294	2.361923	0.008823	0.036223	0.022231	1.000000	0.000017	0.000010	0.000009	-4.194359	-76.043533	-3.147174
37673	9.554384	-0.137448	2.395612	-0.022979	0.039640	0.038303	1.000000	0.000035	0.000008	0.000004	-4.200746	-76.050864	-3.147173
37674	9.559117	-0.108521	2.377902	-0.001134	0.066311	0.038126	1.000000	0.000010	0.000018	0.000024	-4.213367	-76.050150	-3.134983
37675	9.565037	-0.121906	2.358255	0.017150	0.050895	0.039382	1.000000	0.000034	-0.000014	0.000012	-4.219311	-76.054305	-3.131230
37676	9.579213	-0.136349	2.372043	0.005206	0.038424	0.056710	1.000000	0.000039	0.000010	0.000022	-4.227804	-76.054564	-3.119923
37677	9.570934	-0.135372	2.338694	0.035168	0.035529	0.040642	1.000000	0.000048	0.000006	0.000017	-4.231822	-76.056444	-3.116749
37678	9.570880	-0.135491	2.338910	0.034906	0.035680	0.040643	1.000000	0.000055	0.000015	0.000020	-4.237616	-76.056097	-3.106353
37679	9.582644	-0.161882	2.299954	0.071344	0.004590	0.043171	1.000000	0.000059	0.000028	0.000016	-4.239306	-76.058794	-3.103763
37680	9.584814	-0.150140	2.353668	0.021934	0.023349	0.057972	1.000000	0.000058	0.000024	0.000041	-4.254300	-76.057313	-3.083550
37681	9.559779	-0.152182	2.377986	-0.008023	0.025257	0.039554	1.000000	0.000026	0.000024	0.000023	-4.264468	-76.059173	-3.076363
37682	9.579696	-0.179668	2.372862	-0.001262	-0.002820	0.058144	1.000000	0.000057	0.000052	0.000001	-4.260138	-76.054835	-3.076173
37683	9.539276	-0.124715	2.385460	-0.016265	0.053979	0.020958	1.000000	0.000038	0.000039	0.000018	-4.269444	-76.055932	-3.073574
37684	9.548431	-0.168198	2.418027	-0.050363	0.015020	0.038451	1.000000	0.000028	0.000039	0.000011	-4.273639	-76.053077	-3.068099
37685	9.540062	-0.167112	2.385098	-0.020099	0.012052	0.022395	1.000000	0.000022	0.000022	0.000005	-4.273372	-76.051433	-3.073510
37686	9.528062	-0.140865	2.424930	-0.057807	0.043456	0.019854	1.000000	0.000023	0.000026	0.000016	-4.280413	-76.049935	-3.065619
37687	9.519777	-0.139871	2.391670	-0.027490	0.040975	0.003797	1.000000	0.000011	0.000000	0.000006	-4.294735	-76.050684	-3.066428
37688	9.527959	-0.140949	2.425332	-0.058178	0.044161	0.019849	1.000000	0.000012	0.000015	-0.000005	-4.294062	-76.050644	-3.067840
37689	9.538696	-0.124978	2.387767	-0.016847	0.055092	0.020951	1.000000	0.000030	-0.000004	0.000008	-4.296663	-76.048281	-3.069157
37690	9.552873	-0.139208	2.401530	-0.028819	0.042651	0.038275	1.000000	0.000009	-0.000004	-0.000004	-4.297300	-76.050398	-3.069611
37691	9.563713	-0.123354	2.363543	0.012049	0.053580	0.039376	1.000000	0.000022	-0.000029	0.000017	-4.305171	-76.053485	-3.065938
37692	9.563804	-0.123431	2.363172	0.011786	0.053742	0.039375	1.000000	0.000031	-0.000011	0.000005	-4.307616	-76.056282	-3.061913
37693	9.568654	-0.094316	2.345061	0.034739	0.080682	0.039198	1.000000	0.000038	-0.000001	0.000007	-4.318944	-76.051925	-3.062798
37694	9.574575	-0.107465	2.325460	0.053187	0.065205	0.040470	1.000000	0.000045	0.000008	0.000010	-4.321857	-76.052429	-3.056713
37695	9.568630	-0.094349	2.345160	0.032998	0.081158	0.039200	1.000000	0.000033	-0.000007	0.000015	-4.331077	-76.061909	-3.052969
37696	9.594622	-0.135198	2.319812	0.058417	0.037443	0.059078	1.000000	0.000064	0.000022	0.000030	-4.340481	-76.060684	-3.037988
37697	9.574406	-0.107853	2.326135	0.052854	0.066059	0.040466	1.000000	0.000048	0.000028	0.000010	-4.349821	-76.049392	-3.040589
37698	9.589558	-0.164634	2.338772	0.037406	0.011523	0.059245	1.000000	0.000031	0.000018	0.000037	-4.366295	-76.048496	-3.022271
37699	9.589449	-0.164919	2.339198	0.038126	0.012342	0.059241	1.000000	0.000040	0.000025	0.000010	-4.386743	-76.041649	-3.022588
37700	9.569243	-0.137523	2.345482	0.030918	0.040758	0.040636	1.000000	0.000043	0.000022	0.000017	-4.393018	-76.040451	-3.013463
37701	9.564270	-0.166808	2.364044	0.007983	0.014588	0.040815	1.000000	0.000033	0.000033	0.000025	-4.405840	-76.040908	-3.005787
37702	9.564133	-0.167005	2.364584	0.007734	0.014767	0.040815	1.000000	0.000032	0.000022	0.000011	-4.410492	-76.039791	-2.999616
37703	9.549916	-0.152923	2.350993	0.020048	0.027206	0.023486	1.000000	0.000023	0.000004	0.000023	-4.415819	-76.035605	-2.993544
37704	9.549800	-0.153164	2.351448	0.019806	0.027383	0.023486	1.000000	0.000008	0.000043	0.000010	-4.421753	-76.032119	-2.988937
37705	9.555626	-0.166262	2.332263	0.036974	0.011787	0.024770	1.000000	0.000041	0.000007	-0.000007	-4.413203	-76.040302	-2.997515
37706	9.554472	-0.123938	2.334130	0.040237	0.054079	0.023313	1.000000	0.000016	0.000017	0.000013	-4.420575	-76.039801	-2.990433
37707	9.574446	-0.151468	2.328791	0.046900	0.026683	0.041922	1.000000	0.000018	0.000032	0.000002	-4.438625	-76.038149	-2.993611
37708	9.568403	-0.138326	2.348856	0.027976	0.042540	0.040637	1.000000	0.000028	0.000010	0.000015	-4.446255	-76.038404	-2.984965
37709	9.549357	-0.153192	2.353246	0.016517	0.029087	0.023487	1.000000	0.000025	0.000012	0.000008	-4.455715	-76.042889	-2.986373
37710	9.554132	-0.124289	2.335500	0.038476	0.055705	0.023311	1.000000	0.000027	0.000017	0.000019	-4.464947	-76.042345	-2.976246
37711	9.554055	-0.124366	2.335810	0.037603	0.055781	0.023314	1.000000	0.000023	0.000015	0.000001	-4.463178	-76.045753	-2.978365
37712	9.549066	-0.153508	2.354404	0.015133	0.029536	0.023488	1.000000	0.000029	0.000043	0.000022	-4.472638	-76.042220	-2.967766
37713	9.578711	-0.123206	2.313122	0.065823	0.053426	0.041765	1.000000	0.000038	0.000017	0.000025	-4.460541	-76.043602	-2.962167
37714	9.562926	-0.168338	2.369366	0.002475	0.016415	0.040815	1.000000	0.000030	0.000036	0.000018	-4.468351	-76.040900	-2.953082
37715	9.567645	-0.139569	2.351872	0.025432	0.043011	0.040642	1.000000	0.000056	0.000020	0.000031	-4.480316	-76.034106	-2.945834
37716	9.568616	-0.182103	2.350715	0.021630	0.001082	0.042106	1.000000	0.000034	0.000026	0.000022	-4.489646	-76.032426	-2.934771
37717	9.561445	-0.126884	2.372516	0.005625	0.058774	0.039352	1.000000	0.000042	0.000029	0.000021	-4.489918	-76.034059	-2.928342
37718	9.556449	-0.156020	2.391088	-0.016846	0.032529	0.039521	1.000000	0.000040	0.000025	0.000010	-4.493298	-76.032680	-2.922641
37719	9.562304	-0.169291	2.371808	0.000984	0.016725	0.040815	1.000000	0.000036	0.000013	0.000015	-4.491464	-76.035952	-2.919866
37720	9.542110	-0.141802	2.378034	-0.006184	0.045151	0.022196	1.000000	0.000026	0.000034	0.000001	-4.491660	-76.033597	-2.919125
37721	9.547924	-0.154993	2.358934	0.011479	0.029595	0.023493	1.000000	0.000032	0.000022	0.000011	-4.494163	-76.036878	-2.915938
37722	9.537043	-0.170841	2.396877	-0.029667	0.019037	0.022360	1.000000	0.000019	0.000003	0.000006	-4.498563	-76.038095	-2.911765
37723	9.541880	-0.141719	2.378962	-0.006117	0.045684	0.022194	1.000000	0.000032	0.000011	-0.000003	-4.500028	-76.029241	-2.926276
37724	9.547775	-0.154852	2.359548	0.012289	0.030176	0.023490	1.000000	0.000025	0.000012	0.000008	-4.504640	-76.029274	-2.921100
37725	9.560774	-0.126820	2.375223	0.003195	0.060406	0.039343	1.000000	0.000024	0.000008	-0.000002	-4.515731	-76.033937	-2.923747
37726	9.566681	-0.140044	2.355759	0.021593	0.044897	0.040643	1.000000	0.000028	0.000010	0.000015	-4.523468	-76.034227	-2.915103
37727	9.546551	-0.112714	2.361709	0.015325	0.072548	0.022022	1.000000	0.000028	0.000010	0.000015	-4.513271	-76.029125	-2.914884
37728	9.585565	-0.125655	2.352043	0.032433	0.058349	0.057798	1.000000	0.000027	0.000017	0.000019	-4.522462	-76.028560	-2.904831
37729	9.560549	-0.127255	2.376103	0.003858	0.060469	0.039343	1.000000	0.000035	0.000008	0.000004	-4.527624	-76.024557	-2.912737
37730	9.572390	-0.153817	2.337075	0.040911	0.029250	0.041941	1.000000	0.000038	0.000017	0.000025	-4.538524	-76.023896	-2.899706
37731	9.535451	-0.129214	2.400468	-0.024920	0.062097	0.020892	1.000000	0.000030	0.000014	0.000026	-4.537558	-76.018452	-2.894529
37732	9.571176	-0.112206	2.339189	0.044860	0.071140	0.040471	1.000000	0.000039	0.000010	0.000022	-4.546876	-76.018582	-2.882977
37733	9.593418	-0.127741	2.386812	0.002246	0.061792	0.073820	1.000000	0.000039	0.000010	0.000022	-4.552471	-76.019755	-2.877025
37734	9.547167	-0.156465	2.361901	0.011474	0.031100	0.023488	1.000000	0.000038	0.000017	0.000025	-4.563324	-76.019065	-2.864030
37735	9.572017	-0.155204	2.338512	0.041606	0.028843	0.041939	1.000000	0.000023	0.000026	0.000016	-4.558136	-76.009889	-2.864655
37736	9.571944	-0.155343	2.338799	0.041373	0.029025	0.041940	1.000000	0.000029	0.000003	0.000012	-4.564221	-76.010868	-2.857542
37737	9.565985	-0.142352	2.358448	0.021211	0.045043	0.040643	1.000000	0.000045	-0.000002	0.000032	-4.579695	-76.019794	-2.842769
37738	9.590893	-0.141013	2.334834	0.050092	0.043377	0.059100	1.000000	0.000011	0.000022	-0.000001	-4.581149	-76.018762	-2.842577
37739	9.565885	-0.142455	2.358847	0.019875	0.045431	0.040644	1.000000	0.000038	-0.000001	0.000007	-4.583876	-76.025339	-2.844416
37740	9.582628	-0.139948	2.301716	0.079171	0.040586	0.043089	1.000000	0.000032	0.000022	0.000011	-4.588681	-76.024197	-2.838294
37741	9.596652	-0.154328	2.315998	0.065237	0.027402	0.060427	1.000000	0.000016	0.000017	0.000013	-4.573483	-76.034483	-2.836793
37742	9.584648	-0.127895	2.355655	0.027695	0.058999	0.057809	1.000000	0.000030	0.000025	0.000004	-4.575157	-76.033162	-2.834154
37743	9.576377	-0.126808	2.322573	0.058202	0.055673	0.041801	1.000000	0.000011	0.000022	-0.000001	-4.568735	-76.030156	-2.840439
37744	9.565406	-0.142591	2.360778	0.017054	0.045165	0.040651	1.000000	0.000031	0.000029	0.000015	-4.574953	-76.028234	-2.832938
37745	9.570173	-0.113515	2.343225	0.038598	0.071769	0.040493	1.000000	0.000055	0.000026	-0.000002	-4.571210	-76.029561	-2.839681
37746	9.565155	-0.142522	2.361800	0.016086	0.045558	0.040651	1.000000	0.000026	0.000024	0.000023	-4.581852	-76.028188	-2.828279
37747	9.565042	-0.142893	2.362235	0.014888	0.045520	0.040653	1.000000	0.000028	0.000021	0.000030	-4.589073	-76.032477	-2.815034
37748	9.570863	-0.156528	2.343144	0.033269	0.029989	0.041968	1.000000	0.000033	0.000033	0.000025	-4.599863	-76.030004	-2.802668
37749	9.553889	-0.159248	2.401083	-0.026144	0.035024	0.039492	1.000000	0.000031	0.000029	0.000015	-4.602115	-76.025835	-2.802608
37750	9.564611	-0.143680	2.363934	0.014501	0.045881	0.040651	1.000000	0.000042	0.000029	0.000021	-4.610011	-76.023869	-2.792163
37751	9.564508	-0.143988	2.364330	0.013784	0.046352	0.040650	1.000000	0.000022	0.000011	0.000027	-4.630025	-76.026681	-2.781096
37752	9.570365	-0.157519	2.345108	0.032160	0.030816	0.041969	1.000000	0.000031	0.000029	0.000015	-4.636311	-76.024795	-2.773601
37753	9.551240	-0.172345	2.349722	0.020720	0.016842	0.024811	1.000000	0.000044	0.000015	0.000014	-4.632982	-76.028542	-2.770981
37754	9.551142	-0.172529	2.350106	0.020458	0.017026	0.024811	1.000000	0.000026	0.000024	0.000023	-4.643651	-76.027210	-2.759603
37755	9.564105	-0.144689	2.365918	0.012236	0.046818	0.040650	1.000000	0.000033	0.000015	0.000008	-4.647989	-76.025861	-2.760459
37756	9.569996	-0.158001	2.346582	0.030605	0.031279	0.041972	1.000000	0.000036	0.000013	0.000015	-4.654275	-76.025867	-2.752420
37757	9.572084	-0.145751	2.400097	-0.018903	0.050043	0.056641	1.000000	0.000030	0.000025	0.000004	-4.647545	-76.025563	-2.756089
37758	9.530709	-0.145354	2.357278	0.012603	0.045707	0.006175	1.000000	0.000026	0.000024	0.000023	-4.658219	-76.024226	-2.744725
37759	9.563749	-0.144961	2.367339	0.010290	0.047187	0.040651	1.000000	0.000024	0.000008	-0.000002	-4.656781	-76.029124	-2.753223
37760	9.565833	-0.132666	2.420849	-0.039033	0.066307	0.055308	1.000000	0.000031	0.000029	0.000015	-4.663068	-76.027270	-2.745761
37761	9.563540	-0.144923	2.368184	0.009386	0.047080	0.040652	1.000000	0.000039	0.000020	-0.000000	-4.649922	-76.028563	-2.749393
37762	9.563461	-0.145034	2.368498	0.009121	0.047264	0.040651	1.000000	0.000022	0.000011	0.000027	-4.663458	-76.028613	-2.735590
37763	9.577460	-0.159400	2.382812	-0.003674	0.034715	0.057962	1.000000	0.000027	0.000027	-0.000003	-4.656241	-76.031256	-2.745287
37764	9.562241	-0.102888	2.370720	0.011536	0.089523	0.039176	1.000000	0.000028	0.000010	0.000015	-4.663848	-76.031614	-2.736833
37765	9.538210	-0.146692	2.393334	-0.022980	0.049380	0.022151	1.000000	0.000032	0.000022	0.000011	-4.664216	-76.039308	-2.735589
37766	9.563118	-0.145358	2.369864	0.005834	0.047680	0.040652	1.000000	0.000028	0.000010	0.000015	-4.671827	-76.039708	-2.727141
37767	9.557119	-0.132204	2.389593	-0.013649	0.063634	0.039314	1.000000	0.000029	0.000003	0.000012	-4.678099	-76.044409	-2.725611
37768	9.569013	-0.158921	2.350526	0.023309	0.032347	0.041989	1.000000	0.000039	0.000010	0.000022	-4.687408	-76.044755	-2.714188
37769	9.567947	-0.116869	2.352131	0.025373	0.074484	0.040515	1.000000	0.000040	0.000003	0.000018	-4.690110	-76.053686	-2.710156
37770	9.557035	-0.132586	2.389910	-0.015823	0.064044	0.039308	1.000000	0.000046	0.000001	0.000007	-4.691971	-76.055184	-2.705522
37771	9.568944	-0.159090	2.350793	0.020607	0.032426	0.041995	1.000000	0.000027	0.000005	0.000005	-4.686538	-76.059148	-2.707621
37772	9.567856	-0.116917	2.352502	0.024001	0.074710	0.040517	1.000000	0.000035	0.000019	0.000018	-4.694310	-76.058487	-2.698223
37773	9.548767	-0.131741	2.356936	0.013670	0.061018	0.023345	1.000000	0.000037	0.000006	0.000011	-4.698842	-76.057054	-2.699136
37774	9.560643	-0.158516	2.317948	0.050610	0.029717	0.026035	1.000000	0.000030	0.000014	0.000026	-4.711048	-76.056914	-2.685827
37775	9.567698	-0.117449	2.353115	0.023921	0.074365	0.040520	1.000000	0.000029	0.000003	0.000012	-4.696517	-76.055811	-2.685666
37776	9.593639	-0.158266	2.328184	0.049035	0.030551	0.060512	1.000000	0.000038	0.000027	0.000003	-4.696772	-76.054358	-2.683663
37777	9.554412	-0.145418	2.338619	0.031961	0.045264	0.024691	1.000000	0.000009	0.000036	0.000006	-4.704761	-76.049351	-2.689248
37778	9.587405	-0.144945	2.348877	0.030315	0.046777	0.059165	1.000000	0.000023	0.000015	0.000001	-4.706278	-76.049311	-2.687732
37779	9.587282	-0.145045	2.349375	0.028914	0.046419	0.059171	1.000000	0.000041	0.000036	0.000025	-4.701317	-76.053006	-2.684014
37780	9.567108	-0.117639	2.355503	0.021859	0.074857	0.040521	1.000000	0.000033	0.000015	0.000008	-4.704459	-76.052926	-2.679558
37781	9.553979	-0.145659	2.340376	0.027747	0.045295	0.024704	1.000000	0.000025	0.000012	0.000008	-4.703005	-76.064622	-2.681616
37782	9.562007	-0.146654	2.374260	-0.003000	0.048713	0.040648	1.000000	0.000032	0.000022	0.000011	-4.707659	-76.063772	-2.675738
37783	9.574946	-0.118929	2.390142	-0.011100	0.078808	0.056465	1.000000	0.000027	0.000028	0.000033	-4.730944	-76.060278	-2.666757
37784	9.567737	-0.160609	2.355599	0.015344	0.033647	0.042000	1.000000	0.000027	0.000017	0.000019	-4.740073	-76.059951	-2.656951
37785	9.555766	-0.134128	2.394893	-0.022587	0.065399	0.039286	1.000000	0.000030	-0.000004	0.000008	-4.745490	-76.064730	-2.662261
37786	9.567641	-0.160774	2.355975	0.014314	0.034068	0.042000	1.000000	0.000021	0.000029	0.000008	-4.750067	-76.063124	-2.657910
37787	9.566490	-0.118659	2.357962	0.018967	0.076089	0.040517	1.000000	0.000042	0.000029	0.000021	-4.753143	-76.054233	-2.655914
37788	9.554315	-0.189114	2.341626	0.023066	0.004582	0.026182	1.000000	0.000035	0.000019	0.000018	-4.760920	-76.053581	-2.646591
37789	9.553199	-0.146925	2.343475	0.026009	0.046998	0.024700	1.000000	0.000030	0.000025	0.000004	-4.765470	-76.055496	-2.650595
37790	9.567188	-0.161216	2.357786	0.013857	0.034689	0.041999	1.000000	0.000028	0.000010	0.000015	-4.773141	-76.055982	-2.642226
37791	9.553054	-0.147052	2.344060	0.025093	0.047366	0.024701	1.000000	0.000033	0.000015	0.000008	-4.776016	-76.057914	-2.642431
37792	9.561046	-0.148039	2.378041	-0.005652	0.050830	0.040636	1.000000	0.000031	0.000029	0.000015	-4.782314	-76.056226	-2.635121
37793	9.560932	-0.148258	2.378489	-0.005469	0.050907	0.040636	1.000000	0.000037	0.000017	0.000025	-4.791020	-76.053058	-2.631503
37794	9.574908	-0.162553	2.392835	-0.017627	0.038607	0.057933	1.000000	0.000039	0.000020	-0.000000	-4.789886	-76.052475	-2.630971
37795	9.579749	-0.133619	2.375185	0.003948	0.065388	0.057807	1.000000	0.000012	0.000033	0.000013	-4.803508	-76.053291	-2.631723
37796	9.566549	-0.161759	2.360339	0.011755	0.035971	0.041997	1.000000	0.000032	0.000022	0.000011	-4.808351	-76.052427	-2.625841
37797	9.546402	-0.134265	2.366356	0.004619	0.064109	0.023334	1.000000	0.000032	0.000022	0.000011	-4.805402	-76.052314	-2.630569
37798	9.560393	-0.148672	2.380628	-0.007549	0.051816	0.040630	1.000000	0.000031	0.000007	0.000022	-4.816184	-76.053040	-2.618771
37799	9.554344	-0.135487	2.400481	-0.027505	0.068023	0.039256	1.000000	0.000022	0.000022	0.000005	-4.823651	-76.058744	-2.624384
37800	9.560240	-0.148919	2.381227	-0.009229	0.052428	0.040625	1.000000	0.000039	0.000010	0.000022	-4.833106	-76.059196	-2.613049
37801	9.565172	-0.120063	2.363230	0.013264	0.078389	0.040509	1.000000	0.000034	0.000008	0.000004	-4.822533	-76.057342	-2.613569
37802	9.585131	-0.147734	2.357968	0.019660	0.050314	0.059174	1.000000	0.000026	0.000024	0.000023	-4.833292	-76.056201	-2.602382
37803	9.546000	-0.135063	2.367931	0.002651	0.064338	0.023333	1.000000	0.000041	-0.000004	0.000014	-4.825522	-76.055432	-2.602760
37804	9.560042	-0.149417	2.381988	-0.009525	0.052047	0.040627	1.000000	0.000028	0.000010	0.000015	-4.833221	-76.055928	-2.594450
37805	9.570944	-0.133961	2.344462	0.031564	0.062369	0.041882	1.000000	0.000036	0.000012	0.000015	-4.830889	-76.053475	-2.599809
37806	9.551837	-0.148761	2.348905	0.020790	0.048732	0.024704	1.000000	0.000036	0.000012	0.000015	-4.837196	-76.053658	-2.591991
37807	9.565826	-0.163075	2.363178	0.008936	0.036008	0.042000	1.000000	0.000044	0.000015	0.000014	-4.831974	-76.051529	-2.592701
37808	9.551660	-0.148941	2.349614	0.020534	0.048670	0.024705	1.000000	0.000031	0.000029	0.000015	-4.838219	-76.049820	-2.585504
37809	9.584683	-0.148632	2.359733	0.018274	0.050051	0.059178	1.000000	0.000040	0.000003	0.000018	-4.841839	-76.054350	-2.586330
37810	9.578633	-0.135280	2.379588	-0.000583	0.066032	0.057803	1.000000	0.000027	0.000027	-0.000003	-4.840484	-76.053021	-2.587455
37811	9.570463	-0.134450	2.346398	0.028883	0.062627	0.041889	1.000000	0.000049	0.000010	0.000028	-4.844291	-76.057395	-2.581699
37812	9.565395	-0.163571	2.364889	0.006209	0.036522	0.042000	1.000000	0.000024	0.000019	0.000012	-4.850392	-76.056842	-2.575479
37813	9.578376	-0.135719	2.380597	-0.003263	0.066223	0.057801	1.000000	0.000027	0.000017	0.000019	-4.855898	-76.062928	-2.574166
37814	9.551168	-0.149568	2.351574	0.016416	0.049260	0.024710	1.000000	0.000031	0.000018	0.000001	-4.856075	-76.062698	-2.573299
37815	9.576100	-0.148195	2.328216	0.045053	0.047427	0.043274	1.000000	0.000032	0.000022	0.000011	-4.860077	-76.062556	-2.579036
37816	9.570040	-0.135050	2.348091	0.026198	0.063418	0.041891	1.000000	0.000011	0.000011	0.000021	-4.871996	-76.062862	-2.568438
37817	9.563994	-0.121902	2.367900	0.007903	0.079219	0.040508	1.000000	0.000044	0.000015	0.000014	-4.872927	-76.059540	-2.572181
37818	9.555818	-0.121087	2.334770	0.038070	0.076057	0.024600	1.000000	0.000021	0.000029	0.000008	-4.877502	-76.057946	-2.568018
37819	9.569788	-0.135424	2.349094	0.026065	0.064476	0.041885	1.000000	0.000040	0.000003	0.000018	-4.902675	-76.058422	-2.570272
37820	9.577799	-0.136433	2.382876	-0.004689	0.068034	0.057789	1.000000	0.000024	0.000019	0.000012	-4.908889	-76.057879	-2.564059
37821	9.542491	-0.149431	2.320449	0.045506	0.047186	0.008802	1.000000	0.000029	0.000032	0.000008	-4.900303	-76.055442	-2.569905
37822	9.575456	-0.149140	2.330803	0.043791	0.048728	0.043273	1.000000	0.000026	0.000024	0.000023	-4.911034	-76.054298	-2.558855
37823	9.556308	-0.163966	2.335381	0.032757	0.034611	0.026095	1.000000	0.000033	0.000015	0.000008	-4.902024	-76.055551	-2.564911
37824	9.569289	-0.135994	2.351091	0.024418	0.064428	0.041889	1.000000	0.000043	0.000022	0.000017	-4.908471	-76.054638	-2.556252
37825	9.556075	-0.164198	2.336315	0.031622	0.035062	0.026097	1.000000	0.000030	0.000036	0.000018	-4.917719	-76.055385	-2.559582
37826	9.571077	-0.123924	2.405333	-0.025709	0.084095	0.056394	1.000000	0.000026	0.000024	0.000023	-4.928438	-76.054258	-2.548563
37827	9.568918	-0.136696	2.352562	0.022096	0.064791	0.041892	1.000000	0.000039	0.000010	0.000022	-4.930103	-76.059848	-2.543639
37828	9.549764	-0.151551	2.357142	0.011297	0.051176	0.024707	1.000000	0.000031	0.000029	0.000015	-4.936383	-76.058213	-2.536561
37829	9.563677	-0.165868	2.371667	-0.001192	0.038850	0.041993	1.000000	0.000032	0.000022	0.000011	-4.939216	-76.058916	-2.541906
37830	9.562607	-0.123673	2.373403	0.002412	0.081118	0.040495	1.000000	0.000032	0.000022	0.000011	-4.944007	-76.058112	-2.536252
37831	9.543429	-0.138313	2.378083	-0.009463	0.066897	0.023312	1.000000	0.000038	0.000027	0.000003	-4.928500	-76.062850	-2.542715
37832	9.582413	-0.151345	2.368761	0.007319	0.052609	0.059179	1.000000	0.000011	0.000011	0.000020	-4.940422	-76.063198	-2.532217
37833	9.562310	-0.123957	2.374583	0.000506	0.080862	0.040498	1.000000	0.000032	0.000022	0.000011	-4.940131	-76.061922	-2.536753
37834	9.568205	-0.137387	2.355419	0.018728	0.065211	0.041896	1.000000	0.000044	0.000015	0.000014	-4.945052	-76.061896	-2.529585
37835	9.582169	-0.151652	2.369729	0.005064	0.052787	0.059180	1.000000	0.000025	0.000012	0.000008	-4.944045	-76.070454	-2.533434
37836	9.568059	-0.137547	2.356004	0.016699	0.065413	0.041899	1.000000	0.000035	0.000019	0.000018	-4.951837	-76.069933	-2.524389
37837	9.556943	-0.153235	2.394152	-0.024392	0.054961	0.040586	1.000000	0.000035	0.000019	0.000018	-4.953848	-76.068283	-2.527006
37838	9.542816	-0.139200	2.380492	-0.012752	0.067585	0.023304	1.000000	0.000035	0.000019	0.000018	-4.961633	-76.067757	-2.517979
37839	9.573751	-0.151452	2.337650	0.033902	0.049510	0.043308	1.000000	0.000043	0.000022	0.000017	-4.958575	-76.070196	-2.520049
37840	9.548608	-0.152793	2.361742	0.004571	0.051747	0.024710	1.000000	0.000033	0.000015	0.000008	-4.961787	-76.070281	-2.515907
37841	9.548551	-0.152742	2.361974	0.003834	0.051756	0.024710	1.000000	0.000034	0.000008	0.000004	-4.958765	-76.073646	-2.520655
37842	9.561565	-0.124808	2.377541	-0.004497	0.081585	0.040491	1.000000	0.000037	0.000017	0.000025	-4.969586	-76.073370	-2.508210
37843	9.562415	-0.167246	2.376653	-0.008572	0.039302	0.041987	1.000000	0.000032	0.000022	0.000011	-4.964940	-76.071489	-2.514305
37844	9.581395	-0.152672	2.372791	0.001613	0.053281	0.059178	1.000000	0.000036	0.000012	0.000015	-4.971187	-76.071807	-2.506747
37845	9.542236	-0.139876	2.382776	-0.014922	0.067302	0.023303	1.000000	0.000035	0.000019	0.000018	-4.963962	-76.066254	-2.508538
37846	9.573186	-0.152146	2.339918	0.032295	0.049571	0.043313	1.000000	0.000024	0.000019	0.000012	-4.969979	-76.065796	-2.502575
37847	9.586185	-0.124211	2.355542	0.023869	0.078881	0.059099	1.000000	0.000036	0.000012	0.000015	-4.963586	-76.066566	-2.507289
37848	9.567016	-0.138989	2.360152	0.013058	0.065273	0.041905	1.000000	0.000031	0.000029	0.000015	-4.969689	-76.064984	-2.500419
37849	9.572901	-0.152408	2.341066	0.030332	0.049245	0.043321	1.000000	0.000023	0.000015	0.000001	-4.961618	-76.070446	-2.509856
37850	9.553740	-0.167122	2.345639	0.019517	0.035636	0.026126	1.000000	0.000053	0.000022	0.000024	-4.969566	-76.069568	-2.498466
37851	9.552689	-0.125050	2.347330	0.023054	0.077232	0.024638	1.000000	0.000005	0.000023	0.000010	-4.960629	-76.069117	-2.505719
37852	9.566618	-0.139397	2.361740	0.010772	0.064982	0.041910	1.000000	0.000036	0.000012	0.000015	-4.966730	-76.069438	-2.498271
37853	9.566538	-0.139544	2.362055	0.010140	0.064830	0.041911	1.000000	0.000035	0.000019	0.000018	-4.965981	-76.070703	-2.498188
37854	9.599516	-0.139382	2.372336	0.008352	0.066369	0.076379	1.000000	0.000036	0.000024	0.000029	-4.978111	-76.069603	-2.484487
37855	9.572308	-0.153483	2.343420	0.028555	0.048991	0.043328	1.000000	0.000043	0.000022	0.000017	-4.976901	-76.065620	-2.492867
37856	9.566206	-0.140211	2.363361	0.009739	0.065033	0.041911	1.000000	0.000043	0.000022	0.000017	-4.983089	-76.064808	-2.484527
37857	9.566126	-0.140357	2.363675	0.009222	0.064577	0.041914	1.000000	0.000028	0.000010	0.000015	-4.974980	-76.066426	-2.487670
37858	9.574063	-0.141265	2.397562	-0.021571	0.068196	0.057765	1.000000	0.000032	0.000022	0.000011	-4.979443	-76.065690	-2.482336
37859	9.557914	-0.139796	2.330883	0.039381	0.061066	0.026063	1.000000	0.000023	0.000026	0.000015	-4.977034	-76.062550	-2.489301
37860	9.552712	-0.168841	2.349701	0.016586	0.035037	0.026134	1.000000	0.000042	0.000029	0.000021	-4.984645	-76.060908	-2.479609
37861	9.551679	-0.126679	2.351351	0.019244	0.077017	0.024648	1.000000	0.000033	0.000015	0.000008	-4.980130	-76.066907	-2.489926
37862	9.571580	-0.154382	2.346332	0.025438	0.048899	0.043337	1.000000	0.000023	0.000026	0.000015	-4.987425	-76.065656	-2.482752
37863	9.546417	-0.155784	2.370389	-0.004439	0.051068	0.024713	1.000000	0.000028	0.000010	0.000015	-4.991759	-76.069589	-2.486046
37864	9.573424	-0.142005	2.400068	-0.024734	0.068483	0.057756	1.000000	0.000022	0.000022	0.000005	-4.994510	-76.068951	-2.483747
37865	9.557315	-0.140581	2.333294	0.034613	0.061279	0.026080	1.000000	0.000037	0.000017	0.000025	-4.992703	-76.076143	-2.480452
37866	9.584306	-0.126838	2.363040	0.014307	0.078692	0.059119	1.000000	0.000011	0.000022	-0.000001	-4.993740	-76.075605	-2.481157
37867	9.565126	-0.141529	2.367648	0.003658	0.064951	0.041915	1.000000	0.000035	0.000019	0.000018	-4.998046	-76.074147	-2.484576
37868	9.584112	-0.127003	2.363817	0.013841	0.078899	0.059118	1.000000	0.000014	0.000019	0.000006	-5.002145	-76.073832	-2.481842
37869	9.558938	-0.128333	2.387892	-0.016429	0.081170	0.040481	1.000000	0.000035	0.000019	0.000018	-5.008269	-76.078974	-2.476763
37870	9.551773	-0.169960	2.353432	0.009708	0.035800	0.026140	1.000000	0.000036	0.000012	0.000015	-5.014254	-76.079362	-2.469490
37871	9.569827	-0.113098	2.350875	0.024454	0.090968	0.041861	1.000000	0.000037	0.000034	0.000007	-4.995655	-76.073851	-2.473658
37872	9.572631	-0.142801	2.403183	-0.028860	0.068426	0.057745	1.000000	0.000038	0.000010	0.000022	-5.004637	-76.074453	-2.462967
37873	9.556553	-0.141528	2.336354	0.031806	0.061532	0.026087	1.000000	0.000026	0.000024	0.000023	-5.012131	-76.073403	-2.462550
37874	9.545401	-0.157041	2.374391	-0.009509	0.051411	0.024708	1.000000	0.000046	0.000001	0.000007	-5.013703	-76.075134	-2.458615
37875	9.570417	-0.155886	2.350970	0.018841	0.049227	0.043350	1.000000	0.000023	0.000026	0.000015	-5.014858	-76.075692	-2.461180
37876	9.583406	-0.127971	2.366624	0.010542	0.079060	0.059121	1.000000	0.000036	0.000012	0.000015	-5.020780	-76.076073	-2.453975
37877	9.550244	-0.128491	2.357075	0.011597	0.077464	0.024656	1.000000	0.000032	0.000022	0.000011	-5.015241	-76.076056	-2.460789
37878	9.564140	-0.142648	2.371561	-0.000740	0.065230	0.041914	1.000000	0.000031	0.000018	0.000000	-5.015021	-76.075987	-2.460519
37879	9.550037	-0.128266	2.357924	0.010782	0.077642	0.024656	1.000000	0.000035	0.000030	-0.000004	-5.007770	-76.075570	-2.475240
37880	9.569934	-0.155895	2.352936	0.016912	0.049514	0.043352	1.000000	0.000038	0.000010	0.000022	-5.016730	-76.076183	-2.464621
37881	9.582979	-0.128077	2.368348	0.009256	0.078898	0.059123	1.000000	0.000012	0.000004	0.000017	-5.016536	-76.073690	-2.470222
37882	9.569834	-0.156184	2.353325	0.016892	0.049403	0.043352	1.000000	0.000039	0.000020	-0.000000	-5.014917	-76.073313	-2.470470
37883	9.563734	-0.142741	2.373193	-0.001315	0.064850	0.041916	1.000000	0.000035	0.000019	0.000018	-5.007778	-76.069254	-2.470788
37884	9.555654	-0.142175	2.339991	0.028853	0.061517	0.026097	1.000000	0.000035	0.000019	0.000018	-5.015102	-76.068786	-2.462275
37885	9.563546	-0.143132	2.373928	-0.002357	0.064955	0.041916	1.000000	0.000027	0.000017	0.000019	-5.017758	-76.070909	-2.461917
37886	9.549465	-0.129088	2.360196	0.009344	0.077521	0.024658	1.000000	0.000032	0.000022	0.000011	-5.022016	-76.070223	-2.456877
37887	9.555385	-0.142770	2.341050	0.027036	0.061676	0.026101	1.000000	0.000021	0.000011	0.000027	-5.032138	-76.073233	-2.451884
37888	9.569268	-0.157233	2.355556	0.014684	0.049449	0.043356	1.000000	0.000031	0.000029	0.000015	-5.037886	-76.071729	-2.445459
37889	9.580265	-0.141844	2.318241	0.054961	0.059429	0.044761	1.000000	0.000039	0.000020	-0.000000	-5.025415	-76.073596	-2.458942
37890	9.555089	-0.143129	2.342235	0.025664	0.061747	0.026104	1.000000	0.000021	0.000011	0.000027	-5.038526	-76.073975	-2.446078
37891	9.555017	-0.143452	2.342511	0.025760	0.061490	0.026105	1.000000	0.000027	0.000017	0.000019	-5.037415	-76.071274	-2.448956
37892	9.588000	-0.143231	2.352770	0.023915	0.063021	0.060571	1.000000	0.000035	0.000019	0.000018	-5.044690	-76.070822	-2.440528
37893	9.527760	-0.157670	2.313897	0.044460	0.044389	-0.006911	1.000000	0.000032	0.000022	0.000011	-5.044690	-76.073848	-2.445712
37894	9.568703	-0.158059	2.357793	0.012114	0.049448	0.043359	1.000000	0.000024	0.000019	0.000012	-5.050281	-76.073480	-2.440279
37895	9.562640	-0.144703	2.377478	-0.006159	0.065199	0.041912	1.000000	0.000029	0.000003	0.000012	-5.048407	-76.071992	-2.447698
37896	9.554592	-0.144085	2.344204	0.024010	0.061831	0.026108	1.000000	0.000031	0.000029	0.000015	-5.054092	-76.070488	-2.441366
37897	9.548472	-0.130845	2.364112	0.005177	0.077644	0.024660	1.000000	0.000037	0.000017	0.000025	-5.057708	-76.070556	-2.438893
37898	9.562388	-0.145015	2.378471	-0.007191	0.065425	0.041910	1.000000	0.000041	0.000006	-0.000007	-5.053008	-76.071841	-2.442111
37899	9.548313	-0.130765	2.364757	0.003779	0.077954	0.024659	1.000000	0.000030	0.000036	0.000018	-5.058915	-76.073950	-2.442834
37900	9.582137	-0.172633	2.374077	-0.002202	0.037430	0.060609	1.000000	0.000031	0.000018	0.000000	-5.058569	-76.073892	-2.442793
37901	9.553227	-0.102088	2.347268	0.026030	0.104253	0.024624	1.000000	0.000037	0.000017	0.000025	-5.065429	-76.071840	-2.447863
37902	9.567994	-0.158805	2.360618	0.009515	0.049984	0.043359	1.000000	0.000027	0.000017	0.000019	-5.074068	-76.071695	-2.439051
37903	9.520854	-0.145172	2.336972	0.022929	0.060706	-0.008353	1.000000	0.000040	0.000025	0.000010	-5.066142	-76.069758	-2.447883
37904	9.561826	-0.145556	2.380699	-0.009425	0.065802	0.041906	1.000000	0.000013	-0.000003	0.000013	-5.074547	-76.071861	-2.440934
37905	9.553828	-0.145095	2.347253	0.020417	0.061987	0.026115	1.000000	0.000037	0.000017	0.000025	-5.074415	-76.073455	-2.439231
37906	9.559758	-0.158750	2.328117	0.038526	0.046211	0.027571	1.000000	0.000044	0.000015	0.000014	-5.078770	-76.073546	-2.432823
37907	9.547653	-0.131887	2.367359	0.000883	0.077920	0.024660	1.000000	0.000024	0.000019	0.000012	-5.075740	-76.075741	-2.440319
37908	9.567539	-0.159717	2.362400	0.006924	0.049770	0.043363	1.000000	0.000027	0.000017	0.000019	-5.084317	-76.075607	-2.431580
37909	9.561432	-0.146387	2.382229	-0.011804	0.065336	0.041906	1.000000	0.000032	0.000022	0.000011	-5.075409	-76.074613	-2.436971
37910	9.600413	-0.159587	2.373085	0.004755	0.050925	0.077829	1.000000	0.000027	0.000017	0.000019	-5.083954	-76.074477	-2.428259
37911	9.586372	-0.145670	2.359243	0.016141	0.063054	0.060587	1.000000	0.000019	0.000014	0.000020	-5.083763	-76.076585	-2.427983
37912	9.541177	-0.119343	2.388627	-0.019499	0.093738	0.023199	1.000000	0.000031	0.000029	0.000015	-5.089326	-76.075106	-2.421837
37913	9.578200	-0.145158	2.326551	0.045308	0.059611	0.044809	1.000000	0.000039	0.000020	-0.000000	-5.082319	-76.078674	-2.432019
37914	9.541844	-0.161686	2.388336	-0.024996	0.051826	0.024679	1.000000	0.000021	0.000011	0.000027	-5.095282	-76.079079	-2.419413
37915	9.558928	-0.160049	2.331434	0.033518	0.045877	0.027591	1.000000	0.000030	0.000025	0.000004	-5.088069	-76.081680	-2.428605
37916	9.571950	-0.131915	2.346954	0.025283	0.075724	0.043349	1.000000	0.000026	0.000005	0.000005	-5.090550	-76.083007	-2.426209
37917	9.547649	-0.175295	2.369720	-0.006501	0.036004	0.026142	1.000000	0.000025	0.000012	0.000008	-5.095100	-76.073810	-2.443845
37918	9.565820	-0.118603	2.366859	0.007898	0.091949	0.041879	1.000000	0.000037	0.000017	0.000025	-5.105303	-76.073599	-2.432240
37919	9.558639	-0.160303	2.332602	0.033181	0.046145	0.027591	1.000000	0.000030	0.000025	0.000004	-5.098085	-76.076678	-2.439932
37920	9.571643	-0.132424	2.348176	0.024967	0.075997	0.043348	1.000000	0.000032	0.000012	0.000033	-5.112718	-76.077002	-2.424411
37921	9.566446	-0.161517	2.366701	0.002507	0.049671	0.043365	1.000000	0.000040	0.000003	0.000018	-5.110789	-76.075551	-2.430196
37922	9.571553	-0.132909	2.348518	0.024800	0.075915	0.043349	1.000000	0.000016	0.000017	0.000013	-5.117589	-76.075489	-2.424596
37923	9.565478	-0.119453	2.368197	0.006442	0.091453	0.041885	1.000000	0.000034	0.000008	0.000004	-5.104808	-76.074126	-2.434943
37924	9.577445	-0.146521	2.329572	0.042935	0.059674	0.044819	1.000000	0.000027	0.000017	0.000019	-5.113258	-76.073983	-2.426393
37925	9.552224	-0.147766	2.353606	0.012812	0.061530	0.026131	1.000000	0.000032	0.000022	0.000011	-5.103165	-76.078152	-2.432185
37926	9.552107	-0.147888	2.354075	0.012483	0.061687	0.026130	1.000000	0.000023	0.000026	0.000015	-5.109996	-76.076972	-2.425728
37927	9.571118	-0.133604	2.350249	0.023012	0.075101	0.043359	1.000000	0.000040	0.000014	0.000032	-5.112200	-76.074987	-2.422145
37928	9.551920	-0.148280	2.354809	0.012152	0.061533	0.026131	1.000000	0.000028	0.000020	-0.000007	-5.108544	-76.074712	-2.425896
37929	9.565795	-0.162403	2.369271	-0.000501	0.048972	0.043369	1.000000	0.000028	0.000010	0.000015	-5.106419	-76.076656	-2.431195
37930	9.564862	-0.120373	2.370637	0.003400	0.091176	0.041889	1.000000	0.000026	0.000024	0.000022	-5.116271	-76.075697	-2.421331
37931	9.546484	-0.177506	2.374245	-0.011916	0.035196	0.026140	1.000000	0.000045	0.000019	0.000024	-5.115809	-76.076419	-2.422827
37932	9.565501	-0.163136	2.370407	-0.001713	0.049071	0.043368	1.000000	0.000035	0.000019	0.000018	-5.122787	-76.075995	-2.414860
37933	9.570579	-0.134527	2.352390	0.019869	0.074521	0.043370	1.000000	0.000024	0.000019	0.000012	-5.108562	-76.079637	-2.421979
37934	9.551383	-0.149224	2.356925	0.009007	0.060954	0.026138	1.000000	0.000036	0.000012	0.000015	-5.114012	-76.080055	-2.415435
37935	9.565261	-0.163653	2.371337	-0.004021	0.048419	0.043371	1.000000	0.000021	0.000011	0.000027	-5.117985	-76.083817	-2.413835
37936	9.551210	-0.149632	2.357603	0.007755	0.060921	0.026140	1.000000	0.000026	0.000034	0.000001	-5.117174	-76.081917	-2.414913
37937	9.545083	-0.136212	2.377456	-0.010279	0.076662	0.024664	1.000000	0.000049	0.000010	0.000028	-5.118527	-76.078377	-2.415643
37938	9.556203	-0.121160	2.339947	0.030432	0.086891	0.026143	1.000000	0.000032	0.000022	0.000011	-5.122354	-76.077740	-2.411217
37939	9.575230	-0.106727	2.336099	0.040065	0.100503	0.043381	1.000000	0.000027	0.000017	0.000019	-5.124013	-76.080944	-2.414283
37940	9.564787	-0.164395	2.373200	-0.005570	0.048538	0.043370	1.000000	0.000036	0.000012	0.000015	-5.129421	-76.081369	-2.407810
37941	9.569893	-0.135795	2.355106	0.017068	0.074119	0.043379	1.000000	0.000035	0.000019	0.000018	-5.121468	-76.078969	-2.415870
37942	9.564614	-0.164748	2.373871	-0.005919	0.048214	0.043371	1.000000	0.000027	0.000017	0.000019	-5.129693	-76.078856	-2.407557
37943	9.569736	-0.136204	2.355720	0.016369	0.074008	0.043381	1.000000	0.000028	0.000010	0.000015	-5.126540	-76.079719	-2.415949
37944	9.558464	-0.151494	2.393793	-0.025009	0.064101	0.041890	1.000000	0.000033	0.000015	0.000008	-5.128825	-76.079914	-2.412992
37945	9.563594	-0.122826	2.375624	-0.002795	0.089811	0.041902	1.000000	0.000028	0.000010	0.000015	-5.123611	-76.081203	-2.419585
37946	9.550454	-0.151089	2.360568	0.004720	0.060255	0.026146	1.000000	0.000040	0.000003	0.000018	-5.130529	-76.082675	-2.411122
37947	9.556405	-0.164852	2.341421	0.022795	0.043883	0.027631	1.000000	0.000026	0.000024	0.000022	-5.127587	-76.081480	-2.417750
37948	9.564225	-0.165659	2.375376	-0.008048	0.047691	0.043372	1.000000	0.000025	0.000012	0.000008	-5.131195	-76.081972	-2.414366
37949	9.536290	-0.137408	2.347298	0.015833	0.072065	0.008925	1.000000	0.000024	0.000019	0.000012	-5.125396	-76.081800	-2.419363
37950	9.536208	-0.137422	2.347631	0.015503	0.072210	0.008925	1.000000	0.000023	0.000015	0.000001	-5.125913	-76.082069	-2.419466
37951	9.580395	-0.121802	2.320128	0.055336	0.083344	0.044888	1.000000	0.000032	0.000022	0.000011	-5.120434	-76.077254	-2.429156
37952	9.530839	-0.166288	2.366729	-0.007129	0.046054	0.008910	1.000000	0.000038	0.000010	0.000022	-5.128755	-76.077884	-2.419383
37953	9.561068	-0.136620	2.325164	0.043420	0.069601	0.027655	1.000000	0.000025	0.000041	0.000004	-5.120593	-76.079233	-2.427513
37954	9.582772	-0.151465	2.373463	0.000437	0.061085	0.060612	1.000000	0.000028	0.000010	0.000015	-5.127210	-76.079948	-2.420743
37955	9.587881	-0.122920	2.355413	0.022953	0.086668	0.060636	1.000000	0.000042	0.000029	0.000021	-5.119841	-76.077290	-2.425539
37956	9.560713	-0.137038	2.326599	0.042593	0.069434	0.027660	1.000000	0.000031	0.000029	0.000015	-5.124926	-76.075826	-2.419964
37957	9.582407	-0.151911	2.374906	-0.000438	0.060377	0.060617	1.000000	0.000032	0.000022	0.000011	-5.115332	-76.075295	-2.425163
37958	9.568374	-0.137972	2.361147	0.011372	0.072852	0.043396	1.000000	0.000036	0.000024	0.000029	-5.126517	-76.074277	-2.412696
37959	9.531875	-0.154474	2.423003	-0.058264	0.064795	0.023158	1.000000	0.000027	0.000017	0.000019	-5.123139	-76.070197	-2.417975
37960	9.568197	-0.138336	2.361843	0.011374	0.072633	0.043398	1.000000	0.000061	0.000013	0.000009	-5.122679	-76.070541	-2.414596
37961	9.535067	-0.138888	2.352173	0.012253	0.071055	0.008938	1.000000	0.000010	0.000018	0.000024	-5.125940	-76.072405	-2.414463
37962	9.542858	-0.139730	2.386171	-0.018590	0.074881	0.024666	1.000000	0.000032	0.000022	0.000011	-5.129476	-76.071764	-2.410355
37963	9.573958	-0.152355	2.343492	0.027754	0.056227	0.044894	1.000000	0.000036	0.000012	0.000015	-5.123009	-76.075550	-2.414834
37964	9.587006	-0.124318	2.358901	0.019599	0.086075	0.060648	1.000000	0.000025	0.000012	0.000008	-5.126427	-76.076044	-2.411659
37965	9.575696	-0.139552	2.396985	-0.022228	0.075638	0.059128	1.000000	0.000036	0.000012	0.000015	-5.117233	-76.078850	-2.418126
37966	9.598935	-0.151579	2.320610	0.055223	0.053737	0.063640	1.000000	0.000025	0.000012	0.000008	-5.120618	-76.079350	-2.414979
37967	9.567693	-0.139091	2.363838	0.006705	0.071824	0.043408	1.000000	0.000017	0.000010	0.000009	-5.114807	-76.085426	-2.425894
37968	9.573641	-0.152760	2.344761	0.024728	0.055938	0.044903	1.000000	0.000043	0.000022	0.000017	-5.119956	-76.084745	-2.418884
37969	9.547566	-0.111638	2.369757	-0.000363	0.099968	0.024703	1.000000	0.000005	0.000023	0.000010	-5.114150	-76.085019	-2.427929
37970	9.568191	-0.181732	2.364099	0.001150	0.029716	0.044867	1.000000	0.000032	0.000022	0.000011	-5.117583	-76.084414	-2.423927
37971	9.534228	-0.140024	2.355508	0.006929	0.069951	0.008951	1.000000	0.000034	0.000026	0.000022	-5.111733	-76.082204	-2.428492
37972	9.555900	-0.154948	2.403788	-0.036092	0.061464	0.041872	1.000000	0.000024	0.000019	0.000012	-5.116511	-76.081892	-2.424039
37973	9.568639	-0.224340	2.364550	-0.004512	-0.013314	0.046323	1.000000	0.000038	0.000027	0.000003	-5.095160	-76.083131	-2.434635
37974	9.488784	-0.112775	2.385668	-0.029613	0.100227	-0.028505	1.000000	0.000156	0.000023	-0.000029	-5.065933	-76.082841	-2.449674
37975	9.572617	0.085867	2.458268	-0.054670	0.304152	0.066076	1.000000	0.000147	-0.000002	-0.000020	-5.030133	-76.088340	-2.475047
37976	9.576543	-0.037922	2.331184	0.052397	0.164712	0.042066	1.000000	0.000108	0.000009	0.000048	-5.042348	-76.088902	-2.453031
37977	9.532737	-0.281185	2.426301	-0.080857	-0.063199	0.027462	1.000000	0.000029	0.000015	0.000062	-5.063257	-76.089096	-2.435724
37978	9.600519	-0.006233	2.131501	0.254238	0.171148	0.016828	1.000000	0.000126	0.000010	0.000017	-5.059171	-76.089758	-2.428338
37979	9.506866	-0.142355	2.506181	-0.145908	0.084780	0.018550	1.000000	0.000093	0.000024	0.000006	-5.040856	-76.087131	-2.444109
37980	9.580418	-0.065856	2.260122	0.118505	0.128644	0.029380	1.000000	0.000001	0.000024	0.000064	-5.072271	-76.085817	-2.414987
37981	9.508126	-0.228706	2.505472	-0.156424	0.000472	0.021422	1.000000	-0.000037	0.000036	0.000071	-5.097143	-76.089212	-2.393615
37982	9.594777	-0.211989	2.397305	-0.029043	0.003483	0.079274	1.000000	-0.000022	0.000019	0.000041	-5.120602	-76.088662	-2.375338
37983	9.625145	-0.095670	2.232890	0.152257	0.097410	0.066872	1.000000	0.000022	0.000022	0.000005	-5.114468	-76.083446	-2.392151
37984	9.493884	-0.216666	2.492361	-0.144478	0.012875	0.004216	1.000000	-0.000055	0.000004	0.000034	-5.138882	-76.084668	-2.376828
37985	9.561323	-0.224620	2.210368	0.141909	-0.031389	0.002299	1.000000	-0.000058	-0.000015	0.000034	-5.160504	-76.086686	-2.378695
37986	9.619002	-0.258278	2.497590	-0.125374	-0.027340	0.127806	1.000000	0.000003	-0.000003	0.000007	-5.166322	-76.088930	-2.375754
37987	9.506871	-0.112975	2.207023	0.145961	0.079210	-0.053756	1.000000	0.000000	-0.000001	-0.000036	-5.135792	-76.088766	-2.411754
37988	9.438113	-0.258407	2.380205	-0.056377	-0.042051	-0.075892	1.000000	0.000029	-0.000009	-0.000002	-5.134490	-76.091774	-2.413056
37989	9.601562	-0.182355	2.254446	0.112344	0.014938	0.051031	1.000000	0.000005	-0.000005	0.000014	-5.128271	-76.099104	-2.414451
37990	9.607902	-0.098105	2.289772	0.090293	0.102861	0.063837	1.000000	0.000046	0.000000	-0.000029	-5.112097	-76.101401	-2.429015
37991	9.552328	-0.127864	2.355364	0.010383	0.081601	0.026230	1.000000	0.000059	-0.000014	-0.000030	-5.091400	-76.099906	-2.458590
37992	9.605016	-0.165058	2.182959	0.183841	0.021257	0.036913	1.000000	0.000044	0.000025	-0.000008	-5.084186	-76.099093	-2.464166
37993	9.604394	-0.112288	2.361668	0.018188	0.096328	0.077958	1.000000	0.000037	0.000017	0.000025	-5.079935	-76.101274	-2.465048
37994	9.669332	-0.079798	2.205671	0.188289	0.107720	0.102971	1.000000	0.000052	0.000039	0.000005	-5.077332	-76.098739	-2.464891
37995	9.623936	-0.140002	2.358112	0.023469	0.067732	0.096667	1.000000	0.000047	0.000063	0.000009	-5.064472	-76.094341	-2.476678
37996	9.568878	-0.125895	2.301338	0.067514	0.075046	0.029327	1.000000	0.000046	0.000052	0.000031	-5.073785	-76.090064	-2.464977
37997	9.597405	-0.099482	2.384863	-0.001537	0.112005	0.076453	1.000000	0.000020	0.000070	0.000054	-5.086577	-76.082866	-2.456521
37998	9.586525	-0.157660	2.423176	-0.047397	0.060204	0.076308	1.000000	0.000019	0.000065	0.000044	-5.104396	-76.076986	-2.439272
37999	9.549558	-0.184674	2.308457	0.051055	0.018784	0.013511	1.000000	0.000040	0.000065	0.000020	-5.095641	-76.074570	-2.443416
38000	9.496461	-0.147111	2.481976	-0.123047	0.079453	0.002768	1.000000	0.000022	0.000044	0.000033	-5.109014	-76.071184	-2.430354
38001	9.543056	-0.171919	2.329650	0.032366	0.034676	0.012001	1.000000	0.000023	0.000038	0.000029	-5.111318	-76.066718	-2.432586
38002	9.508932	-0.217274	2.443794	-0.091226	0.005139	0.007230	1.000000	0.000060	0.000020	0.000012	-5.111822	-76.066291	-2.428380
38003	9.525460	-0.173344	2.387784	-0.027733	0.040597	0.008897	1.000000	0.000037	0.000016	-0.000011	-5.092098	-76.066616	-2.451255
38004	9.525382	-0.172931	2.388126	-0.028072	0.040717	0.008896	1.000000	0.000045	0.000018	-0.000012	-5.083285	-76.066644	-2.458354
38005	9.566205	-0.172628	2.431976	-0.061104	0.045590	0.059028	1.000000	0.000042	-0.000001	-0.000011	-5.066230	-76.071665	-2.476989
38006	9.588861	-0.142016	2.356300	0.020729	0.065452	0.062223	1.000000	0.000037	0.000005	-0.000025	-5.052763	-76.073429	-2.489866
38007	9.579280	-0.143263	2.447316	-0.070084	0.075196	0.074775	1.000000	0.000033	0.000014	-0.000029	-5.028218	-76.077215	-2.516292
38008	9.579417	-0.055730	2.324762	0.058983	0.145580	0.043690	1.000000	0.000019	0.000013	-0.000016	-5.020420	-76.077919	-2.525476
38009	9.578386	-0.100309	2.448688	-0.065738	0.116872	0.073345	1.000000	0.000016	0.000017	0.000013	-5.012386	-76.074597	-2.537451
38010	9.599156	-0.083523	2.320446	0.064941	0.116834	0.062402	1.000000	-0.000007	0.000030	0.000007	-5.017641	-76.073087	-2.536221
38011	9.594753	-0.056931	2.393291	-0.001940	0.152340	0.075040	1.000000	0.000013	0.000026	0.000009	-5.008728	-76.068428	-2.546789
38012	9.536373	-0.058571	2.407379	-0.029466	0.153545	0.021786	1.000000	0.000008	0.000032	0.000031	-5.023249	-76.066456	-2.534303
38013	9.548300	-0.086467	2.369362	0.007879	0.120843	0.024829	1.000000	0.000009	0.000037	0.000042	-5.027836	-76.057415	-2.528672
38014	9.564544	-0.130491	2.436348	-0.058004	0.086521	0.057595	1.000000	0.000014	0.000020	0.000042	-5.046972	-76.056698	-2.510693
38015	9.534955	-0.116116	2.355130	0.014434	0.090861	0.009075	1.000000	0.000036	0.000013	0.000051	-5.055889	-76.059599	-2.500683
38016	9.526059	-0.161048	2.445346	-0.080319	0.058993	0.023039	1.000000	0.000037	0.000006	0.000047	-5.075446	-76.060402	-2.479533
38017	9.549461	-0.173916	2.368935	-0.003129	0.036200	0.027688	1.000000	0.000054	0.000005	0.000042	-5.076812	-76.062253	-2.474184
38018	9.538111	-0.189279	2.406763	-0.044561	0.026472	0.026074	1.000000	0.000063	-0.000011	0.000024	-5.083284	-76.065265	-2.463471
38019	9.588585	-0.187545	2.359419	0.012508	0.021141	0.063668	1.000000	0.000069	-0.000013	0.000012	-5.070542	-76.070225	-2.468870
38020	9.586144	-0.158381	2.306980	0.065500	0.043378	0.048105	1.000000	0.000053	-0.000018	0.000014	-5.073831	-76.074142	-2.462543
38021	9.536506	-0.202367	2.353138	0.002881	0.005878	0.011931	1.000000	0.000058	-0.000006	0.000009	-5.062019	-76.076971	-2.474124
38022	9.592257	-0.171807	2.287375	0.083051	0.026991	0.049633	1.000000	0.000045	-0.000003	-0.000004	-5.057540	-76.079392	-2.476828
38023	9.587975	-0.144762	2.359735	0.014894	0.062621	0.062252	1.000000	0.000032	0.000011	-0.000003	-5.042028	-76.084121	-2.486424
38024	9.558417	-0.129626	2.278444	0.087873	0.067404	0.013766	1.000000	0.000006	0.000017	0.000006	-5.045833	-76.084193	-2.485169
38025	9.580019	-0.144231	2.326679	0.044369	0.058619	0.046603	1.000000	0.000023	0.000015	0.000001	-5.035230	-76.086649	-2.500793
38026	9.540841	-0.131019	2.336382	0.027427	0.073478	0.010619	1.000000	-0.000007	0.000030	0.000007	-5.040260	-76.085141	-2.499782
38027	9.579753	-0.144291	2.327770	0.043419	0.058578	0.046607	1.000000	-0.000004	0.000038	-0.000008	-5.031565	-76.084423	-2.519019
38028	9.554382	-0.145236	2.351969	0.014230	0.061157	0.027797	1.000000	-0.000004	0.000028	0.000014	-5.039657	-76.083143	-2.514570
38029	9.593336	-0.158781	2.343174	0.030902	0.045935	0.063785	1.000000	0.000007	0.000021	0.000017	-5.034714	-76.080018	-2.522239
38030	9.555936	-0.132612	2.405721	-0.034853	0.080731	0.041919	1.000000	0.000008	0.000014	0.000013	-5.041533	-76.080316	-2.517599
38031	9.554054	-0.146024	2.353254	0.014301	0.060464	0.027801	1.000000	0.000040	0.000036	0.000024	-5.038894	-76.074011	-2.524194
38032	9.542589	-0.161187	2.391508	-0.027141	0.050772	0.026163	1.000000	0.000029	0.000003	0.000012	-5.043073	-76.075590	-2.519841
38033	9.559997	-0.160103	2.334330	0.031586	0.043936	0.029332	1.000000	0.000044	-0.000002	0.000032	-5.039597	-76.079222	-2.518871
38034	9.585212	-0.159483	2.310774	0.060089	0.041549	0.048148	1.000000	0.000067	0.000001	0.000019	-5.042910	-76.080902	-2.510915
38035	9.553923	-0.146617	2.353748	0.013245	0.059808	0.027806	1.000000	0.000062	0.000006	0.000005	-5.029979	-76.078415	-2.518630
38036	9.577364	-0.158934	2.277335	0.090567	0.037471	0.032505	1.000000	0.000077	0.000001	0.000026	-5.034965	-76.080014	-2.507717
38037	9.606039	-0.131674	2.359908	0.021584	0.074535	0.079555	1.000000	0.000057	0.000023	0.000005	-5.021492	-76.078392	-2.516937
38038	9.571152	-0.145249	2.297344	0.071760	0.053342	0.030982	1.000000	0.000043	0.000022	0.000017	-5.025778	-76.077717	-2.510851
38039	9.590202	-0.130824	2.293612	0.081796	0.066657	0.048277	1.000000	0.000029	0.000031	0.000007	-5.016935	-76.077102	-2.523364
38040	9.578641	-0.145742	2.332253	0.040351	0.056975	0.046629	1.000000	0.000051	0.000046	0.000009	-5.015247	-76.073737	-2.522420
38041	9.566342	-0.118530	2.371674	0.003349	0.088841	0.043574	1.000000	0.000002	0.000037	0.000017	-5.011693	-76.071914	-2.531083
38042	9.573900	-0.119059	2.406241	-0.027529	0.092787	0.059210	1.000000	0.000018	0.000060	-0.000003	-5.007839	-76.067107	-2.536344
38043	9.540615	-0.119661	2.397202	-0.025534	0.091375	0.024753	1.000000	0.000003	0.000049	0.000031	-5.018172	-76.059683	-2.543902
38044	9.548187	-0.120364	2.431668	-0.056408	0.095334	0.040388	1.000000	0.000006	0.000038	-0.000002	-5.017201	-76.057336	-2.547536
38045	9.546287	-0.133647	2.379413	-0.008256	0.074923	0.026285	1.000000	0.000011	0.000033	0.000013	-5.009342	-76.057125	-2.554736
38046	9.540086	-0.120128	2.399284	-0.026854	0.091153	0.024752	1.000000	0.000013	0.000026	0.000009	-5.013010	-76.056056	-2.552859
38047	9.539968	-0.120212	2.399747	-0.027634	0.090772	0.024753	1.000000	0.000032	0.000022	0.000011	-5.003377	-76.057940	-2.563455
38048	9.500845	-0.107049	2.409147	-0.044519	0.105665	-0.011241	1.000000	0.000013	-0.000003	0.000013	-5.010128	-76.060104	-2.558354
38049	9.539948	-0.120438	2.399815	-0.028427	0.090469	0.024753	1.000000	0.000042	-0.000011	0.000011	-5.000572	-76.063865	-2.569176
38050	9.590459	-0.118883	2.352590	0.028895	0.085509	0.062411	1.000000	0.000051	-0.000004	0.000021	-5.006470	-76.066130	-2.560471
38052	9.565146	-0.119810	2.376428	-0.001332	0.175293	9.899857	1.000000	0.000095	0.000033	0.000027	-4.996285	-76.066332	-2.564292
38053	9.571095	-0.133634	2.357557	0.017250	0.071603	0.045120	1.000000	0.000038	0.000010	0.000022	-5.003398	-76.067015	-2.555834
38054	9.584852	-0.147949	2.372190	0.004989	0.059163	0.062283	1.000000	0.000035	0.000019	0.000018	-5.002843	-76.064505	-2.567773
38055	9.564847	-0.120318	2.377607	-0.001305	0.087667	0.043585	1.000000	0.000031	0.000029	0.000015	-5.006743	-76.063079	-2.563500
38056	9.570763	-0.134131	2.358876	0.016448	0.071100	0.045125	1.000000	0.000031	0.000029	0.000015	-4.997964	-76.062410	-2.567738
38057	9.576692	-0.148036	2.340096	0.034357	0.055047	0.046663	1.000000	0.000026	0.000024	0.000022	-5.006280	-76.061504	-2.559554
38058	9.539886	-0.164171	2.402064	-0.036452	0.047444	0.026149	1.000000	0.000007	0.000032	0.000031	-5.006953	-76.062441	-2.558201
38059	9.531993	-0.164181	2.368899	-0.006247	0.043654	0.010530	1.000000	0.000037	0.000017	0.000025	-5.015469	-76.062299	-2.548442
38060	9.545736	-0.178580	2.383555	-0.019419	0.030901	0.027687	1.000000	0.000019	0.000014	0.000020	-5.008988	-76.065450	-2.550726
38061	9.558794	-0.150731	2.398868	-0.027434	0.060741	0.043447	1.000000	0.000029	0.000014	0.000026	-5.018850	-76.065610	-2.540512
38062	9.559429	-0.193201	2.398385	-0.032733	0.018541	0.044840	1.000000	0.000037	0.000005	0.000011	-5.014039	-76.068735	-2.550548
38063	9.583962	-0.150174	2.375644	0.000378	0.058086	0.062291	1.000000	0.000037	0.000005	0.000011	-5.016518	-76.070040	-2.547054
38064	9.589997	-0.163930	2.356449	0.017285	0.041457	0.063838	1.000000	0.000029	0.000003	0.000012	-5.005578	-76.077225	-2.551972
38065	9.570135	-0.136186	2.361305	0.011007	0.069960	0.045141	1.000000	0.000042	-0.000011	0.000011	-5.008166	-76.080425	-2.547799
38066	9.574540	-0.163067	2.288887	0.077047	0.033369	0.032635	1.000000	0.000048	-0.000013	-0.000000	-4.992375	-76.087562	-2.555999
38068	9.578931	-0.135462	2.332510	0.078693	0.132853	9.906229	1.000000	0.000046	0.000012	0.000021	-4.997965	-76.087992	-2.548186
38069	9.581540	-0.121323	2.323514	0.050231	0.079025	0.046855	1.000000	0.000024	0.000019	0.000012	-4.991414	-76.088880	-2.557923
38070	9.568305	-0.149586	2.308895	0.057552	0.049363	0.031096	1.000000	0.000032	0.000022	0.000011	-4.993679	-76.088331	-2.555205
38071	9.542910	-0.150430	2.333013	0.028272	0.051695	0.012242	1.000000	0.000027	0.000038	0.000011	-4.988016	-76.086597	-2.569486
38072	9.594965	-0.135813	2.339469	0.036749	0.066701	0.064009	1.000000	0.000036	0.000024	0.000029	-4.997881	-76.085668	-2.558486
38073	9.556427	-0.165050	2.348561	0.014382	0.039292	0.029392	1.000000	0.000030	0.000036	0.000018	-4.994363	-76.088479	-2.563268
38074	9.575434	-0.150783	2.345063	0.024603	0.052964	0.046704	1.000000	0.000018	0.000043	0.000015	-4.999299	-76.085529	-2.559451
38075	9.569211	-0.137217	2.364989	0.005431	0.068681	0.045155	1.000000	0.000051	0.000025	0.000017	-4.988273	-76.087935	-2.566634
38076	9.549863	-0.151862	2.369835	-0.005491	0.055182	0.027841	1.000000	0.000040	0.000036	0.000024	-4.995112	-76.085681	-2.558249
38077	9.555776	-0.165749	2.351159	0.012360	0.038603	0.029397	1.000000	0.000051	0.000025	0.000017	-4.985542	-76.084825	-2.568109
38078	9.568804	-0.137548	2.366614	0.004354	0.068439	0.045157	1.000000	0.000049	0.000020	0.000006	-4.983510	-76.084542	-2.567832
38079	9.535728	-0.137852	2.356774	0.006047	0.066773	0.010703	1.000000	0.000045	0.000008	0.000010	-4.974558	-76.083874	-2.578316
38080	9.574056	-0.108979	2.348557	0.026845	0.094017	0.045334	1.000000	0.000043	0.000022	0.000017	-4.978422	-76.083274	-2.572743
38081	9.568576	-0.137435	2.367541	0.003239	0.067738	0.045162	1.000000	0.000029	0.000013	-0.000010	-4.958249	-76.085830	-2.592462
38082	9.562436	-0.123753	2.387110	-0.015333	0.083996	0.043605	1.000000	0.000010	0.000018	0.000024	-4.969051	-76.085580	-2.583621
38083	9.567717	-0.095469	2.368923	0.007131	0.109407	0.043788	1.000000	0.000031	0.000029	0.000015	-4.960448	-76.084647	-2.588402
38084	9.568261	-0.137769	2.368795	0.002088	0.067487	0.045164	1.000000	0.000011	0.000022	-0.000002	-4.959163	-76.084263	-2.591835
38085	9.573542	-0.109390	2.350630	0.024543	0.092807	0.045351	1.000000	0.000017	0.000028	0.000027	-4.955688	-76.083347	-2.593799
38086	9.554213	-0.124150	2.355381	0.013621	0.079312	0.028031	1.000000	0.000005	0.000023	0.000010	-4.960288	-76.082653	-2.591934
38087	9.567236	-0.096014	2.370845	0.005120	0.108707	0.043797	1.000000	0.000030	0.000024	0.000004	-4.948128	-76.084790	-2.608642
38088	9.554004	-0.124532	2.356210	0.012412	0.079033	0.028035	1.000000	0.000025	0.000013	0.000044	-4.966703	-76.084926	-2.589960
38089	9.567717	-0.139193	2.370909	-0.000582	0.066270	0.045173	1.000000	0.000010	0.000018	0.000024	-4.962693	-76.086226	-2.593813
38090	9.567571	-0.139448	2.371485	-0.000936	0.066350	0.045172	1.000000	0.000046	0.000041	0.000016	-4.964910	-76.083471	-2.589540
38091	9.567462	-0.139577	2.371917	-0.001027	0.065808	0.045176	1.000000	0.000039	0.000003	0.000018	-4.955444	-76.083339	-2.591871
38092	9.542138	-0.140408	2.395608	-0.030165	0.068500	0.026289	1.000000	0.000044	0.000015	0.000014	-4.957682	-76.083582	-2.587817
38093	9.567306	-0.139814	2.372531	-0.001848	0.065578	0.045177	1.000000	0.000041	0.000029	0.000021	-4.953374	-76.082782	-2.597224
38094	9.573266	-0.153679	2.353714	0.016008	0.049468	0.046740	1.000000	0.000044	0.000015	0.000014	-4.955594	-76.083026	-2.593197
38095	9.580901	-0.153998	2.387715	-0.015133	0.053023	0.062307	1.000000	0.000049	0.000020	0.000006	-4.941874	-76.083925	-2.605021
38096	9.546171	-0.167864	2.324984	0.035070	0.031644	0.013852	1.000000	0.000011	0.000011	0.000020	-4.951034	-76.084516	-2.597732
38097	9.567611	-0.182496	2.373301	-0.007428	0.022985	0.046545	1.000000	0.000044	0.000015	0.000014	-4.943488	-76.080101	-2.608447
38098	9.572956	-0.154070	2.354949	0.015157	0.048865	0.046744	1.000000	0.000016	0.000017	0.000013	-4.948180	-76.080164	-2.605124
38099	9.572879	-0.154295	2.355248	0.014828	0.048524	0.046746	1.000000	0.000019	0.000014	0.000020	-4.945922	-76.080219	-2.611419
38100	9.547512	-0.155200	2.379075	-0.014303	0.051235	0.027853	1.000000	0.000024	0.000019	0.000012	-4.949222	-76.079989	-2.608597
38101	9.539702	-0.154969	2.345798	0.016501	0.046840	0.012293	1.000000	0.000024	0.000019	0.000012	-4.940839	-76.076236	-2.629110
38102	9.572608	-0.154682	2.356323	0.014364	0.048232	0.046748	1.000000	0.000014	0.000019	0.000005	-4.942417	-76.076067	-2.629298
38103	9.567060	-0.183299	2.375459	-0.008593	0.021886	0.046546	1.000000	0.000031	0.000029	0.000014	-4.931001	-76.072512	-2.636472
38104	9.577858	-0.126400	2.338377	0.036961	0.073542	0.046956	1.000000	0.000013	-0.000003	0.000013	-4.937136	-76.074735	-2.632039
38105	9.572379	-0.155004	2.357229	0.013253	0.047458	0.046754	1.000000	0.000060	0.000020	0.000012	-4.927265	-76.076656	-2.643523
38106	9.566233	-0.141311	2.376767	-0.005289	0.063738	0.045188	1.000000	0.000028	0.000010	0.000015	-4.932103	-76.077470	-2.638688
38107	9.558478	-0.141054	2.343294	0.024300	0.059383	0.029635	1.000000	0.000045	0.000008	0.000010	-4.921080	-76.082065	-2.648256
38108	9.558416	-0.141015	2.343550	0.023949	0.059452	0.029636	1.000000	0.000041	0.000018	0.000007	-4.920076	-76.082079	-2.647860
38109	9.563769	-0.112650	2.325209	0.045905	0.085083	0.029854	1.000000	0.000048	0.000017	0.000031	-4.923872	-76.085792	-2.652255
38110	9.591241	-0.140931	2.354390	0.020783	0.060691	0.064094	1.000000	0.000031	0.000017	0.000000	-4.921158	-76.085884	-2.654876
38111	9.558106	-0.141274	2.344800	0.022662	0.058941	0.029642	1.000000	0.000046	0.000041	0.000016	-4.911458	-76.080467	-2.660625
38112	9.590966	-0.140956	2.355509	0.020509	0.060325	0.064097	1.000000	0.000033	0.000015	0.000007	-4.911796	-76.080777	-2.659803
38113	9.563963	-0.155279	2.326441	0.039914	0.042547	0.031216	1.000000	0.000010	0.000018	0.000024	-4.914635	-76.081817	-2.671430
38114	9.576966	-0.127263	2.341980	0.031973	0.072379	0.046982	1.000000	0.000025	0.000041	0.000004	-4.913209	-76.079197	-2.673425
38115	9.551548	-0.127996	2.365960	0.002711	0.074758	0.028076	1.000000	0.000028	0.000010	0.000015	-4.908767	-76.080822	-2.683294
38116	9.571318	-0.155948	2.361474	0.008134	0.046375	0.046764	1.000000	0.000032	0.000022	0.000011	-4.910542	-76.080308	-2.681146
38117	9.543676	-0.127880	2.333012	0.032918	0.070362	0.012536	1.000000	0.000024	0.000019	0.000012	-4.901306	-76.077956	-2.691449
38118	9.532030	-0.142745	2.371397	-0.008592	0.060899	0.010739	1.000000	0.000031	0.000029	0.000014	-4.904522	-76.076609	-2.687943
38119	9.584156	-0.128123	2.377658	-0.000212	0.075369	0.062536	1.000000	0.000020	0.000007	0.000016	-4.899736	-76.077885	-2.692965
38120	9.570944	-0.156303	2.362963	0.007014	0.045669	0.046768	1.000000	0.000028	0.000020	-0.000007	-4.893854	-76.077748	-2.699164
38121	9.544936	-0.114584	2.387315	-0.017784	0.089986	0.026509	1.000000	0.000044	0.000015	0.000014	-4.884657	-76.080854	-2.705144
38122	9.550958	-0.128341	2.368323	0.000031	0.073819	0.028084	1.000000	0.000034	0.000008	0.000004	-4.883435	-76.081999	-2.705821
38123	9.570121	-0.113982	2.364303	0.009598	0.086932	0.045431	1.000000	0.000027	0.000017	0.000019	-4.877068	-76.085747	-2.709384
38124	9.589888	-0.141939	2.359835	0.015001	0.058541	0.064117	1.000000	0.000033	0.000015	0.000007	-4.877289	-76.086072	-2.708704
38125	9.550735	-0.128571	2.369208	-0.002016	0.073022	0.028089	1.000000	0.000024	0.000019	0.000012	-4.867671	-76.087579	-2.718281
38126	9.583608	-0.128332	2.379855	-0.004194	0.074397	0.062542	1.000000	0.000031	0.000029	0.000014	-4.870801	-76.086252	-2.714862
38127	9.570326	-0.156732	2.365440	0.003108	0.044144	0.046777	1.000000	0.000033	0.000026	0.000022	-4.863808	-76.084494	-2.718221
38128	9.570218	-0.156976	2.365860	0.002751	0.044207	0.046777	1.000000	0.000027	0.000017	0.000019	-4.869892	-76.084510	-2.712264
38129	9.575579	-0.128874	2.347558	0.024900	0.069508	0.047023	1.000000	0.000019	0.000025	0.000034	-4.870501	-76.086146	-2.712559
38130	9.544038	-0.116042	2.390833	-0.022362	0.088526	0.026513	1.000000	0.000009	0.000036	0.000005	-4.871638	-76.084133	-2.713783
38131	9.563749	-0.144077	2.386578	-0.017116	0.059630	0.045200	1.000000	0.000037	0.000017	0.000025	-4.867176	-76.084751	-2.716009
38132	9.544408	-0.158779	2.391261	-0.028060	0.046168	0.027849	1.000000	0.000033	0.000026	0.000022	-4.873307	-76.083654	-2.709191
38133	9.536621	-0.158712	2.358044	0.002827	0.041791	0.012329	1.000000	0.000035	0.000019	0.000018	-4.868742	-76.079390	-2.715783
38134	9.549697	-0.130673	2.373276	-0.005093	0.071620	0.028099	1.000000	0.000028	0.000010	0.000015	-4.873295	-76.080233	-2.711273
38135	9.536484	-0.158992	2.358578	0.001767	0.041574	0.012330	1.000000	0.000044	0.000015	0.000014	-4.866501	-76.082449	-2.718122
38136	9.544108	-0.159341	2.392421	-0.029167	0.045668	0.027848	1.000000	0.000029	0.000003	0.000012	-4.869575	-76.084125	-2.715014
38137	9.536411	-0.159067	2.358870	0.000790	0.041188	0.012332	1.000000	0.000034	0.000008	0.000004	-4.855640	-76.086694	-2.728722
38138	9.602303	-0.158471	2.379571	-0.003245	0.043855	0.081238	1.000000	0.000026	0.000024	0.000022	-4.863088	-76.085888	-2.721497
38139	9.569226	-0.159032	2.369730	-0.001343	0.042126	0.046787	1.000000	0.000036	0.000012	0.000015	-4.855007	-76.083856	-2.726790
38140	9.536180	-0.159458	2.359778	0.000140	0.040882	0.012333	1.000000	0.000025	0.000012	0.000008	-4.856426	-76.084478	-2.725809
38141	9.594405	-0.158597	2.346821	0.026478	0.038876	0.065729	1.000000	0.000035	0.000019	0.000018	-4.845528	-76.085165	-2.725421
38142	9.574495	-0.130845	2.351867	0.020403	0.067400	0.047048	1.000000	0.000025	0.000012	0.000008	-4.846916	-76.085788	-2.724456
38143	9.574991	-0.173174	2.351800	0.014997	0.024884	0.048375	1.000000	0.000021	0.000029	0.000008	-4.833743	-76.085389	-2.736358
38144	9.555064	-0.145456	2.356908	0.008925	0.053408	0.029695	1.000000	0.000038	0.000010	0.000022	-4.839884	-76.086171	-2.728957
38145	9.568714	-0.159665	2.371754	-0.003720	0.040880	0.046791	1.000000	0.000021	0.000029	0.000008	-4.832319	-76.083986	-2.744155
38146	9.574131	-0.131228	2.353325	0.018951	0.066659	0.047056	1.000000	0.000018	0.000003	0.000006	-4.833568	-76.085730	-2.744138
38147	9.554843	-0.145653	2.357795	0.007983	0.052893	0.029699	1.000000	0.000052	0.000018	0.000013	-4.826385	-76.085778	-2.754873
38148	9.574592	-0.173517	2.353397	0.013324	0.024475	0.048379	1.000000	0.000033	0.000015	0.000007	-4.826346	-76.086110	-2.754449
38149	9.573895	-0.131331	2.354279	0.018048	0.066121	0.047062	1.000000	0.000041	0.000029	0.000021	-4.821781	-76.083550	-2.759592
38150	9.573772	-0.131462	2.354774	0.017692	0.066174	0.047062	1.000000	0.000032	0.000022	0.000011	-4.823192	-76.083051	-2.757810
38151	9.560534	-0.159768	2.340189	0.024400	0.036039	0.031292	1.000000	0.000036	0.000012	0.000015	-4.815598	-76.086274	-2.763649
38152	9.559881	-0.117537	2.340901	0.028949	0.078071	0.029977	1.000000	0.000033	0.000015	0.000007	-4.815523	-76.086610	-2.763269
38153	9.560378	-0.159840	2.340822	0.023389	0.035704	0.031296	1.000000	0.000032	0.000022	0.000011	-4.805952	-76.087720	-2.774180
38154	9.579512	-0.145564	2.336986	0.033624	0.049257	0.048661	1.000000	0.000053	0.000022	0.000024	-4.810736	-76.087095	-2.766459
38155	9.547975	-0.132492	2.380094	-0.014098	0.067982	0.028116	1.000000	0.000013	0.000026	0.000009	-4.803749	-76.089000	-2.775874
38156	9.586909	-0.146081	2.371657	0.001811	0.053057	0.064159	1.000000	0.000031	0.000029	0.000014	-4.806571	-76.087689	-2.772777
38157	9.559306	-0.118127	2.343219	0.025697	0.077003	0.029994	1.000000	0.000023	0.000026	0.000015	-4.797439	-76.090370	-2.774895
38158	9.566833	-0.118482	2.377354	-0.005250	0.081119	0.045484	1.000000	0.000032	0.000022	0.000011	-4.798770	-76.089896	-2.773195
38159	9.586545	-0.146505	2.373103	0.000307	0.052271	0.064164	1.000000	0.000015	0.000024	0.000016	-4.794440	-76.087658	-2.785017
38160	9.558955	-0.118578	2.344630	0.024870	0.076728	0.029998	1.000000	0.000031	0.000029	0.000014	-4.797220	-76.086352	-2.781958
38161	9.560976	-0.147534	2.397452	-0.029133	0.054808	0.045200	1.000000	0.000021	0.000011	0.000027	-4.799014	-76.086838	-2.784986
38162	9.553232	-0.147363	2.364208	0.001096	0.050779	0.029713	1.000000	0.000043	0.000032	-0.000005	-4.791420	-76.085328	-2.791206
38163	9.578459	-0.146858	2.341219	0.029213	0.047664	0.048683	1.000000	0.000040	0.000014	0.000032	-4.792645	-76.086841	-2.795274
38164	9.553042	-0.147672	2.364954	0.000138	0.050505	0.029715	1.000000	0.000044	0.000015	0.000014	-4.794168	-76.087127	-2.792031
38165	9.558474	-0.119316	2.346550	0.022538	0.075742	0.030012	1.000000	0.000043	0.000022	0.000017	-4.784633	-76.088215	-2.797275
38166	9.552848	-0.147769	2.365733	-0.000888	0.050100	0.029717	1.000000	0.000049	0.000020	0.000006	-4.781685	-76.087989	-2.797988
38167	9.572018	-0.133368	2.361786	0.009113	0.063199	0.047093	1.000000	0.000036	0.000012	0.000015	-4.773681	-76.089819	-2.807734
38168	9.578015	-0.147273	2.343007	0.026866	0.046955	0.048693	1.000000	0.000058	0.000027	0.000016	-4.773889	-76.088700	-2.804095
38169	9.558080	-0.119429	2.348151	0.020616	0.075052	0.030021	1.000000	0.000032	0.000022	0.000011	-4.764299	-76.089605	-2.815947
38170	9.552438	-0.148052	2.367371	-0.002821	0.049417	0.029720	1.000000	0.000026	0.000024	0.000022	-4.771432	-76.088829	-2.809057
38171	9.577671	-0.147905	2.344372	0.025642	0.046088	0.048700	1.000000	0.000038	0.000021	0.000036	-4.769761	-76.087330	-2.803290
38172	9.563835	-0.134201	2.330324	0.037762	0.058328	0.031628	1.000000	0.000023	0.000026	0.000015	-4.773791	-76.086327	-2.799880
38173	9.565796	-0.163085	2.383264	-0.016812	0.036413	0.046795	1.000000	0.000025	0.000024	0.000022	-4.771081	-76.088601	-2.805717
38174	9.577309	-0.148703	2.345800	0.024013	0.045838	0.048705	1.000000	0.000013	0.000026	0.000009	-4.773385	-76.087671	-2.805322
38175	9.532557	-0.163817	2.374074	-0.015822	0.034843	0.012344	1.000000	0.000022	0.000033	0.000019	-4.769545	-76.086770	-2.812394
38176	9.565370	-0.163719	2.384931	-0.018080	0.036174	0.046794	1.000000	0.000004	0.000030	0.000013	-4.774668	-76.085306	-2.810168
38177	9.551546	-0.149818	2.370856	-0.006268	0.048131	0.029725	1.000000	0.000044	0.000015	0.000014	-4.768873	-76.087413	-2.823485
38178	9.551467	-0.149927	2.371166	-0.006632	0.048175	0.029724	1.000000	0.000016	0.000017	0.000013	-4.772760	-76.087542	-2.821052
38179	9.578270	-0.135748	2.400842	-0.026887	0.065392	0.062570	1.000000	0.000042	0.000011	0.000003	-4.759584	-76.087727	-2.834191
38180	9.551343	-0.149924	2.371664	-0.007254	0.047843	0.029725	1.000000	0.000036	0.000012	0.000015	-4.762327	-76.088324	-2.830636
38181	9.543678	-0.149683	2.338215	0.022934	0.043305	0.014268	1.000000	0.000032	0.000010	-0.000003	-4.746244	-76.089434	-2.847315
38182	9.563841	-0.079338	2.387364	-0.010516	0.119220	0.044215	1.000000	0.000046	0.000012	0.000021	-4.750676	-76.089965	-2.840785
38183	9.537448	-0.136022	2.357885	0.004296	0.059267	0.012663	1.000000	0.000027	0.000017	0.000019	-4.746006	-76.088855	-2.848770
38184	9.556647	-0.121750	2.353857	0.014535	0.072777	0.030049	1.000000	0.000045	0.000008	0.000010	-4.745875	-76.089988	-2.847106
38185	9.543413	-0.150013	2.339274	0.021849	0.042541	0.014273	1.000000	0.000032	0.000022	0.000011	-4.735231	-76.088303	-2.856557
38186	9.548859	-0.121775	2.320915	0.044594	0.068232	0.014598	1.000000	0.000025	0.000024	0.000022	-4.742216	-76.087531	-2.849824
38187	9.563011	-0.178430	2.335467	0.025860	0.013824	0.032949	1.000000	0.000029	0.000014	0.000026	-4.742726	-76.092654	-2.853804
38188	9.556824	-0.164837	2.354945	0.007407	0.030182	0.031339	1.000000	0.000035	0.000019	0.000018	-4.746863	-76.092430	-2.848946
38189	9.615052	-0.164144	2.342192	0.033561	0.028229	0.084792	1.000000	0.000042	0.000022	0.000017	-4.739210	-76.093257	-2.851423
38190	9.542897	-0.151084	2.341312	0.018937	0.042025	0.014282	1.000000	0.000031	0.000029	0.000014	-4.741717	-76.091983	-2.848670
38191	9.589454	-0.164879	2.366541	0.004386	0.030727	0.065792	1.000000	0.000044	0.000015	0.000014	-4.732780	-76.090743	-2.854681
38192	9.575681	-0.150864	2.352301	0.016536	0.042947	0.048734	1.000000	0.000033	0.000015	0.000007	-4.732336	-76.091122	-2.854705
38193	9.563369	-0.123214	2.391012	-0.020012	0.075249	0.045511	1.000000	0.000041	0.000029	0.000021	-4.727195	-76.089811	-2.863230
38194	9.575452	-0.151017	2.353223	0.015784	0.042635	0.048736	1.000000	0.000011	0.000022	-0.000002	-4.724781	-76.089495	-2.867881
38195	9.536265	-0.137503	2.362583	-0.000705	0.057325	0.012676	1.000000	0.000031	0.000029	0.000014	-4.717697	-76.087897	-2.875300
38196	9.569116	-0.137161	2.373302	-0.002989	0.058640	0.047125	1.000000	0.000031	0.000017	0.000000	-4.714142	-76.088051	-2.878827
38197	9.536054	-0.137546	2.363429	-0.001561	0.057000	0.012678	1.000000	0.000015	0.000024	0.000016	-4.709503	-76.088003	-2.886168
38198	9.574475	-0.108888	2.355345	0.019282	0.083946	0.047468	1.000000	0.000030	0.000024	0.000004	-4.707399	-76.087330	-2.888333
38199	9.568772	-0.137288	2.374680	-0.004247	0.057937	0.047129	1.000000	0.000020	0.000029	0.000008	-4.698074	-76.086217	-2.901533
38200	9.581812	-0.109061	2.390030	-0.012079	0.087760	0.062909	1.000000	0.000022	0.000022	0.000005	-4.697320	-76.085835	-2.903244
38201	9.587842	-0.123014	2.371204	0.005301	0.071091	0.064528	1.000000	0.000028	0.000010	0.000015	-4.691927	-76.088544	-2.911692
38202	9.554815	-0.123585	2.361187	0.006866	0.069850	0.030078	1.000000	0.000037	0.000017	0.000025	-4.699024	-76.088550	-2.903501
38203	9.560822	-0.137773	2.342449	0.024382	0.053241	0.031699	1.000000	0.000025	0.000024	0.000022	-4.698342	-76.088830	-2.909997
38204	9.567765	-0.095856	2.376880	-0.001508	0.099406	0.045862	1.000000	0.000042	0.000022	0.000017	-4.700982	-76.088323	-2.905764
38205	9.555034	-0.166597	2.362075	-0.000292	0.027281	0.031351	1.000000	0.000019	0.000014	0.000020	-4.696811	-76.093218	-2.913633
38206	9.560537	-0.138435	2.343572	0.022488	0.052929	0.031705	1.000000	0.000035	0.000019	0.000018	-4.700800	-76.093011	-2.908947
38207	9.535548	-0.181508	2.367165	-0.011991	0.013572	0.013949	1.000000	0.000035	0.000031	0.000032	-4.702273	-76.093354	-2.910451
38208	9.541042	-0.153332	2.348713	0.010793	0.039216	0.014306	1.000000	0.000045	0.000008	0.000010	-4.701947	-76.094516	-2.909018
38209	9.573936	-0.153146	2.359248	0.008377	0.040152	0.048756	1.000000	0.000037	0.000017	0.000025	-4.699910	-76.095057	-2.912983
38210	9.568250	-0.181592	2.378450	-0.015151	0.014579	0.048396	1.000000	0.000039	0.000020	-0.000000	-4.694874	-76.094943	-2.917123
38211	9.579861	-0.167060	2.340875	0.025493	0.023432	0.050382	1.000000	0.000024	0.000019	0.000012	-4.686399	-76.095827	-2.921596
38212	9.573657	-0.153275	2.360371	0.007067	0.039816	0.048758	1.000000	0.000024	0.000019	0.000012	-4.688627	-76.095694	-2.919963
38213	9.592857	-0.138991	2.356405	0.016543	0.052963	0.066168	1.000000	0.000025	0.000012	0.000008	-4.680692	-76.100729	-2.931813
38214	9.554218	-0.167755	2.365291	-0.005040	0.026122	0.031352	1.000000	0.000032	0.000022	0.000011	-4.681539	-76.100314	-2.930671
38215	9.559709	-0.139332	2.346894	0.017672	0.051415	0.031723	1.000000	0.000019	0.000024	-0.000002	-4.669333	-76.100141	-2.949282
38216	9.553526	-0.125532	2.366293	-0.000746	0.067805	0.030095	1.000000	0.000022	0.000005	0.000023	-4.677597	-76.101586	-2.941663
38217	9.534193	-0.140138	2.370775	-0.011715	0.053975	0.012688	1.000000	0.000016	0.000017	0.000012	-4.670758	-76.101586	-2.950722
38218	9.565613	-0.153821	2.328594	0.034614	0.034711	0.033355	1.000000	0.000037	0.000017	0.000025	-4.677738	-76.101621	-2.942679
38219	9.526447	-0.140518	2.337803	0.018181	0.049482	-0.002719	1.000000	0.000015	0.000024	0.000016	-4.674258	-76.100729	-2.949176
38220	9.567363	-0.182825	2.381918	-0.019893	0.013031	0.048389	1.000000	0.000027	0.000017	0.000019	-4.679508	-76.100829	-2.944150
38221	9.584606	-0.140186	2.325456	0.044452	0.047499	0.050772	1.000000	0.000035	0.000019	0.000018	-4.674904	-76.098689	-2.951486
38222	9.572774	-0.154749	2.363850	0.002860	0.038311	0.048766	1.000000	0.000040	0.000024	0.000010	-4.674324	-76.097979	-2.950888
38223	9.590504	-0.154227	2.307228	0.061913	0.030832	0.052406	1.000000	0.000032	0.000022	0.000011	-4.667023	-76.096529	-2.963901
38224	9.572056	-0.112591	2.364984	0.007434	0.079978	0.047517	1.000000	0.000042	0.000022	0.000017	-4.669511	-76.096043	-2.959855
38225	9.564883	-0.154807	2.331525	0.032067	0.033426	0.033368	1.000000	0.000048	0.000027	0.000009	-4.657100	-76.097572	-2.969417
38226	9.558666	-0.140900	2.351046	0.013662	0.049828	0.031737	1.000000	0.000044	0.000015	0.000014	-4.658103	-76.097919	-2.966767
38227	9.566124	-0.141096	2.385101	-0.017228	0.053617	0.047139	1.000000	0.000042	0.000022	0.000017	-4.649568	-76.096734	-2.968956
38228	9.572138	-0.155133	2.366400	0.000435	0.037268	0.048771	1.000000	0.000024	0.000019	0.000012	-4.651671	-76.096609	-2.967465
38229	9.546142	-0.113359	2.390415	-0.022977	0.081753	0.028479	1.000000	0.000032	0.000022	0.000011	-4.642001	-76.093488	-2.977071
38230	9.532848	-0.141715	2.376082	-0.015926	0.051983	0.012693	1.000000	0.000031	0.000029	0.000014	-4.644187	-76.092239	-2.974682
38231	9.591073	-0.140997	2.363536	0.009687	0.049944	0.066193	1.000000	0.000030	0.000024	0.000004	-4.632051	-76.095460	-2.981904
38232	9.551935	-0.127537	2.372602	-0.006739	0.065086	0.030111	1.000000	0.000022	0.000005	0.000023	-4.640180	-76.096906	-2.974419
38233	9.565483	-0.141698	2.387637	-0.019650	0.052542	0.047140	1.000000	0.000025	0.000041	0.000004	-4.627602	-76.094006	-2.989287
38234	9.551730	-0.127791	2.373415	-0.007432	0.064720	0.030113	1.000000	0.000023	-0.000002	0.000020	-4.634245	-76.096279	-2.983199
38235	9.616137	-0.141175	2.341524	0.036348	0.046293	0.085256	1.000000	0.000031	0.000029	0.000014	-4.626979	-76.098028	-2.989985
38236	9.557659	-0.142008	2.355070	0.009320	0.048025	0.031751	1.000000	0.000032	0.000022	0.000011	-4.627649	-76.097619	-2.989025
38237	9.576844	-0.127727	2.351218	0.019426	0.061071	0.049177	1.000000	0.000032	0.000022	0.000011	-4.618712	-76.097863	-2.995893
38238	9.570612	-0.113828	2.370762	0.001031	0.077481	0.047539	1.000000	0.000040	0.000024	0.000010	-4.618000	-76.097166	-2.995418
38239	9.563472	-0.156088	2.337218	0.026785	0.030912	0.033392	1.000000	0.000036	0.000012	0.000015	-4.611328	-76.093667	-3.001246
38240	9.576515	-0.127886	2.352549	0.019004	0.060732	0.049180	1.000000	0.000035	0.000041	0.000010	-4.610457	-76.091081	-3.001488
38241	9.543421	-0.128253	2.342829	0.020474	0.059156	0.014736	1.000000	0.000032	0.000022	0.000011	-4.602709	-76.091432	-3.011142
38242	9.550899	-0.128490	2.376717	-0.010514	0.063421	0.030119	1.000000	0.000023	-0.000002	0.000020	-4.609290	-76.093706	-3.005121
38243	9.556944	-0.142687	2.357929	0.007069	0.046676	0.031760	1.000000	0.000022	0.000033	0.000019	-4.605072	-76.092202	-3.012000
38244	9.583629	-0.128579	2.387880	-0.013308	0.064351	0.064566	1.000000	0.000032	0.000022	0.000011	-4.605682	-76.091789	-3.011103
38245	9.589635	-0.142638	2.369263	0.004479	0.047598	0.066208	1.000000	0.000023	0.000026	0.000015	-4.600149	-76.089878	-3.014296
38246	9.570205	-0.157126	2.374075	-0.006506	0.034216	0.048780	1.000000	0.000031	0.000029	0.000014	-4.602212	-76.088636	-3.012033
38247	9.556419	-0.143245	2.360020	0.006295	0.046045	0.031763	1.000000	0.000031	0.000029	0.000014	-4.596831	-76.084030	-3.024302
38248	9.583139	-0.129160	2.389818	-0.014077	0.063724	0.064569	1.000000	0.000038	0.000010	0.000022	-4.602105	-76.084888	-3.017888
38249	9.543084	-0.171900	2.345855	0.012877	0.015937	0.015976	1.000000	0.000016	0.000017	0.000012	-4.596924	-76.085366	-3.028325
38250	9.569860	-0.157847	2.375417	-0.007496	0.033617	0.048781	1.000000	0.000023	-0.000002	0.000020	-4.603448	-76.087633	-3.022370
38251	9.556168	-0.144001	2.360991	0.004487	0.045391	0.031767	1.000000	0.000032	0.000022	0.000011	-4.594284	-76.088606	-3.030925
38252	9.549953	-0.130073	2.380428	-0.013887	0.061817	0.030125	1.000000	0.000033	0.000015	0.000007	-4.593371	-76.089016	-3.031472
38253	9.581414	-0.143704	2.338357	0.032217	0.042084	0.050844	1.000000	0.000042	0.000022	0.000017	-4.587410	-76.089322	-3.037901
38254	9.575663	-0.172095	2.357624	0.008608	0.016567	0.050425	1.000000	0.000033	0.000015	0.000007	-4.586483	-76.089735	-3.038466
38255	9.569469	-0.158340	2.376959	-0.010107	0.032624	0.048782	1.000000	0.000021	0.000012	0.000027	-4.586468	-76.092219	-3.037221
38256	9.561857	-0.158559	2.343653	0.020143	0.028370	0.033416	1.000000	0.000031	0.000029	0.000014	-4.588460	-76.090980	-3.035039
38257	9.581046	-0.144454	2.339818	0.029577	0.041449	0.050855	1.000000	0.000037	0.000017	0.000025	-4.586104	-76.095622	-3.034279
38258	9.588482	-0.144488	2.373812	-0.001421	0.045740	0.066218	1.000000	0.000029	0.000013	-0.000010	-4.577515	-76.096424	-3.043190
38259	9.574776	-0.130471	2.359475	0.010941	0.057517	0.049211	1.000000	0.000037	0.000017	0.000025	-4.575175	-76.095726	-3.043707
38260	9.561509	-0.158996	2.345042	0.017949	0.027730	0.033422	1.000000	0.000034	0.000019	0.000018	-4.578752	-76.095547	-3.039469
38261	9.575041	-0.173082	2.360077	0.004632	0.015329	0.050430	1.000000	0.000022	0.000022	0.000005	-4.570359	-76.096952	-3.054824
38262	9.555198	-0.145166	2.364843	-0.001103	0.043900	0.031775	1.000000	0.000036	0.000012	0.000015	-4.572457	-76.097605	-3.051986
38263	9.547629	-0.145177	2.331410	0.029030	0.039389	0.016421	1.000000	0.000033	0.000015	0.000007	-4.565559	-76.098701	-3.068374
38264	9.555068	-0.145323	2.365357	-0.001969	0.043697	0.031776	1.000000	0.000038	0.000010	0.000022	-4.570732	-76.099581	-3.062091
38265	9.555007	-0.145396	2.365600	-0.002534	0.043377	0.031777	1.000000	0.000023	0.000015	0.000001	-4.559610	-76.101108	-3.078422
38266	9.547420	-0.145352	2.332255	0.027718	0.039094	0.016426	1.000000	0.000032	0.000022	0.000011	-4.560072	-76.100711	-3.077710
38267	9.587763	-0.145121	2.376677	-0.004852	0.044268	0.066223	1.000000	0.000044	0.000015	0.000014	-4.551905	-76.098316	-3.081198
38268	9.580193	-0.145117	2.343270	0.025401	0.039983	0.050873	1.000000	0.000033	0.000015	0.000007	-4.550884	-76.098742	-3.081878
38269	9.573979	-0.131229	2.362665	0.006521	0.056052	0.049224	1.000000	0.000034	0.000019	0.000018	-4.544635	-76.101473	-3.083310
38270	9.573884	-0.131375	2.363041	0.006148	0.056066	0.049224	1.000000	0.000024	0.000019	0.000012	-4.546430	-76.101367	-3.082154
38271	9.573767	-0.131494	2.363507	0.005258	0.055727	0.049226	1.000000	0.000031	0.000029	0.000014	-4.539109	-76.103052	-3.092179
38272	9.560005	-0.117628	2.349416	0.017534	0.067868	0.032229	1.000000	0.000031	0.000029	0.000014	-4.540994	-76.101834	-3.090124
38273	9.540601	-0.132085	2.354075	0.007071	0.054191	0.014784	1.000000	0.000028	0.000010	0.000015	-4.537425	-76.099631	-3.099952
38274	9.573421	-0.131950	2.364884	0.004667	0.055451	0.049228	1.000000	0.000030	0.000036	0.000018	-4.540767	-76.097580	-3.096533
38275	9.553991	-0.146564	2.369626	-0.007031	0.041744	0.031782	1.000000	0.000021	0.000012	0.000027	-4.540688	-76.102178	-3.094981
38276	9.573219	-0.132525	2.365670	0.003215	0.055128	0.049231	1.000000	0.000042	0.000022	0.000017	-4.542799	-76.101726	-3.091339
38277	9.534059	-0.119036	2.374725	-0.013813	0.070075	0.013129	1.000000	0.000027	0.000017	0.000019	-4.540300	-76.106001	-3.098563
38278	9.586660	-0.146844	2.381017	-0.010922	0.042768	0.066225	1.000000	0.000044	0.000015	0.000014	-4.540931	-76.106384	-3.096321
38279	9.572965	-0.132997	2.366670	0.001533	0.054532	0.049234	1.000000	0.000027	0.000017	0.000019	-4.537017	-76.105425	-3.100482
38280	9.559715	-0.161523	2.352171	0.008502	0.024732	0.033442	1.000000	0.000038	0.000010	0.000022	-4.542083	-76.106322	-3.094315
38281	9.545983	-0.147873	2.337971	0.020750	0.036557	0.016453	1.000000	0.000023	0.000038	0.000029	-4.543828	-76.104136	-3.098597
38282	9.572649	-0.133825	2.367903	0.000365	0.054262	0.049236	1.000000	0.000044	0.000015	0.000014	-4.544434	-76.104518	-3.096384
38283	9.553242	-0.148147	2.372548	-0.011132	0.040603	0.031783	1.000000	0.000022	0.000022	0.000005	-4.534944	-76.107006	-3.108446
38284	9.571125	-0.147953	2.315887	0.047708	0.033187	0.035575	1.000000	0.000027	0.000017	0.000019	-4.539733	-76.107145	-3.103932
38285	9.553047	-0.148338	2.373321	-0.012084	0.040325	0.031783	1.000000	0.000030	0.000024	0.000004	-4.529406	-76.107599	-3.114610
38286	9.545468	-0.148402	2.340038	0.018173	0.035998	0.016460	1.000000	0.000034	0.000019	0.000018	-4.532820	-76.107450	-3.110581
38287	9.578277	-0.148248	2.350891	0.015674	0.036932	0.050905	1.000000	0.000031	0.000029	0.000014	-4.526845	-76.106551	-3.119127
38288	9.558861	-0.162728	2.355556	0.004671	0.023585	0.033448	1.000000	0.000038	0.000010	0.000022	-4.531864	-76.107456	-3.113023
38289	9.571956	-0.134452	2.370666	-0.003325	0.053085	0.049242	1.000000	0.000027	0.000027	-0.000003	-4.517747	-76.108199	-3.127471
38290	9.545062	-0.148820	2.341668	0.016310	0.035393	0.016466	1.000000	0.000037	0.000017	0.000025	-4.524222	-76.108280	-3.120000
38291	9.552416	-0.148985	2.375820	-0.015105	0.039439	0.031782	1.000000	0.000020	0.000029	0.000008	-4.516153	-76.109387	-3.132400
38292	9.544841	-0.148998	2.342559	0.015154	0.035096	0.016468	1.000000	0.000041	0.000017	0.000007	-4.513612	-76.109559	-3.133735
38293	9.604465	-0.134495	2.382713	-0.006995	0.053714	0.083687	1.000000	0.000037	0.000017	0.000025	-4.512341	-76.107763	-3.135125
38294	9.538509	-0.135240	2.362355	-0.003245	0.051244	0.014802	1.000000	0.000048	0.000027	0.000009	-4.509894	-76.106815	-3.135558
38295	9.558180	-0.163316	2.358279	0.001700	0.022296	0.033452	1.000000	0.000031	0.000000	0.000019	-4.505653	-76.108310	-3.133935
38296	9.591029	-0.163180	2.368962	-0.000747	0.023542	0.067894	1.000000	0.000031	0.000029	0.000014	-4.507384	-76.107113	-3.132062
38297	9.544386	-0.149598	2.344373	0.013851	0.034102	0.016474	1.000000	0.000032	0.000022	0.000011	-4.500185	-76.105379	-3.138576
38298	9.544290	-0.149780	2.344751	0.013473	0.034109	0.016474	1.000000	0.000037	0.000017	0.000025	-4.506608	-76.105458	-3.131157
38299	9.570998	-0.135666	2.374462	-0.007076	0.051494	0.049248	1.000000	0.000036	0.000012	0.000015	-4.500257	-76.106969	-3.139129
38300	9.582782	-0.121436	2.336820	0.033811	0.060482	0.051408	1.000000	0.000030	0.000024	0.000004	-4.497410	-76.106372	-3.142133
38301	9.544023	-0.150032	2.345820	0.012198	0.033484	0.016478	1.000000	0.000024	0.000019	0.000012	-4.491415	-76.106104	-3.153164
38302	9.570725	-0.135816	2.375553	-0.008192	0.051203	0.049249	1.000000	0.000036	0.000012	0.000015	-4.493260	-76.106787	-3.150624
38303	9.551340	-0.150236	2.380061	-0.019353	0.037522	0.031782	1.000000	0.000028	0.000010	0.000015	-4.487894	-76.108535	-3.151617
38304	9.563114	-0.136016	2.342482	0.021536	0.046498	0.033949	1.000000	0.000026	0.000034	0.000000	-4.483404	-76.106886	-3.156735
38305	9.564297	-0.122041	2.395705	-0.026849	0.067003	0.047580	1.000000	0.000037	0.000017	0.000025	-4.482056	-76.103521	-3.153297
38306	9.570343	-0.136245	2.377065	-0.009290	0.050531	0.049251	1.000000	0.000032	0.000022	0.000011	-4.482258	-76.103145	-3.152865
38307	9.543484	-0.150659	2.347975	0.009733	0.032512	0.016484	1.000000	0.000036	0.000012	0.000015	-4.475705	-76.107308	-3.159294
38308	9.556593	-0.122496	2.363010	0.002047	0.062336	0.032281	1.000000	0.000034	0.000019	0.000018	-4.478980	-76.107165	-3.155407
38309	9.570101	-0.136581	2.378020	-0.010826	0.049944	0.049253	1.000000	0.000025	0.000012	0.000008	-4.472210	-76.106606	-3.169079
38310	9.550703	-0.150871	2.382577	-0.021833	0.036614	0.031780	1.000000	0.000033	0.000015	0.000007	-4.470920	-76.107062	-3.170058
38311	9.562493	-0.136768	2.344973	0.019368	0.045231	0.033960	1.000000	0.000033	0.000026	0.000021	-4.467895	-76.104186	-3.171824
38312	9.562403	-0.137012	2.345326	0.018991	0.045235	0.033960	1.000000	0.000038	0.000010	0.000022	-4.472764	-76.105091	-3.165875
38313	9.562331	-0.137334	2.345602	0.018788	0.044950	0.033962	1.000000	0.000010	0.000018	0.000024	-4.474842	-76.103878	-3.166627
38314	9.569624	-0.137453	2.379889	-0.012231	0.049344	0.049254	1.000000	0.000025	0.000041	0.000004	-4.471762	-76.101394	-3.170428
38315	9.548469	-0.123671	2.332021	0.030490	0.056743	0.016999	1.000000	0.000037	0.000017	0.000025	-4.470195	-76.102911	-3.171745
38316	9.563230	-0.123784	2.399871	-0.031173	0.065534	0.047577	1.000000	0.000023	0.000026	0.000015	-4.473168	-76.101999	-3.169535
38317	9.575388	-0.152015	2.362394	0.003941	0.032282	0.050933	1.000000	0.000031	0.000029	0.000014	-4.467801	-76.102762	-3.177730
38318	9.561677	-0.138198	2.348213	0.016288	0.044381	0.033969	1.000000	0.000023	0.000026	0.000015	-4.470763	-76.101854	-3.175536
38319	9.568971	-0.138318	2.382466	-0.014443	0.048500	0.049255	1.000000	0.000041	0.000029	0.000021	-4.467601	-76.098804	-3.177239
38320	9.528530	-0.138958	2.338712	0.017920	0.042871	-0.000470	1.000000	0.000011	0.000011	0.000020	-4.474894	-76.099523	-3.172038
38321	9.574934	-0.152828	2.364182	0.003211	0.031622	0.050935	1.000000	0.000032	0.000022	0.000011	-4.466348	-76.096136	-3.174803
38322	9.574861	-0.152814	2.364475	0.002833	0.031623	0.050936	1.000000	0.000034	0.000008	0.000004	-4.463526	-76.097413	-3.177232
38323	9.541882	-0.153160	2.354314	0.004875	0.030050	0.016496	1.000000	0.000034	0.000019	0.000018	-4.458744	-76.095270	-3.179564
38324	9.561144	-0.139038	2.350334	0.015131	0.043374	0.033975	1.000000	0.000036	0.000012	0.000015	-4.460459	-76.095942	-3.177156
38325	9.561044	-0.139158	2.350735	0.014907	0.043061	0.033977	1.000000	0.000031	0.000029	0.000014	-4.454666	-76.093754	-3.184469
38326	9.580650	-0.167358	2.346908	0.019709	0.014464	0.052618	1.000000	0.000026	0.000017	0.000019	-4.459197	-76.093885	-3.180229
38327	9.560866	-0.139538	2.351436	0.013847	0.042780	0.033980	1.000000	0.000028	0.000010	0.000015	-4.455035	-76.096555	-3.186511
38328	9.560777	-0.139560	2.351795	0.013471	0.042779	0.033980	1.000000	0.000037	0.000027	0.000003	-4.450665	-76.095660	-3.190151
38329	9.586147	-0.139517	2.329008	0.041063	0.039284	0.053149	1.000000	0.000046	0.000024	0.000035	-4.452018	-76.098079	-3.187969
38330	9.566692	-0.153963	2.333742	0.030052	0.025967	0.035667	1.000000	0.000011	0.000022	-0.000002	-4.448633	-76.097829	-3.193694
38331	9.560460	-0.139918	2.353063	0.011900	0.042185	0.033985	1.000000	0.000036	0.000012	0.000015	-4.443453	-76.097639	-3.196970
38332	9.560381	-0.140064	2.353374	0.011523	0.042184	0.033985	1.000000	0.000034	0.000019	0.000018	-4.446590	-76.097490	-3.193234
38333	9.566438	-0.154270	2.334762	0.028881	0.025379	0.035672	1.000000	0.000024	0.000019	0.000012	-4.440734	-76.098287	-3.199183
38334	9.540862	-0.154579	2.358350	-0.000034	0.028579	0.016501	1.000000	0.000036	0.000012	0.000015	-4.442395	-76.098967	-3.196837
38335	9.560126	-0.140403	2.354392	0.010048	0.041586	0.033990	1.000000	0.000032	0.000022	0.000011	-4.434838	-76.099501	-3.201718
38336	9.585519	-0.140304	2.331543	0.038203	0.038379	0.053164	1.000000	0.000042	0.000022	0.000017	-4.436593	-76.099067	-3.198470
38337	9.559930	-0.140518	2.355178	0.009257	0.041297	0.033991	1.000000	0.000023	0.000015	0.000001	-4.426490	-76.099710	-3.212964
38338	9.559837	-0.140628	2.355551	0.008879	0.041295	0.033992	1.000000	0.000025	0.000024	0.000022	-4.432422	-76.099025	-3.207420
38339	9.553570	-0.126776	2.374975	-0.009177	0.057505	0.032306	1.000000	0.000042	0.000022	0.000017	-4.426991	-76.097239	-3.214310
38340	9.540274	-0.155068	2.360698	-0.002294	0.027676	0.016504	1.000000	0.000039	0.000020	-0.000000	-4.421089	-76.097178	-3.219400
38341	9.553386	-0.126640	2.375724	-0.010183	0.057195	0.032307	1.000000	0.000033	0.000015	0.000007	-4.411870	-76.099003	-3.227267
38342	9.553302	-0.126722	2.376057	-0.010560	0.057193	0.032306	1.000000	0.000034	0.000019	0.000018	-4.414952	-76.098858	-3.223588
38343	9.565484	-0.155086	2.338614	0.025044	0.023880	0.035686	1.000000	0.000022	0.000033	0.000019	-4.413272	-76.095903	-3.233978
38344	9.578592	-0.126931	2.353645	0.017414	0.053705	0.051490	1.000000	0.000029	0.000003	0.000012	-4.414773	-76.097699	-3.232609
38345	9.539482	-0.113347	2.362354	0.000892	0.068735	0.015362	1.000000	0.000037	0.000017	0.000025	-4.413704	-76.099925	-3.231275
38346	9.592013	-0.141269	2.368904	0.003505	0.041340	0.068438	1.000000	0.000043	0.000015	0.000014	-4.413941	-76.100322	-3.229467
38347	9.551610	-0.141781	2.325147	0.035117	0.035400	0.018751	1.000000	0.000031	0.000029	0.000014	-4.407872	-76.103654	-3.232583
38348	9.558886	-0.141774	2.359338	0.004082	0.039848	0.034001	1.000000	0.000024	0.000019	0.000012	-4.409199	-76.103581	-3.231949
38349	9.558808	-0.141884	2.359647	0.003451	0.039556	0.034002	1.000000	0.000036	0.000012	0.000015	-4.403455	-76.105648	-3.237823
38350	9.578080	-0.127721	2.355686	0.013706	0.052847	0.051500	1.000000	0.000032	0.000022	0.000011	-4.403411	-76.105288	-3.237665
38351	9.545067	-0.128194	2.345663	0.016094	0.051327	0.017063	1.000000	0.000025	0.000024	0.000022	-4.402981	-76.100892	-3.243999
38352	9.591418	-0.142001	2.371265	0.000800	0.040464	0.068443	1.000000	0.000033	0.000015	0.000007	-4.401462	-76.101354	-3.245232
38353	9.552270	-0.128225	2.380121	-0.015010	0.055474	0.032310	1.000000	0.000032	0.000022	0.000011	-4.394374	-76.099100	-3.252080
38354	9.550934	-0.142632	2.327871	0.033144	0.034461	0.018761	1.000000	0.000025	0.000024	0.000022	-4.400222	-76.098419	-3.246632
38355	9.558221	-0.142675	2.361976	0.002199	0.038634	0.034006	1.000000	0.000043	0.000015	0.000014	-4.393532	-76.098223	-3.257312
38356	9.571332	-0.114362	2.376998	-0.005411	0.068462	0.049811	1.000000	0.000022	0.000022	0.000005	-4.391732	-76.097915	-3.260191
38357	9.558049	-0.142743	2.362667	0.001575	0.038359	0.034008	1.000000	0.000036	0.000012	0.000015	-4.387054	-76.097760	-3.269484
38358	9.583469	-0.142717	2.339813	0.029708	0.035088	0.053206	1.000000	0.000031	0.000029	0.000014	-4.388437	-76.096562	-3.267994
38359	9.550438	-0.143163	2.329870	0.031303	0.033576	0.018770	1.000000	0.000023	0.000026	0.000015	-4.383914	-76.096548	-3.270757
38360	9.602608	-0.128844	2.336402	0.039419	0.048066	0.070712	1.000000	0.000038	0.000010	0.000022	-4.388525	-76.097459	-3.265099
38361	9.557673	-0.143420	2.364146	-0.000008	0.037814	0.034010	1.000000	0.000028	0.000010	0.000015	-4.385966	-76.097792	-3.275934
38362	9.557611	-0.143530	2.364390	-0.000386	0.037808	0.034010	1.000000	0.000043	0.000015	0.000014	-4.386125	-76.098189	-3.274224
38363	9.576862	-0.129324	2.360543	0.009336	0.050828	0.051516	1.000000	0.000028	0.000031	0.000007	-4.377540	-76.099845	-3.283250
38364	9.563528	-0.157817	2.346421	0.016173	0.020984	0.035711	1.000000	0.000025	0.000024	0.000022	-4.383340	-76.099168	-3.277868
38365	9.551119	-0.129841	2.384649	-0.019802	0.053822	0.032311	1.000000	0.000028	0.000010	0.000015	-4.379726	-76.099357	-3.285051
38366	9.563366	-0.158162	2.347057	0.015533	0.020693	0.035713	1.000000	0.000032	0.000022	0.000011	-4.379605	-76.098992	-3.284992
