// Start Time: Unknown
// Update Rate: 40.0Hz
// Filter Profile: human (46.1)
// Firmware Version: 4.4.0
PacketCounter	Acc_X	Acc_Y	Acc_Z	FreeAcc_X	FreeAcc_Y	FreeAcc_Z	OriInc_q0	OriInc_q1	OriInc_q2	OriInc_q3	Roll	Pitch	Yaw
41137	9.520844	-0.069259	2.461819	0.000000	0.000000	0.021530	1.000000	0.000064	0.000015	0.000031	-1.608398	-75.497904	-6.882015
41138	9.558708	-0.066935	2.449143	0.022033	-0.000793	0.054997	1.000000	0.000088	0.000031	0.000025	-1.609154	-75.494228	-6.870828
41139	9.550419	-0.061548	2.463412	0.007570	0.006855	0.050506	1.000000	0.000112	0.000020	0.000038	-1.612282	-75.492138	-6.854190
41140	9.539790	-0.057456	2.455869	0.013118	0.010136	0.038298	1.000000	0.000095	0.000016	0.000022	-1.610720	-75.490247	-6.844534
41141	9.528470	-0.062272	2.444469	0.020757	0.003997	0.024518	1.000000	0.000056	0.000011	0.000015	-1.610280	-75.489091	-6.838365
41142	9.526753	-0.054638	2.426780	0.038526	0.009000	0.018371	1.000000	0.000063	0.000011	0.000015	-1.608454	-75.488206	-6.832688
41143	9.553351	-0.044060	2.396877	0.075205	0.014182	0.036557	1.000000	0.000070	-0.000003	0.000004	-1.600344	-75.489501	-6.832634
41144	9.561205	-0.023808	2.373027	0.102802	0.030265	0.038048	1.000000	0.000088	0.000033	0.000018	-1.594370	-75.488033	-6.828218
41145	9.571650	-0.040834	2.386954	0.089645	0.014849	0.051766	1.000000	0.000097	0.000052	0.000037	-1.591974	-75.486351	-6.818768
41146	9.525195	-0.038102	2.415048	0.051754	0.022817	0.013810	1.000000	0.000082	0.000075	0.000042	-1.591237	-75.483936	-6.809195
41147	9.534650	-0.051805	2.420615	0.047015	0.009778	0.024452	1.000000	0.000075	0.000072	0.000058	-1.595671	-75.482722	-6.795013
41148	9.534596	-0.077961	2.432077	0.031881	-0.014432	0.027454	1.000000	0.000057	0.000038	0.000036	-1.591851	-75.486789	-6.791024
41149	9.528465	-0.058652	2.463154	0.002903	0.009243	0.029169	1.000000	0.000074	0.000053	0.000038	-1.589348	-75.488736	-6.784359
41150	9.545995	-0.051927	2.444063	0.026043	0.012431	0.041313	1.000000	0.000072	0.000041	0.000020	-1.578650	-75.492037	-6.785994
41151	9.548111	-0.050802	2.466681	0.004625	0.016445	0.049017	1.000000	0.000082	0.000058	0.000047	-1.577035	-75.493386	-6.777276
41152	9.537547	-0.072566	2.470119	-0.004696	-0.004538	0.039800	1.000000	0.000073	0.000039	0.000028	-1.567169	-75.495830	-6.779244
41153	9.538083	-0.064120	2.474551	-0.008122	0.004514	0.041371	1.000000	0.000067	0.000032	0.000065	-1.576464	-75.499387	-6.761348
41154	9.527435	-0.060458	2.467094	-0.003562	0.007465	0.029170	1.000000	0.000080	0.000017	0.000023	-1.566680	-75.503072	-6.762448
41155	9.531699	-0.072673	2.419015	0.040889	-0.011779	0.021355	1.000000	0.000071	-0.000015	0.000025	-1.559635	-75.509919	-6.761716
41156	9.551039	-0.060596	2.411612	0.053483	-0.001630	0.038152	1.000000	0.000095	0.000001	0.000019	-1.549396	-75.514887	-6.759315
41157	9.550986	-0.060732	2.411819	0.051973	-0.001828	0.038160	1.000000	0.000104	0.000019	0.000045	-1.548768	-75.521163	-6.747846
41158	9.551392	-0.039327	2.411188	0.055670	0.019353	0.038251	1.000000	0.000058	0.000069	0.000034	-1.550655	-75.518795	-6.740711
41159	9.550275	-0.035909	2.403412	0.063419	0.021656	0.035203	1.000000	0.000050	0.000055	0.000032	-1.550359	-75.519090	-6.735669
41160	9.550220	-0.061833	2.414821	0.048352	-0.002482	0.038178	1.000000	0.000073	0.000045	0.000037	-1.546866	-75.521874	-6.729532
41161	9.550723	-0.053233	2.419412	0.044969	0.006640	0.039756	1.000000	0.000081	0.000043	0.000044	-1.546257	-75.523872	-6.717751
41162	9.540803	-0.053345	2.421280	0.039668	0.007204	0.030622	1.000000	0.000074	0.000044	0.000044	-1.546777	-75.530027	-6.710105
41163	9.540511	-0.053814	2.422419	0.038145	0.007001	0.030628	1.000000	0.000074	0.000075	0.000043	-1.547608	-75.529907	-6.702110
41164	9.533637	-0.056089	2.455329	0.003865	0.009445	0.032205	1.000000	0.000073	0.000056	0.000023	-1.539117	-75.535221	-6.703760
41165	9.533419	-0.056226	2.456170	0.002574	0.009138	0.032206	1.000000	0.000065	0.000032	0.000027	-1.532322	-75.538759	-6.698781
41166	9.542960	-0.057066	2.455773	0.004616	0.008100	0.041351	1.000000	0.000066	0.000033	0.000058	-1.540484	-75.542070	-6.681003
41167	9.551015	-0.063193	2.442507	0.017523	0.000195	0.045883	1.000000	0.000080	0.000013	0.000038	-1.538276	-75.548910	-6.673076
41168	9.529996	-0.067885	2.432155	0.020869	-0.005303	0.022980	1.000000	0.000080	0.000017	0.000023	-1.532545	-75.552798	-6.671090
41169	9.549268	-0.068734	2.430651	0.026155	-0.007007	0.041275	1.000000	0.000065	0.000039	0.000028	-1.529975	-75.556133	-6.666140
41170	9.548999	-0.056321	2.426136	0.032312	0.004768	0.039806	1.000000	0.000065	0.000036	0.000043	-1.536008	-75.555483	-6.651386
41171	9.549647	-0.060246	2.435718	0.022447	0.002193	0.042849	1.000000	0.000079	0.000027	0.000009	-1.527029	-75.557724	-6.653487
41172	9.527772	-0.061251	2.416609	0.035204	-0.000744	0.016908	1.000000	0.000066	0.000026	0.000056	-1.539933	-75.557691	-6.632098
41173	9.557380	-0.041054	2.412629	0.049609	0.018133	0.044451	1.000000	0.000088	0.000037	0.000034	-1.541258	-75.554773	-6.620123
41174	9.537073	-0.049521	2.411614	0.044117	0.010057	0.024591	1.000000	0.000072	0.000032	0.000026	-1.536214	-75.556385	-6.613249
41175	9.546588	-0.050038	2.411347	0.046823	0.009244	0.033742	1.000000	0.000081	0.000046	0.000029	-1.536928	-75.554519	-6.606283
41176	9.547145	-0.054097	2.421275	0.037269	0.006747	0.036782	1.000000	0.000066	0.000053	0.000039	-1.544949	-75.551952	-6.595403
41177	9.547627	-0.045428	2.425947	0.033755	0.015784	0.038357	1.000000	0.000065	0.000047	0.000030	-1.537404	-75.554445	-6.587666
41178	9.537766	-0.058129	2.433106	0.022592	0.004650	0.030677	1.000000	0.000073	0.000045	0.000037	-1.542443	-75.555112	-6.578498
41179	9.547269	-0.058917	2.432875	0.025387	0.003612	0.039827	1.000000	0.000065	0.000036	0.000043	-1.546094	-75.553665	-6.563650
41180	9.538865	-0.053748	2.447432	0.009140	0.010907	0.035285	1.000000	0.000074	0.000053	0.000038	-1.540046	-75.558326	-6.553238
41181	9.537112	-0.059188	2.435642	0.019277	0.003781	0.030685	1.000000	0.000072	0.000041	0.000020	-1.532078	-75.558788	-6.549822
41182	9.543620	-0.070258	2.409855	0.043841	-0.010862	0.030634	1.000000	0.000073	0.000021	0.000040	-1.536683	-75.561224	-6.537467
41183	9.536072	-0.055986	2.427618	0.025530	0.006288	0.027660	1.000000	0.000064	0.000015	0.000031	-1.540233	-75.570149	-6.530586
41184	9.546450	-0.060237	2.436052	0.019590	0.002929	0.039840	1.000000	0.000080	0.000033	0.000018	-1.536654	-75.568077	-6.526293
41185	9.543880	-0.049020	2.409884	0.045555	0.010605	0.030758	1.000000	0.000081	0.000046	0.000029	-1.540559	-75.567661	-6.518830
41186	9.543711	-0.049211	2.410550	0.044737	0.010546	0.030762	1.000000	0.000080	0.000022	0.000032	-1.541761	-75.569698	-6.509038
41187	9.544343	-0.053047	2.420155	0.036581	0.007984	0.033786	1.000000	0.000064	0.000042	0.000013	-1.540984	-75.559999	-6.505248
41188	9.544840	-0.044196	2.424769	0.033516	0.017578	0.035358	1.000000	0.000073	0.000053	0.000038	-1.551094	-75.559542	-6.494068
41189	9.545355	-0.048381	2.434816	0.024181	0.015269	0.038386	1.000000	0.000082	0.000058	0.000047	-1.565818	-75.555119	-6.478351
41190	9.544404	-0.057803	2.431971	0.025327	0.006067	0.036820	1.000000	0.000065	0.000030	0.000034	-1.575629	-75.557342	-6.469118
41191	9.544129	-0.045480	2.427542	0.031973	0.017688	0.035363	1.000000	0.000074	0.000059	0.000047	-1.579858	-75.551230	-6.451565
41192	9.543927	-0.058657	2.433824	0.024224	0.005281	0.036823	1.000000	0.000081	0.000045	0.000036	-1.571938	-75.551021	-6.439629
41193	9.533202	-0.055029	2.426755	0.028334	0.008819	0.024651	1.000000	0.000066	0.000050	0.000053	-1.589475	-75.554235	-6.422563
41194	9.551669	-0.065350	2.421882	0.035502	-0.002393	0.041393	1.000000	0.000081	0.000036	0.000042	-1.588478	-75.559085	-6.409326
41195	9.542546	-0.056207	2.427159	0.030007	0.007778	0.033808	1.000000	0.000080	0.000024	0.000024	-1.589499	-75.556548	-6.401733
41196	9.540178	-0.083544	2.416739	0.034017	-0.020635	0.029112	1.000000	0.000066	0.000044	0.000045	-1.590233	-75.565044	-6.388697
41197	9.551959	-0.069856	2.432777	0.023339	-0.004822	0.044423	1.000000	0.000087	0.000025	0.000016	-1.592418	-75.567049	-6.385800
41198	9.542056	-0.069534	2.434545	0.019950	-0.003979	0.035270	1.000000	0.000073	0.000054	0.000031	-1.598325	-75.561166	-6.374782
41199	9.551463	-0.057259	2.429247	0.029169	0.008148	0.042974	1.000000	0.000064	0.000050	0.000015	-1.618377	-75.561485	-6.373615
41200	9.542250	-0.047877	2.434872	0.023597	0.018444	0.035385	1.000000	0.000073	0.000048	0.000022	-1.621371	-75.556813	-6.366522
41201	9.561407	-0.048645	2.433890	0.029346	0.016979	0.053697	1.000000	0.000073	0.000057	0.000016	-1.619452	-75.555367	-6.363816
41202	9.551452	-0.060702	2.441329	0.019080	0.006231	0.045994	1.000000	0.000087	0.000061	-0.000008	-1.614236	-75.549279	-6.371222
41203	9.522090	-0.071719	2.450726	0.001381	-0.003489	0.019982	1.000000	0.000087	0.000054	-0.000009	-1.593376	-75.548537	-6.379606
41204	9.514360	-0.056533	2.469094	-0.016023	0.014066	0.016972	1.000000	0.000079	0.000052	-0.000001	-1.591607	-75.548369	-6.384848
41205	9.513420	-0.052228	2.460765	-0.009606	0.017095	0.013953	1.000000	0.000085	0.000016	-0.000016	-1.580094	-75.561867	-6.399007
41206	9.524599	-0.034097	2.467107	-0.008977	0.035592	0.026236	1.000000	0.000078	-0.000019	0.000008	-1.590137	-75.555293	-6.395004
41207	9.571749	-0.041176	2.449028	0.019186	0.024658	0.067436	1.000000	0.000062	-0.000028	0.000015	-1.589076	-75.554856	-6.387930
41208	9.549369	-0.025493	2.414561	0.048333	0.036356	0.037061	1.000000	0.000086	-0.000023	0.000023	-1.592891	-75.557585	-6.379960
41209	9.556191	-0.049144	2.393211	0.065963	0.011022	0.038515	1.000000	0.000094	-0.000014	0.000016	-1.615921	-75.565334	-6.378215
41210	9.544142	-0.037534	2.367325	0.089497	0.020417	0.020311	1.000000	0.000088	0.000024	0.000024	-1.644389	-75.563345	-6.372183
41211	9.554432	-0.029036	2.370611	0.089529	0.029581	0.031037	1.000000	0.000065	0.000039	0.000028	-1.659096	-75.566111	-6.363834
41212	9.572871	-0.026329	2.360459	0.105991	0.030205	0.046327	1.000000	0.000065	0.000047	0.000030	-1.659665	-75.555029	-6.353456
41213	9.556182	-0.015550	2.388897	0.075398	0.046125	0.037179	1.000000	0.000067	0.000071	0.000065	-1.687187	-75.558344	-6.331328
41214	9.536452	-0.028297	2.397586	0.063167	0.036388	0.020309	1.000000	0.000067	0.000074	0.000050	-1.718709	-75.542808	-6.316486
41215	9.530118	-0.034617	2.439898	0.020301	0.037309	0.024773	1.000000	0.000061	0.000101	0.000072	-1.752936	-75.541327	-6.287394
41216	9.529700	-0.035772	2.441511	0.019824	0.038548	0.024770	1.000000	0.000060	0.000068	0.000081	-1.809262	-75.536951	-6.256600
41217	9.521217	-0.044122	2.461636	-0.002665	0.034484	0.021639	1.000000	0.000052	0.000052	0.000086	-1.839386	-75.538307	-6.223154
41218	9.530666	-0.058596	2.467046	-0.008580	0.021566	0.032251	1.000000	0.000068	0.000059	0.000086	-1.857300	-75.544790	-6.189488
41219	9.539370	-0.056616	2.457983	0.003541	0.024024	0.038398	1.000000	0.000044	0.000037	0.000083	-1.906647	-75.541519	-6.158944
41220	9.545912	-0.068896	2.432311	0.029583	0.009716	0.038422	1.000000	0.000075	0.000029	0.000080	-1.944091	-75.534046	-6.127026
41221	9.544183	-0.088126	2.425922	0.032690	-0.009123	0.035314	1.000000	0.000068	0.000068	0.000080	-1.968206	-75.531986	-6.098681
41222	9.552834	-0.073194	2.411706	0.048650	0.004970	0.040025	1.000000	0.000059	0.000047	0.000069	-1.996140	-75.545395	-6.075449
41223	9.533166	-0.086023	2.420012	0.036829	-0.005302	0.023151	1.000000	0.000059	0.000057	0.000055	-2.018006	-75.528778	-6.053086
41224	9.544105	-0.069004	2.427340	0.035655	0.012830	0.035421	1.000000	0.000050	0.000046	0.000038	-2.029603	-75.525404	-6.039585
41225	9.552834	-0.079071	2.423611	0.039825	0.003055	0.043031	1.000000	0.000074	0.000048	0.000061	-2.054633	-75.526867	-6.019691
41226	9.552622	-0.066992	2.419063	0.043094	0.015219	0.041593	1.000000	0.000089	0.000034	0.000049	-2.063560	-75.544249	-6.000965
41227	9.561370	-0.064184	2.409910	0.051015	0.018291	0.047771	1.000000	0.000082	0.000051	0.000045	-2.096506	-75.564596	-5.990060
41228	9.533464	-0.083396	2.437273	0.013116	0.004454	0.027739	1.000000	0.000097	0.000061	0.000031	-2.103684	-75.576733	-5.983680
41229	9.515942	-0.068461	2.456849	-0.007998	0.022226	0.015506	1.000000	0.000066	0.000077	0.000035	-2.102186	-75.576308	-5.969270
41230	9.536556	-0.051390	2.463348	-0.008845	0.039279	0.036932	1.000000	0.000056	0.000042	0.000014	-2.088019	-75.590562	-5.969025
41231	9.527422	-0.067458	2.479322	-0.031320	0.025985	0.032194	1.000000	0.000072	0.000024	0.000025	-2.087823	-75.607399	-5.963225
41232	9.543787	-0.053618	2.441666	0.009668	0.034466	0.038566	1.000000	0.000079	0.000007	0.000029	-2.093966	-75.614937	-5.951413
41233	9.544471	-0.057518	2.450897	-0.000675	0.031472	0.041557	1.000000	0.000072	0.000015	0.000031	-2.082969	-75.620722	-5.937712
41234	9.532435	-0.059011	2.430574	0.014964	0.027913	0.024867	1.000000	0.000064	0.000023	0.000033	-2.090959	-75.624446	-5.927204
41235	9.541279	-0.055826	2.421081	0.026122	0.029737	0.031051	1.000000	0.000064	0.000027	0.000010	-2.088983	-75.627698	-5.927187
41236	9.539655	-0.073776	2.414305	0.028957	0.010724	0.027962	1.000000	0.000087	0.000025	0.000017	-2.078592	-75.632146	-5.921970
41237	9.547011	-0.063252	2.386832	0.057143	0.017458	0.028188	1.000000	0.000081	0.000028	0.000041	-2.086241	-75.640474	-5.909740
41238	9.558775	-0.049692	2.402868	0.048056	0.032922	0.043429	1.000000	0.000065	0.000045	0.000037	-2.093166	-75.630641	-5.892801
41239	9.548791	-0.049664	2.404917	0.044995	0.033419	0.034259	1.000000	0.000082	0.000067	0.000041	-2.094320	-75.621289	-5.878421
41240	9.539489	-0.053363	2.416189	0.031698	0.031564	0.028078	1.000000	0.000066	0.000068	0.000041	-2.096900	-75.619416	-5.864462
41241	9.550354	-0.061591	2.434478	0.016009	0.026026	0.043215	1.000000	0.000074	0.000060	0.000040	-2.106460	-75.618392	-5.852611
41242	9.531350	-0.064779	2.446655	0.001930	0.025188	0.027857	1.000000	0.000074	0.000069	0.000033	-2.116055	-75.601964	-5.842334
41243	9.550507	-0.065962	2.445746	0.009307	0.024157	0.046193	1.000000	0.000081	0.000036	0.000042	-2.140131	-75.593021	-5.827280
41244	9.521921	-0.056041	2.453056	-0.003874	0.036574	0.020229	1.000000	0.000050	0.000047	0.000030	-2.158643	-75.595689	-5.820250
41245	9.532139	-0.060716	2.461956	-0.010048	0.033569	0.032381	1.000000	0.000066	0.000041	0.000059	-2.181176	-75.593607	-5.796708
41246	9.549917	-0.067425	2.448007	0.007249	0.025573	0.046192	1.000000	0.000080	0.000022	0.000032	-2.198598	-75.592736	-5.787734
41247	9.528139	-0.068541	2.428845	0.018645	0.022404	0.020347	1.000000	0.000065	0.000038	0.000036	-2.196249	-75.600268	-5.778406
41248	9.537677	-0.069175	2.428556	0.018740	0.022231	0.029523	1.000000	0.000088	0.000031	0.000025	-2.204193	-75.615550	-5.776083
41249	9.546485	-0.066062	2.419266	0.027561	0.024591	0.035725	1.000000	0.000065	0.000039	0.000028	-2.217516	-75.631402	-5.771199
41250	9.546331	-0.066329	2.419866	0.026357	0.025170	0.035727	1.000000	0.000064	0.000023	0.000033	-2.235300	-75.636056	-5.762880
41251	9.546200	-0.066587	2.420377	0.023094	0.026200	0.035732	1.000000	0.000088	0.000030	0.000033	-2.256269	-75.652295	-5.757726
41252	9.544541	-0.059428	2.403166	0.043029	0.031156	0.029781	1.000000	0.000057	0.000056	0.000024	-2.266511	-75.634215	-5.750142
41253	9.556224	-0.045482	2.419487	0.031956	0.046241	0.045013	1.000000	0.000080	0.000049	0.000014	-2.246585	-75.635495	-5.746292
41254	9.537244	-0.061018	2.436801	0.009383	0.033354	0.031069	1.000000	0.000089	0.000054	0.000030	-2.243953	-75.629942	-5.736130
41255	9.536254	-0.057459	2.428831	0.019175	0.035955	0.028096	1.000000	0.000073	0.000055	0.000023	-2.250945	-75.618787	-5.730018
41256	9.538199	-0.055973	2.451458	-0.002253	0.040391	0.035580	1.000000	0.000073	0.000045	0.000037	-2.251637	-75.621700	-5.716654
41257	9.526788	-0.061207	2.440652	0.004109	0.034822	0.021894	1.000000	0.000065	0.000047	0.000030	-2.268160	-75.624880	-5.710722
41258	9.535567	-0.058225	2.431510	0.013956	0.036727	0.028102	1.000000	0.000057	0.000039	0.000028	-2.274474	-75.634369	-5.704079
41259	9.539022	-0.051541	2.466588	-0.018914	0.048802	0.040075	1.000000	0.000089	0.000042	0.000051	-2.293519	-75.640516	-5.691381
41260	9.535891	-0.050178	2.436786	0.008786	0.047613	0.029636	1.000000	0.000074	0.000050	0.000053	-2.327817	-75.642779	-5.676745
41261	9.525960	-0.062907	2.443840	-0.005660	0.037578	0.021883	1.000000	0.000072	0.000023	0.000032	-2.347563	-75.665642	-5.674286
41262	9.543131	-0.053195	2.415289	0.027898	0.044725	0.031348	1.000000	0.000073	0.000020	0.000047	-2.396303	-75.663519	-5.667259
41263	9.543717	-0.057208	2.424811	0.017111	0.042360	0.034313	1.000000	0.000072	0.000032	0.000026	-2.395930	-75.670323	-5.664865
41264	9.542869	-0.053779	2.416310	0.024758	0.045685	0.031352	1.000000	0.000064	0.000023	0.000033	-2.421634	-75.676038	-5.656826
41265	9.541976	-0.062963	2.413243	0.026031	0.036947	0.029820	1.000000	0.000080	0.000033	0.000018	-2.435080	-75.677003	-5.662042
41266	9.542470	-0.066670	2.423123	0.014928	0.035023	0.032781	1.000000	0.000065	0.000056	0.000023	-2.443368	-75.683166	-5.660107
41267	9.531718	-0.075541	2.421573	0.013989	0.027016	0.022069	1.000000	0.000074	0.000060	0.000040	-2.467129	-75.674816	-5.656200
41268	9.540456	-0.072692	2.412636	0.024355	0.029001	0.028296	1.000000	0.000050	0.000047	0.000030	-2.479247	-75.680411	-5.652708
41269	9.522284	-0.066609	2.427986	0.006880	0.037648	0.014417	1.000000	0.000072	0.000040	0.000020	-2.479089	-75.675747	-5.649429
41270	9.542964	-0.061965	2.439548	0.000866	0.043695	0.037261	1.000000	0.000079	0.000043	0.000005	-2.482028	-75.679840	-5.665808
41271	9.542001	-0.070859	2.436757	0.001978	0.034243	0.035734	1.000000	0.000080	0.000040	0.000020	-2.478511	-75.680266	-5.665299
41272	9.525266	-0.059219	2.464808	-0.029581	0.051203	0.026316	1.000000	0.000073	0.000055	0.000023	-2.501117	-75.692903	-5.663969
41273	9.534004	-0.068753	2.461111	-0.025416	0.040633	0.033973	1.000000	0.000095	0.000031	0.000025	-2.490642	-75.695104	-5.656353
41274	9.542079	-0.074666	2.448229	-0.012235	0.032454	0.038681	1.000000	0.000080	0.000039	0.000027	-2.483085	-75.696323	-5.648047
41275	9.529982	-0.088451	2.433608	-0.004576	0.017572	0.023496	1.000000	0.000094	0.000029	-0.000006	-2.483190	-75.705818	-5.659205
41276	9.531396	-0.069797	2.441207	-0.008704	0.036825	0.026542	1.000000	0.000101	0.000013	-0.000002	-2.478899	-75.705451	-5.665888
41277	9.539605	-0.062495	2.422608	0.011395	0.041177	0.029831	1.000000	0.000087	0.000028	0.000002	-2.476306	-75.709072	-5.671425
41278	9.538811	-0.058583	2.413949	0.018301	0.043334	0.026890	1.000000	0.000087	0.000010	0.000014	-2.462285	-75.719924	-5.666446
41279	9.549150	-0.062452	2.422342	0.013385	0.040480	0.039018	1.000000	0.000087	0.000019	0.000008	-2.465173	-75.712790	-5.669412
41280	9.538644	-0.057961	2.414622	0.015029	0.043572	0.026895	1.000000	0.000110	0.000020	-0.000001	-2.440003	-75.734645	-5.670296
41281	9.539307	-0.035757	2.413362	0.017913	0.064666	0.027001	1.000000	0.000095	0.000043	0.000004	-2.421312	-75.742096	-5.669544
41282	9.539098	-0.035467	2.414192	0.017199	0.064974	0.027001	1.000000	0.000064	0.000044	0.000006	-2.421373	-75.741499	-5.679014
41283	9.548609	-0.035877	2.414055	0.019743	0.064141	0.036190	1.000000	0.000080	0.000039	0.000027	-2.421495	-75.740788	-5.675801
41284	9.538705	-0.035518	2.415746	0.014823	0.065953	0.026998	1.000000	0.000072	0.000040	0.000020	-2.441560	-75.746853	-5.682785
41285	9.558657	-0.027604	2.418366	0.017592	0.073450	0.046901	1.000000	0.000058	0.000053	0.000039	-2.439538	-75.750051	-5.672666
41286	9.541124	-0.025283	2.442882	-0.010907	0.079583	0.035912	1.000000	0.000089	0.000052	0.000037	-2.435655	-75.755888	-5.657824
41287	9.538658	-0.040069	2.427695	0.001983	0.063068	0.029940	1.000000	0.000081	0.000052	0.000038	-2.442143	-75.750185	-5.647304
41288	9.538897	-0.069325	2.448922	-0.023619	0.037108	0.035696	1.000000	0.000066	0.000078	0.000028	-2.439820	-75.755920	-5.646589
41290	9.531799	-0.079737	2.436580	-0.026177	0.052562	9.864467	1.000000	0.000116	0.000088	0.000090	-2.478985	-75.744883	-5.620331
41291	9.543511	-0.087358	2.413070	0.012895	0.015821	0.031536	1.000000	0.000072	0.000048	0.000022	-2.484684	-75.738242	-5.623778
41292	9.553694	-0.091437	2.422049	0.006380	0.012586	0.043658	1.000000	0.000088	0.000040	0.000019	-2.479288	-75.737580	-5.625513
41293	9.544449	-0.094516	2.432881	-0.006810	0.011068	0.037398	1.000000	0.000080	0.000049	0.000014	-2.473690	-75.737561	-5.626575
41294	9.544936	-0.085060	2.437528	-0.009546	0.020763	0.038914	1.000000	0.000079	0.000062	-0.000015	-2.460846	-75.735068	-5.647343
41295	9.523839	-0.076139	2.422487	0.002280	0.027590	0.014671	1.000000	0.000094	0.000064	-0.000023	-2.450907	-75.727088	-5.674395
41296	9.544404	-0.070865	2.434467	-0.001327	0.032975	0.037501	1.000000	0.000087	0.000061	-0.000008	-2.436400	-75.714362	-5.688827
41297	9.553810	-0.070441	2.434782	0.001097	0.032112	0.046693	1.000000	0.000094	0.000066	-0.000038	-2.404230	-75.711406	-5.717768
41298	9.552201	-0.049429	2.412486	0.025933	0.047824	0.039425	1.000000	0.000071	0.000067	-0.000037	-2.359508	-75.704843	-5.749568
41299	9.542129	-0.047866	2.414838	0.021883	0.048894	0.030234	1.000000	0.000079	0.000083	-0.000042	-2.334307	-75.700684	-5.783104
41300	9.561232	-0.035051	2.409117	0.032676	0.058808	0.047217	1.000000	0.000056	0.000082	-0.000033	-2.299141	-75.706707	-5.808842
41301	9.550332	-0.042556	2.408210	0.028462	0.050335	0.036515	1.000000	0.000087	0.000099	-0.000047	-2.262898	-75.713015	-5.838182
41302	9.525032	-0.010831	2.445293	-0.008929	0.085952	0.020845	1.000000	0.000103	0.000114	-0.000045	-2.226103	-75.711504	-5.868705
41303	9.504471	0.007477	2.434633	-0.000079	0.101424	-0.001868	1.000000	0.000072	0.000104	-0.000030	-2.193802	-75.704422	-5.892896
41304	9.516714	0.043519	2.449741	-0.003005	0.138289	0.013392	1.000000	0.000051	0.000085	0.000037	-2.204912	-75.684481	-5.887026
41305	9.517587	0.010123	2.480086	-0.036828	0.109717	0.022046	1.000000	0.000044	0.000046	0.000077	-2.222001	-75.688353	-5.864081
41306	9.545534	-0.039398	2.491141	-0.045908	0.062695	0.052328	1.000000	0.000090	0.000038	0.000073	-2.250337	-75.680541	-5.841350
41307	9.523115	-0.050472	2.468301	-0.031995	0.049769	0.025060	1.000000	0.000074	0.000022	0.000079	-2.264765	-75.687207	-5.817626
41308	9.511161	-0.065278	2.453301	-0.021617	0.033959	0.009915	1.000000	0.000103	0.000004	0.000043	-2.272015	-75.682799	-5.807690
41309	9.521596	-0.044264	2.450884	-0.013381	0.054025	0.019224	1.000000	0.000041	0.000041	0.000022	-2.267887	-75.678104	-5.808038
41310	9.528236	-0.068821	2.430870	0.000989	0.027284	0.020949	1.000000	0.000057	0.000019	0.000056	-2.278905	-75.697397	-5.793799
41311	9.530175	-0.080433	2.458244	-0.027035	0.020230	0.029697	1.000000	0.000057	0.000002	0.000060	-2.295851	-75.702389	-5.776964
41312	9.528084	-0.083098	2.436583	-0.007935	0.014874	0.022349	1.000000	0.000056	-0.000004	0.000051	-2.296716	-75.707459	-5.760470
41313	9.532081	-0.105796	2.385421	0.036585	-0.014133	0.013831	1.000000	0.000095	0.000016	0.000022	-2.295834	-75.720689	-5.765262
41314	9.552861	-0.088416	2.391350	0.037977	0.002876	0.035261	1.000000	0.000111	0.000049	0.000012	-2.279305	-75.721091	-5.767108
41315	9.547296	-0.045725	2.420163	0.015964	0.048546	0.036552	1.000000	0.000056	0.000072	-0.000020	-2.261388	-75.713160	-5.787773
41316	9.539325	-0.042869	2.444043	-0.008957	0.054148	0.034692	1.000000	0.000080	0.000067	0.000002	-2.247510	-75.715632	-5.799914
41317	9.527397	-0.018816	2.413497	0.021147	0.073210	0.015375	1.000000	0.000065	0.000065	0.000017	-2.232054	-75.712850	-5.799949
41318	9.529172	-0.017149	2.436326	0.000121	0.078491	0.022705	1.000000	0.000089	0.000058	0.000046	-2.250803	-75.712385	-5.795808
41319	9.530196	-0.024644	2.455590	-0.017949	0.073515	0.028524	1.000000	0.000081	0.000061	0.000032	-2.246963	-75.705085	-5.791706
41320	9.559796	-0.017326	2.457610	-0.011112	0.080170	0.057637	1.000000	0.000074	0.000059	0.000047	-2.248941	-75.702237	-5.782526
41321	9.531150	-0.007324	2.464797	-0.020916	0.091924	0.031561	1.000000	0.000065	0.000045	0.000037	-2.257357	-75.687128	-5.778506
41322	9.518994	-0.034630	2.455770	-0.017777	0.064112	0.017818	1.000000	0.000073	0.000026	0.000056	-2.268122	-75.680914	-5.760267
41323	9.527206	-0.041438	2.442640	-0.003975	0.056350	0.022589	1.000000	0.000042	0.000010	0.000062	-2.294611	-75.681651	-5.745269
41324	9.527685	-0.058533	2.457498	-0.021850	0.042920	0.026885	1.000000	0.000089	0.000017	0.000062	-2.323019	-75.690245	-5.738662
41325	9.534503	-0.070721	2.431705	0.004051	0.027637	0.027239	1.000000	0.000065	0.000011	0.000054	-2.336911	-75.683976	-5.728532
41326	9.541204	-0.095379	2.411496	0.021194	0.000640	0.028986	1.000000	0.000080	0.000021	0.000040	-2.339957	-75.686334	-5.724527
41327	9.543253	-0.080931	2.428082	0.007384	0.017336	0.034924	1.000000	0.000063	0.000027	0.000010	-2.337194	-75.688554	-5.736763
41328	9.543191	-0.068195	2.423211	0.014935	0.029213	0.033531	1.000000	0.000064	0.000042	0.000013	-2.338788	-75.681125	-5.744284
41329	9.543117	-0.055522	2.418393	0.021835	0.041297	0.032139	1.000000	0.000072	0.000033	0.000019	-2.345698	-75.678714	-5.753608
41330	9.542940	-0.055595	2.419087	0.020841	0.041189	0.032141	1.000000	0.000080	0.000039	0.000027	-2.343207	-75.679871	-5.753905
41331	9.534400	-0.049634	2.433474	0.005908	0.048800	0.027364	1.000000	0.000080	0.000057	0.000015	-2.329154	-75.677767	-5.761000
41332	9.544577	-0.040984	2.437277	0.007675	0.057485	0.038078	1.000000	0.000065	0.000065	0.000017	-2.330967	-75.667351	-5.768806
41333	9.536215	-0.009653	2.440729	0.005768	0.088523	0.030522	1.000000	0.000080	0.000049	0.000014	-2.311532	-75.673012	-5.768949
41334	9.537299	-0.017020	2.459668	-0.012457	0.083968	0.036329	1.000000	0.000073	0.000035	0.000050	-2.325656	-75.669831	-5.763268
41335	9.536558	-0.001365	2.445867	0.002034	0.097888	0.032039	1.000000	0.000073	0.000051	0.000046	-2.329584	-75.673427	-5.758220
41336	9.526385	-0.026907	2.458722	-0.016749	0.075221	0.025610	1.000000	0.000066	0.000040	0.000067	-2.347991	-75.676732	-5.749161
41337	9.525335	-0.049368	2.461408	-0.022190	0.053840	0.025483	1.000000	0.000081	0.000027	0.000048	-2.355206	-75.674670	-5.740541
41338	9.543284	-0.056520	2.447365	-0.006077	0.044687	0.039472	1.000000	0.000065	0.000002	0.000060	-2.364228	-75.680716	-5.721838
41339	9.522460	-0.049171	2.431401	0.005591	0.050314	0.015273	1.000000	0.000073	0.000042	0.000052	-2.363139	-75.675702	-5.709966
41340	9.534061	-0.048274	2.452779	-0.012990	0.054639	0.031784	1.000000	0.000073	0.000020	0.000047	-2.378334	-75.683688	-5.708217
41341	9.541448	-0.063900	2.436434	-0.000069	0.036663	0.035063	1.000000	0.000065	0.000044	0.000044	-2.370393	-75.696190	-5.699448
41342	9.530796	-0.072714	2.434468	-0.002780	0.027849	0.024345	1.000000	0.000087	0.000025	0.000017	-2.359430	-75.701680	-5.709517
41343	9.538951	-0.078718	2.421640	0.010401	0.019693	0.029143	1.000000	0.000088	0.000039	0.000027	-2.354947	-75.702441	-5.711841
41344	9.540904	-0.064157	2.438556	-0.003436	0.035976	0.035064	1.000000	0.000080	0.000048	0.000021	-2.344080	-75.702322	-5.714012
41345	9.541576	-0.042320	2.437362	0.000075	0.056866	0.035204	1.000000	0.000072	0.000043	0.000005	-2.325998	-75.707106	-5.724079
41346	9.542023	-0.045750	2.447171	-0.009261	0.055203	0.038090	1.000000	0.000072	0.000033	0.000019	-2.339513	-75.705489	-5.740508
41347	9.533603	-0.027065	2.455950	-0.016173	0.074730	0.031914	1.000000	0.000104	0.000062	0.000023	-2.331427	-75.697898	-5.748309
41348	9.532056	-0.020163	2.438899	0.001102	0.079094	0.026137	1.000000	0.000058	0.000053	0.000039	-2.334539	-75.696331	-5.747456
41349	9.531032	-0.029617	2.436410	0.002133	0.069266	0.024626	1.000000	0.000089	0.000052	0.000037	-2.329389	-75.695020	-5.744727
41350	9.540687	-0.017923	2.430727	0.010882	0.079978	0.032461	1.000000	0.000065	0.000027	0.000049	-2.335448	-75.700596	-5.739238
41351	9.531933	-0.037693	2.455943	-0.018430	0.064338	0.030399	1.000000	0.000073	0.000036	0.000043	-2.338941	-75.701543	-5.735271
41352	9.521446	-0.034116	2.448280	-0.013233	0.067570	0.018306	1.000000	0.000064	0.000021	0.000040	-2.350069	-75.703206	-5.740880
41353	9.530127	-0.056765	2.449998	-0.015450	0.045635	0.027369	1.000000	0.000073	0.000029	0.000041	-2.361749	-75.700456	-5.744597
41354	9.539696	-0.057733	2.449696	-0.013119	0.044549	0.036576	1.000000	0.000057	0.000029	0.000042	-2.365830	-75.701543	-5.742759
41355	9.539372	-0.070889	2.455974	-0.022166	0.032869	0.037941	1.000000	0.000089	0.000042	0.000051	-2.374302	-75.707527	-5.734666
41356	9.537959	-0.064260	2.438441	-0.003706	0.037007	0.032179	1.000000	0.000056	0.000023	0.000033	-2.373806	-75.702394	-5.730217
41357	9.537001	-0.073668	2.435682	-0.002630	0.027298	0.030666	1.000000	0.000089	0.000052	0.000037	-2.371660	-75.700810	-5.730982
41358	9.527201	-0.060592	2.431848	-0.000081	0.039822	0.020091	1.000000	0.000087	0.000041	0.000012	-2.361596	-75.704623	-5.746334
41359	9.527756	-0.051482	2.436177	-0.001672	0.049048	0.021606	1.000000	0.000080	0.000046	0.000029	-2.359539	-75.697344	-5.747104
41360	9.538651	-0.046584	2.448708	-0.009588	0.055129	0.035209	1.000000	0.000072	0.000039	0.000028	-2.356216	-75.693326	-5.752061
41361	9.520243	-0.052746	2.469421	-0.034986	0.051779	0.022553	1.000000	0.000080	0.000048	0.000021	-2.340841	-75.693281	-5.752696
41362	9.530008	-0.027978	2.458341	-0.019113	0.074183	0.029030	1.000000	0.000096	0.000055	0.000022	-2.330280	-75.696220	-5.759466
41363	9.548479	-0.038265	2.453888	-0.012355	0.062770	0.045933	1.000000	0.000064	0.000021	0.000040	-2.331289	-75.701607	-5.760511
41364	9.530495	-0.019337	2.462912	-0.024986	0.083001	0.030541	1.000000	0.000079	0.000016	0.000023	-2.316762	-75.714562	-5.768664
41365	9.527608	-0.030696	2.438219	-0.004035	0.068204	0.021768	1.000000	0.000080	0.000029	0.000041	-2.314164	-75.716217	-5.763289
41366	9.537849	-0.035023	2.446804	-0.010618	0.064810	0.033851	1.000000	0.000071	0.000008	0.000030	-2.310815	-75.718931	-5.769135
41367	9.546873	-0.032244	2.437158	0.001248	0.066130	0.040190	1.000000	0.000072	0.000023	0.000032	-2.314005	-75.718096	-5.772277
41368	9.544429	-0.059954	2.427227	0.005860	0.037367	0.035649	1.000000	0.000073	0.000027	0.000049	-2.315956	-75.720374	-5.761998
41369	9.536571	-0.057809	2.450280	-0.017388	0.043043	0.033695	1.000000	0.000080	0.000030	0.000034	-2.317635	-75.717489	-5.768029
41370	9.544888	-0.051488	2.431918	0.003829	0.046515	0.037165	1.000000	0.000072	0.000039	0.000028	-2.316948	-75.713033	-5.778518
41371	9.533025	-0.053321	2.411701	0.020605	0.042534	0.020699	1.000000	0.000080	0.000021	0.000040	-2.328392	-75.711097	-5.787516
41372	9.552268	-0.054603	2.410745	0.026189	0.040500	0.039123	1.000000	0.000057	0.000056	0.000024	-2.322443	-75.708363	-5.797973
41373	9.543314	-0.073833	2.436556	-0.000298	0.024752	0.037007	1.000000	0.000065	0.000065	0.000017	-2.316345	-75.689200	-5.813587
41374	9.533808	-0.035663	2.421644	0.018432	0.060317	0.023732	1.000000	0.000081	0.000052	0.000038	-2.313986	-75.681319	-5.808733
41375	9.536624	-0.053543	2.467969	-0.027627	0.049127	0.038087	1.000000	0.000073	0.000038	0.000035	-2.318638	-75.681299	-5.818959
41376	9.535936	-0.037634	2.454211	-0.012294	0.062804	0.033862	1.000000	0.000073	0.000063	0.000024	-2.311636	-75.679322	-5.825271
41377	9.517083	-0.027600	2.460117	-0.021281	0.073857	0.016957	1.000000	0.000079	0.000016	0.000023	-2.307120	-75.682471	-5.836176
41378	9.535620	-0.037817	2.455434	-0.016314	0.062690	0.033857	1.000000	0.000072	0.000032	0.000026	-2.303195	-75.697053	-5.837294
41379	9.536890	-0.032560	2.468408	-0.027289	0.069859	0.038239	1.000000	0.000072	0.000012	0.000046	-2.313268	-75.695871	-5.842975
41380	9.534939	-0.022570	2.441664	-0.000889	0.076219	0.029644	1.000000	0.000065	0.000044	0.000044	-2.315509	-75.695157	-5.842335
41381	9.533975	-0.032033	2.438934	0.001427	0.066644	0.028129	1.000000	0.000064	0.000032	0.000027	-2.318153	-75.688716	-5.855836
41382	9.543529	-0.033014	2.438720	0.002458	0.065504	0.037343	1.000000	0.000073	0.000033	0.000058	-2.323589	-75.696668	-5.848597
41383	9.531344	-0.060456	2.429716	0.004584	0.037622	0.023585	1.000000	0.000072	0.000020	0.000048	-2.327625	-75.695543	-5.844374
41384	9.550050	-0.058408	2.419427	0.018826	0.037576	0.039151	1.000000	0.000072	0.000030	0.000034	-2.318999	-75.697803	-5.838249
41385	9.532633	-0.043089	2.437655	-0.000464	0.055838	0.026621	1.000000	0.000080	0.000027	0.000049	-2.325638	-75.696177	-5.836606
41386	9.541350	-0.053078	2.434220	0.003882	0.045128	0.034320	1.000000	0.000081	0.000061	0.000032	-2.319229	-75.692378	-5.847381
41387	9.529978	-0.058550	2.423594	0.011346	0.038299	0.020731	1.000000	0.000066	0.000051	0.000046	-2.320087	-75.687875	-5.841720
41388	9.541610	-0.044711	2.439689	0.001860	0.054102	0.035839	1.000000	0.000080	0.000046	0.000029	-2.321983	-75.681705	-5.848353
41389	9.541975	-0.048405	2.449683	-0.008087	0.051449	0.038701	1.000000	0.000065	0.000047	0.000029	-2.314366	-75.681046	-5.852239
41390	9.543131	-0.042838	2.463076	-0.019205	0.058355	0.043080	1.000000	0.000080	0.000042	0.000012	-2.301052	-75.677312	-5.866962
41391	9.532015	-0.035407	2.446538	-0.004401	0.063288	0.028150	1.000000	0.000081	0.000045	0.000036	-2.298234	-75.673134	-5.870773
41392	9.541527	-0.036212	2.446498	-0.000980	0.062044	0.037366	1.000000	0.000080	0.000037	0.000035	-2.296047	-75.666744	-5.875377
41393	9.542552	-0.043339	2.465309	-0.019414	0.057400	0.043086	1.000000	0.000064	0.000026	0.000018	-2.289936	-75.665327	-5.890409
41394	9.532909	-0.030485	2.460929	-0.015473	0.069460	0.032535	1.000000	0.000057	0.000022	0.000041	-2.289107	-75.663537	-5.891675
41395	9.539127	-0.039139	2.426554	0.018182	0.056247	0.030134	1.000000	0.000088	0.000045	0.000036	-2.293843	-75.660271	-5.902038
41396	9.548662	-0.039988	2.426431	0.020294	0.055158	0.039351	1.000000	0.000080	0.000029	0.000041	-2.295264	-75.662579	-5.903911
41397	9.539366	-0.043694	2.437008	0.007746	0.053485	0.032997	1.000000	0.000066	0.000038	0.000074	-2.311033	-75.659730	-5.888062
41398	9.528439	-0.065622	2.440950	-0.000445	0.032909	0.023603	1.000000	0.000065	0.000053	0.000038	-2.313229	-75.651163	-5.897353
41399	9.537544	-0.050465	2.426217	0.016832	0.045609	0.028627	1.000000	0.000065	0.000038	0.000036	-2.309328	-75.659221	-5.898314
41400	9.529576	-0.048141	2.449483	-0.005964	0.051296	0.026644	1.000000	0.000073	0.000045	0.000037	-2.310297	-75.652142	-5.905744
41401	9.528766	-0.044911	2.441254	0.002133	0.053150	0.023791	1.000000	0.000080	0.000046	0.000029	-2.302909	-75.652244	-5.910729
41402	9.547976	-0.046311	2.440475	0.008231	0.051170	0.042221	1.000000	0.000065	0.000044	0.000044	-2.309353	-75.647704	-5.922232
41403	9.528903	-0.049119	2.452080	-0.007006	0.050506	0.026647	1.000000	0.000088	0.000045	0.000036	-2.308594	-75.641935	-5.924651
41404	9.528091	-0.045707	2.443873	0.000019	0.052493	0.023794	1.000000	0.000080	0.000049	0.000014	-2.295134	-75.648164	-5.941311
41405	9.529280	-0.040138	2.457095	-0.012406	0.059812	0.028165	1.000000	0.000072	0.000023	0.000033	-2.297564	-75.654558	-5.952224
41406	9.538231	-0.037492	2.447888	-0.001599	0.060946	0.034530	1.000000	0.000081	0.000052	0.000038	-2.297226	-75.656441	-5.964147
41407	9.539395	-0.032205	2.461197	-0.012133	0.067701	0.038904	1.000000	0.000080	0.000029	0.000041	-2.293682	-75.650716	-5.967482
41408	9.526202	-0.039703	2.428505	0.014485	0.055715	0.018102	1.000000	0.000072	0.000040	0.000020	-2.280913	-75.652166	-5.970089
41409	9.547600	-0.026215	2.443551	0.006841	0.070514	0.042427	1.000000	0.000088	0.000036	0.000042	-2.281330	-75.654694	-5.966087
41410	9.537524	-0.038582	2.450624	-0.003203	0.059503	0.034539	1.000000	0.000072	0.000023	0.000033	-2.282043	-75.649850	-5.981603
41411	9.534092	-0.046742	2.416968	0.026555	0.046697	0.022959	1.000000	0.000057	0.000031	0.000035	-2.279843	-75.652207	-5.980956
41412	9.535075	-0.054164	2.435823	0.007854	0.042098	0.028654	1.000000	0.000073	0.000035	0.000050	-2.285744	-75.650911	-5.976772
41413	9.535082	-0.042214	2.430938	0.014145	0.053280	0.027333	1.000000	0.000074	0.000050	0.000053	-2.286802	-75.650576	-5.967577
41414	9.545706	-0.050150	2.449264	-0.001888	0.047488	0.042243	1.000000	0.000081	0.000045	0.000036	-2.277336	-75.650455	-5.966120
41415	9.533816	-0.052141	2.429374	0.014911	0.043150	0.025816	1.000000	0.000073	0.000053	0.000038	-2.283013	-75.644626	-5.972323
41416	9.514722	-0.054720	2.441005	-0.000832	0.042314	0.010227	1.000000	0.000072	0.000040	0.000020	-2.270831	-75.642290	-5.978814
41417	9.533722	-0.068635	2.445901	-0.003067	0.028630	0.029984	1.000000	0.000073	0.000044	0.000044	-2.272937	-75.643441	-5.977735
41418	9.525401	-0.050153	2.454249	-0.011389	0.048088	0.023810	1.000000	0.000080	0.000031	0.000026	-2.261276	-75.649222	-5.977636
41419	9.533601	-0.056416	2.441537	0.002033	0.039593	0.028667	1.000000	0.000072	0.000033	0.000019	-2.253210	-75.648371	-5.988711
41420	9.515805	-0.024685	2.444927	-0.001390	0.071729	0.011959	1.000000	0.000072	0.000038	0.000035	-2.251196	-75.649669	-5.994459
41421	9.553979	-0.052316	2.454043	-0.005228	0.044596	0.051468	1.000000	0.000112	0.000058	0.000045	-2.247781	-75.651850	-5.995832
41422	9.543846	-0.064548	2.461284	-0.015372	0.033505	0.043566	1.000000	0.000071	0.000016	0.000024	-2.242031	-75.648106	-6.011902
41423	9.514576	-0.034325	2.443213	-0.001731	0.061322	0.010442	1.000000	0.000039	-0.000010	0.000005	-2.230340	-75.653975	-6.035882
41424	9.515319	0.003526	2.425862	0.019597	0.095867	0.006505	1.000000	0.000054	-0.000010	0.000004	-2.216311	-75.658959	-6.062868
41425	9.570299	-0.007841	2.387052	0.067875	0.077610	0.050277	1.000000	0.000049	0.000029	0.000042	-2.220166	-75.661474	-6.062386
41426	9.560653	-0.023959	2.403727	0.047803	0.064358	0.045210	1.000000	0.000106	0.000078	0.000065	-2.225174	-75.655280	-6.049412
41427	9.541700	-0.043370	2.430884	0.015222	0.049857	0.033753	1.000000	0.000100	0.000087	0.000098	-2.244253	-75.649709	-6.026724
41428	9.510416	-0.102183	2.454271	-0.022630	-0.003608	0.009806	1.000000	0.000059	0.000065	0.000056	-2.254082	-75.647605	-6.026849
41429	9.514673	-0.060523	2.481435	-0.040431	0.041183	0.020260	1.000000	0.000065	0.000047	0.000029	-2.247460	-75.641399	-6.029474
41430	9.541930	-0.051844	2.452550	-0.004821	0.044398	0.039425	1.000000	0.000048	0.000045	-0.000001	-2.227345	-75.641411	-6.048180
41431	9.530666	-0.056801	2.441599	0.002748	0.037517	0.025850	1.000000	0.000064	0.000034	0.000012	-2.213729	-75.638339	-6.069649
41432	9.542599	-0.030169	2.451651	-0.000326	0.064670	0.039648	1.000000	0.000073	0.000036	0.000043	-2.212476	-75.639061	-6.071097
41433	9.541330	-0.052519	2.454867	-0.005739	0.043120	0.039430	1.000000	0.000090	0.000054	0.000069	-2.221943	-75.631216	-6.064475
41434	9.540339	-0.062191	2.452220	-0.004135	0.033174	0.037906	1.000000	0.000080	0.000022	0.000032	-2.215673	-75.629100	-6.079482
41435	9.522159	-0.055579	2.466685	-0.021624	0.042141	0.023820	1.000000	0.000087	0.000015	0.000031	-2.212471	-75.629992	-6.089806
41436	9.529061	-0.039018	2.420506	0.028126	0.051447	0.018891	1.000000	0.000071	0.000010	0.000015	-2.204425	-75.621819	-6.108264
41437	9.540554	-0.008669	2.421021	0.033967	0.080691	0.029869	1.000000	0.000063	0.000019	0.000009	-2.188143	-75.625836	-6.115556
41438	9.560170	-0.025922	2.434765	0.023268	0.064698	0.052447	1.000000	0.000072	0.000029	0.000041	-2.187136	-75.624443	-6.118010
41439	9.550024	-0.038498	2.441993	0.012062	0.053584	0.044531	1.000000	0.000058	0.000043	0.000052	-2.191331	-75.623521	-6.121665
41440	9.538418	-0.028331	2.416362	0.035369	0.060465	0.026831	1.000000	0.000082	0.000057	0.000054	-2.193591	-75.621908	-6.118613
41441	9.529268	-0.047658	2.442211	0.005253	0.045327	0.024565	1.000000	0.000081	0.000052	0.000038	-2.191464	-75.624151	-6.128636
41442	9.519295	-0.047468	2.443993	0.001010	0.045913	0.015345	1.000000	0.000089	0.000051	0.000045	-2.189591	-75.624705	-6.120534
41443	9.527444	-0.054055	2.431563	0.014503	0.037339	0.020217	1.000000	0.000065	0.000039	0.000028	-2.186652	-75.622414	-6.135524
41444	9.538315	-0.049224	2.444021	0.007007	0.043318	0.033793	1.000000	0.000057	0.000038	0.000036	-2.185100	-75.616138	-6.147520
41445	9.539433	-0.043902	2.457396	-0.004122	0.050320	0.038148	1.000000	0.000073	0.000053	0.000038	-2.183083	-75.611528	-6.161316
41446	9.528958	-0.068679	2.470598	-0.023192	0.027650	0.031515	1.000000	0.000057	0.000041	0.000021	-2.172710	-75.613574	-6.159973
41447	9.536864	-0.059254	2.443158	0.006071	0.032760	0.032270	1.000000	0.000080	0.000036	0.000042	-2.172405	-75.615695	-6.158552
41448	9.526960	-0.058941	2.444664	0.003545	0.033441	0.023048	1.000000	0.000088	0.000039	0.000027	-2.169383	-75.607904	-6.177246
41449	9.548370	-0.045396	2.459625	-0.003406	0.048007	0.047377	1.000000	0.000080	0.000030	0.000034	-2.162724	-75.607268	-6.177018
41450	9.536652	-0.047144	2.439248	0.012686	0.043290	0.030983	1.000000	0.000079	0.000019	0.000008	-2.146893	-75.609393	-6.203243
41451	9.547062	-0.038412	2.442274	0.014505	0.051474	0.041738	1.000000	0.000063	0.000027	0.000010	-2.136274	-75.603411	-6.220382
41452	9.537774	-0.012730	2.431931	0.026346	0.075192	0.029936	1.000000	0.000079	0.000016	0.000023	-2.128657	-75.600708	-6.237408
41453	9.545708	-0.031638	2.425109	0.032422	0.054898	0.036101	1.000000	0.000073	0.000055	0.000023	-2.120081	-75.596490	-6.255181
41454	9.535179	-0.027927	2.417843	0.037502	0.057530	0.024063	1.000000	0.000089	0.000058	0.000046	-2.117904	-75.595007	-6.255715
41455	9.543860	-0.038067	2.414609	0.041303	0.046702	0.031761	1.000000	0.000080	0.000036	0.000042	-2.115435	-75.596116	-6.257621
41456	9.535541	-0.048213	2.443569	0.009771	0.041026	0.030997	1.000000	0.000057	0.000044	0.000045	-2.116954	-75.597158	-6.251655
41457	9.544523	-0.045847	2.434443	0.020831	0.041819	0.037407	1.000000	0.000065	0.000038	0.000036	-2.113660	-75.598957	-6.249972
41458	9.535425	-0.036503	2.439304	0.015180	0.051843	0.029718	1.000000	0.000065	0.000038	0.000036	-2.109720	-75.599412	-6.258253
41459	9.534919	-0.049357	2.445969	0.008065	0.039852	0.031003	1.000000	0.000065	0.000054	0.000031	-2.106217	-75.591059	-6.259995
41460	9.542497	-0.052599	2.424642	0.029165	0.033341	0.033070	1.000000	0.000097	0.000058	0.000046	-2.104310	-75.595113	-6.269056
41461	9.522804	-0.051731	2.427194	0.020521	0.035046	0.014626	1.000000	0.000080	0.000046	0.000029	-2.096585	-75.604279	-6.278904
41462	9.532000	-0.065133	2.433144	0.015655	0.022067	0.025133	1.000000	0.000089	0.000051	0.000045	-2.093549	-75.600879	-6.277059
41463	9.523894	-0.062409	2.456493	-0.008476	0.027946	0.023062	1.000000	0.000088	0.000047	0.000021	-2.079677	-75.601738	-6.278897
41464	9.532854	-0.059581	2.447496	0.002710	0.028652	0.029480	1.000000	0.000080	0.000048	0.000021	-2.066687	-75.601680	-6.287421
41465	9.544237	-0.029292	2.448553	0.009419	0.057863	0.040499	1.000000	0.000080	0.000049	0.000014	-2.052391	-75.598113	-6.305959
41466	9.542109	-0.031542	2.428004	0.028077	0.052179	0.033355	1.000000	0.000081	0.000064	0.000016	-2.038438	-75.597977	-6.329139
41467	9.542611	-0.022331	2.432554	0.026964	0.061205	0.034889	1.000000	0.000104	0.000062	0.000023	-2.026506	-75.587261	-6.347193
41468	9.542479	-0.038305	2.448910	0.009496	0.047177	0.038973	1.000000	0.000074	0.000085	0.000028	-2.017782	-75.582433	-6.359773
41469	9.532895	-0.041221	2.460306	-0.002773	0.045654	0.032555	1.000000	0.000089	0.000070	0.000025	-2.007901	-75.574640	-6.370506
41470	9.532332	-0.053855	2.467157	-0.011061	0.033858	0.033827	1.000000	0.000072	0.000039	0.000028	-2.003618	-75.574892	-6.394201
41471	9.523499	-0.031719	2.466283	-0.009367	0.055453	0.024864	1.000000	0.000072	0.000048	0.000022	-1.991787	-75.575054	-6.402937
41472	9.551096	-0.039278	2.452433	0.009004	0.044772	0.048211	1.000000	0.000072	0.000048	0.000022	-1.979322	-75.578403	-6.407476
41473	9.530896	-0.034828	2.445779	0.012129	0.048297	0.026954	1.000000	0.000088	0.000054	0.000030	-1.971640	-75.571361	-6.423148
41474	9.540052	-0.048093	2.451863	0.006709	0.035521	0.037451	1.000000	0.000081	0.000054	0.000030	-1.966200	-75.570850	-6.436293
41475	9.530673	-0.051058	2.462429	-0.006104	0.034005	0.031026	1.000000	0.000087	0.000015	0.000031	-1.958273	-75.572481	-6.436858
41476	9.538243	-0.038450	2.425500	0.032349	0.040964	0.029054	1.000000	0.000065	0.000029	0.000042	-1.959200	-75.575234	-6.437938
41477	9.539435	-0.033017	2.438472	0.020415	0.048074	0.033394	1.000000	0.000087	0.000022	0.000032	-1.952321	-75.578979	-6.437069
41478	9.540964	-0.014923	2.445486	0.016144	0.066736	0.036470	1.000000	0.000079	0.000015	0.000031	-1.946594	-75.582499	-6.450061
41479	9.536068	-0.041626	2.405230	0.049167	0.034556	0.021938	1.000000	0.000080	0.000037	0.000035	-1.942297	-75.583792	-6.458159
41480	9.546601	-0.049344	2.423557	0.032403	0.029121	0.036768	1.000000	0.000073	0.000044	0.000044	-1.940046	-75.587333	-6.452439
41481	9.536099	-0.045630	2.416250	0.037343	0.031837	0.024748	1.000000	0.000096	0.000070	0.000025	-1.929155	-75.585752	-6.458850
41482	9.535872	-0.061259	2.432906	0.019796	0.017905	0.028803	1.000000	0.000105	0.000105	-0.000000	-1.905145	-75.579033	-6.487672
41483	11.118130	-0.971415	2.621985	0.180997	-0.923097	1.612896	0.999972	0.001670	0.007324	-0.000495	-1.397713	-74.747209	-6.823992
41484	8.804485	0.807304	2.651649	-0.152681	0.906756	-0.628139	0.999988	-0.002324	-0.004177	0.000452	-1.894893	-75.230893	-6.571390
41485	8.683734	0.241434	2.023462	0.290575	0.275240	-0.902036	0.999999	0.001007	-0.000942	0.000074	-1.815370	-75.343738	-6.561701
41486	9.576876	-0.167875	3.371348	-0.854511	0.031469	0.305589	0.999999	0.000491	-0.000883	-0.000373	-1.593017	-75.458766	-6.747030
41487	9.474262	0.138902	2.341463	0.136880	0.191510	-0.055230	1.000000	-0.000404	-0.000381	0.000178	-1.711602	-75.505613	-6.682729
41488	9.508836	-0.122494	2.198277	0.238671	-0.082079	-0.055552	1.000000	-0.000139	-0.000260	0.000315	-1.861174	-75.538453	-6.555049
41489	9.395157	-0.106269	2.230335	0.179568	-0.055863	-0.157673	1.000000	0.000297	0.000078	-0.000019	-1.807153	-75.536172	-6.585018
41490	9.479643	0.001801	2.496518	-0.037223	0.083375	-0.010244	1.000000	0.000261	0.000225	-0.000101	-1.720273	-75.516827	-6.660672
41491	9.664471	-0.052625	2.667553	-0.161236	0.046028	0.211907	1.000000	0.000029	0.000145	0.000009	-1.707272	-75.509392	-6.676032
41492	9.520631	0.049555	2.766029	-0.277606	0.165187	0.096472	1.000000	-0.000022	-0.000005	0.000031	-1.710235	-75.524263	-6.679492
41493	9.511455	0.124616	2.697910	-0.207463	0.231699	0.069888	1.000000	-0.000023	-0.000305	0.000110	-1.755708	-75.564232	-6.658740
41494	9.481218	-0.055443	2.409462	0.027200	0.017272	-0.029997	1.000000	-0.000016	-0.000412	0.000230	-1.853478	-75.619199	-6.564896
41495	9.557176	-0.189085	2.194831	0.224649	-0.143078	-0.008519	1.000000	0.000057	-0.000325	0.000205	-1.931698	-75.661103	-6.483607
41496	9.619036	-0.220880	2.113881	0.307406	-0.185645	0.031812	1.000000	0.000152	-0.000122	0.000043	-1.924445	-75.682744	-6.482374
41497	9.654261	-0.160980	2.144829	0.294112	-0.124435	0.073109	1.000000	0.000129	0.000211	-0.000083	-1.855495	-75.668811	-6.535550
41498	9.561059	-0.025358	2.381504	0.068501	0.042661	0.040207	1.000000	0.000066	0.000411	-0.000101	-1.786769	-75.629286	-6.611601
41499	9.481165	0.028248	2.609387	-0.156015	0.127709	0.018973	1.000000	-0.000013	0.000307	-0.000023	-1.761891	-75.599877	-6.637750
41500	9.443776	0.029319	2.645918	-0.197735	0.134783	-0.008129	1.000000	-0.000022	-0.000010	0.000061	-1.782711	-75.604172	-6.629429
41501	9.516014	-0.059553	2.493100	-0.049204	0.024223	0.024518	1.000000	0.000071	-0.000258	0.000084	-1.804917	-75.635491	-6.610727
41502	9.610580	-0.061675	2.294929	0.157249	-0.007528	0.067037	1.000000	0.000177	-0.000304	0.000057	-1.806418	-75.676185	-6.599342
41503	9.642133	-0.067263	2.183396	0.266433	-0.029678	0.070156	1.000000	0.000191	-0.000089	0.000025	-1.788459	-75.690869	-6.616051
41504	9.595670	-0.036181	2.198461	0.246374	0.003369	0.028589	1.000000	0.000086	0.000241	-0.000023	-1.756506	-75.663796	-6.643128
41505	9.561497	0.005646	2.388352	0.068090	0.070862	0.042100	1.000000	0.000001	0.000453	-0.000021	-1.732139	-75.615466	-6.672913
41506	9.499527	0.019468	2.633651	-0.172870	0.119865	0.042933	1.000000	0.000001	0.000407	0.000025	-1.729456	-75.574788	-6.690443
41507	9.435953	0.011478	2.732871	-0.281330	0.127465	0.006199	1.000000	0.000053	0.000130	0.000044	-1.729711	-75.570298	-6.695754
41508	9.448498	-0.016731	2.659931	-0.214109	0.089795	0.000351	1.000000	0.000100	-0.000135	0.000128	-1.765902	-75.595641	-6.665021
41509	9.472351	-0.087537	2.494927	-0.064461	-0.002539	-0.017097	1.000000	0.000103	-0.000234	0.000119	-1.800055	-75.625955	-6.620654
41510	9.573496	-0.108576	2.406297	0.038553	-0.037689	0.059039	1.000000	0.000066	-0.000117	0.000032	-1.800232	-75.642144	-6.630806
41511	9.602963	-0.082161	2.382793	0.071243	-0.016025	0.081554	1.000000	0.000049	0.000075	0.000004	-1.784784	-75.636440	-6.643953
41512	9.543068	-0.033644	2.467756	-0.017445	0.045057	0.044227	1.000000	0.000051	0.000120	0.000012	-1.769382	-75.630844	-6.645100
41513	9.476844	-0.030277	2.505282	-0.068341	0.055071	-0.010635	1.000000	0.000073	0.000054	0.000030	-1.761918	-75.629024	-6.651573
41514	9.491548	-0.058554	2.463287	-0.029203	0.020706	-0.006597	1.000000	0.000109	-0.000045	0.000058	-1.765554	-75.638272	-6.650361
41515	9.593156	-0.085814	2.394919	0.055627	-0.018601	0.075093	1.000000	0.000106	-0.000105	0.000048	-1.767063	-75.652085	-6.655584
41516	9.609157	-0.060503	2.318622	0.134018	-0.004998	0.071521	1.000000	0.000084	-0.000050	0.000004	-1.750150	-75.662441	-6.679325
41517	9.579010	-0.051727	2.302629	0.142478	0.001597	0.038298	1.000000	0.000065	0.000067	0.000002	-1.732451	-75.659451	-6.699562
41518	9.515208	-0.020513	2.350340	0.085895	0.040336	-0.011937	1.000000	0.000068	0.000143	0.000007	-1.715050	-75.652883	-6.718617
41519	9.520638	-0.003681	2.421260	0.023672	0.066090	0.010761	1.000000	0.000068	0.000150	0.000016	-1.701750	-75.640617	-6.730293
41520	9.554457	0.001891	2.486395	-0.028378	0.079397	0.059632	1.000000	0.000083	0.000106	0.000039	-1.697312	-75.635660	-6.734190
41521	9.544759	-0.001335	2.497995	-0.041483	0.078084	0.053141	1.000000	0.000074	0.000073	0.000057	-1.702967	-75.632498	-6.725988
41522	9.510224	-0.039520	2.466680	-0.025210	0.037150	0.012201	1.000000	0.000043	0.000057	0.000063	-1.714524	-75.631592	-6.708423
41523	9.502408	-0.040512	2.499373	-0.058456	0.041372	0.012746	1.000000	0.000051	0.000067	0.000049	-1.718275	-75.630435	-6.713596
41524	9.531204	-0.042876	2.498605	-0.049976	0.038035	0.040473	1.000000	0.000066	0.000077	0.000035	-1.715506	-75.624149	-6.718444
41525	9.522913	-0.040111	2.522140	-0.074290	0.044248	0.038261	1.000000	0.000104	0.000049	0.000052	-1.714300	-75.626312	-6.709540
41526	9.491100	-0.050333	2.499692	-0.063245	0.031913	0.001943	1.000000	0.000094	-0.000018	0.000040	-1.710737	-75.636846	-6.726867
41527	9.517430	-0.061005	2.462708	-0.026191	0.015571	0.018345	1.000000	0.000084	-0.000066	0.000048	-1.710454	-75.658964	-6.725691
41528	9.553176	-0.084927	2.430633	0.007820	-0.013316	0.045209	1.000000	0.000054	-0.000049	0.000044	-1.714992	-75.670007	-6.721510
41529	9.589868	-0.071127	2.381411	0.065186	-0.007828	0.068479	1.000000	0.000047	-0.000003	0.000006	-1.702923	-75.672219	-6.741778
41530	9.551738	-0.059220	2.387860	0.051152	0.005372	0.033045	1.000000	0.000063	0.000037	-0.000003	-1.684902	-75.670797	-6.763103
41531	9.544305	-0.030855	2.399159	0.042480	0.034556	0.028435	1.000000	0.000103	0.000047	0.000020	-1.670690	-75.670573	-6.765086
41532	9.544402	-0.018456	2.394327	0.049102	0.045726	0.027244	1.000000	0.000105	0.000067	0.000039	-1.665584	-75.668156	-6.761586
41533	9.554787	-0.025931	2.412970	0.032824	0.040444	0.041973	1.000000	0.000088	0.000037	0.000035	-1.660141	-75.668941	-6.759677
41534	9.544875	-0.041455	2.429866	0.011793	0.027689	0.036663	1.000000	0.000058	0.000076	0.000042	-1.660599	-75.667488	-6.758896
41535	9.536472	-0.022772	2.438424	0.004812	0.047391	0.030507	1.000000	0.000057	0.000065	0.000017	-1.650885	-75.664719	-6.771741
41536	9.526834	-0.025544	2.449763	-0.006979	0.046111	0.023998	1.000000	0.000051	0.000087	0.000021	-1.646924	-75.652445	-6.786827
41537	9.538696	-0.014640	2.475559	-0.026752	0.059931	0.041805	1.000000	0.000082	0.000084	0.000035	-1.642203	-75.649947	-6.798234
41538	9.528586	-0.014385	2.477763	-0.030615	0.060636	0.032557	1.000000	0.000090	0.000073	0.000049	-1.643034	-75.646381	-6.799702
41539	9.498703	-0.025592	2.487107	-0.047813	0.051900	0.006005	1.000000	0.000082	0.000064	0.000063	-1.652050	-75.642661	-6.785046
41540	9.506205	-0.057907	2.486484	-0.049450	0.020092	0.013352	1.000000	0.000041	0.000003	0.000061	-1.667085	-75.642782	-6.778621
41541	9.534067	-0.066266	2.472010	-0.030953	0.009169	0.036811	1.000000	0.000047	0.000002	0.000022	-1.660423	-75.648957	-6.794836
41542	9.543795	-0.066992	2.471276	-0.028823	0.007844	0.046056	1.000000	0.000078	-0.000006	0.000020	-1.650611	-75.654272	-6.811478
41543	9.551327	-0.051071	2.424481	0.018411	0.016270	0.041649	1.000000	0.000085	-0.000013	0.000011	-1.634070	-75.664714	-6.830552
41544	9.541520	-0.034587	2.410160	0.031416	0.030371	0.028490	1.000000	0.000095	0.000023	0.000024	-1.624143	-75.666483	-6.845499
41545	9.539726	-0.053141	2.404177	0.033319	0.011036	0.025404	1.000000	0.000080	0.000029	0.000041	-1.622777	-75.669929	-6.850116
41546	9.539543	-0.053424	2.404899	0.031252	0.010758	0.025411	1.000000	0.000080	0.000046	0.000029	-1.613667	-75.676339	-6.855759
41547	9.541019	-0.035165	2.412136	0.026922	0.029476	0.028506	1.000000	0.000072	0.000033	0.000019	-1.602876	-75.679389	-6.867812
41548	9.551380	-0.026759	2.415438	0.026670	0.037684	0.039307	1.000000	0.000065	0.000047	0.000029	-1.596628	-75.683375	-6.872699
41549	9.551947	-0.017669	2.419733	0.023383	0.046905	0.040858	1.000000	0.000080	0.000064	0.000016	-1.582143	-75.685830	-6.877852
41550	9.544011	-0.001982	2.437369	0.006574	0.064757	0.037424	1.000000	0.000073	0.000070	0.000025	-1.573794	-75.686704	-6.897149
41551	9.534817	-0.008293	2.457820	-0.016259	0.061594	0.033612	1.000000	0.000059	0.000074	0.000050	-1.576886	-75.686693	-6.899344
41552	9.524807	-0.024020	2.474934	-0.036532	0.048915	0.028252	1.000000	0.000058	0.000059	0.000047	-1.581785	-75.682526	-6.897352
41553	9.534310	-0.040987	2.490363	-0.051670	0.034156	0.041388	1.000000	0.000081	0.000042	0.000051	-1.583302	-75.684691	-6.882546
41554	9.513396	-0.046028	2.480087	-0.047752	0.028320	0.018619	1.000000	0.000080	0.000037	0.000035	-1.579648	-75.685333	-6.886754
41555	9.531022	-0.050474	2.457503	-0.024061	0.020367	0.030140	1.000000	0.000048	0.000004	0.000054	-1.586069	-75.696768	-6.878336
41556	9.521269	-0.050334	2.458311	-0.028028	0.021062	0.020885	1.000000	0.000071	0.000008	0.000030	-1.580888	-75.701451	-6.869387
41557	9.548644	-0.055201	2.434935	-0.000450	0.012022	0.041673	1.000000	0.000056	0.000023	0.000033	-1.578350	-75.705306	-6.874786
41558	9.539285	-0.058242	2.445087	-0.013315	0.010785	0.035130	1.000000	0.000079	0.000005	0.000045	-1.579571	-75.708658	-6.876204
41559	9.536667	-0.070368	2.420535	0.006912	-0.004698	0.026616	1.000000	0.000071	0.000024	0.000025	-1.571786	-75.712710	-6.882541
41560	9.539114	-0.058714	2.445746	-0.015376	0.010170	0.035128	1.000000	0.000079	0.000015	0.000031	-1.566877	-75.715550	-6.884979
41561	9.548245	-0.040558	2.421219	0.013040	0.024123	0.037804	1.000000	0.000080	0.000039	0.000028	-1.560580	-75.713896	-6.882705
41562	9.549696	-0.022329	2.428564	0.008690	0.042864	0.040901	1.000000	0.000065	0.000055	0.000023	-1.552345	-75.714600	-6.887981
41563	9.550273	-0.029070	2.448056	-0.011162	0.038691	0.046314	1.000000	0.000089	0.000060	0.000039	-1.547084	-75.716053	-6.891629
41564	9.550365	-0.016884	2.443328	-0.005135	0.049857	0.045157	1.000000	0.000058	0.000071	0.000026	-1.540116	-75.717060	-6.900212
41565	9.529383	-0.037392	2.448574	-0.018567	0.030658	0.026254	1.000000	0.000080	0.000046	0.000029	-1.532142	-75.719881	-6.914510
41566	9.540945	-0.023115	2.464548	-0.028656	0.046453	0.041306	1.000000	0.000081	0.000061	0.000031	-1.527015	-75.717090	-6.926413
41567	9.520824	-0.034542	2.472911	-0.043035	0.036783	0.023946	1.000000	0.000065	0.000045	0.000037	-1.526073	-75.716526	-6.929930
41568	9.549373	-0.033698	2.462393	-0.026516	0.035287	0.049011	1.000000	0.000057	0.000029	0.000042	-1.526446	-75.721384	-6.931692
41569	9.528928	-0.042159	2.461158	-0.032054	0.027555	0.028947	1.000000	0.000065	0.000035	0.000051	-1.531220	-75.723959	-6.932798
41570	9.529194	-0.046097	2.470948	-0.041974	0.025336	0.031643	1.000000	0.000072	0.000026	0.000057	-1.538543	-75.724824	-6.931948
41571	9.536288	-0.058898	2.445823	-0.018377	0.008765	0.032408	1.000000	0.000063	0.000012	0.000008	-1.525091	-75.727669	-6.947740
41572	9.537457	-0.053228	2.458597	-0.029984	0.016065	0.036650	1.000000	0.000080	0.000026	0.000056	-1.531087	-75.729466	-6.932377
41573	9.534392	-0.062165	2.425028	-0.000133	0.002455	0.025466	1.000000	0.000048	0.000020	0.000010	-1.520609	-75.731404	-6.953546
41574	9.545665	-0.044598	2.431299	0.000077	0.020113	0.037821	1.000000	0.000096	0.000036	0.000042	-1.520944	-75.725088	-6.947354
41575	9.545082	-0.041577	2.422743	0.008429	0.021705	0.035127	1.000000	0.000079	0.000031	0.000026	-1.513503	-75.726076	-6.948716
41576	9.544908	-0.041633	2.423427	0.007047	0.021413	0.035129	1.000000	0.000080	0.000040	0.000020	-1.502145	-75.729279	-6.972389
41577	9.555658	-0.036390	2.436072	-0.001858	0.027710	0.048630	1.000000	0.000073	0.000055	0.000023	-1.493562	-75.729216	-6.988719
41578	9.546482	-0.026768	2.441120	-0.007358	0.037948	0.040922	1.000000	0.000081	0.000067	0.000040	-1.490831	-75.727287	-6.987778
41579	9.546204	-0.027167	2.442204	-0.007469	0.037638	0.040923	1.000000	0.000057	0.000046	0.000037	-1.492826	-75.722389	-6.988474
41580	9.528158	-0.023512	2.466226	-0.034319	0.045166	0.029334	1.000000	0.000089	0.000067	0.000040	-1.489701	-75.720802	-6.993936
41581	9.528318	-0.011464	2.461277	-0.027377	0.056309	0.028194	1.000000	0.000080	0.000044	0.000044	-1.490849	-75.719881	-7.002188
41582	9.526049	-0.026961	2.446316	-0.017081	0.038868	0.022403	1.000000	0.000072	0.000023	0.000033	-1.484864	-75.728089	-7.003790
41583	9.536420	-0.034428	2.464710	-0.033670	0.033761	0.037034	1.000000	0.000065	0.000045	0.000037	-1.483482	-75.729091	-7.013517
41584	9.545109	-0.044766	2.461552	-0.029723	0.022887	0.044744	1.000000	0.000072	0.000028	0.000049	-1.488369	-75.728334	-7.009511
41585	9.535262	-0.044527	2.462702	-0.033420	0.023636	0.035482	1.000000	0.000072	0.000023	0.000033	-1.485246	-75.729960	-7.016806
41586	9.532639	-0.056745	2.438330	-0.013317	0.008066	0.027010	1.000000	0.000087	0.000021	0.000040	-1.482356	-75.734734	-7.006985
41587	9.532975	-0.044720	2.432724	-0.006442	0.019164	0.025877	1.000000	0.000064	0.000022	0.000041	-1.483332	-75.736688	-7.001487
41588	9.550641	-0.049203	2.410227	0.017424	0.011030	0.037486	1.000000	0.000056	0.000023	0.000033	-1.479684	-75.744527	-7.006112
41589	9.533128	-0.048457	2.442909	-0.018749	0.016719	0.028555	1.000000	0.000079	0.000034	0.000011	-1.465014	-75.747663	-7.013662
41590	9.552802	-0.037453	2.436390	-0.006659	0.025734	0.045950	1.000000	0.000081	0.000052	0.000038	-1.461056	-75.749669	-7.018049
41591	9.533565	-0.023862	2.432645	-0.005929	0.038957	0.026298	1.000000	0.000080	0.000047	0.000021	-1.450839	-75.750675	-7.029487
41592	9.533267	-0.039554	2.448864	-0.023654	0.025357	0.030101	1.000000	0.000073	0.000055	0.000023	-1.442415	-75.748786	-7.029788
41593	9.533481	-0.027215	2.443752	-0.017599	0.036476	0.028974	1.000000	0.000064	0.000040	0.000021	-1.432165	-75.753513	-7.051142
41594	9.534520	-0.021381	2.456973	-0.028664	0.043813	0.033200	1.000000	0.000072	0.000046	0.000029	-1.427950	-75.750059	-7.055774
41595	9.532567	-0.040002	2.451578	-0.026757	0.024465	0.030095	1.000000	0.000065	0.000054	0.000031	-1.423449	-75.749788	-7.062327
41596	9.533193	-0.031055	2.455631	-0.029208	0.033697	0.031645	1.000000	0.000088	0.000037	0.000035	-1.419052	-75.750778	-7.052069
41597	9.522064	-0.036858	2.444510	-0.022164	0.026791	0.018156	1.000000	0.000065	0.000027	0.000057	-1.427481	-75.751678	-7.041724
41598	9.529934	-0.056501	2.438055	-0.017533	0.006407	0.024314	1.000000	0.000056	0.000031	0.000035	-1.426064	-75.755118	-7.042506
41599	9.521776	-0.037916	2.445617	-0.024581	0.026227	0.018152	1.000000	0.000072	0.000028	0.000049	-1.429414	-75.758398	-7.035553
41600	9.540260	-0.049007	2.441523	-0.018406	0.014295	0.035127	1.000000	0.000079	0.000012	0.000046	-1.430923	-75.763109	-7.031947
41601	9.550786	-0.040926	2.444225	-0.017035	0.022459	0.045945	1.000000	0.000071	0.000006	0.000038	-1.432410	-75.762326	-7.033310
41602	9.537581	-0.061816	2.417442	0.002414	-0.001622	0.026687	1.000000	0.000057	0.000046	0.000037	-1.433588	-75.759754	-7.029270
41603	9.537836	-0.049735	2.412212	0.009713	0.009471	0.025573	1.000000	0.000064	0.000039	0.000028	-1.430124	-75.757423	-7.031497
41604	9.546583	-0.044314	2.393875	0.030682	0.011829	0.029506	1.000000	0.000057	0.000038	0.000036	-1.430984	-75.754716	-7.031132
41605	9.549174	-0.051509	2.443986	-0.017559	0.011728	0.044391	1.000000	0.000088	0.000052	0.000037	-1.428011	-75.752607	-7.032640
41606	9.541389	-0.020193	2.445874	-0.016123	0.042956	0.037120	1.000000	0.000072	0.000048	0.000022	-1.420999	-75.749442	-7.044155
41607	9.530077	-0.041336	2.450442	-0.026661	0.022825	0.027410	1.000000	0.000073	0.000060	0.000039	-1.418896	-75.750306	-7.050958
41608	9.520896	-0.031756	2.455484	-0.031666	0.033109	0.019697	1.000000	0.000081	0.000069	0.000033	-1.414309	-75.745825	-7.056430
41609	9.531555	-0.026572	2.468400	-0.040612	0.039416	0.033176	1.000000	0.000080	0.000055	0.000023	-1.404245	-75.745951	-7.058443
41610	9.531725	-0.029866	2.478444	-0.050692	0.037304	0.035835	1.000000	0.000072	0.000031	0.000027	-1.398909	-75.747168	-7.067922
41611	9.521813	-0.029424	2.479820	-0.055319	0.038095	0.026560	1.000000	0.000073	0.000045	0.000037	-1.394819	-75.751779	-7.074311
41612	9.539130	-0.030580	2.448165	-0.021668	0.031714	0.035559	1.000000	0.000078	0.000001	0.000021	-1.385129	-75.758534	-7.074837
41613	9.529744	-0.033526	2.458207	-0.035219	0.030635	0.028946	1.000000	0.000072	0.000017	0.000063	-1.393949	-75.764554	-7.062145
41614	9.538147	-0.040983	2.445470	-0.023009	0.021614	0.034000	1.000000	0.000072	0.000011	0.000054	-1.399355	-75.770804	-7.061552
41615	9.536861	-0.047570	2.433255	-0.012942	0.013627	0.029790	1.000000	0.000079	0.000005	0.000045	-1.401506	-75.773467	-7.059979
41616	9.546166	-0.045444	2.423519	-0.001508	0.014102	0.036404	1.000000	0.000063	0.000008	0.000031	-1.398841	-75.776123	-7.063146
41617	9.555067	-0.039998	2.404658	0.019090	0.016437	0.040365	1.000000	0.000079	0.000015	0.000031	-1.394855	-75.778276	-7.070057
41618	9.535358	-0.054536	2.421887	-0.004171	0.005050	0.025580	1.000000	0.000057	0.000053	0.000038	-1.396328	-75.774908	-7.079963
41619	9.545190	-0.058552	2.431516	-0.011100	0.001835	0.037502	1.000000	0.000096	0.000056	0.000014	-1.382432	-75.771720	-7.096699
41620	9.538556	-0.021211	2.446174	-0.021012	0.040738	0.034453	1.000000	0.000122	0.000094	0.000059	-1.383537	-75.767638	-7.098354
41621	9.546581	-0.028326	2.434947	-0.007858	0.031655	0.039516	1.000000	0.000168	0.000092	0.000057	-1.380414	-75.759081	-7.105683
41622	9.519259	-0.029999	2.478911	-0.055539	0.036785	0.023864	1.000000	0.000224	0.000119	0.000068	-1.374745	-75.749322	-7.113628
41623	9.522515	-0.030779	2.543197	-0.114162	0.044592	0.042873	1.000000	0.000319	0.000158	0.000088	-1.367077	-75.733254	-7.111324
41624	9.462405	0.031822	2.621842	-0.191626	0.119023	0.003692	1.000000	0.000420	0.000163	0.000125	-1.365631	-75.712538	-7.094781
41625	9.487828	-0.045005	2.659200	-0.229840	0.047435	0.038057	1.000000	0.000435	0.000110	0.000162	-1.378782	-75.700149	-7.061145
41626	9.466935	-0.069076	2.674215	-0.251341	0.026733	0.021700	1.000000	0.000354	0.000048	0.000138	-1.391387	-75.695116	-7.044295
41627	9.432977	-0.110516	2.651558	-0.244044	-0.016041	-0.016554	1.000000	0.000218	-0.000024	0.000091	-1.398027	-75.699735	-7.056053
41628	9.519015	-0.138946	2.649179	-0.225187	-0.046904	0.066391	1.000000	-0.000060	0.000041	0.000001	-1.395440	-75.698203	-7.095650
41629	9.506528	-0.016942	2.630966	-0.192197	0.070802	0.049076	1.000000	-0.000089	0.000148	-0.000074	-1.360339	-75.687883	-7.182907
41630	9.514390	0.041898	2.705160	-0.249741	0.137940	0.074773	1.000000	0.000030	0.000182	-0.000033	-1.331161	-75.668275	-7.245241
41631	9.478258	0.044448	2.773077	-0.319828	0.150557	0.056677	1.000000	0.000166	0.000221	0.000071	-1.331633	-75.645624	-7.268260
41632	9.408371	0.020995	2.802747	-0.365143	0.133674	-0.003402	1.000000	0.000274	0.000194	0.000118	-1.341782	-75.625182	-7.256644
41633	9.427111	-0.018646	2.854193	-0.412764	0.101779	0.027864	1.000000	0.000321	0.000169	0.000159	-1.363384	-75.609907	-7.249833
41634	9.418770	-0.022465	2.897646	-0.454487	0.105385	0.030707	1.000000	0.000374	0.000125	0.000182	-1.390164	-75.598505	-7.225170
41635	9.415268	-0.066305	2.905973	-0.468083	0.063728	0.029730	1.000000	0.000449	0.000104	0.000145	-1.391933	-75.589682	-7.217884
41636	9.443301	-0.065284	2.897528	-0.450886	0.062168	0.054870	1.000000	0.000521	0.000163	0.000145	-1.384541	-75.574231	-7.212186
41637	9.409264	-0.046870	2.980069	-0.532272	0.092833	0.042531	1.000000	0.000537	0.000163	0.000145	-1.375607	-75.554726	-7.231528
41638	9.399673	-0.055086	3.011090	-0.563339	0.089110	0.041158	1.000000	0.000519	0.000116	0.000153	-1.372159	-75.544248	-7.248962
41639	9.361019	-0.042761	3.018519	-0.577480	0.103608	0.005548	1.000000	0.000456	0.000097	0.000144	-1.371718	-75.541380	-7.270683
41640	9.331384	-0.108961	2.947986	-0.525062	0.028754	-0.040241	1.000000	0.000465	0.000111	0.000146	-1.370671	-75.527806	-7.305180
41641	9.362210	-0.098283	2.973207	-0.538308	0.041279	-0.004063	1.000000	0.000534	0.000130	0.000109	-1.346062	-75.516707	-7.323536
41642	9.432726	-0.065194	2.984707	-0.524244	0.072201	0.067039	1.000000	0.000639	0.000224	0.000122	-1.312081	-75.495425	-7.395701
41643	9.416824	-0.022067	3.024250	-0.555200	0.119655	0.061551	1.000000	0.000719	0.000277	0.000151	-1.282456	-75.466563	-7.458997
41644	9.389560	-0.017933	3.092835	-0.622081	0.133324	0.052657	1.000000	0.000828	0.000276	0.000180	-1.251346	-75.437625	-7.528534
41645	9.369638	-0.026930	3.136108	-0.665214	0.130221	0.044622	1.000000	0.000913	0.000257	0.000229	-1.232724	-75.411347	-7.571481
41646	9.349432	-0.033118	3.169943	-0.699304	0.129280	0.033925	0.999999	0.000952	0.000258	0.000259	-1.223287	-75.386469	-7.626730
41647	9.357978	-0.035761	3.182997	-0.706129	0.128865	0.045775	0.999999	0.001028	0.000195	0.000294	-1.219159	-75.368195	-7.736072
41648	9.326629	-0.041495	3.185473	-0.715226	0.125163	0.016237	0.999999	0.001144	0.000202	0.000316	-1.217430	-75.356785	-7.791734
41649	9.325012	-0.054837	3.204870	-0.733015	0.115666	0.019879	0.999999	0.001259	0.000182	0.000311	-1.192128	-75.339947	-7.952875
41650	9.272673	0.008603	3.259682	-0.784859	0.189134	-0.016959	0.999999	0.001344	0.000184	0.000325	-1.161138	-75.321206	-8.135684
41651	9.251279	-0.015009	3.285544	-0.816013	0.172214	-0.030783	0.999999	0.001271	0.000095	0.000374	-1.159913	-75.312737	-8.319790
41652	9.274622	-0.057219	3.253071	-0.784841	0.126371	-0.016137	0.999999	0.001148	0.000107	0.000379	-1.180941	-75.306110	-8.413242
41653	9.314757	-0.044120	3.268419	-0.785164	0.142759	0.026639	0.999999	0.001063	0.000141	0.000332	-1.188846	-75.294890	-8.566035
41654	9.353603	-0.057973	3.306666	-0.811020	0.135263	0.074236	0.999999	0.001025	0.000160	0.000320	-1.187920	-75.276770	-8.693667
41655	9.329201	-0.001864	3.337407	-0.833659	0.198478	0.058376	0.999999	0.000933	0.000173	0.000316	-1.202309	-75.260596	-8.809685
41656	9.290734	-0.065143	3.291658	-0.808051	0.130677	0.010091	1.000000	0.000830	0.000137	0.000274	-1.210827	-75.247676	-8.854384
41657	9.260572	-0.062648	3.295996	-0.816961	0.136094	-0.017803	1.000000	0.000700	0.000159	0.000272	-1.237410	-75.233696	-8.872557
41658	9.296869	-0.090653	3.310432	-0.823444	0.111424	0.021359	1.000000	0.000584	0.000171	0.000230	-1.253808	-75.217125	-8.965631
41659	9.303005	-0.104747	3.289181	-0.801010	0.094182	0.022204	1.000000	0.000389	0.000187	0.000128	-1.248306	-75.198416	-9.038987
41660	9.347083	-0.060223	3.335049	-0.822600	0.143447	0.076544	1.000000	0.000186	0.000169	0.000052	-1.234793	-75.181762	-9.073109
41661	9.415064	0.011306	3.418901	-0.869501	0.225245	0.163569	1.000000	-0.000045	0.000186	0.000012	-1.233341	-75.164036	-9.108765
41662	9.383824	0.097635	3.447989	-0.887162	0.316736	0.140550	1.000000	-0.000266	0.000099	-0.000012	-1.246141	-75.155579	-9.133264
41663	9.276983	0.145265	3.384249	-0.844577	0.358928	0.020650	1.000000	-0.000419	-0.000054	0.000031	-1.296156	-75.164613	-9.143375
41664	9.271578	0.131774	3.278247	-0.748928	0.331029	-0.011874	1.000000	-0.000436	-0.000114	0.000076	-1.368221	-75.180328	-9.133059
41665	9.360055	0.043292	3.219137	-0.687820	0.234173	0.058858	1.000000	-0.000410	-0.000063	0.000091	-1.442808	-75.190101	-9.114045
41666	9.389101	0.016550	3.252447	-0.716781	0.215919	0.095567	1.000000	-0.000382	0.000068	0.000032	-1.486974	-75.184978	-9.123540
41667	9.336271	-0.024605	3.264952	-0.747073	0.181570	0.048114	1.000000	-0.000377	0.000191	-0.000019	-1.506649	-75.165866	-9.157732
41668	9.250326	-0.055617	3.394359	-0.893842	0.179164	-0.001355	1.000000	-0.000486	0.000190	-0.000033	-1.532798	-75.146809	-9.197585
41669	9.280429	-0.065858	3.445261	-0.933485	0.179086	0.041097	1.000000	-0.000582	0.000119	-0.000042	-1.566979	-75.135923	-9.240028
41670	9.214331	-0.123311	3.411710	-0.927145	0.121544	-0.030843	1.000000	-0.000623	0.000087	-0.000076	-1.591101	-75.128704	-9.297917
41671	9.172901	-0.117344	3.365567	-0.891227	0.122252	-0.082647	1.000000	-0.000569	0.000090	-0.000116	-1.592237	-75.121148	-9.373187
41672	9.173935	-0.120720	3.407689	-0.929747	0.127244	-0.070645	1.000000	-0.000498	0.000136	-0.000133	-1.577082	-75.108372	-9.456921
41673	9.198551	-0.075467	3.454632	-0.956699	0.178729	-0.034840	1.000000	-0.000395	0.000197	-0.000164	-1.536095	-75.088558	-9.555131
41674	9.213571	-0.034591	3.521390	-1.005069	0.229414	-0.003076	1.000000	-0.000341	0.000198	-0.000134	-1.501848	-75.068484	-9.639913
41675	9.222416	-0.061629	3.577022	-1.058182	0.211731	0.020281	1.000000	-0.000314	0.000121	-0.000146	-1.460207	-75.057152	-9.729124
41676	9.245392	-0.007538	3.563720	-1.028323	0.259984	0.038830	1.000000	-0.000287	0.000037	-0.000159	-1.410751	-75.055409	-9.823224
41677	9.344486	0.024296	3.530585	-0.965823	0.279370	0.125833	1.000000	-0.000180	-0.000007	-0.000106	-1.372181	-75.058451	-9.893412
41678	9.366337	0.080694	3.475535	-0.897871	0.322192	0.132369	1.000000	-0.000095	-0.000015	-0.000078	-1.335785	-75.062265	-9.951251
41679	9.290623	0.103219	3.494304	-0.930839	0.350637	0.063905	1.000000	0.000001	0.000019	0.000026	-1.332328	-75.061829	-9.963578
41680	9.216588	0.032074	3.515669	-0.983266	0.288034	-0.001639	1.000000	0.000135	0.000061	0.000069	-1.331007	-75.056439	-9.957834
41681	9.210795	0.063849	3.546677	-1.007638	0.325299	0.000599	1.000000	0.000273	-0.000003	0.000142	-1.345694	-75.058094	-9.919233
41682	9.363945	0.024922	3.519755	-0.952812	0.275636	0.141655	1.000000	0.000412	-0.000177	0.000175	-1.360263	-75.079463	-9.864232
41683	9.461014	0.062453	3.392478	-0.804810	0.285066	0.202032	1.000000	0.000572	-0.000256	0.000245	-1.387506	-75.109703	-9.777214
41684	9.331077	0.140404	3.171057	-0.616343	0.327232	0.018760	1.000000	0.000720	-0.000087	0.000361	-1.445500	-75.120194	-9.640729
41685	9.365504	0.060638	3.208295	-0.657968	0.257319	0.062046	1.000000	0.000801	0.000092	0.000532	-1.565985	-75.109547	-9.429981
41686	9.233981	0.035299	3.187381	-0.672652	0.237869	-0.070101	0.999999	0.000925	0.000231	0.000597	-1.697882	-75.082604	-9.192785
41687	9.217758	-0.159147	3.248082	-0.765036	0.062333	-0.068291	0.999999	0.000998	0.000297	0.000644	-1.839843	-75.047674	-8.936400
41688	9.181173	-0.254147	3.330031	-0.862673	-0.011928	-0.081126	0.999999	0.001038	0.000343	0.000581	-1.948607	-75.007548	-8.709641
41689	9.152723	-0.280467	3.462387	-0.993439	-0.012352	-0.073486	0.999999	0.001096	0.000310	0.000467	-2.002056	-74.971503	-8.533204
41690	9.184952	-0.265695	3.542809	-1.053543	0.014290	-0.021095	0.999999	0.001012	0.000201	0.000399	-2.037435	-74.948196	-8.385335
41691	9.213353	-0.272087	3.553143	-1.054993	0.008735	0.009310	1.000000	0.000870	-0.000012	0.000425	-2.103394	-74.949023	-8.222517
41692	9.337610	-0.270639	3.459313	-0.934909	-0.009541	0.104818	1.000000	0.000800	-0.000163	0.000374	-2.158287	-74.967287	-8.079550
41693	9.549329	-0.369503	3.322987	-0.771859	-0.136498	0.274634	1.000000	0.000649	-0.000231	0.000313	-2.205935	-74.993593	-7.961989
41694	9.428601	-0.374716	3.239042	-0.727673	-0.150940	0.136083	1.000000	0.000518	-0.000173	0.000161	-2.203322	-75.013781	-7.911919
41695	9.332037	-0.208336	3.124182	-0.615865	-0.004582	0.011340	1.000000	0.000357	0.000024	0.000029	-2.159936	-75.012016	-7.923191
41696	9.280148	-0.156363	3.181555	-0.673682	0.056609	-0.024386	1.000000	0.000099	0.000114	0.000030	-2.145260	-74.999870	-7.935299
41697	9.396370	-0.277671	3.207830	-0.688325	-0.063849	0.095954	1.000000	-0.000151	0.000091	-0.000101	-2.103992	-74.990875	-8.004575
41698	9.388890	-0.244531	3.208956	-0.683823	-0.033088	0.088815	1.000000	-0.000498	0.000157	-0.000279	-2.025633	-74.975018	-8.153345
41699	9.101338	-0.161553	3.219373	-0.750443	0.057317	-0.186766	1.000000	-0.000752	0.000209	-0.000445	-1.905322	-74.953785	-8.375728
41700	8.941209	-0.114677	3.308945	-0.865686	0.120861	-0.318296	0.999999	-0.001064	0.000188	-0.000567	-1.769810	-74.935256	-8.650850
41701	9.044617	0.021374	3.377588	-0.879169	0.258990	-0.201567	0.999999	-0.001315	-0.000025	-0.000663	-1.625416	-74.941210	-8.965023
41702	9.479737	0.297611	3.295375	-0.641992	0.495668	0.195092	0.999999	-0.001419	-0.000267	-0.000611	-1.517376	-74.974418	-9.253885
41703	9.779504	0.571784	3.265932	-0.489770	0.746137	0.474944	0.999999	-0.001359	-0.000168	-0.000458	-1.465070	-74.995723	-9.477811
41704	9.872729	0.622114	3.259563	-0.450223	0.793023	0.562811	0.999999	-0.001409	-0.000028	-0.000136	-1.553661	-74.999888	-9.561845
41705	9.617380	0.371257	3.304000	-0.603601	0.573476	0.329060	0.999999	-0.001423	-0.000051	0.000031	-1.714481	-75.006230	-9.572843
41706	9.171123	0.220253	3.246735	-0.693033	0.442628	-0.116138	0.999999	-0.001372	-0.000248	-0.000015	-1.852076	-75.035196	-9.601839
41707	8.919866	0.132760	3.017486	-0.561278	0.331718	-0.417913	0.999999	-0.001340	-0.000383	-0.000051	-1.972308	-75.079738	-9.645123
41708	8.896485	0.032527	2.859641	-0.443433	0.210056	-0.480737	0.999999	-0.001217	-0.000352	-0.000141	-2.039083	-75.121091	-9.729104
41709	9.370769	0.079714	2.994133	-0.445374	0.266514	0.011421	0.999999	-0.001118	-0.000197	-0.000180	-2.074795	-75.144759	-9.833438
41710	9.679509	0.018843	3.172027	-0.549890	0.231933	0.355834	1.000000	-0.000948	-0.000053	-0.000161	-2.096855	-75.151902	-9.931817
41711	9.459146	0.018509	3.268721	-0.697614	0.263270	0.167510	1.000000	-0.000879	-0.000057	-0.000156	-2.113439	-75.159479	-10.027640
41712	9.077915	-0.042102	3.184003	-0.728764	0.206443	-0.222356	1.000000	-0.000810	-0.000236	-0.000123	-2.138962	-75.187318	-10.106004
41713	9.307386	-0.069096	3.051011	-0.558137	0.145504	-0.034743	1.000000	-0.000670	-0.000535	-0.000133	-2.148477	-75.249384	-10.184309
41714	9.696697	-0.094625	2.767289	-0.208383	0.046382	0.269336	1.000000	-0.000484	-0.000527	-0.000143	-2.131941	-75.310528	-10.267524
41715	9.707264	0.005223	2.577430	-0.011661	0.103868	0.230381	1.000000	-0.000286	-0.000106	-0.000127	-2.092702	-75.323376	-10.350710
41716	9.339609	0.047568	2.634554	-0.144672	0.171622	-0.111087	1.000000	-0.000085	0.000514	-0.000049	-2.054893	-75.264905	-10.408600
41717	9.134192	0.067522	2.871527	-0.405437	0.247423	-0.249316	1.000000	0.000114	0.000571	0.000072	-2.046378	-75.199458	-10.412717
41718	9.084467	0.136292	2.996873	-0.512009	0.342144	-0.265533	1.000000	0.000311	0.000425	0.000254	-2.096082	-75.149995	-10.333209
41719	9.170605	-0.004758	3.049837	-0.562689	0.212878	-0.166984	1.000000	0.000487	0.000337	0.000415	-2.195581	-75.109843	-10.181244
41720	9.574635	-0.155045	3.184228	-0.613382	0.078469	0.259779	1.000000	0.000659	0.000182	0.000465	-2.298904	-75.087146	-10.004995
41721	9.978282	-0.073508	3.267242	-0.569446	0.160688	0.670455	1.000000	0.000820	-0.000009	0.000495	-2.399534	-75.085989	-9.812378
41722	9.643703	-0.196530	3.265910	-0.678871	0.058400	0.348096	0.999999	0.001033	-0.000091	0.000556	-2.503445	-75.093784	-9.591060
41723	9.037493	-0.330703	2.936133	-0.551504	-0.110521	-0.321105	0.999999	0.001154	-0.000298	0.000560	-2.599919	-75.125208	-9.363091
41724	9.129867	-0.561390	2.805155	-0.457807	-0.363225	-0.262975	0.999999	0.001157	-0.000508	0.000467	-2.660827	-75.181069	-9.171572
41725	9.575844	-0.642397	2.601386	-0.175119	-0.499748	0.116877	0.999999	0.001134	-0.000298	0.000313	-2.655229	-75.213704	-9.051581
41726	9.603057	-0.658780	2.584243	-0.156680	-0.522840	0.138850	0.999999	0.001157	0.000074	0.000091	-2.544132	-75.204941	-9.037981
41727	9.456837	-0.574851	2.689114	-0.271126	-0.421646	0.023076	0.999999	0.001057	0.000450	-0.000067	-2.369943	-75.153911	-9.101397
41728	9.207096	-0.371522	2.885860	-0.472391	-0.183618	-0.170076	0.999999	0.000957	0.000475	-0.000093	-2.197310	-75.100187	-9.175002
41729	9.279129	-0.223669	3.149881	-0.668028	-0.000309	-0.033743	0.999999	0.000992	0.000390	-0.000052	-2.040874	-75.055970	-9.227703
41730	9.838101	-0.023470	3.395490	-0.717225	0.212914	0.567987	1.000000	0.000903	-0.000047	0.000110	-1.971073	-75.060995	-9.201297
41731	9.743547	-0.199170	3.165533	-0.563092	-0.001507	0.418632	1.000000	0.000819	-0.000488	0.000147	-1.933358	-75.116377	-9.151621
41732	9.349323	-0.157634	2.789995	-0.307331	-0.016044	-0.059532	1.000000	0.000656	-0.000323	0.000081	-1.883538	-75.153155	-9.133743
41733	8.815322	-0.286487	2.736501	-0.421634	-0.132943	-0.588536	1.000000	0.000513	-0.000217	-0.000017	-1.806252	-75.178119	-9.161214
41734	8.944464	-0.341608	2.640218	-0.314229	-0.213441	-0.488173	1.000000	0.000363	-0.000390	-0.000155	-1.688721	-75.223381	-9.248088
41735	9.285476	-0.134411	2.554804	-0.114640	-0.045433	-0.182011	1.000000	0.000371	-0.000181	-0.000326	-1.493299	-75.245159	-9.414565
41736	9.768217	-0.022378	2.789806	-0.195842	0.079259	0.343933	1.000000	0.000325	0.000273	-0.000299	-1.309997	-75.214746	-9.573948
41737	9.915652	-0.022544	3.044293	-0.396400	0.111600	0.551617	1.000000	0.000132	0.000249	-0.000222	-1.183078	-75.186826	-9.697895
41738	9.536874	0.104091	3.121044	-0.538833	0.260330	0.204578	1.000000	0.000076	0.000059	-0.000224	-1.063283	-75.180563	-9.821110
41739	9.321406	0.034901	3.062659	-0.552432	0.187392	-0.018332	1.000000	-0.000072	-0.000162	-0.000138	-0.999647	-75.199356	-9.903840
41740	9.296641	-0.009232	2.800382	-0.323871	0.096251	-0.109307	1.000000	-0.000278	-0.000417	-0.000116	-0.970345	-75.247291	-9.975384
41741	9.254874	-0.015175	2.517883	-0.074326	0.039613	-0.221777	1.000000	-0.000210	-0.000288	-0.000176	-0.905956	-75.280570	-10.075251
41742	9.380474	-0.056495	2.552045	-0.084814	-0.003299	-0.091463	1.000000	-0.000157	0.000178	-0.000219	-0.813759	-75.260456	-10.197556
41743	9.558609	0.114328	2.897404	-0.331007	0.216185	0.168231	1.000000	-0.000179	0.000340	-0.000157	-0.750588	-75.221656	-10.292436
41744	9.482418	0.321489	2.994561	-0.398293	0.438341	0.118890	1.000000	-0.000110	0.000138	-0.000063	-0.721318	-75.205826	-10.344115
41745	9.277678	0.341511	2.996982	-0.445977	0.468324	-0.078438	1.000000	-0.000204	0.000055	0.000119	-0.782027	-75.199237	-10.313838
41746	9.284837	0.207505	2.979254	-0.452247	0.338024	-0.075726	1.000000	-0.000409	-0.000088	0.000272	-0.932949	-75.208721	-10.214582
41747	9.386647	0.010121	2.785544	-0.282819	0.110492	-0.026151	1.000000	-0.000433	-0.000251	0.000234	-1.071106	-75.236871	-10.131421
41748	9.605873	-0.037560	2.703753	-0.162097	0.044741	0.165098	1.000000	-0.000490	-0.000137	0.000159	-1.182548	-75.252070	-10.082702
41749	9.746456	-0.222125	2.708015	-0.166351	-0.138089	0.303109	1.000000	-0.000426	0.000117	0.000032	-1.229440	-75.238419	-10.093091
41750	9.353799	-0.264932	2.615868	-0.182144	-0.180724	-0.099775	1.000000	-0.000321	0.000288	-0.000169	-1.175780	-75.205720	-10.194980
41751	8.990809	-0.004694	2.778455	-0.370246	0.118568	-0.410382	1.000000	-0.000392	0.000421	-0.000210	-1.112128	-75.157857	-10.315658
41752	9.613507	0.193307	3.135727	-0.507612	0.350574	0.282317	1.000000	-0.000436	0.000124	-0.000121	-1.094731	-75.143724	-10.393728
41753	10.151978	0.151771	3.174283	-0.416189	0.295223	0.812819	1.000000	-0.000631	-0.000164	0.000118	-1.205247	-75.162000	-10.362653
41754	9.647794	0.042327	2.875682	-0.283585	0.159044	0.249397	1.000000	-0.000589	-0.000083	0.000129	-1.314871	-75.170907	-10.327445
41755	9.111916	-0.075301	2.554140	-0.139367	0.009820	-0.350299	1.000000	-0.000525	-0.000171	0.000030	-1.375234	-75.190242	-10.335694
41756	8.973183	0.079676	2.214515	0.176413	0.103693	-0.572203	1.000000	-0.000539	-0.000111	-0.000007	-1.420543	-75.202791	-10.361067
41757	9.285446	0.093007	2.358074	0.124573	0.132272	-0.233770	1.000000	-0.000476	0.000350	0.000037	-1.472911	-75.162386	-10.371766
41758	9.689940	-0.007430	2.646483	-0.056254	0.072800	0.231733	1.000000	-0.000483	0.000687	0.000011	-1.510568	-75.083539	-10.398525
41759	9.703149	-0.107552	3.008116	-0.400733	0.045334	0.338606	1.000000	-0.000558	0.000757	-0.000070	-1.521424	-74.996943	-10.461964
41760	9.495967	-0.114853	3.308504	-0.725867	0.107302	0.216987	1.000000	-0.000640	0.000526	-0.000104	-1.530410	-74.936835	-10.537032
41761	9.380270	-0.184072	3.302922	-0.760979	0.044596	0.104549	1.000000	-0.000769	-0.000173	-0.000192	-1.524721	-74.957010	-10.642554
41762	9.299008	-0.117221	3.040815	-0.528772	0.061721	-0.042917	0.999999	-0.000812	-0.000683	-0.000330	-1.470194	-75.035966	-10.803680
41763	9.283293	-0.112870	2.597709	-0.128691	-0.024272	-0.173020	0.999999	-0.000774	-0.000829	-0.000399	-1.381914	-75.131751	-10.995173
41764	9.497363	-0.076105	2.211150	0.283260	-0.080609	-0.065476	0.999999	-0.000740	-0.000613	-0.000406	-1.283503	-75.202771	-11.193117
41765	9.724565	0.036114	2.214337	0.354866	0.014183	0.154540	1.000000	-0.000693	0.000053	-0.000427	-1.163282	-75.197513	-11.408020
41766	9.845166	0.140450	2.514567	0.128095	0.167156	0.347318	1.000000	-0.000636	0.000410	-0.000358	-1.064221	-75.151080	-11.594325
41767	9.658403	0.134615	2.769558	-0.153540	0.220754	0.232262	1.000000	-0.000793	0.000333	-0.000259	-1.027092	-75.113290	-11.735176
41768	9.276164	-0.055247	2.752218	-0.270266	0.049199	-0.140588	1.000000	-0.000855	0.000198	-0.000317	-0.973063	-75.091034	-11.900857
41769	9.475596	-0.092518	2.683596	-0.164606	-0.015234	0.034639	0.999999	-0.000907	-0.000214	-0.000435	-0.877315	-75.116146	-12.115920
41770	9.419489	0.045192	2.476236	0.040889	0.072846	-0.073407	1.000000	-0.000760	-0.000345	-0.000528	-0.724904	-75.156341	-12.372175
41771	9.305876	0.183601	2.324421	0.182816	0.174447	-0.222478	1.000000	-0.000585	0.000081	-0.000487	-0.567568	-75.147478	-12.612788
41772	9.240713	0.314892	2.401295	0.125971	0.317143	-0.265976	1.000000	-0.000475	0.000212	-0.000275	-0.488926	-75.123240	-12.758941
41773	9.631586	0.666249	2.604097	0.117089	0.679501	0.163145	1.000000	-0.000280	0.000157	-0.000032	-0.492759	-75.105091	-12.796639
41774	9.914477	0.373764	2.865423	-0.121193	0.439832	0.504244	1.000000	-0.000206	0.000093	0.000344	-0.649214	-75.093784	-12.667733
41775	9.521914	0.082084	2.934591	-0.350247	0.201152	0.143330	1.000000	-0.000068	-0.000130	0.000445	-0.833928	-75.107835	-12.493169
41776	9.218040	-0.139435	2.669136	-0.232242	-0.049266	-0.217917	1.000000	0.000145	-0.000498	0.000312	-0.939980	-75.164103	-12.374787
41777	9.426286	-0.127149	2.421615	0.044656	-0.098835	-0.080089	1.000000	0.000481	-0.000726	0.000192	-0.958120	-75.246730	-12.307619
41778	9.657060	-0.049834	2.130646	0.380708	-0.097795	0.068933	0.999999	0.000825	-0.000640	0.000184	-0.933145	-75.319564	-12.244284
41779	9.611559	-0.071983	2.015568	0.466393	-0.141228	-0.003901	0.999999	0.001071	-0.000030	0.000260	-0.909403	-75.322372	-12.150494
41780	9.623526	-0.068154	2.257266	0.246802	-0.086123	0.068801	0.999999	0.001172	0.000459	0.000320	-0.896791	-75.269180	-12.033189
41781	9.551747	-0.038516	2.575740	-0.055288	0.015023	0.080163	0.999999	0.001207	0.000459	0.000505	-0.960374	-75.215646	-11.833003
41782	9.401271	-0.010203	2.688309	-0.185452	0.077392	-0.036665	0.999999	0.001251	0.000196	0.000695	-1.102545	-75.191855	-11.546186
41783	9.479306	-0.296469	2.599841	-0.141822	-0.217936	0.017708	0.999999	0.001178	-0.000076	0.000825	-1.311270	-75.198645	-11.199158
41784	9.377253	-0.515723	2.320034	0.050338	-0.477657	-0.150871	0.999999	0.001252	-0.000112	0.000733	-1.472792	-75.209549	-10.892224
41785	9.583550	-0.616914	2.124615	0.268477	-0.621987	-0.000447	0.999999	0.001379	0.000187	0.000552	-1.538508	-75.186615	-10.669252
41786	9.579876	-0.618203	2.296818	0.113182	-0.587593	0.039901	0.999999	0.001499	0.000485	0.000379	-1.512220	-75.130112	-10.527175
41787	9.517233	-0.594534	2.664807	-0.233058	-0.492000	0.073465	0.999999	0.001567	0.000673	0.000236	-1.414816	-75.052622	-10.450486
41788	9.426337	-0.508354	2.948176	-0.495071	-0.354004	0.058258	0.999999	0.001601	0.000428	0.000261	-1.327680	-75.003172	-10.359093
41789	9.747526	-0.491688	3.103537	-0.553679	-0.327926	0.408558	0.999999	0.001525	-0.000137	0.000242	-1.247138	-75.018492	-10.269838
41790	9.524294	-0.540053	3.015615	-0.542949	-0.386118	0.169991	0.999999	0.001559	-0.000524	0.000240	-1.165906	-75.078221	-10.177284
41791	9.089230	-0.512354	2.601272	-0.268370	-0.421497	-0.357873	0.999998	0.001576	-0.000893	0.000118	-1.033667	-75.180575	-10.135481
41792	9.100562	-0.345247	2.195492	0.134848	-0.336466	-0.451694	0.999998	0.001505	-0.000932	0.000144	-0.921558	-75.287343	-10.081317
41793	9.794260	-0.215113	2.182764	0.330359	-0.243240	0.215769	0.999998	0.001621	-0.000635	0.000184	-0.811373	-75.360087	-10.011415
41794	10.409068	-0.269017	2.165323	0.481054	-0.327639	0.806678	0.999999	0.001642	-0.000263	0.000273	-0.735959	-75.390129	-9.903122
41795	9.914489	-0.270635	2.308436	0.222273	-0.284635	0.364188	0.999999	0.001640	0.000294	0.000264	-0.654009	-75.356524	-9.801801
41796	9.046546	-0.322378	2.389779	-0.074999	-0.287926	-0.454993	0.999999	0.001577	0.000274	0.000263	-0.579048	-75.325250	-9.700707
41797	9.006549	-0.263977	2.277220	0.034970	-0.251527	-0.522432	0.999999	0.001436	-0.000039	0.000239	-0.511622	-75.329934	-9.608478
41798	10.605621	-0.730855	1.962750	0.648008	-0.831277	0.946253	0.999999	0.000954	-0.000435	0.000342	-0.546655	-75.379927	-9.467452
41799	13.378934	-0.757276	0.600805	2.611322	-1.199097	3.289731	0.999999	0.000829	-0.001301	-0.000115	-0.398926	-75.529740	-9.530027
41800	10.515185	-0.044289	-0.114512	2.706856	-0.510171	0.336043	0.999995	0.002466	0.001503	-0.000977	0.321100	-75.358418	-9.990026
41801	4.937782	1.009923	0.817862	0.648742	0.902125	-4.829163	0.999974	0.002653	0.006670	-0.000501	0.815521	-74.594635	-10.195368
41802	4.431465	0.954408	4.335410	-2.769455	1.403897	-4.362639	0.999968	0.001496	0.007769	0.001099	0.512259	-73.706906	-9.710266
41803	6.937733	0.419842	5.329895	-3.053092	0.906195	-1.653424	0.999996	0.001600	0.001367	0.002096	-0.117877	-73.551881	-8.870674
41804	12.178351	-0.885365	5.220254	-1.727148	-0.592266	3.340719	0.999988	0.000891	-0.004351	0.002279	-0.923214	-74.048693	-7.934038
41805	11.975926	-0.834112	3.546900	-0.278434	-0.738408	2.680336	0.999991	0.001979	-0.003604	0.001125	-1.173870	-74.459766	-7.446164
41806	13.677750	-1.567501	3.452752	0.098547	-1.514728	4.299549	0.999997	0.001743	-0.001260	0.000944	-1.370429	-74.602263	-7.043075
41807	14.915338	-1.584971	4.976582	-1.063065	-1.357210	5.896340	0.999997	0.002293	-0.001275	-0.000063	-1.088190	-74.749115	-7.071226
41808	9.477068	0.263476	4.249141	-1.585033	0.526857	0.441529	0.999991	0.002356	-0.003569	-0.000756	-0.514049	-75.159823	-7.394068
41809	5.333670	1.032929	2.565256	-0.992423	1.189245	-4.007867	0.999984	0.001749	-0.005378	-0.000017	-0.318984	-75.776409	-7.396351
41810	3.048276	0.701978	0.396335	0.434713	0.656387	-6.759516	0.999975	0.001585	-0.006854	0.001049	-0.646057	-76.561092	-6.880312
41811	3.565143	0.414680	-0.890533	1.715643	0.211981	-6.543642	0.999975	0.000654	-0.006455	0.002935	-2.086533	-77.293019	-5.332510
41812	7.157819	-0.823589	-0.089288	1.514863	-0.950748	-2.832623	0.999979	0.001974	-0.005565	0.002636	-3.361366	-77.916291	-3.803542
41813	16.458660	-1.580111	-0.407336	3.604042	-1.806917	6.227734	0.999993	0.001832	-0.002689	0.002075	-4.362207	-78.208587	-2.573893
41814	14.487138	-1.465082	-0.292970	3.111696	-1.621898	4.322220	0.999994	0.002098	0.002824	0.000345	-4.187064	-77.884113	-2.514942
41815	11.862964	-1.348231	-0.195946	2.592103	-1.481742	1.748877	0.999981	0.001719	0.005842	-0.000266	-3.640830	-77.219712	-2.880475
41816	11.565432	-1.236760	0.593316	1.933546	-1.307472	1.597386	0.999967	0.001524	0.007961	-0.000492	-3.000001	-76.313928	-3.367174
41817	8.097807	-0.451320	3.972521	-1.896404	-0.144677	-0.984340	0.999961	0.000654	0.008709	-0.000863	-2.350029	-75.323463	-3.968226
41818	7.003747	-0.275630	3.875427	-1.949265	0.015524	-2.044353	0.999989	-0.000144	0.004691	-0.000336	-2.144218	-74.789445	-4.206251
41819	7.018655	-0.309196	3.750797	-1.782939	-0.044984	-2.050945	0.999998	0.000661	0.001477	-0.000621	-1.788115	-74.624181	-4.504868
41820	7.791478	0.101174	3.393809	-1.177919	0.297237	-1.400823	1.000000	0.000443	0.000463	-0.000242	-1.631888	-74.573261	-4.622113
41821	9.393890	-0.282644	3.052295	-0.460027	-0.158897	0.056694	1.000000	-0.000044	0.000389	-0.000023	-1.623509	-74.529973	-4.643910
41822	10.657032	-0.228952	3.367304	-0.412102	-0.102460	1.357950	1.000000	-0.000320	0.000428	-0.000317	-1.525263	-74.483108	-4.791792
41823	11.573170	-0.193034	3.729894	-0.502639	-0.056449	2.337694	1.000000	-0.000584	0.000413	-0.000609	-1.338242	-74.438760	-5.063275
41824	9.913373	-0.457169	3.844171	-1.076472	-0.278843	0.771502	0.999999	-0.000818	0.000517	-0.000896	-1.060500	-74.382770	-5.456775
41825	8.223718	-0.011028	4.118292	-1.744799	0.227049	-0.785280	0.999999	-0.000724	-0.000773	-0.001033	-0.725081	-74.474271	-5.898905
41826	8.705852	0.353625	3.726322	-1.237758	0.526248	-0.432224	0.999994	-0.000810	-0.003266	-0.000943	-0.438669	-74.850517	-6.299947
41827	9.741578	0.313869	2.327962	0.289090	0.296548	0.199505	0.999988	-0.000777	-0.004712	-0.000796	-0.195621	-75.391778	-6.651277
41828	10.451734	0.538188	1.116635	1.570177	0.355223	0.588422	0.999992	-0.000725	-0.003829	-0.000829	0.090844	-75.831412	-7.040541
41829	10.552927	0.438624	0.313437	2.296156	0.153841	0.500351	0.999997	-0.001617	-0.001921	-0.000464	0.120947	-76.052431	-7.270422
41830	10.167687	0.004812	0.480857	1.967522	-0.250594	0.171257	0.999998	-0.001877	-0.000116	-0.000456	0.118570	-76.066745	-7.497468
41831	9.282238	0.358481	1.051358	1.260671	0.189712	-0.551560	0.999998	-0.001731	0.001093	-0.000632	0.211038	-75.942634	-7.805199
41832	8.737304	0.686766	1.666686	0.599796	0.603139	-0.932011	0.999998	-0.001426	0.000890	-0.000490	0.271660	-75.841814	-8.044188
41833	8.724125	0.873582	1.794243	0.505156	0.804039	-0.913746	0.999999	-0.000940	-0.000412	-0.000018	0.175937	-75.890501	-8.064590
41834	9.821415	0.525982	1.432663	1.055762	0.382037	0.062976	0.999999	-0.000711	-0.001236	0.000364	-0.067793	-76.033720	-7.905523
41835	11.070979	0.418021	1.007365	1.724571	0.189456	1.175761	0.999999	-0.000663	-0.001223	0.000426	-0.338399	-76.175301	-7.713247
41836	11.160997	0.246019	0.617330	2.078106	-0.023548	1.173229	0.999999	-0.000697	-0.000641	0.000468	-0.634180	-76.250091	-7.499167
41837	10.253031	0.190972	0.651590	1.818257	-0.033896	0.300594	1.000000	-0.000810	0.000043	0.000470	-0.941307	-76.246484	-7.286787
41838	9.566010	-0.123016	0.786218	1.483947	-0.296523	-0.333669	1.000000	-0.000711	0.000057	0.000361	-1.186050	-76.241445	-7.127094
41839	9.183765	-0.011481	0.742353	1.448850	-0.173280	-0.715239	1.000000	-0.000582	-0.000466	0.000353	-1.418175	-76.296274	-6.965181
41840	9.427689	-0.085667	0.485752	1.730823	-0.281742	-0.536403	1.000000	-0.000428	-0.000829	0.000347	-1.636054	-76.392666	-6.799808
41841	10.037617	-0.230543	0.236059	2.077840	-0.469160	0.001846	1.000000	-0.000292	-0.000744	0.000338	-1.835614	-76.479381	-6.637374
41842	10.459232	-0.374664	0.136329	2.239371	-0.629120	0.392405	1.000000	-0.000402	-0.000422	0.000347	-2.049304	-76.529309	-6.473530
41843	11.286849	-0.743202	0.031311	2.469144	-1.022823	1.178375	0.999999	-0.001031	-0.000353	0.000286	-2.306753	-76.571602	-6.338802
41844	12.095853	-1.030836	-0.341646	2.958306	-1.382155	1.884622	0.999999	-0.001160	-0.000570	-0.000297	-2.304587	-76.641605	-6.486216
41845	11.193669	-0.635162	-0.812437	3.246637	-1.052217	0.897767	0.999999	-0.000255	-0.000538	-0.001057	-1.830221	-76.711281	-7.012258
41846	9.538883	0.189740	-0.588989	2.769886	-0.178751	-0.665615	0.999999	-0.000216	-0.000022	-0.001082	-1.329043	-76.721167	-7.561239
41847	9.084321	-0.088840	-0.974374	2.989227	-0.515582	-1.194053	0.999999	-0.001219	-0.000147	-0.000607	-1.173934	-76.743765	-7.872808
41848	8.942377	-0.174815	-0.730876	2.706740	-0.572915	-1.275934	1.000000	-0.000587	0.000203	-0.000768	-0.864928	-76.726522	-8.268107
41849	9.046327	0.375353	-0.946362	3.031220	-0.082074	-1.229130	0.999999	-0.000433	0.000930	-0.000678	-0.579887	-76.625627	-8.620876
41850	9.479607	0.450336	-0.911622	3.131295	-0.031763	-0.807651	0.999998	-0.000386	0.001846	-0.000308	-0.467394	-76.419430	-8.790888
41851	10.486248	0.404193	-0.801399	3.296185	-0.106199	0.181840	0.999996	-0.000620	0.002920	0.000150	-0.594738	-76.089847	-8.741984
41852	11.391016	0.100196	-0.774109	3.509699	-0.444244	1.043114	0.999991	-0.000737	0.004223	0.000256	-0.771618	-75.611135	-8.655782
41853	11.348028	0.072775	-0.619642	3.449028	-0.460596	1.006638	0.999985	-0.000716	0.005382	0.000021	-0.829266	-75.000301	-8.690249
41854	10.839213	0.056105	-0.258537	3.091304	-0.420265	0.571159	0.999981	-0.000576	0.006145	0.000007	-0.860251	-74.302346	-8.736034
41855	10.485075	-0.216250	-0.251874	3.071474	-0.693630	0.193828	0.999978	-0.000696	0.006546	0.000175	-0.968545	-73.558375	-8.715937
41856	10.131427	-0.320654	1.080761	1.822911	-0.585848	0.199754	0.999978	-0.000657	0.006525	-0.000041	-0.987289	-72.817568	-8.784660
41857	9.721832	-0.074600	1.554866	1.405028	-0.268226	-0.071514	0.999990	-0.000096	0.004572	-0.000250	-0.881803	-72.301018	-8.916562
41858	9.287031	0.130178	1.922110	1.031193	-0.001131	-0.384176	0.999996	0.000366	0.002656	-0.000031	-0.816832	-72.003687	-8.950560
41859	9.355976	0.105584	1.898361	1.108812	-0.036928	-0.330161	0.999999	0.000125	0.001563	0.000375	-0.927940	-71.830975	-8.828557
41860	9.362287	-0.202566	1.634624	1.329405	-0.381688	-0.407773	0.999999	-0.000151	0.000998	0.000270	-1.035057	-71.723205	-8.743909
41861	9.722488	-0.225524	1.572353	1.511034	-0.429421	-0.087345	1.000000	-0.000319	0.000712	0.000169	-1.127731	-71.648536	-8.694744
41862	9.917774	-0.391868	1.623595	1.507320	-0.592762	0.113463	1.000000	-0.000225	0.000575	0.000115	-1.191647	-71.589781	-8.664596
41863	9.864198	-0.501208	1.645715	1.461866	-0.695728	0.068653	1.000000	-0.000063	0.000648	-0.000104	-1.161438	-71.523323	-8.714149
41864	9.747532	-0.440148	1.797534	1.303568	-0.611208	0.003949	1.000000	0.000159	0.000570	-0.000310	-1.036496	-71.466406	-8.836718
41865	9.751671	-0.275105	1.896849	1.245906	-0.440410	0.037316	1.000000	0.000121	0.000273	-0.000325	-0.913541	-71.443515	-8.961922
41866	9.911763	-0.169186	1.803230	1.403061	-0.365604	0.158324	1.000000	-0.000028	0.000112	-0.000264	-0.829829	-71.439070	-9.063693
41867	9.881587	-0.124084	1.584758	1.607810	-0.360399	0.059378	1.000000	-0.000130	0.000372	-0.000210	-0.775326	-71.404780	-9.147138
41868	9.660778	-0.052326	1.612423	1.534272	-0.278706	-0.143066	1.000000	-0.000170	0.000820	-0.000138	-0.747982	-71.319225	-9.206761
41869	9.399790	-0.118539	1.801373	1.280677	-0.305266	-0.332092	0.999999	-0.000044	0.001143	-0.000187	-0.688924	-71.196829	-9.284779
41870	9.268296	-0.027057	2.120856	0.976443	-0.163553	-0.356481	0.999999	0.000182	0.001191	-0.000238	-0.587839	-71.068996	-9.379829
41872	9.360595	0.158179	2.420651	1.565949	0.102501	9.463157	0.999998	0.000596	0.001682	-0.000390	-0.389273	-70.885049	-9.528001
41873	9.652180	0.210665	2.521411	0.810450	0.094336	0.132197	1.000000	0.000126	0.000472	-0.000068	-0.354942	-70.839578	-9.559496
41874	9.828654	0.225284	2.524312	0.874260	0.098266	0.299254	1.000000	-0.000014	0.000376	0.000078	-0.384810	-70.805055	-9.539961
41875	9.780083	0.132552	2.466719	0.903755	0.001822	0.233979	1.000000	-0.000004	0.000489	0.000216	-0.458187	-70.757512	-9.473173
41876	9.522430	0.052647	2.511841	0.773784	-0.052738	0.005014	1.000000	-0.000001	0.000555	0.000239	-0.538361	-70.702393	-9.398864
41877	9.361434	-0.026133	2.594043	0.641303	-0.105263	-0.120225	1.000000	-0.000070	0.000552	0.000230	-0.622727	-70.647632	-9.328521
41878	9.265543	-0.049236	2.672825	0.541313	-0.107410	-0.185012	1.000000	0.000063	0.000427	0.000194	-0.680353	-70.607321	-9.270360
41879	9.367411	-0.080634	2.709875	0.540959	-0.135425	-0.076809	1.000000	0.000133	0.000305	0.000212	-0.735824	-70.580902	-9.205948
41880	9.387329	-0.150949	2.730457	0.521265	-0.199619	-0.051101	1.000000	0.000048	0.000301	0.000217	-0.802475	-70.554932	-9.140022
41881	9.445742	-0.202526	2.819054	0.454263	-0.235912	0.033536	1.000000	-0.000082	0.000297	0.000182	-0.872594	-70.529516	-9.086252
41882	9.464891	-0.275421	2.848878	0.425094	-0.300838	0.061771	1.000000	-0.000120	0.000288	0.000149	-0.936342	-70.505227	-9.043876
41883	9.457387	-0.334549	2.840342	0.425612	-0.358198	0.052006	1.000000	-0.000022	0.000367	0.000092	-0.970131	-70.472001	-9.021356
41884	9.382133	-0.277053	2.849577	0.410742	-0.297035	-0.016549	1.000000	0.000235	0.000671	0.000022	-0.950467	-70.404151	-9.024360
41885	9.318498	-0.222657	2.994605	0.277916	-0.219935	-0.028721	1.000000	0.000301	0.000894	-0.000002	-0.914642	-70.310822	-9.036492
41886	9.249853	-0.160523	3.234411	0.059486	-0.120794	-0.013259	0.999999	0.000275	0.000962	-0.000048	-0.867083	-70.209699	-9.064268
41887	9.149267	-0.134534	3.430933	-0.136864	-0.062923	-0.041517	1.000000	0.000189	0.000786	-0.000080	-0.820160	-70.128819	-9.101770
41888	9.178838	-0.145827	3.522124	-0.203447	-0.064853	0.017475	1.000000	0.000011	0.000438	-0.000122	-0.782289	-70.087796	-9.151396
41889	9.284908	-0.059660	3.516606	-0.144208	0.010383	0.114986	1.000000	-0.000064	0.000141	-0.000177	-0.736941	-70.080878	-9.218128
41890	9.381488	0.016177	3.512655	-0.096648	0.076713	0.204104	1.000000	-0.000015	-0.000101	-0.000167	-0.689904	-70.101683	-9.280689
41891	9.374038	0.054120	3.375271	0.028297	0.090740	0.150190	1.000000	0.000047	-0.000345	-0.000096	-0.659049	-70.150221	-9.318434
41892	9.315187	0.116460	3.156397	0.212841	0.119670	0.020394	1.000000	0.000141	-0.000421	-0.000018	-0.642276	-70.207364	-9.329782
41893	9.313299	0.097317	2.992772	0.351839	0.075091	-0.036478	1.000000	0.000221	-0.000312	0.000060	-0.640532	-70.251866	-9.315406
41894	9.346903	0.084422	2.906862	0.434437	0.048108	-0.033601	1.000000	0.000219	-0.000165	0.000125	-0.658999	-70.279550	-9.279851
41895	9.419307	0.050942	2.964733	0.397705	0.022413	0.054273	1.000000	0.000134	0.000145	0.000138	-0.690095	-70.271618	-9.241206
41896	9.392048	-0.027614	3.120086	0.235008	-0.026930	0.081266	1.000000	0.000039	0.000377	0.000110	-0.722072	-70.237181	-9.213208
41897	9.253501	-0.022800	3.309388	0.019654	0.017157	0.014782	1.000000	-0.000010	0.000312	0.000093	-0.754244	-70.210170	-9.190970
41898	9.209610	-0.032544	3.358566	-0.039263	0.019803	-0.009830	1.000000	-0.000060	0.000111	0.000120	-0.801500	-70.206136	-9.158761
41899	9.243447	-0.022140	3.295111	0.032917	0.020916	0.000469	1.000000	-0.000012	0.000018	0.000171	-0.860052	-70.212705	-9.108770
41900	9.278636	-0.093481	3.230370	0.091435	-0.057952	0.012046	1.000000	0.000015	-0.000027	0.000213	-0.928882	-70.224334	-9.044565
41901	9.329063	-0.166634	3.247011	0.079202	-0.126473	0.065572	1.000000	0.000103	0.000012	0.000167	-0.972726	-70.231468	-8.996147
41902	9.276426	-0.189456	3.268177	0.037133	-0.140096	0.023366	1.000000	0.000095	-0.000000	0.000149	-1.012088	-70.240090	-8.953465
41903	9.273394	-0.207359	3.293658	0.007717	-0.151535	0.029263	1.000000	0.000080	-0.000051	0.000066	-1.026834	-70.254637	-8.938816
41904	9.325314	-0.196874	3.269331	0.047085	-0.146779	0.069873	1.000000	0.000042	-0.000046	0.000042	-1.038350	-70.268645	-8.932125
41905	9.320445	-0.174646	3.223499	0.089734	-0.131630	0.049704	1.000000	0.000069	-0.000011	0.000001	-1.033565	-70.278785	-8.939608
41906	9.315045	-0.139943	3.211312	0.103540	-0.099433	0.040310	1.000000	0.000108	0.000003	-0.000011	-1.020246	-70.287232	-8.951291
41907	9.278891	-0.106395	3.217078	0.090785	-0.064222	0.008023	1.000000	0.000149	0.000047	-0.000005	-1.004162	-70.290688	-8.960948
41908	9.260350	-0.079675	3.243520	0.064391	-0.033441	-0.000675	1.000000	0.000174	0.000090	0.000009	-0.989400	-70.289177	-8.966231
41909	9.238561	-0.069219	3.296105	0.010081	-0.014446	-0.003518	1.000000	0.000166	0.000070	-0.000017	-0.967351	-70.289932	-8.980200
41910	9.259271	-0.058365	3.291060	0.022887	-0.006702	0.014215	1.000000	0.000103	0.000036	-0.000023	-0.950648	-70.294629	-8.996134
41911	9.293991	-0.015601	3.274685	0.056192	0.029856	0.041145	1.000000	0.000082	0.000056	-0.000052	-0.926965	-70.297052	-9.022071
41912	9.318389	0.032969	3.279247	0.067793	0.076078	0.065396	1.000000	0.000103	0.000051	-0.000021	-0.910562	-70.299981	-9.037631
41913	9.172460	0.074185	3.137656	0.157260	0.100686	-0.119930	1.000000	0.000165	0.000079	0.000038	-0.905818	-70.299536	-9.033245
41914	9.183303	0.056061	3.049267	0.244347	0.067443	-0.139530	1.000000	0.000270	0.000553	0.000146	-0.921036	-70.244648	-8.995000
41915	9.242229	-0.034109	3.313824	0.021838	0.016575	0.005691	0.999999	0.000212	0.001497	0.000138	-0.934937	-70.081646	-8.965370
41916	9.178466	-0.069300	3.855157	-0.477081	0.069629	0.131091	0.999999	0.000076	0.001691	0.000118	-0.956812	-69.896327	-8.943528
41917	9.129001	-0.018598	4.284847	-0.855354	0.189824	0.233765	0.999999	-0.000074	0.001190	0.000128	-1.001054	-69.768432	-8.916256
41918	9.080221	-0.116984	4.331792	-0.918354	0.103950	0.206012	1.000000	-0.000111	0.000309	0.000103	-1.046170	-69.741393	-8.892611
41919	9.072653	-0.115000	4.158181	-0.763629	0.080921	0.138546	1.000000	-0.000046	-0.000550	0.000046	-1.070887	-69.812767	-8.882615
41920	9.064302	-0.105372	3.752446	-0.405349	0.028134	-0.010219	1.000000	0.000082	-0.000918	0.000036	-1.080164	-69.926176	-8.873489
41921	9.215563	-0.153489	3.354748	-0.011746	-0.089384	-0.004714	1.000000	0.000146	-0.000727	0.000024	-1.076959	-70.017689	-8.869681
41922	9.382014	-0.161161	3.235726	0.141435	-0.123811	0.111160	1.000000	0.000190	-0.000342	0.000011	-1.062516	-70.065166	-8.872614
41923	9.439401	-0.166667	3.274813	0.117401	-0.125629	0.178554	1.000000	0.000124	-0.000138	0.000003	-1.051911	-70.089230	-8.879494
41924	9.319320	-0.188121	3.285483	0.057869	-0.138363	0.069470	1.000000	0.000040	-0.000277	-0.000017	-1.045315	-70.129314	-8.892347
41925	9.251851	-0.176313	3.144004	0.159325	-0.145966	-0.042023	1.000000	0.000002	-0.000480	-0.000105	-1.016287	-70.192810	-8.933569
41926	9.309462	-0.132426	2.947771	0.356572	-0.137815	-0.054264	1.000000	-0.000046	-0.000522	-0.000119	-0.988217	-70.261114	-8.979689
41927	9.388850	-0.040810	2.796630	0.528986	-0.077033	-0.030687	1.000000	0.000003	-0.000323	-0.000132	-0.949300	-70.306639	-9.031228
41928	9.439217	0.022926	2.732311	0.611794	-0.029145	-0.005051	1.000000	0.000113	0.000036	-0.000092	-0.908564	-70.310920	-9.071257
41929	9.354681	0.062549	2.899693	0.437292	0.039422	-0.028547	1.000000	0.000227	0.000352	-0.000018	-0.876603	-70.278967	-9.088359
41930	9.351385	0.084559	3.144306	0.219524	0.099431	0.050584	1.000000	0.000199	0.000458	0.000071	-0.875726	-70.234639	-9.075723
41931	9.284926	0.024502	3.293476	0.055431	0.067370	0.038700	1.000000	0.000125	0.000370	0.000073	-0.884164	-70.200570	-9.062435
41932	9.228775	0.012670	3.362895	-0.024665	0.070377	0.009428	1.000000	-0.000019	0.000275	0.000087	-0.914072	-70.177280	-9.043946
41933	9.244659	-0.002558	3.375953	-0.030107	0.057397	0.028887	1.000000	-0.000034	0.000251	0.000037	-0.930083	-70.156686	-9.042022
41934	9.243268	0.024830	3.428308	-0.070279	0.093498	0.045214	1.000000	-0.000010	0.000293	0.000066	-0.951976	-70.131384	-9.030724
41935	9.217420	0.033030	3.524547	-0.162383	0.119600	0.053603	1.000000	0.000086	0.000265	0.000128	-0.982393	-70.109164	-8.998939
41936	9.167204	-0.013795	3.603750	-0.257959	0.090955	0.033632	1.000000	0.000115	0.000117	0.000188	-1.029109	-70.103661	-8.946302
41937	9.164184	-0.128349	3.606747	-0.282160	-0.018130	0.032485	1.000000	0.000118	-0.000102	0.000215	-1.085403	-70.123007	-8.882672
41938	9.233551	-0.212705	3.458643	-0.140351	-0.125452	0.047864	1.000000	0.000051	-0.000238	0.000158	-1.132314	-70.158010	-8.837254
41939	9.295748	-0.254490	3.349020	-0.030712	-0.185208	0.069437	1.000000	0.000033	-0.000223	0.000043	-1.144822	-70.191579	-8.831023
41940	9.286374	-0.234396	3.228630	0.076233	-0.183565	0.019720	1.000000	-0.000007	-0.000145	-0.000010	-1.144485	-70.216200	-8.842404
41941	9.317062	-0.158193	3.196977	0.125224	-0.115572	0.037404	1.000000	0.000045	-0.000078	-0.000077	-1.116465	-70.233464	-8.877501
41942	9.311292	-0.131990	3.181034	0.139643	-0.093231	0.026437	1.000000	0.000107	-0.000054	-0.000049	-1.090189	-70.247893	-8.903196
41943	9.309143	-0.075492	3.162627	0.162768	-0.041365	0.017870	1.000000	0.000119	-0.000088	-0.000022	-1.071118	-70.266076	-8.919241
41944	9.323895	-0.069014	3.093521	0.230159	-0.047632	0.008433	1.000000	0.000129	-0.000030	0.000001	-1.057736	-70.277767	-8.928415
41945	9.343945	-0.068160	3.085578	0.243247	-0.049723	0.024645	1.000000	0.000112	0.000071	-0.000003	-1.044902	-70.277820	-8.939672
41946	9.333103	-0.039857	3.144354	0.191180	-0.012754	0.034071	1.000000	0.000097	0.000206	-0.000026	-1.025619	-70.262499	-8.959638
41947	9.302778	0.026815	3.263023	0.085699	0.072091	0.045161	1.000000	0.000063	0.000282	-0.000064	-0.997324	-70.238486	-8.992111
41948	9.251836	0.078987	3.366543	-0.014845	0.141357	0.031911	1.000000	0.000082	0.000229	-0.000016	-0.982534	-70.220309	-9.008109
41949	9.231529	0.102691	3.404301	-0.050211	0.171557	0.025451	1.000000	0.000029	0.000146	0.000050	-0.995151	-70.211296	-9.002345
41950	9.224615	0.056873	3.425298	-0.078843	0.131396	0.026313	1.000000	0.000061	0.000075	0.000119	-1.026905	-70.210458	-8.972217
41951	9.248648	0.004191	3.416297	-0.071427	0.079017	0.046179	1.000000	0.000065	0.000038	0.000169	-1.073433	-70.213830	-8.925438
41952	9.241747	-0.071710	3.388708	-0.061405	0.002903	0.030817	1.000000	0.000072	0.000036	0.000176	-1.121849	-70.217237	-8.876460
41953	9.245900	-0.117515	3.399119	-0.078170	-0.038158	0.038552	1.000000	0.000057	-0.000004	0.000133	-1.157858	-70.225400	-8.841493
41954	9.273837	-0.153405	3.362571	-0.042784	-0.078988	0.052728	1.000000	0.000056	-0.000052	0.000088	-1.180410	-70.239362	-8.822220
41955	9.285311	-0.172534	3.307391	0.006229	-0.105945	0.045018	1.000000	0.000023	-0.000101	0.000058	-1.197183	-70.258783	-8.811465
41956	9.282851	-0.153879	3.229278	0.077798	-0.099113	0.016217	1.000000	0.000047	-0.000099	0.000036	-1.204279	-70.278261	-8.809236
41957	9.314532	-0.164911	3.177822	0.131542	-0.119477	0.028790	1.000000	0.000059	-0.000029	0.000022	-1.204877	-70.289783	-8.811549
41958	9.325147	-0.156518	3.180785	0.132468	-0.111126	0.039742	1.000000	0.000093	0.000031	0.000023	-1.201901	-70.294047	-8.814259
41959	9.334605	-0.150031	3.194207	0.123922	-0.103391	0.053126	1.000000	0.000127	0.000077	0.000006	-1.189698	-70.293253	-8.822723
41960	9.304532	-0.126607	3.239002	0.076564	-0.072315	0.039743	1.000000	0.000113	0.000096	-0.000015	-1.171410	-70.290577	-8.839645
41961	9.281419	-0.056100	3.255559	0.066085	-0.000178	0.023073	1.000000	0.000084	0.000108	-0.000038	-1.149446	-70.286508	-8.863562
41962	9.284491	-0.009964	3.279025	0.054232	0.047566	0.033564	1.000000	0.000063	0.000140	-0.000042	-1.128372	-70.278185	-8.888625
41963	9.276853	0.027593	3.299748	0.040019	0.087210	0.033119	1.000000	0.000077	0.000128	-0.000013	-1.115475	-70.271789	-8.905153
41964	9.264081	0.036638	3.353400	-0.011447	0.105094	0.039148	1.000000	0.000090	0.000115	0.000032	-1.115401	-70.266583	-8.905328
41965	9.242319	0.034017	3.373149	-0.036602	0.107098	0.025348	1.000000	0.000095	0.000102	0.000070	-1.126689	-70.262470	-8.891504
41966	9.234791	-0.013633	3.402828	-0.074761	0.066355	0.028593	1.000000	0.000083	0.000023	0.000091	-1.146702	-70.267250	-8.870864
41967	9.245985	-0.018643	3.372849	-0.045136	0.057316	0.029029	1.000000	0.000058	-0.000007	0.000094	-1.170198	-70.276141	-8.850350
41968	9.263283	-0.062870	3.333586	-0.012128	0.008208	0.032360	1.000000	0.000017	-0.000036	0.000104	-1.201380	-70.288161	-8.825879
41969	9.283501	-0.078866	3.301032	0.020225	-0.012025	0.040529	1.000000	0.000048	-0.000037	0.000097	-1.226886	-70.300266	-8.803635
41970	9.282675	-0.097025	3.286211	0.028702	-0.030469	0.034897	1.000000	0.000056	-0.000039	0.000105	-1.254353	-70.312591	-8.778141
41971	9.299975	-0.140991	3.246817	0.061695	-0.079584	0.038257	1.000000	0.000065	-0.000020	0.000077	-1.271848	-70.322671	-8.761967
41972	9.281283	-0.151898	3.212350	0.084168	-0.093794	0.009155	1.000000	0.000089	-0.000007	0.000087	-1.290177	-70.330951	-8.742650
41973	9.296088	-0.180513	3.237651	0.059843	-0.117698	0.031843	1.000000	0.000062	0.000045	0.000046	-1.297363	-70.333643	-8.738808
41974	9.299463	-0.142710	3.248209	0.057668	-0.078967	0.038286	1.000000	0.000082	0.000088	-0.000002	-1.287036	-70.331406	-8.750454
41975	9.298183	-0.136951	3.271080	0.037271	-0.070349	0.044726	1.000000	0.000090	0.000083	-0.000025	-1.268089	-70.329589	-8.769803
41976	9.282199	-0.088627	3.292534	0.020509	-0.019571	0.036528	1.000000	0.000090	0.000084	-0.000033	-1.246898	-70.327998	-8.791612
41977	9.273875	-0.067494	3.298137	0.016234	0.001411	0.030419	1.000000	0.000090	0.000083	-0.000025	-1.227973	-70.326798	-8.812604
41978	9.265681	-0.039319	3.315432	0.002471	0.031390	0.028323	1.000000	0.000082	0.000075	-0.000019	-1.211867	-70.325617	-8.829156
41979	9.266245	-0.021812	3.330909	-0.008719	0.050273	0.033943	1.000000	0.000097	0.000073	-0.000011	-1.196953	-70.325271	-8.844731
41980	9.266840	-0.011634	3.334214	-0.010235	0.060130	0.035547	1.000000	0.000094	0.000033	-0.000000	-1.186182	-70.329300	-8.857247
41981	9.264876	-0.022806	3.341836	-0.020795	0.050156	0.036342	1.000000	0.000093	0.000017	0.000013	-1.180346	-70.335185	-8.863543
41982	9.266441	-0.018232	3.323261	-0.003248	0.051563	0.031533	1.000000	0.000077	0.000022	0.000036	-1.183268	-70.340543	-8.862500
41983	9.286478	-0.025714	3.303425	0.019462	0.040296	0.043780	1.000000	0.000060	-0.000000	0.000041	-1.189408	-70.348233	-8.859251
41984	9.304634	-0.052337	3.278906	0.042495	0.009700	0.052823	1.000000	0.000037	0.000015	0.000049	-1.199678	-70.354337	-8.853543
41985	9.291631	-0.101599	3.236490	0.068291	-0.044623	0.026669	1.000000	0.000055	0.000032	0.000029	-1.202901	-70.357748	-8.853949
41986	9.317529	-0.133242	3.232221	0.074925	-0.077841	0.049852	1.000000	0.000072	0.000057	0.000009	-1.197452	-70.358883	-8.862323
41987	9.317052	-0.132645	3.233621	0.073630	-0.077674	0.049863	1.000000	0.000068	0.000092	-0.000025	-1.180691	-70.355966	-8.881073
41988	9.315649	-0.126429	3.256778	0.053185	-0.069018	0.056270	1.000000	0.000062	0.000112	-0.000061	-1.152880	-70.351225	-8.914568
41989	9.288498	-0.100402	3.252595	0.053533	-0.044465	0.029102	1.000000	0.000080	0.000156	-0.000055	-1.124685	-70.341436	-8.945868
41990	9.250406	-0.096919	3.222313	0.071072	-0.046129	-0.016998	1.000000	0.000058	0.000153	-0.000087	-1.089642	-70.330960	-8.985563
41991	9.249642	-0.073588	3.260592	0.040876	-0.018742	-0.005001	1.000000	0.000050	0.000166	-0.000056	-1.065557	-70.319827	-9.018864
41992	9.276166	-0.051351	3.331645	-0.010416	0.011968	0.043757	1.000000	0.000080	0.000175	-0.000022	-1.047359	-70.307004	-9.038989
41993	9.272742	-0.035530	3.398297	-0.069064	0.037674	0.062900	1.000000	0.000115	0.000139	0.000006	-1.035054	-70.299353	-9.050186
41994	9.231459	-0.034660	3.416974	-0.098961	0.042805	0.030336	1.000000	0.000129	0.000102	-0.000006	-1.018104	-70.294841	-9.063050
41995	9.240916	-0.013020	3.454087	-0.126663	0.068746	0.051625	1.000000	0.000125	0.000026	-0.000015	-0.999176	-70.299521	-9.080510
41996	9.229451	0.024338	3.391327	-0.066999	0.095156	0.019449	1.000000	0.000054	-0.000003	0.000002	-0.992814	-70.307435	-9.091911
41997	9.260354	0.018314	3.361985	-0.032288	0.082837	0.038685	1.000000	0.000065	-0.000053	0.000027	-0.993662	-70.320290	-9.093558
41998	9.263271	0.024679	3.332719	-0.005202	0.084699	0.031530	1.000000	0.000050	-0.000039	0.000044	-1.001609	-70.332210	-9.090091
41999	9.274721	-0.001598	3.266440	0.053322	0.048183	0.020162	1.000000	0.000086	-0.000059	0.000073	-1.015000	-70.346590	-9.075246
42000	9.292534	-0.023614	3.262146	0.057154	0.026004	0.035633	1.000000	0.000087	-0.000045	0.000083	-1.030157	-70.359658	-9.060243
42001	9.326665	-0.076490	3.252808	0.066521	-0.028041	0.064968	1.000000	0.000066	0.000001	0.000095	-1.052805	-70.366396	-9.036841
42002	9.324531	-0.111152	3.224910	0.084843	-0.065313	0.053812	1.000000	0.000044	0.000019	0.000081	-1.073112	-70.371211	-9.020332
42003	9.305792	-0.107594	3.214869	0.088036	-0.061595	0.032777	1.000000	0.000047	0.000054	0.000047	-1.081365	-70.373036	-9.018552
42004	9.272710	-0.120685	3.240491	0.051449	-0.068233	0.010305	1.000000	0.000065	0.000092	0.000036	-1.084079	-70.368623	-9.014574
42005	9.282609	-0.112558	3.245488	0.052600	-0.060034	0.021249	1.000000	0.000075	0.000131	0.000034	-1.083933	-70.360099	-9.013123
42006	9.287126	-0.117478	3.307694	-0.003015	-0.055068	0.046436	1.000000	0.000083	0.000131	0.000026	-1.081253	-70.351708	-9.016098
42007	9.266202	-0.102633	3.341741	-0.037895	-0.034238	0.038082	1.000000	0.000083	0.000118	0.000002	-1.070812	-70.345943	-9.029356
42008	9.256891	-0.076936	3.368898	-0.060929	-0.004761	0.038287	1.000000	0.000083	0.000097	-0.000009	-1.057150	-70.342106	-9.043719
42009	9.239004	-0.047823	3.385294	-0.076999	0.026828	0.026776	1.000000	0.000088	0.000050	-0.000006	-1.044507	-70.344113	-9.059841
42010	9.242388	-0.030982	3.359732	-0.049912	0.038224	0.021261	1.000000	0.000086	0.000013	-0.000018	-1.027923	-70.349395	-9.076733
42011	9.257418	-0.003834	3.327234	-0.011238	0.058273	0.024323	1.000000	0.000077	0.000010	0.000012	-1.021767	-70.355866	-9.083879
42012	9.256545	0.001337	3.348613	-0.031559	0.066989	0.030653	1.000000	0.000084	0.000007	0.000035	-1.022418	-70.362473	-9.087055
42013	9.288260	0.004317	3.322030	0.002753	0.064180	0.051569	1.000000	0.000059	-0.000015	0.000039	-1.026894	-70.372001	-9.086304
42014	9.278603	-0.009353	3.297459	0.018348	0.047588	0.034301	1.000000	0.000074	-0.000031	0.000038	-1.029122	-70.382498	-9.084744
42015	9.290053	-0.021254	3.255248	0.057733	0.029062	0.030991	1.000000	0.000065	-0.000013	0.000078	-1.046098	-70.390593	-9.070322
42016	9.297799	-0.042124	3.251428	0.059076	0.008371	0.037138	1.000000	0.000068	0.000020	0.000059	-1.055176	-70.396016	-9.062195
42017	9.304331	-0.072326	3.246081	0.060735	-0.021944	0.041686	1.000000	0.000063	0.000066	0.000064	-1.066953	-70.395091	-9.052975
42018	9.280875	-0.087071	3.272336	0.026341	-0.029976	0.028492	1.000000	0.000040	0.000081	0.000080	-1.086679	-70.393322	-9.039558
42019	9.286343	-0.112242	3.288872	0.008809	-0.051654	0.039353	1.000000	0.000072	0.000076	0.000042	-1.090801	-70.392027	-9.036793
42020	9.287655	-0.100935	3.283153	0.016777	-0.041376	0.038598	1.000000	0.000072	0.000083	0.000043	-1.094449	-70.390275	-9.034610
42021	9.273824	-0.108660	3.322077	-0.024652	-0.041821	0.038681	1.000000	0.000066	0.000094	0.000021	-1.091890	-70.386221	-9.040236
42022	9.273255	-0.101175	3.335587	-0.035638	-0.032550	0.042631	1.000000	0.000074	0.000095	0.000006	-1.083577	-70.383389	-9.053103
42023	9.243668	-0.090062	3.347089	-0.053740	-0.018771	0.018552	1.000000	0.000067	0.000089	-0.000002	-1.072771	-70.380703	-9.065435
42024	9.256589	-0.060011	3.346487	-0.043391	0.009273	0.030333	1.000000	0.000089	0.000066	-0.000012	-1.057671	-70.379897	-9.082331
42025	9.268883	-0.017602	3.378400	-0.061835	0.055057	0.052364	1.000000	0.000064	0.000043	-0.000000	-1.048994	-70.382671	-9.096229
42026	9.270393	-0.020070	3.348337	-0.034542	0.047104	0.043708	1.000000	0.000093	0.000025	0.000007	-1.039361	-70.387014	-9.106804
42027	9.260628	-0.018579	3.347924	-0.038190	0.048715	0.034360	1.000000	0.000084	0.000001	0.000019	-1.033815	-70.394157	-9.111971
42028	9.263445	-0.004603	3.331035	-0.020534	0.059538	0.031258	1.000000	0.000068	-0.000021	0.000016	-1.031021	-70.403393	-9.117694
42029	9.282897	-0.006824	3.332080	-0.016708	0.056593	0.049944	1.000000	0.000083	-0.000008	0.000033	-1.031171	-70.409983	-9.116882
42030	9.284658	-0.017414	3.289424	0.020072	0.039410	0.037365	1.000000	0.000058	-0.000017	0.000054	-1.039726	-70.419507	-9.110921
42031	9.283614	-0.042023	3.263619	0.038175	0.011644	0.027886	1.000000	0.000060	0.000006	0.000049	-1.047864	-70.425542	-9.104409
42032	9.285272	-0.038372	3.245045	0.056038	0.012763	0.023204	1.000000	0.000068	0.000035	0.000068	-1.061115	-70.427728	-9.091298
42033	9.319022	-0.076453	3.260690	0.045819	-0.023126	0.060482	1.000000	0.000069	0.000050	0.000070	-1.073999	-70.428767	-9.077888
42034	9.306207	-0.082793	3.289693	0.014047	-0.022974	0.058164	1.000000	0.000055	0.000080	0.000081	-1.092631	-70.425110	-9.060563
42035	9.273771	-0.108465	3.282437	0.006024	-0.047244	0.025336	1.000000	0.000072	0.000076	0.000042	-1.095493	-70.423117	-9.057550
42036	9.260799	-0.120978	3.299982	-0.016249	-0.056287	0.019071	1.000000	0.000051	0.000083	-0.000011	-1.083452	-70.419678	-9.073360
42037	9.273739	-0.083907	3.311257	-0.015537	-0.019172	0.034805	1.000000	0.000097	0.000092	0.000022	-1.077302	-70.416333	-9.078441
42038	9.262587	-0.084747	3.321668	-0.028612	-0.018003	0.027792	1.000000	0.000073	0.000078	0.000020	-1.073708	-70.414420	-9.085115
42039	9.244684	-0.055938	3.338005	-0.044347	0.013591	0.016221	1.000000	0.000089	0.000079	0.000005	-1.063524	-70.412312	-9.097525
42040	9.266475	-0.036908	3.335431	-0.031554	0.030457	0.035769	1.000000	0.000085	0.000038	0.000031	-1.062685	-70.415219	-9.102706
42041	9.266421	-0.014973	3.371156	-0.061455	0.058114	0.047552	1.000000	0.000085	0.000023	0.000029	-1.062209	-70.419663	-9.106052
42042	9.269939	-0.013759	3.321722	-0.015090	0.050983	0.034290	1.000000	0.000068	0.000000	0.000034	-1.063886	-70.425935	-9.103679
42043	9.280468	-0.012798	3.313071	-0.004038	0.050109	0.041305	1.000000	0.000069	0.000017	0.000020	-1.063055	-70.428738	-9.107448
42044	9.270680	-0.018963	3.300856	0.002125	0.042591	0.028029	1.000000	0.000061	0.000001	0.000026	-1.063494	-70.434553	-9.109601
42045	9.287221	-0.035418	3.318992	-0.013318	0.029046	0.049788	1.000000	0.000067	0.000004	0.000065	-1.074581	-70.441752	-9.100023
42046	9.291774	-0.018107	3.283454	0.023277	0.040615	0.042072	1.000000	0.000060	0.000013	0.000058	-1.083679	-70.447102	-9.093166
42047	9.298339	-0.055699	3.266175	0.034166	0.001136	0.042714	1.000000	0.000068	0.000035	0.000068	-1.096106	-70.450628	-9.083433
42048	9.287415	-0.057354	3.275927	0.021150	0.002236	0.035694	1.000000	0.000086	0.000066	0.000057	-1.101896	-70.449744	-9.074493
42049	9.289133	-0.105405	3.306820	-0.015005	-0.039741	0.047959	1.000000	0.000055	0.000061	0.000048	-1.107278	-70.448219	-9.067208
42050	9.272219	-0.082378	3.301600	-0.011833	-0.016757	0.030126	1.000000	0.000049	0.000064	0.000025	-1.108701	-70.449019	-9.073921
42051	9.272809	-0.072875	3.304887	-0.013221	-0.006971	0.031720	1.000000	0.000056	0.000050	0.000008	-1.103509	-70.450921	-9.085058
42052	9.283030	-0.064326	3.308977	-0.011992	0.001288	0.042664	1.000000	0.000096	0.000077	0.000020	-1.098356	-70.448253	-9.088007
42053	9.263323	-0.047389	3.332299	-0.037113	0.022745	0.031790	1.000000	0.000094	0.000059	0.000049	-1.100430	-70.448878	-9.082249
42054	9.261181	-0.044593	3.363929	-0.066879	0.031165	0.040334	1.000000	0.000093	0.000043	0.000047	-1.104000	-70.451235	-9.077435
42055	9.250392	-0.053159	3.361427	-0.070183	0.023215	0.029380	1.000000	0.000075	-0.000001	0.000041	-1.108436	-70.457288	-9.073519
42056	9.262914	-0.048170	3.333427	-0.040506	0.023114	0.031776	1.000000	0.000074	-0.000024	0.000039	-1.110390	-70.466398	-9.075583
42057	9.264938	-0.044160	3.313952	-0.022789	0.024104	0.027140	1.000000	0.000066	-0.000031	0.000038	-1.113101	-70.477065	-9.073946
42058	9.287275	-0.032976	3.298070	-0.000387	0.031532	0.042810	1.000000	0.000059	-0.000022	0.000031	-1.112207	-70.486371	-9.076083
42059	9.298841	-0.037442	3.267795	0.029607	0.021730	0.043629	1.000000	0.000075	-0.000009	0.000041	-1.114611	-70.492265	-9.072253
42060	9.296848	-0.056754	3.263493	0.028714	0.002524	0.040443	1.000000	0.000068	0.000021	0.000051	-1.121609	-70.495707	-9.063856
42061	9.297557	-0.055213	3.254607	0.037003	0.003070	0.038135	1.000000	0.000077	0.000043	0.000062	-1.131066	-70.497614	-9.055352
42062	9.303943	-0.085429	3.249677	0.038277	-0.027353	0.042710	1.000000	0.000078	0.000065	0.000065	-1.139449	-70.497311	-9.047833
42063	9.293855	-0.070081	3.273847	0.015791	-0.007397	0.041166	1.000000	0.000080	0.000091	0.000044	-1.142018	-70.492892	-9.045780
