// Start Time: Unknown
// Update Rate: 40.0Hz
// Filter Profile: human (46.1)
// Firmware Version: 4.4.0
PacketCounter	Acc_X	Acc_Y	Acc_Z	FreeAcc_X	FreeAcc_Y	FreeAcc_Z	OriInc_q0	OriInc_q1	OriInc_q2	OriInc_q3	Roll	Pitch	Yaw
58800	1.186111	-0.097166	9.709143	-0.000000	0.000000	-0.030879	1.000000	-0.000107	0.000065	0.000030	-0.567028	-6.968383	40.256132
58801	1.191813	-0.101769	9.715640	0.006697	-0.000397	-0.023694	1.000000	-0.000097	0.000064	0.000034	-0.578631	-6.961054	40.259984
58802	1.179406	-0.091249	9.717980	-0.010217	0.000642	-0.022981	1.000000	-0.000103	0.000066	0.000020	-0.585836	-6.958885	40.262903
58803	1.169553	-0.102328	9.724112	-0.011811	-0.014117	-0.017978	1.000000	-0.000120	0.000048	0.000042	-0.591595	-6.961175	40.268729
58804	1.172314	-0.112579	9.701967	-0.001609	-0.016321	-0.039516	1.000000	-0.000102	0.000048	0.000026	-0.603449	-6.955615	40.271694
58805	1.182879	-0.098497	9.710983	-0.004287	0.001834	-0.029433	1.000000	-0.000116	0.000049	0.000032	-0.612604	-6.953946	40.275929
58806	1.181873	-0.100635	9.711083	-0.004329	0.000062	-0.029433	1.000000	-0.000095	0.000054	0.000040	-0.616250	-6.954582	40.281493
58807	1.178507	-0.112173	9.709908	0.000127	-0.009931	-0.030885	1.000000	-0.000115	0.000057	0.000033	-0.623515	-6.953543	40.286010
58808	1.180650	-0.108959	9.738620	-0.003646	-0.006724	-0.002159	1.000000	-0.000105	0.000056	0.000037	-0.630992	-6.950453	40.290829
58809	1.172611	-0.108537	9.732362	-0.010224	-0.010091	-0.009348	1.000000	-0.000105	0.000056	0.000037	-0.638839	-6.950302	40.295943
58810	1.182225	-0.090541	9.714085	-0.012489	0.012103	-0.026523	1.000000	-0.000117	0.000040	0.000032	-0.643010	-6.946201	40.300408
58811	1.192331	-0.105205	9.711971	0.003388	0.007780	-0.027238	1.000000	-0.000096	0.000066	0.000017	-0.648322	-6.950408	40.303606
58812	1.179610	-0.092651	9.700649	-0.014021	0.011147	-0.040157	1.000000	-0.000102	0.000048	0.000026	-0.657022	-6.950575	40.307350
58813	1.185639	-0.097217	9.707108	-0.007942	0.012759	-0.032968	1.000000	-0.000096	0.000046	0.000040	-0.667374	-6.947858	40.312239
58814	1.180903	-0.091484	9.729457	-0.017734	0.013791	-0.011426	1.000000	-0.000125	0.000058	0.000029	-0.675594	-6.943638	40.316498
58815	1.179532	-0.093746	9.729602	-0.018113	0.012352	-0.011424	1.000000	-0.000101	0.000082	0.000021	-0.682470	-6.941369	40.319750
58816	1.182937	-0.107785	9.734795	-0.007543	0.005054	-0.005694	1.000000	-0.000103	0.000046	0.000043	-0.692043	-6.939916	40.325007
58817	1.174069	-0.103167	9.701215	-0.014265	0.006920	-0.040154	1.000000	-0.000091	0.000055	0.000030	-0.700493	-6.934579	40.328756
58818	1.188694	-0.098879	9.701716	-0.005693	0.020499	-0.037944	1.000000	-0.000105	0.000055	0.000037	-0.704304	-6.929482	40.334161
58819	1.168497	-0.101100	9.737360	-0.022954	0.004092	-0.004974	1.000000	-0.000079	0.000070	0.000035	-0.705413	-6.925297	40.339450
58820	1.186310	-0.102730	9.701967	-0.003675	0.018252	-0.037939	1.000000	-0.000116	0.000049	0.000032	-0.709588	-6.915179	40.345098
58821	1.192464	-0.109443	9.722120	0.003585	0.017630	-0.017115	1.000000	-0.000092	0.000079	0.000042	-0.715871	-6.904824	40.350841
58822	1.186558	-0.099524	9.717199	-0.006538	0.023564	-0.022836	1.000000	-0.000112	0.000049	0.000022	-0.724057	-6.898353	40.354284
58823	1.179514	-0.103039	9.738240	-0.012287	0.015939	-0.002755	1.000000	-0.000091	0.000055	0.000030	-0.729746	-6.896897	40.358313
58824	1.178071	-0.102915	9.724686	-0.011756	0.016631	-0.016385	1.000000	-0.000096	0.000046	0.000040	-0.731255	-6.893573	40.364594
58825	1.163272	-0.099966	9.712035	-0.023659	0.011965	-0.030759	1.000000	-0.000123	0.000049	0.000035	-0.740798	-6.887012	40.369716
58826	1.184830	-0.098420	9.718928	-0.008810	0.028882	-0.021357	1.000000	-0.000087	0.000062	0.000038	-0.748463	-6.876174	40.374883
58827	1.174518	-0.107240	9.711340	-0.010835	0.015679	-0.030011	1.000000	-0.000112	0.000049	0.000022	-0.750549	-6.881639	40.378225
58828	1.183150	-0.104553	9.732796	-0.008911	0.022238	-0.007713	1.000000	-0.000097	0.000057	0.000016	-0.754108	-6.883105	40.380729
58829	1.174825	-0.102108	9.712866	-0.014784	0.021068	-0.028530	1.000000	-0.000121	0.000039	0.000042	-0.759820	-6.880367	40.387267
58830	1.180311	-0.104721	9.705685	-0.009085	0.024278	-0.034970	1.000000	-0.000083	0.000063	0.000028	-0.766242	-6.878457	40.390482
58831	1.168111	-0.094024	9.708041	-0.024719	0.024727	-0.034233	1.000000	-0.000099	0.000047	0.000033	-0.765406	-6.874918	40.397101
58832	1.181055	-0.101223	9.720874	-0.012232	0.025809	-0.019847	1.000000	-0.000099	0.000047	0.000033	-0.763725	-6.881665	40.402459
58833	1.176394	-0.095253	9.743234	-0.021924	0.026839	0.001709	1.000000	-0.000089	0.000046	0.000037	-0.767869	-6.878318	40.408206
58834	1.174778	-0.095342	9.729706	-0.021720	0.028076	-0.011917	1.000000	-0.000123	0.000075	0.000030	-0.776042	-6.871149	40.412818
58835	1.168636	-0.085474	9.724841	-0.030729	0.032944	-0.017611	1.000000	-0.000088	0.000080	0.000032	-0.772224	-6.860203	40.420798
58836	1.185524	-0.102743	9.729082	-0.005945	0.031224	-0.011155	1.000000	-0.000121	0.000039	0.000042	-0.772808	-6.853489	40.429189
58837	1.175362	-0.111726	9.721449	-0.006764	0.019872	-0.019828	1.000000	-0.000097	0.000057	0.000016	-0.776910	-6.845311	40.432833
58838	1.170235	-0.103821	9.730166	-0.016909	0.022007	-0.011892	1.000000	-0.000104	0.000038	0.000042	-0.778355	-6.847870	40.438541
58839	1.178189	-0.097102	9.724324	-0.015425	0.034053	-0.016839	1.000000	-0.000106	0.000047	0.000036	-0.787688	-6.845420	40.442150
58840	1.177013	-0.099319	9.724445	-0.014941	0.032688	-0.016833	1.000000	-0.000113	0.000073	0.000034	-0.793094	-6.840047	40.447321
58841	1.173961	-0.112960	9.736852	-0.008719	0.019440	-0.004692	1.000000	-0.000102	0.000048	0.000026	-0.788185	-6.837613	40.453739
58842	1.185976	-0.085351	9.720109	-0.014996	0.050079	-0.020262	1.000000	-0.000109	0.000048	0.000029	-0.788430	-6.830838	40.460573
58843	1.187213	-0.108909	9.723867	0.000803	0.034516	-0.016069	1.000000	-0.000104	0.000064	0.000037	-0.796548	-6.822975	40.465441
58844	1.181848	-0.101111	9.732623	-0.009292	0.036156	-0.008120	1.000000	-0.000105	0.000055	0.000037	-0.795587	-6.825196	40.469843
58845	1.189539	-0.094425	9.726833	-0.006850	0.046735	-0.013046	1.000000	-0.000111	0.000058	0.000023	-0.794743	-6.822858	40.474871
58846	1.171876	-0.098602	9.699183	-0.013654	0.034606	-0.042540	1.000000	-0.000101	0.000056	0.000027	-0.792432	-6.815731	40.481180
58847	1.174342	-0.097508	9.741599	-0.014483	0.034517	-0.000147	1.000000	-0.000098	0.000055	0.000034	-0.784831	-6.804457	40.492009
58848	1.178932	-0.095826	9.707153	-0.008862	0.041480	-0.033828	1.000000	-0.000098	0.000055	0.000034	-0.787353	-6.803649	40.496775
58849	1.176058	-0.109439	9.719517	-0.004290	0.028270	-0.021707	1.000000	-0.000110	0.000046	0.000046	-0.790531	-6.808857	40.500768
58850	1.177281	-0.102037	9.721005	-0.005444	0.034158	-0.020183	1.000000	-0.000086	0.000064	0.000021	-0.775472	-6.796500	40.511653
58851	1.171311	-0.089905	9.702462	-0.017061	0.039349	-0.039459	1.000000	-0.000114	0.000033	0.000021	-0.774630	-6.808939	40.512846
58852	1.168973	-0.105715	9.728445	-0.011493	0.025573	-0.013732	1.000000	-0.000105	0.000055	0.000037	-0.782347	-6.803423	40.517710
58853	1.194722	-0.114160	9.726770	0.012810	0.036827	-0.012232	1.000000	-0.000105	0.000055	0.000037	-0.789657	-6.803336	40.520330
58854	1.162177	-0.097999	9.723673	-0.022093	0.028679	-0.019385	1.000000	-0.000111	0.000057	0.000023	-0.791958	-6.802749	40.523719
58855	1.187487	-0.104531	9.708363	0.002524	0.041494	-0.031499	1.000000	-0.000122	0.000057	0.000036	-0.795450	-6.802258	40.528718
58856	1.182498	-0.099130	9.730781	-0.007024	0.042548	-0.009914	1.000000	-0.000114	0.000065	0.000033	-0.802577	-6.795741	40.532317
58857	1.174417	-0.098635	9.724525	-0.012324	0.038994	-0.017091	1.000000	-0.000098	0.000055	0.000034	-0.803562	-6.790717	40.539373
58858	1.179919	-0.101169	9.717363	-0.005527	0.039219	-0.023509	1.000000	-0.000102	0.000048	0.000026	-0.793848	-6.797175	40.545504
58859	1.174279	-0.091218	9.712490	-0.014668	0.043493	-0.029150	1.000000	-0.000107	0.000058	0.000013	-0.789703	-6.791597	40.551423
58860	1.179866	-0.095970	9.719007	-0.008125	0.042016	-0.021949	1.000000	-0.000100	0.000077	0.000063	-0.785184	-6.795177	40.558371
58861	1.187850	-0.091453	9.726916	-0.005328	0.051002	-0.013218	1.000000	-0.000116	0.000048	0.000032	-0.788057	-6.791100	40.565097
58862	1.177702	-0.100381	9.719225	-0.006338	0.036310	-0.021925	1.000000	-0.000102	0.000048	0.000026	-0.778187	-6.798014	40.571083
58863	1.172086	-0.090455	9.714358	-0.016963	0.038093	-0.027547	1.000000	-0.000108	0.000056	0.000030	-0.768802	-6.809161	40.574484
58864	1.176055	-0.106824	9.733063	-0.005013	0.025240	-0.008282	1.000000	-0.000109	0.000048	0.000029	-0.760184	-6.815552	40.581324
58865	1.176961	-0.097456	9.720939	-0.010064	0.033250	-0.020335	1.000000	-0.000105	0.000055	0.000037	-0.760870	-6.821080	40.582808
58866	1.182170	-0.097959	9.700133	-0.003931	0.038906	-0.040370	1.000000	-0.000107	0.000039	0.000035	-0.767442	-6.817883	40.587400
58867	1.173580	-0.084636	9.744851	-0.022442	0.040489	0.002832	1.000000	-0.000107	0.000058	0.000013	-0.763094	-6.812071	40.594674
58868	1.195850	-0.095712	9.700883	0.005870	0.047975	-0.038026	1.000000	-0.000077	0.000054	0.000024	-0.754883	-6.818014	40.597057
58869	1.195322	-0.099879	9.714610	0.007062	0.042856	-0.024402	1.000000	-0.000121	0.000039	0.000042	-0.753363	-6.820470	40.605807
58870	1.178900	-0.110464	9.727807	0.000918	0.025265	-0.013116	1.000000	-0.000096	0.000071	0.000035	-0.758110	-6.808051	40.612398
58871	1.186560	-0.103586	9.722097	0.003290	0.035173	-0.017966	1.000000	-0.000102	0.000048	0.000026	-0.753348	-6.809724	40.618246
58872	1.185528	-0.105864	9.722198	0.003007	0.033589	-0.017960	1.000000	-0.000125	0.000058	0.000029	-0.762183	-6.810427	40.620116
58873	1.186144	-0.094403	9.696453	-0.001363	0.043851	-0.043597	1.000000	-0.000100	0.000038	0.000032	-0.757755	-6.813455	40.627766
58874	1.178632	-0.095974	9.703808	-0.006182	0.037679	-0.037166	1.000000	-0.000104	0.000063	0.000037	-0.757479	-6.808109	40.634401
58875	1.187022	-0.093560	9.725379	-0.003813	0.043636	-0.014787	1.000000	-0.000107	0.000058	0.000013	-0.759091	-6.809065	40.637098
58876	1.190054	-0.105601	9.716811	0.007445	0.036504	-0.022774	1.000000	-0.000108	0.000062	0.000047	-0.755749	-6.809498	40.646355
58877	1.178316	-0.097328	9.732855	-0.008107	0.032066	-0.008338	1.000000	-0.000099	0.000040	0.000015	-0.744576	-6.817645	40.650448
58878	1.190717	-0.102471	9.732087	0.006919	0.034707	-0.007558	1.000000	-0.000097	0.000063	0.000034	-0.728679	-6.812015	40.665567
58879	1.178448	-0.091999	9.734522	-0.010816	0.034690	-0.006730	1.000000	-0.000108	0.000056	0.000030	-0.735493	-6.818492	40.663339
58880	1.165461	-0.108076	9.711730	-0.005600	-0.020085	-0.030702	1.000000	-0.000111	0.000057	0.000023	-0.562754	-6.946833	40.329519
58881	1.185511	-0.089643	9.742569	-0.005407	0.004821	0.002152	1.000000	-0.000102	0.000048	0.000026	-0.562983	-6.946981	40.326443
58882	1.181911	-0.098926	9.727581	-0.000788	-0.003512	-0.013069	1.000000	-0.000106	0.000047	0.000036	-0.563815	-6.947607	40.327911
58883	1.173567	-0.096213	9.707681	-0.006856	-0.005241	-0.033857	1.000000	-0.000110	0.000066	0.000023	-0.564505	-6.945773	40.326128
58884	1.195812	-0.099193	9.742020	0.008595	0.004281	0.002946	1.000000	-0.000096	0.000045	0.000040	-0.563218	-6.946843	40.331757
58885	1.187157	-0.094184	9.708490	0.002092	0.005050	-0.031432	1.000000	-0.000108	0.000062	0.000047	-0.564668	-6.945442	40.330741
58886	1.166848	-0.097151	9.743967	-0.014902	-0.012841	0.001357	1.000000	-0.000109	0.000048	0.000029	-0.564463	-6.946764	40.339907
58887	1.195079	-0.096341	9.743788	0.005767	0.005983	0.004585	1.000000	-0.000107	0.000045	0.000053	-0.565457	-6.947557	40.343241
58888	1.187305	-0.095957	9.737493	0.000010	0.001775	-0.002608	1.000000	-0.000117	0.000046	0.000049	-0.567164	-6.948396	40.347847
58889	1.190985	-0.077400	9.726850	-0.008721	0.019107	-0.012911	1.000000	-0.000120	0.000015	0.000030	-0.569631	-6.952492	40.345555
58890	1.166202	-0.094886	9.732026	-0.017482	-0.010833	-0.010599	1.000000	-0.000118	0.000006	0.000036	-0.571251	-6.957779	40.345582
58891	1.171692	-0.113530	9.764137	-0.005486	-0.024593	0.022123	1.000000	-0.000091	-0.000029	0.000028	-0.570039	-6.967398	40.347677
58892	1.170351	-0.114401	9.827161	-0.013900	-0.032410	0.084517	1.000000	-0.000088	-0.000121	0.000015	-0.568181	-6.987135	40.345880
58893	1.152580	-0.128645	9.874253	-0.026010	-0.061129	0.129216	1.000000	-0.000097	-0.000227	-0.000004	-0.566938	-7.018861	40.340473
58894	1.073040	-0.166239	9.785886	-0.057877	-0.139708	0.032095	1.000000	-0.000036	-0.000375	-0.000008	-0.558782	-7.067679	40.336748
58895	1.191743	-0.126371	9.606750	0.018591	-0.025899	-0.131528	1.000000	-0.000093	-0.000342	-0.000029	-0.556879	-7.112264	40.328484
58896	1.257936	-0.104437	9.489288	0.062489	0.038002	-0.240094	1.000000	-0.000067	-0.000121	0.000005	-0.552768	-7.131805	40.325311
58897	1.250712	-0.062012	9.545682	0.023610	0.060544	-0.185437	1.000000	-0.000069	0.000126	0.000047	-0.549390	-7.123221	40.328590
58898	1.230312	-0.098447	9.729839	0.015084	0.007337	-0.004892	1.000000	-0.000082	0.000193	0.000062	-0.547876	-7.106596	40.327089
58899	1.196010	-0.075766	9.819080	-0.032378	-0.002844	0.079201	1.000000	-0.000060	0.000143	0.000045	-0.543062	-7.096237	40.329730
58900	1.223398	-0.074176	9.818986	-0.011671	0.015962	0.082478	1.000000	-0.000073	0.000035	0.000037	-0.539932	-7.097967	40.328697
58901	1.237102	-0.058379	9.751482	-0.005078	0.040828	0.017040	1.000000	-0.000088	-0.000017	-0.000005	-0.537775	-7.105842	40.324293
58902	1.257538	-0.071926	9.664933	0.026743	0.048852	-0.066180	1.000000	-0.000111	-0.000033	0.000003	-0.538551	-7.115616	40.320705
58903	1.271699	-0.048753	9.675701	0.020278	0.074063	-0.053954	1.000000	-0.000117	0.000002	0.000001	-0.539662	-7.121653	40.319070
58904	1.259722	-0.069579	9.680072	0.023800	0.050307	-0.050903	1.000000	-0.000140	0.000082	0.000048	-0.543639	-7.118418	40.321685
58905	1.210834	-0.083017	9.756795	-0.012182	0.004005	0.019296	1.000000	-0.000133	0.000088	0.000062	-0.547372	-7.114360	40.322563
58906	1.219262	-0.122436	9.715593	0.023722	-0.016898	-0.020165	1.000000	-0.000141	0.000062	0.000070	-0.551632	-7.113322	40.326357
58907	1.251125	-0.129394	9.693055	0.054443	0.000147	-0.038517	1.000000	-0.000089	0.000051	0.000055	-0.550289	-7.113654	40.328602
58908	1.249477	-0.129047	9.679577	0.054607	0.000336	-0.052099	1.000000	-0.000098	0.000081	0.000029	-0.549555	-7.110728	40.328514
58909	1.230590	-0.120323	9.703017	0.032776	-0.006515	-0.031263	1.000000	-0.000101	0.000088	0.000039	-0.549539	-7.107053	40.329727
58910	1.182814	-0.119320	9.754005	-0.008415	-0.039355	0.013415	1.000000	-0.000119	0.000127	0.000010	-0.551082	-7.098636	40.323601
58911	1.154098	-0.115185	9.755969	-0.032465	-0.054164	0.011780	1.000000	-0.000109	0.000068	0.000007	-0.551186	-7.097282	40.321786
58912	1.154606	-0.103071	9.730356	-0.037112	-0.042950	-0.013691	1.000000	-0.000074	0.000047	0.000014	-0.547414	-7.098286	40.321600
58913	1.171678	-0.088931	9.732600	-0.033160	-0.021946	-0.009491	1.000000	-0.000066	0.000055	0.000011	-0.542778	-7.098271	40.320535
58914	1.197912	-0.068024	9.742739	-0.027297	0.009551	0.003613	1.000000	-0.000057	0.000051	0.000032	-0.537797	-7.098204	40.315535
58915	1.195204	-0.050107	9.753105	-0.041598	0.020009	0.013398	1.000000	-0.000063	0.000034	0.000041	-0.533579	-7.100325	40.314212
58916	1.190618	-0.072932	9.763715	-0.031810	-0.001898	0.023573	1.000000	-0.000111	-0.000006	0.000056	-0.534571	-7.107393	40.321147
58917	1.185422	-0.089651	9.733413	-0.023139	-0.016178	-0.006985	1.000000	-0.000142	-0.000010	0.000044	-0.539240	-7.114640	40.321906
58918	1.218260	-0.094440	9.697133	0.007246	0.003422	-0.038876	1.000000	-0.000112	-0.000009	0.000015	-0.539805	-7.121726	40.319964
58919	1.237620	-0.065017	9.659954	0.005677	0.040545	-0.073644	1.000000	-0.000127	0.000009	0.000015	-0.542167	-7.126730	40.317458
58920	1.235660	-0.083677	9.699337	0.011794	0.022163	-0.034632	1.000000	-0.000117	0.000060	0.000009	-0.543374	-7.126071	40.315157
58921	1.246112	-0.072391	9.722531	0.010205	0.036277	-0.010431	1.000000	-0.000119	0.000087	0.000056	-0.545504	-7.122063	40.315775
58922	1.224794	-0.104443	9.746229	0.012551	-0.002956	0.010746	1.000000	-0.000126	0.000076	0.000082	-0.548332	-7.119595	40.323754
58923	1.229053	-0.133630	9.713691	0.037993	-0.019544	-0.020731	1.000000	-0.000113	0.000073	0.000093	-0.549957	-7.117178	40.328947
58924	1.233068	-0.121722	9.744119	0.030437	-0.009859	0.009843	1.000000	-0.000094	0.000062	0.000041	-0.548954	-7.116252	40.328952
58925	1.232140	-0.123636	9.744213	0.030952	-0.012131	0.009839	1.000000	-0.000096	0.000033	0.000005	-0.547902	-7.118743	40.325291
58926	1.215365	-0.129234	9.730005	0.023216	-0.026656	-0.006284	1.000000	-0.000082	0.000039	0.000016	-0.545232	-7.120776	40.326542
58927	1.216033	-0.083747	9.689044	-0.001479	0.010958	-0.047279	1.000000	-0.000090	0.000044	-0.000022	-0.542847	-7.122086	40.322209
58928	1.206225	-0.063724	9.693119	-0.022118	0.019505	-0.044641	1.000000	-0.000106	0.000066	0.000014	-0.542911	-7.120755	40.320143
58929	1.191242	-0.062588	9.694172	-0.033843	0.010987	-0.045462	1.000000	-0.000100	0.000096	0.000040	-0.542447	-7.115857	40.319474
58930	1.203303	-0.072148	9.720755	-0.020254	0.009843	-0.017499	1.000000	-0.000064	0.000109	0.000043	-0.538271	-7.109501	40.319199
58931	1.184429	-0.065434	9.757848	-0.041626	0.000333	0.016912	1.000000	-0.000091	0.000086	0.000043	-0.536961	-7.105781	40.320016
58932	1.181175	-0.079054	9.770043	-0.036299	-0.013028	0.028739	1.000000	-0.000099	0.000040	0.000015	-0.536452	-7.107449	40.317955
58933	1.189025	-0.098568	9.738867	-0.015335	-0.021054	-0.001043	1.000000	-0.000130	-0.000016	0.000013	-0.538951	-7.115515	40.317684
58934	1.195309	-0.066095	9.702656	-0.029248	0.009978	-0.036507	1.000000	-0.000133	-0.000009	0.000024	-0.542357	-7.122622	40.316223
58935	1.206066	-0.079061	9.686604	-0.012329	0.007957	-0.050980	1.000000	-0.000143	0.000007	0.000038	-0.546713	-7.127908	40.316697
58936	1.220877	-0.104076	9.675413	0.015352	-0.000738	-0.060008	1.000000	-0.000124	0.000040	0.000035	-0.549089	-7.129414	40.315499
58937	1.234311	-0.085799	9.713791	0.009750	0.019236	-0.020438	1.000000	-0.000103	0.000071	0.000038	-0.549133	-7.127260	40.313505
58938	1.221955	-0.108484	9.731667	0.013614	-0.007091	-0.004015	1.000000	-0.000096	0.000077	0.000053	-0.548463	-7.124476	40.313925
58939	1.224879	-0.120387	9.723002	0.024554	-0.013537	-0.012136	1.000000	-0.000109	0.000054	0.000047	-0.549120	-7.124600	40.317955
58940	1.223909	-0.122495	9.723098	0.025124	-0.015855	-0.012141	1.000000	-0.000096	0.000045	0.000040	-0.548156	-7.125621	40.319540
58941	1.232108	-0.118031	9.731138	0.027609	-0.007834	-0.003189	1.000000	-0.000111	0.000057	0.000023	-0.548680	-7.125290	40.319158
58942	1.217833	-0.086017	9.730458	-0.003789	0.007437	-0.005942	1.000000	-0.000094	0.000049	0.000006	-0.547310	-7.125826	40.315197
58943	1.225819	-0.078914	9.724898	-0.001735	0.018046	-0.010536	1.000000	-0.000094	0.000043	-0.000012	-0.545480	-7.127307	40.313187
58944	1.213081	-0.063417	9.700252	-0.018735	0.023281	-0.036718	1.000000	-0.000092	0.000066	0.000007	-0.543919	-7.126069	40.311059
58945	1.191795	-0.061739	9.708497	-0.036450	0.010391	-0.031192	1.000000	-0.000103	0.000071	0.000038	-0.544040	-7.124037	40.310500
58946	1.201653	-0.078893	9.719827	-0.018801	0.003191	-0.018563	1.000000	-0.000111	0.000083	0.000077	-0.545541	-7.120721	40.316383
58947	1.175560	-0.098527	9.738544	-0.027252	-0.029396	-0.003035	1.000000	-0.000100	0.000096	0.000040	-0.545138	-7.115890	40.316893
58948	1.192502	-0.087567	9.754614	-0.022830	-0.011025	0.014905	1.000000	-0.000114	0.000052	-0.000002	-0.545802	-7.115947	40.310194
58949	1.198146	-0.090369	9.747476	-0.016303	-0.008898	0.008548	1.000000	-0.000127	0.000041	0.000028	-0.548353	-7.117328	40.308311
58950	1.192711	-0.078184	9.729152	-0.026908	-0.001868	-0.010425	1.000000	-0.000108	0.000024	0.000017	-0.548441	-7.120820	40.307652
58951	1.203241	-0.093061	9.726749	-0.009639	-0.006465	-0.011363	1.000000	-0.000123	0.000030	0.000041	-0.550738	-7.123565	40.309827
58952	1.211580	-0.119620	9.736361	0.012471	-0.022218	-0.000537	1.000000	-0.000100	0.000038	0.000032	-0.550283	-7.125358	40.309374
58953	1.219275	-0.110251	9.717224	0.014177	-0.008948	-0.018661	1.000000	-0.000094	0.000055	0.000024	-0.548883	-7.125142	40.308341
58954	1.216278	-0.093048	9.727770	-0.000053	0.001376	-0.008734	1.000000	-0.000091	0.000060	0.000048	-0.547569	-7.124337	40.310300
58955	1.228392	-0.098072	9.727061	0.012799	0.005302	-0.007888	1.000000	-0.000085	0.000072	0.000022	-0.545314	-7.122302	40.309008
58956	1.229790	-0.093063	9.742398	0.009336	0.008880	0.007455	1.000000	-0.000105	0.000055	0.000037	-0.545471	-7.122223	40.309949
58957	1.215251	-0.091886	9.743372	-0.002403	0.000365	0.006608	1.000000	-0.000094	0.000061	0.000042	-0.544372	-7.121322	40.311583
58958	1.202640	-0.109702	9.733898	0.000632	-0.020755	-0.004185	1.000000	-0.000098	0.000048	0.000016	-0.543459	-7.122017	40.310928
58959	1.214770	-0.081468	9.718038	-0.006546	0.009596	-0.018688	1.000000	-0.000084	0.000074	0.000005	-0.540835	-7.119807	40.309267
58960	1.211283	-0.061798	9.715041	-0.021168	0.022561	-0.022280	1.000000	-0.000100	0.000064	0.000028	-0.540196	-7.118606	40.308190
58961	1.200792	-0.070430	9.707201	-0.022553	0.009961	-0.031276	1.000000	-0.000108	0.000070	0.000048	-0.540722	-7.116824	40.311500
58962	1.210749	-0.087495	9.718487	-0.004860	0.002714	-0.018682	1.000000	-0.000096	0.000071	0.000035	-0.539897	-7.114794	40.310742
58963	1.193940	-0.098261	9.731451	-0.011793	-0.016954	-0.007798	1.000000	-0.000124	0.000065	0.000030	-0.542226	-7.113427	40.309619
58964	1.199674	-0.103362	9.737938	-0.004869	-0.017456	-0.000603	1.000000	-0.000102	0.000047	0.000026	-0.541974	-7.114034	40.306893
58965	1.205180	-0.103588	9.717201	0.001244	-0.012653	-0.020495	1.000000	-0.000124	0.000034	0.000017	-0.543948	-7.116347	40.304983
58966	1.200625	-0.101115	9.753310	-0.007742	-0.016244	0.014747	1.000000	-0.000115	0.000056	0.000033	-0.545053	-7.116162	40.306861
58967	1.202772	-0.103417	9.690200	0.001555	-0.011915	-0.047587	1.000000	-0.000114	0.000046	0.000039	-0.546140	-7.117009	40.308571
58968	1.211675	-0.103934	9.725464	0.004874	-0.009294	-0.011488	1.000000	-0.000098	0.000037	0.000039	-0.545400	-7.118978	40.310292
58969	1.208249	-0.112831	9.710320	0.009456	-0.017421	-0.026854	1.000000	-0.000099	0.000046	0.000033	-0.544760	-7.119784	40.309651
58970	1.218815	-0.098978	9.720063	0.007531	-0.000927	-0.016011	1.000000	-0.000095	0.000053	0.000041	-0.543865	-7.119913	40.311428
58971	1.226874	-0.094232	9.728197	0.010050	0.007021	-0.006986	1.000000	-0.000076	0.000062	0.000025	-0.540333	-7.119012	40.312077
58972	1.210280	-0.071292	9.726055	-0.016902	0.013819	-0.011385	1.000000	-0.000102	0.000047	0.000026	-0.540082	-7.119737	40.311273
58973	1.226677	-0.086370	9.716500	0.006351	0.013639	-0.018692	1.000000	-0.000107	0.000078	0.000049	-0.540401	-7.116914	40.313166
58974	1.209443	-0.092139	9.702240	-0.001426	-0.000673	-0.034922	1.000000	-0.000102	0.000047	0.000026	-0.540144	-7.117802	40.315252
58975	1.211050	-0.087306	9.717578	-0.004881	0.002849	-0.019549	1.000000	-0.000101	0.000055	0.000027	-0.539747	-7.117661	40.315856
58976	1.214644	-0.070663	9.720994	-0.013152	0.017614	-0.015872	1.000000	-0.000103	0.000059	0.000003	-0.539291	-7.116985	40.311636
58977	1.209328	-0.063075	9.729975	-0.022968	0.019384	-0.007691	1.000000	-0.000110	0.000053	0.000047	-0.540138	-7.117061	40.313820
58978	1.212643	-0.077484	9.734828	-0.011632	0.010311	-0.002329	1.000000	-0.000110	0.000065	0.000024	-0.540663	-7.115799	40.313055
58979	1.220490	-0.104183	9.744389	0.010497	-0.005527	0.008383	1.000000	-0.000121	0.000046	0.000042	-0.542633	-7.116531	40.313021
58980	1.208428	-0.094102	9.746978	-0.005671	-0.005516	0.009363	1.000000	-0.000125	0.000057	0.000029	-0.544951	-7.116180	40.313244
58981	1.195313	-0.107283	9.710226	-0.003474	-0.021137	-0.028602	1.000000	-0.000106	0.000054	0.000037	-0.545048	-7.116058	40.312888
58982	1.205848	-0.093451	9.720027	-0.005396	-0.004649	-0.017705	1.000000	-0.000091	0.000048	0.000013	-0.543414	-7.116752	40.311595
58983	1.196304	-0.106826	9.739240	-0.005955	-0.022653	0.000304	1.000000	-0.000103	0.000039	0.000025	-0.543160	-7.118483	40.311416
58984	1.204085	-0.097569	9.720206	-0.004287	-0.009248	-0.017708	1.000000	-0.000113	0.000054	0.000040	-0.544190	-7.118435	40.314147
58985	1.213993	-0.112319	9.717827	0.013013	-0.013868	-0.018699	1.000000	-0.000102	0.000061	0.000045	-0.543928	-7.117499	40.315360
58986	1.224222	-0.095981	9.714074	0.010699	0.005344	-0.021313	1.000000	-0.000091	0.000048	0.000013	-0.542191	-7.118092	40.312681
58987	1.212430	-0.087788	9.730260	-0.005030	0.002611	-0.006791	1.000000	-0.000096	0.000053	0.000041	-0.541131	-7.118177	40.313788
58988	1.227280	-0.083665	9.731203	0.003424	0.015005	-0.004054	1.000000	-0.000099	0.000040	0.000015	-0.540285	-7.119860	40.313020
58989	1.223655	-0.092529	9.716059	0.007984	0.006926	-0.019446	1.000000	-0.000106	0.000066	0.000014	-0.540063	-7.118473	40.311003
58990	1.224773	-0.085221	9.717874	0.004156	0.013140	-0.017576	1.000000	-0.000095	0.000061	0.000042	-0.538943	-7.117530	40.311701
58991	1.207624	-0.090901	9.703565	-0.003616	-0.001097	-0.033844	1.000000	-0.000114	0.000058	0.000016	-0.539827	-7.117045	40.309635
58992	1.205038	-0.079015	9.741415	-0.016978	0.003624	0.003281	1.000000	-0.000097	0.000062	0.000035	-0.538985	-7.116175	40.312307
58993	1.212336	-0.100626	9.723769	0.004298	-0.006736	-0.013121	1.000000	-0.000123	0.000056	0.000036	-0.541104	-7.115854	40.311774
58994	1.207006	-0.093357	9.732768	-0.005529	-0.004971	-0.004920	1.000000	-0.000118	0.000057	0.000026	-0.542852	-7.115542	40.312195
58995	1.219238	-0.098848	9.732071	0.007319	-0.001096	-0.004045	1.000000	-0.000105	0.000062	0.000038	-0.542960	-7.114713	40.315021
58996	1.197931	-0.094998	9.726626	-0.010813	-0.011309	-0.012123	1.000000	-0.000122	0.000050	0.000019	-0.544717	-7.115266	40.314678
58997	1.207826	-0.107244	9.710628	0.006026	-0.013140	-0.026655	1.000000	-0.000097	0.000045	0.000040	-0.544022	-7.116315	40.316241
58998	1.209333	-0.100148	9.712407	0.002188	-0.006915	-0.024771	1.000000	-0.000126	0.000043	0.000011	-0.546208	-7.117500	40.313127
58999	1.208660	-0.104965	9.726069	0.003188	-0.011993	-0.011252	1.000000	-0.000105	0.000048	0.000019	-0.546045	-7.118102	40.311284
59000	1.207363	-0.104543	9.712605	0.003333	-0.011502	-0.024776	1.000000	-0.000105	0.000062	0.000038	-0.546059	-7.117005	40.310788
59001	1.208668	-0.097290	9.714418	-0.000521	-0.005290	-0.022885	1.000000	-0.000100	0.000046	0.000033	-0.545503	-7.117951	40.311288
59002	1.214429	-0.102087	9.720908	0.006422	-0.005876	-0.015686	1.000000	-0.000088	0.000061	0.000039	-0.543648	-7.117043	40.311108
59003	1.215538	-0.092204	9.709152	0.002133	0.003154	-0.027308	1.000000	-0.000107	0.000046	0.000036	-0.544080	-7.117876	40.311200
59004	1.217042	-0.087515	9.724549	-0.001271	0.006586	-0.011889	1.000000	-0.000100	0.000063	0.000028	-0.543562	-7.116680	40.309501
59005	1.202292	-0.083656	9.711915	-0.013460	0.000936	-0.026288	1.000000	-0.000091	0.000054	0.000031	-0.542126	-7.116543	40.307969
59006	1.208069	-0.091174	9.732001	-0.006096	-0.002488	-0.005571	1.000000	-0.000114	0.000072	0.000035	-0.543122	-7.114543	40.308956
59007	1.206905	-0.093350	9.732125	-0.005525	-0.004793	-0.005571	1.000000	-0.000102	0.000047	0.000026	-0.542712	-7.115296	40.308536
59008	1.199238	-0.095020	9.739428	-0.010893	-0.011565	0.000742	1.000000	-0.000098	0.000062	0.000035	-0.541950	-7.114183	40.307287
59009	1.211415	-0.100328	9.738749	0.001975	-0.007702	0.001627	1.000000	-0.000105	0.000062	0.000038	-0.542000	-7.113300	40.309979
59010	1.210182	-0.102476	9.738880	0.002513	-0.009993	0.001624	1.000000	-0.000107	0.000064	0.000031	-0.542424	-7.112235	40.311465
59011	1.215387	-0.099964	9.704654	0.008129	-0.002146	-0.031717	1.000000	-0.000118	0.000039	0.000032	-0.543988	-7.113903	40.311299
59012	1.210625	-0.097831	9.740796	-0.000775	-0.006085	0.003537	1.000000	-0.000120	0.000054	0.000043	-0.545820	-7.113848	40.312843
59013	1.209439	-0.097510	9.727329	-0.000647	-0.005535	-0.009976	1.000000	-0.000102	0.000047	0.000026	-0.545567	-7.114499	40.311450
59014	1.217154	-0.087913	9.708420	0.001012	0.008019	-0.027876	1.000000	-0.000090	0.000062	0.000032	-0.544013	-7.113483	40.311120
59015	1.222537	-0.090107	9.701370	0.007518	0.010241	-0.034184	1.000000	-0.000093	0.000063	0.000025	-0.542641	-7.112315	40.309210
59016	1.201730	-0.090985	9.723033	-0.009760	-0.005557	-0.015255	1.000000	-0.000096	0.000039	0.000022	-0.541634	-7.114123	40.309034
59017	1.209799	-0.084048	9.717679	-0.007676	0.005170	-0.019635	1.000000	-0.000106	0.000054	0.000037	-0.541942	-7.114091	40.310549
59018	1.208505	-0.088622	9.731412	-0.006697	0.000030	-0.006125	1.000000	-0.000092	0.000097	0.000021	-0.540410	-7.109221	40.310830
59019	1.202639	-0.076010	9.713344	-0.017344	0.007416	-0.024899	1.000000	-0.000129	0.000032	0.000027	-0.543022	-7.111610	40.309868
59020	1.213160	-0.096151	9.738016	0.000818	-0.002880	0.001075	1.000000	-0.000111	0.000057	0.000023	-0.543793	-7.111240	40.309279
59021	1.207278	-0.083427	9.719956	-0.009848	0.004516	-0.017694	1.000000	-0.000101	0.000075	0.000005	-0.543004	-7.108790	40.305820
59022	1.217056	-0.098038	9.717545	0.007442	-0.000103	-0.018737	1.000000	-0.000103	0.000053	0.000044	-0.542944	-7.108810	40.306974
59023	1.196096	-0.096483	9.725621	-0.010262	-0.013076	-0.013331	1.000000	-0.000097	0.000044	0.000040	-0.542146	-7.109860	40.307935
59024	1.231082	-0.098617	9.732263	0.016928	0.007113	-0.002392	1.000000	-0.000099	0.000054	0.000034	-0.541479	-7.109892	40.308652
59025	1.209902	-0.094545	9.726781	-0.001256	-0.002988	-0.010491	1.000000	-0.000112	0.000048	0.000022	-0.542441	-7.110609	40.308882
59026	1.208985	-0.096602	9.726875	-0.000688	-0.005275	-0.010492	1.000000	-0.000093	0.000045	0.000030	-0.541032	-7.111478	40.307972
59027	1.208015	-0.095928	9.713394	-0.000586	-0.004724	-0.023995	1.000000	-0.000098	0.000036	0.000039	-0.540268	-7.113600	40.310117
59028	1.220461	-0.101160	9.712698	0.012291	-0.000842	-0.023096	1.000000	-0.000095	0.000061	0.000042	-0.539324	-7.112772	40.311386
59029	1.212983	-0.105404	9.733544	0.007364	-0.010561	-0.003297	1.000000	-0.000097	0.000044	0.000040	-0.538383	-7.113941	40.313602
59030	1.214302	-0.098099	9.735420	0.003521	-0.004364	-0.001341	1.000000	-0.000100	0.000063	0.000028	-0.537855	-7.112903	40.313596
59031	1.206365	-0.097189	9.729160	-0.002342	-0.008301	-0.008544	1.000000	-0.000101	0.000055	0.000027	-0.537561	-7.112890	40.314753
59032	1.209810	-0.077895	9.719265	-0.011005	0.009271	-0.018117	1.000000	-0.000090	0.000062	0.000032	-0.535813	-7.111928	40.314006
59033	1.215362	-0.082914	9.725785	-0.004091	0.008632	-0.010913	1.000000	-0.000115	0.000064	0.000034	-0.537187	-7.110881	40.315714
59034	1.209358	-0.103782	9.722371	0.005245	-0.010663	-0.014847	1.000000	-0.000110	0.000065	0.000024	-0.537744	-7.109690	40.315279
59035	1.208724	-0.075021	9.721419	-0.013745	0.010868	-0.016141	1.000000	-0.000098	0.000036	0.000039	-0.536848	-7.111737	40.316653
59036	1.209547	-0.096143	9.710800	0.001509	-0.003896	-0.026377	1.000000	-0.000118	0.000071	0.000045	-0.538591	-7.109917	40.319663
59037	1.201623	-0.095558	9.704535	-0.004365	-0.007826	-0.033580	1.000000	-0.000117	0.000047	0.000032	-0.540100	-7.110885	40.322497
59038	1.200913	-0.103117	9.731748	-0.002902	-0.015929	-0.006593	1.000000	-0.000111	0.000056	0.000023	-0.540764	-7.110637	40.321982
59039	1.215456	-0.096633	9.719305	0.005120	-0.000660	-0.017202	1.000000	-0.000106	0.000054	0.000037	-0.541024	-7.110669	40.323183
59040	1.210317	-0.091713	9.741927	-0.004288	-0.002098	0.004563	1.000000	-0.000096	0.000052	0.000041	-0.539636	-7.111983	40.326398
59041	1.200142	-0.097334	9.720288	-0.006205	-0.011601	-0.018115	1.000000	-0.000094	0.000037	0.000029	-0.538390	-7.113951	40.327450
59042	1.228327	-0.096540	9.720616	0.014603	0.006893	-0.014308	1.000000	-0.000100	0.000063	0.000028	-0.537804	-7.113026	40.328397
59043	1.204511	-0.098937	9.699788	0.000354	-0.008752	-0.037901	1.000000	-0.000096	0.000052	0.000041	-0.536971	-7.113230	40.330060
59044	1.212948	-0.099959	9.735178	0.003843	-0.006797	-0.001731	1.000000	-0.000108	0.000049	0.000012	-0.537014	-7.113805	40.327955
59045	1.227409	-0.090804	9.709199	0.011401	0.011410	-0.025805	1.000000	-0.000112	0.000056	0.000023	-0.537742	-7.113575	40.328034
59046	1.212930	-0.089584	9.710097	-0.000364	0.002940	-0.026718	1.000000	-0.000094	0.000055	0.000024	-0.536351	-7.113512	40.327500
59047	1.227473	-0.085512	9.711258	0.008131	0.015296	-0.023805	1.000000	-0.000099	0.000071	0.000029	-0.535716	-7.111499	40.327461
59048	1.210544	-0.096168	9.723925	0.001203	-0.004574	-0.013231	1.000000	-0.000095	0.000061	0.000042	-0.534784	-7.110722	40.328454
59049	1.202650	-0.095184	9.717659	-0.004645	-0.008512	-0.020434	1.000000	-0.000102	0.000055	0.000027	-0.534238	-7.110758	40.329901
59050	1.210822	-0.090944	9.725956	-0.002087	-0.000715	-0.011230	1.000000	-0.000104	0.000044	0.000043	-0.534308	-7.111897	40.332459
59051	1.203065	-0.090088	9.719673	-0.007905	-0.004637	-0.018432	1.000000	-0.000107	0.000058	0.000013	-0.534171	-7.111476	40.330631
59052	1.208555	-0.095221	9.726197	-0.000965	-0.005328	-0.011231	1.000000	-0.000109	0.000073	0.000025	-0.534684	-7.109373	40.330646
59053	1.206976	-0.091965	9.699246	-0.001365	-0.001726	-0.038199	1.000000	-0.000101	0.000063	0.000028	-0.534217	-7.108430	40.332053
59054	1.217162	-0.111944	9.723861	0.016813	-0.012274	-0.012327	1.000000	-0.000103	0.000047	0.000026	-0.533964	-7.109431	40.333867
59055	1.214255	-0.092503	9.721207	0.002211	0.000809	-0.015502	1.000000	-0.000110	0.000047	0.000029	-0.534447	-7.110174	40.333801
59056	1.206503	-0.091638	9.714924	-0.003618	-0.003082	-0.022704	1.000000	-0.000102	0.000055	0.000027	-0.533973	-7.109993	40.333046
59057	1.214491	-0.087363	9.723261	-0.001063	0.004709	-0.013484	1.000000	-0.000101	0.000063	0.000028	-0.533514	-7.108995	40.333185
59058	1.206987	-0.091937	9.744066	-0.005975	-0.005120	0.006275	1.000000	-0.000115	0.000037	0.000039	-0.534796	-7.110926	40.334563
59059	1.219219	-0.091910	9.716303	0.005976	0.004681	-0.019760	1.000000	-0.000093	0.000057	0.000007	-0.533153	-7.110510	40.330780
59060	1.204675	-0.090654	9.717197	-0.005806	-0.003743	-0.020684	1.000000	-0.000109	0.000061	0.000048	-0.533991	-7.109653	40.332849
59061	1.194508	-0.101735	9.722639	-0.006795	-0.019059	-0.016438	1.000000	-0.000097	0.000056	0.000017	-0.533076	-7.109310	40.330582
59062	1.218385	-0.088883	9.718482	0.003239	0.006334	-0.017729	1.000000	-0.000118	0.000039	0.000032	-0.534647	-7.111106	40.331422
59063	1.204064	-0.087890	9.719344	-0.008553	-0.002121	-0.018656	1.000000	-0.000112	0.000056	0.000023	-0.535327	-7.110953	40.331560
59064	1.202909	-0.090065	9.719467	-0.008004	-0.004407	-0.018656	1.000000	-0.000105	0.000062	0.000038	-0.535488	-7.110023	40.332923
59065	1.215106	-0.092916	9.705275	0.004438	0.002449	-0.031203	1.000000	-0.000123	0.000050	0.000018	-0.537301	-7.110356	40.329578
59066	1.214217	-0.097825	9.718918	0.005485	-0.002837	-0.017728	1.000000	-0.000096	0.000052	0.000041	-0.536356	-7.110463	40.330655
59067	1.220004	-0.103038	9.725403	0.012431	-0.003543	-0.010528	1.000000	-0.000121	0.000046	0.000042	-0.538502	-7.111396	40.332474
59068	1.198707	-0.099061	9.719898	-0.005760	-0.013578	-0.018663	1.000000	-0.000109	0.000073	0.000025	-0.538902	-7.109363	40.332933
59069	1.204251	-0.106863	9.739964	0.001672	-0.017296	0.002008	1.000000	-0.000095	0.000060	0.000042	-0.537977	-7.108597	40.334150
59070	1.209631	-0.101040	9.692299	0.006673	-0.006013	-0.044679	1.000000	-0.000111	0.000039	0.000029	-0.538764	-7.110603	40.336112
59071	1.209090	-0.111372	9.732992	0.008651	-0.017312	-0.004270	1.000000	-0.000103	0.000047	0.000026	-0.538589	-7.111446	40.335648
59072	1.215164	-0.080161	9.711584	-0.004919	0.011859	-0.025055	1.000000	-0.000107	0.000045	0.000036	-0.538977	-7.112527	40.337918
59073	1.209444	-0.103447	9.721510	0.004870	-0.010419	-0.015694	1.000000	-0.000088	0.000060	0.000039	-0.537146	-7.111837	40.339095
59074	1.210778	-0.096039	9.723485	0.001060	-0.004246	-0.013639	1.000000	-0.000098	0.000048	0.000016	-0.536103	-7.112539	40.336953
59075	1.225559	-0.089223	9.711152	0.009074	0.011106	-0.024112	1.000000	-0.000093	0.000045	0.000030	-0.534781	-7.113594	40.337185
59076	1.224616	-0.093877	9.724799	0.010096	0.005762	-0.010643	1.000000	-0.000095	0.000060	0.000042	-0.533742	-7.113008	40.340095
59077	1.225957	-0.086743	9.726780	0.006258	0.011949	-0.008578	1.000000	-0.000117	0.000047	0.000032	-0.535220	-7.113875	40.340205
59078	1.202447	-0.089279	9.705834	-0.008052	-0.003489	-0.032248	1.000000	-0.000114	0.000046	0.000039	-0.536467	-7.114889	40.342255
59079	1.219265	-0.107231	9.709685	0.015658	-0.006570	-0.026177	1.000000	-0.000120	0.000048	0.000025	-0.537983	-7.115421	40.340356
59080	1.204791	-0.106135	9.710551	0.003876	-0.015001	-0.027119	1.000000	-0.000101	0.000063	0.000028	-0.537473	-7.114380	40.340513
59081	1.215149	-0.095552	9.734360	0.002588	-0.001811	-0.002312	1.000000	-0.000118	0.000065	0.000027	-0.538908	-7.113043	40.339246
59082	1.198292	-0.100964	9.719803	-0.005316	-0.015665	-0.018792	1.000000	-0.000101	0.000037	0.000032	-0.538615	-7.114975	40.340177
59083	1.226643	-0.103094	9.733801	0.016006	-0.000251	-0.001372	1.000000	-0.000102	0.000055	0.000027	-0.538284	-7.114941	40.340787
59084	1.207833	-0.089470	9.730164	-0.006548	-0.001735	-0.007438	1.000000	-0.000097	0.000056	0.000017	-0.537264	-7.114596	40.338201
59085	1.220284	-0.095018	9.729509	0.006336	0.002098	-0.006495	1.000000	-0.000128	0.000040	0.000028	-0.539881	-7.116255	40.338897
59086	1.192522	-0.090734	9.731110	-0.017767	-0.012469	-0.008384	1.000000	-0.000102	0.000060	0.000045	-0.539698	-7.115420	40.340336
59087	1.202389	-0.105307	9.728587	-0.000505	-0.017069	-0.009527	1.000000	-0.000095	0.000055	0.000024	-0.538638	-7.115223	40.339128
59088	1.223785	-0.098704	9.709167	0.013414	0.002911	-0.026210	1.000000	-0.000093	0.000045	0.000030	-0.537391	-7.116358	40.340776
59089	1.209499	-0.100263	9.723543	0.002106	-0.008608	-0.013701	1.000000	-0.000113	0.000054	0.000040	-0.538410	-7.116558	40.343455
59090	1.217651	-0.093651	9.718392	0.004203	0.002184	-0.017864	1.000000	-0.000125	0.000039	0.000035	-0.540857	-7.118297	40.343887
59091	1.216606	-0.093037	9.704968	0.004258	0.002971	-0.031320	1.000000	-0.000091	0.000062	0.000032	-0.539326	-7.117420	40.344131
59092	1.204553	-0.085383	9.721263	-0.011389	-0.000052	-0.016716	1.000000	-0.000120	0.000054	0.000043	-0.541196	-7.117354	40.345241
59093	1.205848	-0.081175	9.736817	-0.014696	0.003051	-0.001161	1.000000	-0.000106	0.000066	0.000014	-0.541088	-7.115964	40.343130
59094	1.215602	-0.093105	9.720768	0.002084	0.001453	-0.015765	1.000000	-0.000109	0.000055	0.000030	-0.541343	-7.115975	40.344334
59095	1.214576	-0.098185	9.734405	0.003126	-0.003933	-0.002313	1.000000	-0.000119	0.000056	0.000026	-0.542891	-7.115774	40.344631
59096	1.217574	-0.104353	9.698435	0.012976	-0.003912	-0.037574	1.000000	-0.000105	0.000062	0.000038	-0.543068	-7.114878	40.345322
59097	1.214555	-0.087806	9.709517	-0.001141	0.006144	-0.027109	1.000000	-0.000119	0.000056	0.000026	-0.544675	-7.114615	40.344794
59098	1.197742	-0.098707	9.721978	-0.008089	-0.013841	-0.016722	1.000000	-0.000095	0.000055	0.000024	-0.543557	-7.114679	40.345636
59099	1.219202	-0.097886	9.729655	0.006847	-0.000010	-0.006456	1.000000	-0.000110	0.000052	0.000047	-0.544467	-7.114846	40.347522
59100	1.211518	-0.096835	9.723365	0.000966	-0.003834	-0.013658	1.000000	-0.000089	0.000046	0.000020	-0.542467	-7.115865	40.347087
59101	1.219546	-0.089671	9.718270	0.003066	0.006982	-0.017788	1.000000	-0.000095	0.000060	0.000042	-0.541627	-7.115066	40.347740
59102	1.218469	-0.094559	9.731911	0.004089	0.001599	-0.004339	1.000000	-0.000109	0.000055	0.000030	-0.542288	-7.115043	40.348151
59103	1.210695	-0.093586	9.725633	-0.001776	-0.002237	-0.011541	1.000000	-0.000099	0.000053	0.000034	-0.541520	-7.115227	40.349484
59104	1.209672	-0.092936	9.712215	-0.001762	-0.001407	-0.024988	1.000000	-0.000117	0.000047	0.000032	-0.543150	-7.116192	40.350882
59105	1.208725	-0.097960	9.725835	-0.000704	-0.006798	-0.011543	1.000000	-0.000102	0.000055	0.000027	-0.542826	-7.116038	40.350647
59106	1.225897	-0.082018	9.715551	0.002954	0.017108	-0.019772	1.000000	-0.000107	0.000045	0.000036	-0.543231	-7.116963	40.351192
59107	1.209221	-0.090276	9.714442	-0.004472	0.000214	-0.022860	1.000000	-0.000121	0.000045	0.000042	-0.545275	-7.117988	40.353019
59108	1.208389	-0.092633	9.714523	-0.003914	-0.002064	-0.022860	1.000000	-0.000114	0.000040	0.000022	-0.546238	-7.119565	40.351540
59109	1.209699	-0.085594	9.716579	-0.007741	0.004129	-0.020725	1.000000	-0.000110	0.000072	0.000025	-0.546845	-7.117450	40.351168
59110	1.208425	-0.090598	9.730237	-0.006706	-0.001302	-0.007282	1.000000	-0.000105	0.000062	0.000038	-0.547035	-7.116696	40.353217
59111	1.193800	-0.086634	9.717584	-0.018979	-0.006586	-0.021686	1.000000	-0.000112	0.000062	0.000041	-0.547925	-7.115717	40.353682
59112	1.212663	-0.095354	9.723375	0.000330	-0.001234	-0.013521	1.000000	-0.000118	0.000064	0.000027	-0.549566	-7.114459	40.353252
59113	1.215759	-0.104102	9.700912	0.010673	-0.004234	-0.035343	1.000000	-0.000092	0.000053	0.000031	-0.547999	-7.114536	40.353342
59114	1.216992	-0.099679	9.716506	0.007337	-0.001199	-0.019760	1.000000	-0.000104	0.000070	0.000039	-0.548153	-7.112848	40.355913
59115	1.224725	-0.095713	9.725002	0.009961	0.006434	-0.010410	1.000000	-0.000114	0.000071	0.000035	-0.549103	-7.110928	40.357098
59116	1.214394	-0.104249	9.716783	0.008414	-0.005819	-0.019762	1.000000	-0.000120	0.000054	0.000043	-0.551173	-7.111169	40.359534
59117	1.222345	-0.097451	9.711743	0.010513	0.004982	-0.023845	1.000000	-0.000101	0.000063	0.000028	-0.550669	-7.110224	40.360171
59118	1.210150	-0.089777	9.728075	-0.005139	0.001873	-0.009222	1.000000	-0.000104	0.000064	0.000021	-0.550399	-7.109138	40.360157
59119	1.218076	-0.079983	9.709537	-0.003561	0.015826	-0.026731	1.000000	-0.000106	0.000053	0.000037	-0.550630	-7.109340	40.362296
59120	1.214429	-0.091500	9.707706	0.002187	0.004424	-0.028887	1.000000	-0.000120	0.000074	0.000021	-0.546098	-7.105818	40.355387
59121	1.215263	-0.081733	9.696341	-0.002139	0.013781	-0.040156	1.000000	-0.000116	0.000086	0.000047	-0.547697	-7.102054	40.356836
59122	1.197960	-0.095675	9.722276	-0.008529	-0.009428	-0.016425	1.000000	-0.000107	0.000071	0.000032	-0.547911	-7.100050	40.356511
59123	1.228259	-0.088847	9.738430	0.008510	0.014239	0.003282	1.000000	-0.000105	0.000061	0.000038	-0.547944	-7.099244	40.358106
59124	1.215827	-0.072598	9.714276	-0.008671	0.020613	-0.022378	1.000000	-0.000102	0.000086	0.000041	-0.547589	-7.095670	40.360177
59125	1.202770	-0.093308	9.717604	-0.005313	-0.003251	-0.020489	1.000000	-0.000138	0.000073	0.000037	-0.551523	-7.093525	40.361225
59126	1.228158	-0.099357	9.702816	0.019404	0.009845	-0.031971	1.000000	-0.000087	0.000068	0.000040	-0.549568	-7.092018	40.363753
59127	1.209178	-0.094447	9.739776	-0.001611	-0.001127	0.002315	1.000000	-0.000123	0.000067	0.000013	-0.551372	-7.090511	40.361277
59128	1.221194	-0.091493	9.698700	0.009723	0.012224	-0.036992	1.000000	-0.000120	0.000074	0.000021	-0.552846	-7.088433	40.361834
59129	1.250578	-0.104241	9.661362	0.044215	0.024744	-0.070298	1.000000	-0.000124	0.000098	0.000027	-0.554972	-7.083252	40.360935
59130	1.224087	-0.096935	9.692021	0.016739	0.012291	-0.043213	1.000000	-0.000161	0.000121	0.000013	-0.561177	-7.075783	40.360312
59131	3.237913	1.412401	6.993189	0.826886	2.684636	-2.498849	0.999990	-0.003472	0.002281	0.001595	-0.968410	-6.818402	40.538453
59132	-1.617553	-0.446119	13.929483	-2.374582	-2.346785	3.814417	0.999985	0.002068	-0.005100	0.000227	-0.722974	-7.408958	40.571127
59133	1.083152	-1.343293	9.253720	0.735684	-0.999627	-0.481655	0.999994	0.001146	0.003282	-0.000631	-0.569388	-7.039857	40.490486
59134	1.205138	-0.241720	9.921775	0.078400	-0.137933	0.183669	0.999999	0.001247	-0.000971	-0.000261	-0.410344	-7.157669	40.459925
59135	1.432072	-0.130987	9.333817	0.228615	0.114846	-0.372208	0.999999	-0.000403	-0.000987	-0.000413	-0.438019	-7.277320	40.410752
59136	1.584902	-0.030332	8.965275	0.305902	0.309836	-0.718766	1.000000	0.000015	-0.000299	-0.000298	-0.419488	-7.318034	40.373695
59137	1.746824	-0.079138	9.279585	0.428174	0.351585	-0.386054	1.000000	-0.000181	0.000360	0.000000	-0.427705	-7.283039	40.371091
59138	1.372397	0.008686	9.633658	0.058600	0.158794	-0.083235	1.000000	-0.000239	0.000764	0.000081	-0.443786	-7.201851	40.377859
59139	1.073734	-0.047247	10.132652	-0.172505	-0.104780	0.374806	1.000000	-0.000057	0.000565	0.000131	-0.439608	-7.143443	40.390041
59140	0.951375	-0.106263	10.212345	-0.230634	-0.233167	0.439183	1.000000	0.000033	-0.000071	0.000109	-0.424969	-7.157842	40.400588
59141	1.126722	-0.109232	9.928396	-0.071364	-0.108478	0.179190	1.000000	0.000088	-0.000544	0.000094	-0.403810	-7.226349	40.408679
59142	1.353819	-0.059365	9.485301	0.105524	0.098830	-0.232167	1.000000	0.000071	-0.000573	0.000021	-0.383566	-7.298215	40.408258
59143	1.469116	0.015855	9.288372	0.158435	0.238619	-0.413200	1.000000	-0.000091	-0.000213	0.000064	-0.382581	-7.328829	40.412407
59144	1.458281	-0.055509	9.280940	0.195880	0.178667	-0.421456	1.000000	-0.000263	0.000270	0.000081	-0.401565	-7.304143	40.418799
59145	1.374829	-0.091989	9.614607	0.126329	0.078887	-0.100989	1.000000	-0.000282	0.000625	0.000028	-0.421784	-7.238778	40.417981
59146	1.177848	-0.110605	9.952311	-0.037633	-0.078310	0.209313	1.000000	-0.000216	0.000621	-0.000035	-0.433609	-7.173906	40.410163
59147	0.993648	-0.083452	10.122064	-0.206399	-0.183528	0.354623	1.000000	-0.000094	0.000208	-0.000044	-0.431291	-7.156423	40.402132
59148	1.079369	-0.056726	9.986788	-0.145766	-0.099835	0.230866	1.000000	0.000001	-0.000251	-0.000007	-0.418713	-7.191442	40.397872
59149	1.242905	0.009788	9.675746	-0.039017	0.073623	-0.057790	1.000000	-0.000074	-0.000400	0.000119	-0.416457	-7.243497	40.409407
59150	1.323991	-0.101447	9.467667	0.109980	0.052653	-0.253133	1.000000	-0.000117	-0.000185	0.000214	-0.420722	-7.270760	40.431191
59151	1.222597	-0.211183	9.416234	0.108648	-0.091904	-0.316132	1.000000	-0.000156	0.000229	0.000121	-0.427901	-7.250668	40.441753
59152	1.151246	-0.151820	9.635435	-0.002503	-0.105100	-0.108102	1.000000	-0.000160	0.000421	-0.000023	-0.433301	-7.208720	40.436363
59153	1.114679	-0.095451	9.875157	-0.086312	-0.099589	0.124765	1.000000	-0.000109	0.000311	-0.000097	-0.431791	-7.179493	40.422559
59154	1.134435	-0.050437	9.963564	-0.107132	-0.057720	0.214640	1.000000	-0.000091	0.000074	-0.000050	-0.429184	-7.177449	40.414322
59155	1.204937	-0.019611	9.921168	-0.070295	0.012631	0.181148	1.000000	-0.000045	-0.000125	0.000016	-0.422255	-7.198137	40.413768
59156	1.227414	-0.042048	9.711207	-0.020554	0.022390	-0.024177	1.000000	-0.000074	-0.000209	0.000082	-0.419682	-7.228317	40.420480
59157	1.284418	-0.055648	9.559728	0.043001	0.056606	-0.167161	1.000000	-0.000075	-0.000198	0.000118	-0.417336	-7.257244	40.432478
59158	1.301167	-0.104517	9.520887	0.088909	0.030867	-0.203193	1.000000	-0.000094	-0.000027	0.000061	-0.416663	-7.266657	40.436618
59159	1.262346	-0.068162	9.578939	0.030708	0.029555	-0.150782	1.000000	-0.000114	0.000205	-0.000011	-0.417086	-7.249466	40.432322
59160	1.250045	-0.059027	9.772802	-0.001739	0.015950	0.039901	1.000000	-0.000121	0.000225	-0.000030	-0.418055	-7.229961	40.425671
59161	1.195404	-0.038737	9.778123	-0.054977	-0.002297	0.038158	1.000000	-0.000132	0.000141	-0.000021	-0.420582	-7.220290	40.420681
59162	1.244605	-0.064016	9.773464	-0.000650	0.011323	0.039907	1.000000	-0.000133	0.000051	0.000015	-0.423522	-7.220693	40.419193
59163	1.298047	-0.046308	9.756929	0.029278	0.060627	0.030086	1.000000	-0.000134	0.000022	0.000036	-0.426969	-7.224416	40.420779
59164	1.274673	-0.070440	9.695573	0.032690	0.031649	-0.033535	1.000000	-0.000104	0.000018	0.000048	-0.427225	-7.228710	40.423670
59165	1.258595	-0.084384	9.721228	0.026310	0.008174	-0.009999	1.000000	-0.000098	0.000003	0.000085	-0.427220	-7.234749	40.430924
59166	1.233656	-0.098352	9.711452	0.016752	-0.018500	-0.022730	1.000000	-0.000094	-0.000002	0.000057	-0.426376	-7.241164	40.434470
59167	1.240256	-0.094717	9.677382	0.022129	-0.009485	-0.055724	1.000000	-0.000111	0.000018	0.000051	-0.427333	-7.245366	40.437506
59168	1.234528	-0.112309	9.659896	0.030841	-0.025348	-0.073660	1.000000	-0.000098	0.000073	0.000012	-0.426285	-7.243151	40.435642
59169	1.219850	-0.083209	9.674069	0.000089	-0.013106	-0.061667	1.000000	-0.000127	0.000124	-0.000026	-0.428010	-7.235234	40.429549
59170	1.254144	-0.033255	9.721407	-0.009887	0.044540	-0.010767	1.000000	-0.000102	0.000157	-0.000032	-0.426734	-7.223532	40.422719
59171	1.251082	-0.044117	9.762227	-0.007700	0.032246	0.029423	1.000000	-0.000086	0.000145	0.000086	-0.425377	-7.213254	40.430420
59172	1.185199	-0.078508	9.797560	-0.037553	-0.038183	0.056466	1.000000	-0.000095	0.000111	0.000092	-0.425199	-7.206885	40.437770
59173	1.165619	-0.095605	9.794287	-0.040702	-0.063485	0.050891	1.000000	-0.000093	0.000024	0.000052	-0.424345	-7.210560	40.441642
59174	1.176836	-0.095103	9.724096	-0.026203	-0.051488	-0.017347	1.000000	-0.000091	-0.000028	0.000009	-0.422425	-7.220085	40.440009
59175	1.202392	-0.073282	9.679912	-0.017719	-0.016092	-0.058138	1.000000	-0.000125	-0.000018	-0.000033	-0.423748	-7.228374	40.433362
59176	1.238886	-0.039578	9.659801	-0.010925	0.034236	-0.073752	1.000000	-0.000134	0.000029	-0.000005	-0.426538	-7.231293	40.429950
59177	1.233521	-0.044710	9.722979	-0.018420	0.022279	-0.011715	1.000000	-0.000122	0.000063	0.000037	-0.428582	-7.230411	40.431695
59178	1.234281	-0.065651	9.711875	-0.003262	0.007816	-0.022478	1.000000	-0.000102	0.000048	0.000068	-0.428729	-7.231101	40.436414
59179	1.241973	-0.095602	9.734060	0.019420	-0.011992	0.000724	1.000000	-0.000098	0.000023	0.000062	-0.428421	-7.234837	40.440965
59180	1.261527	-0.098126	9.712848	0.037689	-0.000152	-0.017838	1.000000	-0.000094	0.000037	0.000029	-0.427045	-7.236896	40.441712
59181	1.259247	-0.075520	9.697186	0.022540	0.016440	-0.033830	1.000000	-0.000110	0.000020	0.000034	-0.427821	-7.240743	40.441773
59182	1.262901	-0.087150	9.688083	0.033368	0.010445	-0.042312	1.000000	-0.000115	0.000043	-0.000002	-0.428522	-7.241821	40.437946
59183	1.273268	-0.071262	9.685295	0.031096	0.029734	-0.043891	1.000000	-0.000128	0.000083	0.000018	-0.431129	-7.238758	40.438091
59184	1.256343	-0.054683	9.710921	0.005245	0.030133	-0.020730	1.000000	-0.000112	0.000087	0.000037	-0.432064	-7.235093	40.439418
59185	1.238656	-0.071640	9.750160	-0.000570	0.003171	0.016097	1.000000	-0.000088	0.000086	0.000035	-0.430126	-7.231758	40.441433
59186	1.237370	-0.070292	9.736845	-0.000582	0.004241	0.002717	1.000000	-0.000078	0.000053	0.000025	-0.426987	-7.231988	40.441494
59187	1.234993	-0.044385	9.707770	-0.016269	0.024181	-0.026619	1.000000	-0.000098	0.000023	0.000062	-0.426444	-7.235593	40.446201
59188	1.224533	-0.074095	9.659093	-0.000041	-0.001704	-0.076002	1.000000	-0.000090	0.000069	0.000033	-0.424881	-7.233920	40.446766
59189	1.209166	-0.082017	9.700409	-0.010195	-0.020233	-0.036889	1.000000	-0.000129	0.000115	0.000032	-0.427677	-7.227187	40.447964
59190	1.221010	-0.063185	9.726794	-0.015636	0.000718	-0.009364	1.000000	-0.000128	0.000097	0.000037	-0.430278	-7.222338	40.449324
59191	1.212495	-0.068418	9.747544	-0.020369	-0.009678	0.010190	1.000000	-0.000106	0.000079	0.000033	-0.430365	-7.219196	40.448871
59192	1.224643	-0.077114	9.760451	-0.006912	-0.009320	0.024587	1.000000	-0.000118	0.000038	0.000032	-0.431888	-7.221244	40.450497
59193	1.201609	-0.078971	9.739240	-0.021360	-0.024118	0.000663	1.000000	-0.000109	0.000028	0.000035	-0.432179	-7.224170	40.452361
59194	1.228048	-0.084682	9.724426	0.003350	-0.010891	-0.010667	1.000000	-0.000087	0.000010	0.000031	-0.430038	-7.229303	40.453467
59195	1.232590	-0.083857	9.661360	0.011877	-0.003271	-0.072665	1.000000	-0.000113	-0.000004	0.000031	-0.431083	-7.236054	40.453977
59196	1.247742	-0.086249	9.689760	0.021569	0.002126	-0.042566	1.000000	-0.000098	0.000056	0.000017	-0.430033	-7.236020	40.453467
59197	1.255600	-0.085301	9.711857	0.024851	0.006176	-0.019664	1.000000	-0.000101	0.000062	0.000028	-0.429323	-7.234975	40.453721
59198	1.254272	-0.090432	9.725465	0.025984	0.000464	-0.006293	1.000000	-0.000106	0.000065	0.000014	-0.429240	-7.233700	40.452229
59199	1.251251	-0.070806	9.723452	0.011400	0.013703	-0.008819	1.000000	-0.000099	0.000065	0.000011	-0.428377	-7.232437	40.450005
59200	1.246076	-0.057137	9.705840	0.000584	0.021896	-0.027044	1.000000	-0.000086	0.000045	0.000027	-0.426046	-7.233672	40.450912
59201	1.251861	-0.062156	9.712329	0.007605	0.020936	-0.019841	1.000000	-0.000090	0.000043	0.000037	-0.424500	-7.234902	40.451827
59202	1.246891	-0.051651	9.708148	-0.002638	0.025769	-0.024691	1.000000	-0.000101	0.000036	0.000032	-0.424212	-7.236830	40.451567
59203	1.241138	-0.069230	9.690547	0.006022	0.010015	-0.042744	1.000000	-0.000119	0.000061	0.000044	-0.425951	-7.236140	40.454284
59204	1.217000	-0.080120	9.709813	-0.006733	-0.014976	-0.026590	1.000000	-0.000091	0.000092	0.000046	-0.424364	-7.231655	40.456769
59205	1.229351	-0.057798	9.722776	-0.012734	0.009315	-0.012342	1.000000	-0.000115	0.000075	0.000011	-0.425273	-7.229435	40.455515
59206	1.225279	-0.072485	9.734283	-0.007268	-0.004841	-0.001329	1.000000	-0.000126	0.000082	0.000025	-0.427628	-7.226265	40.454895
59207	1.226342	-0.062590	9.723126	-0.011613	0.004724	-0.012337	1.000000	-0.000114	0.000071	0.000035	-0.428713	-7.224355	40.456072
59208	1.226848	-0.089585	9.738831	0.004634	-0.016583	0.003509	1.000000	-0.000107	0.000045	0.000036	-0.429042	-7.225649	40.458013
59209	1.212801	-0.085255	9.726128	-0.007736	-0.021511	-0.010891	1.000000	-0.000105	0.000035	0.000042	-0.429249	-7.227808	40.460060
59210	1.220743	-0.106096	9.707773	0.013267	-0.031159	-0.027945	1.000000	-0.000105	0.000030	0.000025	-0.429154	-7.230752	40.460259
59211	1.234410	-0.077664	9.693719	0.006176	0.000037	-0.040382	1.000000	-0.000112	0.000024	0.000010	-0.429510	-7.234019	40.457870
59212	1.236294	-0.073661	9.709362	0.002973	0.002724	-0.024657	1.000000	-0.000102	0.000023	0.000014	-0.428976	-7.237604	40.456200
59213	1.248658	-0.082086	9.722240	0.016478	0.003034	-0.010261	1.000000	-0.000090	0.000069	0.000033	-0.427243	-7.235873	40.456774
59214	1.247469	-0.084004	9.722376	0.017014	0.000728	-0.010262	1.000000	-0.000099	0.000053	0.000034	-0.426687	-7.236166	40.457820
59215	1.244665	-0.061214	9.706969	0.001833	0.017414	-0.026070	1.000000	-0.000097	0.000069	0.000036	-0.425833	-7.234658	40.459532
59216	1.254280	-0.078998	9.717735	0.019655	0.009276	-0.014047	1.000000	-0.000106	0.000053	0.000037	-0.426044	-7.234939	40.461045
59217	1.237707	-0.083708	9.702895	0.011623	-0.004036	-0.030819	1.000000	-0.000094	0.000036	0.000029	-0.424738	-7.236885	40.460882
59218	1.255002	-0.070756	9.706644	0.015876	0.016569	-0.025019	1.000000	-0.000111	0.000064	0.000024	-0.425291	-7.235849	40.460676
59219	1.227118	-0.063218	9.694681	-0.008890	0.005585	-0.040454	1.000000	-0.000131	0.000067	0.000016	-0.427955	-7.234639	40.460618
59220	1.239017	-0.072132	9.707616	0.004587	0.005851	-0.026058	1.000000	-0.000110	0.000072	0.000025	-0.428424	-7.232822	40.461292
59221	1.210842	-0.067521	9.709122	-0.019617	-0.008610	-0.028144	1.000000	-0.000107	0.000076	0.000050	-0.428952	-7.230606	40.464686
59222	1.231323	-0.094993	9.703604	0.014350	-0.015630	-0.030834	1.000000	-0.000115	0.000062	0.000034	-0.430045	-7.229644	40.465747
59223	1.225918	-0.087800	9.712951	0.004701	-0.014335	-0.022296	1.000000	-0.000096	0.000051	0.000041	-0.428918	-7.230105	40.468735
59224	1.224931	-0.093018	9.726488	0.005828	-0.020122	-0.008951	1.000000	-0.000108	0.000036	0.000035	-0.429460	-7.232197	40.470025
59225	1.235861	-0.076964	9.723848	0.003600	-0.000802	-0.010316	1.000000	-0.000111	0.000038	0.000028	-0.430222	-7.234132	40.470390
59226	1.237094	-0.094577	9.699069	0.018132	-0.011679	-0.034609	1.000000	-0.000111	0.000038	0.000028	-0.430775	-7.236070	40.470785
59227	1.240815	-0.081446	9.716985	0.010613	-0.000652	-0.016467	1.000000	-0.000100	0.000070	0.000029	-0.430137	-7.234267	40.471155
59228	1.214656	-0.095130	9.707044	0.000967	-0.027150	-0.029518	1.000000	-0.000095	0.000059	0.000042	-0.429164	-7.233870	40.473400
59229	1.243524	-0.066960	9.721597	0.003038	0.011579	-0.011660	1.000000	-0.000094	0.000036	0.000029	-0.428048	-7.235897	40.473158
59230	1.231355	-0.084070	9.710906	0.005806	-0.008849	-0.023668	1.000000	-0.000105	0.000030	0.000024	-0.427781	-7.238692	40.473548
59231	1.237675	-0.061798	9.731005	-0.006015	0.010553	-0.003101	1.000000	-0.000111	0.000064	0.000024	-0.428162	-7.237656	40.473969
59232	1.234285	-0.066846	9.702071	-0.002321	0.006861	-0.032194	1.000000	-0.000105	0.000061	0.000038	-0.428296	-7.237013	40.475903
59233	1.239699	-0.072215	9.708599	0.004729	0.005785	-0.024995	1.000000	-0.000101	0.000062	0.000028	-0.427526	-7.236229	40.477633
59234	1.227524	-0.061732	9.711598	-0.011432	0.005819	-0.023632	1.000000	-0.000108	0.000068	0.000049	-0.428183	-7.234883	40.480868
59235	1.239622	-0.070554	9.724507	0.002073	0.006054	-0.009237	1.000000	-0.000113	0.000047	0.000022	-0.429047	-7.235729	40.480138
59236	1.229329	-0.078574	9.716059	0.000468	-0.005920	-0.018853	1.000000	-0.000099	0.000079	0.000030	-0.428392	-7.232994	40.480273
59237	1.228088	-0.080786	9.716198	0.001036	-0.008239	-0.018855	1.000000	-0.000123	0.000049	0.000019	-0.430161	-7.233671	40.479741
59238	1.227040	-0.086176	9.729731	0.002175	-0.014092	-0.005521	1.000000	-0.000097	0.000043	0.000040	-0.429411	-7.235075	40.481677
59239	1.239454	-0.091760	9.729175	0.015089	-0.010312	-0.004467	1.000000	-0.000116	0.000054	0.000033	-0.430913	-7.235049	40.482058
59240	1.227726	-0.078172	9.718704	-0.001634	-0.006732	-0.016434	1.000000	-0.000103	0.000046	0.000026	-0.430527	-7.236057	40.482668
59241	1.226845	-0.080145	9.718799	-0.001056	-0.009042	-0.016436	1.000000	-0.000093	0.000044	0.000030	-0.429046	-7.237155	40.483480
59242	1.241644	-0.079594	9.733883	0.008116	-0.000451	0.000387	1.000000	-0.000107	0.000044	0.000036	-0.429397	-7.238479	40.485226
59243	1.241095	-0.071882	9.693692	0.006889	0.007870	-0.039610	1.000000	-0.000077	0.000061	0.000026	-0.425903	-7.237881	40.486292
59244	1.242477	-0.067867	9.709444	0.003715	0.010380	-0.023839	1.000000	-0.000117	0.000033	0.000055	-0.427446	-7.240446	40.490792
59245	1.239405	-0.075945	9.693878	0.008008	0.003237	-0.039608	1.000000	-0.000089	0.000046	0.000020	-0.425430	-7.241392	40.490226
59246	1.233811	-0.071663	9.716703	-0.001033	0.000959	-0.017702	1.000000	-0.000093	0.000070	0.000026	-0.423841	-7.239598	40.490455
59247	1.225915	-0.073518	9.723874	-0.006359	-0.006158	-0.011569	1.000000	-0.000103	0.000046	0.000026	-0.423530	-7.240614	40.490384
59248	1.234101	-0.066618	9.719170	-0.004254	0.004722	-0.015256	1.000000	-0.000112	0.000061	0.000041	-0.424422	-7.240064	40.492749
59249	1.232863	-0.068781	9.719312	-0.003656	0.002435	-0.015255	1.000000	-0.000098	0.000066	0.000053	-0.423914	-7.238481	40.496399
59250	1.231860	-0.067906	9.706013	-0.003701	0.003704	-0.028580	1.000000	-0.000130	0.000054	0.000039	-0.426945	-7.238532	40.497942
59251	1.227811	-0.085876	9.730783	0.002387	-0.014145	-0.004383	1.000000	-0.000105	0.000073	0.000015	-0.426851	-7.236338	40.496202
59252	1.217423	-0.090744	9.708900	0.000154	-0.022506	-0.027362	1.000000	-0.000119	0.000081	0.000022	-0.428395	-7.233367	40.495757
59253	1.234457	-0.081259	9.726267	0.005069	-0.005529	-0.008061	1.000000	-0.000105	0.000029	0.000024	-0.428238	-7.236091	40.496160
59254	1.247116	-0.083658	9.712287	0.017412	0.001777	-0.020318	1.000000	-0.000112	0.000061	0.000041	-0.429034	-7.235378	40.498745
59255	1.226136	-0.079056	9.706653	-0.000900	-0.007792	-0.028582	1.000000	-0.000100	0.000044	0.000033	-0.428617	-7.236558	40.499475
59256	1.234328	-0.075013	9.715380	0.001855	-0.000481	-0.018924	1.000000	-0.000079	0.000044	0.000024	-0.425324	-7.237669	40.499991
59257	1.233451	-0.076768	9.715477	0.002413	-0.002765	-0.018925	1.000000	-0.000096	0.000046	0.000023	-0.424262	-7.238610	40.499317
59258	1.234932	-0.069592	9.717831	-0.001330	0.003308	-0.016457	1.000000	-0.000105	0.000055	0.000020	-0.423897	-7.238533	40.499479
59259	1.249789	-0.062612	9.706144	0.006657	0.019069	-0.026231	1.000000	-0.000097	0.000063	0.000018	-0.422855	-7.237532	40.498435
59260	1.232872	-0.070388	9.704663	-0.000814	0.002292	-0.029773	1.000000	-0.000109	0.000049	0.000012	-0.422806	-7.238235	40.497468
59261	1.234262	-0.063295	9.707036	-0.004566	0.008399	-0.027297	1.000000	-0.000101	0.000062	0.000028	-0.422294	-7.237302	40.497719
59262	1.246384	-0.072019	9.719938	0.008949	0.008508	-0.012906	1.000000	-0.000103	0.000046	0.000026	-0.422011	-7.238498	40.498044
59263	1.245618	-0.070811	9.706624	0.008886	0.009804	-0.026220	1.000000	-0.000099	0.000052	0.000034	-0.421360	-7.238839	40.498749
59264	1.228740	-0.078744	9.705123	0.001390	-0.006965	-0.029776	1.000000	-0.000119	0.000055	0.000026	-0.422806	-7.238841	40.499236
59265	1.223415	-0.071882	9.714521	-0.008243	-0.005737	-0.021174	1.000000	-0.000123	0.000049	0.000019	-0.424496	-7.239622	40.499306
59266	1.226346	-0.086663	9.718781	0.003159	-0.015226	-0.016468	1.000000	-0.000105	0.000073	0.000015	-0.424221	-7.237349	40.498364
59267	1.243668	-0.070807	9.709384	0.006835	0.008916	-0.023728	1.000000	-0.000127	0.000047	0.000029	-0.426653	-7.238284	40.499321
59268	1.233540	-0.082304	9.714238	0.005846	-0.006618	-0.020102	1.000000	-0.000112	0.000043	0.000046	-0.427607	-7.239531	40.501372
59269	1.225936	-0.081109	9.707958	-0.000135	-0.010123	-0.027298	1.000000	-0.000101	0.000062	0.000028	-0.427283	-7.238869	40.501073
59270	1.227165	-0.077233	9.723761	-0.003269	-0.007681	-0.011496	1.000000	-0.000100	0.000044	0.000033	-0.426679	-7.240054	40.502519
59271	1.237464	-0.088556	9.707521	0.013384	-0.008726	-0.026224	1.000000	-0.000097	0.000037	0.000022	-0.425432	-7.242022	40.502874
59272	1.226175	-0.071254	9.683686	-0.003983	-0.001406	-0.051420	1.000000	-0.000089	0.000046	0.000020	-0.423318	-7.243150	40.502670
59273	1.240782	-0.074000	9.712248	0.005844	0.003434	-0.021225	1.000000	-0.000104	0.000037	0.000025	-0.423225	-7.245206	40.502165
59274	1.226661	-0.069338	9.699575	-0.006609	-0.001210	-0.035611	1.000000	-0.000101	0.000062	0.000028	-0.423002	-7.244268	40.501321
59275	1.234342	-0.072258	9.735178	-0.002652	-0.001213	0.000696	1.000000	-0.000113	0.000035	0.000045	-0.424278	-7.246539	40.502829
59276	1.236356	-0.058791	9.710732	-0.007673	0.012145	-0.023400	1.000000	-0.000112	0.000055	0.000023	-0.424870	-7.246734	40.503132
59277	1.241947	-0.064305	9.717234	-0.000665	0.011039	-0.016204	1.000000	-0.000103	0.000046	0.000026	-0.424803	-7.247935	40.502852
59278	1.231561	-0.075508	9.722095	-0.001647	-0.004509	-0.012608	1.000000	-0.000107	0.000070	0.000032	-0.424971	-7.246053	40.504296
59279	1.239473	-0.071971	9.730903	0.001061	0.002755	-0.002900	1.000000	-0.000117	0.000046	0.000032	-0.426512	-7.247246	40.504886
59280	1.225141	-0.070881	9.731638	-0.010742	-0.005602	-0.003986	1.000000	-0.000116	0.000054	0.000033	-0.427735	-7.247322	40.506229
59281	1.234898	-0.085752	9.728839	0.006493	-0.010253	-0.005420	1.000000	-0.000108	0.000062	0.000031	-0.428197	-7.246476	40.506659
59282	1.238870	-0.069558	9.733540	-0.001584	0.004231	-0.000378	1.000000	-0.000104	0.000037	0.000025	-0.428106	-7.248442	40.506195
59283	1.229097	-0.074010	9.711549	-0.003834	-0.003942	-0.023391	1.000000	-0.000091	0.000060	0.000032	-0.426609	-7.247676	40.506544
59284	1.234762	-0.079400	9.718038	0.003225	-0.005073	-0.016200	1.000000	-0.000111	0.000032	0.000010	-0.426972	-7.250258	40.504758
59285	1.227824	-0.071567	9.684923	-0.003958	-0.001167	-0.049984	1.000000	-0.000106	0.000052	0.000037	-0.427225	-7.250417	40.506307
59286	1.239724	-0.083629	9.711220	0.010218	-0.004822	-0.022305	1.000000	-0.000089	0.000051	0.000038	-0.425514	-7.250926	40.507774
59287	1.238703	-0.085639	9.711333	0.010776	-0.007149	-0.022307	1.000000	-0.000109	0.000054	0.000030	-0.425881	-7.251103	40.508831
59288	1.233704	-0.071834	9.693977	-0.000117	0.001453	-0.040258	1.000000	-0.000097	0.000063	0.000018	-0.424731	-7.250195	40.507984
59289	1.243783	-0.065525	9.731907	-0.000479	0.009714	-0.001407	1.000000	-0.000101	0.000036	0.000032	-0.424642	-7.252510	40.507881
59290	1.233906	-0.069917	9.709924	-0.002729	0.001567	-0.024428	1.000000	-0.000094	0.000074	0.000002	-0.422968	-7.250171	40.505164
59291	1.234926	-0.066134	9.725783	-0.005884	0.003985	-0.008596	1.000000	-0.000111	0.000051	0.000047	-0.424166	-7.250579	40.506757
59292	1.222408	-0.083419	9.714865	-0.003210	-0.016276	-0.020876	1.000000	-0.000121	0.000052	0.000043	-0.426033	-7.250911	40.509315
59293	1.237404	-0.076614	9.703282	0.004787	-0.000457	-0.030525	1.000000	-0.000103	0.000058	0.000004	-0.425432	-7.250533	40.506695
59294	1.231524	-0.076229	9.739535	-0.003586	-0.006683	0.004692	1.000000	-0.000113	0.000052	0.000040	-0.426560	-7.250872	40.508718
59295	1.244153	-0.078626	9.725622	0.008731	0.000762	-0.007498	1.000000	-0.000113	0.000047	0.000022	-0.427360	-7.251646	40.508446
59296	1.221571	-0.052283	9.718235	-0.024750	0.006885	-0.017872	1.000000	-0.000108	0.000062	0.000031	-0.427828	-7.250989	40.508866
59297	1.228460	-0.079541	9.726501	-0.002559	-0.009864	-0.008599	1.000000	-0.000104	0.000068	0.000039	-0.427934	-7.249280	40.509815
59298	1.247412	-0.085230	9.719013	0.016242	-0.001260	-0.013593	1.000000	-0.000112	0.000055	0.000023	-0.428704	-7.249215	40.508999
59299	1.235933	-0.071502	9.708658	-0.000530	0.002560	-0.025417	1.000000	-0.000107	0.000032	0.000059	-0.429574	-7.251728	40.512188
59300	1.229750	-0.095188	9.717486	0.009282	-0.020220	-0.017260	1.000000	-0.000090	0.000068	0.000033	-0.427955	-7.250031	40.512446
59301	1.240397	-0.078885	9.715283	0.007113	-0.000896	-0.018226	1.000000	-0.000103	0.000045	0.000026	-0.427562	-7.251063	40.512986
59302	1.241777	-0.071664	9.717749	0.003381	0.005188	-0.015660	1.000000	-0.000087	0.000067	0.000040	-0.425630	-7.249532	40.514556
59303	1.236450	-0.061015	9.713848	-0.006886	0.010138	-0.020281	1.000000	-0.000101	0.000062	0.000028	-0.425243	-7.248703	40.514614
59304	1.230303	-0.081401	9.709295	0.002347	-0.008924	-0.025421	1.000000	-0.000105	0.000060	0.000038	-0.425147	-7.247746	40.516637
59305	1.231657	-0.074364	9.711767	-0.001385	-0.002840	-0.022850	1.000000	-0.000105	0.000055	0.000020	-0.424962	-7.247596	40.515914
59306	1.228654	-0.058171	9.723598	-0.015299	0.006773	-0.011614	1.000000	-0.000111	0.000063	0.000024	-0.425727	-7.246405	40.514832
59307	1.233903	-0.063558	9.730140	-0.008228	0.005597	-0.004421	1.000000	-0.000086	0.000070	0.000023	-0.423381	-7.244658	40.514494
59308	1.241347	-0.084068	9.711574	0.012693	-0.003655	-0.021748	1.000000	-0.000126	0.000055	0.000030	-0.425895	-7.244397	40.514451
59309	1.229850	-0.070294	9.701244	-0.004086	0.000151	-0.033547	1.000000	-0.000094	0.000036	0.000029	-0.424637	-7.246638	40.514976
59310	1.241959	-0.079214	9.714133	0.009473	0.000103	-0.019167	1.000000	-0.000114	0.000065	0.000018	-0.425542	-7.245586	40.513613
59311	1.234059	-0.081426	9.721250	0.004150	-0.007080	-0.013087	1.000000	-0.000113	0.000047	0.000022	-0.426458	-7.246468	40.512992
59312	1.242644	-0.071160	9.703337	0.005617	0.007648	-0.029851	1.000000	-0.000109	0.000054	0.000030	-0.426961	-7.246671	40.513936
59313	1.239486	-0.079027	9.687692	0.009810	0.000721	-0.045710	1.000000	-0.000100	0.000044	0.000033	-0.426441	-7.248075	40.514777
59314	1.242308	-0.097046	9.705205	0.021794	-0.012599	-0.027846	1.000000	-0.000105	0.000055	0.000020	-0.426456	-7.248126	40.513302
59315	1.244357	-0.062505	9.721794	-0.000755	0.013713	-0.011390	1.000000	-0.000102	0.000054	0.000027	-0.426273	-7.248342	40.512844
59316	1.251561	-0.086200	9.716587	0.020775	0.000637	-0.015471	1.000000	-0.000090	0.000068	0.000033	-0.424478	-7.246954	40.514281
59317	1.232752	-0.072033	9.713335	-0.001851	-0.000413	-0.021174	1.000000	-0.000093	0.000075	0.000044	-0.423315	-7.244499	40.516407
59318	1.224745	-0.074158	9.720461	-0.007145	-0.007584	-0.015099	1.000000	-0.000120	0.000047	0.000025	-0.425081	-7.245182	40.515902
59319	1.242209	-0.058149	9.711364	-0.003457	0.016696	-0.022041	1.000000	-0.000100	0.000070	0.000029	-0.424666	-7.243333	40.515442
59320	1.244836	-0.072715	9.715544	0.007928	0.007140	-0.017455	1.000000	-0.000096	0.000076	0.000037	-0.423745	-7.240720	40.516949
59321	1.230229	-0.071230	9.716286	-0.003883	-0.001168	-0.018570	1.000000	-0.000099	0.000052	0.000034	-0.423130	-7.240913	40.517927
59322	1.229120	-0.073326	9.716411	-0.003319	-0.003426	-0.018570	1.000000	-0.000108	0.000062	0.000031	-0.423684	-7.239897	40.517646
59323	1.228038	-0.071943	9.703191	-0.003425	-0.001912	-0.031831	1.000000	-0.000095	0.000079	0.000021	-0.422448	-7.237065	40.516761
59324	1.244327	-0.069475	9.747639	0.002814	0.007076	0.014295	1.000000	-0.000114	0.000039	0.000021	-0.423454	-7.239296	40.515843
59325	1.236459	-0.092238	9.713822	0.014928	-0.012761	-0.020074	1.000000	-0.000107	0.000065	0.000015	-0.423356	-7.238462	40.514275
59326	1.245242	-0.057773	9.723525	-0.001723	0.018356	-0.009598	1.000000	-0.000102	0.000053	0.000027	-0.422815	-7.238895	40.514623
59327	1.307016	-0.001636	9.675784	0.013422	0.104388	-0.049593	1.000000	-0.000085	0.000070	0.000065	-0.420812	-7.237547	40.519101
59328	1.244236	-0.159580	9.698710	0.067052	-0.058071	-0.033593	1.000000	-0.000058	0.000099	0.000084	-0.416002	-7.232846	40.525871
59329	1.412451	-0.274790	9.837479	0.255184	-0.048441	0.126078	1.000000	-0.000089	0.000016	-0.000094	-0.412210	-7.237838	40.512397
59330	1.370561	-0.017066	9.767530	0.062128	0.124609	0.049563	1.000000	-0.000146	-0.000089	-0.000190	-0.413707	-7.254445	40.487751
59331	1.291768	0.016081	9.674837	-0.011924	0.104704	-0.052549	1.000000	-0.000155	-0.000088	-0.000052	-0.418248	-7.270868	40.479095
59332	1.556985	0.137599	9.726449	0.101564	0.361965	0.031378	1.000000	-0.000057	-0.000141	0.000150	-0.414556	-7.293179	40.493777
59333	1.509375	-0.038451	9.608599	0.189024	0.203156	-0.090143	1.000000	-0.000018	-0.000176	0.000329	-0.409033	-7.319457	40.529144
59334	1.552723	-0.098428	9.593775	0.260591	0.183048	-0.098793	1.000000	0.000077	-0.000077	0.000298	-0.392081	-7.334431	40.560871
59335	1.645100	-0.063335	9.683117	0.298536	0.259539	0.001417	1.000000	0.000030	0.000011	0.000250	-0.379807	-7.339356	40.586944
59336	1.631443	-0.067515	9.710416	0.288022	0.243516	0.026830	1.000000	-0.000036	-0.000042	0.000201	-0.374481	-7.350431	40.607390
59337	1.686221	-0.080041	9.694409	0.337465	0.269040	0.018134	1.000000	-0.000102	-0.000074	0.000172	-0.376203	-7.365176	40.624509
59338	1.731444	-0.050032	9.682180	0.350824	0.320939	0.011718	1.000000	-0.000144	-0.000072	0.000132	-0.382164	-7.379702	40.636907
59339	1.774561	-0.026097	9.654156	0.367765	0.368318	-0.010567	1.000000	-0.000144	-0.000084	0.000154	-0.388559	-7.395949	40.652288
59340	1.755866	-0.042202	9.607187	0.366789	0.346463	-0.059313	1.000000	-0.000072	-0.000053	0.000138	-0.386416	-7.408599	40.666412
59341	1.806429	-0.021206	9.628195	0.387966	0.391712	-0.032002	1.000000	-0.000028	-0.000027	0.000158	-0.379512	-7.418170	40.682653
59342	1.828551	0.021970	9.675570	0.370607	0.432862	0.017675	1.000000	-0.000020	-0.000083	0.000229	-0.372570	-7.434015	40.707809
59343	1.817763	-0.018131	9.636544	0.391276	0.396453	-0.022014	1.000000	-0.000024	-0.000047	0.000313	-0.367517	-7.445761	40.740663
59344	1.854469	-0.001297	9.684895	0.401409	0.427920	0.030686	1.000000	-0.000069	-0.000035	0.000402	-0.368934	-7.456077	40.785194
59345	1.912948	-0.034329	9.699436	0.462932	0.438373	0.053068	1.000000	-0.000055	-0.000117	0.000431	-0.369309	-7.476044	40.833619
59346	1.887734	-0.025091	9.644246	0.440320	0.431165	-0.004739	1.000000	-0.000043	-0.000177	0.000432	-0.368306	-7.502681	40.880367
59347	1.923712	-0.054769	9.594448	0.488895	0.433373	-0.048965	1.000000	-0.000001	-0.000116	0.000400	-0.361917	-7.522333	40.924335
59348	1.999685	-0.004620	9.637361	0.505999	0.514097	0.003480	1.000000	0.000006	-0.000173	0.000387	-0.354568	-7.548529	40.966854
59349	1.982560	0.002204	9.588209	0.489891	0.507985	-0.047123	1.000000	-0.000002	-0.000287	0.000411	-0.348652	-7.587857	41.011076
59350	2.063239	-0.036229	9.564934	0.572657	0.528783	-0.058781	1.000000	-0.000045	-0.000305	0.000392	-0.347396	-7.629308	41.053375
59351	2.109145	0.026778	9.588728	0.557788	0.600309	-0.028955	1.000000	-0.000060	-0.000256	0.000408	-0.348048	-7.665139	41.097479
59352	2.140973	0.030047	9.653948	0.567038	0.614450	0.040449	1.000000	-0.000062	-0.000293	0.000469	-0.350021	-7.705217	41.148231
59353	2.141058	-0.007941	9.593564	0.592858	0.586937	-0.018573	1.000000	-0.000019	-0.000280	0.000470	-0.346882	-7.743804	41.200940
59354	2.203238	-0.040908	9.606938	0.654430	0.597313	0.003835	1.000000	0.000001	-0.000278	0.000496	-0.342012	-7.782210	41.255585
59355	2.225656	-0.062170	9.501320	0.692188	0.600842	-0.097115	1.000000	0.000033	-0.000197	0.000455	-0.332886	-7.811452	41.305459
59356	2.276144	-0.051058	9.519114	0.717681	0.637589	-0.072288	1.000000	-0.000005	-0.000118	0.000410	-0.327383	-7.831712	41.350029
59357	2.270903	0.003350	9.511853	0.677165	0.673840	-0.080280	1.000000	0.000022	0.000002	0.000430	-0.319087	-7.838205	41.396734
59358	2.285132	-0.052688	9.541181	0.721626	0.638275	-0.048948	1.000000	-0.000006	0.000095	0.000484	-0.314835	-7.834014	41.449623
59359	2.244910	-0.045074	9.586280	0.682699	0.614484	-0.009894	1.000000	-0.000011	0.000132	0.000426	-0.310203	-7.825712	41.495593
59360	2.213086	-0.052133	9.599152	0.663390	0.587807	-0.001542	1.000000	-0.000005	0.000105	0.000385	-0.304285	-7.820523	41.536602
59361	2.275023	-0.032325	9.606455	0.696324	0.642735	0.013948	1.000000	0.000009	0.000087	0.000342	-0.296104	-7.817520	41.572279
59362	2.271506	-0.018744	9.632083	0.683087	0.648100	0.038732	1.000000	0.000016	0.000100	0.000316	-0.286711	-7.813127	41.604564
59363	2.181647	-0.056800	9.671141	0.639239	0.557198	0.065303	1.000000	-0.000008	0.000148	0.000250	-0.278967	-7.803305	41.629003
59364	2.183758	-0.025524	9.701502	0.617427	0.579233	0.095484	1.000000	-0.000070	0.000012	0.000192	-0.277411	-7.809066	41.647234
59365	2.186195	0.011641	9.511726	0.612746	0.623576	-0.092183	1.000000	-0.000088	-0.000115	0.000116	-0.276738	-7.829526	41.656865
59366	2.236373	-0.009945	9.450415	0.668664	0.644177	-0.145747	1.000000	-0.000113	-0.000022	0.000035	-0.277750	-7.839360	41.657674
59367	2.290504	0.065644	9.529250	0.649516	0.729767	-0.060616	1.000000	-0.000163	0.000115	0.000049	-0.284652	-7.833541	41.660569
59368	2.202490	-0.018119	9.571371	0.635830	0.607506	-0.030607	1.000000	-0.000176	0.000167	0.000047	-0.293004	-7.821795	41.662688
59369	2.116938	-0.040387	9.615376	0.583375	0.533263	0.001273	1.000000	-0.000193	0.000189	-0.000018	-0.302277	-7.807581	41.656664
59370	2.161999	-0.043625	9.717308	0.608657	0.554433	0.108217	1.000000	-0.000228	0.000161	-0.000075	-0.314697	-7.796658	41.644140
59371	2.133649	-0.001060	9.650854	0.565848	0.575451	0.038207	1.000000	-0.000237	0.000073	-0.000097	-0.327753	-7.795867	41.629447
59372	2.105648	0.009242	9.625939	0.540170	0.568934	0.009587	1.000000	-0.000243	0.000143	-0.000106	-0.341371	-7.787119	41.613603
59373	2.033041	-0.012821	9.613017	0.501632	0.508161	-0.013012	1.000000	-0.000256	0.000094	-0.000068	-0.357109	-7.783929	41.603541
59374	2.059333	-0.007882	9.666197	0.510228	0.525791	0.043249	1.000000	-0.000216	-0.000035	-0.000025	-0.368919	-7.795586	41.596640
59375	2.049448	-0.064648	9.601738	0.544461	0.481803	-0.021405	1.000000	-0.000166	-0.000087	0.000045	-0.376055	-7.813123	41.598375
59376	2.058493	-0.063937	9.580938	0.550086	0.488280	-0.040541	1.000000	-0.000088	-0.000116	0.000074	-0.374802	-7.834014	41.603499
59377	2.034393	-0.054455	9.568478	0.525054	0.477832	-0.055972	1.000000	-0.000036	-0.000108	0.000096	-0.367921	-7.853987	41.611857
59378	2.018399	-0.017453	9.563377	0.487201	0.492396	-0.063195	1.000000	-0.000054	-0.000119	0.000076	-0.362795	-7.875296	41.615564
59379	2.023450	-0.052338	9.525770	0.515784	0.470515	-0.099296	1.000000	-0.000102	-0.000085	0.000136	-0.364034	-7.892610	41.628184
59380	2.160326	0.123061	9.533156	0.498707	0.691002	-0.074257	1.000000	-0.000132	0.000116	0.000162	-0.369167	-7.886973	41.642579
59381	1.939906	0.032980	9.584906	0.391170	0.477483	-0.052885	1.000000	-0.000169	0.000357	0.000283	-0.380436	-7.853594	41.672230
59382	1.906792	0.041506	9.724794	0.350001	0.455453	0.080707	1.000000	-0.000075	0.000442	0.000369	-0.382212	-7.810457	41.712062
59383	1.902943	0.005928	9.688951	0.378571	0.433564	0.044579	1.000000	-0.000041	0.000277	0.000425	-0.380966	-7.786258	41.758167
59384	1.819137	0.069080	9.612446	0.285424	0.434915	-0.043219	1.000000	-0.000065	0.000273	0.000409	-0.382200	-7.762462	41.801150
59385	1.842204	0.082664	9.669314	0.289750	0.460712	0.015841	1.000000	-0.000238	0.000403	0.000472	-0.404149	-7.723781	41.851913
59386	1.878431	0.115635	9.861172	0.274591	0.500407	0.210225	1.000000	-0.000336	0.000253	0.000552	-0.438543	-7.702239	41.913455
59387	1.835037	0.061472	9.726877	0.289088	0.447991	0.071593	1.000000	-0.000344	-0.000025	0.000553	-0.473895	-7.712498	41.974184
59388	1.710283	0.009106	9.453577	0.254514	0.350947	-0.215431	1.000000	-0.000250	-0.000206	0.000613	-0.499533	-7.743370	42.041160
59389	1.938220	0.008268	9.453657	0.416829	0.501406	-0.184435	1.000000	-0.000147	-0.000129	0.000602	-0.513159	-7.765432	42.108551
59390	1.953381	-0.011310	9.414372	0.442691	0.501291	-0.221078	1.000000	-0.000076	0.000142	0.000692	-0.520024	-7.756343	42.185012
59391	1.780754	-0.001934	9.592696	0.292486	0.382208	-0.067982	1.000000	-0.000030	0.000389	0.000789	-0.523030	-7.718899	42.272322
59392	1.791206	-0.043358	9.748963	0.315176	0.350656	0.088337	1.000000	-0.000030	0.000381	0.000871	-0.527254	-7.682302	42.369359
59393	1.750000	-0.021240	9.770407	0.270567	0.342851	0.103615	1.000000	-0.000075	0.000303	0.000901	-0.537129	-7.654587	42.470405
59394	1.803790	0.050091	9.922695	0.246467	0.424227	0.260809	1.000000	-0.000172	0.000244	0.000946	-0.558711	-7.633598	42.576886
59395	1.710896	0.003162	9.673631	0.235293	0.353168	0.001905	0.999999	-0.000176	0.000175	0.000994	-0.581438	-7.620357	42.688091
59396	1.664473	0.088411	9.697416	0.139565	0.387467	0.018312	0.999999	-0.000175	0.000170	0.001018	-0.604403	-7.607659	42.802528
59397	1.649860	0.009506	9.742343	0.174985	0.319750	0.061648	0.999999	-0.000178	0.000030	0.001042	-0.628177	-7.610908	42.917981
59398	1.641288	0.061385	9.621563	0.141738	0.363419	-0.059744	0.999999	-0.000108	-0.000108	0.001061	-0.644236	-7.629887	43.036465
59399	1.771203	-0.047914	9.655213	0.302752	0.368670	-0.007841	0.999999	-0.000046	-0.000046	0.001014	-0.652477	-7.641802	43.147696
59400	1.639321	-0.136067	9.541504	0.276332	0.223839	-0.136959	1.000000	-0.000017	-0.000100	0.000975	-0.656877	-7.660014	43.255330
59401	1.748900	-0.091330	9.508120	0.325099	0.332618	-0.155824	1.000000	-0.000029	-0.000099	0.000887	-0.661259	-7.678166	43.352612
59402	1.716298	-0.143136	9.451100	0.340991	0.278076	-0.216029	1.000000	-0.000090	0.000103	0.000793	-0.671167	-7.673270	43.437553
59403	1.763574	-0.099284	9.595734	0.329834	0.334195	-0.067038	1.000000	-0.000153	0.000312	0.000751	-0.687637	-7.644512	43.518856
59404	1.791767	-0.111296	9.768224	0.342126	0.336390	0.107535	1.000000	-0.000118	0.000365	0.000722	-0.699561	-7.609745	43.595917
59405	1.600192	-0.076110	9.586354	0.202230	0.251088	-0.098747	1.000000	-0.000050	0.000334	0.000629	-0.702271	-7.578617	43.662019
59406	1.543653	-0.096862	9.745353	0.163039	0.189189	0.051478	1.000000	-0.000097	0.000403	0.000519	-0.708645	-7.539705	43.714044
59407	1.614918	-0.087387	9.946540	0.190361	0.233294	0.259978	1.000000	-0.000065	0.000324	0.000515	-0.711250	-7.509809	43.765308
59408	1.642581	-0.147682	9.925656	0.255269	0.211967	0.243577	1.000000	-0.000017	0.000009	0.000507	-0.708303	-7.516122	43.816683
59409	1.518706	-0.189341	9.694044	0.218195	0.112506	-0.001645	1.000000	0.000105	-0.000190	0.000424	-0.690186	-7.545341	43.858206
59410	1.544474	-0.181780	9.645921	0.234867	0.133239	-0.045942	1.000000	0.000169	-0.000245	0.000370	-0.663903	-7.580946	43.893939
59411	1.599845	-0.198575	9.613628	0.287863	0.154396	-0.070302	1.000000	0.000164	-0.000269	0.000282	-0.636888	-7.619437	43.919856
59412	1.679475	-0.126534	9.463156	0.308348	0.266477	-0.209465	1.000000	0.000094	-0.000269	0.000194	-0.616640	-7.658009	43.933477
59413	1.635765	-0.120467	9.347661	0.283103	0.245689	-0.329624	1.000000	-0.000021	-0.000084	0.000135	-0.608566	-7.675504	43.939162
59414	1.628710	-0.070255	9.475831	0.230297	0.265121	-0.204063	1.000000	-0.000065	0.000167	0.000086	-0.604722	-7.664300	43.940486
59415	1.806998	-0.115603	9.823536	0.356165	0.327823	0.164594	1.000000	-0.000087	0.000364	0.000000	-0.602108	-7.630636	43.934551
59416	1.561934	-0.003080	9.859570	0.104554	0.241598	0.166364	1.000000	-0.000104	0.000428	-0.000056	-0.600512	-7.589739	43.922037
59417	1.364132	-0.098339	9.855539	0.033766	0.040664	0.137156	1.000000	-0.000103	0.000244	-0.000068	-0.598698	-7.569865	43.908332
59418	1.482674	-0.055485	9.930367	0.081390	0.146443	0.226511	1.000000	-0.000100	-0.000106	-0.000132	-0.595574	-7.590193	43.887632
59419	1.619927	-0.060894	9.856118	0.187466	0.239596	0.171219	1.000000	-0.000142	-0.000235	-0.000141	-0.597218	-7.625282	43.866098
59420	1.627039	-0.108424	9.822220	0.226814	0.210531	0.139159	1.000000	-0.000095	0.000051	-0.000161	-0.593057	-7.627612	43.841854
59421	1.437901	-0.216631	9.821117	0.166770	0.002226	0.114095	1.000000	-0.000127	0.000081	-0.000125	-0.593163	-7.626485	43.821781
59422	1.426412	-0.255495	9.631064	0.202992	-0.020570	-0.075353	1.000000	-0.000075	-0.000283	-0.000229	-0.585651	-7.667211	43.790060
59423	1.438913	-0.220716	9.166842	0.231055	0.044472	-0.533959	1.000000	0.000036	-0.000524	-0.000308	-0.564244	-7.735607	43.749591
59424	1.631906	-0.104752	9.068355	0.295711	0.260167	-0.606493	1.000000	0.000073	-0.000275	-0.000263	-0.539299	-7.775422	43.713927
59425	1.833262	-0.127543	9.363846	0.427142	0.352766	-0.286311	1.000000	0.000061	0.000353	-0.000106	-0.518037	-7.743128	43.695829
59426	1.798717	-0.236727	9.785722	0.443496	0.216761	0.127538	1.000000	0.000133	0.000713	-0.000045	-0.489481	-7.669530	43.684360
59427	1.404460	-0.223437	10.167983	0.126090	-0.071202	0.453243	1.000000	0.000174	0.000748	-0.000157	-0.454443	-7.592043	43.660018
59428	1.179116	-0.132975	10.419396	-0.113104	-0.179488	0.671911	1.000000	0.000100	0.000242	-0.000330	-0.425371	-7.572628	43.616178
59429	1.458317	-0.010926	10.192061	0.025685	0.113989	0.482518	1.000000	-0.000073	-0.000481	-0.000464	-0.414193	-7.636082	43.557507
59430	1.425408	0.143178	9.507499	-0.043915	0.253185	-0.201300	1.000000	-0.000267	-0.000700	-0.000487	-0.424740	-7.724752	43.496286
59431	1.562341	0.024811	9.115743	0.166043	0.289546	-0.570021	1.000000	-0.000449	-0.000317	-0.000452	-0.456568	-7.769521	43.438790
59432	1.589122	-0.010932	9.073033	0.208530	0.287459	-0.608382	1.000000	-0.000528	0.000146	-0.000494	-0.496728	-7.761209	43.376033
59433	1.553139	-0.061273	9.333161	0.189028	0.210679	-0.355216	1.000000	-0.000486	0.000413	-0.000541	-0.531384	-7.722417	43.307516
59434	1.392536	-0.102325	9.627133	0.074223	0.056399	-0.085272	1.000000	-0.000412	0.000704	-0.000555	-0.557322	-7.650409	43.237061
59435	1.348263	-0.206954	10.152493	0.066192	-0.082481	0.430484	1.000000	-0.000344	0.000749	-0.000524	-0.576012	-7.573191	43.170215
59436	1.232027	-0.239541	10.256320	-0.001908	-0.184882	0.518488	1.000000	-0.000342	0.000312	-0.000495	-0.595081	-7.545968	43.107183
59437	1.219982	-0.248902	10.025297	0.016981	-0.178772	0.288037	1.000000	-0.000321	-0.000194	-0.000464	-0.612252	-7.576732	43.048399
59438	1.330156	-0.258686	9.633099	0.137555	-0.082442	-0.086069	1.000000	-0.000231	-0.000353	-0.000474	-0.618993	-7.625697	42.988640
59439	1.497666	-0.240454	9.379608	0.267797	0.060598	-0.315189	1.000000	-0.000162	-0.000197	-0.000446	-0.618170	-7.656750	42.931998
59440	1.400992	-0.171813	9.322992	0.156863	0.048469	-0.384881	1.000000	-0.000064	0.000220	-0.000511	-0.605017	-7.640090	42.867306
59441	1.274410	-0.075268	9.561243	-0.019613	0.017846	-0.166629	1.000000	-0.000140	0.000641	-0.000469	-0.601279	-7.575169	42.806947
59442	1.343866	-0.050007	10.069164	-0.031840	0.049115	0.345713	1.000000	-0.000246	0.000547	-0.000335	-0.611732	-7.520771	42.762240
59443	1.109853	-0.123731	10.011801	-0.143143	-0.152441	0.259032	1.000000	-0.000242	0.000191	-0.000283	-0.622599	-7.507200	42.723994
59444	1.152191	-0.122968	9.806735	-0.092514	-0.106549	0.061259	1.000000	-0.000124	-0.000091	-0.000279	-0.620074	-7.525907	42.686521
59445	1.235468	-0.118824	9.625126	-0.018247	-0.035490	-0.107949	1.000000	-0.000125	-0.000130	-0.000211	-0.618674	-7.549003	42.657001
59446	1.372578	-0.057600	9.590765	0.040642	0.100945	-0.124642	1.000000	-0.000094	-0.000220	-0.000116	-0.615193	-7.582271	42.638631
59447	1.367654	-0.104081	9.390673	0.086661	0.076122	-0.323075	1.000000	-0.000068	-0.000099	-0.000060	-0.609527	-7.601601	42.626590
59448	1.254564	-0.123865	9.430931	0.013332	-0.018562	-0.297898	1.000000	-0.000098	0.000172	-0.000051	-0.607351	-7.589868	42.615218
59449	1.318910	-0.093764	9.788219	0.004556	0.020005	0.064414	1.000000	-0.000178	0.000275	-0.000064	-0.614133	-7.566331	42.602199
59450	1.234385	-0.049435	10.000087	-0.105901	-0.016509	0.262847	1.000000	-0.000179	0.000422	0.000000	-0.622056	-7.525849	42.596460
59451	1.147101	-0.156137	10.255584	-0.119790	-0.168786	0.505955	1.000000	-0.000149	0.000385	0.000081	-0.627765	-7.489428	42.600172
59452	1.132018	-0.201918	10.092202	-0.082477	-0.198741	0.342532	1.000000	-0.000084	-0.000164	0.000018	-0.625150	-7.516045	42.597248
59453	1.196391	-0.112742	9.580845	-0.048226	-0.054993	-0.157052	1.000000	-0.000046	-0.000547	-0.000068	-0.616941	-7.586566	42.584923
59454	1.255026	-0.103242	9.132276	0.028068	0.019622	-0.594063	1.000000	-0.000038	-0.000445	0.000009	-0.609012	-7.645348	42.581349
59455	1.474948	-0.028211	9.040090	0.143713	0.224327	-0.656896	1.000000	0.000013	-0.000145	0.000125	-0.596950	-7.669582	42.590856
59456	1.707106	-0.151580	9.166845	0.385778	0.278169	-0.499147	1.000000	0.000052	0.000451	0.000164	-0.580937	-7.625513	42.604117
59457	1.243194	-0.097488	9.688819	-0.029528	-0.026943	-0.044034	0.999999	0.000082	0.001414	0.000180	-0.561500	-7.471070	42.618171
59458	0.996446	-0.101787	10.441960	-0.261818	-0.238754	0.671212	0.999999	-0.000077	0.001499	0.000247	-0.561214	-7.306816	42.639819
59459	1.017587	-0.050353	10.647741	-0.290368	-0.191175	0.878035	1.000000	-0.000178	0.000190	0.000221	-0.572264	-7.292495	42.660065
59460	1.054720	0.042883	9.929298	-0.259804	-0.043556	0.169087	1.000000	-0.000179	-0.000627	0.000180	-0.583035	-7.371825	42.676548
59461	1.200973	0.095927	9.412232	-0.146847	0.128279	-0.325664	1.000000	-0.000191	-0.000456	0.000296	-0.596905	-7.431413	42.706264
59462	1.505543	0.041853	9.505536	0.095947	0.282890	-0.193208	1.000000	-0.000131	-0.000100	0.000463	-0.606321	-7.450000	42.754822
59463	1.289696	-0.078507	9.526092	0.016067	0.046535	-0.199494	1.000000	-0.000032	-0.000003	0.000518	-0.605173	-7.457403	42.809622
59464	1.109315	-0.198326	9.584094	-0.039422	-0.169171	-0.164133	1.000000	0.000074	0.000046	0.000435	-0.590711	-7.459267	42.854706
59465	1.071982	-0.143750	9.906733	-0.134436	-0.182110	0.150341	1.000000	0.000086	0.000110	0.000367	-0.573852	-7.453947	42.891916
59466	1.125330	-0.064091	10.082785	-0.166908	-0.104504	0.330993	1.000000	0.000031	-0.000096	0.000406	-0.563868	-7.472084	42.933890
59467	1.182414	0.009626	9.883179	-0.159076	-0.001025	0.139705	1.000000	-0.000017	-0.000416	0.000469	-0.560374	-7.526855	42.983507
59468	1.254898	0.041523	9.557007	-0.102559	0.090513	-0.174526	1.000000	-0.000056	-0.000560	0.000489	-0.561805	-7.598075	43.035641
59469	1.369794	0.003691	9.234906	0.032070	0.160737	-0.478184	1.000000	-0.000069	-0.000366	0.000535	-0.565421	-7.646998	43.092839
59470	1.512778	0.042758	9.332265	0.095772	0.276054	-0.363025	1.000000	-0.000056	0.000123	0.000530	-0.567439	-7.639896	43.148926
59471	1.407174	0.066039	9.536757	-0.014258	0.207993	-0.174702	1.000000	-0.000025	0.000534	0.000569	-0.566336	-7.585719	43.209011
59472	1.131082	0.004403	9.745194	-0.185771	-0.034604	-0.003893	1.000000	-0.000062	0.000646	0.000574	-0.569509	-7.518689	43.269540
59473	1.047031	0.022289	9.935455	-0.271628	-0.086759	0.173739	1.000000	-0.000142	0.000492	0.000541	-0.581289	-7.469321	43.326418
59474	1.317893	0.013270	10.065248	-0.079685	0.087514	0.337791	1.000000	-0.000219	0.000389	0.000584	-0.602505	-7.431646	43.388472
59475	1.354015	-0.028035	9.957800	-0.013343	0.097182	0.236307	1.000000	-0.000219	0.000255	0.000700	-0.625453	-7.409157	43.464010
59476	1.167552	-0.132342	9.639619	-0.043789	-0.076099	-0.102114	1.000000	-0.000132	0.000142	0.000632	-0.637399	-7.399664	43.531856
59477	1.072672	-0.047312	9.487245	-0.155617	-0.065396	-0.266369	1.000000	-0.000105	0.000045	0.000516	-0.644536	-7.401367	43.586469
59478	1.304578	-0.012571	9.525592	-0.018396	0.115531	-0.198880	1.000000	-0.000126	-0.000017	0.000461	-0.653227	-7.410249	43.634790
59479	1.289583	0.083559	9.632881	-0.108000	0.168349	-0.095569	1.000000	-0.000251	0.000165	0.000458	-0.676251	-7.398238	43.682535
59480	1.211141	-0.013505	9.869902	-0.120795	0.032186	0.130470	1.000000	-0.000324	0.000487	0.000446	-0.707336	-7.349323	43.728460
59481	1.109128	-0.041243	10.320321	-0.217925	-0.083563	0.564519	1.000000	-0.000353	0.000488	0.000416	-0.741273	-7.300328	43.770882
59482	0.985052	-0.030528	10.254184	-0.309485	-0.149667	0.483009	1.000000	-0.000337	-0.000092	0.000438	-0.773810	-7.317711	43.816704
59483	1.041184	-0.212778	9.824530	-0.108618	-0.211304	0.066294	1.000000	-0.000242	-0.000571	0.000424	-0.795304	-7.390003	43.861618
59484	1.234995	-0.141142	9.337404	0.019387	0.004574	-0.392929	1.000000	-0.000094	-0.000670	0.000418	-0.799876	-7.473661	43.911881
59485	1.317212	-0.234906	9.133581	0.154701	0.001042	-0.582921	1.000000	-0.000015	-0.000593	0.000529	-0.797157	-7.548261	43.973797
59486	1.387637	-0.253290	9.044975	0.221499	0.037578	-0.661141	1.000000	0.000015	-0.000172	0.000598	-0.791956	-7.574512	44.038366
59487	0.261470	-0.414695	9.827360	-0.543848	-0.914634	-0.030818	0.999999	0.000065	0.001039	0.000281	-0.775917	-7.462552	44.068260
59488	-0.237208	-0.152319	12.359035	-1.316802	-1.249266	2.415573	0.999998	-0.000271	0.002101	0.000173	-0.796494	-7.229008	44.084963
59489	0.116239	-0.030292	14.141717	-1.319045	-1.034464	4.229840	1.000000	-0.000593	-0.000203	0.000568	-0.860166	-7.258653	44.150602
59490	1.897456	-0.329707	11.456061	0.370749	0.147061	1.797215	0.999984	-0.000337	-0.005673	0.000508	-0.895238	-7.915134	44.219174
59491	0.976861	-0.377925	7.086188	0.138103	-0.240006	-2.654944	0.999965	0.000198	-0.008304	0.000146	-0.864544	-8.873706	44.249023
59492	2.516968	0.007494	4.747312	1.176986	1.252961	-4.721870	0.999973	0.000793	-0.007304	0.000237	-0.767453	-9.717564	44.285952
59493	1.549986	0.044570	3.544260	0.591480	0.700014	-6.054199	0.999989	0.001214	-0.004623	0.000211	-0.621002	-10.254297	44.311773
59494	0.826922	0.090696	5.012057	-0.149318	0.051230	-4.734518	0.999998	0.000898	0.001455	0.000560	-0.516627	-10.094232	44.369427
59495	5.436201	0.089290	10.599489	2.437127	2.642504	1.544410	0.999964	0.000342	0.008424	0.000750	-0.477935	-9.135515	44.441324
59496	3.880381	0.139506	13.564501	1.109486	1.457708	4.176965	0.999953	-0.000640	0.009670	0.000762	-0.550327	-8.034064	44.513434
59497	-0.004227	-0.283202	14.093825	-1.251948	-1.419083	4.156290	0.999980	-0.000959	0.006219	0.000413	-0.653033	-7.328528	44.547638
59498	-1.325448	0.179601	13.668592	-2.397191	-1.875427	3.579672	0.999997	-0.000700	0.002539	-0.000070	-0.719286	-7.045209	44.532114
59499	0.106335	0.002980	12.687001	-1.155560	-0.892110	2.790490	1.000000	-0.000964	0.000099	0.000072	-0.818151	-7.041120	44.536794
59500	1.359012	0.300967	10.603707	-0.291791	0.357362	0.872032	1.000000	-0.000646	-0.000634	0.000139	-0.881778	-7.120801	44.548726
59501	2.021449	-0.020437	8.635007	0.582967	0.742317	-0.994575	1.000000	-0.000731	0.000090	0.000652	-0.962318	-7.116625	44.619659
59502	1.456576	-0.542385	6.860458	0.724985	0.118056	-2.816822	1.000000	-0.000191	0.000638	0.000419	-0.977449	-7.050096	44.663079
59503	0.709529	-0.621707	5.393943	0.403472	-0.346287	-4.362746	1.000000	0.000072	0.000487	0.000129	-0.958375	-7.001428	44.672970
59504	0.310351	-0.411858	5.159619	0.002376	-0.458802	-4.647699	1.000000	0.000479	0.000151	0.000144	-0.892900	-6.991159	44.685629
59505	0.349350	0.034546	5.751662	-0.333686	-0.165354	-4.062370	0.999999	0.001234	-0.000041	0.000061	-0.739845	-7.003050	44.689406
59506	1.423402	0.471680	8.945804	-0.172279	0.631731	-0.765748	0.999998	0.001911	-0.000085	0.000143	-0.510414	-7.019844	44.703527
59507	3.324384	0.587493	14.700169	0.583423	1.577253	5.176087	0.999997	0.000869	0.001449	0.001533	-0.419491	-6.859641	44.873073
59508	1.660655	-0.217127	16.494291	-0.146048	-0.266615	6.763615	0.999996	-0.000441	0.001792	0.001911	-0.483296	-6.659901	45.085096
59509	-0.244094	-0.487840	15.378338	-1.192947	-1.697300	5.434831	0.999999	-0.000305	-0.001185	0.001042	-0.519902	-6.801985	45.199669
59510	-1.249926	-0.141004	12.843479	-1.964788	-2.005985	2.783029	0.999993	-0.000450	-0.003600	0.000624	-0.568213	-7.220979	45.268263
59511	0.206282	-0.107595	9.449276	-0.729167	-0.758302	-0.419357	0.999973	0.000197	-0.007301	0.000124	-0.536070	-8.064535	45.284750
59512	1.261744	0.293483	6.197148	-0.015085	0.481348	-3.499997	0.999970	0.000340	-0.007726	-0.000012	-0.485466	-8.956921	45.284033
59513	2.037243	0.260943	4.414707	0.703964	1.133249	-5.129948	0.999986	0.000331	-0.005287	0.000129	-0.438081	-9.569666	45.295277
59514	2.933578	0.355564	4.604410	1.214461	1.781904	-4.784489	0.999999	0.000260	-0.001354	0.000327	-0.402097	-9.731669	45.324842
59515	3.918323	0.360392	6.032747	1.725214	2.325999	-3.217970	0.999992	-0.000405	0.003748	0.000912	-0.452809	-9.308594	45.422724
59516	3.329664	0.313336	8.577520	1.107360	1.682620	-0.829419	0.999962	-0.000788	0.008614	0.001375	-0.553486	-8.327437	45.568525
59517	1.616472	-0.195675	12.161165	0.021940	-0.072327	2.456549	0.999946	-0.000794	0.010250	0.001435	-0.652494	-7.158587	45.717050
59518	-0.834677	-0.536547	14.544430	-1.520508	-2.075904	4.536550	0.999978	-0.000733	0.006508	0.000971	-0.736139	-6.418875	45.815028
59519	-1.948698	-0.584260	14.162014	-2.171000	-2.805067	4.048041	1.000000	-0.000354	-0.000306	0.000543	-0.771284	-6.460373	45.873262
59520	-0.523701	-0.156007	11.620888	-1.312417	-1.353862	1.667170	0.999987	0.000068	-0.005002	0.000347	-0.756579	-7.040105	45.916394
59521	1.743250	0.094142	9.428047	0.203014	0.521286	-0.240763	0.999981	0.000300	-0.006158	0.000540	-0.718858	-7.751985	45.983441
59522	2.802606	0.079258	7.521253	1.075099	1.361738	-1.975628	0.999989	0.000323	-0.004622	0.000641	-0.680493	-8.287743	46.059542
59523	2.777781	0.033820	6.890108	1.126554	1.337876	-2.592457	0.999999	0.000054	-0.001458	0.000687	-0.673489	-8.460981	46.136437
59524	2.328557	-0.055423	7.488668	0.816474	0.902202	-2.065125	0.999998	-0.000322	0.001934	0.000675	-0.708747	-8.245616	46.207216
59525	1.555330	-0.039967	8.843516	0.157763	0.272000	-0.838884	0.999992	-0.000486	0.003864	0.000464	-0.758521	-7.809459	46.250387
59526	0.647581	0.016980	10.318515	-0.617084	-0.413226	0.499413	0.999994	-0.000599	0.003421	0.000437	-0.820505	-7.424002	46.290702
59527	0.203977	0.084141	11.142931	-1.024302	-0.710343	1.262498	0.999999	-0.000516	0.001458	0.000571	-0.875203	-7.263177	46.349408
59528	0.590486	0.064847	10.811949	-0.710296	-0.404727	0.984664	1.000000	-0.000376	-0.000189	0.000894	-0.918863	-7.290384	46.448329
59529	1.306049	-0.118393	10.275335	-0.046207	0.022914	0.545866	0.999999	-0.000145	-0.000648	0.001069	-0.938809	-7.369745	46.568416
59530	1.582011	-0.255149	9.636347	0.296567	0.173750	-0.050060	0.999999	0.000035	-0.000263	0.001059	-0.937953	-7.405046	46.686663
59531	1.692355	-0.467715	9.295953	0.561207	0.136073	-0.370013	1.000000	0.000071	0.000474	0.000698	-0.927511	-7.356533	46.761734
59532	1.138285	-0.269943	9.261654	0.054839	-0.116906	-0.478338	0.999999	0.000047	0.001052	0.000366	-0.914702	-7.242464	46.797387
59533	0.640362	-0.090321	9.543395	-0.426966	-0.362781	-0.263831	0.999999	-0.000063	0.001179	0.000388	-0.914731	-7.113793	46.835416
59534	-0.190234	-0.069481	9.539053	-0.991385	-0.934561	-0.369263	0.999999	-0.000112	0.001091	0.000616	-0.923457	-6.994832	46.899863
59535	-0.258737	-0.241379	9.953742	-0.939044	-1.121543	0.039343	0.999999	-0.000040	0.000888	0.000608	-0.923781	-6.899045	46.963897
59536	0.213026	-0.161072	10.179549	-0.690026	-0.734434	0.320378	1.000000	0.000006	0.000369	0.000598	-0.918761	-6.862716	47.027743
59537	0.205968	-0.261458	9.782156	-0.577231	-0.774965	-0.072688	1.000000	0.000148	0.000431	0.000573	-0.897069	-6.819214	47.088683
59538	0.158419	-0.369401	9.689648	-0.508597	-0.869048	-0.167125	0.999999	0.000166	0.001134	0.000407	-0.870744	-6.695479	47.129226
59539	-0.122215	-0.268482	9.910596	-0.770783	-1.005775	0.020987	0.999999	0.000153	0.001602	0.000174	-0.842632	-6.518474	47.142196
59540	-0.658184	-0.121624	10.031751	-1.228374	-1.286195	0.082804	0.999999	0.000026	0.001473	0.000110	-0.828257	-6.356389	47.148104
59541	-0.814818	-0.138447	10.076836	-1.309272	-1.399523	0.114690	1.000000	-0.000092	0.000921	0.000189	-0.828510	-6.257287	47.164177
59542	-0.789647	-0.149959	9.990182	-1.267382	-1.373707	0.033958	1.000000	-0.000106	0.000500	0.000232	-0.830925	-6.206331	47.186002
59543	-0.668822	-0.124399	10.011091	-1.200366	-1.263362	0.069002	1.000000	-0.000134	0.000480	0.000297	-0.837342	-6.157479	47.215461
59544	-0.681395	-0.190613	10.172166	-1.167221	-1.321780	0.230423	1.000000	-0.000094	0.000580	0.000280	-0.838915	-6.097159	47.242787
59545	-0.736561	-0.286212	10.276604	-1.136217	-1.427838	0.331440	1.000000	-0.000072	0.000443	0.000164	-0.836608	-6.052589	47.257094
59546	-0.926098	-0.279768	10.150028	-1.255223	-1.551285	0.186159	1.000000	-0.000051	0.000030	0.000010	-0.830129	-6.055606	47.254411
59547	-0.933753	-0.225231	9.832698	-1.276119	-1.501991	-0.131773	1.000000	-0.000036	-0.000319	-0.000094	-0.820715	-6.098687	47.240481
59548	-0.816101	-0.171933	9.701859	-1.229875	-1.378033	-0.251826	1.000000	-0.000035	-0.000458	-0.000042	-0.811771	-6.157494	47.232804
59549	-0.683598	-0.133691	9.531828	-1.158511	-1.250455	-0.408692	1.000000	-0.000012	-0.000267	0.000103	-0.802036	-6.194122	47.241616
59550	-0.630445	-0.176504	9.662343	-1.102709	-1.253119	-0.273127	1.000000	-0.000030	0.000073	0.000247	-0.796019	-6.191536	47.266581
59551	-0.701792	-0.314633	9.961568	-1.070912	-1.419826	0.018975	1.000000	0.000047	0.000278	0.000265	-0.781452	-6.165398	47.293366
59552	-0.791248	-0.397674	10.151802	-1.080783	-1.554319	0.200270	1.000000	0.000052	0.000213	0.000105	-0.764275	-6.146929	47.307958
59553	-0.787871	-0.332143	10.250484	-1.131939	-1.516013	0.297897	1.000000	0.000060	-0.000051	-0.000068	-0.744174	-6.158872	47.296942
59554	-0.746969	-0.201717	10.147893	-1.192823	-1.396033	0.197639	1.000000	0.000016	-0.000335	-0.000126	-0.728324	-6.203471	47.286356
59555	-0.622105	-0.166643	9.997671	-1.126523	-1.278053	0.059786	1.000000	-0.000025	-0.000438	-0.000134	-0.717199	-6.259684	47.268550
59556	-0.556691	-0.096955	9.851057	-1.126725	-1.180782	-0.081354	1.000000	-0.000004	-0.000457	-0.000028	-0.704943	-6.317850	47.262977
59557	-0.519525	-0.097325	9.753076	-1.098044	-1.155800	-0.176283	1.000000	0.000050	-0.000466	0.000092	-0.688062	-6.376911	47.271333
59558	-0.378510	-0.138547	9.783760	-0.979162	-1.092664	-0.131172	1.000000	0.000078	-0.000434	0.000156	-0.668657	-6.432256	47.296032
59559	-0.272129	-0.169425	9.792023	-0.888458	-1.045395	-0.111953	1.000000	0.000073	-0.000347	0.000111	-0.649346	-6.477636	47.314352
59560	-0.190373	-0.149951	9.841455	-0.854442	-0.983446	-0.054833	1.000000	0.000005	-0.000285	0.000025	-0.636618	-6.515916	47.322411
59561	-0.117882	-0.169353	9.814058	-0.792698	-0.947458	-0.074502	1.000000	-0.000101	-0.000314	-0.000042	-0.635157	-6.557605	47.322004
59562	-0.096665	-0.120527	9.938978	-0.829570	-0.912760	0.050670	1.000000	-0.000168	-0.000235	-0.000200	-0.639354	-6.590389	47.305076
59563	-0.024871	-0.036296	9.986094	-0.852903	-0.809049	0.104066	1.000000	-0.000331	-0.000232	-0.000228	-0.661803	-6.622833	47.284780
59564	-0.068638	0.004320	9.872136	-0.910451	-0.806734	-0.015542	1.000000	-0.000362	-0.000386	-0.000168	-0.688563	-6.672785	47.273271
59565	-0.008113	-0.069989	9.778059	-0.815985	-0.809476	-0.102162	1.000000	-0.000298	-0.000425	-0.000143	-0.708362	-6.727233	47.265758
59566	0.113009	-0.130381	9.801934	-0.701218	-0.768561	-0.064596	1.000000	-0.000300	-0.000450	-0.000181	-0.727814	-6.784525	47.253527
59567	0.165013	-0.178065	9.808024	-0.641211	-0.768567	-0.052851	1.000000	-0.000295	-0.000487	-0.000243	-0.745867	-6.846137	47.232273
59568	0.239139	-0.138239	9.856250	-0.634619	-0.696623	0.002297	1.000000	-0.000308	-0.000495	-0.000273	-0.764975	-6.908727	47.209197
59569	0.279542	-0.127637	9.899931	-0.629596	-0.668689	0.049336	1.000000	-0.000349	-0.000520	-0.000111	-0.790990	-6.973827	47.205993
59570	0.349259	-0.211349	9.925535	-0.534704	-0.682718	0.083315	1.000000	-0.000302	-0.000581	0.000051	-0.813893	-7.045614	47.219150
59571	0.381997	-0.229939	9.807239	-0.498426	-0.669360	-0.030855	1.000000	-0.000194	-0.000606	0.000205	-0.826605	-7.120018	47.251836
59572	0.422667	-0.334649	9.677954	-0.390490	-0.708964	-0.153583	1.000000	-0.000066	-0.000555	0.000277	-0.825698	-7.188501	47.297474
59573	0.555222	-0.417742	9.671405	-0.245737	-0.676889	-0.143133	1.000000	0.000014	-0.000457	0.000209	-0.814759	-7.245782	47.329671
59574	0.659278	-0.401449	9.669747	-0.191705	-0.598260	-0.132546	1.000000	0.000053	-0.000399	0.000012	-0.796418	-7.296780	47.340156
59575	0.652010	-0.271638	9.699019	-0.297311	-0.525591	-0.106749	1.000000	0.000052	-0.000275	-0.000119	-0.776315	-7.333789	47.337537
59576	0.689157	-0.136535	9.719738	-0.374797	-0.414378	-0.083622	1.000000	0.000020	-0.000160	-0.000088	-0.760259	-7.357492	47.336030
59577	0.748170	-0.114867	9.817573	-0.360860	-0.369184	0.020479	1.000000	0.000010	-0.000091	-0.000051	-0.745875	-7.373235	47.338884
59578	0.866042	-0.093701	9.876936	-0.303765	-0.278571	0.094017	1.000000	0.000018	-0.000221	-0.000008	-0.731211	-7.403749	47.347051
59579	0.940998	-0.078640	9.778465	-0.257079	-0.211505	0.005622	1.000000	0.000025	-0.000304	-0.000090	-0.714526	-7.443921	47.343528
59580	0.966414	-0.002863	9.693502	-0.289426	-0.140723	-0.076447	1.000000	0.000037	-0.000235	-0.000104	-0.696214	-7.476167	47.339331
59581	1.016792	0.091596	9.717755	-0.328760	-0.047184	-0.047100	1.000000	-0.000021	-0.000166	-0.000039	-0.685528	-7.500408	47.340654
59582	1.253216	0.115140	9.852628	-0.204048	0.123934	0.117121	1.000000	-0.000090	-0.000397	0.000121	-0.685171	-7.550940	47.361203
59583	1.402183	-0.126433	9.763302	0.074056	0.068492	0.051084	1.000000	-0.000143	-0.000670	0.000121	-0.690986	-7.632701	47.383571
59584	1.277523	-0.023088	9.543579	-0.073372	0.059315	-0.184417	1.000000	-0.000215	-0.000506	0.000078	-0.704349	-7.695763	47.397038
59585	1.389704	-0.056915	9.665365	0.006974	0.102706	-0.048303	1.000000	-0.000241	-0.000281	0.000107	-0.721087	-7.732993	47.415842
59586	1.402527	-0.178130	9.738963	0.091285	0.020534	0.027914	1.000000	-0.000224	-0.000249	0.000032	-0.734772	-7.766608	47.422589
59587	1.456075	-0.166196	9.660311	0.120380	0.072107	-0.042852	1.000000	-0.000247	-0.000278	0.000026	-0.751045	-7.803612	47.428681
59588	1.479817	-0.205125	9.571466	0.168823	0.069197	-0.127048	1.000000	-0.000230	-0.000132	-0.000066	-0.763912	-7.824027	47.426338
59589	1.510023	-0.175359	9.598324	0.162060	0.109388	-0.096695	1.000000	-0.000217	0.000090	-0.000044	-0.775590	-7.818966	47.424375
59590	1.453483	-0.166535	9.627197	0.114912	0.074594	-0.075927	1.000000	-0.000213	0.000249	-0.000000	-0.787364	-7.795680	47.427065
59591	1.440776	-0.233074	9.694938	0.150130	0.017578	-0.009671	1.000000	-0.000117	0.000224	0.000015	-0.788382	-7.775253	47.433627
59592	1.370616	-0.156812	9.677359	0.051320	0.021921	-0.037651	1.000000	-0.000058	0.000209	0.000081	-0.783748	-7.756427	47.445628
59593	1.426224	-0.220512	9.757985	0.130377	0.013502	0.050569	1.000000	0.000007	0.000199	0.000120	-0.772236	-7.738652	47.463466
59594	1.362040	-0.154388	9.802233	0.037390	0.007943	0.084853	1.000000	0.000004	0.000139	0.000091	-0.760631	-7.727851	47.478339
59595	1.392883	-0.187120	9.824462	0.081564	0.005852	0.111450	1.000000	-0.000042	0.000030	0.000075	-0.754116	-7.729541	47.489621
59596	1.341943	-0.213307	9.732939	0.076162	-0.042620	0.014255	1.000000	-0.000039	-0.000056	-0.000099	-0.744526	-7.741382	47.478368
59597	1.329519	-0.000913	9.643688	-0.079867	0.097538	-0.078601	1.000000	-0.000060	-0.000076	-0.000146	-0.736661	-7.755603	47.463936
59598	1.417136	0.027706	9.645193	-0.042795	0.178622	-0.065634	1.000000	-0.000062	-0.000020	-0.000022	-0.730954	-7.763270	47.465087
59599	1.420817	-0.014631	9.597080	-0.004333	0.156028	-0.112248	1.000000	-0.000081	0.000039	0.000059	-0.728666	-7.763971	47.473691
59600	1.377082	-0.069513	9.642933	0.002802	0.083080	-0.072028	1.000000	-0.000090	0.000122	0.000073	-0.727569	-7.755182	47.481862
59601	1.372663	-0.082887	9.712078	0.003832	0.065751	-0.003957	1.000000	-0.000117	0.000138	0.000020	-0.728817	-7.744614	47.480886
59602	1.359360	-0.062127	9.754742	-0.024330	0.067725	0.036248	1.000000	-0.000177	0.000088	0.000015	-0.736819	-7.739825	47.480400
59603	1.366644	-0.093818	9.696441	0.009073	0.058041	-0.020138	1.000000	-0.000166	0.000048	0.000035	-0.743861	-7.739622	47.483739
59604	1.334585	-0.114045	9.652767	0.006011	0.026107	-0.067467	1.000000	-0.000195	0.000077	0.000037	-0.754278	-7.736102	47.487600
59605	1.276134	-0.145123	9.639958	-0.009365	-0.034537	-0.087613	1.000000	-0.000180	0.000134	0.000036	-0.762880	-7.725993	47.489419
59606	1.241813	-0.157786	9.707183	-0.028988	-0.071855	-0.025431	1.000000	-0.000133	0.000193	0.000048	-0.766314	-7.709162	47.494284
59607	1.214694	-0.205603	9.771567	-0.016913	-0.127344	0.035397	1.000000	-0.000132	0.000189	0.000030	-0.769405	-7.692838	47.495398
59608	1.229437	-0.182963	9.773813	-0.022769	-0.099597	0.039316	1.000000	-0.000121	0.000122	0.000018	-0.770976	-7.684159	47.495684
59609	1.222140	-0.162773	9.780313	-0.042650	-0.091188	0.044519	1.000000	-0.000102	0.000055	0.000003	-0.770147	-7.683168	47.495809
59610	1.233243	-0.152691	9.763280	-0.040979	-0.075113	0.028985	1.000000	-0.000090	0.000005	0.000029	-0.768355	-7.687863	47.496748
59611	1.232101	-0.136980	9.746676	-0.051751	-0.064890	0.012161	1.000000	-0.000056	0.000000	0.000031	-0.762692	-7.693145	47.498732
59612	1.222614	-0.138628	9.694947	-0.051674	-0.069794	-0.040356	1.000000	-0.000049	-0.000018	0.000032	-0.756289	-7.700507	47.500922
59613	1.272219	-0.111594	9.714901	-0.040179	-0.018663	-0.014303	1.000000	-0.000036	0.000001	0.000015	-0.748169	-7.705667	47.500516
59614	1.283900	-0.100698	9.697821	-0.038521	-0.002566	-0.029805	1.000000	-0.000074	0.000000	0.000004	-0.744264	-7.710967	47.500113
59615	1.308806	-0.060037	9.705623	-0.052775	0.041566	-0.019262	1.000000	-0.000097	0.000011	0.000008	-0.743013	-7.715020	47.498422
59616	1.321419	-0.067331	9.705144	-0.039391	0.045318	-0.017950	1.000000	-0.000111	0.000006	0.000037	-0.743855	-7.719636	47.500259
59617	1.326444	-0.088442	9.656395	-0.016048	0.038706	-0.065304	1.000000	-0.000102	0.000026	0.000055	-0.743844	-7.721948	47.503953
59618	1.310286	-0.093476	9.683344	-0.025793	0.021283	-0.040706	1.000000	-0.000113	0.000088	0.000049	-0.744996	-7.717143	47.507214
59619	1.298895	-0.117859	9.661577	-0.013147	-0.000640	-0.063486	1.000000	-0.000148	0.000085	0.000046	-0.750176	-7.712691	47.511308
59620	1.325562	-0.101498	9.634131	-0.004138	0.034265	-0.087324	1.000000	-0.000156	0.000181	0.000038	-0.756071	-7.697248	47.513678
59621	1.259859	-0.137714	9.742310	-0.030865	-0.045013	0.011559	1.000000	-0.000151	0.000233	0.000031	-0.761346	-7.675886	47.515881
59622	1.221903	-0.141362	9.819207	-0.060360	-0.079689	0.082759	1.000000	-0.000155	0.000103	0.000044	-0.767260	-7.669367	47.519587
59623	1.263220	-0.161335	9.752553	-0.011458	-0.056325	0.022491	1.000000	-0.000114	0.000036	0.000020	-0.768162	-7.670632	47.520271
59624	1.273284	-0.165710	9.680518	0.005888	-0.045196	-0.047491	1.000000	-0.000106	0.000093	0.000022	-0.768103	-7.665294	47.522731
59625	1.193271	-0.140468	9.696791	-0.066933	-0.087179	-0.042360	1.000000	-0.000095	0.000131	0.000036	-0.767055	-7.655595	47.525760
59626	1.218359	-0.152328	9.725291	-0.043530	-0.078914	-0.010608	1.000000	-0.000094	0.000049	0.000024	-0.765694	-7.655326	47.527213
59627	1.264273	-0.151926	9.759137	-0.016064	-0.048449	0.029041	1.000000	-0.000063	0.000046	0.000019	-0.760640	-7.655405	47.527656
59628	1.301908	-0.130020	9.740880	-0.004597	-0.004801	0.015668	1.000000	-0.000084	0.000065	0.000024	-0.758088	-7.653348	47.528706
59629	1.284701	-0.096123	9.721589	-0.038706	0.007265	-0.006187	1.000000	-0.000095	0.000059	0.000018	-0.756754	-7.651948	47.528700
59630	1.274480	-0.119589	9.699601	-0.026084	-0.014613	-0.029029	1.000000	-0.000084	-0.000003	0.000024	-0.754251	-7.657678	47.529532
59631	1.308245	-0.089126	9.661783	-0.022190	0.033283	-0.062410	1.000000	-0.000076	0.000037	0.000031	-0.750937	-7.658867	47.532486
59632	1.310478	-0.082398	9.664921	-0.025446	0.039352	-0.059091	1.000000	-0.000105	0.000106	0.000042	-0.751059	-7.652123	47.536389
59633	1.302229	-0.083736	9.701320	-0.032684	0.030551	-0.024101	1.000000	-0.000127	0.000156	0.000054	-0.753925	-7.639558	47.541321
59634	1.263993	-0.118960	9.710208	-0.032301	-0.020208	-0.019909	1.000000	-0.000137	0.000136	0.000037	-0.757643	-7.629294	47.543703
59635	1.279535	-0.118012	9.742221	-0.025505	-0.009687	0.013872	1.000000	-0.000145	0.000079	0.000034	-0.762319	-7.625640	47.545182
59636	1.268460	-0.124437	9.733091	-0.027047	-0.020514	0.003441	1.000000	-0.000103	0.000091	0.000029	-0.762090	-7.620553	47.546483
59637	1.246797	-0.117261	9.698164	-0.042840	-0.027613	-0.034138	1.000000	-0.000121	0.000098	0.000046	-0.764166	-7.614699	47.550236
59638	1.235233	-0.145194	9.718695	-0.031717	-0.055653	-0.014942	1.000000	-0.000141	0.000103	0.000038	-0.768325	-7.608318	47.553151
59639	1.244796	-0.157199	9.731586	-0.017434	-0.056713	-0.000731	1.000000	-0.000129	0.000104	0.000025	-0.770932	-7.601788	47.553987
59640	1.240838	-0.146570	9.728425	-0.027365	-0.051188	-0.004525	1.000000	-0.000131	0.000078	0.000029	-0.773867	-7.598235	47.555012
59641	1.246644	-0.131760	9.734559	-0.034806	-0.036970	0.002125	1.000000	-0.000101	0.000067	0.000022	-0.773250	-7.595951	47.555921
59642	1.258283	-0.138871	9.734217	-0.021429	-0.033244	0.003420	1.000000	-0.000087	0.000049	0.000021	-0.771021	-7.595794	47.556965
59643	1.263601	-0.145269	9.740589	-0.013818	-0.034844	0.010523	1.000000	-0.000087	-0.000001	0.000017	-0.768711	-7.601365	47.557145
59644	1.289162	-0.136006	9.710058	-0.000681	-0.008008	-0.016484	1.000000	-0.000082	0.000023	0.000021	-0.765906	-7.604196	47.557867
59645	1.281739	-0.115832	9.687317	-0.018203	0.001810	-0.040275	1.000000	-0.000096	0.000045	0.000041	-0.765072	-7.604429	47.561235
59646	1.285556	-0.105163	9.677294	-0.022370	0.012677	-0.049846	1.000000	-0.000100	0.000057	0.000028	-0.764435	-7.603283	47.562362
59647	1.296981	-0.116180	9.719391	-0.010442	0.010127	-0.006464	1.000000	-0.000102	0.000081	0.000035	-0.764194	-7.599382	47.564555
59648	1.276698	-0.108543	9.713720	-0.028629	0.001645	-0.014867	1.000000	-0.000123	0.000096	0.000021	-0.766082	-7.593822	47.564660
59649	1.271512	-0.097996	9.681338	-0.036206	0.008648	-0.047788	1.000000	-0.000111	0.000092	0.000032	-0.766697	-7.588778	47.567566
59650	1.270825	-0.099886	9.710832	-0.037630	0.005043	-0.018618	1.000000	-0.000112	0.000102	0.000027	-0.767373	-7.582611	47.569226
59651	1.247659	-0.135944	9.705762	-0.025727	-0.035060	-0.026215	1.000000	-0.000126	0.000074	0.000043	-0.769973	-7.579549	47.571626
59652	1.235881	-0.128715	9.722509	-0.040508	-0.039698	-0.011262	1.000000	-0.000118	0.000070	0.000021	-0.771293	-7.577041	47.572676
59653	1.228497	-0.147971	9.745875	-0.033544	-0.059649	0.011186	1.000000	-0.000127	0.000066	0.000041	-0.773989	-7.574869	47.575356
59654	1.239108	-0.138453	9.729098	-0.031953	-0.043437	-0.004171	1.000000	-0.000129	0.000058	0.000040	-0.776865	-7.573611	47.577543
59655	1.251134	-0.128445	9.741573	-0.032698	-0.028747	0.009644	1.000000	-0.000110	0.000042	0.000028	-0.777379	-7.574300	47.579608
59656	1.254732	-0.153121	9.705861	-0.008619	-0.039831	-0.024946	1.000000	-0.000091	0.000037	0.000037	-0.775802	-7.575545	47.583168
59657	1.265916	-0.146808	9.731420	-0.008436	-0.029985	0.001775	1.000000	-0.000104	0.000023	0.000030	-0.775582	-7.578304	47.585116
59658	1.269845	-0.153891	9.708536	0.001517	-0.030082	-0.020295	1.000000	-0.000104	0.000045	0.000044	-0.775579	-7.578533	47.588916
59659	1.270407	-0.133949	9.708360	-0.012603	-0.016398	-0.020665	1.000000	-0.000077	0.000046	0.000025	-0.772250	-7.578705	47.591037
59660	1.264906	-0.126656	9.689015	-0.019288	-0.014164	-0.040663	1.000000	-0.000077	0.000052	0.000001	-0.768613	-7.578195	47.589095
59661	1.268891	-0.097886	9.691917	-0.037595	0.007686	-0.037645	1.000000	-0.000079	0.000061	0.000038	-0.765693	-7.576707	47.591608
59662	1.273492	-0.104410	9.698382	-0.029982	0.006054	-0.030542	1.000000	-0.000102	0.000059	0.000021	-0.765237	-7.575437	47.592716
59663	1.258101	-0.105387	9.712112	-0.040566	-0.006781	-0.018947	1.000000	-0.000105	0.000083	0.000028	-0.765157	-7.571402	47.594817
59664	1.256423	-0.107394	9.712307	-0.039627	-0.008912	-0.018945	1.000000	-0.000094	0.000089	0.000033	-0.763810	-7.566663	47.597292
59665	1.247737	-0.108929	9.719284	-0.044454	-0.016400	-0.013149	1.000000	-0.000112	0.000083	0.000031	-0.764613	-7.562603	47.599627
59666	1.236883	-0.097313	9.722977	-0.060156	-0.016226	-0.011068	1.000000	-0.000103	0.000091	0.000029	-0.764388	-7.557676	47.601833
59667	1.233839	-0.121238	9.723384	-0.044169	-0.034177	-0.010742	1.000000	-0.000106	0.000069	0.000051	-0.764789	-7.555189	47.606498
59668	1.252378	-0.133333	9.758651	-0.026408	-0.031581	0.026815	1.000000	-0.000127	0.000044	0.000027	-0.767316	-7.555673	47.608100
59669	1.254109	-0.127490	9.732496	-0.027363	-0.023966	0.001038	1.000000	-0.000119	0.000034	0.000030	-0.768927	-7.557324	47.610194
59670	1.248595	-0.142576	9.742598	-0.021311	-0.039134	0.010527	1.000000	-0.000117	0.000032	0.000037	-0.770335	-7.559206	47.613423
59671	1.256351	-0.145157	9.765108	-0.016923	-0.037528	0.033892	1.000000	-0.000104	0.000005	0.000034	-0.770310	-7.564093	47.615863
59672	1.263816	-0.147678	9.758240	-0.010244	-0.034308	0.028095	1.000000	-0.000091	-0.000053	0.000023	-0.768598	-7.575710	47.617410
59673	1.251779	-0.126684	9.742091	-0.033582	-0.029731	0.010211	1.000000	-0.000075	-0.000113	0.000019	-0.765023	-7.594230	47.618172
59674	1.253080	-0.132618	9.754846	-0.031697	-0.036758	0.023088	1.000000	-0.000098	-0.000149	0.000036	-0.764342	-7.616716	47.620835
59675	1.231594	-0.133163	9.686978	-0.041183	-0.050066	-0.047038	1.000000	-0.000061	-0.000154	0.000003	-0.758986	-7.639953	47.620015
59676	1.292737	-0.113056	9.619059	-0.010278	0.011478	-0.106503	1.000000	-0.000101	-0.000095	-0.000009	-0.757900	-7.656379	47.617483
59677	1.303996	-0.106876	9.615230	-0.007783	0.022880	-0.108880	1.000000	-0.000085	0.000029	0.000032	-0.755607	-7.658571	47.619441
59678	1.306152	-0.104344	9.660838	-0.012352	0.022342	-0.063428	1.000000	-0.000111	0.000113	0.000046	-0.756427	-7.651021	47.622934
59679	1.287491	-0.117903	9.743244	-0.022343	-0.006913	0.015934	1.000000	-0.000105	0.000099	0.000066	-0.756979	-7.645146	47.628655
59680	1.294370	-0.120334	9.765876	-0.017929	-0.005355	0.039310	1.000000	-0.000092	0.000029	0.000035	-0.755567	-7.647319	47.630891
59681	1.308399	-0.101627	9.722885	-0.018294	0.020753	-0.001675	1.000000	-0.000090	0.000005	0.000028	-0.753780	-7.652268	47.632270
59682	1.296414	-0.111758	9.697328	-0.016681	0.006780	-0.028464	1.000000	-0.000108	0.000017	0.000022	-0.753933	-7.655889	47.633840
59683	1.297929	-0.105495	9.671237	-0.017673	0.014478	-0.054201	1.000000	-0.000105	0.000083	0.000028	-0.753849	-7.651911	47.635611
59684	1.269053	-0.119127	9.672549	-0.026589	-0.015136	-0.056563	1.000000	-0.000129	0.000108	0.000044	-0.756829	-7.645024	47.638388
59685	1.255728	-0.133590	9.718923	-0.028528	-0.037404	-0.012179	1.000000	-0.000105	0.000155	0.000046	-0.757100	-7.632735	47.641285
59686	1.244778	-0.143870	9.781460	-0.033676	-0.056485	0.048489	1.000000	-0.000139	0.000104	0.000064	-0.761502	-7.626280	47.646612
59687	1.244662	-0.142173	9.768504	-0.033710	-0.053699	0.035614	1.000000	-0.000107	0.000035	0.000017	-0.761557	-7.627774	47.646381
59688	1.261018	-0.136916	9.728755	-0.023233	-0.035215	-0.001683	1.000000	-0.000104	-0.000017	0.000020	-0.761346	-7.635276	47.647049
59689	1.273082	-0.126760	9.711927	-0.021695	-0.018910	-0.016897	1.000000	-0.000101	-0.000001	0.000023	-0.760701	-7.640932	47.648527
59690	1.277343	-0.133770	9.688985	-0.011817	-0.018859	-0.038976	1.000000	-0.000115	0.000040	0.000039	-0.761923	-7.641931	47.651387
59691	1.262171	-0.134618	9.702665	-0.022379	-0.031757	-0.027423	1.000000	-0.000071	0.000078	0.000031	-0.758038	-7.638503	47.652511
59692	1.266971	-0.123796	9.722078	-0.028830	-0.022571	-0.007689	1.000000	-0.000128	0.000044	0.000027	-0.760529	-7.639025	47.653826
59693	1.301298	-0.115209	9.743615	-0.014563	0.006423	0.018103	1.000000	-0.000093	0.000039	0.000030	-0.759248	-7.640099	47.654642
59694	1.306611	-0.117646	9.707622	-0.005663	0.011445	-0.016829	1.000000	-0.000089	0.000023	0.000024	-0.757325	-7.643002	47.655084
59695	1.302760	-0.106242	9.675203	-0.013386	0.018763	-0.049619	1.000000	-0.000087	0.000043	0.000045	-0.755378	-7.643629	47.658575
59696	1.282016	-0.102361	9.682552	-0.030654	0.005416	-0.045144	1.000000	-0.000100	0.000057	0.000028	-0.754797	-7.642613	47.659296
59697	1.276945	-0.112997	9.679612	-0.025567	-0.004834	-0.048591	1.000000	-0.000111	0.000091	0.000033	-0.755511	-7.637694	47.660613
59698	1.279614	-0.124378	9.699214	-0.016952	-0.011488	-0.028659	1.000000	-0.000128	0.000094	0.000032	-0.758077	-7.632497	47.662270
59699	1.264827	-0.125875	9.742242	-0.029720	-0.026210	0.012044	1.000000	-0.000128	0.000094	0.000032	-0.760708	-7.627300	47.663531
59700	1.277546	-0.111793	9.741875	-0.031390	-0.006703	0.013182	1.000000	-0.000113	0.000065	0.000036	-0.761641	-7.625329	47.665485
59701	1.250610	-0.121008	9.729917	-0.041290	-0.031361	-0.002118	1.000000	-0.000105	0.000055	0.000038	-0.761712	-7.624557	47.667761
59702	1.249439	-0.140855	9.716996	-0.026293	-0.044341	-0.014815	1.000000	-0.000123	0.000040	0.000041	-0.763896	-7.625520	47.670084
59703	1.266317	-0.135644	9.706651	-0.018074	-0.027552	-0.022900	1.000000	-0.000103	0.000041	0.000026	-0.763594	-7.626408	47.671031
59704	1.263091	-0.141955	9.690535	-0.013970	-0.032838	-0.039216	1.000000	-0.000102	0.000049	0.000027	-0.763128	-7.626390	47.672167
59705	1.278801	-0.123200	9.706315	-0.018839	-0.010165	-0.021743	1.000000	-0.000101	0.000045	0.000009	-0.762366	-7.626793	47.670434
59706	1.287235	-0.121336	9.715850	-0.015365	-0.003763	-0.011199	1.000000	-0.000090	0.000051	0.000014	-0.760283	-7.626613	47.670207
59707	1.277020	-0.126821	9.706503	-0.017010	-0.014454	-0.021745	1.000000	-0.000084	0.000036	0.000034	-0.757899	-7.628094	47.672369
59708	1.288360	-0.116400	9.689852	-0.015507	0.001930	-0.036880	1.000000	-0.000095	0.000025	0.000052	-0.757043	-7.630751	47.676055
59709	1.288967	-0.114110	9.676848	-0.015581	0.004783	-0.049718	1.000000	-0.000097	0.000045	0.000041	-0.756228	-7.631199	47.678715
59710	1.286861	-0.102903	9.703073	-0.027729	0.008480	-0.024154	1.000000	-0.000108	0.000063	0.000007	-0.756097	-7.629577	47.677511
59711	1.272644	-0.099841	9.703703	-0.039251	0.000505	-0.025456	1.000000	-0.000117	0.000087	0.000017	-0.757208	-7.625165	47.677555
59712	1.286185	-0.103239	9.719633	-0.029051	0.007314	-0.007827	1.000000	-0.000116	0.000071	0.000047	-0.758723	-7.622547	47.680746
59713	1.277611	-0.104944	9.726576	-0.033871	-0.000246	-0.002059	1.000000	-0.000099	0.000087	0.000044	-0.758196	-7.618234	47.683692
59714	1.256112	-0.118679	9.720912	-0.037063	-0.024458	-0.010338	1.000000	-0.000099	0.000065	0.000030	-0.757329	-7.616398	47.685241
59715	1.260956	-0.125518	9.727304	-0.029413	-0.026186	-0.003270	1.000000	-0.000106	0.000025	0.000023	-0.757345	-7.619084	47.685584
59716	1.263627	-0.136603	9.717460	-0.018609	-0.031034	-0.012527	1.000000	-0.000102	0.000049	0.000027	-0.756881	-7.619146	47.686885
59717	1.277002	-0.122116	9.717097	-0.020292	-0.011534	-0.011306	1.000000	-0.000097	0.000045	0.000041	-0.756066	-7.619626	47.689564
59718	1.265492	-0.132296	9.720785	-0.020952	-0.027216	-0.009042	1.000000	-0.000118	0.000041	0.000032	-0.757578	-7.620568	47.691212
59719	1.284484	-0.140355	9.713641	-0.001861	-0.018119	-0.013499	1.000000	-0.000108	0.000039	0.000036	-0.757982	-7.621740	47.693437
59720	1.276959	-0.124461	9.733542	-0.020710	-0.014898	0.005016	1.000000	-0.000096	0.000035	0.000047	-0.757077	-7.623364	47.696994
