// Start Time: Unknown
// Update Rate: 100.0Hz
// Filter Profile: human (46.1)
// Firmware Version: 4.4.0
PacketCounter	Acc_X	Acc_Y	Acc_Z	FreeAcc_X	FreeAcc_Y	FreeAcc_Z	OriInc_q0	OriInc_q1	OriInc_q2	OriInc_q3	Roll	Pitch	Yaw
39926	2.188712	-0.146198	12.943899	-0.000000	0.000000	3.315769	1.000000	-0.000009	0.000048	-0.000069	-0.647295	-9.599599	177.514519
39927	2.182839	-0.156815	12.911664	0.000000	0.000000	3.283130	1.000000	0.000003	0.000044	-0.000075	-0.696728	-9.597453	177.807949
39928	2.171277	-0.161234	12.933322	0.016406	0.008943	3.302606	1.000000	-0.000003	0.000033	-0.000068	-0.671199	-9.597501	177.643852
39929	2.170200	-0.160963	12.933506	0.016406	0.008943	3.302606	1.000000	0.000000	0.000052	-0.000076	-0.669719	-9.591681	177.635001
39930	2.194759	-0.140399	12.923191	-0.011642	-0.010217	3.296291	1.000000	-0.000004	0.000050	-0.000060	-0.669461	-9.586259	177.628190
39931	2.167666	-0.160636	12.933935	0.016455	0.008830	3.302606	1.000000	-0.000011	0.000047	-0.000062	-0.669464	-9.580917	177.620974
39932	2.176413	-0.121970	12.919816	0.002543	-0.028960	3.289696	1.000000	0.000000	0.000052	-0.000076	-0.667989	-9.575084	177.612123
39933	2.181081	-0.178417	12.938151	0.002264	0.027572	3.309200	1.000000	-0.000006	0.000041	-0.000069	-0.667328	-9.570503	177.604067
39934	2.158822	-0.137171	12.909255	0.016438	-0.013806	3.276534	1.000000	-0.000004	0.000050	-0.000060	-0.666580	-9.564825	177.597068
39935	2.178119	-0.144451	12.945706	0.002548	-0.006323	3.315767	1.000000	-0.000016	0.000045	-0.000071	-0.666973	-9.559711	177.588708
39936	2.151346	-0.164649	12.956383	0.030624	0.012741	3.322082	1.000000	0.000005	0.000028	-0.000058	-0.665258	-9.556502	177.581957
39937	2.191980	-0.162292	12.949853	-0.011660	0.012435	3.322362	1.000000	-0.000011	0.000056	-0.000070	-0.665201	-9.550229	177.573728
39938	2.159566	-0.159643	12.935302	0.016389	0.008838	3.302606	1.000000	-0.000010	0.000048	-0.000095	-0.664552	-9.544699	177.562598
39939	2.173433	-0.143829	12.946500	0.002490	-0.006316	3.315767	1.000000	0.000000	0.000060	-0.000058	-0.663357	-9.537885	177.555728
39940	2.145590	-0.130239	12.964397	0.030815	-0.021175	3.328649	1.000000	-0.000009	0.000048	-0.000070	-0.663066	-9.532199	177.547595
39941	2.197213	-0.156824	12.929295	-0.025955	0.008520	3.302886	1.000000	0.000005	0.000054	-0.000066	-0.661208	-9.526145	177.539887
39942	2.169513	-0.143044	12.947167	0.002366	-0.006322	3.315767	1.000000	0.000001	0.000044	-0.000067	-0.659790	-9.520969	177.532046
39943	2.179043	-0.138063	12.925876	-0.011831	-0.010216	3.296291	1.000000	-0.000006	0.000041	-0.000069	-0.659137	-9.516385	177.523989
39944	2.177841	-0.137781	12.926081	-0.011882	-0.010185	3.296291	1.000000	0.000005	0.000054	-0.000066	-0.657153	-9.510102	177.516259
39945	2.187945	-0.166357	12.897655	-0.026367	0.019816	3.270248	1.000000	0.000006	0.000037	-0.000074	-0.655084	-9.505965	177.507580
39946	2.180125	-0.126235	12.958927	-0.011572	-0.021424	3.328929	1.000000	-0.000011	0.000056	-0.000070	-0.654943	-9.499739	177.499327
39947	2.164280	-0.175421	12.941013	0.002039	0.027625	3.309200	1.000000	0.000006	0.000045	-0.000057	-0.653151	-9.494610	177.492630
39948	2.173094	-0.136535	12.926894	-0.011835	-0.010175	3.296291	1.000000	0.000001	0.000044	-0.000067	-0.651790	-9.489868	177.484809
39949	2.172598	-0.170109	12.919937	-0.012123	0.023720	3.289724	1.000000	-0.000009	0.000048	-0.000070	-0.651443	-9.484436	177.476665
39950	2.181311	-0.131500	12.905833	-0.025917	-0.014053	3.276815	1.000000	-0.000009	0.000048	-0.000070	-0.650993	-9.479512	177.468467
39951	2.170110	-0.169827	12.920359	-0.012006	0.023738	3.289724	1.000000	0.000000	0.000052	-0.000076	-0.649524	-9.473689	177.459611
39952	2.173497	-0.158678	12.953013	-0.011576	0.012341	3.322362	1.000000	-0.000001	0.000043	-0.000059	-0.649090	-9.469478	177.452866
39953	2.182790	-0.153622	12.931776	-0.025772	0.008444	3.302886	1.000000	0.000002	0.000061	-0.000066	-0.647554	-9.462578	177.445074
39954	2.181404	-0.153121	12.932016	-0.025444	0.008362	3.302887	1.000000	0.000012	0.000048	-0.000081	-0.644977	-9.458666	177.435671
39955	2.153654	-0.139311	12.949855	0.002947	-0.006489	3.315767	1.000000	-0.000005	0.000050	-0.000085	-0.643918	-9.453090	177.425679
39956	2.173656	-0.129655	12.907143	-0.025024	-0.014329	3.276816	1.000000	-0.000011	0.000047	-0.000062	-0.644081	-9.449637	177.418505
39957	2.176990	-0.118706	12.939802	-0.024711	-0.025591	3.309454	1.000000	-0.000007	0.000049	-0.000078	-0.643382	-9.444175	177.409437
39958	2.176435	-0.152271	12.932863	-0.024558	0.008081	3.302889	1.000000	-0.000002	0.000051	-0.000068	-0.643224	-9.440412	177.401726
39959	2.175189	-0.151863	12.933078	-0.024543	0.008071	3.302889	1.000000	0.000010	0.000047	-0.000073	-0.640755	-9.435177	177.393193
39960	2.178524	-0.140667	12.965738	-0.023845	-0.003486	3.335527	1.000000	-0.000009	0.000048	-0.000070	-0.641679	-9.431513	177.385267
39961	2.172968	-0.151190	12.933459	-0.024137	0.007757	3.302890	1.000000	0.000013	0.000031	-0.000064	-0.639005	-9.428033	177.377847
39962	2.197827	-0.130291	12.923168	-0.051446	-0.011800	3.296580	1.000000	-0.000002	0.000042	-0.000085	-0.639799	-9.426846	177.368458
39963	2.170822	-0.150401	12.933828	-0.023332	0.007215	3.302891	1.000000	0.000003	0.000053	-0.000058	-0.638457	-9.420947	177.361726
39964	2.174114	-0.139159	12.966495	-0.022040	-0.003908	3.335530	1.000000	0.000003	0.000044	-0.000075	-0.635864	-9.420282	177.353116
39965	2.179137	-0.144979	12.912774	-0.036520	0.003434	3.283420	1.000000	-0.000006	0.000041	-0.000069	-0.635339	-9.415823	177.345101
39966	2.188595	-0.139955	12.891525	-0.049754	-0.000715	3.263951	1.000000	0.000000	0.000052	-0.000076	-0.634854	-9.414339	177.336493
39967	2.182056	-0.167390	12.938480	-0.035490	0.025775	3.309497	1.000000	-0.000003	0.000042	-0.000051	-0.634337	-9.409792	177.330559
39968	2.164798	-0.149241	12.934851	-0.020101	0.006942	3.302897	1.000000	-0.000014	0.000063	-0.000071	-0.634762	-9.407971	177.322464
39969	2.178429	-0.133599	12.946116	-0.033945	-0.008249	3.316063	1.000000	-0.000011	0.000056	-0.000070	-0.634873	-9.401911	177.314285
39970	2.177913	-0.167119	12.939181	-0.032384	0.025193	3.309506	1.000000	0.000008	0.000046	-0.000065	-0.634392	-9.404962	177.307142
39971	2.186468	-0.128310	12.925114	-0.046229	-0.012640	3.296599	1.000000	-0.000011	0.000056	-0.000070	-0.634541	-9.398996	177.298977
39972	2.174587	-0.132984	12.946768	-0.029969	-0.009101	3.316072	1.000000	-0.000004	0.000042	-0.000077	-0.634689	-9.403424	177.290531
39973	2.184913	-0.161597	12.918362	-0.044384	0.020854	3.290046	1.000000	0.000008	0.000046	-0.000065	-0.632750	-9.398611	177.282985
39974	2.141260	-0.129814	12.932274	-0.000573	-0.013067	3.296294	1.000000	0.000001	0.000044	-0.000067	-0.632593	-9.399183	177.275214
39975	2.187252	-0.150004	12.951192	-0.042728	0.009200	3.322686	1.000000	0.000002	0.000035	-0.000058	-0.631489	-9.395646	177.268471
39976	2.181574	-0.160602	12.918938	-0.040997	0.019601	3.290059	1.000000	-0.000003	0.000059	-0.000076	-0.633818	-9.398236	177.259692
39977	2.164244	-0.142304	12.915308	-0.026694	0.000787	3.283445	1.000000	-0.000004	0.000050	-0.000060	-0.633397	-9.393118	177.252803
39978	2.183405	-0.149344	12.951849	-0.038245	0.007069	3.322701	1.000000	-0.000010	0.000048	-0.000095	-0.637589	-9.398094	177.241589
39979	2.161728	-0.141942	12.915733	-0.024260	-0.000497	3.283449	1.000000	0.000001	0.000052	-0.000050	-0.636882	-9.392841	177.235884
39980	2.191590	-0.144090	12.930835	-0.051333	0.002772	3.303245	1.000000	-0.000004	0.000042	-0.000077	-0.637077	-9.392592	177.226824
39981	2.159350	-0.141426	12.916137	-0.023119	-0.000913	3.283451	1.000000	0.000000	0.000052	-0.000076	-0.636060	-9.387438	177.218132
39982	2.162619	-0.130305	12.948800	-0.020951	-0.013434	3.316086	1.000000	-0.000006	0.000041	-0.000069	-0.640657	-9.391181	177.209751
39983	2.162303	-0.163876	12.941841	-0.021074	0.020332	3.309538	1.000000	-0.000002	0.000051	-0.000068	-0.640117	-9.386215	177.202027
39984	2.176187	-0.147856	12.953081	-0.033252	0.004467	3.322716	1.000000	0.000003	0.000044	-0.000075	-0.641165	-9.388850	177.193402
39985	2.196473	-0.137792	12.910400	-0.061521	-0.003442	3.283805	1.000000	0.000006	0.000037	-0.000074	-0.639708	-9.385547	177.184948
39986	2.169547	-0.158070	12.920995	-0.031003	0.014301	3.290093	1.000000	-0.000011	0.000056	-0.000070	-0.644994	-9.390104	177.176542
39987	2.167278	-0.124092	12.928387	-0.030511	-0.019763	3.296636	1.000000	0.000005	0.000054	-0.000066	-0.643845	-9.384914	177.169090
39988	2.166910	-0.157450	12.921445	-0.028157	0.012330	3.290102	1.000000	0.000003	0.000044	-0.000075	-0.649663	-9.392017	177.159796
39989	2.191398	-0.136472	12.911276	-0.056049	-0.006911	3.283828	1.000000	0.000007	0.000055	-0.000074	-0.648304	-9.386862	177.151475
39990	2.164313	-0.156630	12.921890	-0.025336	0.011839	3.290108	1.000000	-0.000002	0.000051	-0.000068	-0.647947	-9.392688	177.145628
39991	2.152460	-0.161176	12.943515	-0.010843	0.015508	3.309557	1.000000	-0.000002	0.000043	-0.000085	-0.647444	-9.389073	177.136040
39992	2.177047	-0.140442	12.933332	-0.035398	-0.004136	3.303298	1.000000	-0.000009	0.000048	-0.000070	-0.649005	-9.399453	177.130799
39993	2.161040	-0.155978	12.922446	-0.021239	0.010814	3.290116	1.000000	-0.000000	0.000026	-0.000068	-0.648647	-9.397870	177.123250
39994	2.175067	-0.140112	12.933669	-0.032740	-0.003899	3.303305	1.000000	-0.000011	0.000056	-0.000070	-0.646006	-9.401881	177.118608
39995	2.184380	-0.135152	12.912479	-0.046679	-0.007978	3.283864	1.000000	-0.000002	0.000051	-0.000068	-0.645743	-9.397527	177.110989
39996	2.177846	-0.162659	12.959410	-0.029455	0.017335	3.329406	1.000000	-0.000006	0.000041	-0.000069	-0.649720	-9.405904	177.103214
39997	2.140332	-0.137277	12.919347	-0.001177	-0.009060	3.283469	1.000000	-0.000002	0.000051	-0.000068	-0.649530	-9.401653	177.095622
39998	2.186065	-0.157419	12.938412	-0.039831	0.011774	3.309982	1.000000	-0.000004	0.000050	-0.000060	-0.654588	-9.411964	177.089548
39999	2.168943	-0.139024	12.934709	-0.025285	-0.007205	3.303320	1.000000	0.000011	0.000039	-0.000065	-0.653141	-9.409283	177.082391
40000	2.172387	-0.127746	12.967338	-0.023622	-0.020625	3.335942	1.000000	-0.000003	0.000034	-0.000068	-0.661456	-9.411550	177.069912
40001	2.161437	-0.115566	12.909767	-0.023738	-0.032207	3.277219	1.000000	-0.000006	0.000067	-0.000077	-0.661780	-9.405785	177.061317
40002	2.181443	-0.156217	12.939207	-0.034622	0.007523	3.309999	1.000000	0.000002	0.000035	-0.000058	-0.666935	-9.416235	177.054813
40003	2.175153	-0.133081	12.914058	-0.034295	-0.015389	3.283896	1.000000	-0.000004	0.000042	-0.000077	-0.667221	-9.413513	177.046312
40004	2.163280	-0.137646	12.935672	-0.017635	-0.013223	3.303327	1.000000	0.000000	0.000052	-0.000076	-0.672860	-9.418587	177.035682
40005	2.178066	-0.155344	12.939786	-0.031343	0.005165	3.310009	1.000000	0.000001	0.000044	-0.000067	-0.672884	-9.415730	177.028374
40006	2.160990	-0.137093	12.936060	-0.014606	-0.014544	3.303330	1.000000	-0.000006	0.000041	-0.000069	-0.676019	-9.422658	177.020688
40007	2.170498	-0.132007	12.914852	-0.028418	-0.018760	3.283905	1.000000	0.000000	0.000052	-0.000076	-0.676035	-9.418928	177.012384
40008	2.174542	-0.154668	12.940387	-0.026494	0.003186	3.310020	1.000000	-0.000009	0.000048	-0.000070	-0.678178	-9.421621	177.005019
40009	2.172292	-0.120784	12.947756	-0.025690	-0.031093	3.316524	1.000000	-0.000004	0.000050	-0.000060	-0.678978	-9.418174	176.998589
40010	2.182753	-0.149613	12.919402	-0.037695	-0.001493	3.290607	1.000000	-0.000014	0.000046	-0.000080	-0.680421	-9.424441	176.991322
40011	2.181612	-0.149457	12.919596	-0.037192	-0.001868	3.290608	1.000000	0.000001	0.000044	-0.000067	-0.680566	-9.421813	176.984059
40012	2.184813	-0.138241	12.952264	-0.034583	-0.013694	3.323228	1.000000	0.000001	0.000044	-0.000067	-0.680910	-9.426477	176.977179
40013	2.180404	-0.182542	12.912822	-0.034844	0.031158	3.284117	1.000000	0.000003	0.000044	-0.000075	-0.680709	-9.423796	176.968996
40014	2.167597	-0.153327	12.941568	-0.019604	0.000692	3.310033	1.000000	-0.000004	0.000042	-0.000077	-0.681403	-9.421941	176.958716
40015	2.192233	-0.132471	12.931427	-0.047225	-0.018728	3.303816	1.000000	-0.000004	0.000042	-0.000077	-0.681973	-9.419557	176.950320
40016	2.165447	-0.152783	12.941934	-0.016892	-0.000625	3.310036	1.000000	0.000003	0.000044	-0.000075	-0.683865	-9.424466	176.941877
40017	2.175015	-0.147805	12.920728	-0.030666	-0.004876	3.290624	1.000000	-0.000017	0.000045	-0.000064	-0.686274	-9.421796	176.935045
40018	2.163155	-0.152517	12.942321	-0.012807	-0.001494	3.310041	1.000000	0.000008	0.000046	-0.000065	-0.685378	-9.432390	176.932515
40019	2.176886	-0.136339	12.953619	-0.026074	-0.017082	3.323244	1.000000	0.000000	0.000052	-0.000076	-0.685575	-9.429086	176.924278
40020	2.155275	-0.129007	12.917432	-0.009942	-0.025716	3.283921	1.000000	-0.000004	0.000050	-0.000060	-0.689831	-9.434571	176.918519
40021	2.186046	-0.164731	12.925511	-0.037653	0.011310	3.297355	1.000000	0.000000	0.000052	-0.000076	-0.690108	-9.431423	176.910312
40022	2.157983	-0.151291	12.943198	-0.006679	-0.005887	3.310044	1.000000	0.000000	0.000052	-0.000076	-0.698457	-9.437153	176.897096
40023	2.198476	-0.148253	12.937039	-0.048357	-0.006651	3.310570	1.000000	0.000003	0.000045	-0.000075	-0.698571	-9.434897	176.889031
40024	2.186658	-0.153057	12.958618	-0.031084	-0.003558	3.329980	1.000000	-0.000022	0.000043	-0.000074	-0.702364	-9.443312	176.884129
40025	2.181273	-0.163847	12.926328	-0.030944	0.007317	3.297376	1.000000	0.000008	0.000046	-0.000065	-0.702132	-9.440967	176.877227
40026	2.158784	-0.122702	12.897258	-0.014945	-0.035201	3.264514	1.000000	-0.000006	0.000041	-0.000069	-0.706506	-9.445567	176.868610
40027	2.189724	-0.158490	12.905329	-0.042590	0.001762	3.277985	1.000000	-0.000004	0.000050	-0.000060	-0.707763	-9.442850	176.862350
40028	2.172366	-0.140230	12.901615	-0.025510	-0.018573	3.271253	1.000000	0.000002	0.000053	-0.000084	-0.712463	-9.450259	176.852996
40029	2.176411	-0.162794	12.927161	-0.024655	0.003480	3.297391	1.000000	-0.000007	0.000049	-0.000078	-0.713830	-9.447810	176.844696
40030	2.179506	-0.151774	12.959838	-0.020796	-0.007736	3.329999	1.000000	-0.000008	0.000040	-0.000061	-0.712076	-9.457976	176.845979
40031	2.158136	-0.144731	12.923592	-0.006464	-0.015604	3.290650	1.000000	-0.000016	0.000046	-0.000072	-0.714527	-9.456073	176.838376
40032	2.187801	-0.146810	12.938865	-0.032072	-0.012762	3.310615	1.000000	-0.000003	0.000059	-0.000077	-0.715834	-9.459870	176.832616
40033	2.186434	-0.146351	12.939101	-0.031338	-0.013273	3.310616	1.000000	0.000012	0.000048	-0.000081	-0.715030	-9.457790	176.823921
40034	2.143583	-0.148692	12.945621	0.013376	-0.012419	3.310035	1.000000	-0.000006	0.000041	-0.000069	-0.711363	-9.463755	176.823790
40035	2.169204	-0.161555	12.928388	-0.014354	0.001956	3.297406	1.000000	-0.000002	0.000051	-0.000068	-0.712292	-9.461412	176.816618
40036	2.167906	-0.161308	12.928609	-0.011144	0.001916	3.297409	1.000000	-0.000002	0.000051	-0.000068	-0.710553	-9.469820	176.817068
40037	2.177381	-0.156288	12.907444	-0.024700	-0.002424	3.278031	1.000000	-0.000011	0.000047	-0.000062	-0.712577	-9.468028	176.810596
40038	2.181522	-0.178852	12.932979	-0.021851	0.020023	3.304176	1.000000	0.000010	0.000047	-0.000073	-0.709855	-9.474400	176.807826
40039	2.178984	-0.144637	12.940377	-0.020680	-0.014387	3.310636	1.000000	0.000002	0.000061	-0.000067	-0.710303	-9.471122	176.800771
40040	2.188579	-0.139374	12.919200	-0.033864	-0.020440	3.291261	1.000000	0.000005	0.000028	-0.000058	-0.718287	-9.473628	176.786422
40041	2.160770	-0.126068	12.936785	-0.004563	-0.035837	3.303864	1.000000	-0.000004	0.000050	-0.000060	-0.719663	-9.471605	176.780207
40042	2.187388	-0.172687	12.912446	-0.030025	0.012849	3.284819	1.000000	-0.000008	0.000057	-0.000086	-0.718465	-9.480115	176.778079
40043	2.147321	-0.130725	12.958610	0.014033	-0.032619	3.323233	1.000000	-0.000011	0.000047	-0.000062	-0.720568	-9.478525	176.771636
40044	2.183587	-0.138636	12.920052	-0.026843	-0.023263	3.291272	1.000000	0.000005	0.000054	-0.000066	-0.725735	-9.481590	176.761199
40045	2.182440	-0.138234	12.920250	-0.025999	-0.023801	3.291273	1.000000	0.000004	0.000036	-0.000067	-0.726192	-9.481342	176.754261
40046	2.170614	-0.142871	12.941804	-0.009896	-0.020692	3.310640	1.000000	-0.000007	0.000049	-0.000078	-0.728266	-9.483649	176.746951
40047	2.169479	-0.142758	12.941995	-0.009036	-0.021238	3.310640	1.000000	-0.000008	0.000040	-0.000061	-0.730170	-9.483028	176.740639
40048	2.184374	-0.160442	12.946167	-0.021126	-0.002486	3.317432	1.000000	0.000005	0.000054	-0.000066	-0.727582	-9.485930	176.738104
40049	2.177607	-0.137306	12.921076	-0.020481	-0.025568	3.291280	1.000000	-0.000008	0.000057	-0.000087	-0.728975	-9.483414	176.728819
40050	2.165660	-0.141902	12.942644	-0.002489	-0.023001	3.310640	1.000000	0.000006	0.000037	-0.000075	-0.731622	-9.495489	176.724185
40051	2.187266	-0.165498	12.892951	-0.030716	0.002701	3.265491	1.000000	-0.000004	0.000050	-0.000060	-0.733111	-9.493890	176.718013
40052	2.163385	-0.141431	12.943030	0.000279	-0.025498	3.310636	1.000000	-0.000006	0.000041	-0.000069	-0.740650	-9.497987	176.705984
40053	2.173058	-0.136276	12.921852	-0.013186	-0.029901	3.291280	1.000000	0.000001	0.000044	-0.000067	-0.741556	-9.497209	176.699010
40054	2.198754	-0.149105	12.904667	-0.040261	-0.015685	3.278735	1.000000	-0.000011	0.000047	-0.000062	-0.744154	-9.498345	176.691485
40055	2.172062	-0.169926	12.915069	-0.011202	0.002777	3.284855	1.000000	-0.000015	0.000037	-0.000063	-0.746944	-9.498306	176.685004
40056	2.185747	-0.153841	12.926410	-0.022796	-0.013807	3.298092	1.000000	0.000009	0.000056	-0.000082	-0.749907	-9.501901	176.673895
40057	2.168458	-0.135409	12.922634	-0.007735	-0.033106	3.291276	1.000000	0.000006	0.000037	-0.000075	-0.750217	-9.501939	176.666113
40058	2.182292	-0.119494	12.933949	-0.019053	-0.048172	3.304516	1.000000	-0.000021	0.000043	-0.000048	-0.750368	-9.507739	176.669284
40059	2.182380	-0.153333	12.926985	-0.018489	-0.014840	3.298097	1.000000	-0.000007	0.000049	-0.000078	-0.752011	-9.506502	176.661087
40060	2.154227	-0.140165	12.944571	0.012356	-0.030673	3.310619	1.000000	-0.000002	0.000051	-0.000068	-0.754562	-9.511127	176.653389
40061	2.183994	-0.141967	12.959907	-0.014567	-0.027795	3.330683	1.000000	-0.000001	0.000043	-0.000059	-0.755919	-9.510626	176.647373
40062	2.178808	-0.152609	12.927596	-0.013477	-0.017269	3.298101	1.000000	0.000001	0.000044	-0.000067	-0.757964	-9.513575	176.639803
40063	2.177865	-0.152425	12.927757	-0.012512	-0.017876	3.298101	1.000000	-0.000010	0.000031	-0.000070	-0.760172	-9.514512	176.632520
40064	2.164666	-0.123460	12.956463	0.003106	-0.048069	3.323850	1.000000	-0.000003	0.000059	-0.000077	-0.759171	-9.511425	176.623248
40065	2.159244	-0.134008	12.924192	0.003404	-0.037267	3.291267	1.000000	0.000008	0.000047	-0.000065	-0.759433	-9.510527	176.616533
40066	2.188971	-0.135705	12.939549	-0.022466	-0.033951	3.311347	1.000000	-0.000004	0.000050	-0.000060	-0.758853	-9.513656	176.613368
40067	2.158109	-0.167155	12.917444	0.005978	-0.004099	3.284858	1.000000	0.000003	0.000045	-0.000075	-0.759486	-9.513026	176.605501
40068	2.175798	-0.140085	12.961305	-0.005000	-0.030589	3.330684	1.000000	-0.000007	0.000049	-0.000078	-0.757532	-9.516592	176.602842
40069	2.170554	-0.150726	12.929007	-0.004699	-0.019777	3.298103	1.000000	0.000003	0.000045	-0.000075	-0.758140	-9.516011	176.594966
40070	2.184143	-0.134486	12.940377	-0.016296	-0.035609	3.311351	1.000000	0.000000	0.000052	-0.000076	-0.758773	-9.519693	176.589889
40071	2.157506	-0.155124	12.950737	0.012844	-0.017162	3.317431	1.000000	-0.000010	0.000031	-0.000070	-0.760950	-9.520750	176.582594
40072	2.167131	-0.149770	12.929592	0.000521	-0.020855	3.298102	1.000000	0.000019	0.000059	-0.000062	-0.756471	-9.523181	176.582310
40073	2.180539	-0.133678	12.940993	-0.012197	-0.036687	3.311353	1.000000	-0.000025	0.000050	-0.000075	-0.760292	-9.522084	176.574507
40074	2.164503	-0.149481	12.930036	0.003791	-0.022128	3.298100	1.000000	0.000008	0.000047	-0.000065	-0.760537	-9.526956	176.569704
40075	2.178216	-0.133323	12.941388	-0.008910	-0.037968	3.311352	1.000000	-0.000011	0.000039	-0.000079	-0.762645	-9.527195	176.561386
40076	2.193317	-0.150994	12.945574	-0.021882	-0.019858	3.318210	1.000000	0.000001	0.000044	-0.000067	-0.763500	-9.527493	176.552807
40077	2.175999	-0.132975	12.941765	-0.006731	-0.039155	3.311350	1.000000	-0.000011	0.000048	-0.000062	-0.765921	-9.526747	176.546480
40078	2.174729	-0.132812	12.941980	-0.005395	-0.040362	3.311347	1.000000	0.000000	0.000052	-0.000076	-0.769469	-9.527062	176.533602
40079	2.158899	-0.148555	12.930983	0.009343	-0.025742	3.298090	1.000000	-0.000012	0.000030	-0.000063	-0.772068	-9.528330	176.527255
40080	2.184710	-0.161328	12.913854	-0.017326	-0.011093	3.285640	1.000000	-0.000003	0.000059	-0.000077	-0.771387	-9.530002	176.522380
40081	2.171194	-0.132176	12.942580	-0.001446	-0.041825	3.311343	1.000000	0.000008	0.000047	-0.000065	-0.771680	-9.529418	176.515677
40082	2.166040	-0.142946	12.910269	-0.000339	-0.032238	3.278766	1.000000	-0.000017	0.000045	-0.000064	-0.780164	-9.532935	176.504127
40083	2.195752	-0.144815	12.925672	-0.027138	-0.029426	3.298899	1.000000	0.000000	0.000052	-0.000076	-0.781214	-9.531788	176.496206
40084	2.163544	-0.142706	12.910690	0.002154	-0.033269	3.278763	1.000000	-0.000011	0.000048	-0.000062	-0.782591	-9.532922	176.490306
40085	2.177056	-0.126682	12.922084	-0.010513	-0.049148	3.292020	1.000000	-0.000002	0.000051	-0.000068	-0.784016	-9.531878	176.483316
40086	2.181142	-0.149294	12.947651	-0.008122	-0.026434	3.318214	1.000000	-0.000004	0.000050	-0.000060	-0.781714	-9.535192	176.482675
40087	2.190510	-0.144059	12.926570	-0.021519	-0.030875	3.298906	1.000000	0.000002	0.000061	-0.000067	-0.782676	-9.533020	176.475805
40088	2.147640	-0.146750	12.932879	0.022593	-0.030634	3.298064	1.000000	0.000005	0.000028	-0.000058	-0.781078	-9.537944	176.473479
40089	2.172173	-0.125508	12.922917	-0.004499	-0.050320	3.292019	1.000000	0.000000	0.000052	-0.000076	-0.782100	-9.536884	176.465548
40090	2.186858	-0.143163	12.927198	-0.017878	-0.033016	3.298906	1.000000	-0.000009	0.000065	-0.000061	-0.787935	-9.533165	176.452165
40091	2.185459	-0.142949	12.927437	-0.016822	-0.033659	3.298906	1.000000	0.000003	0.000045	-0.000075	-0.788701	-9.532940	176.444346
40092	2.184336	-0.142588	12.927631	-0.015797	-0.034018	3.298906	1.000000	0.000001	0.000044	-0.000067	-0.788596	-9.532590	176.435700
40093	2.157668	-0.163134	12.937948	0.013412	-0.015612	3.304943	1.000000	0.000003	0.000045	-0.000075	-0.789367	-9.532356	176.427882
40094	2.171189	-0.146891	12.949351	0.000119	-0.031203	3.318206	1.000000	-0.000002	0.000051	-0.000068	-0.789666	-9.528421	176.417152
40095	2.165964	-0.157618	12.917057	0.000400	-0.020400	3.285640	1.000000	-0.000004	0.000050	-0.000060	-0.791491	-9.527483	176.411099
40096	2.210435	-0.143389	12.943693	-0.039618	-0.032633	3.319073	1.000000	-0.000001	0.000043	-0.000059	-0.791882	-9.529282	176.405546
40097	2.168959	-0.179949	12.942816	0.003282	0.001019	3.311841	1.000000	0.000000	0.000052	-0.000076	-0.792972	-9.528187	176.397637
40098	2.166449	-0.146057	12.950155	0.005568	-0.033571	3.318199	1.000000	-0.000012	0.000030	-0.000063	-0.795505	-9.533146	176.390727
40099	2.190844	-0.125016	12.940238	-0.021535	-0.053272	3.312170	1.000000	-0.000003	0.000059	-0.000077	-0.796920	-9.531231	176.382730
40100	2.159983	-0.156583	12.918071	0.006859	-0.022216	3.285636	1.000000	0.000000	0.000052	-0.000076	-0.792682	-9.529648	176.377452
40101	2.173507	-0.140368	12.929480	-0.005777	-0.038112	3.298903	1.000000	-0.000004	0.000042	-0.000077	-0.794191	-9.529728	176.369406
40102	2.187130	-0.124155	12.940874	-0.017883	-0.054120	3.312172	1.000000	0.000001	0.000044	-0.000067	-0.795685	-9.531928	176.362386
40103	2.125547	-0.153802	12.903414	0.038342	-0.027683	3.265442	1.000000	0.000005	0.000054	-0.000066	-0.796399	-9.530635	176.355628
40104	2.182239	-0.168055	12.901626	-0.017065	-0.009481	3.273258	1.000000	0.000003	0.000045	-0.000075	-0.794790	-9.529964	176.348584
40105	2.168685	-0.138952	12.930305	-0.001096	-0.040266	3.298898	1.000000	0.000000	0.000052	-0.000076	-0.795872	-9.528903	176.340671
40106	2.178272	-0.133865	12.909208	-0.013673	-0.044257	3.279612	1.000000	-0.000017	0.000045	-0.000064	-0.796944	-9.532254	176.337811
40107	2.166266	-0.138921	12.930711	0.001873	-0.041107	3.298895	1.000000	-0.000009	0.000048	-0.000070	-0.799135	-9.531639	176.330601
40108	2.181216	-0.156550	12.934979	-0.010773	-0.022568	3.305821	1.000000	-0.000002	0.000051	-0.000068	-0.798209	-9.532336	176.325346
40109	2.158294	-0.115709	12.905790	0.004042	-0.064359	3.272681	1.000000	-0.000002	0.000051	-0.000068	-0.799648	-9.531413	176.318356
40110	2.193330	-0.140184	12.946638	-0.021431	-0.037819	3.319102	1.000000	-0.000009	0.000048	-0.000070	-0.795792	-9.534273	176.318808
40111	2.176133	-0.122415	12.942744	-0.006235	-0.057130	3.312170	1.000000	-0.000017	0.000028	-0.000073	-0.798809	-9.536037	176.311322
40112	2.175017	-0.122343	12.942933	-0.005284	-0.058120	3.312166	1.000000	-0.000003	0.000059	-0.000077	-0.801770	-9.533780	176.298384
40113	2.185997	-0.150848	12.914709	-0.019151	-0.028622	3.286544	1.000000	-0.000004	0.000050	-0.000060	-0.803569	-9.532970	176.292318
40114	2.159260	-0.171505	12.924991	0.009905	-0.009616	3.292541	1.000000	0.000008	0.000047	-0.000065	-0.801367	-9.531642	176.284287
40115	2.172676	-0.155136	12.936433	-0.002689	-0.025521	3.305820	1.000000	0.000000	0.000052	-0.000076	-0.802419	-9.530640	176.276361
40116	2.171362	-0.154847	12.936657	-0.000492	-0.026034	3.305819	1.000000	-0.000002	0.000051	-0.000068	-0.802952	-9.534641	176.272624
40117	2.159281	-0.159507	12.958164	0.015090	-0.022886	3.325090	1.000000	0.000008	0.000047	-0.000065	-0.803325	-9.534295	176.265947
40118	2.183624	-0.138110	12.948300	-0.010785	-0.042447	3.319101	1.000000	0.000001	0.000044	-0.000067	-0.803466	-9.539501	176.261925
40119	2.167624	-0.153748	12.937297	0.003963	-0.027826	3.305815	1.000000	0.000002	0.000061	-0.000067	-0.804462	-9.537514	176.255060
40120	2.177302	-0.148274	12.916207	-0.009298	-0.032082	3.286546	1.000000	0.000009	0.000030	-0.000074	-0.803749	-9.539760	176.247667
40121	2.190936	-0.132190	12.927616	-0.021859	-0.047999	3.299831	1.000000	-0.000025	0.000050	-0.000075	-0.807731	-9.539074	176.239910
40122	2.178840	-0.137059	12.949118	-0.006396	-0.044385	3.319097	1.000000	0.000012	0.000048	-0.000081	-0.805326	-9.537854	176.231702
40123	2.173856	-0.147474	12.916797	-0.006164	-0.033553	3.286545	1.000000	0.000003	0.000045	-0.000075	-0.806079	-9.537792	176.223874
40124	2.161935	-0.152278	12.938267	0.009341	-0.030204	3.305807	1.000000	-0.000008	0.000040	-0.000061	-0.807443	-9.537734	176.215614
40125	2.202411	-0.148888	12.932515	-0.031842	-0.031247	3.306792	1.000000	-0.000005	0.000059	-0.000069	-0.809193	-9.536067	176.208528
40126	2.163166	-0.141010	12.971224	0.024992	-0.003730	3.338403	1.000000	-0.000001	0.000043	-0.000059	-0.635379	-9.579686	177.680656
40127	2.185346	-0.164302	12.921691	-0.004020	0.021426	3.293508	1.000000	0.000008	0.000047	-0.000065	-0.634294	-9.579739	177.681138
40128	2.160878	-0.140538	12.971610	0.027112	-0.003489	3.338399	1.000000	-0.000022	0.000043	-0.000074	-0.632884	-9.578785	177.662575
40129	2.183028	-0.164230	12.922084	-0.001907	0.021667	3.293508	1.000000	-0.000004	0.000050	-0.000060	-0.633226	-9.578408	177.663669
40130	2.180149	-0.130169	12.929460	0.000910	-0.012838	3.299931	1.000000	0.000008	0.000047	-0.000065	-0.633486	-9.579578	177.672485
40131	2.164225	-0.145915	12.918432	0.015334	0.002462	3.286580	1.000000	-0.000012	0.000056	-0.000071	-0.634511	-9.578589	177.672332
40132	2.189975	-0.158433	12.901476	-0.012568	0.016118	3.274282	1.000000	0.000000	0.000052	-0.000076	-0.634663	-9.577734	177.676016
40133	2.161536	-0.145458	12.918887	0.017671	0.001759	3.286577	1.000000	-0.000002	0.000051	-0.000068	-0.634634	-9.577265	177.676179
40134	2.194885	-0.136040	12.966982	-0.007961	-0.006919	3.339443	1.000000	-0.000007	0.000049	-0.000078	-0.633774	-9.575834	177.670317
40135	2.171428	-0.173519	12.890899	0.003980	0.031118	3.260931	1.000000	0.000014	0.000058	-0.000072	-0.631883	-9.574627	177.670000
40136	2.188704	-0.146375	12.934870	-0.007259	0.003566	3.306865	1.000000	-0.000020	0.000026	-0.000057	-0.635574	-9.574959	177.680376
40137	2.171476	-0.128460	12.930936	0.008557	-0.015017	3.299926	1.000000	0.000012	0.000048	-0.000081	-0.633745	-9.574827	177.678997
40138	2.175566	-0.150914	12.956531	0.009320	0.007056	3.326089	1.000000	-0.000012	0.000056	-0.000071	-0.635547	-9.572665	177.684871
40139	2.168885	-0.128008	12.931376	0.010701	-0.015764	3.299923	1.000000	-0.000001	0.000043	-0.000059	-0.635578	-9.573129	177.686054
40140	2.167740	-0.127648	12.931571	0.012510	-0.016002	3.299921	1.000000	0.000008	0.000047	-0.000066	-0.634146	-9.575788	177.685809
40141	2.182946	-0.145133	12.935857	-0.000900	0.001984	3.306867	1.000000	-0.000013	0.000038	-0.000071	-0.635293	-9.576807	177.685612
40142	2.167359	-0.161081	12.924761	0.013257	0.017731	3.293508	1.000000	-0.000006	0.000041	-0.000069	-0.633864	-9.576434	177.675580
40143	2.179216	-0.111266	12.943362	0.002731	-0.032075	3.313278	1.000000	-0.000013	0.000038	-0.000071	-0.635011	-9.577453	177.675382
40144	2.181408	-0.178606	12.929245	0.000988	0.035526	3.300457	1.000000	-0.000003	0.000060	-0.000077	-0.634471	-9.575786	177.673011
40145	2.178475	-0.144591	12.936617	0.003644	0.001337	3.306867	1.000000	0.000002	0.000036	-0.000059	-0.634192	-9.577092	177.674285
40146	2.162717	-0.160129	12.925550	0.017974	0.016328	3.293504	1.000000	0.000014	0.000058	-0.000072	-0.633832	-9.575773	177.684743
40147	2.203278	-0.156290	12.919875	-0.023063	0.014414	3.294612	1.000000	0.000000	0.000035	-0.000051	-0.633925	-9.577170	177.686947
40148	2.175008	-0.143425	12.937213	0.006607	-0.000169	3.306866	1.000000	-0.000002	0.000051	-0.000068	-0.635267	-9.574046	177.697119
40149	2.173832	-0.143226	12.937413	0.007814	-0.000461	3.306865	1.000000	-0.000006	0.000041	-0.000069	-0.635670	-9.574740	177.697144
40150	2.179856	-0.148900	12.883818	-0.006810	0.005750	3.255083	1.000000	-0.000002	0.000051	-0.000068	-0.638333	-9.574073	177.716774
40151	2.182463	-0.137754	12.916537	-0.004293	-0.005918	3.287656	1.000000	-0.000005	0.000033	-0.000061	-0.638797	-9.575702	177.717822
40152	2.166740	-0.153589	12.905457	0.010063	0.009283	3.274291	1.000000	-0.000003	0.000060	-0.000077	-0.639392	-9.574391	177.724080
40153	2.183550	-0.126387	12.949514	-0.000538	-0.018037	3.320228	1.000000	-0.000004	0.000050	-0.000060	-0.639735	-9.574009	177.725166
40154	2.167697	-0.142177	12.938454	0.013396	-0.003000	3.306860	1.000000	0.000000	0.000052	-0.000076	-0.640851	-9.571740	177.737112
40155	2.193684	-0.154495	12.921530	-0.014513	0.010663	3.294628	1.000000	-0.000001	0.000043	-0.000060	-0.640882	-9.572201	177.738291
40156	2.159885	-0.118965	12.913482	0.016423	-0.025616	3.280683	1.000000	-0.000009	0.000049	-0.000070	-0.639381	-9.573763	177.724578
40157	2.180391	-0.159301	12.943192	0.002770	0.014843	3.313831	1.000000	-0.000007	0.000049	-0.000078	-0.639721	-9.573521	177.723577
40158	2.179111	-0.159095	12.943410	0.004292	0.014407	3.313831	1.000000	-0.000002	0.000051	-0.000068	-0.640272	-9.574456	177.729702
40159	2.161563	-0.141378	12.939489	0.020163	-0.004113	3.306851	1.000000	-0.000017	0.000045	-0.000064	-0.642101	-9.574722	177.730334
40160	2.160211	-0.141251	12.939716	0.021237	-0.004809	3.306849	1.000000	0.000001	0.000061	-0.000093	-0.643114	-9.572608	177.743621
40161	2.200574	-0.137318	12.934131	-0.019789	-0.006847	3.308009	1.000000	0.000008	0.000047	-0.000066	-0.642029	-9.572651	177.744094
40162	2.168420	-0.135450	12.918927	0.008678	-0.009081	3.287652	1.000000	-0.000012	0.000056	-0.000071	-0.640470	-9.569333	177.726873
40163	2.178043	-0.180912	12.969893	0.009470	0.035651	3.340007	1.000000	-0.000003	0.000042	-0.000052	-0.640874	-9.569884	177.728979
40164	2.180475	-0.119072	12.930641	-0.001838	-0.025613	3.301026	1.000000	0.000000	0.000052	-0.000076	-0.641655	-9.570048	177.738675
40165	2.150249	-0.150909	12.908247	0.025541	0.005457	3.274272	1.000000	-0.000001	0.000043	-0.000060	-0.641686	-9.570507	177.739851
40166	2.165473	-0.168257	12.912575	0.012024	0.023768	3.281260	1.000000	0.000003	0.000045	-0.000076	-0.639243	-9.570526	177.727309
40167	2.182424	-0.141078	12.956616	0.001535	-0.003589	3.327205	1.000000	-0.000016	0.000046	-0.000072	-0.640698	-9.570699	177.727008
40168	2.177488	-0.151948	12.924299	0.001344	0.007847	3.294638	1.000000	-0.000003	0.000060	-0.000077	-0.639085	-9.569194	177.716170
40169	2.176086	-0.151735	12.924538	0.002549	0.007554	3.294638	1.000000	-0.000004	0.000050	-0.000060	-0.639428	-9.568809	177.717250
40170	2.158433	-0.133834	12.920616	0.018708	-0.011059	3.287640	1.000000	0.000000	0.000052	-0.000076	-0.639492	-9.569439	177.721225
40171	2.199007	-0.129856	12.915036	-0.022317	-0.013139	3.288838	1.000000	0.000011	0.000039	-0.000065	-0.638094	-9.570322	177.721790
40172	2.161565	-0.155798	12.946392	0.020863	0.010734	3.313818	1.000000	-0.000004	0.000050	-0.000060	-0.639049	-9.569756	177.729227
40173	2.171176	-0.150477	12.925378	0.007591	0.006136	3.294637	1.000000	-0.000002	0.000051	-0.000068	-0.639019	-9.569278	177.729376
40174	2.173518	-0.139192	12.958133	0.010760	-0.005615	3.327200	1.000000	0.000003	0.000045	-0.000076	-0.638531	-9.571916	177.731678
40175	2.168753	-0.149624	12.925795	0.010541	0.005482	3.294635	1.000000	0.000015	0.000050	-0.000064	-0.636702	-9.571631	177.732373
40176	2.165687	-0.115703	12.933157	0.013561	-0.028433	3.301013	1.000000	-0.000022	0.000043	-0.000074	-0.637673	-9.572817	177.723124
40177	2.180904	-0.133226	12.937505	0.000074	-0.010533	3.308022	1.000000	0.000008	0.000047	-0.000066	-0.636587	-9.572856	177.723593
40178	2.176168	-0.143945	12.905160	-0.000203	0.000658	3.275459	1.000000	-0.000014	0.000047	-0.000080	-0.637253	-9.572726	177.719932
40179	2.178572	-0.132867	12.937901	0.002447	-0.011023	3.308021	1.000000	-0.000001	0.000043	-0.000060	-0.637283	-9.573182	177.721104
40180	2.152125	-0.153892	12.947987	0.031044	0.008984	3.313800	1.000000	-0.000006	0.000041	-0.000070	-0.636474	-9.573217	177.711583
40181	2.192821	-0.150151	12.942422	-0.009977	0.006855	3.315037	1.000000	-0.000006	0.000041	-0.000070	-0.636873	-9.573905	177.711597
40182	2.175309	-0.132406	12.938455	0.005698	-0.011537	3.308020	1.000000	-0.000009	0.000049	-0.000070	-0.637250	-9.572708	177.709864
40183	2.201293	-0.144649	12.921618	-0.022290	0.002031	3.295872	1.000000	0.000005	0.000054	-0.000066	-0.636477	-9.571902	177.710236
40184	2.183678	-0.126699	12.917668	-0.006406	-0.016100	3.288853	1.000000	-0.000001	0.000043	-0.000060	-0.634998	-9.572187	177.699001
40185	2.157269	-0.147494	12.927741	0.022324	0.003640	3.294621	1.000000	0.000010	0.000039	-0.000091	-0.633219	-9.573113	177.696545
40186	2.181585	-0.126106	12.918027	-0.003681	-0.016889	3.288853	1.000000	-0.000021	0.000043	-0.000048	-0.636633	-9.574940	177.707256
40187	2.174840	-0.154123	12.964848	0.011811	0.009643	3.334203	1.000000	-0.000010	0.000057	-0.000079	-0.637283	-9.573848	177.706149
40188	2.153670	-0.147267	12.928343	0.026398	0.002676	3.294614	1.000000	0.000001	0.000044	-0.000068	-0.636454	-9.574846	177.703273
40189	2.179771	-0.159455	12.911504	-0.001610	0.016227	3.282483	1.000000	-0.000002	0.000051	-0.000068	-0.636423	-9.574364	177.703417
40190	2.181958	-0.148242	12.944280	0.001001	0.004480	3.315042	1.000000	-0.000002	0.000051	-0.000068	-0.636675	-9.573522	177.706448
40191	2.164295	-0.130182	12.940324	0.016927	-0.013977	3.308007	1.000000	0.000012	0.000049	-0.000082	-0.634841	-9.573370	177.705052
40192	2.181446	-0.181222	12.937544	0.001627	0.037689	3.308676	1.000000	-0.000013	0.000047	-0.000054	-0.636737	-9.573132	177.711768
40193	2.172817	-0.124554	12.919520	0.004777	-0.018989	3.288849	1.000000	0.000008	0.000047	-0.000066	-0.635650	-9.573165	177.712232
40194	2.177135	-0.146901	12.945107	0.005769	0.003365	3.315041	1.000000	-0.000002	0.000043	-0.000086	-0.634623	-9.573656	177.704476
40195	2.170580	-0.123874	12.919903	0.007196	-0.019421	3.288848	1.000000	-0.000001	0.000043	-0.000060	-0.634653	-9.574109	177.705643
40196	2.171371	-0.157349	12.912945	0.006737	0.013935	3.282484	1.000000	-0.000002	0.000051	-0.000068	-0.635693	-9.574000	177.716730
40197	2.173551	-0.146176	12.945718	0.009468	0.002246	3.315039	1.000000	-0.000007	0.000049	-0.000078	-0.636030	-9.573749	177.715714
40198	2.183197	-0.140770	12.924731	-0.003903	-0.002488	3.295890	1.000000	0.000000	0.000052	-0.000076	-0.636059	-9.572885	177.720188
40199	2.181914	-0.140562	12.924950	-0.002696	-0.002780	3.295890	1.000000	-0.000009	0.000049	-0.000070	-0.636770	-9.572727	177.720101
40200	2.171875	-0.179362	12.939180	0.011009	0.034901	3.308679	1.000000	-0.000011	0.000039	-0.000080	-0.638762	-9.572670	177.731943
40201	2.163295	-0.122624	12.921136	0.014230	-0.021768	3.288838	1.000000	0.000008	0.000047	-0.000066	-0.637675	-9.572701	177.732406
40202	2.184175	-0.162639	12.950892	0.000379	0.018456	3.322088	1.000000	-0.000008	0.000032	-0.000079	-0.638610	-9.574157	177.737655
40203	2.177603	-0.139860	12.925684	0.001824	-0.004324	3.295890	1.000000	-0.000014	0.000055	-0.000063	-0.640009	-9.573249	177.738402
40204	2.176245	-0.139773	12.925914	0.002520	-0.004519	3.295890	1.000000	-0.000002	0.000051	-0.000068	-0.639639	-9.570516	177.735499
40205	2.164154	-0.144827	12.947307	0.018242	-0.000449	3.315030	1.000000	-0.000013	0.000038	-0.000072	-0.640777	-9.571526	177.735277
40206	2.173962	-0.139540	12.926301	0.005132	-0.005048	3.295889	1.000000	-0.000002	0.000051	-0.000068	-0.640470	-9.571896	177.734136
40207	2.189159	-0.157072	12.930704	-0.008419	0.012781	3.302951	1.000000	-0.000017	0.000045	-0.000064	-0.642297	-9.572157	177.734748
40208	2.146278	-0.160706	12.936533	0.034805	0.014465	3.301610	1.000000	0.000003	0.000045	-0.000076	-0.641803	-9.571566	177.737272
40209	2.186853	-0.156507	12.931101	-0.006207	0.012151	3.302953	1.000000	0.000008	0.000047	-0.000066	-0.640717	-9.571595	177.737732
40210	2.188923	-0.145203	12.963891	-0.003223	0.000516	3.335503	1.000000	-0.000008	0.000058	-0.000087	-0.640681	-9.571218	177.733811
40211	2.184215	-0.155923	12.931554	-0.003607	0.011628	3.302954	1.000000	0.000004	0.000045	-0.000050	-0.640345	-9.571434	177.736132
40212	2.183107	-0.155645	12.931745	-0.002467	0.011535	3.302954	1.000000	-0.000004	0.000042	-0.000078	-0.639496	-9.571698	177.726656
40213	2.182025	-0.155408	12.931930	-0.001261	0.011242	3.302955	1.000000	-0.000001	0.000043	-0.000060	-0.639526	-9.572147	177.727817
40214	2.180810	-0.155124	12.932138	-0.000305	0.010972	3.302955	1.000000	0.000000	0.000052	-0.000076	-0.639066	-9.570471	177.726457
40215	2.163125	-0.137448	12.928141	0.015671	-0.007426	3.295880	1.000000	-0.000016	0.000046	-0.000072	-0.640517	-9.570638	177.726136
40216	2.176376	-0.121054	12.939699	0.003822	-0.023424	3.309299	1.000000	0.000011	0.000040	-0.000065	-0.638802	-9.570876	177.723880
40217	2.188280	-0.149129	12.911550	-0.011359	0.005793	3.283830	1.000000	0.000000	0.000052	-0.000076	-0.638396	-9.570293	177.723084
40218	2.192383	-0.171692	12.937184	-0.010367	0.027875	3.310036	1.000000	-0.000012	0.000056	-0.000071	-0.639871	-9.569468	177.728753
40219	2.189027	-0.137900	12.944559	-0.007286	-0.006307	3.316378	1.000000	-0.000006	0.000041	-0.000070	-0.640267	-9.570148	177.728754
40220	2.187835	-0.137656	12.944763	-0.006212	-0.006622	3.316379	1.000000	0.000000	0.000052	-0.000076	-0.639977	-9.568979	177.730037
40221	2.141458	-0.152249	12.918000	0.035572	0.006588	3.282443	1.000000	-0.000009	0.000049	-0.000070	-0.640687	-9.568817	177.729941
40222	2.201821	-0.154781	12.949403	-0.018276	0.011042	3.323468	1.000000	0.000001	0.000044	-0.000068	-0.639582	-9.570457	177.721874
40223	2.180761	-0.147809	12.912837	-0.003930	0.004070	3.283835	1.000000	0.000007	0.000055	-0.000074	-0.638436	-9.569545	177.721303
40224	2.179537	-0.147769	12.913044	-0.002622	0.003682	3.283835	1.000000	-0.000026	0.000041	-0.000058	-0.641780	-9.570695	177.728016
40225	2.181675	-0.136595	12.945814	0.000239	-0.008022	3.316379	1.000000	0.000021	0.000053	-0.000062	-0.639212	-9.570064	177.728928
40226	2.155320	-0.157497	12.955788	0.028975	0.011970	3.322064	1.000000	-0.000008	0.000032	-0.000079	-0.639259	-9.572278	177.723860
40227	2.179501	-0.135834	12.946188	0.002766	-0.008522	3.316379	1.000000	0.000005	0.000054	-0.000066	-0.638487	-9.571459	177.724219
40228	2.174833	-0.146478	12.913852	0.002220	0.002590	3.283835	1.000000	-0.000002	0.000051	-0.000068	-0.638514	-9.570597	177.725074
40229	2.190029	-0.163833	12.918298	-0.011372	0.020372	3.290936	1.000000	-0.000009	0.000049	-0.000070	-0.639224	-9.570434	177.724975
40230	2.161402	-0.151324	12.935441	0.019090	0.006294	3.302944	1.000000	0.000001	0.000044	-0.000068	-0.639400	-9.570440	177.731642
40231	2.171158	-0.145787	12.914478	0.005752	0.001601	3.283835	1.000000	0.000000	0.000052	-0.000076	-0.638993	-9.569854	177.730840
40232	2.180928	-0.140290	12.893514	-0.007566	-0.003180	3.264727	1.000000	-0.000001	0.000043	-0.000060	-0.639396	-9.570412	177.737238
40233	2.168755	-0.145549	12.914884	0.008184	0.000935	3.283833	1.000000	-0.000025	0.000050	-0.000075	-0.641901	-9.570063	177.736584
40234	2.198205	-0.146860	12.930741	-0.018318	0.002942	3.304378	1.000000	0.000000	0.000052	-0.000076	-0.641232	-9.569249	177.733094
40235	2.166273	-0.145346	12.915303	0.010545	0.000415	3.283832	1.000000	-0.000008	0.000040	-0.000062	-0.642001	-9.570022	177.734020
40236	2.168480	-0.134177	12.948056	0.013443	-0.011405	3.316370	1.000000	0.000001	0.000044	-0.000068	-0.642163	-9.570320	177.741034
40237	2.163948	-0.144788	12.915699	0.012939	-0.000278	3.283830	1.000000	0.000005	0.000054	-0.000066	-0.641391	-9.569498	177.741390
40238	2.193434	-0.145677	12.931565	-0.013213	0.001679	3.304384	1.000000	0.000003	0.000045	-0.000076	-0.640481	-9.571034	177.739312
40239	2.161327	-0.144008	12.916147	0.015644	-0.000827	3.283827	1.000000	0.000002	0.000062	-0.000067	-0.640025	-9.569369	177.739571
40240	2.179741	-0.150236	12.953192	0.003873	0.005511	3.323483	1.000000	-0.000001	0.000043	-0.000060	-0.640034	-9.570322	177.740885
40241	2.186263	-0.155703	12.899667	-0.011208	0.012218	3.271850	1.000000	0.000000	0.000052	-0.000077	-0.639626	-9.569733	177.740080
40242	2.188328	-0.144479	12.932443	-0.008304	0.000470	3.304388	1.000000	-0.000006	0.000041	-0.000070	-0.640178	-9.570260	177.742461
40243	2.161914	-0.165763	12.942388	0.020277	0.020447	3.310038	1.000000	-0.000004	0.000051	-0.000061	-0.640523	-9.569861	177.743517
40244	2.185883	-0.144153	12.932861	-0.005704	-0.000404	3.304390	1.000000	-0.000007	0.000050	-0.000079	-0.642089	-9.570456	177.759648
40245	2.184597	-0.143944	12.933080	-0.004497	-0.000696	3.304390	1.000000	-0.000002	0.000052	-0.000069	-0.642057	-9.569961	177.759772
40246	2.183353	-0.143618	12.933294	-0.003347	-0.000835	3.304391	1.000000	0.000006	0.000046	-0.000058	-0.640680	-9.569799	177.752500
40247	2.148192	-0.152852	12.885250	0.023735	0.008123	3.251276	1.000000	0.000010	0.000048	-0.000074	-0.639216	-9.569722	177.752018
40248	2.180997	-0.142726	12.933701	-0.000989	-0.001457	3.304391	1.000000	-0.000001	0.000043	-0.000060	-0.639420	-9.569921	177.755268
40249	2.196287	-0.159916	12.938170	-0.014624	0.016274	3.311528	1.000000	0.000000	0.000052	-0.000077	-0.639012	-9.569330	177.754459
40250	2.178397	-0.142269	12.934145	0.001376	-0.001904	3.304391	1.000000	-0.000012	0.000056	-0.000071	-0.639439	-9.568081	177.745111
40251	2.166217	-0.147355	12.955494	0.017151	0.002242	3.323474	1.000000	0.000002	0.000036	-0.000059	-0.639151	-9.569365	177.746357
40252	2.192666	-0.159385	12.938791	-0.011027	0.015497	3.311532	1.000000	-0.000009	0.000049	-0.000071	-0.640006	-9.569321	177.748661
40253	2.186009	-0.136509	12.913574	-0.009543	-0.007253	3.285309	1.000000	-0.000004	0.000042	-0.000078	-0.640021	-9.569900	177.747718
40254	2.188051	-0.125364	12.946348	-0.006484	-0.018938	3.317842	1.000000	-0.000009	0.000049	-0.000071	-0.640569	-9.569990	177.745174
40255	2.169401	-0.152457	12.902552	0.005704	0.008066	3.271857	1.000000	-0.000007	0.000050	-0.000079	-0.640900	-9.569726	177.744134
40256	2.185469	-0.124947	12.946788	-0.004028	-0.019528	3.317842	1.000000	0.000005	0.000054	-0.000067	-0.640141	-9.569046	177.744807
40257	2.183270	-0.169336	12.907278	-0.006711	0.025489	3.279007	1.000000	-0.000004	0.000051	-0.000061	-0.640485	-9.568644	177.745858
40258	2.165532	-0.151884	12.903209	0.009246	0.007255	3.271856	1.000000	-0.000017	0.000045	-0.000065	-0.642042	-9.568448	177.742611
40259	2.178480	-0.135806	12.914854	-0.002312	-0.008913	3.285312	1.000000	-0.000018	0.000053	-0.000073	-0.643806	-9.567766	177.742173
40260	2.166246	-0.141025	12.936199	0.013396	-0.004869	3.304383	1.000000	-0.000004	0.000042	-0.000078	-0.644352	-9.568028	177.749148
40261	2.179313	-0.124704	12.947828	0.001851	-0.021043	3.317840	1.000000	-0.000016	0.000046	-0.000073	-0.645799	-9.568189	177.748807
40262	2.174996	-0.135527	12.915444	0.001153	-0.009961	3.285311	1.000000	0.000003	0.000045	-0.000076	-0.645335	-9.568095	177.752361
40263	2.162722	-0.140670	12.936792	0.016939	-0.005793	3.304379	1.000000	-0.000018	0.000053	-0.000073	-0.647098	-9.567413	177.751921
40264	2.158127	-0.151359	12.904456	0.016302	0.005362	3.271850	1.000000	0.000018	0.000060	-0.000063	-0.644790	-9.565901	177.753046
40265	2.201842	-0.135847	12.931833	-0.022841	-0.008726	3.305936	1.000000	-0.000008	0.000032	-0.000079	-0.645224	-9.567649	177.751966
40266	2.172388	-0.168278	12.909127	0.003961	0.022678	3.279013	1.000000	-0.000012	0.000056	-0.000071	-0.646635	-9.567216	177.758889
40267	2.185303	-0.151941	12.920789	-0.007565	0.006489	3.292477	1.000000	-0.000003	0.000042	-0.000052	-0.647040	-9.567749	177.760966
40268	2.184097	-0.151698	12.920996	-0.006330	0.006299	3.292477	1.000000	0.000000	0.000052	-0.000077	-0.646175	-9.567264	177.753378
40269	2.171779	-0.156766	12.942345	0.009462	0.010475	3.311538	1.000000	-0.000009	0.000049	-0.000071	-0.646882	-9.567093	177.753264
40270	2.195787	-0.135024	12.932871	-0.016659	-0.010157	3.305944	1.000000	0.000001	0.000044	-0.000068	-0.646396	-9.567344	177.751550
40271	2.163994	-0.133625	12.917312	0.012149	-0.012520	3.285303	1.000000	-0.000006	0.000041	-0.000070	-0.646785	-9.568015	177.751532
40272	2.168294	-0.156046	12.942938	0.012912	0.009502	3.311536	1.000000	0.000005	0.000054	-0.000067	-0.646641	-9.566559	177.761351
40273	2.192115	-0.134121	12.933504	-0.013179	-0.011176	3.305947	1.000000	-0.000000	0.000052	-0.000077	-0.646232	-9.565961	177.760533
40274	2.176780	-0.150146	12.922248	0.000769	0.004491	3.292480	1.000000	-0.000006	0.000041	-0.000070	-0.646408	-9.566775	177.757568
40275	2.164570	-0.155274	12.943571	0.016567	0.008679	3.311533	1.000000	-0.000004	0.000051	-0.000061	-0.646753	-9.566368	177.758613
40276	2.179857	-0.172524	12.948085	0.002790	0.026450	3.318716	1.000000	-0.000007	0.000050	-0.000079	-0.646658	-9.565680	177.750858
40277	2.184130	-0.144409	12.901754	-0.010303	-0.000764	3.273428	1.000000	-0.000009	0.000049	-0.000071	-0.647365	-9.565507	177.750740
40278	2.185987	-0.133382	12.934549	-0.007104	-0.012488	3.305951	1.000000	-0.000011	0.000048	-0.000063	-0.648407	-9.565824	177.751231
40279	2.184708	-0.133215	12.934766	-0.005895	-0.012781	3.305951	1.000000	-0.000000	0.000053	-0.000077	-0.647997	-9.565224	177.750411
40280	2.152795	-0.131807	12.919201	0.022983	-0.015166	3.285286	1.000000	-0.000001	0.000043	-0.000060	-0.648299	-9.566032	177.756814
40281	2.168176	-0.149256	12.923705	0.009288	0.002496	3.292477	1.000000	-0.000025	0.000050	-0.000075	-0.650800	-9.565679	177.756136
40282	2.172653	-0.171803	12.949305	0.010209	0.024762	3.318715	1.000000	0.000014	0.000032	-0.000064	-0.648548	-9.567412	177.748475
40283	2.180056	-0.132329	12.935560	-0.000962	-0.013896	3.305951	1.000000	-0.000001	0.000061	-0.000085	-0.648078	-9.565872	177.746624
40284	2.164420	-0.148357	12.924345	0.012904	0.001716	3.292474	1.000000	-0.000005	0.000059	-0.000069	-0.648490	-9.564465	177.749016
40285	2.152080	-0.153455	12.945675	0.028715	0.005921	3.311513	1.000000	-0.000004	0.000042	-0.000078	-0.648500	-9.565036	177.748061
40286	2.203691	-0.143742	12.919443	-0.026762	-0.001385	3.294113	1.000000	-0.000004	0.000051	-0.000061	-0.648961	-9.565085	177.752182
40287	2.174704	-0.131570	12.936469	0.003964	-0.015120	3.305949	1.000000	-0.000015	0.000055	-0.000089	-0.649967	-9.564206	177.749867
40288	2.170462	-0.142271	12.904084	0.003245	-0.003947	3.273431	1.000000	0.000011	0.000040	-0.000065	-0.648456	-9.565146	177.749183
40289	2.188912	-0.148220	12.941195	-0.008511	0.002255	3.313155	1.000000	-0.000000	0.000053	-0.000077	-0.648045	-9.564543	177.748359
40290	2.187862	-0.148065	12.941374	-0.007372	0.002025	3.313156	1.000000	-0.000012	0.000030	-0.000063	-0.648966	-9.566169	177.744443
40291	2.181193	-0.125295	12.916140	-0.005859	-0.020701	3.286913	1.000000	-0.000005	0.000059	-0.000069	-0.649251	-9.564820	177.744453
40292	2.182288	-0.158720	12.909218	-0.006800	0.012819	3.280642	1.000000	-0.000000	0.000053	-0.000077	-0.649099	-9.564781	177.749022
40293	2.183979	-0.147440	12.942037	-0.003623	0.001083	3.313158	1.000000	-0.000002	0.000052	-0.000069	-0.649066	-9.564273	177.749129
40294	2.179693	-0.158263	12.909662	-0.004421	0.012235	3.280643	1.000000	-0.000009	0.000049	-0.000071	-0.649775	-9.563980	177.749557
40295	2.181581	-0.147195	12.942444	-0.001234	0.000499	3.313158	1.000000	-0.000011	0.000039	-0.000080	-0.650521	-9.564880	177.748366
40296	2.163972	-0.129512	12.938289	0.014928	-0.017786	3.305938	1.000000	0.000011	0.000040	-0.000065	-0.649449	-9.565839	177.755673
40297	2.162795	-0.129067	12.938490	0.016137	-0.018075	3.305936	1.000000	-0.000000	0.000053	-0.000077	-0.649038	-9.565234	177.754846
40298	2.178161	-0.146349	12.943030	0.002511	-0.000457	3.313158	1.000000	-0.000017	0.000045	-0.000065	-0.650861	-9.565917	177.756806
40299	2.162769	-0.162622	12.931757	0.016336	0.015217	3.299668	1.000000	-0.000003	0.000060	-0.000077	-0.650769	-9.564470	177.755880
40300	2.186607	-0.140765	12.922379	-0.009679	-0.005588	3.294136	1.000000	-0.000006	0.000041	-0.000070	-0.651276	-9.565207	177.758958
40301	2.177022	-0.179578	12.936492	0.003818	0.032516	3.306895	1.000000	-0.000001	0.000043	-0.000060	-0.651302	-9.565637	177.760092
40302	2.164817	-0.133885	12.885825	0.005754	-0.012577	3.254395	1.000000	0.000003	0.000045	-0.000076	-0.650334	-9.566276	177.756068
40303	2.194335	-0.134792	12.901859	-0.020589	-0.010940	3.275120	1.000000	-0.000017	0.000045	-0.000065	-0.652154	-9.566528	177.756640
40304	2.167931	-0.156247	12.911667	0.007846	0.009325	3.280644	1.000000	0.000009	0.000056	-0.000083	-0.650375	-9.565493	177.751105
40305	2.197160	-0.156966	12.927758	-0.018494	0.010956	3.301374	1.000000	-0.000012	0.000056	-0.000071	-0.651398	-9.564473	177.750877
40306	2.148686	-0.138364	12.907770	0.025123	-0.009128	3.273405	1.000000	0.000006	0.000038	-0.000075	-0.650268	-9.565206	177.748899
40307	2.169735	-0.178072	12.937737	0.011059	0.030901	3.306894	1.000000	-0.000004	0.000051	-0.000061	-0.650613	-9.564792	177.749933
40308	2.162982	-0.155148	12.912510	0.012504	0.008037	3.280641	1.000000	0.000001	0.000044	-0.000068	-0.650959	-9.564816	177.762904
40309	2.159155	-0.121191	12.919882	0.016085	-0.026125	3.286894	1.000000	-0.000002	0.000052	-0.000069	-0.650925	-9.564305	177.763005
40310	2.177217	-0.172000	12.917266	-0.000057	0.025416	3.287884	1.000000	-0.000006	0.000041	-0.000070	-0.650980	-9.564900	177.757470
40311	2.162465	-0.143521	12.945693	0.018163	-0.004208	3.313145	1.000000	-0.000006	0.000041	-0.000070	-0.651364	-9.565562	177.757437
40312	2.172261	-0.137964	12.924828	0.004659	-0.009142	3.294136	1.000000	-0.000003	0.000060	-0.000077	-0.651754	-9.563785	177.765413
40313	2.157031	-0.154026	12.913519	0.018432	0.006564	3.280635	1.000000	0.000002	0.000036	-0.000059	-0.651461	-9.565054	177.766642
40314	2.189538	-0.143615	12.962172	-0.005919	-0.003308	3.333893	1.000000	0.000008	0.000047	-0.000066	-0.650410	-9.564620	177.767534
40315	2.165943	-0.147958	12.892811	0.006104	0.001436	3.261629	1.000000	-0.000006	0.000041	-0.000070	-0.650795	-9.565281	177.767500
40316	2.181657	-0.120370	12.937135	-0.003110	-0.026361	3.307636	1.000000	-0.000000	0.000053	-0.000077	-0.650601	-9.564908	177.772207
40317	2.166342	-0.136473	12.925837	0.010651	-0.010647	3.294132	1.000000	-0.000004	0.000051	-0.000061	-0.650946	-9.564493	177.773237
40318	2.151071	-0.152664	12.914529	0.024301	0.005100	3.280626	1.000000	-0.000007	0.000050	-0.000079	-0.651161	-9.563756	177.769799
40319	2.194555	-0.137150	12.942134	-0.014560	-0.009346	3.314895	1.000000	-0.000008	0.000040	-0.000062	-0.651923	-9.564515	177.770696
40320	2.165562	-0.169550	12.919257	0.011688	0.022453	3.287884	1.000000	0.000011	0.000040	-0.000065	-0.650215	-9.565147	177.765781
40321	2.192384	-0.136712	12.942507	-0.012186	-0.009861	3.314897	1.000000	-0.000025	0.000050	-0.000076	-0.652712	-9.564790	177.765082
40322	2.160694	-0.135610	12.926792	0.016570	-0.011953	3.294124	1.000000	0.000014	0.000033	-0.000064	-0.650789	-9.566596	177.763101
40323	2.187410	-0.147149	12.910266	-0.011851	0.001052	3.282397	1.000000	-0.000007	0.000050	-0.000079	-0.651113	-9.566317	177.762032
40324	2.177928	-0.141397	12.964152	0.006038	-0.006219	3.333891	1.000000	-0.000009	0.000049	-0.000071	-0.652199	-9.565789	177.769733
40325	2.173901	-0.152231	12.931746	0.005124	0.004948	3.301390	1.000000	-0.000004	0.000042	-0.000078	-0.652204	-9.566351	177.768762
40326	2.167145	-0.129316	12.906510	0.007044	-0.015517	3.275129	1.000000	-0.000002	0.000052	-0.000069	-0.642142	-9.567109	177.757147
40327	2.188010	-0.168909	12.936556	-0.007072	0.024463	3.308660	1.000000	0.000007	0.000056	-0.000075	-0.640956	-9.566180	177.756549
40328	2.170090	-0.151490	12.932395	0.009028	0.006350	3.301387	1.000000	-0.000022	0.000043	-0.000075	-0.643041	-9.566244	177.754203
40329	2.163380	-0.128703	12.907147	0.010577	-0.016345	3.275126	1.000000	0.000008	0.000047	-0.000066	-0.641915	-9.566254	177.754636
40330	2.167772	-0.151214	12.932787	0.011508	0.005833	3.301385	1.000000	-0.000017	0.000045	-0.000065	-0.643477	-9.566769	177.750842
40331	2.177724	-0.145671	12.911920	-0.001937	0.000978	3.282402	1.000000	0.000005	0.000046	-0.000084	-0.642327	-9.566915	177.749176
40332	2.179315	-0.134304	12.944739	0.001435	-0.010831	3.314902	1.000000	-0.000002	0.000052	-0.000069	-0.642571	-9.566460	177.755091
40333	2.180783	-0.167845	12.937790	0.000147	0.022752	3.308665	1.000000	-0.000011	0.000048	-0.000063	-0.643617	-9.566393	177.755891
40334	2.188018	-0.128717	12.924087	-0.010746	-0.016047	3.295922	1.000000	-0.000006	0.000041	-0.000070	-0.644258	-9.567288	177.762293
40335	2.178540	-0.167445	12.938173	0.002610	0.022117	3.308666	1.000000	0.000005	0.000046	-0.000084	-0.643108	-9.567432	177.760625
40336	2.149412	-0.155271	12.955072	0.033371	0.008547	3.320354	1.000000	-0.000007	0.000058	-0.000062	-0.643981	-9.565696	177.766074
40337	2.184189	-0.128214	12.924740	-0.007220	-0.016950	3.295924	1.000000	-0.000025	0.000050	-0.000076	-0.646440	-9.565356	177.765374
40338	2.171872	-0.133364	12.945999	0.008634	-0.012631	3.314897	1.000000	0.000019	0.000044	-0.000071	-0.643817	-9.565678	177.763517
40339	2.165189	-0.110177	12.920747	0.010198	-0.035320	3.288630	1.000000	-0.000001	0.000043	-0.000060	-0.643806	-9.566117	177.764648
40340	2.186241	-0.149864	12.950789	-0.003993	0.004543	3.322190	1.000000	-0.000002	0.000052	-0.000069	-0.644078	-9.565454	177.772012
40341	2.154312	-0.148750	12.935064	0.024704	0.002503	3.301368	1.000000	-0.000002	0.000052	-0.000069	-0.644008	-9.564953	177.772109
40342	2.180806	-0.160321	12.918633	-0.003808	0.015497	3.289696	1.000000	-0.000000	0.000053	-0.000077	-0.643290	-9.564176	177.765082
40343	2.148896	-0.114310	12.942672	0.029650	-0.031860	3.307590	1.000000	0.000012	0.000049	-0.000082	-0.641403	-9.563984	177.763645
40344	2.181118	-0.148377	12.951670	0.000821	0.003530	3.322191	1.000000	-0.000001	0.000043	-0.000060	-0.641132	-9.564415	177.758706
40345	2.182665	-0.137090	12.984489	0.004250	-0.008213	3.354685	1.000000	-0.000000	0.000053	-0.000077	-0.640681	-9.563814	177.757868
40346	2.178452	-0.147839	12.952125	0.003237	0.002946	3.322191	1.000000	-0.000002	0.000060	-0.000052	-0.641039	-9.562292	177.761342
40347	2.174355	-0.158594	12.919742	0.002225	0.014124	3.289698	1.000000	0.000001	0.000044	-0.000068	-0.640647	-9.562630	177.761536
40348	2.187119	-0.141862	12.931502	-0.009052	-0.002268	3.303229	1.000000	0.000001	0.000044	-0.000068	-0.640456	-9.562800	177.765824
40349	2.169268	-0.124252	12.927291	0.007192	-0.020346	3.295919	1.000000	0.000003	0.000045	-0.000076	-0.639684	-9.563039	177.765085
40350	2.154148	-0.140341	12.915933	0.020782	-0.004581	3.282385	1.000000	-0.000002	0.000052	-0.000069	-0.639733	-9.562274	177.768130
40351	2.189051	-0.163409	12.957582	-0.005836	0.019255	3.329503	1.000000	0.000010	0.000048	-0.000074	-0.638225	-9.562179	177.767624
40352	2.168429	-0.156770	12.920760	0.008074	0.012654	3.289697	1.000000	-0.000001	0.000043	-0.000060	-0.638197	-9.562216	177.767960
40353	2.150488	-0.139252	12.916554	0.024322	-0.005412	3.282379	1.000000	-0.000000	0.000053	-0.000077	-0.637746	-9.561613	177.767120
40354	2.179503	-0.139965	12.932808	-0.001927	-0.003996	3.303232	1.000000	-0.000018	0.000071	-0.000073	-0.639415	-9.558937	177.767647
40355	2.166965	-0.145459	12.954079	0.013966	0.000338	3.322184	1.000000	-0.000013	0.000039	-0.000072	-0.640493	-9.559943	177.767372
40356	2.174372	-0.150968	12.900601	-0.001809	0.006859	3.270743	1.000000	-0.000006	0.000042	-0.000070	-0.641037	-9.560450	177.771666
40357	2.181598	-0.162373	12.958852	0.001305	0.017508	3.329507	1.000000	-0.000002	0.000043	-0.000086	-0.640619	-9.560923	177.769756
40358	2.158086	-0.122256	12.929182	0.017958	-0.022931	3.295904	1.000000	-0.000004	0.000051	-0.000061	-0.640874	-9.560618	177.769849
40359	2.179191	-0.162174	12.959259	0.003753	0.016953	3.329507	1.000000	-0.000019	0.000044	-0.000057	-0.643035	-9.560982	177.771338
40360	2.169759	-0.150210	12.901387	0.002892	0.005762	3.270743	1.000000	0.000024	0.000046	-0.000061	-0.640055	-9.560477	177.768932
40361	2.185081	-0.122486	12.945795	-0.006007	-0.022079	3.316771	1.000000	-0.000025	0.000050	-0.000076	-0.642512	-9.560135	177.768220
40362	2.169779	-0.138827	12.934455	0.007614	-0.006306	3.303229	1.000000	0.000006	0.000064	-0.000084	-0.641439	-9.558309	177.771015
40363	2.168303	-0.138448	12.934707	0.008827	-0.006588	3.303228	1.000000	-0.000002	0.000052	-0.000069	-0.641368	-9.557802	177.771104
40364	2.194972	-0.149936	12.918320	-0.019704	0.006258	3.291623	1.000000	0.000001	0.000044	-0.000068	-0.640969	-9.558172	177.771097
40365	2.152033	-0.154367	12.923530	0.023643	0.008953	3.289681	1.000000	-0.000004	0.000051	-0.000061	-0.641279	-9.557765	177.772119
40366	2.178515	-0.121320	12.946913	-0.000037	-0.023501	3.316769	1.000000	-0.000006	0.000042	-0.000070	-0.641494	-9.557861	177.767502
40367	2.177614	-0.165567	12.907335	-0.003827	0.021543	3.278082	1.000000	0.000012	0.000049	-0.000082	-0.639604	-9.557660	177.766057
40368	2.181766	-0.143107	12.972773	0.001980	-0.001667	3.343049	1.000000	-0.000001	0.000043	-0.000060	-0.639553	-9.557903	177.765567
40369	2.158470	-0.147638	12.903310	0.013612	0.003240	3.270737	1.000000	-0.000000	0.000053	-0.000077	-0.639102	-9.557296	177.764721
40370	2.184713	-0.114561	12.926739	-0.010030	-0.029276	3.297832	1.000000	-0.000012	0.000056	-0.000072	-0.640170	-9.555772	177.765081
40371	2.158573	-0.136347	12.936357	0.018247	-0.008804	3.303217	1.000000	-0.000000	0.000035	-0.000051	-0.640216	-9.557146	177.767236
40372	2.185385	-0.147855	12.919969	-0.010348	0.003966	3.291634	1.000000	-0.000002	0.000052	-0.000069	-0.640359	-9.556497	177.772614
40373	2.189688	-0.170284	12.945650	-0.009516	0.026068	3.317919	1.000000	-0.000007	0.000050	-0.000079	-0.640642	-9.556224	177.771532
40374	2.171731	-0.152851	12.941410	0.006733	0.008052	3.310565	1.000000	0.000001	0.000044	-0.000068	-0.640235	-9.556378	177.770910
40375	2.178937	-0.158113	12.888004	-0.009112	0.014591	3.259157	1.000000	-0.000003	0.000060	-0.000078	-0.640106	-9.554927	177.769960
40376	2.180249	-0.146856	12.920848	-0.005579	0.002800	3.291637	1.000000	-0.000001	0.000043	-0.000060	-0.640258	-9.555229	177.774701
40377	2.179192	-0.146412	12.921031	-0.004368	0.002517	3.291638	1.000000	0.000010	0.000040	-0.000091	-0.638399	-9.556100	177.772185
40378	2.166947	-0.151629	12.942226	0.011492	0.006839	3.310563	1.000000	-0.000017	0.000045	-0.000065	-0.640420	-9.556134	177.778408
40379	2.190573	-0.129695	12.933050	-0.014333	-0.014233	3.305193	1.000000	-0.000005	0.000059	-0.000070	-0.640673	-9.554783	177.778390
40380	2.175415	-0.146036	12.921672	-0.000792	0.001648	3.291639	1.000000	-0.000009	0.000049	-0.000071	-0.641195	-9.554600	177.774638
40381	2.162910	-0.151210	12.942906	0.015126	0.006028	3.310559	1.000000	0.000007	0.000056	-0.000075	-0.640009	-9.553653	177.774021
40382	2.178307	-0.167961	12.947600	0.001216	0.023471	3.317927	1.000000	-0.000000	0.000053	-0.000077	-0.639530	-9.552922	177.772636
40383	2.185276	-0.128605	12.933957	-0.009506	-0.015330	3.305197	1.000000	-0.000006	0.000042	-0.000070	-0.639871	-9.553588	177.772584
40384	2.186807	-0.162110	12.927052	-0.011094	0.018254	3.299011	1.000000	-0.000009	0.000075	-0.000079	-0.640330	-9.550370	177.769361
40385	2.151661	-0.127737	12.918393	0.020315	-0.017451	3.284264	1.000000	-0.000008	0.000049	-0.000045	-0.641404	-9.550159	177.772243
40386	2.167405	-0.144585	12.923034	0.006400	-0.000067	3.291637	1.000000	0.000014	0.000033	-0.000065	-0.639836	-9.551730	177.778030
40387	2.183062	-0.161420	12.927694	-0.007494	0.017356	3.299014	1.000000	-0.000012	0.000056	-0.000072	-0.640823	-9.550713	177.777774
40388	2.167428	-0.133043	12.956090	0.011309	-0.012193	3.324110	1.000000	0.000005	0.000055	-0.000067	-0.640402	-9.550182	177.789792
40389	2.180389	-0.160838	12.928152	-0.005010	0.016700	3.299016	1.000000	0.000001	0.000044	-0.000068	-0.640007	-9.550511	177.789973
40390	2.179127	-0.160469	12.928369	-0.003821	0.016445	3.299017	1.000000	0.000005	0.000055	-0.000067	-0.639085	-9.549563	177.786635
40391	2.205254	-0.127152	12.951859	-0.027186	-0.016154	3.326146	1.000000	-0.000002	0.000052	-0.000069	-0.639014	-9.549050	177.786713
40392	2.176369	-0.159969	12.928840	-0.001398	0.015886	3.299018	1.000000	-0.000007	0.000058	-0.000062	-0.639619	-9.547813	177.786950
40393	2.172106	-0.126131	12.936199	0.002649	-0.018247	3.305196	1.000000	0.000002	0.000036	-0.000059	-0.639282	-9.549082	177.788164
40394	2.146048	-0.147793	12.945753	0.030804	0.002252	3.310533	1.000000	-0.000000	0.000053	-0.000077	-0.639164	-9.548229	177.795557
40395	2.197594	-0.137086	12.920116	-0.024822	-0.005890	3.293683	1.000000	0.000005	0.000055	-0.000067	-0.638360	-9.547378	177.795869
40396	2.157724	-0.175290	12.918047	0.015592	0.030858	3.285451	1.000000	-0.000006	0.000042	-0.000070	-0.638696	-9.547796	177.794432
40397	2.183945	-0.142000	12.941528	-0.007731	-0.001764	3.312588	1.000000	0.000005	0.000055	-0.000067	-0.637891	-9.546944	177.794744
40398	2.182718	-0.141714	12.941738	-0.006481	-0.002017	3.312589	1.000000	-0.000006	0.000042	-0.000070	-0.638091	-9.547763	177.791727
40399	2.167898	-0.157938	12.930288	0.006991	0.013875	3.299019	1.000000	0.000003	0.000045	-0.000076	-0.637314	-9.547988	177.790970
40400	2.180358	-0.141105	12.942142	-0.004092	-0.002590	3.312590	1.000000	0.000001	0.000053	-0.000051	-0.637311	-9.547177	177.793549
40401	2.123609	-0.162539	12.935575	0.051486	0.016513	3.296939	1.000000	-0.000025	0.000050	-0.000076	-0.639764	-9.546832	177.792815
40402	2.258713	-0.142207	12.900255	-0.088390	0.001891	3.284288	1.000000	0.000012	0.000049	-0.000082	-0.637909	-9.546539	177.792253
40403	2.118113	-0.128427	12.943124	0.056779	-0.017890	3.303097	1.000000	-0.000013	0.000039	-0.000072	-0.638980	-9.547538	177.791958
40404	2.200295	-0.118502	12.933650	-0.026243	-0.024623	3.307272	1.000000	-0.000003	0.000060	-0.000078	-0.638885	-9.546016	177.791922
40405	2.235768	-0.186150	12.935710	-0.058215	0.044259	3.315929	1.000000	-0.000006	0.000042	-0.000070	-0.639223	-9.546677	177.791862
40406	2.122437	-0.088777	12.929916	0.048543	-0.057295	3.290355	1.000000	-0.000002	0.000052	-0.000069	-0.639271	-9.545976	177.794250
40407	2.202917	-0.185180	12.919970	-0.028471	0.042188	3.294951	1.000000	-0.000011	0.000040	-0.000080	-0.639960	-9.546873	177.793019
40408	2.176105	-0.162240	12.969294	0.005152	0.017405	3.338891	1.000000	0.000014	0.000059	-0.000047	-0.638773	-9.545680	177.805786
40409	2.180251	-0.133574	12.923091	-0.007954	-0.009954	3.293702	1.000000	0.000004	0.000055	-0.000093	-0.637555	-9.544858	177.803055
40410	2.156502	-0.144349	12.965265	0.022713	-0.000792	3.331471	1.000000	-0.000008	0.000049	-0.000045	-0.638577	-9.544562	177.804231
40411	2.152742	-0.155205	12.932853	0.021403	0.010413	3.299006	1.000000	-0.000000	0.000053	-0.000077	-0.638123	-9.543942	177.803367
40412	2.176329	-0.132664	12.923761	-0.004338	-0.010779	3.293703	1.000000	0.000012	0.000049	-0.000082	-0.636189	-9.543711	177.801137
40413	2.178250	-0.165921	12.916825	-0.006078	0.022784	3.287546	1.000000	-0.000009	0.000049	-0.000071	-0.636850	-9.543531	177.800971
40414	2.145842	-0.120559	12.940635	0.028003	-0.024233	3.305157	1.000000	-0.000001	0.000044	-0.000060	-0.636720	-9.544017	177.799012
40415	1.996655	-0.000070	12.893019	0.162708	-0.149387	3.232150	1.000000	0.000003	0.000020	-0.000068	-0.636084	-9.547198	177.799254
40416	2.278677	-0.256971	12.977053	-0.090887	0.116238	3.364586	1.000000	-0.000026	0.000067	-0.000068	-0.638981	-9.544903	177.804379
40417	2.086671	-0.097111	12.974048	0.091466	-0.050900	3.328036	1.000000	0.000008	0.000022	-0.000058	-0.637993	-9.547848	177.805792
40418	2.201353	-0.125771	12.829289	-0.043780	-0.015222	3.204620	1.000000	0.000006	0.000038	-0.000075	-0.637051	-9.549209	177.812659
40419	2.119478	-0.225816	13.015508	0.071980	0.078556	3.375765	1.000000	-0.000001	0.000035	-0.000078	-0.636680	-9.550606	177.811762
40420	2.346372	-0.105105	12.885048	-0.177747	-0.031225	3.283434	1.000000	0.000002	0.000036	-0.000059	-0.636585	-9.551680	177.819964
40421	2.109455	-0.213734	12.957724	0.072196	0.067097	3.316988	1.000000	-0.000009	0.000049	-0.000071	-0.637247	-9.551498	177.819796
40422	2.229511	-0.069596	12.918578	-0.058192	-0.071865	3.296724	1.000000	-0.000005	0.000033	-0.000061	-0.637710	-9.553056	177.822038
40423	2.087945	-0.207342	12.920941	0.087190	0.060416	3.277078	1.000000	0.000002	0.000062	-0.000068	-0.637231	-9.551356	177.822238
40424	2.263994	-0.136818	12.920902	-0.089194	-0.003370	3.305473	1.000000	-0.000003	0.000034	-0.000070	-0.637212	-9.552601	177.819170
40425	2.168941	-0.196747	12.911821	0.005346	0.053146	3.281406	1.000000	0.000002	0.000062	-0.000068	-0.636734	-9.550901	177.819370
40426	2.174887	-0.112458	12.938001	0.000452	-0.031089	3.307285	1.000000	0.000014	0.000033	-0.000065	-0.635131	-9.552555	177.825785
40427	2.144204	-0.156195	12.882197	0.023368	0.012594	3.247645	1.000000	-0.000007	0.000050	-0.000079	-0.635409	-9.552270	177.824680
40428	2.172797	-0.111938	12.938356	0.002911	-0.031616	3.307283	1.000000	-0.000010	0.000031	-0.000072	-0.635990	-9.554217	177.820384
40429	2.186330	-0.139866	12.910414	-0.013676	-0.002809	3.282281	1.000000	-0.000001	0.000044	-0.000060	-0.635977	-9.554638	177.821486
40430	2.207016	-0.134773	12.980374	-0.022446	-0.008472	3.354644	1.000000	-0.000011	0.000030	-0.000064	-0.637093	-9.556493	177.821671
40431	2.179680	-0.212511	12.917401	-0.002629	0.069061	3.288864	1.000000	-0.000009	0.000049	-0.000071	-0.637754	-9.556309	177.821498
40432	2.182385	-0.095088	12.950715	-0.004418	-0.048963	3.320874	1.000000	-0.000014	0.000038	-0.000064	-0.639124	-9.557229	177.818088
40433	2.247397	-0.218826	12.896608	-0.072311	0.077938	3.279672	1.000000	-0.000002	0.000044	-0.000086	-0.638693	-9.557680	177.816147
40434	2.246635	-0.067347	12.937111	-0.071031	-0.073949	3.317820	1.000000	0.000004	0.000055	-0.000093	-0.637469	-9.556546	177.810933
40435	2.283343	-0.179265	12.899477	-0.108994	0.040100	3.288031	1.000000	0.000001	0.000045	-0.000068	-0.637073	-9.556863	177.811098
40436	2.216713	-0.099770	12.914215	-0.044317	-0.042053	3.290632	1.000000	-0.000001	0.000070	-0.000069	-0.637023	-9.554404	177.814962
40437	2.207120	-0.138718	12.928298	-0.031422	-0.003740	3.303353	1.000000	-0.000005	0.000059	-0.000070	-0.637278	-9.553040	177.814921
40438	2.216851	-0.132980	12.907613	-0.044988	-0.008726	3.284507	1.000000	-0.000005	0.000059	-0.000070	-0.637274	-9.551616	177.806133
40439	2.160049	-0.154489	12.900887	0.010424	0.010688	3.268686	1.000000	-0.000005	0.000059	-0.000070	-0.637529	-9.550251	177.806091
40440	2.200377	-0.149007	12.896422	-0.030500	0.006921	3.270912	1.000000	0.000012	0.000049	-0.000056	-0.636218	-9.549802	177.811585
40441	2.160451	-0.187524	12.894235	0.009689	0.043931	3.262556	1.000000	-0.000018	0.000071	-0.000074	-0.637856	-9.547095	177.811099
40442	2.152228	-0.120198	12.908794	0.017141	-0.024059	3.274811	1.000000	-0.000000	0.000053	-0.000077	-0.637576	-9.546587	177.817267
40443	2.184633	-0.153834	12.918135	-0.012078	0.010797	3.289764	1.000000	0.000007	0.000056	-0.000075	-0.636389	-9.545619	177.816628
40444	2.143811	-0.147736	12.955697	0.033882	0.002516	3.319969	1.000000	-0.000014	0.000055	-0.000064	-0.637685	-9.544639	177.814099
40445	2.143438	-0.192452	12.916143	0.029283	0.047569	3.281395	1.000000	-0.000014	0.000055	-0.000064	-0.639054	-9.543715	177.814752
40446	2.163474	-0.187383	12.986223	0.020614	0.041829	3.353768	1.000000	-0.000005	0.000059	-0.000070	-0.639468	-9.542243	177.818922
40447	2.129230	-0.197854	12.937568	0.046437	0.051764	3.300230	1.000000	-0.000007	0.000058	-0.000062	-0.640106	-9.540979	177.819811
40448	2.138099	-0.147403	12.956644	0.038733	0.001383	3.319956	1.000000	0.000003	0.000046	-0.000076	-0.639292	-9.541286	177.818336
40449	2.093044	-0.163150	12.928843	0.079323	0.016114	3.285247	1.000000	0.000006	0.000038	-0.000076	-0.638184	-9.542336	177.817664
40450	2.160647	-0.124385	12.947806	0.014346	-0.020231	3.314724	1.000000	0.000005	0.000055	-0.000041	-0.637768	-9.541597	177.821250
40451	2.117656	-0.129487	12.952671	0.057641	-0.016987	3.312453	1.000000	-0.000017	0.000045	-0.000065	-0.639543	-9.541852	177.821767
40452	2.116523	-0.129460	12.952856	0.058889	-0.017280	3.312447	1.000000	-0.000001	0.000044	-0.000060	-0.639631	-9.542408	177.827318
40453	2.132398	-0.146400	12.957595	0.044869	-0.000011	3.319937	1.000000	-0.000014	0.000038	-0.000064	-0.641079	-9.543503	177.827938
40454	2.150497	-0.101512	12.923064	0.019753	-0.043791	3.288389	1.000000	0.000001	0.000045	-0.000068	-0.641082	-9.544019	177.843491
40455	2.138139	-0.106905	12.944171	0.035753	-0.039270	3.307214	1.000000	-0.000008	0.000041	-0.000062	-0.641799	-9.544774	177.844348
40456	2.151949	-0.135028	12.916241	0.019003	-0.010471	3.282270	1.000000	-0.000020	0.000026	-0.000058	-0.643820	-9.547224	177.839489
40457	2.123017	-0.123686	12.932715	0.050246	-0.023479	3.293591	1.000000	-0.000007	0.000032	-0.000080	-0.644173	-9.548952	177.838340
40458	2.138910	-0.140856	12.937455	0.036182	-0.006221	3.301090	1.000000	-0.000029	0.000049	-0.000060	-0.647379	-9.548673	177.837763
40459	2.179682	-0.135822	12.932983	-0.004677	-0.010076	3.303387	1.000000	-0.000004	0.000025	-0.000053	-0.647826	-9.551210	177.839762
40460	2.171164	-0.175049	12.946865	0.008120	0.028263	3.316099	1.000000	-0.000018	0.000027	-0.000066	-0.649742	-9.553543	177.843246
40461	2.164649	-0.152520	12.921514	0.009792	0.005653	3.289769	1.000000	-0.000008	0.000041	-0.000062	-0.650459	-9.554296	177.844101
40462	2.207590	-0.136281	12.949711	-0.028254	-0.009782	3.324517	1.000000	-0.000014	0.000038	-0.000064	-0.652127	-9.555600	177.855530
40463	2.234812	-0.147663	12.933538	-0.057089	0.002634	3.313215	1.000000	-0.000010	0.000040	-0.000081	-0.652806	-9.556486	177.854276
40464	2.228362	-0.125001	12.908181	-0.055422	-0.020077	3.286889	1.000000	-0.000008	0.000023	-0.000063	-0.653969	-9.559191	177.867523
40465	2.221859	-0.153156	12.954745	-0.039891	0.006781	3.332041	1.000000	-0.000013	0.000047	-0.000081	-0.654975	-9.559237	177.866164
40466	2.218396	-0.164082	12.922313	-0.041438	0.018040	3.299609	1.000000	-0.000004	0.000051	-0.000061	-0.655096	-9.558917	177.862252
40467	2.219239	-0.152974	12.955196	-0.037436	0.006253	3.332048	1.000000	-0.000012	0.000056	-0.000072	-0.656082	-9.557885	177.861961
40468	2.173925	-0.169039	12.927384	0.003117	0.021171	3.297283	1.000000	0.000002	0.000054	-0.000085	-0.654981	-9.557446	177.855229
40469	2.144432	-0.157516	12.943926	0.034393	0.008216	3.308569	1.000000	-0.000015	0.000046	-0.000073	-0.656371	-9.557595	177.854803
40470	2.188359	-0.185751	12.932395	-0.009744	0.038116	3.304809	1.000000	-0.000002	0.000052	-0.000069	-0.656268	-9.557034	177.853875
40471	2.181402	-0.162957	12.907121	-0.008063	0.015511	3.278476	1.000000	-0.000007	0.000050	-0.000079	-0.656542	-9.556738	177.852751
40472	2.219666	-0.168547	12.870110	-0.051719	0.023061	3.248394	1.000000	-0.000009	0.000049	-0.000071	-0.657207	-9.556605	177.853689
40473	2.179187	-0.162632	12.907500	-0.005635	0.014946	3.278477	1.000000	0.000000	0.000027	-0.000069	-0.656883	-9.558932	177.853814
40474	2.214406	-0.185297	12.949480	-0.032121	0.038147	3.325976	1.000000	-0.000006	0.000042	-0.000070	-0.657170	-9.559758	177.854476
40475	2.202031	-0.139771	12.898669	-0.029957	-0.006780	3.273305	1.000000	0.000011	0.000040	-0.000066	-0.655713	-9.560562	177.854972
40476	2.267412	-0.162438	12.957045	-0.083694	0.017600	3.341979	1.000000	0.000008	0.000048	-0.000066	-0.654361	-9.560682	177.850068
40477	2.258354	-0.150334	12.899117	-0.084841	0.006491	3.283218	1.000000	0.000010	0.000049	-0.000074	-0.652846	-9.560543	177.849522
40478	2.204002	-0.160952	12.924815	-0.026733	0.014762	3.299652	1.000000	-0.000007	0.000058	-0.000062	-0.653374	-9.559416	177.848028
40479	2.227215	-0.138449	12.915928	-0.052294	-0.006705	3.294489	1.000000	-0.000001	0.000061	-0.000086	-0.652860	-9.557832	177.846098
40480	2.215585	-0.188543	12.897322	-0.042444	0.043197	3.274772	1.000000	-0.000013	0.000073	-0.000064	-0.654064	-9.554901	177.843588
40481	2.210143	-0.154879	12.904802	-0.037909	0.009089	3.280865	1.000000	-0.000004	0.000077	-0.000070	-0.654244	-9.551504	177.843559
40482	2.153143	-0.176609	12.897899	0.017291	0.028846	3.264846	1.000000	-0.000002	0.000070	-0.000095	-0.653794	-9.548914	177.843469
40483	2.153378	-0.165280	12.930871	0.021360	0.017063	3.297272	1.000000	0.000000	0.000079	-0.000059	-0.653629	-9.545279	177.844612
40484	2.153609	-0.154041	12.963841	0.025466	0.005255	3.329697	1.000000	-0.000003	0.000069	-0.000061	-0.653979	-9.542954	177.850684
40485	2.121509	-0.153477	12.947751	0.053917	0.003871	3.308505	1.000000	0.000006	0.000064	-0.000058	-0.653158	-9.540998	177.852037
40486	2.091483	-0.141818	12.964313	0.085205	-0.009009	3.319734	1.000000	0.000003	0.000072	-0.000059	-0.652633	-9.538035	177.849145
40487	2.089966	-0.141456	12.964562	0.086420	-0.009277	3.319726	1.000000	0.000006	0.000047	-0.000058	-0.651886	-9.538100	177.850467
40488	2.113128	-0.118899	12.955698	0.060943	-0.030717	3.314570	1.000000	-0.000009	0.000075	-0.000080	-0.652183	-9.535188	177.844952
40489	2.126588	-0.146638	12.927900	0.043967	-0.002025	3.289700	1.000000	0.000002	0.000036	-0.000060	-0.651838	-9.536434	177.846140
40490	2.104967	-0.095978	12.930600	0.063839	-0.053595	3.288212	1.000000	-0.000013	0.000047	-0.000081	-0.652956	-9.536372	177.847411
40491	2.103837	-0.095660	12.930786	0.065057	-0.053866	3.288205	1.000000	0.000013	0.000041	-0.000074	-0.651110	-9.537066	177.846965
40492	2.108542	-0.117796	12.956455	0.065786	-0.031833	3.314544	1.000000	-0.000003	0.000034	-0.000070	-0.651142	-9.538532	177.848269
40493	2.160693	-0.106544	12.931236	0.010134	-0.040754	3.298188	1.000000	-0.000005	0.000033	-0.000062	-0.651527	-9.540120	177.849216
40494	2.118183	-0.111904	12.935849	0.053360	-0.037247	3.295752	1.000000	-0.000011	0.000030	-0.000064	-0.652680	-9.541893	177.849730
40495	2.145719	-0.123179	12.919726	0.024438	-0.024944	3.284540	1.000000	-0.000011	0.000030	-0.000064	-0.653794	-9.543822	177.850439
40496	2.145042	-0.123164	12.919838	0.025610	-0.025199	3.284538	1.000000	-0.000008	0.000023	-0.000063	-0.654480	-9.546413	177.846364
40497	2.178524	-0.156794	12.929185	-0.003807	0.009402	3.299683	1.000000	-0.000001	0.000018	-0.000078	-0.654167	-9.549812	177.845411
40498	2.213869	-0.128716	12.899323	-0.044135	-0.016992	3.275783	1.000000	-0.000019	0.000036	-0.000075	-0.655919	-9.551210	177.845415
40499	2.174885	-0.167675	12.896796	-0.004308	0.020358	3.267265	1.000000	0.000002	0.000036	-0.000060	-0.655574	-9.552454	177.846601
40500	2.231056	-0.134360	12.936935	-0.054045	-0.011635	3.315789	1.000000	-0.000012	0.000039	-0.000073	-0.656582	-9.553634	177.848256
40501	2.277316	-0.151413	12.958178	-0.095362	0.006547	3.344605	1.000000	-0.000009	0.000049	-0.000071	-0.657238	-9.553435	177.848055
40502	2.243756	-0.162137	12.909304	-0.069898	0.016699	3.290964	1.000000	-0.000008	0.000041	-0.000063	-0.658048	-9.554161	177.852455
40503	2.202962	-0.156506	12.946611	-0.023695	0.008745	3.320919	1.000000	-0.000009	0.000049	-0.000071	-0.658704	-9.553962	177.852253
40504	2.237228	-0.234791	12.916313	-0.059553	0.088598	3.297616	1.000000	-0.000007	0.000058	-0.000062	-0.659456	-9.552749	177.858175
40505	2.186891	-0.173061	12.935285	-0.009389	0.024546	3.307273	1.000000	-0.000013	0.000047	-0.000082	-0.660455	-9.552787	177.856797
40506	2.200557	-0.200711	12.907494	-0.026455	0.053147	3.282450	1.000000	0.000009	0.000057	-0.000057	-0.659476	-9.551845	177.867280
40507	2.189763	-0.195284	12.961275	-0.007437	0.046242	3.333629	1.000000	-0.000024	0.000060	-0.000067	-0.661904	-9.550413	177.867562
40508	2.135300	-0.155736	12.914917	0.036828	0.005246	3.278434	1.000000	-0.000007	0.000050	-0.000079	-0.662185	-9.550188	177.868840
40509	2.196382	-0.200431	12.908210	-0.022831	0.052293	3.282460	1.000000	-0.000000	0.000053	-0.000077	-0.661725	-9.549540	177.867939
40510	2.213913	-0.155186	12.873885	-0.047848	0.008424	3.251004	1.000000	-0.000000	0.000061	-0.000060	-0.661594	-9.547749	177.864365
40511	2.191788	-0.155245	12.948522	-0.013964	0.006417	3.320935	1.000000	-0.000000	0.000053	-0.000077	-0.661134	-9.547100	177.863463
40512	2.165811	-0.177188	12.957810	0.013917	0.027470	3.326035	1.000000	0.000012	0.000050	-0.000056	-0.659539	-9.546731	177.859355
40513	2.204394	-0.182150	12.920938	-0.029907	0.034794	3.296129	1.000000	0.000006	0.000038	-0.000076	-0.658420	-9.547761	177.858664
40514	2.161471	-0.187109	12.925558	0.013291	0.038410	3.293622	1.000000	0.000013	0.000059	-0.000073	-0.656580	-9.546259	177.857103
40515	2.156592	-0.153083	12.932905	0.018014	0.004322	3.299674	1.000000	-0.000005	0.000034	-0.000088	-0.656532	-9.547869	177.854995
40516	2.189792	-0.186520	12.942370	-0.011467	0.038797	3.314889	1.000000	-0.000001	0.000035	-0.000078	-0.656274	-9.549311	177.858857
40517	2.154792	-0.152403	12.933214	0.020450	0.003738	3.299671	1.000000	0.000006	0.000038	-0.000076	-0.655154	-9.550340	177.858164
40518	2.184128	-0.151972	12.949855	-0.005535	0.004423	3.320942	1.000000	0.000013	0.000041	-0.000074	-0.653317	-9.550942	177.856031
40519	2.190641	-0.112212	12.936335	-0.015632	-0.034575	3.308244	1.000000	0.000001	0.000045	-0.000069	-0.652914	-9.551236	177.856168
40520	2.210199	-0.162338	12.934066	-0.033312	0.016309	3.309813	1.000000	-0.000005	0.000051	-0.000088	-0.652888	-9.550860	177.857132
40521	2.235730	-0.128432	12.957872	-0.055722	-0.016833	3.337143	1.000000	0.000014	0.000033	-0.000065	-0.651097	-9.552490	177.857721
40522	2.232628	-0.138885	12.925415	-0.057521	-0.005614	3.304741	1.000000	0.000009	0.000057	-0.000057	-0.649974	-9.551491	177.861893
40523	2.202744	-0.127410	12.941856	-0.026088	-0.018359	3.315866	1.000000	-0.000005	0.000059	-0.000070	-0.650230	-9.550105	177.861816
40524	2.170874	-0.127081	12.925634	0.002281	-0.019587	3.294580	1.000000	-0.000003	0.000060	-0.000078	-0.650134	-9.548555	177.860047
40525	2.152252	-0.109946	12.921226	0.018864	-0.037236	3.286955	1.000000	0.000002	0.000062	-0.000068	-0.649661	-9.546825	177.860210
40526	2.171586	-0.160019	12.919014	0.001107	0.013641	3.288538	1.000000	0.000003	0.000054	-0.000059	-0.649325	-9.545947	177.861756
40527	2.126491	-0.120787	12.963429	0.050990	-0.027961	3.324422	1.000000	-0.000006	0.000068	-0.000079	-0.649524	-9.543615	177.860634
40528	2.123076	-0.131684	12.931013	0.049163	-0.016719	3.292014	1.000000	-0.000009	0.000049	-0.000071	-0.650194	-9.543536	177.863139
40529	2.093381	-0.120457	12.947385	0.080614	-0.029424	3.303111	1.000000	-0.000004	0.000051	-0.000061	-0.650506	-9.543094	177.864103
40530	2.109175	-0.136967	12.952275	0.066444	-0.012342	3.310736	1.000000	0.000008	0.000048	-0.000066	-0.649400	-9.543015	177.864251
40531	2.140121	-0.125906	13.001657	0.043594	-0.023226	3.364437	1.000000	-0.000021	0.000053	-0.000066	-0.651499	-9.542421	177.864627
40532	2.144557	-0.097649	12.955495	0.030487	-0.050739	3.319335	1.000000	-0.000004	0.000043	-0.000079	-0.651541	-9.543002	177.868336
40533	2.172036	-0.108590	12.939503	0.001459	-0.038601	3.308242	1.000000	-0.000009	0.000032	-0.000072	-0.652263	-9.544820	177.868093
40534	2.146512	-0.131036	12.948664	0.029298	-0.017489	3.313295	1.000000	-0.000010	0.000040	-0.000055	-0.653359	-9.545649	177.870343
40535	2.128504	-0.114405	12.944130	0.045903	-0.035108	3.305650	1.000000	-0.000023	0.000034	-0.000059	-0.655913	-9.547184	177.871627
40536	2.146603	-0.176026	12.909159	0.024962	0.027299	3.274860	1.000000	-0.000014	0.000038	-0.000065	-0.657264	-9.548183	177.868228
40537	2.181645	-0.092264	12.951942	-0.005446	-0.056160	3.321912	1.000000	-0.000011	0.000031	-0.000064	-0.658372	-9.550107	177.868922
40538	2.192413	-0.192801	12.930637	-0.015177	0.044933	3.303828	1.000000	0.000000	0.000027	-0.000069	-0.658152	-9.552361	177.872313
40539	2.223704	-0.130817	12.908096	-0.051802	-0.015504	3.286091	1.000000	-0.000010	0.000040	-0.000081	-0.658816	-9.553232	177.871025
40540	2.243593	-0.181050	12.905825	-0.069669	0.035408	3.287721	1.000000	-0.000006	0.000042	-0.000071	-0.658906	-9.553720	177.860448
40541	2.223527	-0.175177	12.868660	-0.056201	0.029306	3.247678	1.000000	-0.000013	0.000047	-0.000082	-0.659900	-9.553751	177.859053
40542	2.188339	-0.192388	12.931334	-0.010367	0.043864	3.303837	1.000000	-0.000012	0.000039	-0.000073	-0.660937	-9.554776	177.859395
40543	2.215716	-0.203191	12.915388	-0.039435	0.055961	3.292779	1.000000	0.000005	0.000047	-0.000085	-0.659758	-9.554851	177.857650
40544	2.199267	-0.175080	12.943571	-0.019709	0.026843	3.317520	1.000000	-0.000009	0.000049	-0.000072	-0.660352	-9.554519	177.852793
40545	2.241443	-0.213958	12.899736	-0.067331	0.067781	3.281735	1.000000	-0.000018	0.000071	-0.000074	-0.661998	-9.551793	177.852252
40546	2.230323	-0.208339	12.953509	-0.048073	0.060924	3.332849	1.000000	0.000021	0.000054	-0.000062	-0.659391	-9.551158	177.854578
40547	2.177641	-0.157563	12.939646	-0.000650	0.008676	3.309863	1.000000	-0.000012	0.000057	-0.000072	-0.660376	-9.550111	177.854250
40548	2.191509	-0.185243	12.911919	-0.018024	0.037213	3.285136	1.000000	0.000001	0.000053	-0.000051	-0.660454	-9.549378	177.858059
40549	2.161491	-0.174049	12.928296	0.013472	0.024574	3.296179	1.000000	-0.000005	0.000068	-0.000053	-0.661090	-9.547014	177.859980
40550	2.188558	-0.184958	12.912424	-0.015587	0.036648	3.285141	1.000000	-0.000003	0.000043	-0.000053	-0.661452	-9.547635	177.863780
40551	2.160631	-0.162637	12.961418	0.019094	0.012495	3.328569	1.000000	0.000007	0.000056	-0.000049	-0.660698	-9.546604	177.866156
40552	2.144305	-0.189944	12.917121	0.028782	0.040241	3.282491	1.000000	0.000007	0.000048	-0.000093	-0.659069	-9.546367	177.856175
40553	2.156286	-0.172632	12.929184	0.018288	0.023477	3.296176	1.000000	0.000008	0.000048	-0.000067	-0.657936	-9.546307	177.856542
40554	2.139833	-0.144277	12.957336	0.038093	-0.005613	3.320887	1.000000	0.000015	0.000042	-0.000056	-0.656042	-9.546800	177.853484
40555	2.180409	-0.138017	12.953285	-0.002690	-0.010042	3.323549	1.000000	-0.000002	0.000044	-0.000087	-0.655587	-9.547215	177.851493
40556	2.122708	-0.171157	12.913175	0.049001	0.021843	3.274803	1.000000	0.000008	0.000040	-0.000084	-0.654131	-9.548082	177.849886
40557	2.261600	-0.125442	12.945194	-0.084261	-0.018949	3.328894	1.000000	0.000005	0.000047	-0.000085	-0.652949	-9.548152	177.848135
40558	2.158217	-0.130917	12.916460	0.013137	-0.016683	3.283477	1.000000	-0.000004	0.000043	-0.000079	-0.652949	-9.548582	177.846305
40559	2.174099	-0.147340	12.921394	-0.001074	0.000334	3.291161	1.000000	0.000002	0.000054	-0.000086	-0.652099	-9.547811	177.844446
40560	2.155642	-0.130245	12.916897	0.015529	-0.017230	3.283474	1.000000	-0.000005	0.000051	-0.000088	-0.651934	-9.547247	177.837306
40561	2.213440	-0.140895	12.917577	-0.040677	-0.004402	3.293849	1.000000	0.000000	0.000027	-0.000069	-0.651592	-9.549554	177.837402
40562	2.225343	-0.124005	12.929658	-0.051131	-0.021172	3.307546	1.000000	-0.000018	0.000071	-0.000074	-0.653161	-9.546842	177.834244
40563	2.223675	-0.123736	12.929947	-0.049915	-0.021460	3.307550	1.000000	0.000013	0.000059	-0.000073	-0.651244	-9.545486	177.833804
40564	2.204948	-0.106648	12.925492	-0.033268	-0.039027	3.299860	1.000000	-0.000010	0.000066	-0.000063	-0.652200	-9.543371	177.833467
40565	2.161615	-0.112513	12.929971	0.009939	-0.035106	3.297159	1.000000	-0.000015	0.000064	-0.000073	-0.653516	-9.541481	177.833023
40566	2.141152	-0.157692	12.964711	0.037178	0.008362	3.328533	1.000000	-0.000012	0.000065	-0.000055	-0.654917	-9.539457	177.834979
40567	2.149304	-0.163103	12.911488	0.020241	0.014631	3.277462	1.000000	-0.000018	0.000053	-0.000048	-0.657065	-9.538728	177.837455
40568	2.153646	-0.185545	12.937257	0.020917	0.036614	3.303846	1.000000	0.000005	0.000055	-0.000067	-0.656272	-9.537833	177.837683
40569	2.135159	-0.168528	12.932744	0.037561	0.019063	3.296142	1.000000	-0.000004	0.000051	-0.000061	-0.656585	-9.537381	177.838632
40570	2.129779	-0.134905	12.940107	0.042584	-0.014978	3.302132	1.000000	-0.000012	0.000057	-0.000072	-0.657454	-9.536399	177.836235
40571	2.140043	-0.128798	12.919505	0.028892	-0.020243	3.283447	1.000000	0.000014	0.000033	-0.000065	-0.655655	-9.538011	177.836812
40572	2.152170	-0.111506	12.931555	0.018507	-0.037065	3.297144	1.000000	0.000001	0.000045	-0.000069	-0.655358	-9.538441	177.843036
40573	2.113487	-0.150616	12.928758	0.057891	0.000703	3.288418	1.000000	0.000002	0.000037	-0.000060	-0.655007	-9.539667	177.844200
40574	2.108634	-0.117021	12.936028	0.062931	-0.033344	3.294402	1.000000	-0.000015	0.000028	-0.000048	-0.656819	-9.541840	177.845709
40575	2.136427	-0.128014	12.920111	0.033789	-0.021354	3.283434	1.000000	-0.000009	0.000032	-0.000072	-0.657532	-9.543651	177.845451
40576	2.279455	-0.115948	12.945213	-0.103109	-0.028735	3.331758	1.000000	-0.000007	0.000033	-0.000054	-0.658343	-9.545286	177.847617
40577	2.180357	-0.155731	12.909119	-0.009611	0.007592	3.280189	1.000000	-0.000022	0.000043	-0.000050	-0.660886	-9.545741	177.849955
40578	2.217086	-0.116298	12.912259	-0.046544	-0.030746	3.288927	1.000000	0.000000	0.000027	-0.000069	-0.660482	-9.548027	177.848027
40579	2.201514	-0.144111	12.867828	-0.037024	-0.002965	3.242850	1.000000	-0.000021	0.000035	-0.000067	-0.662641	-9.549452	177.848355
40580	2.211976	-0.189345	12.919077	-0.036931	0.041240	3.295638	1.000000	-0.000017	0.000045	-0.000066	-0.664495	-9.549567	177.848074
40581	2.144780	-0.218066	12.932278	0.032769	0.066803	3.297839	1.000000	-0.000019	0.000036	-0.000075	-0.666266	-9.550883	177.847463
40582	2.219581	-0.245584	12.937851	-0.038927	0.096710	3.316059	1.000000	-0.000010	0.000058	-0.000081	-0.666851	-9.549701	177.845202
40583	2.153717	-0.212045	12.911911	0.020251	0.061243	3.279171	1.000000	0.000003	0.000046	-0.000077	-0.666054	-9.549869	177.844380
40584	2.260239	-0.227924	12.966876	-0.075166	0.080272	3.351218	1.000000	0.000001	0.000063	-0.000095	-0.665193	-9.548198	177.843479
40585	2.159902	-0.160960	12.931428	0.014953	0.010347	3.298856	1.000000	-0.000004	0.000051	-0.000062	-0.665507	-9.547742	177.844423
40586	2.171622	-0.143788	12.943559	0.004584	-0.006487	3.312565	1.000000	0.000004	0.000055	-0.000094	-0.664292	-9.546881	177.842204
40587	2.210315	-0.199309	12.978867	-0.025687	0.049945	3.354433	1.000000	0.000001	0.000053	-0.000051	-0.664269	-9.546186	177.844328
40588	2.184428	-0.170927	12.916109	-0.011802	0.021725	3.287931	1.000000	-0.000004	0.000051	-0.000062	-0.664540	-9.545740	177.843595
40589	2.187299	-0.204414	12.909181	-0.014493	0.055226	3.281959	1.000000	-0.000015	0.000046	-0.000074	-0.665916	-9.545869	177.843115
40590	2.199115	-0.187483	12.921300	-0.024823	0.038387	3.295675	1.000000	-0.000002	0.000052	-0.000070	-0.665826	-9.545482	177.846132
40591	2.147950	-0.126040	12.939888	0.026171	-0.025095	3.304818	1.000000	0.000008	0.000048	-0.000067	-0.664692	-9.545408	177.846488
40592	2.153254	-0.203672	12.893160	0.016201	0.053725	3.260507	1.000000	0.000005	0.000055	-0.000067	-0.663881	-9.544540	177.846654
40593	2.209849	-0.158496	12.966575	-0.029385	0.009441	3.341767	1.000000	-0.000004	0.000051	-0.000062	-0.664194	-9.544083	177.847595
40594	2.146409	-0.169777	12.900753	0.022544	0.019376	3.266473	1.000000	-0.000012	0.000057	-0.000073	-0.665247	-9.543105	177.849893
40595	2.205585	-0.169055	12.934353	-0.030319	0.020388	3.309406	1.000000	0.000017	0.000044	-0.000064	-0.663054	-9.543522	177.850599
40596	2.174385	-0.168796	12.917831	-0.002054	0.019440	3.287939	1.000000	-0.000005	0.000034	-0.000062	-0.663525	-9.545204	177.855742
40597	2.223778	-0.112024	12.933009	-0.050404	-0.035593	3.310447	1.000000	0.000009	0.000057	-0.000084	-0.661945	-9.544073	177.854110
40598	2.184862	-0.151106	12.930188	-0.011125	0.002283	3.301659	1.000000	-0.000000	0.000053	-0.000078	-0.661566	-9.543630	177.860103
40599	2.209656	-0.117008	12.954241	-0.032979	-0.031153	3.329100	1.000000	0.000003	0.000046	-0.000077	-0.660767	-9.543794	177.859275
40600	2.195268	-0.133529	12.942558	-0.020256	-0.014869	3.315382	1.000000	-0.000003	0.000061	-0.000079	-0.660687	-9.542175	177.855749
40601	2.176644	-0.116656	12.938013	-0.003545	-0.032347	3.307622	1.000000	-0.000004	0.000051	-0.000062	-0.661000	-9.541717	177.856687
40602	2.131890	-0.133558	12.909636	0.036213	-0.016692	3.272415	1.000000	-0.000006	0.000068	-0.000079	-0.661374	-9.539353	177.858502
40603	2.144921	-0.105461	12.954500	0.029324	-0.045088	3.318496	1.000000	0.000001	0.000053	-0.000051	-0.661351	-9.538656	177.860621
40604	2.134757	-0.155656	12.935667	0.038101	0.004974	3.298813	1.000000	-0.000004	0.000051	-0.000062	-0.661780	-9.538333	177.867147
40605	2.142129	-0.105064	12.954965	0.031797	-0.045664	3.318488	1.000000	-0.000001	0.000062	-0.000060	-0.661702	-9.536687	177.868217
40606	2.144877	-0.138383	12.948076	0.029025	-0.012200	3.312530	1.000000	-0.000004	0.000051	-0.000062	-0.662173	-9.536268	177.873527
40607	2.107626	-0.116001	12.906010	0.057821	-0.035295	3.264623	1.000000	-0.000006	0.000050	-0.000054	-0.662875	-9.535918	177.875401
40608	2.155371	-0.121243	12.960425	0.019964	-0.029393	3.326250	1.000000	-0.000001	0.000044	-0.000061	-0.663065	-9.536324	177.882106
40609	2.141279	-0.137923	12.948677	0.032675	-0.013071	3.312521	1.000000	-0.000006	0.000042	-0.000071	-0.663379	-9.536942	177.881969
40610	2.155883	-0.165430	12.920975	0.014884	0.015366	3.287937	1.000000	-0.000006	0.000042	-0.000071	-0.663668	-9.537401	177.876712
40611	2.122002	-0.120896	12.944217	0.050584	-0.030785	3.304735	1.000000	0.000002	0.000037	-0.000060	-0.663313	-9.538618	177.877866
40612	2.167000	-0.148078	12.933229	0.005836	-0.001760	3.301663	1.000000	-0.000007	0.000033	-0.000080	-0.663485	-9.540386	177.875007
40613	2.166163	-0.147924	12.933371	0.007048	-0.002039	3.301662	1.000000	-0.000005	0.000034	-0.000062	-0.663855	-9.541951	177.875917
40614	2.148029	-0.131221	12.928717	0.023804	-0.019546	3.293877	1.000000	-0.000012	0.000039	-0.000073	-0.665202	-9.543011	177.885558
40615	2.205894	-0.141687	12.929697	-0.032452	-0.007193	3.304553	1.000000	-0.000010	0.000040	-0.000081	-0.665851	-9.543866	177.884237
40616	2.180666	-0.164363	12.938638	-0.004836	0.014205	3.309448	1.000000	-0.000008	0.000023	-0.000063	-0.666643	-9.546567	177.884385
40617	2.179910	-0.164175	12.938767	-0.003625	0.013925	3.309449	1.000000	0.000002	0.000037	-0.000060	-0.666289	-9.547783	177.885537
40618	2.183239	-0.197375	12.931798	-0.006475	0.047404	3.303509	1.000000	0.000002	0.000037	-0.000060	-0.665966	-9.549056	177.888816
40619	2.183705	-0.186278	12.964659	-0.001774	0.035585	3.335863	1.000000	-0.000017	0.000045	-0.000066	-0.667729	-9.549291	177.889260
40620	2.222750	-0.191151	12.928179	-0.045993	0.042302	3.306423	1.000000	-0.000006	0.000042	-0.000071	-0.667966	-9.549945	177.888057
40621	2.233114	-0.185026	12.907632	-0.059740	0.036931	3.287811	1.000000	0.000001	0.000045	-0.000069	-0.667555	-9.550212	177.888160
40622	2.231989	-0.184738	12.907831	-0.058493	0.036631	3.287818	1.000000	-0.000001	0.000044	-0.000061	-0.667560	-9.550789	177.894774
40623	2.190701	-0.179594	12.944685	-0.011836	0.029385	3.317252	1.000000	0.000001	0.000045	-0.000069	-0.667149	-9.551056	177.894876
40624	2.176480	-0.196125	12.932956	0.000808	0.045746	3.303516	1.000000	0.000005	0.000055	-0.000068	-0.666291	-9.550118	177.892611
40625	2.162137	-0.212566	12.921248	0.013447	0.062098	3.289779	1.000000	0.000004	0.000056	-0.000094	-0.665043	-9.549216	177.889786
40626	2.186596	-0.178494	12.945395	-0.008170	0.028545	3.317256	1.000000	-0.000012	0.000057	-0.000073	-0.666056	-9.548342	177.894632
40627	2.172414	-0.195069	12.933656	0.004464	0.044901	3.303518	1.000000	0.000013	0.000042	-0.000074	-0.664195	-9.548987	177.894148
40628	2.189830	-0.149252	12.899531	-0.020100	0.000659	3.272233	1.000000	0.000002	0.000054	-0.000086	-0.663352	-9.548285	177.894253
40629	2.177045	-0.154636	12.920490	-0.003930	0.005478	3.290841	1.000000	0.000010	0.000049	-0.000075	-0.661826	-9.548090	177.893658
40630	2.188665	-0.137265	12.932672	-0.014091	-0.011468	3.304583	1.000000	-0.000000	0.000053	-0.000078	-0.661453	-9.547588	177.899297
40631	2.203243	-0.164583	12.905030	-0.031990	0.016905	3.280053	1.000000	-0.000004	0.000043	-0.000079	-0.661374	-9.548092	177.898212
40632	2.196222	-0.141769	12.879684	-0.030182	-0.005603	3.253636	1.000000	0.000005	0.000055	-0.000068	-0.660599	-9.547184	177.898570
40633	2.190784	-0.158749	12.958865	-0.011042	0.009901	3.331007	1.000000	0.000002	0.000037	-0.000060	-0.660243	-9.548397	177.899717
40634	2.196839	-0.118948	12.945450	-0.020633	-0.029230	3.318331	1.000000	0.000008	0.000048	-0.000067	-0.659029	-9.548295	177.896936
40635	2.194263	-0.129647	12.912960	-0.022988	-0.017971	3.285988	1.000000	-0.000006	0.000042	-0.000071	-0.659341	-9.548908	177.896789
40636	2.180028	-0.146320	12.901225	-0.010405	-0.001620	3.272244	1.000000	0.000001	0.000063	-0.000068	-0.658972	-9.547055	177.895317
40637	2.190124	-0.140095	12.880741	-0.024164	-0.007014	3.253648	1.000000	0.000004	0.000046	-0.000051	-0.658618	-9.547189	177.897536
40638	2.191600	-0.117796	12.946348	-0.015776	-0.030373	3.318335	1.000000	-0.000005	0.000060	-0.000071	-0.658847	-9.545810	177.896597
40639	2.200313	-0.122632	12.893175	-0.033119	-0.024230	3.267400	1.000000	0.000006	0.000047	-0.000059	-0.658102	-9.545833	177.897876
40640	2.200218	-0.111271	12.926121	-0.028300	-0.036057	3.299743	1.000000	-0.000002	0.000070	-0.000069	-0.657975	-9.543279	177.898628
40641	2.185780	-0.127990	12.914416	-0.015710	-0.019676	3.285996	1.000000	-0.000004	0.000051	-0.000062	-0.658289	-9.542813	177.899551
40642	2.192747	-0.077382	12.933768	-0.021676	-0.070384	3.305661	1.000000	-0.000006	0.000068	-0.000080	-0.658524	-9.540390	177.896592
40643	2.202679	-0.071208	12.913321	-0.035429	-0.075790	3.287073	1.000000	-0.000000	0.000053	-0.000078	-0.658055	-9.539703	177.895636
40644	2.172516	-0.060427	12.929415	-0.003650	-0.088029	3.297823	1.000000	-0.000014	0.000056	-0.000065	-0.659405	-9.538768	177.895709
40645	2.186970	-0.088044	12.901827	-0.021623	-0.059681	3.273324	1.000000	-0.000012	0.000057	-0.000073	-0.660386	-9.537702	177.895336
40646	2.189981	-0.121652	12.894943	-0.024687	-0.026194	3.267415	1.000000	-0.000021	0.000053	-0.000067	-0.662441	-9.536860	177.887465
40647	2.142419	-0.145557	12.978038	0.036444	-0.005963	3.341752	1.000000	-0.000020	0.000070	-0.000066	-0.664485	-9.534227	177.887808
40648	2.209897	-0.161137	12.925904	-0.038448	0.012516	3.301693	1.000000	-0.000021	0.000053	-0.000067	-0.666647	-9.533606	177.888232
40649	-3.509663	3.440414	9.538936	4.894363	-3.727739	-1.020952	1.000000	0.000615	0.000769	0.000143	-0.599832	-9.450598	177.912043
40650	6.445744	-2.697911	16.939085	-3.479801	2.640777	7.982711	0.999999	0.000068	-0.000153	0.001417	-0.619962	-9.471690	178.088929
40651	0.662828	-3.618822	13.960404	1.786850	3.401145	4.103752	0.999998	-0.000693	-0.001205	-0.001535	-0.671081	-9.617051	177.920260
40652	4.575007	2.865274	10.944756	-2.792031	-2.892881	1.709637	1.000000	0.000058	-0.000260	-0.000082	-0.664100	-9.652200	177.919288
40653	1.824670	-0.005444	13.289418	0.420974	-0.163160	3.593812	1.000000	0.000061	0.000194	-0.000004	-0.658063	-9.635328	177.926691
40654	2.611822	-1.364048	12.966479	-0.359781	1.226706	3.422779	1.000000	-0.000158	0.000128	0.000039	-0.677972	-9.625966	177.939255
40655	3.166113	-0.294728	12.545796	-1.018197	0.183777	3.088383	1.000000	0.000039	0.000072	-0.000091	-0.672713	-9.623195	177.936703
40656	2.420848	0.569220	13.216852	-0.207585	-0.717009	3.615362	1.000000	-0.000008	0.000218	-0.000183	-0.671073	-9.603890	177.923351
40657	2.360609	-0.309169	12.878055	-0.174703	0.164356	3.281389	1.000000	-0.000030	0.000152	0.000010	-0.675671	-9.591768	177.932508
40658	2.592558	-0.390476	12.987562	-0.386066	0.251124	3.428856	1.000000	-0.000047	0.000251	-0.000134	-0.679490	-9.568570	177.924813
40659	1.546327	-0.794431	12.985057	0.655875	0.618044	3.257194	1.000000	0.000062	0.000161	-0.000127	-0.670957	-9.555592	177.918034
40660	2.125283	0.186981	13.014833	0.049620	-0.340286	3.371372	1.000000	0.000063	0.000171	-0.000144	-0.662036	-9.541595	177.909271
40661	1.664949	-0.233654	12.957375	0.506988	0.066118	3.243300	1.000000	0.000032	0.000157	-0.000136	-0.656735	-9.529175	177.901398
40662	1.907260	0.135642	12.969594	0.254264	-0.293695	3.291339	1.000000	-0.000002	0.000070	-0.000069	-0.656651	-9.526584	177.901400
40663	1.516201	-0.425508	12.937619	0.655422	0.253692	3.201458	1.000000	0.000008	0.000076	-0.000136	-0.654111	-9.523435	177.893638
40664	2.012523	0.121434	13.025516	0.160449	-0.276144	3.364075	1.000000	-0.000001	-0.000043	-0.000045	-0.654442	-9.533789	177.896676
40665	1.676401	-0.337397	12.792225	0.473300	0.173791	3.083473	1.000000	-0.000021	-0.000044	-0.000034	-0.657293	-9.544251	177.900989
40666	2.322997	-0.209364	13.015007	-0.129215	0.064619	3.408874	1.000000	-0.000027	-0.000082	-0.000071	-0.660163	-9.558973	177.901007
40667	2.223326	-0.411568	12.813442	-0.053237	0.266392	3.195889	1.000000	0.000021	-0.000077	-0.000038	-0.658045	-9.573188	177.904847
40668	2.287563	-0.090826	12.939839	-0.104998	-0.053355	3.327585	1.000000	0.000032	-0.000054	-0.000104	-0.653517	-9.584794	177.900946
40669	2.569604	-0.219084	12.972111	-0.370011	0.085052	3.407841	1.000000	0.000010	-0.000047	-0.000076	-0.651899	-9.595561	177.900334
40670	2.573170	0.033648	12.959672	-0.383372	-0.166999	3.393394	1.000000	-0.000000	-0.000008	-0.000070	-0.651690	-9.601878	177.900353
40671	2.640018	-0.350651	12.886382	-0.445641	0.220854	3.336614	1.000000	0.000009	0.000032	-0.000075	-0.650213	-9.603698	177.899721
40672	2.515051	-0.061498	12.958217	-0.321442	-0.073439	3.383370	1.000000	0.000015	0.000043	-0.000082	-0.648013	-9.604232	177.898287
40673	2.496884	-0.161576	12.920335	-0.306420	0.027161	3.344097	1.000000	0.000017	0.000088	-0.000098	-0.645212	-9.599634	177.894903
40674	2.425956	-0.212146	12.867940	-0.244548	0.076705	3.281146	1.000000	0.000020	0.000106	-0.000080	-0.642470	-9.592922	177.893459
40675	2.301637	-0.095692	12.834249	-0.133957	-0.042713	3.225904	1.000000	0.000031	0.000129	-0.000093	-0.638130	-9.583565	177.890612
40676	2.248477	-0.022847	12.885588	-0.078328	-0.117158	3.266864	1.000000	0.000035	0.000158	-0.000118	-0.632952	-9.571063	177.884869
40677	2.043678	-0.014859	12.891490	0.121700	-0.131871	3.238564	1.000000	0.000008	0.000127	-0.000074	-0.631572	-9.561905	177.884236
40678	2.009128	-0.026038	12.842390	0.146043	-0.120869	3.184556	1.000000	-0.000000	0.000123	-0.000068	-0.631346	-9.553265	177.884302
40679	1.930087	-0.050127	12.908620	0.234178	-0.100665	3.237034	1.000000	0.000002	0.000098	-0.000068	-0.630789	-9.547435	177.884450
40680	2.076991	-0.058449	12.960942	0.097280	-0.088028	3.313093	1.000000	-0.000016	0.000081	-0.000039	-0.632941	-9.543633	177.887981
40681	1.958491	-0.027626	12.991551	0.217325	-0.123999	3.323303	1.000000	-0.000007	0.000059	-0.000036	-0.634049	-9.542307	177.891842
40682	2.038025	-0.087888	12.990772	0.140994	-0.061449	3.336372	1.000000	-0.000033	0.000046	-0.000045	-0.638067	-9.542413	177.894721
40683	2.086756	-0.031259	13.006319	0.093532	-0.117121	3.359153	1.000000	-0.000006	0.000033	-0.000028	-0.639277	-9.544064	177.899611
40684	2.127598	-0.153379	12.936690	0.047050	0.007169	3.298601	1.000000	-0.000019	0.000018	-0.000049	-0.641545	-9.547398	177.901997
40685	2.273836	-0.055596	12.989461	-0.091575	-0.086718	3.373807	1.000000	-0.000023	0.000034	-0.000059	-0.644080	-9.548930	177.903217
40686	2.183727	-0.175009	12.905462	-0.011850	0.030209	3.277354	1.000000	-0.000022	0.000043	-0.000050	-0.646635	-9.549399	177.905514
40687	2.276084	-0.218173	12.916737	-0.099460	0.075930	3.304271	1.000000	-0.000026	0.000059	-0.000086	-0.649004	-9.548080	177.903576
40688	2.199467	-0.180858	12.943550	-0.021267	0.035078	3.317589	1.000000	-0.000007	0.000059	-0.000063	-0.649672	-9.546787	177.904372
40689	2.137430	-0.181908	12.909953	0.033646	0.034335	3.274187	1.000000	-0.000016	0.000090	-0.000109	-0.650432	-9.541911	177.899769
40690	2.112178	-0.193676	12.951637	0.064900	0.044461	3.311242	1.000000	-0.000001	0.000080	-0.000087	-0.649878	-9.538251	177.897766
40691	2.010798	-0.179089	12.987103	0.169331	0.025627	3.329264	1.000000	-0.000012	0.000075	-0.000099	-0.650355	-9.535163	177.894326
40692	1.996243	-0.195949	12.975354	0.181736	0.042123	3.315465	1.000000	-0.000002	0.000070	-0.000070	-0.650252	-9.532556	177.894313
40693	1.960107	-0.162922	12.965698	0.214257	0.007924	3.299593	1.000000	-0.000008	0.000041	-0.000063	-0.650949	-9.533269	177.895082
40694	1.956921	-0.235717	12.972299	0.221544	0.080341	3.306386	1.000000	-0.000003	0.000035	-0.000070	-0.650940	-9.534701	177.895026
40695	1.951595	-0.202051	12.979502	0.227226	0.046363	3.312222	1.000000	-0.000000	0.000018	-0.000052	-0.651017	-9.538040	177.897072
40696	2.001085	-0.273231	12.928983	0.173740	0.120110	3.271386	1.000000	-0.000002	0.000009	-0.000062	-0.651113	-9.542434	177.898044
40697	2.080900	-0.215408	12.961416	0.099548	0.064539	3.315937	1.000000	-0.000001	-0.000018	-0.000027	-0.651739	-9.549815	177.903114
40698	2.150759	-0.230089	12.909256	0.024325	0.082540	3.276246	1.000000	-0.000002	-0.000017	-0.000080	-0.651485	-9.557191	177.902048
40699	2.155867	-0.263180	12.902090	0.021023	0.115993	3.270396	1.000000	0.000007	-0.000013	-0.000059	-0.650538	-9.564121	177.903357
40700	2.264874	-0.215521	12.918752	-0.083842	0.072093	3.304402	1.000000	-0.000002	-0.000017	-0.000080	-0.650292	-9.571496	177.902293
40701	2.341520	-0.241269	12.924909	-0.155840	0.100667	3.323513	1.000000	0.000011	-0.000003	-0.000084	-0.648502	-9.577249	177.900668
40702	2.311374	-0.241007	12.907962	-0.127819	0.100179	3.301795	1.000000	0.000025	0.000013	-0.000097	-0.644873	-9.581208	177.897543
40703	2.336425	-0.205786	12.932115	-0.148924	0.066325	3.329392	1.000000	0.000027	0.000014	-0.000105	-0.640798	-9.585078	177.893476
40704	2.313725	-0.154842	12.934394	-0.127520	0.015338	3.327303	1.000000	0.000018	0.000036	-0.000108	-0.637795	-9.586421	177.889073
40705	2.370543	-0.174658	12.903171	-0.187733	0.038473	3.306195	1.000000	0.000024	0.000047	-0.000088	-0.634420	-9.586459	177.886930
40706	2.305707	-0.130348	12.909205	-0.124454	-0.007443	3.300867	1.000000	0.000031	0.000042	-0.000077	-0.630437	-9.587094	177.886089
40707	2.298436	-0.106915	12.883866	-0.122600	-0.029911	3.274418	1.000000	0.000016	0.000070	-0.000099	-0.627683	-9.584505	177.882666
40708	2.230833	-0.135788	12.896466	-0.053356	-0.003119	3.275896	1.000000	0.000019	0.000071	-0.000081	-0.625052	-9.581797	177.881379
40709	2.194320	-0.102111	12.886861	-0.020780	-0.037276	3.259988	1.000000	0.000022	0.000064	-0.000080	-0.622027	-9.579918	177.880196
40710	2.216932	-0.128987	12.950422	-0.031975	-0.010025	3.326709	1.000000	0.000019	0.000071	-0.000081	-0.619394	-9.577212	177.878904
40711	2.191849	-0.089354	12.920172	-0.014428	-0.049408	3.292288	1.000000	0.000021	0.000072	-0.000062	-0.616775	-9.574368	177.879736
40712	2.142597	-0.072849	12.898510	0.029288	-0.066762	3.262567	1.000000	0.000014	0.000069	-0.000091	-0.614464	-9.571903	177.877256
40713	2.172271	-0.060418	12.948458	0.007631	-0.078464	3.316622	1.000000	0.000015	0.000043	-0.000056	-0.612663	-9.572393	177.878871
40714	2.193441	-0.109526	12.946523	-0.011411	-0.028109	3.318753	1.000000	0.000018	0.000036	-0.000081	-0.610106	-9.573743	177.877532
40715	2.186494	-0.086380	12.921100	-0.009546	-0.050556	3.292288	1.000000	0.000012	0.000050	-0.000083	-0.608183	-9.573406	177.875964
40716	2.261710	-0.111710	12.927631	-0.081558	-0.022140	3.311501	1.000000	0.000015	0.000043	-0.000082	-0.605960	-9.573918	177.874512
40717	2.231465	-0.100476	12.943528	-0.049596	-0.034100	3.322031	1.000000	0.000025	0.000057	-0.000079	-0.602595	-9.572874	177.873438
40718	2.271632	-0.092834	12.940166	-0.090216	-0.039538	3.325316	1.000000	0.000021	0.000054	-0.000063	-0.600058	-9.572072	177.874248
40719	2.222605	-0.076430	12.918438	-0.046503	-0.056847	3.295572	1.000000	0.000015	0.000069	-0.000064	-0.598161	-9.569580	177.874829
40720	2.180117	-0.071559	12.955068	0.000526	-0.063544	3.324579	1.000000	0.000004	0.000082	-0.000076	-0.597303	-9.565673	177.873998
40721	2.178295	-0.071115	12.955376	0.001751	-0.063825	3.324578	1.000000	0.000014	0.000059	-0.000021	-0.596317	-9.564235	177.879643
40722	2.140799	-0.048982	12.912984	0.030418	-0.086363	3.276323	1.000000	0.000011	0.000067	-0.000048	-0.595236	-9.561991	177.882108
40723	2.102226	-0.088984	12.909806	0.068854	-0.047751	3.267196	1.000000	-0.000014	0.000073	-0.000065	-0.596571	-9.558999	177.882659
40724	2.166165	-0.059355	12.897946	0.002106	-0.075278	3.265812	1.000000	-0.000024	0.000068	-0.000051	-0.599438	-9.556605	177.884850
40725	2.052302	-0.062839	12.921012	0.117767	-0.076827	3.269693	1.000000	-0.000017	0.000063	-0.000066	-0.601154	-9.554804	177.885266
40726	2.126055	-0.100131	12.895010	0.041746	-0.036936	3.256678	1.000000	-0.000027	0.000067	-0.000069	-0.603946	-9.552531	177.885318
40727	2.053981	-0.097037	12.914443	0.115566	-0.043642	3.263850	1.000000	-0.000029	0.000049	-0.000061	-0.607156	-9.552389	177.886291
40728	2.110864	-0.168938	12.955258	0.068989	0.028919	3.314285	1.000000	-0.000030	0.000049	-0.000088	-0.609918	-9.552264	177.884194
40729	2.114648	-0.202668	12.948358	0.065542	0.062362	3.308464	1.000000	-0.000019	0.000036	-0.000076	-0.611660	-9.553568	177.883511
40730	2.113598	-0.202752	12.948528	0.066748	0.062087	3.308459	1.000000	-0.000013	0.000048	-0.000083	-0.612645	-9.553567	177.882021
40731	2.177601	-0.234936	12.975741	0.009748	0.095636	3.346254	1.000000	-0.000031	0.000022	-0.000071	-0.615881	-9.556531	177.881895
40732	2.188638	-0.229051	12.955208	-0.004111	0.090078	3.327780	1.000000	-0.000009	0.000024	-0.000090	-0.616176	-9.559279	177.879555
40733	2.205395	-0.245262	12.960327	-0.018630	0.106676	3.335783	1.000000	-0.000009	0.000032	-0.000073	-0.616858	-9.561064	177.879232
40734	2.198711	-0.222708	12.934849	-0.016770	0.084233	3.309312	1.000000	-0.000003	0.000035	-0.000070	-0.616850	-9.562496	177.879157
40735	2.239340	-0.215474	12.931480	-0.057394	0.078709	3.312660	1.000000	0.000011	0.000041	-0.000066	-0.615374	-9.563217	177.879577
40736	2.195909	-0.232871	12.902480	-0.018400	0.095219	3.277035	1.000000	0.000005	0.000030	-0.000059	-0.614708	-9.565248	177.880808
40737	2.220053	-0.198300	12.926806	-0.039259	0.061256	3.304666	1.000000	0.000003	0.000046	-0.000051	-0.614362	-9.565361	177.882997
40738	2.188808	-0.198606	12.909940	-0.011298	0.060937	3.282847	1.000000	0.000017	0.000052	-0.000047	-0.612618	-9.564770	177.885678
40739	2.171128	-0.170626	12.937834	0.009685	0.032233	3.307120	1.000000	0.000011	0.000041	-0.000066	-0.611141	-9.565491	177.886098
40740	2.170021	-0.169942	12.938029	0.010895	0.031944	3.307119	1.000000	0.000022	0.000046	-0.000054	-0.608664	-9.565619	177.887968
40741	2.163998	-0.135823	12.945290	0.016825	-0.002041	3.312920	1.000000	0.000011	0.000041	-0.000066	-0.607187	-9.566339	177.888387
40742	2.186127	-0.123090	12.904247	-0.012106	-0.012910	3.275994	1.000000	0.000013	0.000042	-0.000074	-0.605360	-9.566947	177.887869
40743	2.160881	-0.145737	12.912971	0.015188	0.008953	3.280638	1.000000	0.000003	0.000046	-0.000077	-0.604548	-9.567069	177.886983
40744	2.178361	-0.150664	12.950842	0.004732	0.013958	3.320935	1.000000	-0.000004	0.000026	-0.000080	-0.604537	-9.569580	177.885832
40745	2.171589	-0.127904	12.925367	0.006610	-0.008467	3.294454	1.000000	0.000003	0.000047	-0.000104	-0.603257	-9.569711	177.881873
40746	2.199604	-0.137472	12.909963	-0.022995	0.002794	3.284020	1.000000	0.000018	0.000036	-0.000081	-0.600695	-9.571040	177.880525
40747	2.241106	-0.118967	12.939333	-0.059511	-0.014361	3.319689	1.000000	-0.000006	0.000042	-0.000098	-0.600529	-9.571641	177.877258
40748	2.251575	-0.112541	12.918924	-0.073371	-0.019959	3.301239	1.000000	0.000003	0.000046	-0.000077	-0.599757	-9.571768	177.876375
40749	2.243787	-0.151654	12.932675	-0.061837	0.018755	3.313907	1.000000	-0.000001	0.000044	-0.000088	-0.599268	-9.572129	177.874296
40750	2.254047	-0.145264	12.912305	-0.075704	0.013152	3.295461	1.000000	-0.000003	0.000061	-0.000079	-0.599182	-9.570585	177.873181
40751	2.241762	-0.139974	12.965884	-0.055306	0.006606	3.346193	1.000000	0.000001	0.000063	-0.000069	-0.598727	-9.568790	177.873254
40752	2.246038	-0.111070	12.919901	-0.068499	-0.021140	3.301264	1.000000	0.000012	0.000050	-0.000057	-0.597310	-9.568446	177.874746
40753	2.191414	-0.123628	12.944230	-0.010391	-0.010773	3.316305	1.000000	0.000001	0.000063	-0.000069	-0.596855	-9.566650	177.874818
40754	2.142278	-0.107702	12.922349	0.033308	-0.027849	3.286403	1.000000	0.000015	0.000069	-0.000065	-0.595002	-9.564163	177.875388
40755	2.141646	-0.096317	12.955297	0.038647	-0.039685	3.318671	1.000000	-0.000011	0.000048	-0.000064	-0.596039	-9.564032	177.876017
40756	2.121891	-0.091025	12.917792	0.051502	-0.045232	3.278353	1.000000	-0.000003	0.000061	-0.000053	-0.596415	-9.562482	177.877979
40757	2.132924	-0.073726	12.930129	0.041764	-0.062381	3.292174	1.000000	-0.000004	0.000052	-0.000062	-0.596733	-9.561994	177.878857
40758	2.125134	-0.113126	12.943866	0.053267	-0.023648	3.304830	1.000000	-0.000008	0.000041	-0.000063	-0.597465	-9.562709	177.879605
40759	2.159764	-0.083683	12.914956	0.013357	-0.051440	3.281771	1.000000	-0.000006	0.000042	-0.000071	-0.597765	-9.563299	177.879406
40760	2.158764	-0.083735	12.915122	0.014578	-0.051725	3.281768	1.000000	-0.000019	0.000036	-0.000049	-0.600005	-9.564599	177.881786
40761	2.168476	-0.139650	12.933905	0.010298	0.003828	3.302478	1.000000	-0.000012	0.000057	-0.000073	-0.600987	-9.563513	177.881357
40762	2.191490	-0.116474	12.925598	-0.014518	-0.018668	3.297870	1.000000	-0.000020	0.000027	-0.000085	-0.602737	-9.565897	177.879588
40763	2.178066	-0.133660	12.913654	-0.002368	-0.002062	3.284040	1.000000	-0.000009	0.000050	-0.000072	-0.603378	-9.565648	177.879272
40764	2.206616	-0.132635	12.931053	-0.027855	-0.002433	3.305929	1.000000	-0.000005	0.000060	-0.000071	-0.603670	-9.564212	177.879103
40765	2.209477	-0.177056	12.891529	-0.035655	0.042539	3.267893	1.000000	-0.000015	0.000047	-0.000075	-0.605029	-9.564319	177.878537
40766	2.155813	-0.179140	12.948453	0.026616	0.041442	3.315132	1.000000	-0.000012	0.000057	-0.000073	-0.606038	-9.563247	177.878086
40767	2.177514	-0.166957	12.907542	-0.002369	0.030500	3.278269	1.000000	-0.000015	0.000064	-0.000074	-0.607362	-9.561323	177.877540
40768	2.146077	-0.218768	12.962504	0.039273	0.079908	3.327788	1.000000	-0.000015	0.000064	-0.000074	-0.608719	-9.559408	177.876994
40769	2.180312	-0.189428	12.933701	-0.000632	0.052062	3.304765	1.000000	-0.000008	0.000049	-0.000046	-0.609830	-9.559149	177.879751
40770	2.114282	-0.208536	12.978464	0.072566	0.067898	3.338142	1.000000	0.000003	0.000046	-0.000051	-0.609518	-9.559264	177.881928
40771	2.129663	-0.235639	12.951047	0.053795	0.095978	3.313946	1.000000	-0.000010	0.000058	-0.000081	-0.610104	-9.558059	177.880552
40772	2.129125	-0.224344	12.983970	0.059198	0.084135	3.346203	1.000000	0.000006	0.000047	-0.000059	-0.609399	-9.558050	177.881806
40773	2.133835	-0.195551	12.937927	0.045983	0.056393	3.301281	1.000000	-0.000002	0.000035	-0.000071	-0.609355	-9.559473	177.881716
40774	2.121287	-0.201353	12.958659	0.062294	0.061454	3.319699	1.000000	0.000004	0.000038	-0.000068	-0.608636	-9.560544	177.881860
40775	2.185928	-0.170603	12.946995	-0.004279	0.033449	3.318608	1.000000	0.000004	0.000038	-0.000068	-0.607874	-9.561609	177.882019
40776	2.196826	-0.164079	12.926550	-0.018174	0.027811	3.300191	1.000000	0.000004	0.000020	-0.000069	-0.607190	-9.564705	177.882165
40777	2.177789	-0.158451	12.888910	-0.005396	0.022318	3.259855	1.000000	0.000006	0.000039	-0.000077	-0.606032	-9.565654	177.881381
40778	2.206658	-0.157082	12.906295	-0.030863	0.021883	3.281779	1.000000	-0.000001	0.000045	-0.000088	-0.605588	-9.566007	177.879288
40779	2.205630	-0.156748	12.906475	-0.029654	0.021599	3.281782	1.000000	0.000002	0.000037	-0.000060	-0.605222	-9.567187	177.880388
40780	2.228603	-0.133066	12.898220	-0.054426	-0.000970	3.277213	1.000000	0.000003	0.000046	-0.000077	-0.604455	-9.567305	177.879471
40781	2.215749	-0.138691	12.919005	-0.038103	0.004100	3.295630	1.000000	0.000010	0.000050	-0.000075	-0.602922	-9.567058	177.878820
40782	2.214394	-0.138146	12.919243	-0.036891	0.003805	3.295634	1.000000	0.000007	0.000057	-0.000076	-0.601774	-9.565976	177.878075
40783	2.195551	-0.121466	12.914390	-0.019876	-0.013240	3.287546	1.000000	0.000003	0.000047	-0.000077	-0.600957	-9.566085	177.877174
40784	2.200112	-0.143307	12.940272	-0.019350	0.008585	3.314049	1.000000	0.000009	0.000058	-0.000084	-0.599419	-9.564890	177.875472
40785	2.181034	-0.126631	12.935452	-0.002332	-0.008453	3.305956	1.000000	0.000001	0.000063	-0.000069	-0.598966	-9.563084	177.875531
40786	2.167209	-0.143325	12.923566	0.009737	0.008188	3.292110	1.000000	0.000012	0.000051	-0.000083	-0.597075	-9.562731	177.873924
40787	2.190562	-0.108548	12.948078	-0.010745	-0.025954	3.319802	1.000000	-0.000010	0.000058	-0.000081	-0.597661	-9.561522	177.872540
40788	2.188412	-0.119384	12.915621	-0.013799	-0.014681	3.287552	1.000000	-0.000000	0.000054	-0.000078	-0.597231	-9.560801	177.871527
40789	2.176271	-0.114015	12.969090	0.006813	-0.021157	3.338205	1.000000	0.000011	0.000041	-0.000066	-0.595750	-9.561505	177.871931
40790	2.156160	-0.119407	12.898791	0.015281	-0.015060	3.265601	1.000000	0.000008	0.000049	-0.000067	-0.594655	-9.561381	177.872217
40791	2.167956	-0.090866	12.943847	0.009950	-0.043841	3.311696	1.000000	-0.000006	0.000051	-0.000054	-0.595371	-9.561003	177.874024
40792	2.183556	-0.117874	12.916457	-0.008936	-0.015825	3.287555	1.000000	0.000003	0.000047	-0.000077	-0.594595	-9.561117	177.873119
40793	2.218795	-0.077107	12.920380	-0.044493	-0.055368	3.296858	1.000000	-0.000010	0.000040	-0.000055	-0.595685	-9.561933	177.874790
40794	2.176035	-0.084364	12.923893	-0.001506	-0.050076	3.293294	1.000000	-0.000016	0.000055	-0.000057	-0.597509	-9.561089	177.876207
40795	2.179948	-0.117690	12.917068	-0.005288	-0.016679	3.287556	1.000000	0.000003	0.000046	-0.000051	-0.597165	-9.561189	177.878378
40796	2.190952	-0.100327	12.929444	-0.014886	-0.033914	3.301408	1.000000	-0.000010	0.000058	-0.000055	-0.598257	-9.559981	177.880072
40797	2.201204	-0.094338	12.909131	-0.028793	-0.039580	3.283016	1.000000	-0.000023	0.000052	-0.000059	-0.600749	-9.559480	177.881260
40798	2.187524	-0.111788	12.897205	-0.016765	-0.022920	3.269165	1.000000	-0.000019	0.000054	-0.000076	-0.602482	-9.558760	177.880546
40799	2.167971	-0.157690	12.931501	0.009681	0.021248	3.300212	1.000000	-0.000022	0.000061	-0.000077	-0.604524	-9.557187	177.879732
40800	2.178883	-0.140546	12.943894	0.000093	0.004006	3.314066	1.000000	-0.000009	0.000050	-0.000073	-0.605201	-9.556933	177.879435
40801	2.165353	-0.157801	12.931938	0.012103	0.020683	3.300211	1.000000	-0.000018	0.000045	-0.000067	-0.606953	-9.557150	177.879795
40802	2.128412	-0.187433	12.961080	0.054369	0.048139	3.323125	1.000000	-0.000012	0.000057	-0.000073	-0.607975	-9.556062	177.879357
40803	2.167732	-0.191209	12.925372	0.009481	0.053790	3.294481	1.000000	-0.000011	0.000067	-0.000091	-0.608505	-9.553895	177.876907
40804	2.166315	-0.191236	12.925609	0.010688	0.053502	3.294481	1.000000	-0.000018	0.000045	-0.000067	-0.610301	-9.554117	177.877276
40805	2.141250	-0.214679	12.934164	0.037808	0.075586	3.299006	1.000000	-0.000008	0.000041	-0.000064	-0.610992	-9.554812	177.878000
40806	2.164744	-0.179986	12.958686	0.017456	0.041369	3.326720	1.000000	0.000003	0.000047	-0.000078	-0.610223	-9.554918	177.877099
40807	2.138985	-0.214070	12.934549	0.040214	0.075026	3.299002	1.000000	0.000001	0.000045	-0.000069	-0.609800	-9.555136	177.877131
40808	2.191825	-0.189397	12.943641	-0.011099	0.052102	3.316478	1.000000	-0.000007	0.000033	-0.000054	-0.610585	-9.556794	177.878922
40809	2.160931	-0.190195	12.926525	0.016718	0.052094	3.294481	1.000000	0.000008	0.000049	-0.000067	-0.609446	-9.556653	177.879205
40810	2.183806	-0.166380	12.918350	-0.007979	0.029426	3.289966	1.000000	0.000002	0.000037	-0.000060	-0.609128	-9.557824	177.880320
40811	2.182991	-0.166060	12.918492	-0.006770	0.029146	3.289967	1.000000	0.000001	0.000028	-0.000070	-0.608734	-9.560074	177.880332
40812	2.194361	-0.148544	12.930822	-0.016318	0.011877	3.303830	1.000000	-0.000001	0.000044	-0.000061	-0.608760	-9.560411	177.881309
40813	2.193354	-0.148055	12.930998	-0.015105	0.011595	3.303832	1.000000	0.000016	0.000035	-0.000073	-0.606536	-9.561825	177.880880
40814	2.180047	-0.164715	12.919006	-0.003147	0.028281	3.289970	1.000000	0.000003	0.000047	-0.000078	-0.605772	-9.561916	177.880011
40815	2.190529	-0.158063	12.898684	-0.017081	0.022586	3.271602	1.000000	0.000005	0.000048	-0.000086	-0.604554	-9.561897	177.878155
40816	2.189807	-0.146550	12.931617	-0.011466	0.010724	3.303836	1.000000	0.000004	0.000056	-0.000068	-0.603817	-9.560939	177.878265
40817	2.188409	-0.146173	12.931858	-0.010254	0.010442	3.303838	1.000000	-0.000000	0.000054	-0.000078	-0.603341	-9.560201	177.877234
40818	2.187267	-0.145589	12.932058	-0.009041	0.010149	3.303839	1.000000	0.000018	0.000036	-0.000082	-0.600771	-9.561498	177.875871
40819	2.168613	-0.129038	12.927101	0.008030	-0.006806	3.295682	1.000000	-0.000013	0.000048	-0.000083	-0.601726	-9.561477	177.874336
40820	2.173302	-0.151110	12.952975	0.008533	0.015002	3.322203	1.000000	0.000008	0.000049	-0.000067	-0.600624	-9.561338	177.874653
40821	2.177949	-0.122096	12.906978	-0.004689	-0.012796	3.277319	1.000000	0.000006	0.000039	-0.000077	-0.599459	-9.562272	177.873853
40822	2.194565	-0.137766	12.912294	-0.019339	0.003578	3.285482	1.000000	0.000004	0.000038	-0.000069	-0.598746	-9.563324	177.874032
40823	2.164222	-0.127481	12.927852	0.012888	-0.007940	3.295678	1.000000	0.000001	0.000046	-0.000069	-0.598323	-9.563538	177.874058
40824	2.186996	-0.103737	12.919711	-0.011759	-0.030658	3.291188	1.000000	-0.000001	0.000044	-0.000061	-0.598350	-9.563882	177.875005
40825	2.185956	-0.103459	12.919889	-0.010542	-0.030940	3.291189	1.000000	0.000002	0.000037	-0.000060	-0.597981	-9.565052	177.876090
40826	2.184862	-0.103055	12.920077	-0.009323	-0.031231	3.291189	1.000000	0.000008	0.000049	-0.000067	-0.596888	-9.564914	177.876352
40827	2.201754	-0.107819	12.958150	-0.019523	-0.026426	3.331586	1.000000	-0.000009	0.000050	-0.000073	-0.597525	-9.564651	177.876008
40828	2.206449	-0.079168	12.912146	-0.032742	-0.054244	3.286709	1.000000	-0.000005	0.000034	-0.000063	-0.597912	-9.566176	177.876890
40829	2.193665	-0.085218	12.932849	-0.016365	-0.049090	3.305062	1.000000	-0.000004	0.000052	-0.000062	-0.598232	-9.565672	177.877740
40830	2.168473	-0.108618	12.941390	0.010708	-0.026932	3.309538	1.000000	-0.000011	0.000049	-0.000065	-0.599306	-9.565550	177.878286
40831	2.190501	-0.096184	12.900592	-0.018390	-0.038095	3.272840	1.000000	-0.000012	0.000057	-0.000074	-0.600288	-9.564450	177.877824
40832	2.195035	-0.118356	12.926501	-0.017890	-0.016298	3.299369	1.000000	-0.000005	0.000052	-0.000089	-0.600160	-9.563960	177.875586
40833	2.181534	-0.135502	12.914526	-0.005995	0.000434	3.285496	1.000000	-0.000009	0.000049	-0.000046	-0.601277	-9.563693	177.878321
40834	2.180175	-0.135506	12.914755	-0.004781	0.000144	3.285496	1.000000	-0.000012	0.000057	-0.000074	-0.602301	-9.562601	177.877856
