// Start Time: Unknown
// Update Rate: 100.0Hz
// Filter Profile: human (46.1)
// Firmware Version: 4.4.0
PacketCounter	Acc_X	Acc_Y	Acc_Z	FreeAcc_X	FreeAcc_Y	FreeAcc_Z	OriInc_q0	OriInc_q1	OriInc_q2	OriInc_q3	Roll	Pitch	Yaw
57922	9.581985	-0.039054	2.232170	-0.000000	-0.000000	0.025937	1.000000	0.000034	0.000015	0.000026	-0.997808	-76.885503	-10.281319
57923	9.586799	-0.044430	2.255734	0.000000	0.000000	0.036019	1.000000	0.000035	0.000006	0.000012	-1.127414	-76.757241	-10.074270
57924	9.586791	-0.044588	2.255762	-0.011602	-0.000752	0.036012	1.000000	0.000045	-0.000003	0.000023	-1.064625	-76.822531	-10.168484
57925	9.586742	-0.044748	2.255968	-0.011602	-0.000752	0.036012	1.000000	0.000045	0.000024	0.000015	-1.066501	-76.819761	-10.161234
57926	9.612075	-0.061203	2.272959	-0.024839	-0.014817	0.064622	1.000000	0.000042	0.000017	0.000007	-1.063849	-76.817198	-10.158197
57927	9.591442	-0.050054	2.280008	-0.033726	-0.001635	0.046093	1.000000	0.000016	0.000012	0.000020	-1.071837	-76.815731	-10.148072
57928	9.586510	-0.045116	2.256950	-0.011490	-0.000821	0.036013	1.000000	0.000037	0.000019	0.000014	-1.074615	-76.813416	-10.140859
57929	9.598681	-0.024182	2.259281	-0.006662	0.019713	0.048306	1.000000	0.000035	0.000006	0.000012	-1.076565	-76.812756	-10.134780
57930	9.570713	-0.039222	2.287451	-0.042576	0.011547	0.027565	1.000000	0.000030	0.000008	0.000019	-1.082383	-76.811667	-10.125263
57931	9.569312	-0.061412	2.231957	0.005924	-0.020548	0.013639	1.000000	0.000027	0.000001	0.000012	-1.085079	-76.811541	-10.119374
57932	9.598608	-0.024673	2.259587	-0.006598	0.019710	0.048306	1.000000	0.000030	0.000008	0.000019	-1.091125	-76.810336	-10.109636
57933	9.597208	-0.046872	2.204095	0.041902	-0.012385	0.034379	1.000000	0.000027	0.000001	0.000012	-1.093820	-76.810210	-10.103748
57934	9.606898	-0.057328	2.250918	-0.002525	-0.014010	0.054541	1.000000	0.000030	0.000008	0.000019	-1.099602	-76.809156	-10.094266
57935	9.604515	-0.021264	2.183105	0.068966	0.008954	0.036591	1.000000	0.000021	0.000013	0.000033	-1.113172	-76.807588	-10.077861
57936	9.619022	-0.036950	2.253452	0.002259	0.006524	0.066834	1.000000	0.000034	0.000012	0.000007	-1.112455	-76.806444	-10.074637
57937	9.609249	-0.026809	2.206998	0.046700	0.008144	0.046672	1.000000	0.000024	0.000017	0.000021	-1.119675	-76.804439	-10.064344
57938	9.613999	-0.032178	2.230804	0.024385	0.007319	0.056753	1.000000	0.000031	0.000028	0.000016	-1.122885	-76.801683	-10.057298
57939	9.601628	-0.053248	2.229308	0.019557	-0.013214	0.044460	1.000000	0.000035	0.000032	0.000004	-1.120538	-76.797968	-10.055591
57940	9.585736	-0.047131	2.260190	-0.011692	-0.000850	0.036012	1.000000	0.000042	0.000047	0.000019	-1.123608	-76.793384	-10.047435
57941	9.560144	-0.031018	2.244335	0.001643	0.013143	0.007403	1.000000	0.000022	0.000033	0.000030	-1.135333	-76.789499	-10.032756
57942	9.592770	-0.021431	2.240408	0.015234	0.020471	0.038225	1.000000	0.000042	0.000044	-0.000001	-1.128644	-76.785190	-10.034619
57943	9.559792	-0.031198	2.245830	0.001520	0.013120	0.007403	1.000000	0.000035	0.000035	0.000023	-1.135739	-76.781072	-10.023203
57944	9.585044	-0.047793	2.263111	-0.011960	-0.000939	0.036012	1.000000	0.000013	0.000032	0.000005	-1.133975	-76.778146	-10.023362
57945	9.586264	-0.025914	2.319235	-0.060460	0.031155	0.049936	1.000000	0.000019	0.000026	0.000023	-1.142565	-76.775098	-10.012323
57946	9.589634	-0.053382	2.287524	-0.034209	-0.001861	0.046092	1.000000	0.000023	0.000024	0.000016	-1.144372	-76.772401	-10.007496
57947	9.601791	-0.032505	2.289945	-0.029382	0.018672	0.058385	1.000000	0.000012	0.000012	0.000008	-1.146727	-76.771027	-10.003698
57948	9.589501	-0.053657	2.288077	-0.034138	-0.001989	0.046092	1.000000	0.000021	0.000010	0.000013	-1.147930	-76.769321	-9.999861
57949	9.601704	-0.032812	2.290302	-0.029310	0.018544	0.058386	1.000000	0.000013	0.000005	0.000013	-1.152751	-76.768684	-9.993404
57950	9.589432	-0.054044	2.288355	-0.033980	-0.002129	0.046092	1.000000	0.000030	0.000008	0.000019	-1.155733	-76.766673	-9.986742
57951	9.579718	-0.043848	2.241791	0.010463	-0.000507	0.025932	1.000000	0.000007	0.000011	-0.000005	-1.152519	-76.765399	-9.989215
57952	9.551705	-0.058795	2.270004	-0.025281	-0.008805	0.005190	1.000000	0.000008	0.000008	0.000020	-1.158607	-76.763221	-9.981830
57953	9.563864	-0.037919	2.272421	-0.020453	0.011728	0.017485	1.000000	0.000027	0.000028	0.000004	-1.156992	-76.760038	-9.980325
57954	9.584341	-0.049284	2.266054	-0.011326	-0.001595	0.036013	1.000000	0.000021	0.000010	0.000013	-1.158618	-76.757352	-9.975986
57955	9.609649	-0.065771	2.283066	-0.024660	-0.015590	0.064621	1.000000	0.000027	0.000028	0.000004	-1.156994	-76.754171	-9.974488
57956	9.571851	-0.070231	2.265029	-0.015839	-0.022247	0.023718	1.000000	0.000042	0.000044	-0.000001	-1.149785	-76.747250	-9.976603
57957	9.601009	-0.033470	2.293206	-0.028402	0.018005	0.058389	1.000000	0.000006	0.000024	0.000029	-1.162927	-76.744428	-9.962367
57958	9.604387	-0.060899	2.261514	-0.001784	-0.014984	0.054540	1.000000	0.000058	0.000026	0.000008	-1.159495	-76.739405	-9.958998
57959	9.600782	-0.033759	2.294151	-0.028064	0.017920	0.058391	1.000000	0.000033	0.000022	0.000021	-1.165870	-76.736863	-9.948600
57960	9.580990	-0.081110	2.313916	-0.059569	-0.024022	0.043886	1.000000	0.000040	0.000033	0.000017	-1.169038	-76.730850	-9.940800
57961	9.600503	-0.034093	2.295315	-0.027692	0.017854	0.058392	1.000000	0.000040	0.000033	0.000017	-1.172196	-76.727035	-9.932880
57962	9.546988	-0.032625	2.307264	-0.049747	0.023594	0.009048	1.000000	0.000032	0.000028	0.000016	-1.176122	-76.720479	-9.924821
57963	9.555214	-0.065176	2.298860	-0.045687	-0.010124	0.015279	1.000000	0.000047	0.000011	0.000025	-1.182788	-76.719173	-9.912373
57964	9.592760	-0.060756	2.317938	-0.053563	-0.003644	0.056187	1.000000	0.000045	0.000024	0.000015	-1.185874	-76.712775	-9.904149
57965	9.559888	-0.070649	2.322829	-0.067284	-0.010992	0.025368	1.000000	0.000031	0.000002	0.000024	-1.194058	-76.712538	-9.892062
57966	9.534508	-0.054188	2.306155	-0.053144	0.002975	-0.003238	1.000000	0.000048	-0.000002	-0.000009	-1.187249	-76.708077	-9.893703
57967	9.587869	-0.055629	2.294860	-0.030525	-0.002863	0.046104	1.000000	0.000025	0.000007	0.000007	-1.187440	-76.707197	-9.890507
57969	9.589172	-0.040208	2.272518	-0.010013	0.016297	9.897014	1.000000	0.000063	-0.000007	0.000034	-1.199069	-76.702732	-9.871052
57970	9.595328	-0.029907	2.273409	-0.002587	0.018414	0.048310	1.000000	0.000032	-0.000008	0.000010	-1.200325	-76.703624	-9.865968
57971	9.590542	-0.024933	2.249894	0.020348	0.019147	0.038219	1.000000	0.000028	-0.000006	0.000017	-1.206584	-76.700046	-9.856496
57972	9.619418	-0.068672	2.234406	0.033307	-0.027754	0.062970	1.000000	0.000039	0.000003	0.000005	-1.204626	-76.699674	-9.853887
57973	9.622023	-0.037594	2.189738	0.083158	-0.005565	0.055075	1.000000	0.000031	0.000002	0.000024	-1.216258	-76.696135	-9.839392
57974	9.613715	-0.005223	2.198492	0.079098	0.028153	0.048846	1.000000	0.000048	-0.000002	-0.000009	-1.206664	-76.696377	-9.843580
57975	9.621998	-0.037654	2.189846	0.083365	-0.005711	0.055073	1.000000	0.000021	0.000013	0.000033	-1.217235	-76.693483	-9.829691
57976	9.613618	-0.005632	2.198910	0.079302	0.028006	0.048845	1.000000	0.000037	0.000019	0.000014	-1.219752	-76.691248	-9.822739
57977	9.580690	-0.015441	2.204062	0.065504	0.020552	0.018031	1.000000	0.000040	0.000033	0.000017	-1.219892	-76.687720	-9.817910
57978	9.605922	-0.031929	2.221364	0.052181	0.006556	0.046646	1.000000	0.000044	0.000030	0.000010	-1.219183	-76.684233	-9.813444
57979	9.572970	-0.041763	2.226601	0.038398	-0.000961	0.015831	1.000000	0.000027	0.000031	0.000023	-1.222389	-76.680752	-9.806566
57980	9.585052	-0.020882	2.229388	0.043230	0.019571	0.028125	1.000000	0.000038	0.000046	0.000006	-1.220596	-76.675476	-9.803997
57981	9.602791	-0.063722	2.268202	0.002665	-0.015966	0.054538	1.000000	0.000027	0.000034	0.000042	-1.231925	-76.672397	-9.788543
57982	9.573768	-0.020407	2.284288	-0.010295	0.030937	0.029790	1.000000	0.000030	0.000035	0.000011	-1.233331	-76.668382	-9.783511
57983	9.614748	-0.043297	2.271503	0.007255	0.004436	0.066833	1.000000	0.000019	0.000026	0.000023	-1.237569	-76.666589	-9.777188
57984	9.601538	-0.006199	2.257287	0.025408	0.038966	0.050514	1.000000	0.000042	0.000020	0.000027	-1.245588	-76.664253	-9.764035
57985	9.619359	-0.048910	2.295695	-0.015128	0.003511	0.076925	1.000000	0.000020	0.000017	0.000008	-1.243642	-76.663173	-9.764717
57986	9.597423	-0.059982	2.247173	0.024468	-0.015393	0.044446	1.000000	0.000034	0.000015	0.000026	-1.252468	-76.661370	-9.751717
57987	9.592536	-0.055072	2.224150	0.046449	-0.014623	0.034355	1.000000	0.000019	0.000023	0.000003	-1.249611	-76.660035	-9.754108
57988	9.581484	-0.053896	2.277998	-0.006881	-0.003053	0.036016	1.000000	0.000020	0.000017	0.000008	-1.251282	-76.658143	-9.750123
57989	9.571777	-0.043908	2.231683	0.037243	-0.001614	0.015835	1.000000	0.000018	0.000033	0.000017	-1.251324	-76.655946	-9.747029
57990	9.576441	-0.049171	2.255637	0.015023	-0.002421	0.025926	1.000000	0.000014	0.000026	0.000010	-1.254336	-76.653018	-9.742315
57991	9.609146	-0.039634	2.251498	0.028311	0.004755	0.056744	1.000000	0.000014	0.000026	0.000010	-1.251188	-76.652435	-9.742822
57992	9.567898	-0.017158	2.265386	0.010518	0.031133	0.019701	1.000000	0.000027	0.000031	0.000023	-1.258914	-76.648885	-9.731745
57993	9.585653	-0.059917	2.303988	-0.030302	-0.004307	0.046104	1.000000	0.000023	0.000024	0.000016	-1.259181	-76.648602	-9.729191
57994	9.601310	-0.066500	2.274386	0.000798	-0.016678	0.054537	1.000000	0.000028	0.000024	0.000028	-1.269366	-76.645807	-9.715473
57995	9.625727	-0.024782	2.278933	0.009972	0.024325	0.079132	1.000000	0.000023	0.000024	0.000016	-1.270470	-76.645841	-9.712153
57996	9.601091	-0.067030	2.275291	0.000291	-0.016729	0.054537	1.000000	0.000033	0.000022	0.000021	-1.276830	-76.643381	-9.701839
57997	9.580413	-0.055995	2.282447	-0.008872	-0.003405	0.036015	1.000000	0.000036	0.000029	0.000029	-1.288499	-76.641683	-9.689698
57998	9.597359	-0.040218	2.308328	-0.026272	0.016325	0.058398	1.000000	0.000042	0.000017	0.000007	-1.287323	-76.639845	-9.686115
57999	9.580249	-0.056253	2.283132	-0.008880	-0.003717	0.036015	1.000000	0.000030	0.000008	0.000019	-1.284936	-76.638492	-9.681300
58000	9.567891	-0.077367	2.281470	-0.013726	-0.024240	0.023717	1.000000	0.000044	0.000030	0.000010	-1.284269	-76.635053	-9.676845
58001	9.551977	-0.071139	2.312096	-0.045220	-0.011959	0.015279	1.000000	0.000032	0.000028	0.000016	-1.284021	-76.633912	-9.672688
58002	9.579898	-0.056517	2.284597	-0.009297	-0.003801	0.036014	1.000000	0.000036	0.000026	0.000009	-1.284084	-76.631035	-9.668433
58003	9.562762	-0.072465	2.259529	0.007820	-0.023441	0.013631	1.000000	0.000034	0.000012	0.000007	-1.284324	-76.631272	-9.666417
58004	9.591971	-0.035528	2.287452	-0.004755	0.016815	0.048312	1.000000	0.000031	0.000035	0.000011	-1.285796	-76.627376	-9.661405
58005	9.562541	-0.072593	2.260461	0.007362	-0.023501	0.013631	1.000000	0.000029	0.000015	0.000014	-1.285415	-76.628146	-9.657503
58006	9.584260	-0.061638	2.309730	-0.032273	-0.004586	0.046097	1.000000	0.000040	0.000030	-0.000003	-1.279204	-76.624902	-9.659301
58007	9.571130	-0.024236	2.295282	-0.014423	0.029996	0.029788	1.000000	0.000014	-0.000001	0.000018	-1.286383	-76.626879	-9.651285
58008	9.612218	-0.047009	2.282116	0.003318	0.003627	0.066835	1.000000	0.000046	0.000014	0.000001	-1.281266	-76.625443	-9.651184
58009	9.569780	-0.046445	2.240180	0.034247	-0.002070	0.015846	1.000000	0.000034	0.000012	0.000007	-1.282143	-76.622837	-9.647718
58010	9.591548	-0.035436	2.289229	-0.005388	0.016849	0.048312	1.000000	0.000038	0.000010	0.000000	-1.277836	-76.621913	-9.647758
58011	9.596285	-0.040432	2.312782	-0.027579	0.016145	0.058395	1.000000	0.000035	0.000006	0.000012	-1.282463	-76.621182	-9.641927
58012	9.586711	-0.030218	2.266095	0.016833	0.017776	0.038228	1.000000	0.000043	0.000007	-0.000007	-1.274410	-76.620559	-9.645314
58013	9.614781	-0.015523	2.238024	0.052755	0.025909	0.058966	1.000000	0.000029	-0.000012	0.000022	-1.281525	-76.621985	-9.635698
58014	9.609995	-0.010831	2.214675	0.074948	0.026731	0.048883	1.000000	0.000051	0.000018	0.000033	-1.291364	-76.619997	-9.619729
58015	9.618222	-0.043417	2.206263	0.078840	-0.007091	0.055110	1.000000	0.000025	0.000007	0.000007	-1.288266	-76.619941	-9.619769
58016	9.614618	-0.016150	2.238719	0.052541	0.025832	0.058968	1.000000	0.000040	0.000033	0.000016	-1.291506	-76.616283	-9.611914
58017	9.569401	-0.047037	2.241784	0.033612	-0.002220	0.015848	1.000000	0.000034	0.000015	0.000026	-1.293973	-76.616456	-9.603581
58018	9.581586	-0.026414	2.244183	0.038415	0.018320	0.028147	1.000000	0.000028	0.000024	0.000028	-1.304196	-76.613774	-9.589901
58019	9.602003	-0.038053	2.238149	0.046756	0.004990	0.046674	1.000000	0.000048	0.000038	0.000017	-1.300635	-76.612418	-9.586842
58020	9.593583	-0.005763	2.247389	0.042669	0.038719	0.040449	1.000000	0.000045	0.000024	0.000015	-1.302420	-76.609843	-9.579790
58021	9.601766	-0.038300	2.239160	0.046120	0.004957	0.046677	1.000000	0.000015	0.000019	0.000015	-1.304167	-76.611052	-9.577372
58022	9.601671	-0.038651	2.239561	0.046081	0.004969	0.046677	1.000000	0.000037	0.000022	0.000034	-1.316039	-76.608625	-9.560916
58023	9.590546	-0.037540	2.293389	-0.007272	0.016552	0.048311	1.000000	0.000042	0.000017	0.000007	-1.314854	-76.606822	-9.559978
58024	9.613765	-0.017849	2.242365	0.050852	0.025520	0.058977	1.000000	0.000036	0.000026	0.000009	-1.315036	-76.604048	-9.555702
58025	9.606146	-0.044028	2.264182	0.023101	0.004152	0.056758	1.000000	0.000025	0.000017	0.000021	-1.318372	-76.606018	-9.550975
58026	9.568446	-0.048851	2.245818	0.031571	-0.002362	0.015855	1.000000	0.000032	0.000028	0.000016	-1.322380	-76.602969	-9.543321
58027	9.563566	-0.044084	2.222929	0.052996	-0.001374	0.005782	1.000000	0.000019	0.000026	0.000022	-1.332108	-76.604712	-9.536780
58028	9.588742	-0.060591	2.240308	0.039603	-0.015349	0.034384	1.000000	0.000026	0.000034	-0.000002	-1.328260	-76.601080	-9.537932
58029	9.580346	-0.028235	2.249446	0.034566	0.018203	0.028162	1.000000	0.000015	0.000019	0.000015	-1.325204	-76.604453	-9.537232
58030	9.588518	-0.060911	2.241259	0.038553	-0.015496	0.034388	1.000000	0.000019	0.000026	0.000022	-1.333813	-76.601728	-9.526386
58031	9.580134	-0.028821	2.250343	0.033070	0.018369	0.028167	1.000000	0.000033	0.000022	0.000021	-1.337726	-76.607677	-9.522279
58032	9.605357	-0.045426	2.267501	0.019644	0.004398	0.056766	1.000000	0.000029	0.000015	0.000014	-1.341195	-76.606397	-9.515556
58033	9.618278	-0.082986	2.282718	0.000073	-0.030231	0.073063	1.000000	0.000032	0.000028	0.000016	-1.336550	-76.611004	-9.515254
58034	9.609885	-0.050768	2.291838	-0.004054	0.003512	0.066835	1.000000	0.000023	0.000024	0.000016	-1.341306	-76.608765	-9.507860
58035	9.587992	-0.062011	2.243478	0.035509	-0.015293	0.034400	1.000000	0.000019	0.000026	0.000022	-1.352393	-76.606144	-9.498731
58036	9.572079	-0.055945	2.273919	0.004331	-0.002876	0.025936	1.000000	0.000025	0.000017	0.000021	-1.359693	-76.604615	-9.488637
58037	9.604818	-0.046565	2.269762	0.017250	0.004488	0.056770	1.000000	0.000032	0.000028	0.000016	-1.360971	-76.605848	-9.484979
58038	9.571859	-0.056269	2.274836	0.003466	-0.002819	0.025936	1.000000	0.000028	0.000021	0.000009	-1.362010	-76.603929	-9.480920
58039	9.588757	-0.040440	2.300807	-0.014115	0.016660	0.048303	1.000000	0.000035	0.000036	0.000023	-1.361879	-76.600573	-9.473101
58040	9.587432	-0.062924	2.245844	0.034294	-0.015430	0.034404	1.000000	0.000024	0.000014	0.000001	-1.359820	-76.599482	-9.472614
58041	9.560449	-0.055088	2.329656	-0.051140	0.008658	0.027527	1.000000	0.000019	0.000023	0.000003	-1.357333	-76.602829	-9.475588
58042	9.599504	-0.042000	2.248771	0.038010	0.005231	0.046711	1.000000	0.000035	0.000036	0.000023	-1.364390	-76.599259	-9.464485
58043	9.583539	-0.035719	2.279395	0.006640	0.017703	0.038240	1.000000	0.000027	0.000028	0.000003	-1.363557	-76.597739	-9.465137
58044	9.575877	-0.061946	2.301255	-0.020514	-0.003595	0.035997	1.000000	0.000029	0.000018	0.000033	-1.376343	-76.596171	-9.448880
58045	9.562799	-0.024967	2.286743	-0.002970	0.031412	0.019706	1.000000	0.000034	0.000015	0.000026	-1.394512	-76.598640	-9.437373
58046	9.588045	-0.041510	2.303756	-0.016443	0.017460	0.048298	1.000000	0.000039	0.000003	0.000005	-1.393019	-76.598879	-9.434700
58047	9.575685	-0.062531	2.302035	-0.021829	-0.002969	0.035995	1.000000	0.000014	0.000026	0.000010	-1.396003	-76.599212	-9.433260
58048	9.578438	-0.031654	2.257513	0.027365	0.019183	0.028183	1.000000	0.000052	0.000008	0.000018	-1.399260	-76.598826	-9.424221
58049	9.567309	-0.030332	2.311083	-0.026248	0.030640	0.029762	1.000000	0.000035	0.000006	0.000012	-1.396112	-76.599690	-9.421710
58050	9.578373	-0.031903	2.257784	0.026969	0.019071	0.028184	1.000000	0.000030	0.000008	0.000019	-1.402235	-76.599333	-9.412293
58051	9.583070	-0.037049	2.281343	0.003247	0.018620	0.038240	1.000000	0.000035	0.000006	0.000012	-1.406498	-76.607642	-9.411486
58052	9.578344	-0.032227	2.257901	0.025362	0.019453	0.028187	1.000000	0.000037	-0.000007	0.000023	-1.413813	-76.609158	-9.400120
58053	9.603600	-0.048874	2.274860	0.012150	0.004971	0.056777	1.000000	0.000015	0.000019	0.000015	-1.407338	-76.605430	-9.397213
58054	9.570697	-0.058529	2.279664	-0.001645	-0.002324	0.025937	1.000000	0.000039	0.000003	0.000005	-1.405804	-76.605750	-9.394584
58055	9.594018	-0.038923	2.228548	0.056260	0.006698	0.036673	1.000000	0.000044	0.000031	0.000010	-1.406656	-76.603742	-9.392642
58056	9.590410	-0.011619	2.260868	0.029893	0.039667	0.040493	1.000000	0.000022	0.000003	0.000019	-1.413571	-76.603980	-9.383395
58057	9.598622	-0.044338	2.252487	0.033647	0.005917	0.046727	1.000000	0.000034	0.000015	0.000026	-1.420459	-76.603640	-9.373833
58058	9.598557	-0.044616	2.252761	0.033534	0.005957	0.046727	1.000000	0.000038	0.000013	0.000020	-1.425836	-76.602805	-9.364256
58059	9.593745	-0.039741	2.229706	0.055069	0.006502	0.036680	1.000000	0.000036	0.000026	0.000009	-1.416632	-76.603621	-9.365520
58060	9.598380	-0.044829	2.253510	0.032715	0.005747	0.046730	1.000000	0.000038	0.000013	0.000020	-1.421930	-76.602814	-9.355993
58061	9.561900	-0.027146	2.290476	-0.008371	0.031497	0.019702	1.000000	0.000032	0.000028	0.000016	-1.424717	-76.606369	-9.353523
58062	9.581161	-0.061089	2.228934	0.048835	-0.013797	0.024383	1.000000	0.000042	0.000017	0.000007	-1.423774	-76.605201	-9.350027
58063	9.577555	-0.033491	2.261231	0.022434	0.019171	0.028195	1.000000	0.000037	0.000016	-0.000005	-1.417256	-76.604253	-9.355201
58064	9.577493	-0.033491	2.261493	0.022308	0.019214	0.028195	1.000000	0.000048	0.000011	0.000025	-1.424308	-76.603696	-9.342836
58065	9.585019	-0.007725	2.240286	0.049513	0.041053	0.030452	1.000000	0.000029	0.000015	0.000014	-1.441477	-76.601725	-9.335914
58066	9.601432	-0.072731	2.223579	0.057401	-0.026341	0.042925	1.000000	0.000024	0.000024	0.000016	-1.446711	-76.599704	-9.328350
58067	9.564965	-0.055024	2.260459	0.017336	0.000070	0.015891	1.000000	0.000021	0.000010	0.000013	-1.470341	-76.600122	-9.321207
58068	9.597783	-0.045744	2.256031	0.030894	0.007458	0.046735	1.000000	0.000017	0.000006	0.000026	-1.481562	-76.600098	-9.308342
58069	9.572449	-0.029482	2.239439	0.043072	0.021360	0.018153	1.000000	0.000041	0.000023	0.000002	-1.470865	-76.604456	-9.313236
58070	9.585338	-0.066916	2.254647	0.024696	-0.013077	0.034436	1.000000	0.000030	0.000008	0.000019	-1.477456	-76.604267	-9.303624
58071	9.592854	-0.041135	2.233512	0.051909	0.008450	0.036696	1.000000	0.000014	0.000026	0.000010	-1.486696	-76.600736	-9.300364
58072	9.585172	-0.067313	2.255342	0.024703	-0.012782	0.034437	1.000000	0.000016	0.000013	0.000020	-1.495513	-76.600009	-9.290135
58073	9.617953	-0.057931	2.251088	0.037753	-0.005065	0.065285	1.000000	0.000028	0.000021	0.000009	-1.503577	-76.601515	-9.287747
58074	9.592604	-0.041698	2.234576	0.051039	0.008970	0.036700	1.000000	0.000025	0.000017	0.000021	-1.511727	-76.600274	-9.277308
58075	9.613052	-0.053359	2.228467	0.057924	-0.004095	0.055256	1.000000	0.000032	0.000028	0.000016	-1.510903	-76.608327	-9.275976
58076	9.592357	-0.041984	2.235630	0.048957	0.009175	0.036710	1.000000	0.000053	0.000035	0.000010	-1.510404	-76.605161	-9.271141
58077	9.571670	-0.030788	2.242748	0.039063	0.022423	0.018168	1.000000	0.000006	0.000024	0.000029	-1.520161	-76.608560	-9.261921
58078	9.596800	-0.047547	2.260175	0.025487	0.008531	0.046749	1.000000	0.000049	0.000031	0.000022	-1.525922	-76.605858	-9.251074
58079	9.571383	-0.031438	2.243964	0.038854	0.022495	0.018168	1.000000	0.000022	0.000040	0.000025	-1.534557	-76.601509	-9.241843
58080	9.596480	-0.048102	2.261521	0.025281	0.008604	0.046750	1.000000	0.000032	0.000028	0.000016	-1.539437	-76.599126	-9.233957
58081	9.596350	-0.048265	2.262070	0.025035	0.008729	0.046750	1.000000	0.000032	0.000028	0.000016	-1.545326	-76.597347	-9.229221
58082	9.568045	-0.063002	2.290652	-0.011020	0.000719	0.025931	1.000000	0.000027	0.000031	0.000023	-1.554052	-76.594643	-9.217944
58083	9.584915	-0.047201	2.316632	-0.029717	0.020247	0.048262	1.000000	0.000032	0.000028	0.000016	-1.546650	-76.598609	-9.216647
58084	9.588332	-0.074768	2.285216	-0.003655	-0.012641	0.044480	1.000000	0.000036	0.000026	0.000009	-1.547682	-76.596584	-9.212170
58085	9.580003	-0.042293	2.294099	-0.008143	0.021327	0.038232	1.000000	0.000025	0.000014	0.000001	-1.549350	-76.598190	-9.213925
58086	9.579961	-0.042319	2.294271	-0.008301	0.021403	0.038232	1.000000	0.000044	0.000004	0.000018	-1.554065	-76.598686	-9.204792
58087	9.584603	-0.047535	2.317915	-0.031073	0.020617	0.048257	1.000000	0.000003	0.000017	0.000022	-1.561105	-76.599673	-9.198607
58088	9.562823	-0.058774	2.269408	0.008418	0.001687	0.015902	1.000000	0.000033	0.000019	0.000002	-1.559184	-76.598520	-9.197628
58089	9.572140	-0.068718	2.316556	-0.036526	0.000421	0.035952	1.000000	0.000030	0.000008	0.000019	-1.569178	-76.600343	-9.190340
58090	9.600281	-0.054354	2.288702	-0.000786	0.008577	0.056782	1.000000	0.000026	0.000007	0.000007	-1.570587	-76.600467	-9.186815
58091	9.595553	-0.049388	2.265421	0.022087	0.009800	0.046756	1.000000	0.000016	0.000009	0.000001	-1.583353	-76.596213	-9.185356
58092	9.574928	-0.037836	2.272260	0.013130	0.023086	0.028204	1.000000	0.000041	0.000023	0.000002	-1.580882	-76.594483	-9.184092
58093	9.574852	-0.037902	2.272579	0.013400	0.024005	0.028201	1.000000	-0.000001	0.000010	0.000014	-1.611913	-76.592651	-9.174202
58094	9.587128	-0.017166	2.274710	0.018113	0.044621	0.040500	1.000000	0.000030	0.000008	0.000019	-1.619244	-76.592581	-9.164246
58095	9.607612	-0.028753	2.268474	0.025053	0.031922	0.059058	1.000000	0.000028	0.000021	0.000009	-1.625072	-76.601378	-9.163968
58096	9.595214	-0.049860	2.266846	0.020031	0.011499	0.046759	1.000000	0.000038	0.000013	0.000019	-1.631689	-76.600866	-9.153846
58097	9.607449	-0.029011	2.269159	0.024720	0.032138	0.059058	1.000000	0.000045	0.000024	0.000015	-1.635506	-76.599167	-9.150056
58098	9.565088	-0.028703	2.227351	0.055407	0.026388	0.008161	1.000000	0.000044	0.000031	0.000009	-1.636417	-76.596650	-9.145103
58099	9.594898	-0.050192	2.268177	0.018496	0.012105	0.046761	1.000000	0.000034	0.000015	0.000026	-1.649969	-76.602118	-9.136067
58100	9.591267	-0.023013	2.300432	-0.007849	0.045208	0.050517	1.000000	0.000042	0.000020	0.000027	-1.659701	-76.600799	-9.122389
58101	9.582380	-0.071759	2.267038	0.012192	-0.008079	0.034465	1.000000	0.000032	0.000028	0.000016	-1.664090	-76.605061	-9.119244
58102	9.586382	-0.018339	2.277843	0.012959	0.046277	0.040501	1.000000	0.000056	0.000012	0.000006	-1.662460	-76.604741	-9.115659
58103	9.582206	-0.071833	2.267771	0.012220	-0.008058	0.034465	1.000000	0.000033	0.000022	0.000021	-1.667280	-76.600862	-9.108955
58104	9.589734	-0.046044	2.246776	0.039167	0.013296	0.036749	1.000000	0.000044	0.000031	0.000009	-1.668288	-76.598423	-9.103979
58105	9.589637	-0.046026	2.247189	0.039300	0.013437	0.036749	1.000000	0.000034	0.000012	0.000007	-1.671781	-76.596362	-9.102849
58106	9.577268	-0.067007	2.245435	0.034263	-0.006976	0.024452	1.000000	0.000026	0.000007	0.000007	-1.673917	-76.596553	-9.098968
58107	9.598873	-0.055882	2.294563	-0.006690	0.012202	0.056776	1.000000	0.000028	0.000021	0.000009	-1.671787	-76.601770	-9.099694
58108	9.594157	-0.051159	2.271288	0.015387	0.013033	0.046765	1.000000	0.000023	-0.000003	0.000024	-1.682676	-76.603160	-9.087119
58109	9.589459	-0.046376	2.247943	0.036342	0.013858	0.036759	1.000000	0.000025	0.000014	0.000001	-1.677756	-76.609175	-9.091263
58110	9.597036	-0.020344	2.226765	0.063280	0.035208	0.039051	1.000000	0.000023	0.000021	-0.000004	-1.674910	-76.608014	-9.092769
58111	9.568735	-0.034812	2.255181	0.028231	0.027324	0.018192	1.000000	0.000033	0.000022	0.000021	-1.688245	-76.600644	-9.082674
58112	9.589224	-0.046340	2.248946	0.036829	0.014229	0.036757	1.000000	0.000030	0.000005	-0.000000	-1.686660	-76.601198	-9.082132
58113	9.617381	-0.031988	2.221154	0.071580	0.022295	0.057619	1.000000	0.000025	0.000017	0.000021	-1.689970	-76.605818	-9.077561
58114	9.584411	-0.041740	2.226102	0.057757	0.015094	0.026756	1.000000	0.000024	0.000024	0.000015	-1.696476	-76.604201	-9.069481
58115	9.617188	-0.032346	2.221985	0.070337	0.022336	0.057627	1.000000	0.000028	0.000021	0.000009	-1.691063	-76.607781	-9.070024
58116	9.601220	-0.026144	2.252287	0.039120	0.034942	0.049064	1.000000	0.000016	0.000016	0.000040	-1.710094	-76.607028	-9.049893
58117	9.588788	-0.047552	2.250776	0.033173	0.014543	0.036770	1.000000	0.000032	0.000028	0.000016	-1.712507	-76.610064	-9.046380
58118	9.555748	-0.056924	2.256011	0.019345	0.007344	0.005903	1.000000	0.000038	0.000043	-0.000014	-1.703135	-76.606428	-9.052955
58119	9.583810	-0.042471	2.228673	0.054523	0.015941	0.026773	1.000000	0.000019	0.000026	0.000022	-1.723146	-76.608027	-9.044747
58120	9.593009	-0.052564	2.276100	0.009800	0.014649	0.046770	1.000000	0.000041	0.000027	0.000022	-1.730634	-76.606162	-9.033686
58121	9.555337	-0.057435	2.257740	0.017650	0.008649	0.005905	1.000000	0.000027	0.000031	0.000023	-1.750250	-76.607625	-9.024995
58122	9.592738	-0.053072	2.277230	0.008815	0.015386	0.046770	1.000000	0.000032	0.000028	0.000016	-1.756167	-76.605592	-9.016705
58123	9.584390	-0.020769	2.286189	0.004546	0.049642	0.040492	1.000000	0.000032	0.000028	0.000016	-1.771385	-76.605074	-9.009169
58124	9.592456	-0.053254	2.278412	0.008212	0.016043	0.046770	1.000000	0.000043	0.000037	0.000004	-1.770333	-76.602099	-9.006726
58125	9.564106	-0.067654	2.306912	-0.029746	0.008108	0.025889	1.000000	0.000029	0.000015	0.000014	-1.766895	-76.612383	-9.007597
58126	9.592283	-0.053441	2.279136	0.005925	0.016241	0.046771	1.000000	0.000030	0.000008	0.000019	-1.774874	-76.612750	-8.997432
58127	9.576325	-0.047163	2.309310	-0.026332	0.028819	0.038181	1.000000	0.000003	0.000017	0.000021	-1.781206	-76.617993	-8.992319
58128	9.583944	-0.021369	2.288053	0.000589	0.050162	0.040490	1.000000	0.000029	0.000011	-0.000006	-1.777396	-76.618117	-8.994408
58129	9.559228	-0.063322	2.284382	-0.009278	0.009456	0.015897	1.000000	0.000030	0.000008	0.000019	-1.790858	-76.618047	-8.988007
58130	9.587421	-0.049133	2.256560	0.026387	0.017583	0.036785	1.000000	0.000021	0.000010	0.000013	-1.797216	-76.618257	-8.980640
58131	9.571494	-0.042667	2.286597	-0.006158	0.030547	0.028190	1.000000	0.000027	0.000001	0.000012	-1.804643	-76.627441	-8.979807
58132	9.620225	-0.039757	2.252368	0.038227	0.025461	0.067665	1.000000	0.000041	0.000023	0.000002	-1.803161	-76.626226	-8.978200
58133	9.566735	-0.037737	2.263604	0.013867	0.031220	0.018211	1.000000	0.000027	0.000001	0.000012	-1.794103	-76.637592	-8.980644
58134	9.591908	-0.054280	2.280696	0.000077	0.017464	0.046771	1.000000	0.000030	0.000008	0.000019	-1.802135	-76.638130	-8.970494
58135	9.578962	-0.017027	2.265991	0.016181	0.052508	0.030508	1.000000	0.000045	0.000031	0.000009	-1.807853	-76.648676	-8.972183
58136	9.604066	-0.033506	2.283371	0.002364	0.038762	0.059065	1.000000	0.000030	0.000008	0.000019	-1.815960	-76.649310	-8.962017
58137	9.612205	-0.066221	2.275284	0.007777	0.005521	0.065354	1.000000	0.000033	0.000022	0.000021	-1.840583	-76.638058	-8.949966
58138	9.583367	-0.022479	2.290455	-0.005017	0.052615	0.040476	1.000000	0.000038	0.000013	0.000019	-1.848051	-76.638070	-8.939560
58139	9.607398	-0.061598	2.252510	0.030070	0.006451	0.055379	1.000000	0.000041	0.000023	0.000002	-1.848066	-76.633942	-8.941634
58140	9.607319	-0.061407	2.252849	0.029826	0.006599	0.055380	1.000000	0.000029	0.000011	-0.000006	-1.844589	-76.634182	-8.943591
58141	9.586688	-0.049938	2.259652	0.021633	0.019875	0.036792	1.000000	0.000050	0.000025	0.000027	-1.855198	-76.628266	-8.929885
58142	9.594277	-0.024072	2.238586	0.048566	0.041203	0.039111	1.000000	0.000054	0.000025	-0.000004	-1.849353	-76.626859	-8.931400
58143	9.586456	-0.049930	2.260639	0.020665	0.019725	0.036795	1.000000	0.000019	0.000026	0.000022	-1.847121	-76.627693	-8.924523
58144	9.556533	-0.028804	2.220579	0.056260	0.034413	-0.001736	1.000000	0.000033	0.000019	0.000002	-1.846613	-76.627056	-8.922990
58145	9.598618	-0.029075	2.263311	0.025212	0.040643	0.049088	1.000000	0.000029	0.000015	0.000014	-1.855700	-76.626178	-8.917833
58146	9.581570	-0.045228	2.238233	0.042356	0.020934	0.026824	1.000000	0.000042	0.000017	0.000007	-1.856949	-76.625724	-8.913441
58147	9.598468	-0.029235	2.263946	0.024570	0.041816	0.049085	1.000000	0.000025	0.000017	0.000021	-1.888063	-76.627032	-8.903666
58148	9.586061	-0.050378	2.262302	0.019429	0.021456	0.036794	1.000000	0.000043	0.000010	0.000013	-1.892016	-76.627314	-8.896481
58149	9.593704	-0.024781	2.241032	0.045361	0.042644	0.039120	1.000000	0.000020	0.000020	0.000028	-1.898375	-76.632174	-8.888861
58150	9.585937	-0.050800	2.262818	0.017936	0.021636	0.036796	1.000000	0.000039	0.000003	0.000005	-1.899322	-76.633352	-8.885192
58151	9.598229	-0.029695	2.264955	0.023029	0.041867	0.049088	1.000000	0.000024	0.000021	-0.000004	-1.887984	-76.629637	-8.892056
58152	9.614072	-0.036410	2.235366	0.053768	0.029452	0.057713	1.000000	0.000016	0.000013	0.000020	-1.898582	-76.629640	-8.881148
58153	9.581122	-0.046026	2.240133	0.039953	0.022500	0.026830	1.000000	0.000034	0.000012	0.000007	-1.905916	-76.629773	-8.881201
58154	9.585665	-0.051077	2.263962	0.017435	0.022015	0.036796	1.000000	0.000028	0.000025	0.000028	-1.918764	-76.628378	-8.866630
58155	9.626165	-0.015991	2.238354	0.056799	0.050334	0.070013	1.000000	0.000036	0.000026	0.000009	-1.909504	-76.633445	-8.868532
58156	9.585452	-0.051322	2.264860	0.015769	0.022034	0.036799	1.000000	0.000020	0.000017	0.000008	-1.913821	-76.633080	-8.863687
58157	9.605402	-0.004494	2.245709	0.046826	0.063991	0.051423	1.000000	0.000044	0.000037	0.000004	-1.913413	-76.635062	-8.865599
58158	9.572865	-0.072479	2.263962	0.009577	0.001962	0.024509	1.000000	0.000021	0.000013	0.000033	-1.929563	-76.635003	-8.848491
58159	9.592871	-0.025922	2.244582	0.040585	0.043387	0.039138	1.000000	0.000042	0.000017	0.000007	-1.917600	-76.639069	-8.852749
58160	9.564488	-0.040252	2.273035	0.004455	0.035607	0.018205	1.000000	0.000023	0.000030	0.000010	-1.922365	-76.637178	-8.847144
58161	9.580292	-0.047061	2.243657	0.033190	0.023522	0.026853	1.000000	0.000024	0.000024	0.000015	-1.930553	-76.647799	-8.845716
58162	9.617684	-0.042536	2.263141	0.024220	0.030345	0.067695	1.000000	0.000045	0.000031	0.000009	-1.932452	-76.645961	-8.840512
58163	9.564108	-0.040633	2.274626	0.003033	0.036785	0.018202	1.000000	0.000019	0.000026	0.000022	-1.957787	-76.637108	-8.829882
58164	9.579929	-0.047607	2.245196	0.033736	0.024355	0.026849	1.000000	0.000033	0.000022	0.000021	-1.966934	-76.636156	-8.818671
58165	9.572077	-0.073521	2.267258	0.007438	0.003631	0.024510	1.000000	0.000027	0.000028	0.000003	-1.978968	-76.628119	-8.820113
58166	9.563758	-0.041167	2.276089	0.003431	0.037536	0.018199	1.000000	0.000019	0.000026	0.000022	-1.990312	-76.626607	-8.808318
58167	9.579594	-0.047994	2.246614	0.033240	0.025407	0.026848	1.000000	0.000042	0.000017	0.000007	-1.996327	-76.631755	-8.806998
58168	9.584141	-0.052999	2.270364	0.010698	0.024965	0.036799	1.000000	0.000026	0.000011	0.000026	-2.008973	-76.632050	-8.793129
58169	9.584083	-0.053145	2.270604	0.008658	0.025482	0.036800	1.000000	0.000025	0.000014	0.000001	-2.011607	-76.642716	-8.796374
58170	9.584034	-0.053106	2.270813	0.008390	0.025657	0.036799	1.000000	0.000026	0.000008	0.000006	-2.015019	-76.643535	-8.792047
58171	9.588580	-0.057996	2.294557	-0.014653	0.025421	0.046742	1.000000	0.000037	0.000019	0.000014	-2.023576	-76.645956	-8.789414
58172	9.579302	-0.048383	2.247853	0.029655	0.026806	0.026856	1.000000	0.000026	0.000008	0.000006	-2.027043	-76.646792	-8.785066
58173	9.596211	-0.032424	2.273451	0.010595	0.046904	0.049087	1.000000	0.000034	0.000015	0.000026	-2.033740	-76.654893	-8.778470
58174	9.583758	-0.053741	2.271963	0.005390	0.026570	0.036799	1.000000	0.000019	0.000026	0.000022	-2.045256	-76.653553	-8.766637
58175	9.596046	-0.032902	2.274139	0.009774	0.047368	0.049085	1.000000	0.000039	0.000003	0.000005	-2.048287	-76.656603	-8.769547
58176	9.583595	-0.053942	2.272642	0.004564	0.027036	0.036798	1.000000	0.000026	0.000038	0.000017	-2.056506	-76.654008	-8.760286
58177	9.570660	-0.016723	2.258054	0.022505	0.061478	0.020538	1.000000	0.000036	0.000026	0.000009	-2.056544	-76.654788	-8.761751
58178	9.611680	-0.039831	2.245568	0.039513	0.035208	0.057761	1.000000	0.000035	0.000006	0.000012	-2.061772	-76.655883	-8.754561
58179	9.578732	-0.049406	2.250257	0.025827	0.028398	0.026862	1.000000	0.000038	0.000013	0.000019	-2.078249	-76.655428	-8.748644
58180	9.583266	-0.054504	2.274019	0.003252	0.027999	0.036796	1.000000	0.000034	0.000015	0.000026	-2.090338	-76.655332	-8.734565
58181	9.583205	-0.054701	2.274271	0.001900	0.028612	0.036795	1.000000	0.000043	0.000010	0.000013	-2.101472	-76.662484	-8.731240
58182	9.578503	-0.049936	2.251222	0.023909	0.029380	0.026864	1.000000	0.000031	0.000035	0.000011	-2.106062	-76.660256	-8.725283
58183	9.620487	-0.050039	2.294187	-0.008992	0.036258	0.077620	1.000000	0.000037	0.000016	-0.000005	-2.110405	-76.669982	-8.733768
58184	9.566967	-0.047893	2.305361	-0.031484	0.042400	0.028098	1.000000	0.000038	0.000013	0.000019	-2.118869	-76.670310	-8.722990
58185	9.615757	-0.045461	2.271258	0.012288	0.037057	0.067694	1.000000	0.000034	0.000015	0.000026	-2.125512	-76.672597	-8.711756
58186	9.578185	-0.050317	2.252566	0.020721	0.030537	0.026868	1.000000	0.000029	0.000015	0.000014	-2.132265	-76.672751	-8.703829
58187	9.594069	-0.057179	2.222979	0.050052	0.018034	0.035573	1.000000	0.000029	0.000015	0.000014	-2.133236	-76.680349	-8.703521
58188	9.562071	-0.043786	2.283115	-0.012094	0.043555	0.018167	1.000000	0.000036	0.000026	0.000009	-2.136630	-76.679288	-8.698212
58189	9.585734	-0.024907	2.231898	0.043617	0.051976	0.029247	1.000000	0.000031	0.000002	0.000024	-2.135503	-76.693175	-8.694205
58190	9.610840	-0.041361	2.249136	0.029605	0.038376	0.057784	1.000000	0.000007	0.000011	-0.000005	-2.135795	-76.693939	-8.695522
58191	9.577883	-0.050945	2.253834	0.014850	0.030865	0.026877	1.000000	0.000035	0.000009	0.000032	-2.136505	-76.699513	-8.685911
58192	9.590187	-0.030034	2.255969	0.019462	0.051569	0.039163	1.000000	0.000028	0.000018	-0.000011	-2.131289	-76.699555	-8.690397
58193	9.577737	-0.050885	2.254457	0.014683	0.031151	0.026877	1.000000	0.000037	0.000019	0.000014	-2.136531	-76.696444	-8.686847
58194	9.610549	-0.041612	2.250374	0.027907	0.038627	0.057788	1.000000	0.000024	0.000024	0.000015	-2.144467	-76.695682	-8.678364
58195	9.585344	-0.025470	2.233562	0.040634	0.052439	0.029257	1.000000	0.000030	0.000008	0.000019	-2.146843	-76.700295	-8.672527
58196	9.585265	-0.025698	2.233899	0.040308	0.052631	0.029258	1.000000	0.000041	0.000027	0.000021	-2.155661	-76.699203	-8.661089
58197	9.597934	-0.063086	2.249548	0.019934	0.018431	0.045509	1.000000	0.000025	0.000014	0.000001	-2.149130	-76.707688	-8.669374
58198	9.589654	-0.030848	2.258224	0.015938	0.052366	0.039165	1.000000	0.000010	0.000032	0.000036	-2.168452	-76.706021	-8.650819
58199	9.585357	-0.084587	2.248546	0.013428	-0.001888	0.033226	1.000000	0.000056	0.000012	0.000006	-2.160052	-76.711673	-8.652940
58200	9.572509	-0.047285	2.233681	0.031741	0.032604	0.016983	1.000000	0.000032	0.000029	0.000016	-2.167117	-76.710472	-8.644397
58201	9.593920	-0.036083	2.283044	-0.007426	0.052114	0.049063	1.000000	0.000024	0.000024	0.000015	-2.176180	-76.704806	-8.639084
58202	9.602007	-0.068854	2.275170	-0.004108	0.018569	0.055409	1.000000	0.000016	0.000013	0.000020	-2.187469	-76.705370	-8.628028
58203	9.576801	-0.052755	2.258385	0.010638	0.032083	0.026879	1.000000	0.000024	0.000024	0.000015	-2.188953	-76.696371	-8.626440
58204	9.601799	-0.069077	2.276044	-0.003404	0.018494	0.055409	1.000000	0.000040	0.000030	-0.000003	-2.185893	-76.695015	-8.627347
58205	9.584363	-0.027071	2.237749	0.037099	0.053597	0.029265	1.000000	0.000020	0.000020	0.000027	-2.201413	-76.695599	-8.619375
58206	9.609399	-0.043505	2.255241	0.023051	0.040013	0.057795	1.000000	0.000037	0.000016	-0.000005	-2.197955	-76.695832	-8.621021
58207	9.576417	-0.052931	2.260010	0.009556	0.032841	0.026878	1.000000	0.000016	0.000013	0.000020	-2.208441	-76.694149	-8.613789
58208	9.593279	-0.037004	2.285724	-0.008129	0.053004	0.049058	1.000000	0.000024	0.000024	0.000015	-2.216406	-76.693392	-8.605331
58209	9.604590	-0.039155	2.232746	0.044186	0.041292	0.047900	1.000000	0.000029	0.000015	0.000014	-2.227232	-76.697245	-8.604523
58210	9.596704	-0.064987	2.254734	0.016591	0.020445	0.045511	1.000000	0.000028	0.000021	0.000009	-2.231451	-76.696833	-8.599413
58211	9.580637	-0.058333	2.284974	-0.013983	0.033148	0.036771	1.000000	0.000015	0.000019	0.000015	-2.237855	-76.692728	-8.597295
58212	9.592906	-0.037591	2.287277	-0.009348	0.053856	0.049052	1.000000	0.000041	0.000027	0.000021	-2.246772	-76.691613	-8.585851
58213	9.605157	-0.016710	2.289662	-0.003643	0.074342	0.061336	1.000000	0.000027	0.000028	0.000003	-2.246941	-76.684114	-8.589169
58214	9.571180	-0.049199	2.239329	0.030745	0.034582	0.016980	1.000000	0.000016	0.000013	0.000020	-2.258357	-76.684572	-8.578063
58215	9.584805	-0.063667	2.310122	-0.036520	0.032674	0.046664	1.000000	0.000042	0.000017	0.000007	-2.247472	-76.684196	-8.580554
58216	9.587998	-0.033128	2.265211	0.012750	0.054438	0.039158	1.000000	0.000026	0.000008	0.000006	-2.251250	-76.685304	-8.576198
58217	9.555026	-0.042589	2.269910	-0.002313	0.047103	0.008240	1.000000	0.000029	0.000015	0.000014	-2.246891	-76.692338	-8.576914
58218	9.600256	-0.012477	2.267574	0.015855	0.075079	0.051444	1.000000	0.000034	0.000016	0.000026	-2.259115	-76.692478	-8.562899
58219	9.612888	-0.050162	2.283274	-0.003122	0.041284	0.067685	1.000000	0.000028	0.000025	0.000028	-2.279762	-76.691585	-8.552861
58220	9.583128	-0.029389	2.243005	0.032619	0.055763	0.029269	1.000000	0.000025	0.000017	0.000021	-2.290337	-76.691537	-8.541669
58221	9.558261	-0.071531	2.239741	0.022692	0.014719	0.004704	1.000000	0.000032	0.000029	0.000016	-2.293089	-76.688169	-8.541035
58222	9.587479	-0.034436	2.267390	0.009988	0.055412	0.039156	1.000000	0.000042	0.000017	0.000007	-2.295243	-76.688226	-8.536455
58223	9.587389	-0.034538	2.267766	0.009228	0.055513	0.039156	1.000000	0.000033	0.000022	0.000021	-2.300915	-76.690104	-8.531435
58224	9.587307	-0.034621	2.268114	0.008907	0.055713	0.039156	1.000000	0.000025	0.000014	0.000001	-2.302189	-76.690526	-8.529824
58225	9.566693	-0.023083	2.274746	0.000205	0.068889	0.020515	1.000000	0.000047	0.000018	0.000020	-2.303991	-76.689167	-8.523098
58226	9.570222	-0.051006	2.243377	0.025796	0.035855	0.016989	1.000000	0.000029	0.000015	0.000014	-2.310771	-76.689438	-8.515283
58227	9.607647	-0.046570	2.262632	0.018217	0.042921	0.057793	1.000000	0.000030	0.000008	0.000019	-2.328766	-76.681739	-8.509375
58228	9.549574	-0.039784	2.250147	0.018132	0.049603	-0.001656	1.000000	0.000029	0.000015	0.000014	-2.335619	-76.681961	-8.501521
58229	9.607497	-0.046785	2.263268	0.016942	0.043465	0.057793	1.000000	0.000027	0.000028	0.000003	-2.338558	-76.684639	-8.503767
58230	9.591423	-0.040044	2.293447	-0.014245	0.056408	0.049032	1.000000	0.000030	0.000008	0.000019	-2.347998	-76.685601	-8.493164
58231	9.602823	-0.042450	2.240276	0.038690	0.044189	0.047911	1.000000	0.000035	0.000009	0.000032	-2.358701	-76.685925	-8.483222
58232	9.599166	-0.014843	2.272171	0.012486	0.077639	0.051429	1.000000	0.000025	0.000014	0.000001	-2.360085	-76.686308	-8.481570
58233	9.602713	-0.042778	2.240741	0.036421	0.044308	0.047919	1.000000	0.000026	0.000011	0.000026	-2.360050	-76.696150	-8.477333
58234	9.582118	-0.031481	2.247288	0.027552	0.057751	0.029273	1.000000	0.000039	0.000013	0.000019	-2.368620	-76.696619	-8.466658
58235	9.586601	-0.036398	2.271068	0.003198	0.057186	0.039151	1.000000	0.000029	0.000015	0.000014	-2.362327	-76.706536	-8.467788
58236	9.581973	-0.031730	2.247904	0.025191	0.057884	0.029278	1.000000	0.000028	0.000021	0.000008	-2.366581	-76.706152	-8.462748
58237	9.585483	-0.059762	2.216638	0.050293	0.024341	0.025779	1.000000	0.000020	0.000020	0.000027	-2.366795	-76.708019	-8.455851
58238	9.573934	-0.058014	2.270380	-0.003230	0.036787	0.026868	1.000000	0.000033	0.000022	0.000021	-2.376517	-76.707500	-8.444628
58239	9.598629	-0.016205	2.274430	0.006240	0.077523	0.051435	1.000000	0.000042	0.000017	0.000007	-2.366253	-76.708007	-8.446301
58240	9.589748	-0.065031	2.241330	0.026826	0.023967	0.035651	1.000000	0.000024	0.000024	0.000015	-2.374212	-76.707307	-8.437960
58241	9.576949	-0.027835	2.226438	0.046838	0.057746	0.019414	1.000000	0.000036	0.000026	0.000009	-2.366772	-76.696620	-8.439629
58242	9.568980	-0.053740	2.248605	0.019215	0.036938	0.017000	1.000000	0.000028	0.000025	0.000028	-2.380205	-76.695721	-8.425093
58243	9.601812	-0.044638	2.244563	0.031932	0.044106	0.047935	1.000000	0.000038	0.000019	0.000014	-2.377082	-76.697928	-8.424625
58244	9.585734	-0.038097	2.274698	0.000741	0.057047	0.039152	1.000000	0.000021	0.000013	0.000033	-2.393889	-76.698298	-8.407470
58245	9.585627	-0.038259	2.275144	0.000125	0.056824	0.039153	1.000000	0.000058	0.000033	0.000003	-2.380130	-76.697878	-8.411361
58246	9.601521	-0.044885	2.245802	0.030657	0.044271	0.047939	1.000000	0.000037	0.000016	-0.000005	-2.376614	-76.698129	-8.413158
58247	9.580936	-0.033445	2.252294	0.021832	0.057017	0.029292	1.000000	0.000005	0.000004	0.000032	-2.377817	-76.698718	-8.404031
58248	9.598058	-0.075719	2.291558	-0.019587	0.022465	0.055382	1.000000	0.000035	0.000032	0.000004	-2.378426	-76.697049	-8.401789
58249	9.585276	-0.038449	2.276619	-0.001828	0.056584	0.039154	1.000000	0.000029	0.000015	0.000014	-2.374544	-76.700984	-8.403309
58250	9.602121	-0.022310	2.302314	-0.019520	0.076783	0.061299	1.000000	0.000028	0.000021	0.000008	-2.378519	-76.700589	-8.398452
58251	9.605648	-0.050217	2.271026	0.005781	0.043769	0.057805	1.000000	0.000029	0.000015	0.000014	-2.385287	-76.702471	-8.398326
58252	9.572618	-0.059631	2.275883	-0.008052	0.036702	0.026865	1.000000	0.000037	0.000026	0.000009	-2.388448	-76.701546	-8.393361
58253	9.584893	-0.038650	2.278227	-0.003458	0.057641	0.039148	1.000000	0.000027	0.000028	0.000003	-2.395819	-76.700976	-8.397003
58254	9.580262	-0.034200	2.255146	0.018540	0.058320	0.029291	1.000000	0.000007	0.000018	0.000034	-2.414651	-76.700859	-8.379410
58255	9.600720	-0.046091	2.249197	0.026320	0.045127	0.047947	1.000000	0.000042	0.000017	0.000007	-2.411655	-76.703229	-8.382496
58256	9.547143	-0.043769	2.260369	0.003972	0.051310	-0.001649	1.000000	0.000027	0.000028	0.000003	-2.413146	-76.702135	-8.380381
58257	9.605039	-0.050872	2.273588	0.002417	0.044785	0.057801	1.000000	0.000025	0.000017	0.000021	-2.414002	-76.707125	-8.377177
58258	9.600436	-0.046432	2.250402	0.024410	0.045459	0.047951	1.000000	0.000025	0.000017	0.000021	-2.424387	-76.707163	-8.366226
58259	9.584360	-0.039797	2.280452	-0.006892	0.058907	0.039139	1.000000	0.000030	0.000008	0.000019	-2.445249	-76.709448	-8.363810
58260	9.600328	-0.046959	2.250855	0.023609	0.046326	0.047949	1.000000	0.000017	0.000013	0.000020	-2.456560	-76.710029	-8.352931
58261	9.612651	-0.025983	2.253017	0.027348	0.066749	0.060236	1.000000	0.000036	0.000023	-0.000010	-2.440289	-76.714607	-8.365410
58262	9.563579	-0.028409	2.287742	-0.017321	0.072473	0.020474	1.000000	0.000019	0.000026	0.000022	-2.451963	-76.713624	-8.353849
58263	9.562577	-0.051791	2.233027	0.031031	0.039995	0.007160	1.000000	0.000047	0.000018	0.000020	-2.465061	-76.710909	-8.349651
58264	9.583918	-0.040451	2.282296	-0.008993	0.059770	0.039132	1.000000	0.000024	0.000024	0.000015	-2.472988	-76.710242	-8.341433
58265	9.612263	-0.026488	2.254667	0.026399	0.067355	0.060235	1.000000	0.000034	0.000012	0.000007	-2.467406	-76.711193	-8.343928
58266	9.583787	-0.040634	2.282843	-0.009766	0.059842	0.039131	1.000000	0.000030	0.000008	0.000019	-2.476658	-76.712295	-8.333570
58267	9.579220	-0.036100	2.259541	0.012447	0.059907	0.029291	1.000000	0.000029	0.000015	0.000014	-2.469233	-76.710894	-8.334643
58268	9.587263	-0.068660	2.251830	0.015612	0.026351	0.035669	1.000000	0.000041	0.000023	0.000002	-2.468667	-76.710343	-8.333083
58269	9.579034	-0.036235	2.260327	0.011115	0.059951	0.029292	1.000000	0.000020	0.000020	0.000027	-2.471780	-76.713528	-8.328029
58270	9.608527	-0.057494	2.301385	-0.025415	0.045978	0.067632	1.000000	0.000026	0.000008	0.000006	-2.475439	-76.714787	-8.323941
58271	9.578943	-0.036531	2.260704	0.010413	0.059659	0.029295	1.000000	0.000044	0.000004	0.000018	-2.465357	-76.715867	-8.321640
58272	9.566474	-0.057675	2.259146	0.005084	0.039352	0.017008	1.000000	0.000033	0.000022	0.000021	-2.474853	-76.715386	-8.310671
58273	9.587825	-0.046341	2.308324	-0.035980	0.058917	0.048962	1.000000	0.000021	0.000010	0.000013	-2.473271	-76.722062	-8.310565
58274	9.599294	-0.048630	2.255225	0.016842	0.046777	0.047960	1.000000	0.000034	0.000012	0.000007	-2.476006	-76.722808	-8.306436
58275	9.611648	-0.027662	2.257270	0.021440	0.067323	0.060247	1.000000	0.000034	0.000012	0.000007	-2.474979	-76.723687	-8.309491
58276	9.582263	-0.064945	2.230372	0.033458	0.026972	0.025844	1.000000	0.000039	0.000013	0.000019	-2.483241	-76.724282	-8.299148
58277	9.599087	-0.048766	2.256103	0.015892	0.047192	0.047960	1.000000	0.000027	0.000028	0.000003	-2.484766	-76.722496	-8.304815
58278	9.619527	-0.060631	2.250250	0.024024	0.034132	0.066628	1.000000	0.000021	0.000014	0.000033	-2.501485	-76.722962	-8.287852
58279	9.603426	-0.053827	2.280321	-0.008557	0.047075	0.057787	1.000000	0.000037	0.000016	-0.000005	-2.491346	-76.731414	-8.298013
58280	9.573768	-0.032811	2.240009	0.027305	0.061417	0.019466	1.000000	0.000036	0.000036	0.000023	-2.501223	-76.729405	-8.286394
58281	9.578137	-0.037771	2.264098	0.005355	0.061052	0.029290	1.000000	0.000033	0.000022	0.000021	-2.510678	-76.724604	-8.283577
58282	9.565638	-0.058907	2.262653	0.000009	0.040749	0.017004	1.000000	0.000029	0.000015	0.000014	-2.517249	-76.725031	-8.276109
58283	9.598477	-0.049725	2.258674	0.013528	0.047383	0.047963	1.000000	0.000040	0.000033	0.000016	-2.504613	-76.720292	-8.277312
58284	9.582327	-0.043074	2.288919	-0.017638	0.060386	0.039116	1.000000	0.000012	0.000015	0.000027	-2.519549	-76.720578	-8.263267
58285	9.593783	-0.045383	2.235976	0.035494	0.048422	0.038136	1.000000	0.000036	0.000023	-0.000010	-2.520100	-76.718649	-8.276817
58286	9.590087	-0.017529	2.267856	0.009337	0.081933	0.041573	1.000000	0.000035	0.000009	0.000031	-2.534748	-76.719619	-8.260392
58287	9.610571	-0.029547	2.261828	0.017042	0.068713	0.060246	1.000000	0.000017	0.000013	0.000020	-2.540526	-76.722507	-8.257717
58288	9.577551	-0.038980	2.266554	0.003228	0.061668	0.029287	1.000000	0.000042	0.000017	0.000007	-2.542439	-76.722717	-8.253543
58289	9.597998	-0.050612	2.260688	0.010661	0.048729	0.047960	1.000000	0.000028	0.000021	0.000008	-2.547140	-76.726497	-8.258287
58290	9.602403	-0.055342	2.284591	-0.012039	0.048499	0.057777	1.000000	0.000020	0.000017	0.000008	-2.551993	-76.726750	-8.253719
58291	9.585234	-0.013493	2.245850	0.028618	0.082907	0.031755	1.000000	0.000029	0.000015	0.000014	-2.547860	-76.728240	-8.255386
58292	9.593275	-0.046286	2.238134	0.031714	0.049345	0.038144	1.000000	0.000025	0.000017	0.000021	-2.558207	-76.728344	-8.244621
58293	9.556605	-0.027635	2.274518	-0.007660	0.075537	0.010608	1.000000	0.000037	0.000023	-0.000011	-2.550365	-76.726635	-8.258299
58294	9.577028	-0.039264	2.268761	0.000440	0.062471	0.029283	1.000000	0.000019	0.000027	0.000022	-2.561937	-76.725682	-8.246949
58295	9.597450	-0.051204	2.263003	0.009558	0.049573	0.047956	1.000000	0.000033	0.000022	0.000021	-2.579436	-76.719570	-8.244242
58296	9.572337	-0.034951	2.246084	0.023117	0.063442	0.019464	1.000000	0.000033	0.000019	0.000002	-2.579689	-76.719590	-8.242940
58297	9.589135	-0.018701	2.271869	0.004636	0.083385	0.041564	1.000000	0.000032	0.000029	0.000016	-2.575288	-76.722751	-8.243434
58298	9.580227	-0.067766	2.239016	0.025045	0.029740	0.025861	1.000000	0.000033	0.000022	0.000021	-2.584820	-76.722303	-8.232590
58299	9.576481	-0.040050	2.271055	-0.001584	0.063115	0.029278	1.000000	0.000032	0.000029	0.000016	-2.585696	-76.723926	-8.232320
58300	9.588779	-0.019188	2.273369	0.003084	0.083803	0.041561	1.000000	0.000037	0.000026	0.000009	-2.588850	-76.723106	-8.227616
58301	9.580738	-0.044971	2.295524	-0.024466	0.062817	0.039086	1.000000	0.000034	0.000016	0.000026	-2.594395	-76.722162	-8.223308
58302	9.596674	-0.052271	2.266265	0.005972	0.050151	0.047956	1.000000	0.000036	0.000036	0.000023	-2.604264	-76.720131	-8.211821
58303	9.576022	-0.040620	2.272980	-0.002777	0.063396	0.029276	1.000000	0.000038	0.000016	-0.000005	-2.595378	-76.720164	-8.225678
58304	9.584061	-0.073344	2.265270	0.000279	0.029834	0.035671	1.000000	0.000021	0.000014	0.000033	-2.612111	-76.720640	-8.208851
58305	9.563460	-0.062018	2.271755	-0.009452	0.042678	0.016991	1.000000	0.000029	0.000015	0.000014	-2.599744	-76.726008	-8.209226
58306	9.591864	-0.048157	2.244136	0.025999	0.050497	0.038155	1.000000	0.000028	0.000021	0.000008	-2.603675	-76.725739	-8.204687
58307	9.575710	-0.041283	2.274279	-0.004903	0.063713	0.029273	1.000000	0.000016	0.000019	0.000015	-2.616982	-76.724531	-8.206777
58308	9.596196	-0.053100	2.268269	0.003167	0.050640	0.047955	1.000000	0.000027	0.000001	0.000012	-2.623186	-76.726562	-8.200132
58309	9.563182	-0.062248	2.272923	-0.010779	0.043003	0.016989	1.000000	0.000037	0.000023	-0.000011	-2.601160	-76.726534	-8.215128
58310	9.591571	-0.048256	2.245387	0.024672	0.050810	0.038157	1.000000	0.000033	0.000022	0.000021	-2.610602	-76.726106	-8.204398
58311	9.603096	-0.050850	2.192388	0.077407	0.037893	0.037246	1.000000	0.000030	0.000008	0.000019	-2.603740	-76.726996	-8.204966
58312	9.587782	-0.020631	2.277557	-0.001838	0.083933	0.041561	1.000000	0.000027	0.000028	0.000003	-2.605029	-76.726006	-8.203259
58313	9.583238	-0.015985	2.254333	0.020365	0.083760	0.031768	1.000000	0.000035	0.000006	0.000012	-2.591982	-76.725655	-8.205958
58314	9.591284	-0.048674	2.246602	0.023410	0.050189	0.038163	1.000000	0.000038	0.000020	0.000014	-2.597524	-76.725552	-8.198651
58315	9.586724	-0.044204	2.223457	0.045545	0.050349	0.028369	1.000000	0.000033	0.000022	0.000021	-2.596762	-76.724011	-8.197176
58316	9.607963	-0.032675	2.272839	0.005499	0.070240	0.060248	1.000000	0.000045	0.000031	0.000009	-2.598840	-76.722649	-8.192572
58317	9.607038	-0.055931	2.218207	0.052614	0.036876	0.047060	1.000000	0.000025	0.000014	0.000001	-2.582775	-76.726427	-8.198888
58318	9.595325	-0.053605	2.271938	-0.000879	0.049543	0.047961	1.000000	0.000049	0.000031	0.000022	-2.590320	-76.724922	-8.188104
58319	9.570199	-0.037560	2.255137	0.012793	0.063153	0.019484	1.000000	0.000019	0.000027	0.000022	-2.595962	-76.723331	-8.186023
58320	9.595070	-0.054040	2.273006	-0.001509	0.049677	0.047960	1.000000	0.000037	0.000026	0.000009	-2.598835	-76.722517	-8.181563
58321	9.594965	-0.054091	2.273447	-0.002177	0.049624	0.047961	1.000000	0.000038	0.000020	0.000014	-2.597183	-76.724039	-8.183917
58322	9.582299	-0.016974	2.258314	0.016445	0.083956	0.031773	1.000000	0.000032	0.000029	0.000016	-2.603832	-76.722896	-8.176125
58323	9.574206	-0.042640	2.280577	-0.012801	0.062862	0.029272	1.000000	0.000028	0.000021	0.000008	-2.591927	-76.730972	-8.184711
58324	9.574123	-0.042720	2.280926	-0.013162	0.063046	0.029270	1.000000	0.000029	0.000015	0.000014	-2.598183	-76.731452	-8.177628
58325	9.590110	-0.049969	2.251580	0.016796	0.050309	0.038176	1.000000	0.000050	0.000025	0.000027	-2.605830	-76.733302	-8.173473
58326	9.590017	-0.049979	2.251978	0.016432	0.050493	0.038176	1.000000	0.000038	0.000016	-0.000005	-2.601928	-76.733746	-8.175885
58327	9.606837	-0.033694	2.277577	-0.002107	0.070822	0.060245	1.000000	0.000017	0.000013	0.000020	-2.610719	-76.739360	-8.177441
58328	9.573819	-0.043220	2.282191	-0.015896	0.063796	0.029261	1.000000	0.000030	0.000008	0.000019	-2.619587	-76.740587	-8.167603
58329	9.585390	-0.045696	2.229171	0.037263	0.051200	0.028399	1.000000	0.000033	0.000019	0.000002	-2.614601	-76.738219	-8.175045
58330	9.606649	-0.034021	2.278369	-0.002805	0.071128	0.060243	1.000000	0.000029	0.000015	0.000014	-2.620877	-76.738720	-8.167996
58331	9.585253	-0.045759	2.229758	0.037971	0.050799	0.028398	1.000000	0.000034	0.000012	0.000007	-2.609215	-76.730579	-8.175450
58332	9.602098	-0.029533	2.255247	0.020279	0.071096	0.050468	1.000000	0.000013	0.000005	0.000013	-2.617161	-76.732120	-8.168604
58333	9.581488	-0.018024	2.261744	0.011914	0.084570	0.031775	1.000000	0.000032	0.000029	0.000016	-2.625515	-76.728885	-8.169888
58334	9.589465	-0.050844	2.254306	0.014904	0.050990	0.038176	1.000000	0.000033	0.000022	0.000021	-2.634701	-76.728467	-8.159423
58335	9.617893	-0.037117	2.226763	0.050412	0.058467	0.059383	1.000000	0.000028	0.000021	0.000008	-2.631823	-76.727580	-8.164727
58336	9.601696	-0.030181	2.256950	0.019303	0.071568	0.050466	1.000000	0.000041	0.000027	0.000021	-2.640140	-76.726620	-8.154192
58337	9.598014	-0.060570	2.302828	-0.031695	0.049991	0.057726	1.000000	0.000041	0.000027	0.000021	-2.631403	-76.730137	-8.155188
58338	9.580912	-0.018873	2.264178	0.009344	0.084657	0.031777	1.000000	0.000023	0.000030	0.000010	-2.636208	-76.728840	-8.150424
58339	9.597757	-0.060891	2.303890	-0.032635	0.049800	0.057724	1.000000	0.000033	0.000022	0.000021	-2.630604	-76.729203	-8.150059
58340	9.576262	-0.014496	2.241516	0.030777	0.084824	0.022009	1.000000	0.000033	0.000019	0.000002	-2.630381	-76.729295	-8.149251
58341	9.588680	-0.051747	2.257624	0.010831	0.050602	0.038183	1.000000	0.000032	0.000029	0.000016	-2.627879	-76.731151	-8.152870
58342	9.572485	-0.045010	2.287745	-0.020279	0.063706	0.029254	1.000000	0.000021	0.000014	0.000033	-2.644182	-76.731680	-8.136476
58343	9.605348	-0.036063	2.283816	-0.007718	0.070815	0.060243	1.000000	0.000031	0.000035	0.000010	-2.639467	-76.732477	-8.142956
58344	9.567844	-0.040616	2.265055	0.000879	0.064149	0.019486	1.000000	0.000021	0.000007	-0.000006	-2.637138	-76.734004	-8.145723
58345	9.588319	-0.052343	2.259141	0.008012	0.050875	0.038184	1.000000	0.000025	0.000017	0.000021	-2.639632	-76.739066	-8.145086
58346	9.588223	-0.052519	2.259544	0.007643	0.051054	0.038184	1.000000	0.000046	0.000024	0.000014	-2.644023	-76.738503	-8.138042
58347	9.592573	-0.057237	2.283441	-0.015248	0.050589	0.047944	1.000000	0.000021	0.000010	0.000013	-2.643002	-76.740174	-8.142216
58348	9.571987	-0.045575	2.289820	-0.023979	0.064053	0.029243	1.000000	0.000025	0.000014	0.000001	-2.643575	-76.740848	-8.141589
58349	9.600498	-0.031855	2.262016	0.012050	0.071287	0.050480	1.000000	0.000031	0.000002	0.000024	-2.644833	-76.738834	-8.139237
58350	9.588009	-0.052811	2.260444	0.006637	0.050984	0.038185	1.000000	0.000038	0.000016	-0.000005	-2.640734	-76.739291	-8.141895
58351	9.620922	-0.043599	2.256330	0.019413	0.057951	0.069181	1.000000	0.000017	0.000013	0.000020	-2.640360	-76.741164	-8.142015
58352	9.567349	-0.041352	2.267131	-0.002715	0.064221	0.019485	1.000000	0.000029	0.000015	0.000014	-2.646407	-76.741669	-8.135212
58353	9.600242	-0.032312	2.263095	0.010499	0.071218	0.050482	1.000000	0.000033	0.000022	0.000021	-2.646679	-76.739963	-8.132864
58354	9.620677	-0.044189	2.257362	0.018486	0.058107	0.069182	1.000000	0.000038	0.000020	0.000014	-2.651847	-76.739924	-8.125995
58355	9.595620	-0.027945	2.240371	0.031658	0.072010	0.040727	1.000000	0.000037	0.000026	0.000009	-2.655372	-76.742159	-8.134484
58356	9.587499	-0.053533	2.262591	0.003858	0.051375	0.038184	1.000000	0.000029	0.000015	0.000014	-2.661422	-76.742670	-8.127711
58357	9.562467	-0.037519	2.245492	0.017356	0.064732	0.009732	1.000000	0.000020	0.000020	0.000027	-2.663335	-76.743103	-8.125066
58358	9.607820	-0.065765	2.257332	0.011297	0.037996	0.056888	1.000000	0.000031	0.000035	0.000010	-2.667090	-76.741312	-8.120450
58359	9.562212	-0.037919	2.246573	0.018139	0.064969	0.009729	1.000000	0.000033	0.000022	0.000021	-2.678717	-76.732136	-8.119840
58360	9.599518	-0.033352	2.266149	0.008800	0.072004	0.050478	1.000000	0.000033	0.000019	0.000002	-2.678380	-76.732237	-8.119225
58361	9.566473	-0.042625	2.270798	-0.004827	0.065065	0.019479	1.000000	0.000030	0.000008	0.000019	-2.689177	-76.732777	-8.121723
58362	9.603824	-0.038092	2.290182	-0.014165	0.072107	0.060226	1.000000	0.000034	0.000012	0.000007	-2.691459	-76.733591	-8.118330
58363	9.599326	-0.033588	2.266962	0.008129	0.072035	0.050479	1.000000	0.000024	0.000024	0.000015	-2.685521	-76.730921	-8.119589
58364	9.594834	-0.029177	2.243721	0.030148	0.072526	0.040728	1.000000	0.000021	0.000010	0.000013	-2.692419	-76.731928	-8.112958
58365	9.599173	-0.033655	2.267608	0.007228	0.072051	0.050479	1.000000	0.000037	0.000023	-0.000011	-2.676628	-76.732411	-8.130163
58366	9.586635	-0.054661	2.266223	0.001797	0.051753	0.038183	1.000000	0.000021	0.000014	0.000033	-2.692811	-76.732924	-8.113992
58367	9.561621	-0.038717	2.249072	0.015076	0.065421	0.009732	1.000000	0.000047	0.000018	0.000020	-2.695394	-76.735380	-8.117982
58368	9.598927	-0.034182	2.268639	0.005729	0.072465	0.050477	1.000000	0.000028	0.000021	0.000008	-2.698812	-76.735146	-8.114094
58369	9.581978	-0.050612	2.243685	0.022210	0.052140	0.028440	1.000000	0.000029	0.000015	0.000014	-2.694810	-76.738058	-8.119543
58370	9.614890	-0.041609	2.239616	0.035240	0.059487	0.059442	1.000000	0.000025	0.000017	0.000020	-2.704591	-76.738210	-8.109547
58371	9.581819	-0.051009	2.244356	0.021760	0.052340	0.028440	1.000000	0.000038	0.000020	0.000014	-2.707101	-76.736473	-8.115916
58372	9.598624	-0.034910	2.269910	0.004090	0.072688	0.050476	1.000000	0.000018	0.000006	0.000025	-2.720352	-76.737870	-8.103228
58373	9.598535	-0.035009	2.270288	0.003453	0.072410	0.050479	1.000000	0.000058	0.000033	0.000003	-2.705004	-76.737556	-8.113211
58374	9.606469	-0.067606	2.263020	0.006321	0.038813	0.056889	1.000000	0.000015	0.000026	0.000010	-2.710426	-76.736815	-8.108914
58375	9.598293	-0.035037	2.271307	0.002743	0.072465	0.050478	1.000000	0.000028	0.000021	0.000008	-2.706476	-76.736274	-8.118602
58376	9.576936	-0.046893	2.222824	0.042067	0.052749	0.018706	1.000000	0.000038	0.000020	0.000014	-2.711568	-76.736221	-8.111935
58377	9.590036	-0.060840	2.293981	-0.026507	0.051704	0.047915	1.000000	0.000028	0.000025	0.000028	-2.711665	-76.741265	-8.112057
58378	9.581130	-0.051929	2.247274	0.017900	0.052453	0.028447	1.000000	0.000028	0.000021	0.000008	-2.714992	-76.741056	-8.108292
58379	9.597891	-0.035710	2.272996	0.000185	0.072661	0.050477	1.000000	0.000033	0.000022	0.000021	-2.719974	-76.740882	-8.111948
58380	9.564805	-0.045139	2.277769	-0.013572	0.065673	0.019467	1.000000	0.000016	0.000019	0.000015	-2.727954	-76.740875	-8.104934
58381	9.588902	-0.027073	2.226668	0.045330	0.073293	0.031011	1.000000	0.000051	0.000025	0.000027	-2.734907	-76.733621	-8.106133
58382	9.593203	-0.031866	2.250646	0.022578	0.073189	0.040744	1.000000	-0.000002	0.000016	0.000009	-2.742022	-76.733953	-8.102083
58383	9.605593	-0.069094	2.266691	0.003740	0.039033	0.056889	1.000000	0.000056	0.000013	0.000006	-2.736795	-76.730415	-8.110326
58384	9.593052	-0.032019	2.251286	0.022571	0.073250	0.040743	1.000000	0.000028	0.000025	0.000028	-2.749418	-76.729667	-8.097048
58385	9.584876	-0.057746	2.273575	-0.005503	0.052198	0.038179	1.000000	0.000038	0.000020	0.000014	-2.741344	-76.730474	-8.102032
58386	9.597242	-0.036965	2.275714	-0.000767	0.072834	0.050476	1.000000	0.000024	0.000024	0.000015	-2.748419	-76.729892	-8.094998
58387	9.580265	-0.053502	2.250923	0.016485	0.052549	0.028449	1.000000	0.000032	0.000029	0.000016	-2.749328	-76.726707	-8.098472
58388	9.597019	-0.037441	2.276647	-0.001164	0.072919	0.050475	1.000000	0.000012	0.000015	0.000027	-2.763648	-76.727031	-8.085405
58389	9.584492	-0.058504	2.275173	-0.006790	0.052694	0.038176	1.000000	0.000039	0.000010	-0.000000	-2.763018	-76.729232	-8.099998
58390	9.596888	-0.037621	2.277198	-0.002043	0.073329	0.050472	1.000000	0.000033	0.000022	0.000021	-2.771837	-76.728820	-8.090126
58391	9.563820	-0.047040	2.281859	-0.016465	0.066024	0.019460	1.000000	0.000030	0.000008	0.000019	-2.769643	-76.733614	-8.091790
58392	9.576222	-0.026248	2.283861	-0.011718	0.086657	0.031757	1.000000	0.000028	0.000021	0.000008	-2.772926	-76.733379	-8.088159
58393	9.579793	-0.054501	2.252906	0.012917	0.053155	0.028451	1.000000	0.000033	0.000022	0.000021	-2.776043	-76.736136	-8.091289
58394	9.596534	-0.038361	2.278677	-0.004731	0.073540	0.050470	1.000000	0.000041	0.000027	0.000021	-2.783965	-76.735208	-8.081388
58395	9.583944	-0.059480	2.277456	-0.010432	0.052510	0.038173	1.000000	0.000024	0.000024	0.000015	-2.771644	-76.735273	-8.084978
58396	9.579489	-0.055143	2.254185	0.011595	0.052928	0.028454	1.000000	0.000030	0.000008	0.000019	-2.780078	-76.736476	-8.075821
58397	9.599931	-0.066967	2.248465	0.020144	0.039507	0.047170	1.000000	0.000027	0.000028	0.000003	-2.776252	-76.731621	-8.089734
58398	9.600549	-0.043571	2.303775	-0.028161	0.072970	0.060190	1.000000	0.000035	0.000009	0.000031	-2.790196	-76.732646	-8.074382
58399	9.579280	-0.055638	2.255059	0.011150	0.052550	0.028456	1.000000	0.000026	0.000008	0.000006	-2.777697	-76.733457	-8.081614
58400	9.612195	-0.046658	2.251059	0.024165	0.059855	0.059474	1.000000	0.000037	0.000030	0.000028	-2.789299	-76.732177	-8.068459
58401	9.575383	-0.027927	2.287354	-0.014586	0.086080	0.031758	1.000000	0.000023	0.000030	0.000010	-2.786877	-76.727568	-8.077839
58402	9.591413	-0.035310	2.258210	0.015709	0.073162	0.040757	1.000000	0.000033	0.000022	0.000021	-2.795556	-76.727154	-8.068127
58403	9.611861	-0.047064	2.252474	0.022824	0.059568	0.059478	1.000000	0.000029	0.000011	-0.000006	-2.778264	-76.732248	-8.080942
58404	9.586873	-0.030540	2.235346	0.036598	0.073292	0.031048	1.000000	0.000040	0.000030	-0.000003	-2.774141	-76.731100	-8.083529
58405	9.595509	-0.039648	2.282964	-0.008876	0.072648	0.050473	1.000000	0.000034	0.000016	0.000026	-2.775724	-76.732983	-8.085986
58406	9.574205	-0.051807	2.234449	0.030433	0.052820	0.018749	1.000000	0.000033	0.000022	0.000021	-2.784351	-76.732588	-8.076331
58407	9.574137	-0.051937	2.234737	0.029895	0.052576	0.018752	1.000000	0.000026	0.000008	0.000006	-2.776299	-76.734624	-8.086179
58408	9.611425	-0.047381	2.254325	0.020501	0.059639	0.059483	1.000000	0.000032	0.000029	0.000016	-2.782296	-76.733518	-8.079344
58409	9.595136	-0.040303	2.284523	-0.010166	0.072486	0.050473	1.000000	0.000032	0.000029	0.000016	-2.779077	-76.730079	-8.084016
58410	9.570146	-0.024165	2.267402	0.003622	0.086202	0.022045	1.000000	0.000029	0.000015	0.000014	-2.784754	-76.730556	-8.077830
58411	9.581845	-0.027022	2.214589	0.056360	0.072979	0.021354	1.000000	0.000032	0.000029	0.000016	-2.778147	-76.728692	-8.082023
58412	9.577969	-0.057086	2.260586	0.006067	0.052238	0.028462	1.000000	0.000046	0.000024	0.000014	-2.782047	-76.728089	-8.075713
58413	9.610846	-0.047974	2.256784	0.019062	0.059340	0.059488	1.000000	0.000014	0.000032	0.000004	-2.779893	-76.726579	-8.087064
58414	9.552863	-0.040976	2.243973	0.019487	0.065926	0.000037	1.000000	0.000030	0.000008	0.000019	-2.788143	-76.727766	-8.078133
58415	9.577716	-0.057434	2.261647	0.004619	0.051991	0.028464	1.000000	0.000044	0.000004	0.000018	-2.779302	-76.730979	-8.083611
58416	9.594509	-0.041134	2.287137	-0.013018	0.072387	0.050471	1.000000	0.000020	0.000017	0.000008	-2.783175	-76.731284	-8.080375
58417	9.594453	-0.041167	2.287372	-0.014086	0.071811	0.050473	1.000000	0.000026	0.000008	0.000006	-2.764926	-76.736028	-8.090439
58418	9.577585	-0.057699	2.262195	0.002820	0.051736	0.028466	1.000000	0.000022	0.000004	0.000019	-2.773960	-76.737770	-8.081653
58419	9.594404	-0.041518	2.287573	-0.014736	0.071402	0.050476	1.000000	0.000013	0.000006	0.000013	-2.763320	-76.738185	-8.086127
58420	9.601796	-0.039864	2.211009	0.060343	0.058881	0.040106	1.000000	0.000028	0.000021	0.000008	-2.766216	-76.737958	-8.082887
58421	9.606054	-0.044206	2.235030	0.037770	0.058176	0.049806	1.000000	0.000037	0.000023	-0.000011	-2.743474	-76.735992	-8.100952
58422	9.610318	-0.048727	2.259011	0.014996	0.058112	0.059502	1.000000	0.000003	0.000017	0.000021	-2.755638	-76.736159	-8.091211
58423	9.602204	-0.016111	2.267057	0.011013	0.091781	0.053091	1.000000	0.000038	0.000016	-0.000005	-2.742323	-76.739394	-8.107829
58424	9.585265	-0.032458	2.242203	0.027921	0.071698	0.031088	1.000000	0.000032	0.000029	0.000016	-2.748071	-76.738293	-8.101226
58425	9.568309	-0.049035	2.217424	0.043870	0.051391	0.009092	1.000000	0.000024	0.000024	0.000015	-2.745690	-76.743120	-8.106928
58426	9.568883	-0.025517	2.272711	-0.004407	0.084909	0.022056	1.000000	0.000029	0.000015	0.000014	-2.751123	-76.743627	-8.100978
58427	9.589301	-0.037501	2.267129	0.003324	0.070996	0.040785	1.000000	0.000028	0.000031	0.000022	-2.741827	-76.742233	-8.102449
58428	9.589127	-0.037650	2.267860	0.002952	0.071149	0.040784	1.000000	0.000048	0.000045	0.000011	-2.743152	-76.739359	-8.098553
58429	9.576522	-0.058761	2.266665	-0.002777	0.050561	0.028472	1.000000	0.000018	0.000006	0.000025	-2.747624	-76.741870	-8.099777
58430	9.609464	-0.050061	2.262615	0.010197	0.057822	0.059510	1.000000	0.000038	0.000023	0.000033	-2.761415	-76.741337	-8.084254
58431	9.626234	-0.033952	2.288163	-0.008169	0.077826	0.081508	1.000000	0.000044	0.000004	0.000018	-2.754987	-76.746877	-8.089627
58432	9.584466	-0.034168	2.245589	0.022934	0.071277	0.031104	1.000000	0.000037	0.000026	0.000009	-2.756841	-76.746149	-8.086490
58433	9.629751	-0.062154	2.257590	0.016388	0.043842	0.078242	1.000000	0.000033	0.000019	0.000002	-2.737471	-76.746708	-8.097502
58434	9.596654	-0.071366	2.262277	0.002668	0.036885	0.047200	1.000000	0.000025	0.000018	0.000020	-2.746546	-76.746893	-8.088333
58435	9.617065	-0.083470	2.256721	0.009405	0.023512	0.065929	1.000000	0.000037	0.000030	0.000028	-2.749197	-76.751822	-8.090490
58437	9.567480	-0.039433	2.249783	0.026997	0.134872	9.843867	1.000000	0.000056	0.000053	0.000031	-2.758833	-76.747939	-8.077085
58438	9.538309	-0.065086	2.250982	0.001179	0.042987	-0.012246	1.000000	0.000029	0.000021	0.000008	-2.745831	-76.748060	-8.085559
58439	9.588076	-0.039708	2.272265	-0.003147	0.070483	0.040789	1.000000	0.000017	0.000013	0.000020	-2.755727	-76.748803	-8.076528
58440	9.604826	-0.023455	2.297878	-0.020479	0.090322	0.062782	1.000000	0.000029	0.000021	0.000008	-2.745522	-76.746294	-8.086640
58441	9.575418	-0.060863	2.271270	-0.008714	0.049778	0.028473	1.000000	0.000029	0.000015	0.000014	-2.750730	-76.746831	-8.080904
58442	9.604035	-0.047388	2.243627	0.026115	0.056565	0.049853	1.000000	0.000029	0.000015	0.000014	-2.737486	-76.749911	-8.085633
58443	9.608299	-0.051830	2.267517	0.003317	0.056512	0.059522	1.000000	0.000047	0.000014	0.000000	-2.734207	-76.750597	-8.086544
58444	9.596355	-0.048852	2.321080	-0.050400	0.068799	0.060131	1.000000	0.000051	0.000022	0.000008	-2.712623	-76.751445	-8.095305
58445	9.567092	-0.028022	2.280210	-0.014140	0.082687	0.022065	1.000000	0.000025	0.000014	0.000001	-2.712206	-76.752160	-8.095861
58446	9.575062	-0.060891	2.272768	-0.012669	0.048660	0.028474	1.000000	0.000035	0.000009	0.000031	-2.711454	-76.759947	-8.096277
58447	9.587488	-0.040221	2.274736	-0.007923	0.069244	0.040795	1.000000	0.000029	0.000021	0.000008	-2.713913	-76.759804	-8.093448
58448	9.587394	-0.040284	2.275132	-0.008025	0.069048	0.040796	1.000000	0.000038	0.000020	0.000014	-2.710556	-76.757971	-8.101808
58449	9.582989	-0.035926	2.251857	0.014012	0.069381	0.031134	1.000000	0.000029	0.000015	0.000014	-2.715616	-76.758535	-8.096202
58450	9.607759	-0.052390	2.269789	0.000372	0.055555	0.059528	1.000000	0.000025	0.000018	0.000020	-2.717194	-76.752781	-8.098559
58451	9.607661	-0.052731	2.270200	-0.000011	0.055696	0.059527	1.000000	0.000029	0.000025	0.000028	-2.728929	-76.752108	-8.086209
58452	9.603237	-0.048714	2.247009	0.023057	0.055573	0.049866	1.000000	0.000030	0.000018	0.000033	-2.735690	-76.745865	-8.082900
58453	9.615632	-0.028137	2.249131	0.027822	0.076151	0.062189	1.000000	0.000032	0.000029	0.000016	-2.741010	-76.744799	-8.076715
58454	9.574520	-0.004580	2.261408	0.010380	0.102599	0.024731	1.000000	0.000040	0.000003	0.000005	-2.728668	-76.750485	-8.088918
58455	9.565625	-0.053820	2.228864	0.030313	0.048689	0.009156	1.000000	0.000036	0.000036	0.000023	-2.736866	-76.748551	-8.079348
58456	9.586625	-0.041867	2.278340	-0.009231	0.068458	0.040799	1.000000	0.000032	0.000025	-0.000004	-2.723498	-76.744576	-8.095890
58457	9.566013	-0.030020	2.284707	-0.017783	0.081951	0.022066	1.000000	0.000029	0.000015	0.000014	-2.728480	-76.745104	-8.090378
58458	9.586485	-0.041919	2.278929	-0.010397	0.068337	0.040799	1.000000	0.000035	0.000006	0.000012	-2.720803	-76.748738	-8.099158
58459	9.577786	-0.033076	2.231995	0.034070	0.068822	0.021487	1.000000	0.000046	0.000024	0.000014	-2.724007	-76.748194	-8.093526
58460	9.577681	-0.033236	2.232444	0.033504	0.068648	0.021490	1.000000	0.000033	0.000022	0.000021	-2.723490	-76.748719	-8.098416
58461	9.606740	-0.054135	2.274058	-0.003558	0.055087	0.059530	1.000000	0.000030	0.000015	0.000014	-2.728432	-76.749255	-8.092959
58462	9.602345	-0.049762	2.250795	0.018874	0.054910	0.049879	1.000000	0.000029	0.000021	0.000008	-2.720059	-76.746467	-8.105122
58463	9.581726	-0.038097	2.257188	0.010332	0.068404	0.031145	1.000000	0.000033	0.000022	0.000021	-2.727880	-76.746116	-8.096276
58464	9.577314	-0.033754	2.234010	0.032496	0.068317	0.021496	1.000000	0.000019	0.000023	0.000003	-2.719207	-76.744808	-8.112476
58465	9.585827	-0.042757	2.281679	-0.012731	0.068129	0.040797	1.000000	0.000033	0.000022	0.000021	-2.727009	-76.744454	-8.103657
58466	9.581428	-0.038573	2.258447	0.009565	0.068136	0.031148	1.000000	0.000025	0.000018	0.000020	-2.729351	-76.743029	-8.110200
58467	9.585659	-0.043221	2.282378	-0.013238	0.068115	0.040797	1.000000	0.000030	0.000015	0.000014	-2.734241	-76.743550	-8.104818
58468	9.589302	-0.071571	2.251393	0.011580	0.034039	0.037557	1.000000	0.000043	0.000011	0.000012	-2.721955	-76.745359	-8.111152
58469	9.601752	-0.050867	2.253302	0.016364	0.054602	0.049885	1.000000	0.000034	0.000016	0.000026	-2.732326	-76.745715	-8.099586
58470	9.614175	-0.030266	2.255321	0.021047	0.074911	0.062215	1.000000	0.000033	0.000022	0.000021	-2.733406	-76.745797	-8.105906
58471	9.605264	-0.079688	2.222877	0.040907	0.020966	0.046649	1.000000	0.000033	0.000022	0.000021	-2.741150	-76.745442	-8.097166
58472	9.592876	-0.042618	2.207216	0.059642	0.054752	0.030601	1.000000	0.000025	0.000014	0.000001	-2.732154	-76.747862	-8.110474
58473	9.580855	-0.039584	2.260860	0.006264	0.067961	0.031152	1.000000	0.000036	0.000033	0.000003	-2.730872	-76.746428	-8.110704
58474	9.601222	-0.051412	2.255543	0.013908	0.054220	0.049891	1.000000	0.000041	0.000033	0.000016	-2.721985	-76.745080	-8.117331
58475	9.563738	-0.056147	2.236890	0.022648	0.047434	0.009183	1.000000	0.000031	0.000035	0.000010	-2.724452	-76.743306	-8.114250
58476	9.547353	-0.048925	2.267145	-0.008351	0.060356	0.000089	1.000000	0.000036	0.000036	0.000023	-2.721204	-76.741331	-8.119114
58477	9.580239	-0.039947	2.263458	0.004578	0.067542	0.031156	1.000000	0.000028	0.000028	0.000003	-2.720746	-76.740436	-8.119473
58478	9.604953	-0.056427	2.281537	-0.009980	0.053732	0.059533	1.000000	0.000021	0.000014	0.000033	-2.725256	-76.739970	-8.118085
58479	9.584332	-0.044853	2.287912	-0.018492	0.067235	0.040794	1.000000	0.000045	0.000031	0.000009	-2.725632	-76.738707	-8.115525
58480	9.588530	-0.049374	2.311915	-0.041988	0.066892	0.050429	1.000000	0.000030	0.000008	0.000019	-2.722007	-76.743621	-8.118712
58481	9.600414	-0.052520	2.258956	0.010622	0.053914	0.049897	1.000000	0.000030	0.000015	0.000014	-2.726735	-76.744158	-8.113526
58482	9.600355	-0.052606	2.259204	0.009961	0.053497	0.049900	1.000000	0.000043	0.000011	0.000012	-2.714700	-76.746346	-8.119225
58483	9.600311	-0.052740	2.259390	0.009577	0.053624	0.049900	1.000000	0.000030	0.000008	0.000019	-2.722011	-76.747599	-8.111266
58484	9.579718	-0.041058	2.265645	0.001440	0.066779	0.031162	1.000000	0.000046	0.000024	0.000014	-2.717506	-76.744686	-8.119424
58485	9.571660	-0.008528	2.273471	-0.001882	0.100705	0.024755	1.000000	0.000031	0.000002	0.000024	-2.727422	-76.746644	-8.108687
58486	9.567077	-0.062146	2.264515	-0.004892	0.046197	0.018828	1.000000	0.000005	0.000024	-0.000016	-2.708696	-76.748218	-8.132227
58487	9.579521	-0.041311	2.266474	-0.000094	0.066745	0.031162	1.000000	0.000035	0.000009	0.000031	-2.721487	-76.749302	-8.118105
58488	9.579435	-0.041498	2.266833	-0.001124	0.066390	0.031164	1.000000	0.000028	0.000028	0.000003	-2.706467	-76.751761	-8.131758
58489	9.596132	-0.024922	2.292544	-0.018763	0.086814	0.053125	1.000000	0.000033	0.000019	0.000001	-2.704694	-76.751939	-8.132828
58490	9.558721	-0.029525	2.273598	-0.009251	0.079636	0.012425	1.000000	0.000029	0.000021	0.000008	-2.699662	-76.747164	-8.144483
58491	9.612167	-0.032307	2.263836	0.011773	0.073417	0.062242	1.000000	0.000037	0.000026	0.000009	-2.700776	-76.746448	-8.142162
58492	9.595260	-0.049006	2.239023	0.028332	0.052944	0.040284	1.000000	0.000020	0.000020	0.000027	-2.704520	-76.747897	-8.146749
58493	9.578917	-0.041940	2.269014	-0.002593	0.066338	0.031165	1.000000	0.000051	0.000025	0.000027	-2.712870	-76.747192	-8.135368
58494	9.587364	-0.050801	2.316714	-0.048247	0.065666	0.050408	1.000000	0.000024	0.000021	-0.000004	-2.693513	-76.748975	-8.151382
58495	9.558227	-0.030276	2.275664	-0.011855	0.079397	0.012424	1.000000	0.000035	0.000009	0.000031	-2.706206	-76.750065	-8.137372
58496	9.558166	-0.030468	2.275918	-0.012807	0.079076	0.012425	1.000000	0.000042	0.000017	0.000007	-2.692876	-76.753332	-8.146734
58497	9.574330	-0.037847	2.246699	0.017346	0.065922	0.021550	1.000000	0.000042	0.000017	0.000007	-2.692746	-76.753688	-8.145040
58498	9.574272	-0.037933	2.246946	0.017408	0.065589	0.021553	1.000000	0.000031	0.000008	0.000019	-2.690082	-76.752023	-8.150599
58499	9.594750	-0.049888	2.241188	0.025119	0.052321	0.040296	1.000000	0.000026	0.000008	0.000006	-2.691693	-76.753449	-8.149074
58500	9.607206	-0.028924	2.243114	0.030035	0.072372	0.052639	1.000000	0.000041	0.000023	0.000002	-2.677184	-76.752091	-8.165851
58501	9.598851	-0.054353	2.265545	0.002016	0.051974	0.049913	1.000000	0.000020	0.000020	0.000027	-2.689227	-76.751953	-8.154260
58502	9.594498	-0.050036	2.242265	0.023740	0.051771	0.040302	1.000000	0.000038	0.000016	-0.000005	-2.671719	-76.754049	-8.172866
58503	9.578156	-0.042508	2.272211	-0.007175	0.065181	0.031170	1.000000	0.000015	0.000026	0.000009	-2.675601	-76.753370	-8.170322
58504	9.598572	-0.054547	2.266723	0.000307	0.051438	0.049916	1.000000	0.000025	0.000018	0.000020	-2.671196	-76.754448	-8.173605
58505	9.594776	-0.026405	2.298198	-0.025409	0.085264	0.053123	1.000000	0.000030	0.000015	0.000014	-2.675628	-76.754998	-8.168751
58506	9.577901	-0.043015	2.273278	-0.008965	0.064589	0.031172	1.000000	0.000038	0.000020	0.000014	-2.665668	-76.757019	-8.176194
58507	9.589793	-0.046145	2.220503	0.043617	0.051502	0.030703	1.000000	0.000029	0.000021	0.000008	-2.667452	-76.756862	-8.174174
58508	9.610768	-0.034110	2.269743	0.003145	0.071577	0.062262	1.000000	0.000030	0.000015	0.000014	-2.663750	-76.759522	-8.184955
58509	9.598179	-0.055085	2.268374	-0.002444	0.051282	0.049916	1.000000	0.000043	0.000011	0.000012	-2.666097	-76.760598	-8.180624
58510	9.606371	-0.029955	2.246673	0.024390	0.071351	0.052662	1.000000	0.000033	0.000022	0.000021	-2.658072	-76.762247	-8.183684
58511	9.606291	-0.030234	2.247013	0.024001	0.071465	0.052662	1.000000	0.000017	0.000013	0.000020	-2.667089	-76.763013	-8.175648
58512	9.593682	-0.051437	2.245723	0.018912	0.050749	0.040318	1.000000	0.000043	0.000021	0.000026	-2.667332	-76.759654	-8.176104
58513	9.573061	-0.039742	2.252067	0.010455	0.064260	0.021571	1.000000	0.000037	0.000026	0.000009	-2.668167	-76.758961	-8.174094
58514	9.593461	-0.051685	2.246660	0.018918	0.050258	0.040320	1.000000	0.000024	0.000024	0.000015	-2.658401	-76.753315	-8.176052
58515	9.568570	-0.035618	2.229421	0.032910	0.063855	0.011974	1.000000	0.000032	0.000029	0.000015	-2.662980	-76.752268	-8.170725
58516	9.576956	-0.044447	2.277227	-0.011936	0.063228	0.031178	1.000000	0.000037	0.000026	0.000009	-2.651029	-76.748602	-8.183278
58517	9.568324	-0.035770	2.230477	0.032575	0.063506	0.011977	1.000000	0.000032	0.000029	0.000015	-2.655578	-76.747546	-8.177977
58518	9.539429	-0.049513	2.258801	-0.003984	0.056332	-0.009517	1.000000	0.000021	0.000014	0.000032	-2.663378	-76.750655	-8.179928
58519	9.597175	-0.056841	2.272573	-0.005486	0.049967	0.049922	1.000000	0.000038	0.000016	-0.000005	-2.657464	-76.751169	-8.184744
58520	9.589099	-0.024064	2.280480	-0.009228	0.083363	0.043527	1.000000	0.000042	0.000027	0.000021	-2.648741	-76.752750	-8.187256
58521	9.576447	-0.045040	2.279356	-0.014822	0.063068	0.031175	1.000000	0.000019	0.000023	0.000003	-2.648611	-76.752415	-8.188301
58522	9.609410	-0.036057	2.275454	-0.001860	0.069754	0.062275	1.000000	0.000030	0.000015	0.000014	-2.642430	-76.752157	-8.196856
58523	9.584572	-0.019829	2.258014	0.012149	0.083342	0.033934	1.000000	0.000033	0.000019	0.000001	-2.640238	-76.752334	-8.198390
58524	9.592449	-0.052408	2.250958	0.014979	0.049391	0.040331	1.000000	0.000032	0.000025	-0.000004	-2.630542	-76.749491	-8.219061
58525	9.629642	-0.047853	2.270773	0.005408	0.056428	0.081022	1.000000	0.000020	0.000020	0.000027	-2.642298	-76.749351	-8.207799
58526	9.580029	-0.015738	2.235642	0.033261	0.083188	0.024348	1.000000	0.000033	0.000022	0.000021	-2.639973	-76.752110	-8.216315
58527	9.571631	-0.041234	2.258112	0.005204	0.062833	0.021585	1.000000	0.000033	0.000022	0.000021	-2.647052	-76.751780	-8.208348
58528	9.600349	-0.027916	2.230598	0.040423	0.069424	0.043103	1.000000	0.000033	0.000019	0.000001	-2.630125	-76.752099	-8.221478
58529	9.550932	-0.029382	2.264762	-0.003719	0.075891	0.002838	1.000000	0.000029	0.000021	0.000008	-2.631655	-76.751938	-8.219754
58530	9.575564	-0.045771	2.283050	-0.018667	0.062105	0.031175	1.000000	0.000028	0.000031	0.000022	-2.628629	-76.751079	-8.224711
58531	9.608494	-0.037027	2.279305	-0.005795	0.069200	0.062278	1.000000	0.000033	0.000022	0.000021	-2.635651	-76.750751	-8.216801
58532	9.604154	-0.032919	2.256091	0.016474	0.068946	0.052696	1.000000	0.000033	0.000022	0.000021	-2.632962	-76.748927	-8.220767
58533	9.591494	-0.054002	2.254986	0.010862	0.048652	0.040340	1.000000	0.000032	0.000029	0.000015	-2.637343	-76.747882	-8.215687
58534	9.608164	-0.037627	2.280683	-0.006962	0.068813	0.062280	1.000000	0.000047	0.000018	0.000020	-2.634199	-76.749062	-8.223493
58535	9.591291	-0.054473	2.255838	0.009877	0.048570	0.040342	1.000000	0.000038	0.000023	0.000033	-2.646699	-76.748563	-8.209425
58536	9.591209	-0.054694	2.256183	0.009777	0.048191	0.040344	1.000000	0.000034	0.000012	0.000007	-2.635912	-76.747413	-8.223321
58537	9.570626	-0.042744	2.262337	0.001364	0.061714	0.021593	1.000000	0.000033	0.000019	0.000001	-2.633584	-76.747588	-8.225040
58538	9.611588	-0.066548	2.250899	0.017325	0.034302	0.059097	1.000000	0.000031	0.000009	0.000019	-2.624290	-76.746544	-8.229695
58539	9.595264	-0.059240	2.280566	-0.013544	0.047780	0.049925	1.000000	0.000031	0.000009	0.000019	-2.630942	-76.747796	-8.222496
58540	9.566245	-0.038939	2.239325	0.023214	0.060856	0.012020	1.000000	0.000017	0.000013	0.000020	-2.627137	-76.746631	-8.228486
58541	9.599224	-0.029906	2.235410	0.036085	0.067928	0.043130	1.000000	0.000037	0.000023	-0.000011	-2.618351	-76.746425	-8.236394
58542	9.590820	-0.055208	2.257822	0.007156	0.047132	0.040351	1.000000	0.000021	0.000014	0.000032	-2.617779	-76.751511	-8.235796
58543	9.582818	-0.022668	2.265423	0.003985	0.081048	0.033960	1.000000	0.000040	0.000003	0.000005	-2.616819	-76.753453	-8.235327
58544	9.594942	-0.059820	2.281905	-0.016336	0.046709	0.049926	1.000000	0.000024	0.000024	0.000015	-2.606349	-76.753907	-8.239417
58545	9.570127	-0.043767	2.264429	-0.002280	0.060272	0.021602	1.000000	0.000021	0.000010	0.000013	-2.611173	-76.754995	-8.235174
58546	9.586353	-0.051565	2.235189	0.028136	0.046446	0.030784	1.000000	0.000034	0.000016	0.000026	-2.608245	-76.753024	-8.238612
58547	9.603077	-0.035230	2.260639	0.010523	0.066897	0.052718	1.000000	0.000035	0.000006	0.000012	-2.611003	-76.754621	-8.234855
58548	9.590484	-0.056334	2.259220	0.005112	0.046034	0.040358	1.000000	0.000026	0.000011	0.000026	-2.607747	-76.753832	-8.236116
58549	9.586186	-0.052004	2.235895	0.027185	0.046166	0.030788	1.000000	0.000037	0.000023	-0.000011	-2.598835	-76.753629	-8.244135
58550	9.606602	-0.063898	2.230461	0.034785	0.032394	0.049543	1.000000	0.000052	0.000019	0.000032	-2.597995	-76.753399	-8.245002
58551	9.585990	-0.052258	2.236729	0.026391	0.045917	0.030792	1.000000	0.000015	0.000026	0.000009	-2.601277	-76.752711	-8.243104
58552	9.585866	-0.052390	2.237256	0.025939	0.045509	0.030795	1.000000	0.000032	0.000029	0.000015	-2.592473	-76.751594	-8.247688
58553	9.589958	-0.056790	2.261442	0.003089	0.045572	0.040361	1.000000	0.000037	0.000026	0.000009	-2.592803	-76.750880	-8.246207
58554	9.569333	-0.044987	2.267756	-0.005535	0.058708	0.021610	1.000000	0.000024	0.000024	0.000015	-2.587111	-76.751411	-8.254176
58555	9.569222	-0.045165	2.268220	-0.005922	0.058802	0.021609	1.000000	0.000024	0.000024	0.000015	-2.592080	-76.750898	-8.249455
58556	9.606386	-0.040590	2.288114	-0.016131	0.065309	0.062293	1.000000	0.000037	0.000026	0.000009	-2.577248	-76.753171	-8.259698
58557	9.610019	-0.069254	2.257504	0.008701	0.031611	0.059117	1.000000	0.000020	0.000020	0.000027	-2.588584	-76.753036	-8.248864
58558	9.589426	-0.057436	2.263681	0.000998	0.044750	0.040365	1.000000	0.000038	0.000016	-0.000005	-2.574937	-76.749323	-8.268255
58559	9.618216	-0.044153	2.236061	0.036311	0.051815	0.061927	1.000000	0.000017	0.000013	0.000020	-2.583364	-76.750059	-8.260852
58560	9.581349	-0.024819	2.271604	-0.002446	0.078426	0.033982	1.000000	0.000034	0.000012	0.000007	-2.575317	-76.750282	-8.277042
58561	9.597587	-0.032451	2.242391	0.027621	0.065097	0.043177	1.000000	0.000030	0.000015	0.000014	-2.579069	-76.750818	-8.272929
58562	9.568627	-0.045882	2.270715	-0.008087	0.057973	0.021613	1.000000	0.000032	0.000029	0.000015	-2.578001	-76.747418	-8.284502
58563	9.581060	-0.025077	2.272818	-0.003218	0.078448	0.033981	1.000000	0.000037	0.000026	0.000009	-2.578242	-76.746697	-8.283146
58564	9.584693	-0.053463	2.242251	0.021288	0.044290	0.030812	1.000000	0.000042	0.000023	0.000002	-2.562625	-76.747685	-8.295636
58565	9.568316	-0.046108	2.272022	-0.009546	0.057813	0.021612	1.000000	0.000022	0.000007	0.000038	-2.579138	-76.748960	-8.279294
58566	9.601318	-0.037459	2.268061	0.002659	0.064586	0.052739	1.000000	0.000029	0.000021	0.000008	-2.571341	-76.752338	-8.296877
58567	9.584902	-0.029933	2.297988	-0.028171	0.078119	0.043534	1.000000	0.000015	0.000026	0.000009	-2.574463	-76.751653	-8.295187
58568	9.601124	-0.037715	2.268879	0.001572	0.064131	0.052742	1.000000	0.000048	0.000011	0.000025	-2.564541	-76.753769	-8.298674
58569	9.601027	-0.037885	2.269286	0.001183	0.064221	0.052741	1.000000	0.000023	0.000031	0.000010	-2.566742	-76.752548	-8.296939
58570	9.576214	-0.021887	2.251877	0.016061	0.077327	0.024439	1.000000	0.000034	0.000016	0.000026	-2.568040	-76.748200	-8.302136
58571	9.580329	-0.026409	2.275882	-0.006794	0.077421	0.033988	1.000000	0.000038	0.000020	0.000014	-2.570807	-76.748195	-8.298080
58572	9.588189	-0.059210	2.268870	-0.003711	0.043314	0.040371	1.000000	0.000043	0.000017	0.000007	-2.563220	-76.743831	-8.314090
58573	9.592277	-0.029923	2.223469	0.046111	0.063753	0.033647	1.000000	0.000020	0.000020	0.000027	-2.574408	-76.743669	-8.303458
58574	9.596387	-0.034409	2.247494	0.022379	0.063420	0.043201	1.000000	0.000043	0.000017	0.000007	-2.559300	-76.748681	-8.314782
58575	9.583762	-0.055367	2.246179	0.016723	0.043131	0.030826	1.000000	0.000031	0.000009	0.000019	-2.565532	-76.749927	-8.308043
58576	9.596278	-0.034703	2.247954	0.021670	0.063077	0.043205	1.000000	0.000039	0.000013	0.000019	-2.558193	-76.749838	-8.315523
58577	9.616700	-0.046804	2.242521	0.029238	0.049710	0.061961	1.000000	0.000024	0.000024	0.000015	-2.562931	-76.749315	-8.311081
58578	9.596079	-0.034978	2.248800	0.020711	0.062904	0.043208	1.000000	0.000037	0.000026	0.000009	-2.553726	-76.749397	-8.323194
58579	9.562879	-0.044008	2.253561	0.007099	0.056070	0.012074	1.000000	0.000032	0.000029	0.000015	-2.557562	-76.748337	-8.318708
58580	9.587450	-0.060486	2.271958	-0.007388	0.042269	0.040373	1.000000	0.000029	0.000025	0.000027	-2.557911	-76.744843	-8.321976
58581	9.566862	-0.048677	2.278081	-0.015724	0.055810	0.021616	1.000000	0.000039	0.000010	-0.000000	-2.553909	-76.746053	-8.324783
58582	9.558407	-0.040179	2.231098	0.027936	0.055477	0.002541	1.000000	0.000019	0.000027	0.000022	-2.549802	-76.750089	-8.329301
58583	9.583039	-0.056692	2.249232	0.013017	0.042129	0.030836	1.000000	0.000014	-0.000001	0.000018	-2.557718	-76.752419	-8.322803
58584	9.603962	-0.044479	2.298194	-0.027788	0.062273	0.062286	1.000000	0.000048	0.000008	0.000006	-2.543522	-76.757786	-8.334168
58585	9.595984	-0.011649	2.305711	-0.030840	0.096186	0.055907	1.000000	0.000044	0.000011	0.000012	-2.544982	-76.758849	-8.330823
58586	9.620206	-0.052228	2.269068	0.001935	0.048441	0.071513	1.000000	0.000022	0.000004	0.000019	-2.539467	-76.759699	-8.338470
58587	9.636484	-0.060063	2.239803	0.031955	0.035030	0.080740	1.000000	0.000030	0.000015	0.000014	-2.542941	-76.760245	-8.334688
58588	9.574912	-0.024266	2.257380	0.007581	0.075059	0.024467	1.000000	0.000039	0.000010	-0.000000	-2.527244	-76.762171	-8.352429
58589	9.615882	-0.048340	2.245991	0.023054	0.048215	0.061985	1.000000	0.000022	0.000007	0.000038	-2.543502	-76.763460	-8.336380
58590	9.574818	-0.024663	2.257772	0.007133	0.074706	0.024470	1.000000	0.000038	0.000016	-0.000005	-2.525006	-76.761656	-8.356100
58591	9.562125	-0.045528	2.256728	0.001460	0.054420	0.012086	1.000000	0.000036	0.000036	0.000022	-2.531594	-76.759723	-8.348354
58592	9.582474	-0.057597	2.251614	0.008316	0.040636	0.030847	1.000000	0.000014	0.000032	0.000004	-2.519218	-76.761927	-8.364210
58593	9.561826	-0.045715	2.257991	0.000001	0.054181	0.012087	1.000000	0.000023	0.000031	0.000010	-2.521151	-76.760711	-8.362778
58594	9.553786	-0.013095	2.265771	-0.003003	0.087801	0.005714	1.000000	0.000025	0.000018	0.000020	-2.521047	-76.760606	-8.369203
58595	9.598856	-0.041312	2.278391	-0.010034	0.060991	0.052757	1.000000	0.000036	0.000033	0.000003	-2.518302	-76.759191	-8.371063
58596	9.582412	-0.033827	2.308296	-0.041215	0.074043	0.043519	1.000000	0.000012	0.000016	0.000027	-2.515100	-76.761351	-8.369695
58597	9.590245	-0.066885	2.301373	-0.038979	0.040292	0.049891	1.000000	0.000046	0.000024	0.000014	-2.516687	-76.760825	-8.365896
58598	9.582200	-0.034052	2.309173	-0.041783	0.073927	0.043518	1.000000	0.000059	0.000026	0.000008	-2.507207	-76.758701	-8.382162
58599	9.602625	-0.045925	2.303743	-0.034263	0.060536	0.062277	1.000000	0.000026	0.000008	0.000006	-2.507661	-76.760133	-8.381938
58600	9.561152	-0.046396	2.260830	-0.003110	0.053084	0.012092	1.000000	0.000030	0.000015	0.000014	-2.496793	-76.761443	-8.386227
58601	9.565250	-0.050781	2.284795	-0.025985	0.053214	0.021608	1.000000	0.000030	0.000015	0.000014	-2.500111	-76.761996	-8.382618
58602	9.614619	-0.049591	2.251367	0.016245	0.046396	0.062007	1.000000	0.000026	0.000008	0.000006	-2.490540	-76.768813	-8.395802
58603	9.585666	-0.062785	2.279409	-0.019833	0.039644	0.040367	1.000000	0.000026	0.000008	0.000006	-2.490946	-76.770260	-8.395633
58604	9.610335	-0.045418	2.228194	0.037969	0.046010	0.052498	1.000000	0.000032	0.000029	0.000015	-2.482616	-76.768652	-8.403996
58605	9.593883	-0.038024	2.258099	0.007188	0.059619	0.043247	1.000000	0.000020	0.000020	0.000027	-2.493454	-76.768533	-8.393758
58606	9.610105	-0.046130	2.229168	0.037753	0.045720	0.052500	1.000000	0.000006	0.000031	0.000023	-2.494933	-76.763521	-8.397944
58607	9.560521	-0.047310	2.263479	-0.006220	0.052455	0.012094	1.000000	0.000053	0.000038	-0.000015	-2.480991	-76.761542	-8.409361
58608	9.556185	-0.043000	2.240544	0.015462	0.052180	0.002587	1.000000	0.000032	0.000039	0.000029	-2.482496	-76.761446	-8.412242
58609	9.593273	-0.038577	2.260683	0.005777	0.059198	0.043251	1.000000	0.000023	0.000031	0.000010	-2.484268	-76.760240	-8.411008
58610	9.543707	-0.039843	2.294858	-0.037895	0.065500	0.002840	1.000000	0.000037	0.000026	0.000009	-2.473754	-76.757499	-8.424500
58611	9.564127	-0.051802	2.289472	-0.030398	0.052094	0.021602	1.000000	0.000044	0.000011	0.000012	-2.474937	-76.758570	-8.421473
58612	9.597163	-0.043088	2.285479	-0.017231	0.058663	0.052761	1.000000	0.000026	0.000011	0.000026	-2.476386	-76.757094	-8.425278
58613	9.605545	-0.018076	2.263534	0.010172	0.079013	0.055649	1.000000	0.000039	0.000010	-0.000000	-2.472039	-76.758328	-8.428486
58614	9.597060	-0.043132	2.285909	-0.018028	0.058463	0.052761	1.000000	0.000061	0.000014	0.000018	-2.465242	-76.758813	-8.434515
58615	9.592877	-0.039071	2.262353	0.004067	0.058455	0.043256	1.000000	0.000014	-0.000001	0.000018	-2.472830	-76.761155	-8.428409
58616	9.592869	-0.039340	2.262384	0.003224	0.058077	0.043259	1.000000	0.000022	0.000004	0.000018	-2.466522	-76.765169	-8.434805
58617	9.588693	-0.035264	2.238798	0.025320	0.058065	0.033758	1.000000	0.000035	0.000006	0.000012	-2.468534	-76.766778	-8.431919
58618	9.571913	-0.052113	2.213756	0.041863	0.037293	0.011864	1.000000	0.000026	0.000011	0.000026	-2.466973	-76.768758	-8.435503
58619	9.568056	-0.023764	2.245099	0.016419	0.071285	0.014997	1.000000	0.000023	0.000031	0.000010	-2.468645	-76.767549	-8.434386
58620	9.588436	-0.035680	2.239890	0.023625	0.057375	0.033766	1.000000	0.000042	0.000024	0.000002	-2.451105	-76.768340	-8.447481
58621	9.575747	-0.056679	2.238788	0.017916	0.037094	0.021367	1.000000	0.000020	0.000020	0.000027	-2.461783	-76.768217	-8.437432
58622	9.588242	-0.036045	2.240717	0.022966	0.057101	0.033769	1.000000	0.000029	0.000021	0.000008	-2.452459	-76.766977	-8.448956
58623	9.588161	-0.036322	2.241059	0.022572	0.057168	0.033770	1.000000	0.000021	0.000014	0.000032	-2.465744	-76.767564	-8.436123
58624	9.592200	-0.040765	2.265193	-0.001025	0.056940	0.043266	1.000000	0.000036	0.000033	0.000003	-2.450290	-76.769900	-8.447400
58625	9.604672	-0.019899	2.267220	0.003895	0.077354	0.055667	1.000000	0.000038	0.000020	0.000014	-2.452479	-76.769926	-8.444006
58626	9.563027	-0.053966	2.294010	-0.038210	0.049848	0.021586	1.000000	0.000046	0.000024	0.000014	-2.439352	-76.773158	-8.451078
58627	9.587722	-0.036641	2.242928	0.019558	0.056583	0.033779	1.000000	0.000037	0.000026	0.000009	-2.438886	-76.772481	-8.450518
58628	9.575411	-0.033222	2.296399	-0.033437	0.069901	0.033989	1.000000	0.000039	0.000013	0.000019	-2.433703	-76.771435	-8.457474
58629	9.591697	-0.041159	2.267313	-0.003482	0.056377	0.043268	1.000000	0.000016	0.000019	0.000015	-2.438771	-76.771492	-8.453737
58630	9.599510	-0.074099	2.260478	-0.001567	0.022323	0.049632	1.000000	0.000029	0.000021	0.000008	-2.431255	-76.772419	-8.470399
58631	9.591531	-0.041510	2.268009	-0.004495	0.056230	0.043269	1.000000	0.000035	0.000010	0.000031	-2.442417	-76.773537	-8.458120
58632	9.587340	-0.037464	2.244549	0.017429	0.055852	0.033788	1.000000	0.000025	0.000014	0.000001	-2.430706	-76.775015	-8.473215
58633	9.607765	-0.049488	2.239164	0.024878	0.042416	0.052556	1.000000	0.000016	0.000019	0.000015	-2.435744	-76.775076	-8.469528
58634	9.599203	-0.074758	2.261760	-0.003367	0.021912	0.049632	1.000000	0.000024	0.000024	0.000015	-2.431387	-76.774442	-8.477378
58635	9.578971	-0.038516	2.322463	-0.059120	0.069541	0.043461	1.000000	0.000020	0.000017	0.000008	-2.432629	-76.774844	-8.477054
58636	9.594888	-0.070703	2.238838	0.018606	0.021537	0.040153	1.000000	0.000029	0.000022	0.000008	-2.424166	-76.772797	-8.491315
58637	9.570504	-0.030101	2.275927	-0.014637	0.069062	0.024503	1.000000	0.000028	0.000028	0.000003	-2.421877	-76.771942	-8.493750
58638	9.578294	-0.062904	2.269188	-0.013095	0.034872	0.030864	1.000000	0.000029	0.000022	0.000008	-2.409730	-76.774711	-8.503313
58639	9.599289	-0.017210	2.248822	0.019667	0.075496	0.046205	1.000000	0.000035	0.000010	0.000031	-2.420821	-76.775833	-8.491126
58640	9.586970	-0.013801	2.302222	-0.033964	0.088894	0.046387	1.000000	0.000042	0.000024	0.000002	-2.404803	-76.777435	-8.503364
58641	9.611145	-0.054360	2.266043	-0.001530	0.041491	0.062042	1.000000	0.000038	0.000020	0.000014	-2.406836	-76.777477	-8.500158
58642	9.602802	-0.046042	2.219042	0.043278	0.040898	0.043099	1.000000	0.000038	0.000020	0.000014	-2.399185	-76.775989	-8.509373
58643	9.610963	-0.054547	2.266811	-0.002126	0.041200	0.062043	1.000000	0.000038	0.000020	0.000014	-2.401199	-76.776027	-8.506188
58644	9.586238	-0.038505	2.249235	0.011994	0.054153	0.033805	1.000000	0.000024	0.000024	0.000015	-2.392186	-76.775991	-8.509314
58645	9.565607	-0.026733	2.255479	0.003769	0.067721	0.015035	1.000000	0.000019	0.000033	0.000016	-2.397369	-76.774462	-8.505157
58646	9.602362	-0.046613	2.220933	0.042011	0.040197	0.043108	1.000000	0.000029	0.000022	0.000008	-2.388289	-76.771132	-8.514241
58647	9.569536	-0.031076	2.279980	-0.019041	0.067523	0.024506	1.000000	0.000026	0.000008	0.000006	-2.388252	-76.772586	-8.514577
58648	9.577343	-0.064058	2.273167	-0.017744	0.033308	0.030862	1.000000	0.000028	0.000032	0.000022	-2.381368	-76.775407	-8.516505
58649	9.585717	-0.039182	2.251442	0.009693	0.053578	0.033811	1.000000	0.000020	0.000017	0.000008	-2.382459	-76.775815	-8.516333
58650	9.569250	-0.031474	2.281174	-0.020426	0.066939	0.024507	1.000000	0.000038	0.000020	0.000014	-2.378109	-76.772137	-8.527688
58651	9.569170	-0.031581	2.281509	-0.020824	0.066998	0.024506	1.000000	0.000030	0.000015	0.000013	-2.380929	-76.772711	-8.524656
58652	9.598082	-0.018512	2.253960	0.014674	0.073253	0.046231	1.000000	0.000033	0.000019	0.000001	-2.365866	-76.771117	-8.537429
58653	9.589483	-0.043570	2.276616	-0.013569	0.053111	0.043278	1.000000	0.000032	0.000029	0.000015	-2.368931	-76.770093	-8.533812
58654	9.589406	-0.043711	2.276937	-0.013024	0.052758	0.043280	1.000000	0.000045	0.000004	0.000018	-2.365460	-76.766141	-8.542651
58655	9.585263	-0.039702	2.253364	0.009084	0.052679	0.033816	1.000000	0.000031	0.000009	0.000019	-2.370870	-76.767412	-8.536848
58656	9.585163	-0.039837	2.253789	0.008012	0.052366	0.033819	1.000000	0.000032	0.000035	0.000010	-2.359438	-76.769251	-8.549041
58657	9.576533	-0.065022	2.276548	-0.020238	0.032234	0.030861	1.000000	0.000033	0.000022	0.000021	-2.365094	-76.768934	-8.542659
58658	9.597547	-0.019390	2.256230	0.012896	0.072370	0.046240	1.000000	0.000025	0.000018	0.000020	-2.361904	-76.766869	-8.546213
58659	9.588939	-0.044637	2.278883	-0.015355	0.052240	0.043280	1.000000	0.000033	0.000029	0.000015	-2.364914	-76.765835	-8.542657
58660	9.593216	-0.015781	2.233480	0.034708	0.071840	0.036785	1.000000	0.000016	0.000023	0.000034	-2.366823	-76.764346	-8.536639
58661	9.605412	-0.028687	2.305082	-0.033210	0.072321	0.065158	1.000000	0.000033	0.000029	0.000015	-2.369808	-76.763309	-8.533102
58662	9.567764	-0.057933	2.231477	0.023298	0.030845	0.011948	1.000000	0.000029	0.000022	0.000008	-2.358923	-76.762316	-8.544846
58663	9.567682	-0.058209	2.231820	0.022901	0.030897	0.011949	1.000000	0.000021	0.000014	0.000032	-2.371803	-76.762902	-8.532452
58664	9.596927	-0.020962	2.258851	0.010610	0.071368	0.046250	1.000000	0.000029	0.000022	0.000008	-2.362006	-76.762936	-8.544089
58665	9.575721	-0.066948	2.279904	-0.022999	0.030921	0.030859	1.000000	0.000039	0.000013	0.000019	-2.366427	-76.763666	-8.538316
58666	9.600577	-0.049858	2.228567	0.034313	0.037066	0.043150	1.000000	0.000044	0.000011	0.000012	-2.355105	-76.767000	-8.547004
58667	9.584134	-0.042168	2.258115	0.003614	0.050795	0.033830	1.000000	0.000031	0.000009	0.000019	-2.360392	-76.768275	-8.541323
58668	9.591947	-0.075082	2.251267	0.005998	0.016459	0.040179	1.000000	0.000051	0.000022	0.000007	-2.345264	-76.765627	-8.547152
58669	9.579871	-0.038233	2.235113	0.025672	0.050210	0.024382	1.000000	0.000020	0.000020	0.000027	-2.355455	-76.765500	-8.537620
58670	9.567144	-0.059060	2.234103	0.020218	0.029599	0.011959	1.000000	0.000036	0.000029	-0.000016	-2.335316	-76.762627	-8.565707
58672	9.589998	-0.031910	2.260738	0.010692	0.120574	9.892780	1.000000	0.000040	0.000044	0.000029	-2.343981	-76.759821	-8.555453
58673	9.583510	-0.042550	2.260756	0.001707	0.049797	0.033835	1.000000	0.000032	0.000035	0.000010	-2.332543	-76.760982	-8.564833
58674	9.600096	-0.026026	2.286459	-0.015846	0.070327	0.055707	1.000000	0.000025	0.000018	0.000020	-2.338919	-76.761198	-8.558683
58675	9.570674	-0.063784	2.260188	-0.004123	0.029198	0.021409	1.000000	0.000024	0.000024	0.000015	-2.334302	-76.758527	-8.570251
58676	9.579138	-0.038990	2.238238	0.023354	0.049403	0.024392	1.000000	0.000022	0.000004	0.000018	-2.340400	-76.760334	-8.564721
58677	9.620369	-0.038408	2.281750	-0.008835	0.056188	0.074483	1.000000	0.000037	0.000023	-0.000011	-2.321072	-76.759277	-8.585535
58678	9.587170	-0.047324	2.286262	-0.022370	0.049456	0.043281	1.000000	0.000021	0.000014	0.000032	-2.333818	-76.759859	-8.573284
58679	9.616129	-0.034448	2.258689	0.012894	0.055794	0.065041	1.000000	0.000038	0.000016	-0.000005	-2.318095	-76.760059	-8.591739
58680	9.574780	-0.035024	2.215695	0.044389	0.048722	0.014957	1.000000	0.000026	0.000011	0.000026	-2.327051	-76.760982	-8.582844
58681	9.582851	-0.043671	2.263526	-0.000811	0.048717	0.033841	1.000000	0.000028	0.000032	0.000022	-2.324544	-76.757977	-8.588466
58682	9.599160	-0.051770	2.234617	0.029073	0.035051	0.043174	1.000000	0.000039	0.000013	0.000019	-2.328819	-76.758698	-8.582853
58683	9.586743	-0.048250	2.288032	-0.024068	0.048527	0.043281	1.000000	0.000024	0.000024	0.000015	-2.321104	-76.757494	-8.589606
58684	9.578459	-0.040106	2.241125	0.020566	0.048223	0.024404	1.000000	0.000033	0.000029	0.000015	-2.323882	-76.756445	-8.586287
58685	9.582397	-0.044444	2.265434	-0.002494	0.048031	0.033844	1.000000	0.000019	0.000033	0.000016	-2.317667	-76.755382	-8.594148
58686	9.578163	-0.040432	2.242385	0.019626	0.047898	0.024408	1.000000	0.000032	0.000035	0.000010	-2.317800	-76.753621	-8.593652
58687	9.586212	-0.048971	2.290241	-0.025540	0.047909	0.043281	1.000000	0.000035	0.000010	0.000031	-2.319430	-76.752869	-8.594633
58688	9.602552	-0.057147	2.261234	0.004337	0.034228	0.052618	1.000000	0.000024	0.000024	0.000015	-2.323058	-76.752358	-8.591423
58689	9.602440	-0.057324	2.261702	0.004155	0.033917	0.052619	1.000000	0.000024	0.000024	0.000015	-2.318537	-76.750311	-8.601542
58690	9.573997	-0.012553	2.274755	-0.006367	0.081365	0.027507	1.000000	0.000044	0.000011	0.000012	-2.318965	-76.751367	-8.599335
58691	9.598498	-0.028870	2.293122	-0.020982	0.067628	0.055717	1.000000	0.000025	0.000018	0.000020	-2.316609	-76.748068	-8.602902
58692	9.561238	-0.033565	2.273836	-0.011989	0.060723	0.015074	1.000000	0.000030	0.000011	-0.000006	-2.309778	-76.749113	-8.609791
58693	9.581669	-0.045632	2.268485	-0.004896	0.046752	0.033849	1.000000	0.000034	0.000016	0.000026	-2.305012	-76.750538	-8.604895
58694	9.581611	-0.045913	2.268724	-0.005290	0.046795	0.033849	1.000000	0.000031	0.000009	0.000019	-2.310062	-76.751787	-8.599459
58695	9.577494	-0.041931	2.245211	0.017254	0.046322	0.024420	1.000000	0.000012	0.000012	0.000007	-2.305061	-76.750023	-8.614454
58696	9.573351	-0.037994	2.221813	0.039379	0.046169	0.014991	1.000000	0.000043	0.000021	0.000026	-2.312093	-76.749844	-8.605564
58698	9.589558	-0.050624	2.255170	0.018650	0.078734	9.889734	1.000000	0.000059	0.000040	0.000041	-2.315858	-76.745630	-8.599771
58699	9.581217	-0.046998	2.270368	-0.006199	0.046285	0.033851	1.000000	0.000030	0.000015	0.000013	-2.318257	-76.746156	-8.597175
58700	9.593777	-0.026390	2.272134	-0.001051	0.066325	0.046291	1.000000	0.000034	0.000016	0.000026	-2.318978	-76.745406	-8.602764
58701	9.576977	-0.043342	2.247387	0.015686	0.045860	0.024425	1.000000	0.000033	0.000029	0.000015	-2.321621	-76.744334	-8.599594
58702	9.576873	-0.043385	2.247831	0.014744	0.045530	0.024428	1.000000	0.000043	0.000017	0.000007	-2.307910	-76.747498	-8.610000
58703	9.613973	-0.038687	2.267783	0.004952	0.052522	0.065066	1.000000	0.000029	0.000022	0.000008	-2.307652	-76.747315	-8.610250
58704	9.597219	-0.055483	2.242854	0.021473	0.031659	0.043205	1.000000	0.000045	0.000004	0.000018	-2.299897	-76.749961	-8.616184
58705	9.609809	-0.034777	2.244503	0.026469	0.052001	0.055647	1.000000	0.000030	0.000015	0.000013	-2.302243	-76.750493	-8.613649
58706	9.597104	-0.055740	2.243336	0.020680	0.031483	0.043207	1.000000	0.000030	0.000015	0.000013	-2.298233	-76.750836	-8.625114
58707	9.605610	-0.030815	2.221387	0.048203	0.051610	0.046231	1.000000	0.000043	0.000017	0.000007	-2.295907	-76.751170	-8.625861
58708	9.563811	-0.064470	2.248180	0.006283	0.024488	0.011991	1.000000	0.000042	0.000024	0.000002	-2.280649	-76.753310	-8.640717
58709	9.596808	-0.055813	2.244603	0.019003	0.031264	0.043211	1.000000	0.000023	0.000034	0.000029	-2.290770	-76.751566	-8.630965
58710	9.555684	-0.032125	2.256374	0.003201	0.058053	0.005662	1.000000	0.000020	0.000027	0.000022	-2.288671	-76.750200	-8.633085
58711	9.563440	-0.065025	2.249744	0.005125	0.024230	0.011993	1.000000	0.000038	0.000016	-0.000005	-2.280802	-76.750706	-8.640076
58712	9.580021	-0.048310	2.275382	-0.012173	0.044406	0.033854	1.000000	0.000028	0.000032	0.000022	-2.278411	-76.747682	-8.641813
58713	9.588488	-0.023520	2.253626	0.015357	0.064522	0.036885	1.000000	0.000029	0.000022	0.000008	-2.278071	-76.747501	-8.642159
58714	9.592432	-0.027731	2.277789	-0.007857	0.064347	0.046301	1.000000	0.000024	0.000024	0.000015	-2.269510	-76.748260	-8.646068
58715	9.612829	-0.039829	2.272606	-0.000540	0.050820	0.065077	1.000000	0.000043	0.000017	0.000007	-2.267111	-76.748596	-8.646886
58716	9.608704	-0.035662	2.249214	0.021766	0.050265	0.055668	1.000000	0.000043	0.000017	0.000007	-2.256098	-76.747592	-8.655401
58717	9.579535	-0.048637	2.277420	-0.014266	0.043796	0.033854	1.000000	0.000016	0.000020	0.000015	-2.260383	-76.747609	-8.652519
58718	9.629006	-0.048049	2.244440	0.028437	0.036448	0.074448	1.000000	0.000020	0.000027	0.000022	-2.258625	-76.747881	-8.659239
58719	9.595801	-0.057074	2.248869	0.014931	0.029758	0.043223	1.000000	0.000045	0.000004	0.000018	-2.261444	-76.749643	-8.654485
58720	9.579294	-0.049213	2.278420	-0.015885	0.043272	0.033853	1.000000	0.000029	0.000022	0.000008	-2.252228	-76.750292	-8.668461
58721	9.571126	-0.041084	2.231323	0.028776	0.042845	0.015043	1.000000	0.000030	0.000015	0.000013	-2.254445	-76.750827	-8.666075
58722	9.567237	-0.012376	2.262420	0.003069	0.076625	0.018123	1.000000	0.000029	0.000022	0.000008	-2.243264	-76.753177	-8.676072
58723	9.562342	-0.066118	2.254371	-0.000445	0.022503	0.011998	1.000000	0.000029	0.000022	0.000008	-2.242837	-76.753004	-8.676510
58724	9.554416	-0.033399	2.261720	-0.002599	0.056009	0.005674	1.000000	0.000017	0.000013	0.000020	-2.241785	-76.750345	-8.679669
58725	9.591471	-0.028902	2.281820	-0.012421	0.062998	0.046305	1.000000	0.000049	0.000038	0.000016	-2.242446	-76.748202	-8.676576
58726	9.595143	-0.057744	2.251661	0.012021	0.028593	0.043230	1.000000	0.000029	0.000022	0.000008	-2.233654	-76.747582	-8.686928
58727	9.615538	-0.069711	2.246505	0.019313	0.015050	0.062009	1.000000	0.000024	0.000021	-0.000004	-2.227694	-76.747570	-8.693600
58728	9.594964	-0.057734	2.252423	0.011468	0.028204	0.043232	1.000000	0.000034	0.000016	0.000026	-2.224820	-76.746124	-8.688636
58729	9.611585	-0.041273	2.277835	-0.006049	0.048766	0.065085	1.000000	0.000031	0.000009	0.000019	-2.229593	-76.747367	-8.683509
58730	9.565749	-0.071090	2.280728	-0.025658	0.021380	0.021397	1.000000	0.000039	0.000013	0.000019	-2.220265	-76.751744	-8.687246
58731	9.578330	-0.050412	2.282444	-0.020646	0.041702	0.033851	1.000000	0.000030	0.000015	0.000013	-2.222391	-76.752281	-8.684939
58732	9.590677	-0.054403	2.229767	0.030790	0.027402	0.033845	1.000000	0.000038	0.000020	0.000014	-2.213300	-76.757331	-8.695305
58733	9.574140	-0.046430	2.259380	0.000177	0.041256	0.024457	1.000000	0.000025	0.000014	0.000001	-2.209898	-76.758046	-8.699230
58734	9.574059	-0.046394	2.259724	-0.000535	0.040999	0.024459	1.000000	0.000029	0.000022	0.000008	-2.200882	-76.759443	-8.711527
58735	9.590420	-0.054504	2.230867	0.029276	0.027202	0.033850	1.000000	0.000034	0.000023	0.000021	-2.205860	-76.759110	-8.705860
58736	9.573851	-0.046735	2.260601	-0.001234	0.040656	0.024460	1.000000	0.000024	0.000024	0.000015	-2.199232	-76.757671	-8.712039
58737	9.594235	-0.058895	2.255493	0.006039	0.027104	0.043240	1.000000	0.000029	0.000022	0.000008	-2.198682	-76.757504	-8.712594
58738	9.573660	-0.047074	2.261402	-0.002797	0.040402	0.024461	1.000000	0.000012	0.000016	0.000027	-2.198287	-76.762035	-8.712324
58739	9.573574	-0.047314	2.261762	-0.003197	0.040433	0.024460	1.000000	0.000029	0.000022	0.000008	-2.197718	-76.761877	-8.712899
58740	9.610682	-0.042794	2.281614	-0.013648	0.047151	0.065085	1.000000	0.000032	0.000002	0.000024	-2.196061	-76.767055	-8.716246
58741	9.606608	-0.038867	2.258099	0.008488	0.046926	0.055705	1.000000	0.000060	0.000020	0.000013	-2.194284	-76.767050	-8.714350
58742	9.573413	-0.047580	2.262439	-0.005167	0.039902	0.024462	1.000000	0.000040	0.000003	0.000005	-2.181752	-76.769685	-8.722138
58743	9.606501	-0.038679	2.258558	0.007508	0.046628	0.055707	1.000000	0.000024	0.000021	-0.000004	-2.175635	-76.769703	-8.728965
58744	9.573300	-0.047581	2.262916	-0.005839	0.039662	0.024462	1.000000	0.000027	0.000005	0.000031	-2.179613	-76.770348	-8.729508
58745	9.593726	-0.059896	2.257635	0.001415	0.026102	0.043244	1.000000	0.000029	0.000022	0.000008	-2.178998	-76.770196	-8.730139
58746	9.581780	-0.022989	2.241263	0.021746	0.059369	0.027552	1.000000	0.000038	0.000020	0.000014	-2.172468	-76.767431	-8.736503
58747	9.593519	-0.060071	2.258509	0.001037	0.025790	0.043245	1.000000	0.000033	0.000029	0.000015	-2.174726	-76.766391	-8.733740
58748	9.581571	-0.023241	2.242157	0.021474	0.059113	0.027554	1.000000	0.000030	0.000015	0.000013	-2.170988	-76.763684	-8.745932
58749	9.597317	-0.064550	2.283151	-0.021784	0.025808	0.052621	1.000000	0.000023	0.000034	0.000029	-2.180786	-76.761954	-8.736520
58750	9.576684	-0.052461	2.289293	-0.030352	0.039085	0.033837	1.000000	0.000036	0.000029	-0.000016	-2.156710	-76.763716	-8.756398
58751	9.568564	-0.044255	2.242224	0.014331	0.038573	0.015092	1.000000	0.000017	0.000013	0.000020	-2.163347	-76.764470	-8.751006
58752	9.596969	-0.064546	2.284615	-0.023350	0.025174	0.052619	1.000000	0.000036	0.000033	0.000003	-2.150374	-76.761800	-8.761230
58753	9.564517	-0.015469	2.273872	-0.011069	0.072397	0.018150	1.000000	0.000029	0.000022	0.000008	-2.149704	-76.761639	-8.761916
58754	9.588919	-0.031656	2.292485	-0.026484	0.058773	0.046303	1.000000	0.000038	0.000020	0.000014	-2.142062	-76.762024	-8.767703
58755	9.605335	-0.039722	2.263491	0.003299	0.044930	0.055717	1.000000	0.000026	0.000008	0.000006	-2.141117	-76.763459	-8.769007
58756	9.605296	-0.039635	2.263660	0.002970	0.044646	0.055718	1.000000	0.000039	0.000010	-0.000000	-2.128003	-76.764008	-8.782893
58757	9.601220	-0.035706	2.240214	0.025113	0.044394	0.046352	1.000000	0.000021	0.000021	0.000027	-2.137482	-76.763877	-8.774140
58758	9.547518	-0.032701	2.250113	0.004132	0.050928	-0.003683	1.000000	0.000031	0.000009	0.000019	-2.132078	-76.764041	-8.772614
58759	9.580587	-0.024117	2.246347	0.016799	0.057628	0.027572	1.000000	0.000015	0.000026	0.000009	-2.133402	-76.763361	-8.772885
58760	9.600953	-0.036356	2.241345	0.024040	0.043778	0.046357	1.000000	0.000042	0.000027	0.000021	-2.130510	-76.762238	-8.780791
58761	9.584366	-0.028565	2.271035	-0.006537	0.057686	0.036937	1.000000	0.000025	0.000018	0.000020	-2.136184	-76.762446	-8.775400
58762	9.571606	-0.049613	2.270026	-0.011718	0.037063	0.024467	1.000000	0.000024	0.000024	0.000015	-2.132303	-76.757835	-8.777994
58763	9.575500	-0.053756	2.294209	-0.034663	0.037372	0.033829	1.000000	0.000029	0.000022	0.000008	-2.131564	-76.757662	-8.778749
58764	9.596740	-0.008100	2.273666	-0.001433	0.077306	0.049415	1.000000	0.000021	0.000017	0.000008	-2.123775	-76.756519	-8.788170
58765	9.624944	-0.053192	2.261680	0.007983	0.029851	0.074508	1.000000	0.000033	0.000029	0.000015	-2.125906	-76.755461	-8.785534
58766	9.571220	-0.050029	2.271643	-0.013328	0.036553	0.024467	1.000000	0.000031	0.000009	0.000019	-2.122950	-76.757780	-8.791294
58767	9.596480	-0.008502	2.274760	-0.002847	0.077115	0.049416	1.000000	0.000029	0.000022	0.000008	-2.122186	-76.757606	-8.792080
58768	9.571063	-0.050331	2.272300	-0.014386	0.036257	0.024467	1.000000	0.000034	0.000016	0.000026	-2.119883	-76.759174	-8.794278
58769	9.587482	-0.058612	2.243358	0.015380	0.022379	0.033894	1.000000	0.000030	0.000015	0.000013	-2.121728	-76.759717	-8.792276
58770	9.604055	-0.042007	2.268877	-0.002278	0.042675	0.055727	1.000000	0.000034	0.000023	0.000020	-2.118605	-76.760009	-8.799432
58771	9.562826	-0.042928	2.225866	0.029361	0.035444	0.005756	1.000000	0.000025	0.000018	0.000020	-2.124211	-76.760210	-8.794115
58772	9.587234	-0.059376	2.244398	0.014181	0.021887	0.033897	1.000000	0.000026	0.000011	0.000026	-2.126388	-76.760007	-8.801901
58773	9.587143	-0.059525	2.244780	0.013781	0.021908	0.033897	1.000000	0.000028	0.000028	0.000003	-2.122957	-76.759120	-8.805542
58774	9.599688	-0.038829	2.246717	0.018839	0.041991	0.046376	1.000000	0.000020	0.000027	0.000022	-2.124725	-76.758091	-8.817603
58775	9.574374	-0.055759	2.298856	-0.039718	0.035990	0.033816	1.000000	0.000046	0.000031	0.000009	-2.122131	-76.756837	-8.818317
58776	9.582064	-0.088831	2.292474	-0.038640	0.001929	0.040118	1.000000	0.000011	0.000022	0.000021	-2.121844	-76.760162	-8.826910
58777	9.574130	-0.056161	2.299863	-0.041180	0.035832	0.033810	1.000000	0.000033	0.000029	0.000015	-2.123901	-76.759113	-8.824387
58778	9.578748	-0.027467	2.254136	0.009291	0.055120	0.027596	1.000000	0.000031	0.000009	0.000019	-2.120547	-76.758286	-8.829084
58779	9.603159	-0.043762	2.272630	-0.006068	0.041843	0.055729	1.000000	0.000030	0.000015	0.000013	-2.122336	-76.758830	-8.827171
58780	9.590424	-0.064829	2.271485	-0.011975	0.021348	0.043249	1.000000	0.000026	0.000011	0.000026	-2.123872	-76.759779	-8.831391
58781	9.578571	-0.028133	2.254879	0.008053	0.054923	0.027598	1.000000	0.000030	0.000015	0.000013	-2.125650	-76.760323	-8.829494
58782	9.573622	-0.081945	2.246949	0.004484	0.000515	0.021422	1.000000	0.000029	0.000022	0.000008	-2.118180	-76.758881	-8.841436
58783	9.606838	-0.048437	2.297636	-0.030088	0.041709	0.065073	1.000000	0.000048	0.000018	0.000019	-2.120790	-76.759055	-8.836607
58784	9.578307	-0.028386	2.255997	0.007435	0.054430	0.027601	1.000000	0.000029	0.000022	0.000008	-2.114906	-76.756375	-8.847713
58785	9.598707	-0.040563	2.250875	0.014617	0.040824	0.046388	1.000000	0.000030	0.000015	0.000013	-2.116664	-76.756912	-8.845847
58786	9.606430	-0.073560	2.244357	0.016419	0.006638	0.052693	1.000000	0.000029	0.000022	0.000008	-2.108054	-76.755889	-8.853924
58787	9.582038	-0.032543	2.280783	-0.016217	0.054502	0.036944	1.000000	0.000034	0.000012	0.000007	-2.106027	-76.756766	-8.855400
58788	9.598477	-0.040757	2.251852	0.013656	0.040208	0.046392	1.000000	0.000025	0.000018	0.000020	-2.103344	-76.755820	-8.856165
58789	9.618831	-0.053041	2.246926	0.020831	0.026598	0.065180	1.000000	0.000049	0.000038	0.000016	-2.103543	-76.753676	-8.853583
58790	9.602173	-0.045036	2.276770	-0.009516	0.040273	0.055733	1.000000	0.000015	0.000026	0.000009	-2.097610	-76.751652	-8.859715
58791	9.590135	-0.033044	2.206060	0.057750	0.039269	0.027719	1.000000	0.000046	0.000031	0.000009	-2.094919	-76.750387	-8.860545
58792	9.601965	-0.045207	2.277644	-0.010699	0.040090	0.055733	1.000000	0.000032	0.000002	0.000024	-2.094771	-76.754384	-8.867689
58793	9.586182	-0.004399	2.237179	0.031927	0.073298	0.030761	1.000000	0.000043	0.000017	0.000007	-2.091815	-76.754720	-8.869136
58794	9.605805	-0.049444	2.301927	-0.033569	0.040209	0.065068	1.000000	0.000025	0.000018	0.000020	-2.092406	-76.751906	-8.875414
58795	9.593830	-0.037634	2.230982	0.033700	0.039173	0.037064	1.000000	0.000030	0.000015	0.000013	-2.094106	-76.752435	-8.873617
58796	9.597697	-0.041602	2.255158	0.010695	0.039206	0.046400	1.000000	0.000050	0.000028	0.000002	-2.079000	-76.751484	-8.883863
58797	9.560482	-0.046343	2.235842	0.019810	0.032256	0.005791	1.000000	-0.000001	0.000010	0.000014	-2.084507	-76.752579	-8.881768
58798	9.606233	-0.017051	2.233567	0.037717	0.058866	0.049560	1.000000	0.000050	0.000032	0.000021	-2.079725	-76.752180	-8.883329
58799	9.597394	-0.041856	2.256444	0.009276	0.038989	0.046402	1.000000	0.000024	0.000021	-0.000004	-2.073267	-76.752166	-8.890566
58800	9.576818	-0.029853	2.262293	0.001270	0.052331	0.027616	1.000000	0.000021	0.000021	0.000027	-2.074476	-76.752011	-8.885571
58801	9.597196	-0.042269	2.257275	0.008426	0.038710	0.046404	1.000000	0.000024	0.000024	0.000015	-2.077280	-76.751485	-8.883288
58802	9.563934	-0.051188	2.261746	-0.005362	0.031853	0.015125	1.000000	0.000025	0.000018	0.000020	-2.074682	-76.753461	-8.886345
58804	9.590693	-0.040524	2.284682	-0.038121	0.091310	9.905361	1.000000	0.000054	0.000036	0.000009	-2.071024	-76.751658	-8.887193
58805	9.600803	-0.046758	2.282503	-0.015915	0.038527	0.055732	1.000000	0.000021	0.000021	0.000027	-2.071181	-76.752520	-8.884969
58806	9.596793	-0.042940	2.258976	0.006245	0.038183	0.046408	1.000000	0.000040	0.000003	0.000005	-2.067898	-76.754454	-8.887092
58807	9.576234	-0.030756	2.264750	-0.001790	0.051516	0.027620	1.000000	0.000046	0.000031	0.000009	-2.056685	-76.753406	-8.893399
58808	9.596641	-0.042910	2.259622	0.005355	0.037890	0.046409	1.000000	0.000027	0.000001	0.000012	-2.058050	-76.755539	-8.892278
58809	9.563435	-0.051710	2.263842	-0.007614	0.031041	0.015126	1.000000	0.000030	0.000015	0.000013	-2.054902	-76.753186	-8.898089
58810	9.576053	-0.031019	2.265513	-0.002524	0.051299	0.027621	1.000000	0.000030	0.000015	0.000013	-2.056512	-76.753717	-8.896384
58811	9.583754	-0.064104	2.259079	-0.000606	0.017115	0.033916	1.000000	0.000024	0.000024	0.000015	-2.052467	-76.751371	-8.900567
58812	9.571931	-0.027457	2.242476	0.019510	0.050647	0.018303	1.000000	0.000026	0.000011	0.000026	-2.060462	-76.752270	-8.892742
58813	9.600218	-0.047691	2.284946	-0.018513	0.037507	0.055731	1.000000	0.000028	0.000028	0.000003	-2.050441	-76.751363	-8.905629
58814	9.575693	-0.031805	2.267024	-0.003884	0.050796	0.027623	1.000000	0.000021	0.000014	0.000032	-2.062196	-76.751920	-8.894492
58815	9.579463	-0.061000	2.236758	0.020579	0.016318	0.024600	1.000000	0.000043	0.000017	0.000007	-2.054374	-76.750564	-8.908997
58816	9.575540	-0.032140	2.267664	-0.004415	0.050595	0.027624	1.000000	0.000025	0.000018	0.000020	-2.059725	-76.750746	-8.904007
58817	9.608625	-0.023642	2.263973	0.007850	0.056961	0.058913	1.000000	0.000038	0.000020	0.000014	-2.053015	-76.752645	-8.915292
58818	9.583159	-0.065368	2.261567	-0.003552	0.016498	0.033917	1.000000	0.000030	0.000015	0.000013	-2.054583	-76.753173	-8.913646
58819	9.583078	-0.065473	2.261908	-0.003933	0.016259	0.033917	1.000000	0.000038	0.000020	0.000014	-2.048967	-76.752825	-8.924963
58820	9.583000	-0.065612	2.262232	-0.004333	0.016272	0.033917	1.000000	0.000039	0.000013	0.000019	-2.052259	-76.753525	-8.920457
58821	9.582902	-0.065776	2.262644	-0.004929	0.016028	0.033917	1.000000	0.000033	0.000029	0.000015	-2.046842	-76.753356	-8.929217
58822	9.582786	-0.065857	2.263134	-0.005330	0.016041	0.033917	1.000000	0.000029	0.000022	0.000008	-2.045762	-76.753170	-8.930406
58823	9.570956	-0.029010	2.246613	0.014788	0.049253	0.018318	1.000000	0.000015	0.000026	0.000009	-2.039075	-76.752452	-8.938283
58824	9.582586	-0.066068	2.263975	-0.006175	0.015769	0.033917	1.000000	0.000039	0.000013	0.000019	-2.042343	-76.753153	-8.933804
58825	9.570798	-0.029279	2.247285	0.014015	0.049007	0.018321	1.000000	0.000021	0.000017	0.000008	-2.035499	-76.753154	-8.945893
58826	9.586379	-0.070129	2.288337	-0.029524	0.015925	0.043222	1.000000	0.000025	0.000014	0.000001	-2.031519	-76.753851	-8.950505
58827	9.591125	-0.041362	2.242515	0.020839	0.035126	0.037115	1.000000	0.000029	0.000022	0.000008	-2.024801	-76.752807	-8.963141
58828	9.603743	-0.020719	2.244215	0.025956	0.055367	0.049619	1.000000	0.000017	0.000013	0.000020	-2.030980	-76.753532	-8.958309
58829	9.607595	-0.024641	2.268328	0.003350	0.055519	0.058924	1.000000	0.000037	0.000023	-0.000011	-2.014546	-76.751018	-8.976726
58830	9.611332	-0.053606	2.238266	0.027501	0.021231	0.055910	1.000000	0.000020	0.000027	0.000021	-2.020965	-76.750141	-8.971312
58831	9.603451	-0.020789	2.245464	0.025002	0.054869	0.049624	1.000000	0.000043	0.000017	0.000007	-2.010742	-76.750921	-8.980537
58832	9.570181	-0.029509	2.249906	0.011586	0.048313	0.018327	1.000000	0.000024	0.000024	0.000015	-2.013380	-76.750388	-8.978463
58833	9.590552	-0.041860	2.244955	0.018678	0.034363	0.037122	1.000000	0.000034	0.000023	0.000020	-2.010284	-76.749776	-8.976544
58834	9.569949	-0.029781	2.250890	0.010785	0.048037	0.018329	1.000000	0.000037	0.000033	0.000003	-2.005620	-76.748329	-8.980538
58835	9.577602	-0.062799	2.244663	0.011966	0.013928	0.024618	1.000000	0.000034	0.000023	0.000020	-2.002762	-76.750022	-8.984112
58836	9.573648	-0.034125	2.275609	-0.012972	0.048244	0.027628	1.000000	0.000021	0.000021	0.000027	-2.011772	-76.749863	-8.975935
58837	9.593990	-0.046522	2.270783	-0.005802	0.034298	0.046422	1.000000	0.000050	0.000038	0.000016	-2.004755	-76.746980	-8.979599
58838	9.586106	-0.013714	2.277991	-0.008165	0.068201	0.040136	1.000000	0.000031	0.000009	0.000019	-2.008841	-76.748218	-8.975282
58839	9.581097	-0.067637	2.270219	-0.012352	0.013833	0.033914	1.000000	0.000015	0.000026	0.000009	-2.002272	-76.748578	-8.988525
58840	9.630819	-0.042285	2.291650	-0.016790	0.041043	0.087018	1.000000	0.000031	0.000009	0.000019	-2.006348	-76.749819	-8.984222
58841	9.597593	-0.051123	2.295872	-0.029985	0.034192	0.055715	1.000000	0.000021	0.000010	0.000013	-2.001845	-76.749378	-8.990270
58842	9.602413	-0.022589	2.249884	0.020290	0.053578	0.049642	1.000000	0.000021	0.000010	0.000013	-2.004177	-76.750443	-8.988851
58843	9.602365	-0.022743	2.250086	0.020106	0.053279	0.049644	1.000000	0.000021	0.000010	0.000013	-1.999693	-76.749998	-8.994894
58844	9.580823	-0.068643	2.271345	-0.013928	0.013269	0.033912	1.000000	0.000013	0.000010	0.000032	-2.012180	-76.751090	-8.984028
58845	9.598359	-0.019347	2.226691	0.041880	0.052559	0.040358	1.000000	0.000039	0.000010	-0.000000	-1.998351	-76.752023	-8.994566
58846	9.585570	-0.040223	2.225693	0.035950	0.032343	0.027848	1.000000	0.000020	0.000027	0.000021	-2.004676	-76.751144	-8.989246
58847	9.613763	-0.060427	2.268328	-0.002519	0.019247	0.065218	1.000000	0.000029	0.000022	0.000008	-1.994728	-76.752934	-8.996065
58848	9.568815	-0.032247	2.255674	0.004715	0.046173	0.018343	1.000000	0.000030	0.000015	0.000013	-1.996129	-76.753458	-8.994604
58849	9.596963	-0.077623	2.243953	0.013496	-0.001715	0.043421	1.000000	0.000029	0.000025	0.000027	-1.995113	-76.753747	-8.992296
58850	9.568608	-0.032782	2.256542	0.003692	0.045862	0.018345	1.000000	0.000024	0.000024	0.000015	-1.997641	-76.753216	-8.990321
58851	9.622178	-0.036451	2.247518	0.023383	0.038484	0.068453	1.000000	0.000030	0.000015	0.000013	-1.991274	-76.755662	-8.997867
58852	9.592797	-0.049260	2.275760	-0.012593	0.032382	0.046423	1.000000	0.000037	0.000030	0.000027	-1.998396	-76.754424	-8.989633
58853	9.600457	-0.082354	2.269466	-0.011389	-0.001778	0.052702	1.000000	0.000025	0.000014	0.000001	-1.986185	-76.756721	-9.002114
58854	9.592588	-0.049428	2.276635	-0.013717	0.032125	0.046422	1.000000	0.000050	0.000032	0.000021	-1.988630	-76.755287	-8.997147
58855	9.588576	-0.045850	2.253305	0.008146	0.031488	0.037146	1.000000	0.000022	0.000014	0.000032	-1.993758	-76.757479	-8.996632
58856	9.555288	-0.054812	2.257746	-0.005247	0.024957	0.005831	1.000000	0.000033	0.000029	0.000015	-1.995354	-76.756415	-8.994628
58857	9.596134	-0.079279	2.247439	0.009378	-0.002642	0.043425	1.000000	0.000030	0.000015	0.000013	-1.991097	-76.756027	-9.002179
