// Start Time: Unknown
// Update Rate: 40.0Hz
// Filter Profile: human (46.1)
// Firmware Version: 4.4.0
PacketCounter	Acc_X	Acc_Y	Acc_Z	FreeAcc_X	FreeAcc_Y	FreeAcc_Z	OriInc_q0	OriInc_q1	OriInc_q2	OriInc_q3	Roll	Pitch	Yaw
59284	9.808201	-1.250803	0.579014	0.000000	-0.000000	0.091886	1.000000	0.000071	0.000076	0.000088	-65.177162	-82.007159	60.209548
59285	9.803588	-1.250280	0.601728	-0.023094	0.002133	0.088579	1.000000	0.000082	0.000050	0.000099	-65.165010	-81.994436	60.206783
59286	9.814055	-1.247496	0.595831	-0.014800	0.007028	0.098249	1.000000	0.000071	0.000071	0.000099	-65.133387	-81.982604	60.190795
59287	9.818943	-1.252583	0.589818	-0.007191	0.003853	0.103382	1.000000	0.000086	0.000065	0.000086	-65.108309	-81.969485	60.170526
59288	9.807362	-1.246296	0.592727	-0.008660	0.010213	0.091289	1.000000	0.000083	0.000072	0.000083	-65.070484	-81.958068	60.144952
59289	9.807051	-1.248011	0.594260	-0.008616	0.010178	0.091289	1.000000	0.000074	0.000065	0.000102	-65.047002	-81.944436	60.129857
59290	9.806718	-1.249859	0.595880	-0.008555	0.010038	0.091290	1.000000	0.000076	0.000082	0.000096	-65.006254	-81.931050	60.099352
59291	9.811980	-1.243711	0.597727	-0.007686	0.018369	0.095827	1.000000	0.000067	0.000061	0.000101	-64.979266	-81.918685	60.084498
59292	9.806439	-1.242263	0.606810	-0.015168	0.021512	0.090695	1.000000	0.000066	0.000079	0.000104	-64.940476	-81.904923	60.054849
59293	9.805212	-1.243129	0.594730	-0.001400	0.020835	0.088869	1.000000	0.000098	0.000069	0.000105	-64.903042	-81.892551	60.032989
59294	9.821756	-1.244908	0.595191	0.001182	0.022568	0.105499	1.000000	0.000074	0.000065	0.000102	-64.863079	-81.879829	60.003004
59295	9.811011	-1.240120	0.611685	-0.013668	0.029049	0.095237	1.000000	0.000064	0.000062	0.000110	-64.830147	-81.865852	59.975133
59296	9.809872	-1.264823	0.597613	0.000053	0.004477	0.096424	1.000000	0.000068	0.000078	0.000096	-64.784164	-81.854866	59.938360
59297	9.809066	-1.254209	0.593300	0.006893	0.015580	0.094004	1.000000	0.000081	0.000068	0.000102	-64.748016	-81.844242	59.914758
59298	9.803514	-1.252791	0.602390	-0.000616	0.018335	0.088874	1.000000	0.000079	0.000070	0.000110	-64.710740	-81.832389	59.887939
59299	9.814013	-1.249909	0.596662	0.007795	0.022986	0.098546	1.000000	0.000079	0.000066	0.000074	-64.665476	-81.824173	59.851419
59300	9.824926	-1.235651	0.598599	0.009094	0.039441	0.107630	1.000000	0.000057	0.000059	0.000109	-64.646739	-81.814521	59.842147
59301	9.813794	-1.241986	0.607440	0.000716	0.033389	0.097961	1.000000	0.000078	0.000085	0.000077	-64.586564	-81.806541	59.792215
59302	9.817838	-1.245952	0.587735	0.021641	0.028920	0.101266	1.000000	0.000089	0.000053	0.000099	-64.567545	-81.798842	59.781842
59303	9.817981	-1.260179	0.595050	0.014264	0.016352	0.103684	1.000000	0.000067	0.000066	0.000090	-64.545386	-81.791912	59.763005
59304	9.805947	-1.241592	0.591992	0.019468	0.033504	0.089186	1.000000	0.000068	0.000078	0.000096	-64.497863	-81.784202	59.729880
59305	9.816453	-1.238762	0.586312	0.027143	0.037989	0.098865	1.000000	0.000067	0.000066	0.000090	-64.484110	-81.777324	59.713672
59306	9.816158	-1.240371	0.587850	0.025616	0.036970	0.098873	1.000000	0.000083	0.000072	0.000083	-64.485856	-81.774930	59.724102
59307	9.799392	-1.254689	0.596449	0.016339	0.022243	0.084652	1.000000	0.000069	0.000073	0.000107	-64.448951	-81.765129	59.687289
59308	9.815934	-1.256524	0.596960	0.017255	0.023416	0.101289	1.000000	0.000064	0.000068	0.000098	-64.456527	-81.760207	59.697377
59309	9.819979	-1.260635	0.577277	0.037639	0.018740	0.104604	1.000000	0.000071	0.000076	0.000088	-64.434388	-81.755205	59.685317
59310	9.821746	-1.253188	0.614131	0.003180	0.030339	0.107665	1.000000	0.000072	0.000066	0.000109	-64.406423	-81.745841	59.662120
59311	9.808483	-1.244987	0.589481	0.028105	0.035493	0.091946	1.000000	0.000083	0.000072	0.000082	-64.391054	-81.740864	59.650645
59312	9.820267	-1.255614	0.603536	0.014473	0.028311	0.105854	1.000000	0.000071	0.000071	0.000098	-64.398023	-81.736010	59.664388
59313	9.802215	-1.256494	0.592390	0.025034	0.025078	0.087407	1.000000	0.000071	0.000071	0.000098	-64.385597	-81.729336	59.656683
59314	9.818769	-1.258296	0.592842	0.026628	0.026452	0.104045	1.000000	0.000067	0.000061	0.000101	-64.377663	-81.721194	59.642596
59315	9.813247	-1.256552	0.601909	0.018231	0.028939	0.098916	1.000000	0.000081	0.000078	0.000080	-64.349736	-81.716017	59.625064
59316	9.812545	-1.245597	0.597618	0.023367	0.039986	0.096528	1.000000	0.000083	0.000072	0.000082	-64.365400	-81.712545	59.642008
59317	9.805798	-1.254057	0.585135	0.035294	0.030381	0.090168	1.000000	0.000069	0.000064	0.000082	-64.359969	-81.707425	59.635587
59318	9.811138	-1.247721	0.586830	0.035647	0.038094	0.094728	1.000000	0.000077	0.000063	0.000093	-64.333944	-81.700293	59.618422
59319	9.810830	-1.249434	0.588320	0.034299	0.037420	0.094735	1.000000	0.000074	0.000070	0.000090	-64.340983	-81.694810	59.623978
59320	9.817804	-1.245243	0.617522	0.006960	0.045787	0.102912	1.000000	0.000069	0.000059	0.000093	-64.332402	-81.688184	59.617363
59321	9.815408	-1.256493	0.583716	0.039382	0.032415	0.099887	1.000000	0.000079	0.000070	0.000109	-64.356306	-81.682871	59.652254
59322	9.821533	-1.251452	0.599226	0.025915	0.040414	0.106255	1.000000	0.000077	0.000063	0.000093	-64.335387	-81.676020	59.639772
59323	9.804330	-1.253320	0.601622	0.021584	0.037737	0.089624	1.000000	0.000067	0.000061	0.000101	-64.381147	-81.671805	59.683218
59324	9.813235	-1.248633	0.568308	0.055081	0.041919	0.095735	1.000000	0.000064	0.000068	0.000098	-64.429071	-81.667229	59.722028
59325	9.797649	-1.252624	0.598164	0.022951	0.039971	0.082699	1.000000	0.000070	0.000054	0.000104	-64.499193	-81.663362	59.783384
59326	9.808592	-1.238757	0.600116	0.020961	0.056587	0.091832	1.000000	0.000067	0.000075	0.000114	-64.590823	-81.661327	59.881390
59327	9.813448	-1.244328	0.594126	0.027279	0.052447	0.096984	1.000000	0.000065	0.000063	0.000109	-64.604812	-81.654262	59.897284
59328	9.807459	-1.254217	0.595413	0.025029	0.043230	0.092429	1.000000	0.000069	0.000078	0.000095	-64.613653	-81.647940	59.902150
59329	9.812353	-1.259414	0.589545	0.030844	0.038890	0.097585	1.000000	0.000074	0.000070	0.000090	-64.628286	-81.645057	59.934301
59330	9.811245	-1.260087	0.577304	0.042336	0.038046	0.095814	1.000000	0.000067	0.000066	0.000090	-64.670555	-81.641744	59.973282
59331	9.812168	-1.251476	0.600221	0.020383	0.049880	0.097014	1.000000	0.000067	0.000061	0.000101	-64.696186	-81.634751	59.988016
59332	9.805823	-1.248869	0.595481	0.023668	0.052288	0.090097	1.000000	0.000079	0.000075	0.000098	-64.752536	-81.632926	60.056572
59333	9.811586	-1.231325	0.605154	0.015974	0.072488	0.094082	1.000000	0.000079	0.000075	0.000098	-64.774474	-81.625943	60.068192
59334	9.804046	-1.238921	0.578810	0.041220	0.062624	0.085982	1.000000	0.000077	0.000050	0.000080	-64.791229	-81.622699	60.087939
59335	9.814991	-1.248474	0.578925	0.041946	0.055471	0.098067	1.000000	0.000084	0.000067	0.000093	-64.777659	-81.614740	60.070608
59336	9.820687	-1.254685	0.586711	0.034806	0.051659	0.104998	1.000000	0.000084	0.000067	0.000093	-64.773099	-81.608116	60.069179
59337	9.804696	-1.246092	0.610842	0.009569	0.061433	0.089538	1.000000	0.000074	0.000083	0.000103	-64.821031	-81.603256	60.114105
59338	9.820797	-1.259303	0.603978	0.017640	0.050914	0.106777	1.000000	0.000086	0.000084	0.000087	-64.801564	-81.595400	60.090717
59339	9.820138	-1.248689	0.599454	0.022232	0.061876	0.104437	1.000000	0.000073	0.000048	0.000107	-64.860651	-81.592613	60.160434
59340	9.813328	-1.257784	0.586899	0.031019	0.052298	0.098124	1.000000	0.000061	0.000083	0.000119	-64.965847	-81.591803	60.276568
59341	9.824638	-1.256313	0.595123	0.025311	0.056639	0.109618	1.000000	0.000091	0.000071	0.000093	-64.924119	-81.585307	60.258840
59342	9.807101	-1.245679	0.591593	0.029201	0.065544	0.090634	1.000000	0.000074	0.000065	0.000101	-64.916965	-81.577986	60.258500
59343	9.817998	-1.255463	0.591832	0.029047	0.058074	0.102721	1.000000	0.000077	0.000063	0.000093	-64.929793	-81.574418	60.286361
59344	9.812470	-1.253682	0.600759	0.019870	0.060883	0.097565	1.000000	0.000067	0.000066	0.000090	-64.949818	-81.569626	60.305960
59345	9.817071	-1.246467	0.588659	0.031552	0.068242	0.100407	1.000000	0.000070	0.000059	0.000093	-65.008188	-81.569958	60.380977
59346	9.811535	-1.244790	0.597533	0.020288	0.070824	0.095256	1.000000	0.000074	0.000065	0.000101	-65.100355	-81.571383	60.487174
59347	9.810459	-1.245539	0.585255	0.032546	0.069770	0.093526	1.000000	0.000086	0.000065	0.000085	-65.107060	-81.567376	60.501839
59348	9.816917	-1.252655	0.606664	0.009799	0.066672	0.102175	1.000000	0.000062	0.000056	0.000093	-65.188176	-81.564639	60.567220
59349	9.820747	-1.244662	0.580772	0.036182	0.074088	0.103297	1.000000	0.000072	0.000066	0.000109	-65.219186	-81.558143	60.597475
59350	9.821164	-1.247582	0.596151	0.018992	0.073959	0.105039	1.000000	0.000086	0.000079	0.000098	-65.300011	-81.556293	60.674296
59351	9.809626	-1.241456	0.598944	0.016660	0.079635	0.092972	1.000000	0.000074	0.000065	0.000101	-65.293794	-81.549830	60.679703
59352	9.813773	-1.245803	0.579210	0.035294	0.075474	0.096435	1.000000	0.000084	0.000067	0.000093	-65.350224	-81.546564	60.730593
59353	9.813733	-1.260084	0.586817	0.026544	0.063473	0.098760	1.000000	0.000069	0.000073	0.000106	-65.383960	-81.538566	60.749213
59354	9.807893	-1.245945	0.589899	0.024529	0.077855	0.091275	1.000000	0.000061	0.000079	0.000084	-65.381974	-81.533917	60.752389
59355	9.807871	-1.259986	0.597578	0.014206	0.065559	0.093599	1.000000	0.000074	0.000070	0.000090	-65.460524	-81.533837	60.832854
59356	9.813245	-1.253869	0.599225	0.012543	0.073430	0.098190	1.000000	0.000070	0.000054	0.000104	-65.517852	-81.530974	60.896603
59357	9.812637	-1.243349	0.594635	0.016507	0.084411	0.095892	1.000000	0.000079	0.000075	0.000098	-65.576367	-81.529361	60.963563
59358	9.799923	-1.247513	0.575890	0.033991	0.078208	0.082723	1.000000	0.000069	0.000065	0.000082	-65.598046	-81.524548	60.977444
59359	9.816520	-1.249137	0.576594	0.035439	0.079327	0.099392	1.000000	0.000069	0.000083	0.000084	-65.563501	-81.518261	60.953672
59360	9.810977	-1.247291	0.585807	0.026279	0.082194	0.094215	1.000000	0.000069	0.000078	0.000095	-65.576974	-81.512132	60.965204
59361	9.816828	-1.229665	0.595367	0.018365	0.102250	0.098209	1.000000	0.000084	0.000067	0.000093	-65.606070	-81.507505	60.994393
59362	9.810842	-1.239077	0.596757	0.014909	0.093252	0.093631	1.000000	0.000073	0.000080	0.000068	-65.649717	-81.506344	61.031118
59363	9.815009	-1.243441	0.577250	0.034483	0.089190	0.097137	1.000000	0.000064	0.000076	0.000122	-65.679912	-81.496136	61.046914
59364	9.810883	-1.243889	0.613796	-0.019584	0.006802	0.095744	1.000000	0.000065	0.000068	0.000098	-64.590149	-81.983313	59.711775
59365	9.820044	-1.239392	0.580532	0.014395	0.009382	0.102255	1.000000	0.000077	0.000063	0.000093	-64.593360	-81.984094	59.716191
59366	9.803799	-1.254532	0.602759	-0.009890	-0.005528	0.089409	1.000000	0.000079	0.000070	0.000109	-64.588178	-81.982326	59.715040
59367	9.825585	-1.260062	0.595919	-0.002039	-0.008894	0.111269	1.000000	0.000077	0.000063	0.000093	-64.591174	-81.983042	59.717249
59368	9.808384	-1.261659	0.598311	-0.005624	-0.012444	0.094582	1.000000	0.000074	0.000070	0.000090	-64.581300	-81.983193	59.704534
59369	9.813043	-1.254664	0.586315	0.007151	-0.005960	0.097594	1.000000	0.000072	0.000067	0.000109	-64.588889	-81.982072	59.709631
59370	9.801773	-1.260928	0.594934	-0.002822	-0.012650	0.087741	1.000000	0.000070	0.000060	0.000093	-64.594645	-81.982901	59.718567
59371	9.812894	-1.246746	0.596991	-0.002796	0.002723	0.097088	1.000000	0.000069	0.000083	0.000084	-64.575663	-81.983199	59.708240
59372	9.812814	-1.260738	0.604809	-0.011693	-0.010636	0.099241	1.000000	0.000071	0.000077	0.000087	-64.573931	-81.984215	59.706490
59373	9.805610	-1.244699	0.580206	0.013666	0.002147	0.088611	1.000000	0.000085	0.000062	0.000104	-64.576658	-81.983533	59.717948
59374	9.806211	-1.259939	0.601535	-0.008847	-0.010847	0.092405	1.000000	0.000082	0.000069	0.000101	-64.580884	-81.983289	59.726837
59375	9.822559	-1.249422	0.596193	-0.001446	0.000993	0.106948	1.000000	0.000071	0.000077	0.000087	-64.571506	-81.983831	59.723370
59376	9.822945	-1.252132	0.611464	-0.017010	-0.000275	0.108587	1.000000	0.000077	0.000058	0.000104	-64.587975	-81.983871	59.736664
59377	9.821910	-1.253123	0.599103	-0.005071	-0.002317	0.106946	1.000000	0.000075	0.000065	0.000101	-64.595479	-81.983677	59.741479
59378	9.803297	-1.252919	0.573960	0.018644	-0.006573	0.086983	1.000000	0.000074	0.000070	0.000090	-64.591514	-81.984083	59.735635
59379	9.820568	-1.255709	0.588532	0.005298	-0.006043	0.105310	1.000000	0.000076	0.000082	0.000095	-64.580836	-81.983476	59.727579
59380	9.820746	-1.246048	0.597607	-0.003141	0.004380	0.104812	1.000000	0.000068	0.000043	0.000098	-64.604612	-81.984606	59.748258
59381	9.814506	-1.243408	0.592526	0.001447	0.005873	0.097996	1.000000	0.000065	0.000068	0.000098	-64.605587	-81.984300	59.746015
59382	9.820796	-1.250640	0.614251	-0.020309	0.001448	0.106437	1.000000	0.000086	0.000079	0.000098	-64.602021	-81.983818	59.741315
59383	9.824809	-1.242764	0.588576	0.006239	0.007507	0.107880	1.000000	0.000075	0.000065	0.000101	-64.605682	-81.983441	59.747490
59384	9.807603	-1.244388	0.590897	0.002548	0.004029	0.091186	1.000000	0.000067	0.000066	0.000090	-64.605171	-81.984118	59.746974
59385	9.824370	-1.258728	0.597562	-0.004200	-0.007520	0.109996	1.000000	0.000067	0.000061	0.000101	-64.614639	-81.984010	59.750617
59386	9.807148	-1.260424	0.599895	-0.007833	-0.010996	0.093297	1.000000	0.000072	0.000072	0.000098	-64.610377	-81.983454	59.748467
59387	9.818140	-1.233823	0.595896	-0.000871	0.016065	0.100587	1.000000	0.000094	0.000074	0.000074	-64.596814	-81.985456	59.737550
59388	9.810921	-1.253944	0.575705	0.017021	-0.006625	0.094767	1.000000	0.000070	0.000055	0.000104	-64.609677	-81.985295	59.750085
59389	9.822919	-1.253382	0.597539	-0.003842	-0.002540	0.107884	1.000000	0.000067	0.000080	0.000103	-64.605269	-81.984059	59.744459
59390	9.810234	-1.257882	0.578810	0.013733	-0.009985	0.094769	1.000000	0.000072	0.000067	0.000109	-64.607391	-81.982544	59.748292
59391	9.799242	-1.240364	0.589025	0.004146	0.007182	0.082287	1.000000	0.000072	0.000067	0.000109	-64.615218	-81.981376	59.755186
59392	9.815963	-1.254904	0.595729	-0.002599	-0.004403	0.101080	1.000000	0.000067	0.000061	0.000101	-64.623080	-81.981277	59.765704
59393	9.820565	-1.235521	0.577502	0.017323	0.013712	0.102101	1.000000	0.000067	0.000066	0.000090	-64.622266	-81.981933	59.763230
59394	9.804182	-1.250322	0.599896	-0.007132	-0.001010	0.089086	1.000000	0.000084	0.000086	0.000095	-64.607908	-81.981182	59.753073
59395	9.838309	-1.253326	0.613725	-0.018505	0.001258	0.124086	1.000000	0.000074	0.000070	0.000090	-64.603504	-81.981689	59.750253
59396	9.808115	-1.256610	0.581720	0.010560	-0.008355	0.092685	1.000000	0.000076	0.000041	0.000109	-64.632650	-81.981971	59.782709
59397	9.825047	-1.234888	0.583753	0.011244	0.015509	0.106833	1.000000	0.000079	0.000075	0.000098	-64.629331	-81.981565	59.782105
59398	9.808505	-1.237147	0.600178	-0.006004	0.012471	0.091722	1.000000	0.000076	0.000092	0.000073	-64.598468	-81.982479	59.754570
59399	9.802429	-1.246695	0.601748	-0.008533	0.002293	0.087004	1.000000	0.000070	0.000073	0.000106	-64.600412	-81.981306	59.752711
59400	9.812579	-1.255742	0.588517	0.004641	-0.006556	0.097403	1.000000	0.000074	0.000070	0.000090	-64.598349	-81.981944	59.747960
59401	9.823914	-1.254127	0.596620	-0.002515	-0.002893	0.108908	1.000000	0.000075	0.000065	0.000101	-64.602700	-81.981646	59.751654
59402	9.817705	-1.251472	0.591602	0.002095	-0.001404	0.102125	1.000000	0.000073	0.000053	0.000095	-64.613001	-81.982388	59.761812
59403	9.817900	-1.241863	0.600654	-0.006269	0.009028	0.101648	1.000000	0.000070	0.000073	0.000106	-64.615017	-81.981241	59.760871
59404	9.805267	-1.246296	0.581757	0.011224	0.001581	0.088566	1.000000	0.000050	0.000061	0.000097	-64.623855	-81.981506	59.768649
59405	9.805080	-1.260453	0.589270	0.002478	-0.011773	0.090617	1.000000	0.000077	0.000063	0.000092	-64.625206	-81.982038	59.768139
59406	9.804637	-1.249824	0.584795	0.007908	-0.001774	0.088570	1.000000	0.000084	0.000086	0.000095	-64.610011	-81.981219	59.752825
59407	9.815945	-1.248286	0.593205	0.000721	0.001885	0.100076	1.000000	0.000067	0.000080	0.000103	-64.605863	-81.980046	59.749230
59408	9.815087	-1.261587	0.587274	0.005631	-0.011894	0.100549	1.000000	0.000082	0.000074	0.000090	-64.600104	-81.980468	59.740660
59409	9.809402	-1.247416	0.590159	0.003618	0.001706	0.093305	1.000000	0.000070	0.000073	0.000105	-64.599747	-81.979212	59.742821
59410	9.820694	-1.246161	0.598219	-0.003522	0.005356	0.104811	1.000000	0.000065	0.000058	0.000119	-64.615798	-81.977254	59.759988
59411	9.808831	-1.263712	0.599172	-0.006735	-0.013340	0.095335	1.000000	0.000079	0.000067	0.000073	-64.604938	-81.979463	59.754811
59412	9.802552	-1.248553	0.588054	0.004919	-0.000168	0.086539	1.000000	0.000058	0.000059	0.000108	-64.619338	-81.978739	59.768762
59413	9.819013	-1.238387	0.582607	0.012276	0.011543	0.101231	1.000000	0.000079	0.000075	0.000098	-64.614707	-81.978228	59.764067
59414	9.801882	-1.252363	0.591100	0.001489	-0.003498	0.086540	1.000000	0.000085	0.000062	0.000103	-64.622998	-81.977815	59.767674
59415	9.813292	-1.263232	0.605325	-0.012778	-0.011512	0.100061	1.000000	0.000065	0.000068	0.000097	-64.624908	-81.977644	59.766148
59416	9.812799	-1.240281	0.594524	-0.000237	0.010149	0.096030	1.000000	0.000085	0.000067	0.000093	-64.623017	-81.978022	59.767307
59417	9.806076	-1.249096	0.582024	0.010975	-0.000474	0.089737	1.000000	0.000075	0.000065	0.000100	-64.627165	-81.977736	59.773434
59418	9.823194	-1.239663	0.590306	0.004568	0.011673	0.105993	1.000000	0.000077	0.000063	0.000092	-64.631438	-81.978458	59.776359
59419	9.828198	-1.257362	0.590829	0.003221	-0.005303	0.113212	1.000000	0.000071	0.000095	0.000089	-64.608206	-81.977804	59.750915
59420	9.816702	-1.238609	0.587191	0.007514	0.011487	0.099244	1.000000	0.000068	0.000043	0.000098	-64.629114	-81.978880	59.771795
59421	9.811274	-1.261557	0.608281	-0.015853	-0.009888	0.098028	1.000000	0.000067	0.000080	0.000102	-64.624821	-81.977708	59.765564
59422	9.809651	-1.249342	0.576204	0.017021	-0.000821	0.092959	1.000000	0.000085	0.000067	0.000092	-64.623050	-81.978133	59.768050
59423	9.821595	-1.248621	0.597996	-0.003919	0.003285	0.105999	1.000000	0.000060	0.000058	0.000100	-64.635906	-81.978312	59.776236
59424	9.814881	-1.257423	0.585427	0.007232	-0.007334	0.099710	1.000000	0.000075	0.000070	0.000089	-64.634832	-81.979034	59.772688
59425	9.809329	-1.255430	0.594321	-0.001871	-0.005371	0.094493	1.000000	0.000067	0.000066	0.000089	-64.635023	-81.979829	59.772190
59426	9.815349	-1.237911	0.603576	-0.009331	0.013569	0.098797	1.000000	0.000065	0.000063	0.000108	-64.644266	-81.978807	59.781815
59427	9.831309	-1.239299	0.590560	0.004572	0.013099	0.113997	1.000000	0.000062	0.000075	0.000094	-64.642207	-81.978767	59.775933
59428	9.808302	-1.248648	0.592500	0.000169	0.001265	0.092511	1.000000	0.000083	0.000050	0.000098	-64.654839	-81.979393	59.791191
59429	9.802717	-1.246966	0.601244	-0.008909	0.003233	0.087292	1.000000	0.000060	0.000072	0.000113	-64.659716	-81.977437	59.794689
59430	9.812870	-1.256274	0.588044	0.004205	-0.005741	0.097731	1.000000	0.000055	0.000071	0.000094	-64.659564	-81.977516	59.791544
59431	9.812519	-1.245676	0.583346	0.009676	0.004232	0.095764	1.000000	0.000077	0.000063	0.000092	-64.660686	-81.978116	59.795676
59432	9.806957	-1.243857	0.591998	0.000583	0.006205	0.090545	1.000000	0.000073	0.000048	0.000106	-64.679504	-81.978075	59.814199
59433	9.817167	-1.252915	0.578472	0.013658	-0.002776	0.100990	1.000000	0.000075	0.000056	0.000076	-64.682919	-81.980792	59.814475
59434	9.823289	-1.259984	0.599986	-0.008099	-0.007152	0.109230	1.000000	0.000075	0.000060	0.000111	-64.695116	-81.979685	59.827100
59435	9.811827	-1.241551	0.596124	-0.003739	0.009663	0.095322	1.000000	0.000075	0.000060	0.000111	-64.707258	-81.978569	59.839656
59436	9.810929	-1.255041	0.589976	0.001110	-0.004150	0.095769	1.000000	0.000065	0.000068	0.000097	-64.710380	-81.978555	59.841690
59437	9.804759	-1.252419	0.585185	0.005773	-0.002656	0.089043	1.000000	0.000067	0.000080	0.000102	-64.703791	-81.977295	59.835975
59438	9.798591	-1.249848	0.580313	0.010399	-0.001153	0.082319	1.000000	0.000078	0.000059	0.000103	-64.713894	-81.977069	59.846398
59439	9.815740	-1.252941	0.594655	-0.003131	-0.000711	0.100547	1.000000	0.000070	0.000055	0.000103	-64.727030	-81.977009	59.858881
59440	9.821258	-1.246828	0.596176	-0.004014	0.006087	0.105330	1.000000	0.000063	0.000061	0.000081	-64.729368	-81.978957	59.858697
59441	9.820976	-1.260789	0.603730	-0.012891	-0.007238	0.107264	1.000000	0.000070	0.000060	0.000092	-64.736082	-81.979845	59.863903
59442	9.814831	-1.258206	0.598539	-0.008279	-0.005733	0.100543	1.000000	0.000054	0.000049	0.000111	-64.758986	-81.979311	59.884540
59443	9.809257	-1.231660	0.594942	-0.003028	0.019566	0.091457	1.000000	0.000069	0.000083	0.000083	-64.744191	-81.979898	59.868699
59444	9.814188	-1.261724	0.601653	-0.010575	-0.010819	0.100536	1.000000	0.000065	0.000068	0.000097	-64.670209	-81.985363	59.804510
59445	9.808602	-1.247504	0.604545	-0.012503	0.002823	0.093384	1.000000	0.000062	0.000093	0.000096	-64.653845	-81.984217	59.785885
59446	9.812953	-1.264542	0.591233	-0.000242	-0.014693	0.099046	1.000000	0.000073	0.000053	0.000095	-64.664315	-81.985096	59.797475
59447	9.818467	-1.234022	0.580445	0.013253	0.015381	0.100012	1.000000	0.000077	0.000072	0.000116	-64.667043	-81.982805	59.800936
59448	9.812844	-1.256908	0.601808	-0.010130	-0.005927	0.098607	1.000000	0.000075	0.000070	0.000089	-64.662386	-81.983445	59.797502
59449	9.817787	-1.250133	0.589775	0.002757	0.000345	0.101928	1.000000	0.000073	0.000067	0.000108	-64.666677	-81.982249	59.801626
59450	9.817494	-1.239569	0.585074	0.008249	0.010300	0.100024	1.000000	0.000077	0.000068	0.000081	-64.660749	-81.983830	59.796444
59451	9.811886	-1.262209	0.606313	-0.015116	-0.011001	0.098596	1.000000	0.000068	0.000062	0.000100	-64.665928	-81.983706	59.802271
59452	9.816286	-1.254656	0.580501	0.011475	-0.005243	0.100458	1.000000	0.000080	0.000076	0.000097	-64.660065	-81.983278	59.797426
59453	9.811203	-1.266036	0.609375	-0.018451	-0.014380	0.098586	1.000000	0.000046	0.000064	0.000113	-64.670573	-81.981707	59.804348
59454	9.805078	-1.251297	0.598154	-0.006584	-0.001239	0.089991	1.000000	0.000073	0.000067	0.000108	-64.675017	-81.980526	59.809038
59455	9.810590	-1.245345	0.599832	-0.007434	0.005532	0.094798	1.000000	0.000078	0.000063	0.000092	-64.676390	-81.981202	59.811876
59456	9.814973	-1.250166	0.580182	0.012024	-0.000372	0.098573	1.000000	0.000073	0.000067	0.000108	-64.679667	-81.979947	59.814597
59457	9.815140	-1.265112	0.601764	-0.010549	-0.013191	0.101914	1.000000	0.000082	0.000074	0.000089	-64.671332	-81.980378	59.807392
59458	9.797445	-1.253284	0.583944	0.006848	-0.005323	0.081834	1.000000	0.000070	0.000060	0.000092	-64.676197	-81.981246	59.812639
59459	9.819870	-1.247619	0.585048	0.007835	0.003011	0.103391	1.000000	0.000077	0.000082	0.000094	-64.664533	-81.980781	59.801348
59460	9.814231	-1.258000	0.600271	-0.008407	-0.006612	0.100027	1.000000	0.000065	0.000068	0.000097	-64.665877	-81.980736	59.800815
59461	9.825025	-1.255694	0.594530	-0.001903	-0.003553	0.110081	1.000000	0.000063	0.000056	0.000092	-64.674509	-81.981801	59.807413
59462	9.818896	-1.253143	0.589568	0.002764	-0.002053	0.103394	1.000000	0.000085	0.000076	0.000116	-64.674919	-81.979399	59.807431
59463	9.808029	-1.247715	0.605755	-0.013622	0.003681	0.092915	1.000000	0.000078	0.000059	0.000103	-64.683310	-81.979163	59.817488
59464	9.807185	-1.248690	0.593508	-0.001564	0.001468	0.091471	1.000000	0.000062	0.000080	0.000083	-64.670907	-81.979949	59.802108
59465	9.817935	-1.258525	0.594091	-0.002241	-0.007127	0.103392	1.000000	0.000076	0.000051	0.000087	-64.678929	-81.981720	59.812841
59466	9.806619	-1.251920	0.596060	-0.004892	-0.001909	0.091470	1.000000	0.000071	0.000041	0.000090	-64.696346	-81.983676	59.828137
59467	9.817435	-1.249579	0.590247	0.001619	0.001132	0.101538	1.000000	0.000063	0.000075	0.000094	-64.691527	-81.983593	59.821339
59468	9.822890	-1.255881	0.598268	-0.006445	-0.003744	0.108214	1.000000	0.000065	0.000068	0.000097	-64.692818	-81.983559	59.822550
59469	9.811114	-1.236211	0.580671	0.011842	0.012576	0.093021	1.000000	0.000085	0.000072	0.000081	-64.683117	-81.984936	59.813892
59470	9.811244	-1.250965	0.602159	-0.010769	-0.000209	0.096294	1.000000	0.000061	0.000058	0.000100	-64.692993	-81.985079	59.822746
59471	9.827826	-1.253192	0.602931	-0.010645	-0.000370	0.113040	1.000000	0.000075	0.000070	0.000089	-64.688605	-81.985754	59.819365
59472	9.810021	-1.265987	0.597474	-0.007618	-0.015757	0.096698	1.000000	0.000063	0.000056	0.000092	-64.696988	-81.986821	59.826214
59473	9.816275	-1.236099	0.600359	-0.007731	0.014799	0.099292	1.000000	0.000083	0.000069	0.000100	-64.695675	-81.986359	59.826926
59474	9.810079	-1.245741	0.601728	-0.010253	0.004666	0.094455	1.000000	0.000073	0.000072	0.000097	-64.693363	-81.986165	59.827399
59475	9.820272	-1.255060	0.588706	0.002746	-0.004491	0.104947	1.000000	0.000063	0.000075	0.000094	-64.688788	-81.986119	59.821587
59476	9.819448	-1.256121	0.576402	0.014816	-0.006733	0.103531	1.000000	0.000051	0.000061	0.000097	-64.695693	-81.986402	59.826674
59477	9.808002	-1.261921	0.584986	0.004984	-0.013129	0.093440	1.000000	0.000092	0.000071	0.000092	-64.689126	-81.986671	59.822782
59478	9.820440	-1.249501	0.614490	-0.022478	0.003156	0.105951	1.000000	0.000078	0.000064	0.000092	-64.690359	-81.987364	59.825480
59479	9.824398	-1.253489	0.581074	0.010632	-0.003377	0.108379	1.000000	0.000068	0.000067	0.000089	-64.689495	-81.988243	59.825389
59480	9.819320	-1.252159	0.603765	-0.012117	-0.000772	0.104537	1.000000	0.000070	0.000079	0.000094	-64.681452	-81.988011	59.816897
59481	9.807478	-1.244927	0.592474	-0.001012	0.003921	0.091225	1.000000	0.000073	0.000072	0.000097	-64.678978	-81.987807	59.816286
59482	9.812414	-1.250547	0.586698	0.004652	-0.001515	0.096476	1.000000	0.000075	0.000065	0.000100	-64.681618	-81.987560	59.818467
59483	9.816861	-1.255474	0.567035	0.024049	-0.007515	0.100328	1.000000	0.000068	0.000062	0.000100	-64.687401	-81.987507	59.825225
59484	9.806500	-1.250421	0.597085	-0.006008	-0.001146	0.091224	1.000000	0.000075	0.000089	0.000091	-64.669680	-81.987034	59.806463
59485	9.812042	-1.244433	0.599124	-0.006829	0.005591	0.096079	1.000000	0.000068	0.000080	0.000102	-64.662319	-81.985861	59.800553
59486	9.822234	-1.253905	0.586038	0.006156	-0.003609	0.106585	1.000000	0.000061	0.000058	0.000100	-64.671805	-81.986003	59.809276
59487	9.816495	-1.264344	0.601080	-0.010091	-0.013168	0.103116	1.000000	0.000070	0.000074	0.000105	-64.670851	-81.984873	59.808610
59488	9.816290	-1.254048	0.596316	-0.004538	-0.003234	0.101330	1.000000	0.000066	0.000063	0.000108	-64.679398	-81.983967	59.817002
59489	9.810064	-1.263760	0.597574	-0.007049	-0.013353	0.096466	1.000000	0.000065	0.000068	0.000097	-64.679870	-81.983919	59.817555
59490	9.815630	-1.257820	0.599219	-0.007868	-0.006613	0.101326	1.000000	0.000068	0.000062	0.000100	-64.685529	-81.983830	59.821732
59491	9.810192	-1.243538	0.601823	-0.009621	0.007082	0.094295	1.000000	0.000077	0.000082	0.000094	-64.673820	-81.983418	59.811623
59492	9.814499	-1.260702	0.588690	0.002495	-0.010563	0.099940	1.000000	0.000065	0.000068	0.000097	-64.674659	-81.983397	59.812788
59493	9.819781	-1.241570	0.570382	0.022633	0.007219	0.101664	1.000000	0.000085	0.000072	0.000081	-64.665213	-81.984814	59.804830
59494	9.808617	-1.260200	0.599163	-0.008181	-0.010170	0.094679	1.000000	0.000073	0.000072	0.000097	-64.662340	-81.984579	59.801968
59495	9.808469	-1.249641	0.594405	-0.002610	-0.000236	0.092916	1.000000	0.000068	0.000067	0.000089	-64.661649	-81.985453	59.799582
59496	9.819332	-1.247324	0.588836	0.003870	0.002724	0.103047	1.000000	0.000075	0.000070	0.000089	-64.657002	-81.986126	59.795229
59497	9.813580	-1.257543	0.603915	-0.012361	-0.006804	0.099542	1.000000	0.000058	0.000065	0.000096	-64.660568	-81.986214	59.795291
59498	9.818885	-1.238510	0.585565	0.007796	0.010961	0.101298	1.000000	0.000082	0.000074	0.000089	-64.652558	-81.986716	59.788877
59499	9.818835	-1.253304	0.607292	-0.014878	-0.001762	0.104413	1.000000	0.000070	0.000074	0.000105	-64.651528	-81.985593	59.788202
59500	9.812306	-1.250091	0.588569	0.003604	-0.000838	0.096424	1.000000	0.000073	0.000067	0.000108	-64.655919	-81.984463	59.792624
59501	9.811958	-1.252116	0.590069	0.001932	-0.002527	0.096424	1.000000	0.000073	0.000067	0.000108	-64.660306	-81.983333	59.796885
59502	9.800194	-1.244957	0.578533	0.013129	0.002179	0.083183	1.000000	0.000078	0.000064	0.000092	-64.660673	-81.983982	59.797119
59503	9.810846	-1.255211	0.579260	0.012316	-0.006493	0.095067	1.000000	0.000061	0.000072	0.000112	-64.665250	-81.982155	59.799816
59504	9.810949	-1.257875	0.594582	-0.003097	-0.007590	0.096421	1.000000	0.000065	0.000068	0.000096	-64.666050	-81.982129	59.799519
59505	9.804907	-1.255142	0.589732	0.001641	-0.006078	0.089804	1.000000	0.000077	0.000082	0.000094	-64.654712	-81.981749	59.788538
59506	9.822564	-1.246584	0.612079	-0.018505	0.006452	0.107544	1.000000	0.000066	0.000068	0.000096	-64.655057	-81.981708	59.788664
59507	9.804264	-1.258652	0.592927	-0.001697	-0.009456	0.089801	1.000000	0.000075	0.000070	0.000089	-64.650099	-81.982387	59.784343
59508	9.815997	-1.232628	0.588414	0.005605	0.017286	0.097866	1.000000	0.000071	0.000055	0.000102	-64.661825	-81.982356	59.794767
59509	9.821179	-1.251238	0.602597	-0.009785	0.000790	0.106193	1.000000	0.000078	0.000064	0.000092	-64.662552	-81.983040	59.795526
59510	9.814045	-1.259556	0.576468	0.015149	-0.010510	0.098616	1.000000	0.000083	0.000083	0.000113	-64.656454	-81.980655	59.790660
59511	9.803152	-1.253838	0.592724	-0.001101	-0.004599	0.088080	1.000000	0.000073	0.000072	0.000096	-64.653086	-81.980436	59.788365
59512	9.819708	-1.256318	0.593779	-0.001106	-0.004884	0.104850	1.000000	0.000070	0.000074	0.000104	-64.652715	-81.979372	59.788233
59513	9.813243	-1.252991	0.575146	0.017397	-0.003981	0.096914	1.000000	0.000070	0.000079	0.000093	-64.644020	-81.979140	59.779002
59514	9.813579	-1.243203	0.584114	0.009303	0.006536	0.096548	1.000000	0.000061	0.000058	0.000099	-64.652742	-81.979274	59.787168
59515	9.807518	-1.265712	0.605590	-0.014255	-0.014550	0.094671	1.000000	0.000078	0.000082	0.000094	-64.640942	-81.978883	59.775661
59516	9.812941	-1.246739	0.587292	0.005944	0.003158	0.096552	1.000000	0.000078	0.000064	0.000092	-64.642000	-81.979591	59.776795
59517	9.802076	-1.240849	0.603325	-0.010294	0.009099	0.086011	1.000000	0.000053	0.000073	0.000101	-64.641996	-81.978818	59.773587
59518	9.818370	-1.255806	0.610650	-0.017579	-0.002809	0.104470	1.000000	0.000081	0.000066	0.000118	-64.649743	-81.976612	59.783025
59519	9.822861	-1.261069	0.591227	0.001771	-0.008936	0.108419	1.000000	0.000068	0.000081	0.000101	-64.642240	-81.975464	59.775487
59520	9.816835	-1.258412	0.586374	0.006540	-0.007426	0.101827	1.000000	0.000073	0.000072	0.000096	-64.639487	-81.975289	59.773614
59521	9.800679	-1.248689	0.609821	-0.016952	0.002345	0.086005	1.000000	0.000068	0.000081	0.000101	-64.631918	-81.974131	59.765769
59522	9.810463	-1.257686	0.583252	0.009660	-0.007608	0.095238	1.000000	0.000078	0.000078	0.000104	-64.627117	-81.972828	59.761609
59523	9.799176	-1.251225	0.585433	0.007179	-0.002269	0.083377	1.000000	0.000054	0.000055	0.000099	-64.639793	-81.973166	59.771559
59524	9.799789	-1.229186	0.587978	0.006384	0.019865	0.081353	1.000000	0.000080	0.000076	0.000096	-64.633792	-81.972796	59.765910
59525	9.810417	-1.239431	0.588733	0.005509	0.011150	0.093216	1.000000	0.000071	0.000055	0.000102	-64.645996	-81.972813	59.776726
59526	9.815483	-1.258119	0.603214	-0.009947	-0.005339	0.101460	1.000000	0.000083	0.000088	0.000101	-64.632126	-81.971334	59.764040
59527	9.815417	-1.247712	0.598540	-0.004307	0.004570	0.099800	1.000000	0.000058	0.000065	0.000096	-64.636073	-81.971494	59.765053
59528	9.814702	-1.248857	0.586232	0.007757	0.002250	0.098500	1.000000	0.000056	0.000072	0.000093	-64.634099	-81.971637	59.760098
59529	9.803167	-1.254426	0.594845	-0.002043	-0.003996	0.088297	1.000000	0.000075	0.000070	0.000088	-64.629471	-81.972388	59.757116
59530	9.814067	-1.252423	0.589263	0.004391	-0.001134	0.098502	1.000000	0.000076	0.000061	0.000110	-64.639646	-81.971326	59.767729
59531	9.814418	-1.242664	0.598172	-0.003690	0.009401	0.098152	1.000000	0.000075	0.000070	0.000088	-64.634596	-81.972040	59.763379
59532	9.808138	-1.252176	0.599643	-0.006221	-0.000679	0.093222	1.000000	0.000068	0.000081	0.000101	-64.627603	-81.970959	59.756846
59533	9.801472	-1.261087	0.587172	0.004989	-0.011394	0.087000	1.000000	0.000063	0.000056	0.000091	-64.635178	-81.972056	59.763279
59534	9.801479	-1.250431	0.582214	0.010642	-0.001494	0.085364	1.000000	0.000078	0.000069	0.000080	-64.628700	-81.973697	59.757620
59535	9.812504	-1.261034	0.596871	-0.003985	-0.009596	0.098498	1.000000	0.000075	0.000070	0.000088	-64.623594	-81.974413	59.753129
59536	9.801924	-1.242745	0.606706	-0.012849	0.008009	0.086302	1.000000	0.000065	0.000087	0.000098	-64.611393	-81.973301	59.738772
59537	9.817819	-1.256658	0.600573	-0.006498	-0.004588	0.103430	1.000000	0.000065	0.000078	0.000074	-64.597003	-81.975100	59.723594
59538	9.812162	-1.241561	0.589269	0.005648	0.008511	0.095245	1.000000	0.000063	0.000070	0.000104	-64.598914	-81.974203	59.725156
59539	9.822769	-1.251782	0.590146	0.004758	-0.000237	0.107091	1.000000	0.000076	0.000070	0.000088	-64.593507	-81.974849	59.717654
59540	9.817195	-1.249503	0.598856	-0.004167	0.001929	0.101807	1.000000	0.000091	0.000059	0.000087	-64.594667	-81.976316	59.720849
59541	9.828510	-1.248001	0.606961	-0.011461	0.005410	0.113307	1.000000	0.000051	0.000061	0.000096	-64.601317	-81.976647	59.724206
59542	9.800726	-1.241418	0.623368	-0.029241	0.010137	0.085948	1.000000	0.000081	0.000071	0.000107	-64.601900	-81.975362	59.724965
59543	9.804605	-1.258208	0.596588	-0.003553	-0.008304	0.090302	1.000000	0.000070	0.000079	0.000093	-64.593475	-81.975174	59.715079
59544	9.822189	-1.236800	0.598852	-0.002651	0.015131	0.105148	1.000000	0.000080	0.000076	0.000096	-64.586613	-81.974800	59.708931
59545	9.815880	-1.246404	0.600280	-0.005176	0.005066	0.100199	1.000000	0.000063	0.000070	0.000104	-64.588277	-81.973872	59.708658
59546	9.821515	-1.240586	0.602063	-0.005996	0.011750	0.105151	1.000000	0.000090	0.000073	0.000099	-64.583880	-81.973338	59.706038
59547	9.798323	-1.249456	0.603778	-0.010131	0.000387	0.083408	1.000000	0.000054	0.000055	0.000099	-64.596535	-81.973767	59.718150
59548	9.808897	-1.246870	0.584484	0.010030	0.002531	0.092395	1.000000	0.000095	0.000083	0.000096	-64.582899	-81.973032	59.706576
59549	9.813875	-1.252429	0.578833	0.015583	-0.003034	0.097687	1.000000	0.000056	0.000058	0.000080	-64.586957	-81.975252	59.708321
59550	9.808644	-1.263603	0.621622	-0.028149	-0.011092	0.096484	1.000000	0.000055	0.000090	0.000095	-64.571165	-81.974303	59.690790
59551	9.808315	-1.252507	0.603119	-0.008721	-0.001875	0.093648	1.000000	0.000078	0.000064	0.000091	-64.571670	-81.975046	59.691930
59552	9.819265	-1.250492	0.597503	-0.002288	0.000914	0.103899	1.000000	0.000068	0.000062	0.000099	-64.576778	-81.975064	59.697756
59553	9.808056	-1.243751	0.599500	-0.004699	0.006312	0.092070	1.000000	0.000073	0.000058	0.000083	-64.579506	-81.976948	59.701424
59554	9.808107	-1.233270	0.594537	0.001001	0.016194	0.090500	1.000000	0.000063	0.000070	0.000104	-64.581106	-81.976059	59.702471
59555	9.812349	-1.250689	0.581602	0.012933	-0.001641	0.096122	1.000000	0.000078	0.000082	0.000093	-64.568221	-81.975703	59.690973
59556	9.801102	-1.256834	0.603932	-0.010554	-0.007132	0.087101	1.000000	0.000084	0.000050	0.000097	-64.579550	-81.976449	59.703627
59557	9.824040	-1.239440	0.598623	-0.002423	0.012376	0.107300	1.000000	0.000066	0.000069	0.000096	-64.579820	-81.976483	59.703017
59558	9.806476	-1.239956	0.586949	0.008068	0.008738	0.089274	1.000000	0.000075	0.000084	0.000101	-64.568997	-81.975237	59.693155
59559	9.811376	-1.258577	0.601643	-0.007493	-0.007733	0.097357	1.000000	0.000083	0.000069	0.000099	-64.567647	-81.974878	59.692326
59560	9.806156	-1.244182	0.603906	-0.009007	0.006041	0.090508	1.000000	0.000071	0.000060	0.000091	-64.571530	-81.975817	59.696025
59561	9.815701	-1.265440	0.583561	0.010111	-0.015702	0.101420	1.000000	0.000056	0.000072	0.000093	-64.569545	-81.976032	59.691990
59562	9.810395	-1.264032	0.606193	-0.012521	-0.012805	0.097347	1.000000	0.000086	0.000076	0.000115	-64.568194	-81.973683	59.691642
59563	9.821397	-1.249424	0.580486	0.015011	0.000837	0.104855	1.000000	0.000081	0.000057	0.000094	-64.574303	-81.974436	59.698289
59564	9.810842	-1.243941	0.609979	-0.014830	0.007640	0.095482	1.000000	0.000071	0.000055	0.000102	-64.585419	-81.974483	59.709767
59565	9.815804	-1.249749	0.604166	-0.009293	0.002048	0.100779	1.000000	0.000066	0.000069	0.000096	-64.585595	-81.974502	59.708393
59566	9.810217	-1.247466	0.612831	-0.018172	0.004261	0.095478	1.000000	0.000081	0.000062	0.000083	-64.584081	-81.976165	59.708119
59567	9.808875	-1.260218	0.593124	0.000253	-0.010388	0.094576	1.000000	0.000066	0.000069	0.000096	-64.583576	-81.976154	59.706351
59568	9.820248	-1.246086	0.581138	0.014050	0.003925	0.103336	1.000000	0.000069	0.000062	0.000099	-64.589154	-81.976180	59.711087
59569	9.808639	-1.251691	0.589500	0.004314	-0.002205	0.093049	1.000000	0.000061	0.000058	0.000099	-64.597821	-81.976358	59.717589
59570	9.808321	-1.253583	0.590783	0.002639	-0.003893	0.093050	1.000000	0.000071	0.000055	0.000102	-64.609215	-81.976388	59.728060
59571	9.815056	-1.236627	0.613422	-0.018270	0.015736	0.098936	1.000000	0.000081	0.000057	0.000094	-64.616194	-81.977227	59.736737
59572	9.818264	-1.265122	0.579113	0.013659	-0.015114	0.103653	1.000000	0.000066	0.000069	0.000096	-64.616688	-81.977304	59.736788
59573	9.819720	-1.244121	0.609039	-0.014436	0.008436	0.104237	1.000000	0.000064	0.000057	0.000091	-64.624309	-81.978454	59.743392
59574	9.813088	-1.253064	0.596379	-0.003229	-0.002309	0.098040	1.000000	0.000079	0.000059	0.000102	-64.631841	-81.978289	59.750996
59575	9.812751	-1.255052	0.597749	-0.004895	-0.004005	0.098039	1.000000	0.000076	0.000061	0.000110	-64.640943	-81.977241	59.760887
59576	9.812415	-1.257014	0.599137	-0.006564	-0.005697	0.098037	1.000000	0.000069	0.000062	0.000099	-64.646264	-81.977267	59.765661
59577	9.801208	-1.250390	0.601287	-0.008881	-0.000249	0.086233	1.000000	0.000068	0.000081	0.000101	-64.638300	-81.976192	59.757360
59578	9.806900	-1.244405	0.603293	-0.009684	0.006403	0.091234	1.000000	0.000078	0.000087	0.000082	-64.618263	-81.976754	59.737872
59579	9.811875	-1.250132	0.597546	-0.004168	0.000779	0.096539	1.000000	0.000059	0.000042	0.000105	-64.642170	-81.977206	59.760832
59580	9.816071	-1.267875	0.584399	0.007676	-0.017117	0.102146	1.000000	0.000063	0.000085	0.000116	-64.637880	-81.974297	59.754466
59581	9.811179	-1.254186	0.600482	-0.007518	-0.002600	0.096537	1.000000	0.000064	0.000057	0.000091	-64.645349	-81.975458	59.761367
59582	9.811318	-1.243757	0.595415	-0.001750	0.007264	0.095055	1.000000	0.000076	0.000066	0.000099	-64.646757	-81.975251	59.762088
59583	9.810539	-1.257784	0.603400	-0.010843	-0.005985	0.096532	1.000000	0.000073	0.000072	0.000096	-64.642884	-81.975126	59.759226
59584	9.816243	-1.251899	0.605133	-0.011660	0.000658	0.101541	1.000000	0.000066	0.000069	0.000096	-64.643159	-81.975214	59.759418
59585	9.815634	-1.253130	0.592958	0.000408	-0.001764	0.100365	1.000000	0.000071	0.000079	0.000093	-64.633764	-81.975073	59.750231
59586	9.805197	-1.234677	0.602585	-0.008186	0.015985	0.088277	1.000000	0.000071	0.000079	0.000093	-64.623838	-81.974870	59.739456
59587	9.803836	-1.247656	0.583118	0.010200	0.001276	0.087402	1.000000	0.000071	0.000074	0.000104	-64.621594	-81.973842	59.737959
59588	9.798203	-1.245694	0.591736	0.001341	0.003532	0.082093	1.000000	0.000079	0.000054	0.000113	-64.636785	-81.972841	59.754381
59589	9.808433	-1.255697	0.578903	0.014035	-0.006064	0.092716	1.000000	0.000068	0.000081	0.000101	-64.628839	-81.971787	59.746236
59590	9.814925	-1.238022	0.587840	0.006918	0.012855	0.097448	1.000000	0.000071	0.000046	0.000078	-64.638680	-81.974790	59.756479
59591	9.814368	-1.239148	0.575325	0.018981	0.010423	0.096290	1.000000	0.000076	0.000066	0.000099	-64.640953	-81.974679	59.759108
59592	9.814089	-1.254286	0.610981	-0.017628	-0.001336	0.100060	1.000000	0.000078	0.000078	0.000104	-64.635933	-81.973490	59.754844
59593	9.802370	-1.246609	0.585474	0.007560	0.002666	0.085959	1.000000	0.000069	0.000062	0.000099	-64.641982	-81.973595	59.760747
59594	9.814181	-1.246300	0.621391	-0.027288	0.007569	0.099766	1.000000	0.000064	0.000075	0.000093	-64.635870	-81.973632	59.753476
59595	9.802484	-1.238517	0.595924	-0.002082	0.011568	0.085676	1.000000	0.000083	0.000069	0.000099	-64.634591	-81.973352	59.753778
59596	9.818299	-1.252835	0.589746	0.003999	-0.001273	0.102774	1.000000	0.000079	0.000064	0.000091	-64.635307	-81.974187	59.755760
59597	9.817973	-1.254684	0.591227	0.002326	-0.002966	0.102774	1.000000	0.000074	0.000068	0.000107	-64.638884	-81.973148	59.759142
59598	9.806804	-1.248016	0.593278	0.000061	0.002525	0.090995	1.000000	0.000056	0.000072	0.000092	-64.636344	-81.973387	59.754765
59599	9.817815	-1.246219	0.587883	0.006425	0.005180	0.101347	1.000000	0.000071	0.000074	0.000104	-64.634239	-81.972379	59.753052
59600	9.811426	-1.255779	0.589272	0.003854	-0.004837	0.096312	1.000000	0.000076	0.000066	0.000099	-64.636929	-81.972340	59.756993
59601	9.800522	-1.249553	0.605080	-0.012153	0.001416	0.085675	1.000000	0.000066	0.000069	0.000096	-64.636906	-81.972433	59.756563
59602	9.811534	-1.247875	0.599484	-0.005777	0.004068	0.096032	1.000000	0.000079	0.000054	0.000113	-64.651361	-81.971389	59.771607
59603	9.810467	-1.261342	0.593339	-0.001178	-0.009918	0.096309	1.000000	0.000071	0.000046	0.000078	-64.661283	-81.974394	59.781449
59604	9.815989	-1.254801	0.581100	0.012343	-0.003952	0.100217	1.000000	0.000081	0.000076	0.000096	-64.635436	-81.971910	59.775947
59605	9.815638	-1.256742	0.582825	0.010666	-0.005650	0.100218	1.000000	0.000076	0.000080	0.000111	-64.631575	-81.969810	59.773071
59606	9.799431	-1.246483	0.605909	-0.012478	0.004597	0.084258	1.000000	0.000059	0.000070	0.000084	-64.627346	-81.970957	59.767289
59607	9.815780	-1.248540	0.593223	0.001040	0.003257	0.099946	1.000000	0.000071	0.000060	0.000091	-64.630865	-81.971914	59.770404
59608	9.814686	-1.262113	0.587241	0.005651	-0.010734	0.100218	1.000000	0.000069	0.000057	0.000110	-64.643328	-81.971062	59.782280
59609	9.803765	-1.255986	0.602967	-0.010345	-0.004455	0.089573	1.000000	0.000084	0.000069	0.000099	-64.642378	-81.970813	59.783045
59610	9.808495	-1.261326	0.583629	0.008887	-0.010900	0.093772	1.000000	0.000064	0.000076	0.000092	-64.635976	-81.970844	59.775383
59611	9.808178	-1.263003	0.585327	0.007216	-0.012592	0.093772	1.000000	0.000091	0.000078	0.000088	-64.623574	-81.971251	59.764695
59612	9.814388	-1.258018	0.614818	-0.021083	-0.004436	0.101058	1.000000	0.000081	0.000076	0.000096	-64.616799	-81.970969	59.758679
59613	9.808099	-1.254149	0.582220	0.011339	-0.004449	0.092388	1.000000	0.000086	0.000072	0.000080	-64.605815	-81.972473	59.749822
59614	9.813311	-1.260301	0.590547	0.003054	-0.009367	0.098825	1.000000	0.000081	0.000076	0.000096	-64.599003	-81.972213	59.744472
59615	9.807264	-1.256923	0.571703	0.021715	-0.008608	0.091280	1.000000	0.000079	0.000069	0.000080	-64.592296	-81.973930	59.738368
59616	9.807965	-1.247355	0.594360	0.000029	0.002779	0.092126	1.000000	0.000084	0.000069	0.000099	-64.590800	-81.973636	59.738073
59617	9.824526	-1.250142	0.595541	-0.000243	0.002166	0.108947	1.000000	0.000069	0.000062	0.000098	-64.596570	-81.973741	59.743657
59618	9.804128	-1.211618	0.612649	-0.015528	0.039542	0.084912	1.000000	0.000074	0.000082	0.000119	-64.594935	-81.970775	59.742545
59619	9.832023	-1.211084	0.607092	-0.007766	0.043221	0.112132	1.000000	0.000071	0.000074	0.000103	-64.592529	-81.969745	59.739971
59620	9.832424	-1.201675	0.616091	-0.015673	0.053834	0.111879	1.000000	0.000032	0.000086	0.000136	-64.596630	-81.964671	59.738926
59621	9.792109	-1.210190	0.618385	-0.021023	0.041705	0.073170	1.000000	-0.000006	0.000101	0.000150	-64.599541	-81.957480	59.733215
59622	9.813380	-1.217348	0.585182	0.013368	0.035490	0.093137	1.000000	0.000019	0.000082	0.000163	-64.617029	-81.949879	59.745133
59623	9.811875	-1.231864	0.565697	0.031717	0.020696	0.092309	1.000000	0.000020	0.000077	0.000174	-64.642383	-81.941385	59.763971
59624	9.812311	-1.224288	0.588610	0.010066	0.032095	0.093152	1.000000	0.000029	0.000102	0.000202	-64.658252	-81.928741	59.775222
59625	9.809486	-1.263730	0.582781	0.013421	-0.005747	0.095009	1.000000	0.000032	0.000119	0.000196	-64.659351	-81.915865	59.770462
59626	9.804150	-1.251457	0.585723	0.012119	0.008096	0.088341	1.000000	0.000052	0.000108	0.000213	-64.672684	-81.901800	59.781385
59627	9.788444	-1.318446	0.586167	0.006179	-0.057859	0.081358	1.000000	0.000059	0.000116	0.000203	-64.675447	-81.888478	59.782860
59628	9.811451	-1.303006	0.582085	0.014254	-0.038692	0.101924	1.000000	0.000066	0.000125	0.000146	-64.652101	-81.880581	59.758172
59629	9.809109	-1.342042	0.603732	-0.009922	-0.074945	0.105905	1.000000	0.000069	0.000071	0.000122	-64.658087	-81.877736	59.763665
59630	9.797337	-1.347478	0.612435	-0.019614	-0.080903	0.095473	1.000000	0.000079	0.000087	0.000081	-64.638064	-81.878369	59.744448
59631	9.779974	-1.347329	0.600755	-0.008915	-0.084428	0.077555	1.000000	0.000066	0.000083	0.000062	-64.615349	-81.881109	59.720594
59632	9.804376	-1.318176	0.616873	-0.020799	-0.052149	0.098960	1.000000	0.000071	0.000065	0.000034	-64.595143	-81.887623	59.699041
59633	9.788415	-1.292998	0.591730	0.004909	-0.032638	0.078418	1.000000	0.000081	0.000062	0.000037	-64.577974	-81.894039	59.682682
59634	9.813307	-1.251199	0.587280	0.014283	0.010338	0.097463	1.000000	0.000079	0.000059	0.000056	-64.569096	-81.898613	59.674475
59635	9.805626	-1.196412	0.618146	-0.012815	0.065200	0.084756	1.000000	0.000096	0.000055	0.000025	-64.551165	-81.906699	59.659609
59636	9.817674	-1.182003	0.619707	-0.012692	0.080084	0.094952	1.000000	0.000081	0.000048	0.000070	-64.554712	-81.910349	59.663891
59637	9.844738	-1.192166	0.592653	0.014959	0.070519	0.121404	1.000000	0.000057	0.000058	0.000079	-64.558185	-81.912649	59.666051
59638	9.822246	-1.188952	0.601337	0.004814	0.071848	0.099252	1.000000	0.000054	0.000064	0.000122	-64.571797	-81.910238	59.678154
59639	9.820868	-1.202766	0.581610	0.023153	0.057010	0.098447	1.000000	0.000062	0.000059	0.000144	-64.594918	-81.905728	59.699995
59640	9.813335	-1.224454	0.561747	0.040576	0.033887	0.092544	1.000000	0.000057	0.000067	0.000149	-64.615018	-81.900389	59.718552
59641	9.823132	-1.248718	0.583198	0.018082	0.014223	0.106628	1.000000	0.000069	0.000071	0.000167	-64.637936	-81.892935	59.741491
59642	9.809569	-1.278780	0.577069	0.020874	-0.016362	0.096663	1.000000	0.000057	0.000062	0.000159	-64.664790	-81.886656	59.766365
59643	9.807916	-1.306424	0.605514	-0.009594	-0.040253	0.100278	1.000000	0.000069	0.000081	0.000146	-64.672059	-81.880940	59.773504
59644	9.794519	-1.336410	0.613550	-0.020563	-0.070008	0.091338	1.000000	0.000059	0.000089	0.000131	-64.669920	-81.876294	59.769693
59645	9.792260	-1.361760	0.587087	0.003900	-0.097182	0.090744	1.000000	0.000064	0.000085	0.000116	-64.666122	-81.873554	59.764949
59646	9.794960	-1.315677	0.590254	0.004872	-0.051195	0.087717	1.000000	0.000081	0.000071	0.000061	-64.649584	-81.877013	59.748345
59647	9.795702	-1.305504	0.612869	-0.016771	-0.039725	0.088517	1.000000	0.000084	0.000065	0.000064	-64.639368	-81.880573	59.739961
59648	9.819202	-1.287673	0.607656	-0.008672	-0.020654	0.109186	1.000000	0.000086	0.000054	0.000032	-64.625109	-81.887849	59.727160
59649	9.799220	-1.247441	0.624382	-0.023639	0.016912	0.085284	1.000000	0.000086	0.000072	0.000034	-64.598410	-81.894051	59.701382
59650	9.821250	-1.253108	0.618473	-0.016886	0.012137	0.107460	1.000000	0.000081	0.000048	0.000024	-64.586522	-81.902467	59.690792
59651	9.817032	-1.224872	0.599957	0.003173	0.036678	0.098569	1.000000	0.000079	0.000064	0.000045	-64.570927	-81.908011	59.676072
59652	9.828424	-1.222692	0.608103	-0.004267	0.040020	0.110067	1.000000	0.000086	0.000044	0.000054	-64.571830	-81.913569	59.679465
59653	9.807280	-1.193915	0.589677	0.014499	0.063592	0.084365	1.000000	0.000096	0.000055	0.000070	-64.569272	-81.916909	59.679071
59654	9.823225	-1.208508	0.597165	0.006606	0.051361	0.102461	1.000000	0.000074	0.000040	0.000081	-64.583828	-81.919927	59.694646
59655	9.816926	-1.218366	0.611954	-0.009706	0.042240	0.098370	1.000000	0.000067	0.000060	0.000117	-64.597817	-81.918266	59.708797
59656	9.814602	-1.243281	0.571270	0.028510	0.014175	0.096778	1.000000	0.000062	0.000068	0.000122	-64.607516	-81.915667	59.717576
59657	9.823267	-1.277761	0.557946	0.039639	-0.019512	0.108935	1.000000	0.000079	0.000069	0.000125	-64.616271	-81.912699	59.726769
59658	9.807821	-1.255827	0.588170	0.010540	0.003367	0.092679	1.000000	0.000091	0.000087	0.000111	-64.604563	-81.910230	59.716979
59659	9.793688	-1.297573	0.602833	-0.008021	-0.037841	0.084885	1.000000	0.000062	0.000082	0.000134	-64.608227	-81.905622	59.719482
59660	9.820933	-1.309316	0.603969	-0.008008	-0.045899	0.113422	1.000000	0.000099	0.000067	0.000075	-64.598768	-81.907948	59.713079
59661	9.798347	-1.305080	0.598948	-0.004324	-0.045302	0.090216	1.000000	0.000072	0.000065	0.000079	-64.595168	-81.909882	59.709250
59662	9.820430	-1.311753	0.606848	-0.011378	-0.049285	0.113402	1.000000	0.000096	0.000050	0.000036	-64.583764	-81.917042	59.700538
59663	9.780997	-1.305090	0.587763	0.004770	-0.050477	0.072354	1.000000	0.000106	0.000033	0.000026	-64.581089	-81.926070	59.702149
59664	9.812515	-1.255635	0.596734	0.001368	0.001469	0.097820	1.000000	0.000109	0.000036	0.000007	-64.568914	-81.936851	59.694199
59665	9.836962	-1.224841	0.584289	0.017004	0.031940	0.117375	1.000000	0.000104	0.000012	-0.000002	-64.571789	-81.949840	59.701347
59666	9.813936	-1.231071	0.584785	0.013163	0.021060	0.095402	1.000000	0.000106	0.000010	-0.000010	-64.573160	-81.963715	59.706626
59667	9.860569	-1.205493	0.565131	0.037155	0.048347	0.137172	1.000000	0.000134	0.000040	0.000011	-64.556355	-81.973966	59.696975
59668	9.773932	-1.236397	0.586720	0.006386	0.007572	0.056587	1.000000	0.000074	0.000031	0.000012	-64.553947	-81.984590	59.694792
59669	9.821542	-1.200617	0.602103	-0.003299	0.048932	0.100147	1.000000	0.000062	0.000054	0.000063	-64.553608	-81.988689	59.693266
59670	9.796638	-1.232540	0.603092	-0.008532	0.014232	0.079568	1.000000	0.000081	0.000090	0.000108	-64.540046	-81.986447	59.680667
59671	9.827121	-1.197340	0.619437	-0.019490	0.054663	0.106297	1.000000	0.000074	0.000073	0.000140	-64.551776	-81.981680	59.692771
59672	9.827422	-1.187971	0.614507	-0.013578	0.064452	0.105114	1.000000	0.000079	0.000078	0.000148	-64.561635	-81.975830	59.703557
59673	9.792510	-1.200442	0.622999	-0.025349	0.049461	0.072622	1.000000	0.000082	0.000062	0.000128	-64.575773	-81.972886	59.718958
59674	9.813574	-1.220140	0.623723	-0.026277	0.033084	0.096007	1.000000	0.000049	0.000059	0.000114	-64.590550	-81.971568	59.731275
59675	9.790420	-1.303934	0.588556	0.000192	-0.055137	0.081549	1.000000	0.000045	0.000063	0.000129	-64.608462	-81.968439	59.746189
59676	9.806784	-1.307104	0.576064	0.013516	-0.056812	0.097407	1.000000	0.000069	0.000072	0.000122	-64.614558	-81.965672	59.752029
59677	9.805547	-1.321069	0.570206	0.017995	-0.070869	0.097598	1.000000	0.000064	0.000048	0.000112	-64.635696	-81.965078	59.772501
59678	9.807696	-1.287497	0.579185	0.011586	-0.036367	0.096024	1.000000	0.000082	0.000053	0.000104	-64.648457	-81.965025	59.786515
59679	9.820585	-1.262366	0.588116	0.005539	-0.009217	0.106144	1.000000	0.000067	0.000074	0.000084	-64.640315	-81.966052	59.777684
59680	9.808735	-1.266806	0.582844	0.009669	-0.015919	0.094655	1.000000	0.000079	0.000073	0.000068	-64.625605	-81.968711	59.763650
59681	9.820049	-1.264995	0.591409	0.002186	-0.012609	0.106142	1.000000	0.000069	0.000077	0.000065	-64.608609	-81.971548	59.746159
59682	9.825890	-1.258173	0.579363	0.015152	-0.006954	0.110341	1.000000	0.000094	0.000066	0.000056	-64.593004	-81.975839	59.732943
59683	9.822761	-1.219225	0.581945	0.015480	0.030788	0.102484	1.000000	0.000069	0.000072	0.000076	-64.583260	-81.977771	59.722781
59684	9.811843	-1.212474	0.597797	-0.000276	0.037347	0.091772	1.000000	0.000084	0.000088	0.000100	-64.568013	-81.976449	59.708781
59685	9.806216	-1.210102	0.606411	-0.008984	0.039783	0.086418	1.000000	0.000084	0.000051	0.000096	-64.579198	-81.977308	59.721491
59686	9.823650	-1.201284	0.614957	-0.015568	0.051326	0.103081	1.000000	0.000089	0.000080	0.000095	-64.568026	-81.976900	59.712183
59687	9.800183	-1.209209	0.602782	-0.005607	0.039636	0.080113	1.000000	0.000074	0.000068	0.000106	-64.570923	-81.975951	59.715370
59688	9.804502	-1.228347	0.631373	-0.035340	0.024135	0.088519	1.000000	0.000057	0.000058	0.000124	-64.589465	-81.973556	59.732358
59689	9.807593	-1.258138	0.597423	-0.003946	-0.007333	0.093302	1.000000	0.000067	0.000055	0.000128	-64.610251	-81.970982	59.752763
59690	9.818770	-1.257536	0.605631	-0.011438	-0.004034	0.104787	1.000000	0.000074	0.000059	0.000128	-64.627609	-81.968227	59.770566
59691	9.816598	-1.283616	0.592613	-0.000841	-0.030473	0.105151	1.000000	0.000052	0.000062	0.000140	-64.649193	-81.964019	59.790058
59692	9.805534	-1.277102	0.594320	-0.002833	-0.024790	0.093477	1.000000	0.000067	0.000069	0.000095	-64.648166	-81.964158	59.788426
59693	9.809643	-1.294871	0.581389	0.008686	-0.043004	0.099017	1.000000	0.000069	0.000044	0.000096	-64.664832	-81.965286	59.804443
59694	9.821730	-1.281369	0.583081	0.008814	-0.028247	0.109379	1.000000	0.000084	0.000079	0.000076	-64.647808	-81.966853	59.791901
59695	9.816958	-1.266435	0.585266	0.007734	-0.014332	0.102896	1.000000	0.000074	0.000082	0.000073	-64.628653	-81.968604	59.773541
59696	9.800627	-1.254516	0.580479	0.012482	-0.005402	0.084932	1.000000	0.000077	0.000075	0.000076	-64.615339	-81.970372	59.763882
59697	9.813690	-1.229368	0.603374	-0.007266	0.022642	0.096064	1.000000	0.000069	0.000072	0.000076	-64.605355	-81.972306	59.753361
59698	9.819608	-1.223247	0.605125	-0.008034	0.029172	0.101257	1.000000	0.000087	0.000072	0.000079	-64.594301	-81.973884	59.741741
59699	9.809485	-1.203774	0.600463	-0.002367	0.046334	0.088498	1.000000	0.000064	0.000085	0.000070	-64.572899	-81.975824	59.719352
59700	9.825145	-1.218493	0.594954	0.003279	0.033085	0.105532	1.000000	0.000097	0.000074	0.000117	-64.572668	-81.973432	59.721569
59701	9.801724	-1.226850	0.596548	-0.000473	0.022345	0.083490	1.000000	0.000055	0.000074	0.000099	-64.570791	-81.972848	59.717862
59702	9.812951	-1.225777	0.604987	-0.007977	0.025632	0.094978	1.000000	0.000067	0.000065	0.000106	-64.577078	-81.972099	59.722548
59703	9.812550	-1.227598	0.592547	0.004104	0.023013	0.094063	1.000000	0.000077	0.000057	0.000120	-64.592781	-81.970257	59.737909
59704	9.810397	-1.253352	0.579609	0.014661	-0.003449	0.094406	1.000000	0.000065	0.000067	0.000113	-64.600507	-81.968603	59.744988
59705	9.815417	-1.260523	0.601645	-0.007500	-0.007460	0.101605	1.000000	0.000062	0.000064	0.000132	-64.617024	-81.965137	59.760831
59706	9.820281	-1.266909	0.582171	0.011583	-0.014255	0.106061	1.000000	0.000057	0.000058	0.000124	-64.635408	-81.962756	59.776960
59707	9.808430	-1.272695	0.604445	-0.011751	-0.019066	0.096394	1.000000	0.000074	0.000087	0.000107	-64.624846	-81.960739	59.766765
59708	9.818660	-1.282788	0.578164	0.014338	-0.030039	0.106224	1.000000	0.000084	0.000051	0.000096	-64.635835	-81.961617	59.779459
59709	9.808618	-1.264340	0.600925	-0.007459	-0.011001	0.095314	1.000000	0.000084	0.000088	0.000099	-64.620404	-81.960329	59.764819
59710	9.826038	-1.255212	0.595795	-0.000325	-0.000450	0.111100	1.000000	0.000067	0.000055	0.000082	-64.625199	-81.962464	59.768829
59711	9.804470	-1.239028	0.597622	-0.002514	0.012690	0.087808	1.000000	0.000072	0.000070	0.000068	-64.613737	-81.965337	59.757790
59712	9.810412	-1.232841	0.599471	-0.003286	0.019205	0.093022	1.000000	0.000062	0.000087	0.000077	-64.594057	-81.966409	59.737312
59713	9.804774	-1.229770	0.594517	0.001794	0.020751	0.086754	1.000000	0.000072	0.000084	0.000080	-64.576522	-81.967291	59.719992
59714	9.805388	-1.219541	0.603321	-0.005970	0.031447	0.086599	1.000000	0.000070	0.000067	0.000087	-64.573729	-81.968349	59.716976
59715	9.816643	-1.218644	0.625762	-0.027234	0.035664	0.098979	1.000000	0.000075	0.000087	0.000107	-64.563100	-81.966333	59.705772
59716	9.816279	-1.220322	0.613449	-0.015155	0.033024	0.098090	1.000000	0.000057	0.000049	0.000101	-64.580160	-81.966857	59.721198
59717	9.815897	-1.222190	0.601106	-0.003072	0.030380	0.097205	1.000000	0.000072	0.000084	0.000126	-64.578246	-81.963037	59.719330
59718	9.813713	-1.248249	0.602248	-0.006310	0.004843	0.098404	1.000000	0.000077	0.000061	0.000109	-64.586520	-81.962118	59.728399
59719	9.808029	-1.245833	0.596811	-0.001224	0.006388	0.092143	1.000000	0.000067	0.000060	0.000116	-64.599719	-81.960473	59.741465
59720	9.828921	-1.265315	0.584142	0.011314	-0.011137	0.114532	1.000000	0.000070	0.000077	0.000110	-64.598145	-81.958654	59.739686
59721	9.811682	-1.265821	0.571924	0.022257	-0.014555	0.096793	1.000000	0.000077	0.000061	0.000109	-64.606390	-81.957733	59.748419
59722	9.806025	-1.263529	0.580488	0.013597	-0.012056	0.091416	1.000000	0.000080	0.000078	0.000102	-64.599808	-81.956634	59.742672
59723	9.816321	-1.274465	0.595936	-0.001605	-0.020239	0.103922	1.000000	0.000067	0.000088	0.000096	-64.585283	-81.955724	59.727966
59724	9.811598	-1.259811	0.598056	-0.002595	-0.006294	0.097519	1.000000	0.000075	0.000078	0.000083	-64.573371	-81.956615	59.715997
59725	9.811281	-1.260781	0.572273	0.023230	-0.009914	0.095776	1.000000	0.000070	0.000091	0.000077	-64.550073	-81.957507	59.691823
59726	9.800376	-1.253928	0.601769	-0.006160	-0.002236	0.085888	1.000000	0.000072	0.000065	0.000079	-64.545911	-81.959499	59.687560
59727	9.801963	-1.231689	0.617527	-0.019982	0.020875	0.085597	1.000000	0.000072	0.000070	0.000068	-64.534383	-81.962391	59.676196
59728	9.801699	-1.233066	0.618970	-0.021650	0.019184	0.085597	1.000000	0.000075	0.000059	0.000082	-64.535701	-81.964368	59.677655
59729	9.813883	-1.219433	0.606867	-0.007754	0.032906	0.095212	1.000000	0.000067	0.000069	0.000094	-64.534283	-81.964530	59.675689
59730	9.824217	-1.229626	0.594350	0.004528	0.022781	0.105978	1.000000	0.000065	0.000062	0.000079	-64.533228	-81.966692	59.674029
59731	9.851409	-1.241543	0.595315	0.004163	0.014353	0.134467	1.000000	0.000080	0.000036	0.000110	-64.560255	-81.966846	59.701857
59732	9.806682	-1.232591	0.610807	-0.013660	0.019630	0.089979	1.000000	0.000075	0.000096	0.000130	-64.550720	-81.961969	59.692757
59733	9.810677	-1.250793	0.598601	-0.002299	0.001308	0.095500	1.000000	0.000082	0.000076	0.000094	-64.542752	-81.961802	59.685768
59734	9.815655	-1.256989	0.593132	0.002997	-0.004611	0.100883	1.000000	0.000070	0.000058	0.000108	-64.554316	-81.961075	59.697228
59735	9.809988	-1.254781	0.601546	-0.005644	-0.002086	0.095499	1.000000	0.000072	0.000070	0.000113	-64.558315	-81.959270	59.701637
59736	9.814001	-1.272964	0.588984	0.005708	-0.020419	0.101016	1.000000	0.000085	0.000065	0.000109	-64.563084	-81.958187	59.707950
59737	9.803991	-1.254213	0.597832	-0.002206	-0.002235	0.089266	1.000000	0.000082	0.000076	0.000094	-64.554959	-81.958017	59.701213
59738	9.808985	-1.260420	0.606084	-0.010663	-0.007176	0.095492	1.000000	0.000070	0.000049	0.000085	-64.565246	-81.960180	59.711473
59739	9.803430	-1.257267	0.600607	-0.005549	-0.005627	0.089263	1.000000	0.000062	0.000073	0.000064	-64.551256	-81.963256	59.696228
59740	9.796880	-1.266369	0.615844	-0.021879	-0.014515	0.084844	1.000000	0.000060	0.000071	0.000083	-64.546021	-81.964528	59.689861
59741	9.815442	-1.244708	0.576161	0.020423	0.005362	0.098101	1.000000	0.000090	0.000047	0.000081	-64.553764	-81.967238	59.699708
59742	9.816051	-1.234974	0.612261	-0.014795	0.018060	0.099645	1.000000	0.000075	0.000073	0.000094	-64.548894	-81.967238	59.695220
59743	9.822041	-1.228837	0.600144	-0.001808	0.023549	0.104074	1.000000	0.000062	0.000069	0.000075	-64.542149	-81.969408	59.687016
59744	9.828022	-1.222914	0.601650	-0.002572	0.030028	0.109339	1.000000	0.000075	0.000054	0.000093	-64.550731	-81.970497	59.695747
59745	9.820529	-1.243860	0.581910	0.014642	0.006739	0.103377	1.000000	0.000060	0.000061	0.000105	-64.559890	-81.969953	59.703549
59746	9.821170	-1.233855	0.590358	0.006932	0.017457	0.103257	1.000000	0.000102	0.000056	0.000088	-64.562218	-81.971396	59.709231
59747	9.814583	-1.243224	0.591636	0.004348	0.007584	0.097994	1.000000	0.000065	0.000067	0.000113	-64.569624	-81.969780	59.715757
59748	9.815208	-1.233300	0.586541	0.010386	0.017304	0.097054	1.000000	0.000077	0.000080	0.000110	-64.564497	-81.967813	59.711207
59749	9.813836	-1.247435	0.595152	0.001002	0.004188	0.097997	1.000000	0.000080	0.000093	0.000115	-64.551733	-81.964757	59.698995
59750	9.812516	-1.261295	0.589768	0.005365	-0.009932	0.098117	1.000000	0.000050	0.000064	0.000102	-64.558534	-81.964395	59.703054
59751	9.817533	-1.267405	0.570402	0.024383	-0.016892	0.102692	1.000000	0.000077	0.000062	0.000108	-64.566609	-81.963503	59.711824
59752	9.794981	-1.263787	0.592689	0.000967	-0.013995	0.081245	1.000000	0.000082	0.000076	0.000094	-64.558440	-81.963345	59.704678
59753	9.800896	-1.258278	0.608044	-0.013541	-0.006512	0.087329	1.000000	0.000077	0.000047	0.000096	-64.572479	-81.964429	59.719459
59754	9.806849	-1.252646	0.609563	-0.014302	-0.000039	0.092602	1.000000	0.000072	0.000075	0.000102	-64.569170	-81.963542	59.716044
59755	9.818116	-1.251262	0.604362	-0.008127	0.002170	0.103271	1.000000	0.000077	0.000071	0.000086	-64.562856	-81.964470	59.710300
59756	9.812564	-1.248252	0.599028	-0.002987	0.003719	0.097073	1.000000	0.000072	0.000065	0.000079	-64.558298	-81.966472	59.705748
59757	9.813365	-1.237564	0.579740	0.016817	0.012414	0.095358	1.000000	0.000062	0.000045	0.000085	-64.572001	-81.968826	59.718352
59758	9.819234	-1.232225	0.608877	-0.011443	0.020916	0.102246	1.000000	0.000080	0.000078	0.000102	-64.565306	-81.967771	59.712515
59759	9.819938	-1.221999	0.603697	-0.005382	0.030628	0.101341	1.000000	0.000072	0.000061	0.000090	-64.567955	-81.968866	59.715098
59760	9.817707	-1.247315	0.590923	0.004979	0.004068	0.101560	1.000000	0.000072	0.000061	0.000089	-64.570723	-81.969980	59.718031
59761	9.813095	-1.232798	0.592676	0.004111	0.018048	0.095267	1.000000	0.000060	0.000080	0.000106	-64.566539	-81.968378	59.712303
59762	9.811722	-1.246726	0.601023	-0.005301	0.004946	0.096167	1.000000	0.000077	0.000066	0.000097	-64.567538	-81.968404	59.713529
59763	9.829355	-1.237710	0.582195	0.015530	0.014258	0.111357	1.000000	0.000080	0.000083	0.000091	-64.553501	-81.968255	59.700179
59764	9.810064	-1.262290	0.597333	-0.002635	-0.010882	0.096269	1.000000	0.000070	0.000072	0.000121	-64.558773	-81.965568	59.705271
59765	9.810676	-1.252538	0.605999	-0.010315	-0.000145	0.096164	1.000000	0.000055	0.000075	0.000099	-64.556248	-81.965045	59.700854
59766	9.804125	-1.261672	0.593567	0.000850	-0.011029	0.090084	1.000000	0.000070	0.000063	0.000097	-64.560280	-81.965237	59.704591
59767	9.810037	-1.256098	0.608959	-0.013660	-0.003537	0.096159	1.000000	0.000070	0.000067	0.000086	-64.557272	-81.966351	59.701244
59768	9.816023	-1.250348	0.610542	-0.014421	0.002918	0.101455	1.000000	0.000070	0.000063	0.000097	-64.561481	-81.966562	59.705269
59769	9.810455	-1.247684	0.605108	-0.009266	0.004471	0.095279	1.000000	0.000058	0.000068	0.000102	-64.564941	-81.966053	59.707030
59770	9.810238	-1.249124	0.592754	0.002810	0.001733	0.094504	1.000000	0.000075	0.000063	0.000071	-64.558859	-81.968981	59.701341
59771	9.809941	-1.250729	0.594297	0.001138	0.000035	0.094504	1.000000	0.000072	0.000075	0.000102	-64.555364	-81.968109	59.697866
59772	9.817009	-1.233021	0.588943	0.008135	0.017881	0.098946	1.000000	0.000095	0.000034	0.000087	-64.574434	-81.970832	59.719742
59773	9.816646	-1.234871	0.603879	-0.007286	0.017228	0.099717	1.000000	0.000053	0.000063	0.000094	-64.579574	-81.971394	59.722596
59774	9.816504	-1.236348	0.577643	0.018533	0.013435	0.098188	1.000000	0.000070	0.000063	0.000097	-64.584011	-81.971623	59.726696
59775	9.816104	-1.238334	0.592860	0.003105	0.012785	0.098956	1.000000	0.000070	0.000063	0.000097	-64.588347	-81.971849	59.730759
59776	9.815877	-1.239970	0.580521	0.015193	0.010035	0.098198	1.000000	0.000068	0.000070	0.000094	-64.586361	-81.972033	59.728129
59777	9.803822	-1.245140	0.602717	-0.008050	0.005547	0.088245	1.000000	0.000080	0.000074	0.000113	-64.586621	-81.970083	59.729321
59778	9.809964	-1.239428	0.576725	0.018699	0.009882	0.092046	1.000000	0.000060	0.000061	0.000105	-64.595410	-81.969562	59.736888
59779	9.807445	-1.265351	0.591848	0.001497	-0.014597	0.093733	1.000000	0.000088	0.000082	0.000102	-64.585100	-81.968344	59.728192
59780	9.814404	-1.247934	0.600820	-0.005239	0.004291	0.098963	1.000000	0.000070	0.000082	0.000099	-64.575676	-81.967477	59.718456
59781	9.825682	-1.246837	0.595721	0.000905	0.006420	0.109685	1.000000	0.000063	0.000074	0.000109	-64.576933	-81.965895	59.718805
59782	9.812823	-1.263457	0.583152	0.011144	-0.012617	0.098296	1.000000	0.000072	0.000061	0.000089	-64.579455	-81.967014	59.721410
59783	9.813526	-1.253285	0.591567	0.003489	-0.001867	0.098214	1.000000	0.000072	0.000061	0.000089	-64.582088	-81.968139	59.724100
59784	9.818323	-1.259673	0.613818	-0.018786	-0.005750	0.105106	1.000000	0.000083	0.000077	0.000094	-64.573503	-81.967992	59.716572
59785	9.819224	-1.249254	0.594777	0.001065	0.002869	0.103539	1.000000	0.000073	0.000061	0.000089	-64.575986	-81.969114	59.719220
59786	9.818806	-1.251073	0.610148	-0.014358	0.002240	0.104279	1.000000	0.000073	0.000080	0.000091	-64.565159	-81.969159	59.708290
59787	9.809207	-1.231615	0.591109	0.005456	0.018426	0.091174	1.000000	0.000075	0.000059	0.000082	-64.566568	-81.971209	59.710001
59788	9.819434	-1.242187	0.592630	0.003819	0.009154	0.102726	1.000000	0.000083	0.000077	0.000094	-64.557867	-81.971064	59.702445
59789	9.808482	-1.235075	0.608097	-0.011622	0.016107	0.091914	1.000000	0.000048	0.000076	0.000087	-64.551305	-81.971627	59.692796
59790	9.813581	-1.241211	0.589033	0.007339	0.009009	0.096591	1.000000	0.000070	0.000077	0.000109	-64.549295	-81.969871	59.690413
59791	9.824873	-1.240137	0.584033	0.013471	0.011109	0.107336	1.000000	0.000078	0.000085	0.000098	-64.536524	-81.968845	59.678181
59792	9.812872	-1.245145	0.592526	0.003996	0.005609	0.096595	1.000000	0.000073	0.000071	0.000113	-64.540010	-81.967091	59.681930
59793	9.807189	-1.242852	0.600990	-0.004554	0.008243	0.091188	1.000000	0.000073	0.000071	0.000113	-64.543479	-81.965320	59.685415
59794	9.812145	-1.249394	0.595614	0.000666	0.002212	0.096597	1.000000	0.000065	0.000067	0.000112	-64.549948	-81.963703	59.691142
59795	9.811801	-1.251361	0.597145	-0.001009	0.000514	0.096598	1.000000	0.000085	0.000070	0.000097	-64.547204	-81.963575	59.689805
59796	9.816797	-1.257564	0.591811	0.004195	-0.005523	0.102007	1.000000	0.000068	0.000070	0.000094	-64.545343	-81.963808	59.687509
59797	9.804966	-1.262230	0.586063	0.008467	-0.012092	0.090536	1.000000	0.000070	0.000044	0.000096	-64.562884	-81.965120	59.704926
59798	9.816049	-1.261194	0.608350	-0.012899	-0.007831	0.102720	1.000000	0.000080	0.000083	0.000091	-64.548191	-81.964971	59.691027
59799	9.810673	-1.258262	0.589308	0.006050	-0.007367	0.095881	1.000000	0.000068	0.000070	0.000094	-64.546477	-81.965199	59.688653
59800	9.817711	-1.240822	0.597951	-0.000654	0.011516	0.101166	1.000000	0.000058	0.000068	0.000101	-64.549652	-81.964715	59.690217
59801	9.816357	-1.254541	0.592476	0.003613	-0.002647	0.101230	1.000000	0.000085	0.000070	0.000097	-64.547084	-81.964611	59.689126
59802	9.823392	-1.237146	0.601164	-0.003087	0.016236	0.106521	1.000000	0.000075	0.000069	0.000105	-64.549195	-81.963770	59.691636
59803	9.811682	-1.241818	0.581780	0.014950	0.008576	0.094350	1.000000	0.000070	0.000063	0.000097	-64.553151	-81.963992	59.695271
59804	9.811198	-1.243917	0.597059	-0.000471	0.007978	0.095055	1.000000	0.000083	0.000067	0.000116	-64.558968	-81.962054	59.702308
59805	9.822656	-1.242907	0.578018	0.019391	0.008936	0.105127	1.000000	0.000075	0.000069	0.000105	-64.560982	-81.961204	59.704641
59806	9.816861	-1.240424	0.600286	-0.002889	0.012696	0.100414	1.000000	0.000075	0.000073	0.000094	-64.555647	-81.961252	59.699554
59807	9.798660	-1.252521	0.594731	0.000476	-0.001971	0.083587	1.000000	0.000055	0.000075	0.000098	-64.553113	-81.960781	59.695001
59808	9.821503	-1.248664	0.596612	0.000623	0.004939	0.105831	1.000000	0.000073	0.000071	0.000112	-64.556373	-81.959021	59.698376
59809	9.820855	-1.250787	0.625785	-0.028539	0.005458	0.107213	1.000000	0.000068	0.000070	0.000094	-64.554145	-81.959240	59.695702
59810	9.820814	-1.252628	0.599650	-0.002718	0.001541	0.105832	1.000000	0.000055	0.000066	0.000120	-64.565820	-81.956935	59.705417
59811	9.802595	-1.264853	0.593986	0.000649	-0.013120	0.088998	1.000000	0.000078	0.000071	0.000086	-64.559293	-81.957920	59.699498
59812	9.808630	-1.259220	0.595667	-0.000097	-0.006711	0.094362	1.000000	0.000075	0.000069	0.000105	-64.561101	-81.957068	59.701693
59813	9.808613	-1.260836	0.569882	0.025729	-0.010640	0.092997	1.000000	0.000093	0.000097	0.000087	-64.534208	-81.956600	59.676825
59814	9.814488	-1.255223	0.585584	0.011231	-0.003119	0.099050	1.000000	0.000070	0.000063	0.000097	-64.538034	-81.956838	59.680486
59815	9.808847	-1.252542	0.594015	0.002697	-0.000441	0.093633	1.000000	0.000083	0.000077	0.000094	-64.529925	-81.956746	59.673288
59816	9.808523	-1.254285	0.595682	0.001020	-0.002138	0.093633	1.000000	0.000075	0.000073	0.000094	-64.524785	-81.956827	59.668498
59817	9.809260	-1.244089	0.604229	-0.006567	0.008644	0.093589	1.000000	0.000070	0.000068	0.000086	-64.521286	-81.957951	59.664634
59818	9.815489	-1.238251	0.592205	0.006447	0.013922	0.098294	1.000000	0.000080	0.000083	0.000090	-64.506504	-81.957813	59.650625
59819	9.815340	-1.239921	0.580105	0.018522	0.011098	0.097628	1.000000	0.000085	0.000070	0.000097	-64.503667	-81.957697	59.649161
59820	9.810751	-1.225418	0.595380	0.004103	0.026262	0.092173	1.000000	0.000073	0.000056	0.000100	-64.512990	-81.957911	59.658592
59821	9.814375	-1.243557	0.610538	-0.012307	0.009959	0.098967	1.000000	0.000073	0.000066	0.000078	-64.507837	-81.959953	59.653559
59822	9.819192	-1.249836	0.619157	-0.020891	0.005009	0.105050	1.000000	0.000085	0.000084	0.000109	-64.498735	-81.957868	59.645862
59823	9.807692	-1.254496	0.586110	0.010903	-0.003795	0.092259	1.000000	0.000070	0.000063	0.000097	-64.503058	-81.958137	59.649836
59824	9.800804	-1.263844	0.601234	-0.005452	-0.012450	0.087533	1.000000	0.000068	0.000065	0.000104	-64.508494	-81.957499	59.654845
59825	9.811124	-1.274584	0.589047	0.006543	-0.022931	0.098373	1.000000	0.000078	0.000071	0.000086	-64.501513	-81.958463	59.648475
59826	9.813102	-1.252521	0.590802	0.006804	-0.000798	0.097649	1.000000	0.000073	0.000075	0.000101	-64.497815	-81.957646	59.644794
59827	9.823234	-1.263352	0.592412	0.005038	-0.010147	0.109148	1.000000	0.000083	0.000058	0.000092	-64.502573	-81.958613	59.650768
59828	9.820113	-1.236689	0.586979	0.012225	0.015237	0.102361	1.000000	0.000080	0.000064	0.000089	-64.501652	-81.959608	59.650873
59829	9.796412	-1.244091	0.601947	-0.004962	0.006160	0.080731	1.000000	0.000061	0.000071	0.000082	-64.496062	-81.960965	59.643900
59830	9.809080	-1.230861	0.589869	0.008969	0.019492	0.090875	1.000000	0.000080	0.000064	0.000089	-64.495085	-81.961952	59.643889
59831	9.802419	-1.239741	0.591225	0.006370	0.009706	0.085483	1.000000	0.000093	0.000064	0.000074	-64.487683	-81.964571	59.638950
59832	9.625173	-1.110814	0.384265	0.210747	0.097143	-0.118789	1.000000	0.000256	0.000137	0.000093	-64.414812	-81.961478	59.586476
59833	9.518022	-2.066595	0.540954	-0.028491	-0.848740	-0.094919	1.000000	0.000425	-0.000059	-0.000037	-64.420357	-81.981598	59.632885
59834	10.815855	-0.532621	0.709377	0.016972	0.838268	1.007046	1.000000	0.000059	0.000144	0.000151	-64.385068	-81.972127	59.595655
59835	9.615481	-1.278702	0.673839	-0.088893	-0.046778	-0.089698	1.000000	0.000026	0.000256	0.000107	-64.256341	-81.961717	59.460286
59836	9.595354	-1.303300	0.704111	-0.120823	-0.070357	-0.104669	1.000000	0.000013	0.000049	0.000146	-64.294670	-81.957608	59.492054
59837	9.845054	-1.058481	0.765264	-0.144228	0.208161	0.115402	1.000000	-0.000123	0.000134	0.000129	-64.279752	-81.950997	59.454365
59838	9.578182	-1.149385	0.576694	0.017770	0.069389	-0.148832	1.000000	0.000093	0.000096	0.000042	-64.236845	-81.955221	59.413499
59839	9.840937	-1.248114	0.539686	0.064291	-0.000793	0.121544	1.000000	0.000069	-0.000069	0.000042	-64.318657	-81.967679	59.495706
59840	9.845687	-1.293961	0.670457	-0.071095	-0.034856	0.139957	1.000000	-0.000027	0.000018	0.000051	-64.350341	-81.974917	59.516209
59841	9.764723	-1.303586	0.710667	-0.119078	-0.050794	0.063418	1.000000	0.000022	-0.000012	0.000100	-64.415771	-81.978541	59.576559
59842	9.894596	-1.315002	0.663711	-0.066212	-0.049564	0.190608	1.000000	0.000001	-0.000056	0.000169	-64.540595	-81.977209	59.694292
59843	9.885481	-1.297430	0.628417	-0.032396	-0.034602	0.177244	1.000000	0.000054	-0.000018	0.000182	-64.634966	-81.972634	59.787584
59844	9.775891	-1.217518	0.530131	0.062621	0.024249	0.052753	1.000000	0.000094	-0.000003	0.000174	-64.711267	-81.968080	59.867145
59845	9.810730	-1.107346	0.454860	0.147331	0.131774	0.068833	1.000000	0.000067	-0.000015	0.000110	-64.776627	-81.970693	59.932529
59846	9.783190	-1.150230	0.489113	0.106573	0.088802	0.049048	1.000000	0.000045	0.000021	0.000045	-64.796581	-81.978337	59.949626
59847	9.823560	-1.315553	0.462838	0.121590	-0.072851	0.108358	1.000000	-0.000014	0.000065	0.000061	-64.796706	-81.982246	59.939929
59848	9.878280	-1.379061	0.534013	0.049309	-0.122887	0.174798	1.000000	0.000011	0.000069	0.000110	-64.807954	-81.980890	59.944031
59849	9.907759	-1.420552	0.543577	0.039257	-0.159013	0.209802	1.000000	0.000072	0.000144	0.000136	-64.765563	-81.973156	59.901329
59850	9.865489	-1.322988	0.601213	-0.011681	-0.061807	0.159056	1.000000	0.000159	0.000126	0.000151	-64.732371	-81.964709	59.877843
59851	9.835721	-1.222076	0.610613	-0.013604	0.035500	0.117382	1.000000	0.000159	0.000130	0.000095	-64.676641	-81.961860	59.831619
59852	9.733931	-1.161273	0.618535	-0.022623	0.083712	0.009382	1.000000	0.000124	0.000111	0.000087	-64.636576	-81.960791	59.797081
59853	9.717889	-1.149129	0.627356	-0.030890	0.094176	-0.007504	1.000000	0.000024	0.000096	0.000074	-64.613307	-81.961820	59.768068
59854	9.752821	-1.246045	0.650644	-0.058921	0.003907	0.040738	1.000000	0.000019	0.000100	0.000044	-64.577445	-81.965718	59.725656
59855	9.799518	-1.287964	0.646183	-0.054491	-0.033044	0.092003	1.000000	0.000061	0.000057	0.000070	-64.577583	-81.969042	59.724475
59856	9.827349	-1.288334	0.668326	-0.075189	-0.028387	0.120932	1.000000	0.000082	0.000020	0.000090	-64.609020	-81.972156	59.757484
59857	9.816669	-1.229235	0.648117	-0.051881	0.027345	0.101678	1.000000	0.000115	0.000028	0.000138	-64.647764	-81.969816	59.801470
59858	9.806205	-1.170619	0.614061	-0.014794	0.081880	0.081864	1.000000	0.000092	0.000018	0.000138	-64.696176	-81.967954	59.852554
59859	9.824545	-1.162889	0.580285	0.019708	0.089442	0.097021	1.000000	0.000055	0.000010	0.000116	-64.746809	-81.968793	59.901746
59860	9.804141	-1.198780	0.559672	0.034848	0.049859	0.080128	1.000000	0.000018	0.000025	0.000084	-64.779631	-81.972200	59.928608
59861	9.848147	-1.277321	0.492368	0.097976	-0.028319	0.129625	1.000000	0.000033	0.000060	0.000108	-64.793080	-81.971321	59.937622
59862	9.843253	-1.315030	0.541936	0.045097	-0.061560	0.132502	1.000000	0.000063	0.000055	0.000107	-64.806719	-81.970818	59.950293
59863	9.837566	-1.312664	0.550118	0.036636	-0.058809	0.127062	1.000000	0.000073	0.000066	0.000123	-64.816707	-81.968195	59.960505
59864	9.846067	-1.283860	0.552089	0.037956	-0.028640	0.131953	1.000000	0.000104	0.000099	0.000124	-64.799891	-81.963822	59.947057
59865	9.831939	-1.248530	0.588562	0.004287	0.008085	0.115664	1.000000	0.000076	0.000106	0.000107	-64.774535	-81.960925	59.921950
59866	9.780877	-1.244886	0.603707	-0.013327	0.006631	0.065548	1.000000	0.000084	0.000105	0.000073	-64.738201	-81.961648	59.886461
59867	9.758689	-1.239961	0.598512	-0.008747	0.007877	0.042645	1.000000	0.000089	0.000091	0.000079	-64.713120	-81.962358	59.863072
59868	9.791537	-1.244581	0.628800	-0.036456	0.009253	0.077568	1.000000	0.000084	0.000095	0.000049	-64.675628	-81.965953	59.826512
59869	9.804144	-1.231026	0.631024	-0.036239	0.023654	0.088473	1.000000	0.000071	0.000091	0.000076	-64.650829	-81.966963	59.801374
59870	9.802980	-1.244482	0.612151	-0.018323	0.008220	0.087893	1.000000	0.000056	0.000080	0.000087	-64.639935	-81.967414	59.788535
59871	9.791768	-1.236996	0.640961	-0.047259	0.016704	0.077570	1.000000	0.000078	0.000048	0.000095	-64.653365	-81.968555	59.802722
59872	9.812451	-1.205050	0.621576	-0.024450	0.049221	0.092850	1.000000	0.000080	0.000037	0.000109	-64.679779	-81.968775	59.830271
59873	9.818881	-1.199686	0.608600	-0.011417	0.054343	0.097761	1.000000	0.000072	0.000019	0.000097	-64.715253	-81.971095	59.866128
59874	9.806776	-1.216549	0.553781	0.040023	0.031657	0.084631	1.000000	0.000055	0.000029	0.000117	-64.753093	-81.970954	59.902449
59875	9.820499	-1.244066	0.568795	0.023216	0.007657	0.102595	1.000000	0.000053	0.000044	0.000092	-64.770661	-81.972601	59.917853
59876	9.829679	-1.267161	0.549552	0.040855	-0.015548	0.113459	1.000000	0.000056	0.000066	0.000119	-64.782026	-81.970381	59.927391
59877	9.834622	-1.274032	0.544210	0.045944	-0.021749	0.118905	1.000000	0.000056	0.000066	0.000119	-64.792345	-81.968102	59.936008
59878	9.857506	-1.270678	0.546504	0.045884	-0.015135	0.141275	1.000000	0.000086	0.000103	0.000110	-64.769655	-81.965065	59.914715
59879	9.812303	-1.259784	0.589188	0.001834	-0.005962	0.097683	1.000000	0.000081	0.000098	0.000102	-64.748244	-81.963067	59.894256
59880	9.796545	-1.247942	0.584020	0.007414	0.003351	0.080273	1.000000	0.000084	0.000096	0.000094	-64.725383	-81.961942	59.872486
59881	9.800098	-1.266092	0.586332	0.004555	-0.014137	0.086226	1.000000	0.000072	0.000106	0.000088	-64.694639	-81.961056	59.841457
59882	9.817153	-1.257439	0.623211	-0.029715	-0.000548	0.104225	1.000000	0.000084	0.000081	0.000082	-64.677895	-81.961873	59.825829
59883	9.782933	-1.255292	0.638002	-0.046508	-0.001548	0.070956	1.000000	0.000078	0.000071	0.000085	-64.671166	-81.962951	59.819852
59884	9.813799	-1.232215	0.633081	-0.037681	0.024381	0.098305	1.000000	0.000066	0.000058	0.000088	-64.676497	-81.964304	59.824443
59885	9.820275	-1.226631	0.620423	-0.024666	0.029471	0.103253	1.000000	0.000068	0.000032	0.000091	-64.700967	-81.966688	59.848595
59886	9.803469	-1.226596	0.607379	-0.013276	0.026264	0.085827	1.000000	0.000061	0.000067	0.000093	-64.702310	-81.967190	59.848619
59887	9.810227	-1.221211	0.581010	0.013484	0.030096	0.090261	1.000000	0.000065	0.000034	0.000098	-64.728164	-81.968684	59.873936
59888	9.827038	-1.225032	0.568509	0.026236	0.027402	0.106645	1.000000	0.000078	0.000043	0.000106	-64.748422	-81.968900	59.895004
59889	9.832905	-1.219647	0.583375	0.011753	0.034975	0.112660	1.000000	0.000063	0.000037	0.000106	-64.775991	-81.969508	59.921706
59890	9.835323	-1.249986	0.577675	0.014665	0.004938	0.118552	1.000000	0.000058	0.000050	0.000099	-64.791474	-81.970099	59.935659
59891	9.840289	-1.256696	0.572380	0.019739	-0.001281	0.124002	1.000000	0.000056	0.000085	0.000120	-64.788086	-81.966745	59.930296
59892	9.816907	-1.264575	0.559852	0.030206	-0.012514	0.101100	1.000000	0.000059	0.000079	0.000124	-64.791143	-81.963461	59.931850
59893	9.806202	-1.257575	0.561190	0.028809	-0.006436	0.089694	1.000000	0.000076	0.000069	0.000104	-64.792843	-81.962686	59.933845
59894	9.809102	-1.275790	0.590720	-0.001578	-0.021415	0.096632	1.000000	0.000096	0.000086	0.000101	-64.778188	-81.961405	59.921864
59895	9.806053	-1.249196	0.599403	-0.007803	0.005227	0.090764	1.000000	0.000084	0.000096	0.000094	-64.755477	-81.960320	59.900271
59896	9.810416	-1.255386	0.622116	-0.030224	0.001535	0.097225	1.000000	0.000076	0.000073	0.000093	-64.749124	-81.960425	59.894341
59897	9.810104	-1.256980	0.623812	-0.031915	-0.000156	0.097220	1.000000	0.000066	0.000081	0.000079	-64.734498	-81.961696	59.878740
59898	9.799471	-1.249414	0.625127	-0.033277	0.005939	0.085813	1.000000	0.000061	0.000067	0.000093	-64.735088	-81.962138	59.877939
59899	9.799501	-1.251009	0.612809	-0.021183	0.002974	0.085308	1.000000	0.000084	0.000067	0.000070	-64.724308	-81.964925	59.868401
59900	9.813977	-1.226215	0.593740	0.000751	0.027303	0.095367	1.000000	0.000088	0.000064	0.000099	-64.726186	-81.964838	59.872192
59901	9.814853	-1.215990	0.601848	-0.006690	0.038148	0.095425	1.000000	0.000063	0.000046	0.000084	-64.739020	-81.967265	59.884121
59902	9.813380	-1.229827	0.596143	-0.002558	0.023903	0.095375	1.000000	0.000071	0.000054	0.000118	-64.755480	-81.965651	59.900547
59903	9.836987	-1.226629	0.570321	0.024804	0.027866	0.116804	1.000000	0.000063	0.000060	0.000096	-64.762741	-81.966191	59.906897
59904	9.819854	-1.226714	0.571327	0.022528	0.025951	0.099911	1.000000	0.000066	0.000068	0.000111	-64.767986	-81.964631	59.911435
59905	9.822152	-1.257240	0.566189	0.025350	-0.004107	0.105742	1.000000	0.000066	0.000068	0.000111	-64.774263	-81.963143	59.916956
59906	9.827100	-1.264037	0.561106	0.030385	-0.010356	0.111197	1.000000	0.000076	0.000083	0.000116	-64.768996	-81.960407	59.912084
59907	9.817230	-1.245153	0.583259	0.009536	0.009575	0.100356	1.000000	0.000064	0.000084	0.000131	-64.769617	-81.956053	59.911839
59908	9.815325	-1.259249	0.592026	-0.000115	-0.003386	0.100778	1.000000	0.000079	0.000081	0.000108	-64.763075	-81.954200	59.905846
59909	9.819950	-1.265645	0.601096	-0.008816	-0.008350	0.106710	1.000000	0.000082	0.000102	0.000091	-64.734100	-81.953138	59.877800
59910	9.805520	-1.241576	0.602465	-0.008858	0.013572	0.089455	1.000000	0.000069	0.000075	0.000082	-64.723861	-81.954342	59.867105
59911	9.795673	-1.274106	0.618001	-0.027424	-0.018647	0.084755	1.000000	0.000074	0.000080	0.000089	-64.711535	-81.954451	59.854818
59912	9.803728	-1.256739	0.598914	-0.006437	-0.002371	0.089389	1.000000	0.000064	0.000065	0.000085	-64.711404	-81.955853	59.853532
59913	9.799660	-1.241748	0.600024	-0.006808	0.011749	0.083530	1.000000	0.000088	0.000054	0.000076	-64.712589	-81.958634	59.856498
59914	9.799043	-1.243206	0.614989	-0.022212	0.011350	0.083999	1.000000	0.000071	0.000045	0.000095	-64.728973	-81.959969	59.872871
59915	9.818949	-1.223330	0.589028	0.006434	0.031046	0.099641	1.000000	0.000066	0.000077	0.000089	-64.720599	-81.960304	59.863705
59916	9.813689	-1.220347	0.583523	0.011809	0.032606	0.093726	1.000000	0.000074	0.000066	0.000077	-64.715416	-81.962436	59.858593
59917	9.839813	-1.232709	0.613271	-0.017112	0.025856	0.122937	1.000000	0.000078	0.000052	0.000084	-64.721418	-81.964532	59.865392
59918	9.837483	-1.258460	0.587222	0.006447	-0.002269	0.122330	1.000000	0.000066	0.000072	0.000100	-64.720040	-81.963950	59.863279
59919	9.830298	-1.227648	0.560730	0.034872	0.025052	0.109734	1.000000	0.000074	0.000076	0.000100	-64.715394	-81.963202	59.858739
59920	9.826858	-1.253270	0.576365	0.017213	0.000836	0.110504	1.000000	0.000081	0.000075	0.000111	-64.713918	-81.961364	59.858451
59921	9.799399	-1.244288	0.577282	0.015328	0.006806	0.082233	1.000000	0.000086	0.000080	0.000119	-64.711301	-81.958483	59.857414
59922	9.808959	-1.255455	0.593070	-0.000460	-0.001412	0.094057	1.000000	0.000069	0.000066	0.000104	-64.715899	-81.957891	59.861531
59923	9.808606	-1.257412	0.594758	-0.002131	-0.003113	0.094056	1.000000	0.000077	0.000088	0.000105	-64.703398	-81.956099	59.849449
59924	9.807523	-1.259075	0.624100	-0.031305	-0.002182	0.094950	1.000000	0.000076	0.000069	0.000104	-64.705120	-81.955407	59.851678
59925	9.797279	-1.251835	0.611472	-0.018863	0.002643	0.083135	1.000000	0.000069	0.000070	0.000093	-64.702700	-81.955772	59.848866
59926	9.809978	-1.239142	0.613393	-0.018652	0.016924	0.094217	1.000000	0.000077	0.000088	0.000105	-64.690777	-81.953973	59.837124
59927	9.808804	-1.253125	0.594446	-0.000861	0.001340	0.093691	1.000000	0.000071	0.000063	0.000096	-64.694095	-81.954310	59.840315
59928	9.811280	-1.231121	0.595558	-0.000211	0.023452	0.093422	1.000000	0.000068	0.000051	0.000091	-64.703579	-81.955570	59.849394
59929	9.821635	-1.242186	0.583371	0.011466	0.012576	0.104347	1.000000	0.000066	0.000058	0.000088	-64.708431	-81.956974	59.853673
59930	9.834401	-1.229314	0.584862	0.011673	0.026835	0.115448	1.000000	0.000066	0.000058	0.000088	-64.713951	-81.958399	59.858486
59931	9.822632	-1.233769	0.579035	0.016143	0.020412	0.104010	1.000000	0.000071	0.000063	0.000096	-64.716310	-81.958661	59.860702
59932	9.810450	-1.238317	0.587046	0.006872	0.015318	0.093003	1.000000	0.000068	0.000061	0.000114	-64.727122	-81.957143	59.871291
59933	9.832215	-1.247047	0.582281	0.012415	0.009147	0.115373	1.000000	0.000076	0.000069	0.000104	-64.727845	-81.956367	59.872448
59934	9.812949	-1.218684	0.576184	0.019586	0.034394	0.092341	1.000000	0.000089	0.000082	0.000100	-64.716368	-81.955277	59.862722
59935	9.820050	-1.253632	0.578518	0.015211	0.001021	0.103936	1.000000	0.000064	0.000075	0.000108	-64.715637	-81.953796	59.861124
59936	9.809059	-1.246148	0.593675	0.000215	0.008516	0.093013	1.000000	0.000079	0.000086	0.000097	-64.701740	-81.952910	59.847874
59937	9.802181	-1.255214	0.595419	-0.002382	-0.001154	0.087455	1.000000	0.000072	0.000082	0.000097	-64.690477	-81.952122	59.836340
59938	9.796542	-1.252231	0.603709	-0.010710	0.001751	0.081991	1.000000	0.000074	0.000061	0.000088	-64.692007	-81.953341	59.838026
59939	9.814636	-1.244215	0.598478	-0.003818	0.011389	0.098578	1.000000	0.000076	0.000050	0.000102	-64.706105	-81.953616	59.852702
59940	9.813091	-1.258055	0.593088	0.000217	-0.002891	0.098479	1.000000	0.000057	0.000076	0.000097	-64.702123	-81.953268	59.846960
59941	9.807850	-1.255252	0.587530	0.005610	-0.001330	0.092601	1.000000	0.000081	0.000065	0.000088	-64.701045	-81.954379	59.846894
59942	9.815335	-1.237603	0.595779	-0.000822	0.017518	0.098271	1.000000	0.000069	0.000056	0.000080	-64.704866	-81.956675	59.850223
59943	9.815455	-1.239386	0.583238	0.011233	0.014469	0.097866	1.000000	0.000076	0.000055	0.000091	-64.712754	-81.957911	59.858522
59944	9.809857	-1.236267	0.591192	0.002913	0.017384	0.092404	1.000000	0.000069	0.000056	0.000080	-64.716393	-81.960197	59.861678
59945	9.832478	-1.245024	0.558755	0.035860	0.008444	0.113972	1.000000	0.000071	0.000064	0.000096	-64.719705	-81.960572	59.864937
59946	9.805956	-1.223428	0.579986	0.014710	0.028463	0.086248	1.000000	0.000082	0.000079	0.000100	-64.710868	-81.959661	59.857209
59947	9.809301	-1.241988	0.581738	0.011658	0.010917	0.092012	1.000000	0.000056	0.000048	0.000118	-64.734032	-81.958465	59.878726
59948	9.820016	-1.241117	0.604187	-0.009909	0.015273	0.103854	1.000000	0.000072	0.000082	0.000097	-64.723804	-81.957811	59.868376
59949	9.822137	-1.231548	0.571350	0.023977	0.022073	0.102779	1.000000	0.000072	0.000082	0.000097	-64.711893	-81.956991	59.856204
59950	9.813168	-1.252361	0.593904	-0.000407	0.002549	0.097882	1.000000	0.000077	0.000084	0.000115	-64.705438	-81.954261	59.850304
59951	9.812801	-1.254413	0.595636	-0.002058	0.000843	0.097882	1.000000	0.000084	0.000072	0.000103	-64.702105	-81.953317	59.848396
59952	9.812043	-1.256148	0.610988	-0.017470	0.000502	0.098271	1.000000	0.000069	0.000066	0.000103	-64.706186	-81.952799	59.852308
59953	9.805572	-1.265453	0.598539	-0.006338	-0.010523	0.092297	1.000000	0.000071	0.000064	0.000096	-64.708318	-81.953096	59.854401
59954	9.813450	-1.248454	0.592977	0.000979	0.006946	0.097611	1.000000	0.000079	0.000058	0.000118	-64.722454	-81.951476	59.869432
59955	9.818444	-1.255099	0.587683	0.005950	0.000614	0.103080	1.000000	0.000064	0.000065	0.000085	-64.721196	-81.952854	59.867100
59956	9.819795	-1.245096	0.582135	0.012350	0.010125	0.102819	1.000000	0.000076	0.000069	0.000103	-64.721418	-81.952075	59.867793
59957	9.824384	-1.251306	0.590863	0.003580	0.005156	0.108671	1.000000	0.000089	0.000073	0.000077	-64.708746	-81.953887	59.857055
59958	9.812640	-1.255529	0.585119	0.008055	-0.001240	0.097234	1.000000	0.000066	0.000058	0.000088	-64.713788	-81.955346	59.861556
59959	9.836126	-1.252227	0.573263	0.021555	0.003673	0.119361	1.000000	0.000066	0.000058	0.000088	-64.717932	-81.956694	59.865002
59960	9.825184	-1.244411	0.588074	0.006648	0.011251	0.108424	1.000000	0.000077	0.000074	0.000092	-64.711002	-81.956847	59.858561
59961	9.814659	-1.236814	0.589305	0.005506	0.017450	0.097115	1.000000	0.000074	0.000080	0.000089	-64.697396	-81.956964	59.845185
59962	9.812639	-1.250419	0.598045	-0.004257	0.004541	0.097361	1.000000	0.000064	0.000075	0.000108	-64.697973	-81.955595	59.844792
59963	9.815687	-1.228707	0.585560	0.010242	0.025252	0.096883	1.000000	0.000079	0.000071	0.000085	-64.689074	-81.956596	59.836641
59964	9.819824	-1.234712	0.608113	-0.012284	0.021678	0.103089	1.000000	0.000057	0.000076	0.000097	-64.685062	-81.956249	59.830759
59965	9.806325	-1.251073	0.609646	-0.015883	0.004089	0.091887	1.000000	0.000079	0.000081	0.000108	-64.678817	-81.954570	59.825380
59966	9.812559	-1.245756	0.611346	-0.016612	0.010327	0.097488	1.000000	0.000071	0.000064	0.000096	-64.681822	-81.954969	59.828426
59967	9.806110	-1.254998	0.598839	-0.005499	-0.000708	0.091523	1.000000	0.000064	0.000060	0.000096	-64.687777	-81.955490	59.833503
59968	9.807498	-1.245037	0.593211	0.000923	0.008789	0.091299	1.000000	0.000079	0.000067	0.000096	-64.686458	-81.955642	59.833071
59969	9.811611	-1.251185	0.615459	-0.021592	0.005220	0.097482	1.000000	0.000068	0.000047	0.000102	-64.703398	-81.956101	59.849838
59970	9.813017	-1.241184	0.609704	-0.015172	0.014719	0.097263	1.000000	0.000072	0.000068	0.000085	-64.698570	-81.957342	59.844924
59971	9.817587	-1.247468	0.618113	-0.023970	0.009753	0.103087	1.000000	0.000061	0.000044	0.000102	-64.719343	-81.958011	59.864678
59972	9.818172	-1.249837	0.591751	0.001851	0.005248	0.102388	1.000000	0.000089	0.000064	0.000099	-64.720372	-81.957932	59.867610
59973	9.817845	-1.251669	0.593303	0.000189	0.003552	0.102389	1.000000	0.000057	0.000076	0.000096	-64.715866	-81.957524	59.861113
59974	9.812223	-1.248543	0.601444	-0.008054	0.006517	0.096915	1.000000	0.000076	0.000059	0.000080	-64.714776	-81.959596	59.860548
59975	9.817695	-1.255288	0.582404	0.010601	-0.001260	0.102047	1.000000	0.000069	0.000066	0.000103	-64.719131	-81.959057	59.864482
59976	9.813790	-1.240555	0.583412	0.010428	0.012900	0.096377	1.000000	0.000074	0.000061	0.000088	-64.720108	-81.960286	59.865694
59977	9.820069	-1.235074	0.585094	0.009725	0.019122	0.102001	1.000000	0.000072	0.000083	0.000096	-64.708615	-81.959592	59.854175
59978	9.807372	-1.238940	0.607251	-0.013220	0.015587	0.091244	1.000000	0.000065	0.000084	0.000085	-64.693699	-81.959955	59.838130
59979	9.805280	-1.252614	0.616057	-0.022962	0.002701	0.091430	1.000000	0.000089	0.000074	0.000122	-64.695350	-81.957017	59.841712
59980	9.806666	-1.242818	0.610719	-0.016543	0.012193	0.091243	1.000000	0.000065	0.000084	0.000085	-64.680899	-81.957439	59.826204
59981	9.800699	-1.252153	0.584669	0.008322	-0.000265	0.084957	1.000000	0.000082	0.000065	0.000088	-64.678206	-81.958440	59.824457
59982	9.806520	-1.246424	0.599987	-0.006133	0.007379	0.090913	1.000000	0.000081	0.000060	0.000099	-64.683479	-81.958632	59.830862
59983	9.806225	-1.248053	0.601419	-0.007795	0.005681	0.090913	1.000000	0.000074	0.000066	0.000077	-64.677490	-81.960777	59.824997
59984	9.823178	-1.252099	0.589541	0.004646	0.002531	0.107499	1.000000	0.000059	0.000050	0.000099	-64.693218	-81.961481	59.839184
59985	9.801244	-1.247334	0.583057	0.009756	0.004120	0.084791	1.000000	0.000069	0.000066	0.000103	-64.696083	-81.960868	59.841752
59986	9.829135	-1.248678	0.592378	0.002307	0.007037	0.113135	1.000000	0.000072	0.000064	0.000095	-64.697699	-81.961176	59.843406
59987	9.823979	-1.245937	0.586640	0.007764	0.008599	0.107340	1.000000	0.000072	0.000064	0.000095	-64.701097	-81.961573	59.846648
59988	9.823654	-1.247800	0.588131	0.006104	0.006896	0.107343	1.000000	0.000077	0.000069	0.000103	-64.701200	-81.960820	59.847237
59989	9.823810	-1.249973	0.575761	0.018180	0.003756	0.107031	1.000000	0.000074	0.000057	0.000099	-64.708952	-81.961125	59.855290
59990	9.811532	-1.254329	0.583936	0.008972	-0.001161	0.095915	1.000000	0.000075	0.000090	0.000112	-64.697333	-81.958474	59.843757
59991	9.823908	-1.241662	0.599683	-0.004492	0.014400	0.107508	1.000000	0.000067	0.000073	0.000100	-64.694372	-81.957885	59.840186
59992	9.806840	-1.241144	0.600624	-0.006553	0.012760	0.090599	1.000000	0.000082	0.000069	0.000077	-64.686096	-81.959899	59.832704
59993	9.823284	-1.245049	0.602881	-0.007843	0.011004	0.107511	1.000000	0.000082	0.000075	0.000111	-64.684197	-81.958105	59.831932
59994	9.795531	-1.235214	0.617112	-0.022983	0.018769	0.079639	1.000000	0.000067	0.000073	0.000100	-64.680705	-81.957496	59.827896
59995	9.799228	-1.253866	0.605297	-0.012491	-0.000253	0.084952	1.000000	0.000072	0.000064	0.000095	-64.684054	-81.957933	59.831222
59996	9.815686	-1.257751	0.607312	-0.013801	-0.002014	0.101861	1.000000	0.000066	0.000058	0.000088	-64.688662	-81.959363	59.835176
59997	9.807011	-1.238571	0.601078	-0.006769	0.015431	0.090470	1.000000	0.000084	0.000068	0.000114	-64.693501	-81.957613	59.841405
59998	9.805370	-1.252537	0.595867	-0.002830	0.001113	0.090301	1.000000	0.000072	0.000064	0.000095	-64.696056	-81.957975	59.843883
59999	9.812167	-1.247552	0.583538	0.010172	0.005863	0.095662	1.000000	0.000071	0.000059	0.000106	-64.706116	-81.957474	59.853983
60000	9.811844	-1.249446	0.584924	0.008489	0.004159	0.095664	1.000000	0.000072	0.000064	0.000095	-64.709007	-81.957887	59.856878
60001	9.827775	-1.253132	0.600957	-0.006539	0.003830	0.112865	1.000000	0.000065	0.000079	0.000096	-64.700175	-81.957344	59.847192
60002	9.814284	-1.229556	0.587759	0.007701	0.024536	0.095732	1.000000	0.000072	0.000074	0.000118	-64.703201	-81.954849	59.850205
60003	9.865528	-1.226029	0.598145	0.001458	0.035202	0.146646	1.000000	0.000095	0.000078	0.000084	-64.688575	-81.955628	59.840195
60004	9.800352	-1.247495	0.591276	0.002396	0.004906	0.084419	1.000000	0.000043	0.000107	0.000098	-64.656631	-81.955897	59.799244
60005	9.824692	-1.232348	0.600806	-0.003576	0.023638	0.107174	1.000000	0.000040	0.000095	0.000094	-64.639388	-81.954913	59.779164
60006	9.806421	-1.271100	0.644290	-0.050896	-0.013245	0.096598	1.000000	0.000030	0.000084	0.000078	-64.626179	-81.956064	59.760918
60007	9.820392	-1.259105	0.618540	-0.023194	-0.002085	0.107368	1.000000	0.000037	0.000078	0.000100	-64.623769	-81.955208	59.754405
60008	9.770202	-1.321893	0.668182	-0.080906	-0.065793	0.068600	1.000000	0.000090	0.000083	0.000100	-64.611814	-81.954203	59.744357
60009	9.825274	-1.255150	0.649644	-0.053043	0.005353	0.113571	1.000000	0.000114	0.000063	0.000113	-64.616356	-81.952780	59.753772
60010	10.040194	-0.967443	0.916553	-0.278822	0.339678	0.306027	1.000000	0.000034	0.000203	0.000118	-64.529256	-81.943972	59.661381
60011	9.591365	-1.285749	0.834637	-0.252259	-0.036153	-0.102945	1.000000	-0.000123	0.000208	0.000121	-64.457207	-81.934572	59.565962
60012	10.047628	-1.059285	0.850449	-0.215281	0.244798	0.321113	1.000000	-0.000204	0.000178	0.000091	-64.406008	-81.929744	59.482232
60013	9.768287	-1.322318	0.835808	-0.239337	-0.050056	0.077042	1.000000	-0.000240	0.000296	0.000105	-64.278040	-81.917605	59.316833
60014	9.739653	-1.312431	0.866257	-0.268125	-0.040633	0.049370	1.000000	-0.000127	0.000182	0.000105	-64.220476	-81.911151	59.235659
60015	9.723567	-1.327672	0.924468	-0.326622	-0.052128	0.038998	1.000000	-0.000022	0.000172	0.000102	-64.157512	-81.905407	59.161156
60016	9.806688	-1.341208	0.931350	-0.326768	-0.054391	0.123491	1.000000	0.000040	0.000159	0.000138	-64.108828	-81.896575	59.108233
60017	9.782792	-1.203146	0.985911	-0.369448	0.084956	0.085741	1.000000	0.000063	0.000165	0.000149	-64.057460	-81.886304	59.055221
60018	9.809736	-1.205126	1.011008	-0.390762	0.089292	0.114282	1.000000	0.000035	0.000154	0.000130	-64.010751	-81.878519	59.003700
60019	9.853093	-1.249095	1.051611	-0.429724	0.055303	0.165381	1.000000	-0.000019	0.000179	0.000117	-63.947268	-81.870755	58.928991
60020	9.816754	-1.165470	1.093240	-0.464721	0.137760	0.121456	1.000000	-0.000021	0.000186	0.000114	-63.878083	-81.862984	58.848269
60021	9.812637	-1.218799	1.146261	-0.519926	0.089785	0.127577	1.000000	-0.000136	0.000204	0.000102	-63.804786	-81.855558	58.750162
60022	9.805822	-1.228556	1.136258	-0.508805	0.078780	0.121571	1.000000	-0.000184	0.000235	0.000097	-63.712892	-81.847059	58.627626
60023	9.730336	-1.281087	1.131092	-0.511215	0.017533	0.053332	1.000000	-0.000208	0.000211	0.000084	-63.636972	-81.841016	58.518526
60024	9.738193	-1.276625	1.092953	-0.470713	0.019294	0.058219	1.000000	-0.000189	0.000161	0.000056	-63.584575	-81.840470	58.435311
60025	9.835878	-1.330973	1.156596	-0.529839	-0.016905	0.165924	1.000000	-0.000101	0.000179	0.000074	-63.515092	-81.837060	58.345041
60026	9.651609	-1.375639	1.186682	-0.576045	-0.080559	-0.008819	1.000000	-0.000004	0.000113	0.000095	-63.489801	-81.834857	58.310670
60027	9.832860	-1.293163	1.201958	-0.570072	0.024033	0.161106	1.000000	0.000150	0.000080	0.000077	-63.463455	-81.836218	58.293064
60028	9.776060	-1.350028	1.271918	-0.648040	-0.033033	0.116596	1.000000	0.000205	0.000092	0.000091	-63.427218	-81.835432	58.271880
60029	9.884059	-1.225797	1.269866	-0.626128	0.102437	0.207654	1.000000	0.000284	0.000120	0.000140	-63.379471	-81.828207	58.248128
60030	9.770670	-1.283847	1.324826	-0.692113	0.036507	0.106439	1.000000	0.000268	0.000162	0.000128	-63.298834	-81.820089	58.190558
60031	9.791705	-1.212517	1.321086	-0.678391	0.109330	0.118113	1.000000	0.000236	0.000166	0.000147	-63.226285	-81.809804	58.136176
60032	9.817943	-1.307048	1.328301	-0.689031	0.020151	0.156746	1.000000	0.000280	0.000162	0.000157	-63.154732	-81.798616	58.087994
60033	9.711965	-1.290788	1.320262	-0.684972	0.022850	0.049452	1.000000	0.000331	0.000178	0.000142	-63.061142	-81.788128	58.023442
60034	9.773465	-1.284431	1.354737	-0.711343	0.039496	0.111935	1.000000	0.000363	0.000155	0.000122	-62.972524	-81.780842	57.967607
60035	9.640613	-1.443769	1.398371	-0.775042	-0.130746	0.003806	1.000000	0.000492	0.000170	0.000132	-62.862822	-81.771761	57.905325
60036	9.790057	-1.304732	1.406520	-0.757154	0.024772	0.134771	1.000000	0.000572	0.000171	0.000138	-62.745573	-81.761950	57.844712
60037	9.758069	-1.477727	1.442548	-0.805668	-0.148052	0.127812	1.000000	0.000670	0.000180	0.000126	-62.605855	-81.752837	57.772795
60038	9.796363	-1.327439	1.425112	-0.769255	0.002405	0.145727	1.000000	0.000754	0.000204	0.000159	-62.452341	-81.739057	57.696615
60039	9.776207	-1.470617	1.420151	-0.773022	-0.143357	0.144001	1.000000	0.000881	0.000126	0.000146	-62.334298	-81.730714	57.671040
60040	9.750561	-1.407464	1.415273	-0.761606	-0.085901	0.110516	1.000000	0.000942	0.000144	0.000168	-62.204765	-81.719163	57.640932
60041	9.852104	-1.289754	1.414128	-0.740553	0.041493	0.196161	0.999999	0.001043	0.000075	0.000182	-62.116807	-81.709881	57.664442
60042	9.682804	-1.386525	1.441395	-0.784950	-0.074110	0.043028	0.999999	0.001081	0.000077	0.000170	-62.018389	-81.701702	57.681829
60043	9.757754	-1.270283	1.403308	-0.730376	0.045798	0.099987	0.999999	0.001063	0.000060	0.000210	-61.948520	-81.690385	57.725956
60044	9.785985	-1.137890	1.430289	-0.744110	0.181826	0.113000	0.999999	0.001043	0.000014	0.000226	-61.918801	-81.679886	57.808430
60045	9.702375	-1.235194	1.453719	-0.779118	0.076395	0.044402	1.000000	0.000952	0.000017	0.000179	-61.879839	-81.673998	57.870925
60046	9.832439	-1.157927	1.459477	-0.768404	0.168390	0.163731	1.000000	0.000873	0.000050	0.000185	-61.829291	-81.665748	57.912598
60047	9.779548	-1.190471	1.502986	-0.816129	0.132353	0.118685	1.000000	0.000808	0.000066	0.000201	-61.780828	-81.654985	57.948904
60048	9.796367	-1.141330	1.525438	-0.832273	0.184411	0.130739	1.000000	0.000684	0.000087	0.000185	-61.725900	-81.644681	57.964266
60049	9.782312	-1.117181	1.526891	-0.831299	0.206785	0.114009	1.000000	0.000532	0.000118	0.000196	-61.671200	-81.631605	57.962242
60050	9.771004	-1.029240	1.539387	-0.836938	0.294167	0.092592	1.000000	0.000345	0.000163	0.000212	-61.612582	-81.614461	57.934614
60051	9.817224	-0.928720	1.575155	-0.860192	0.402929	0.128100	1.000000	0.000101	0.000205	0.000154	-61.531975	-81.600837	57.856475
60052	9.745327	-0.891388	1.622685	-0.907413	0.435469	0.055749	1.000000	-0.000213	0.000283	0.000140	-61.429236	-81.584410	57.719636
60053	9.775269	-0.843496	1.612495	-0.888563	0.487460	0.078741	1.000000	-0.000540	0.000263	0.000085	-61.357380	-81.574576	57.576070
60054	9.882666	-0.842176	1.628875	-0.893336	0.504941	0.186141	1.000000	-0.000924	0.000286	0.000035	-61.295697	-81.568412	57.398385
60055	9.720598	-0.760480	1.669383	-0.938008	0.570573	0.018374	0.999999	-0.001302	0.000348	-0.000032	-61.209808	-81.565481	57.152413
60056	9.678407	-0.846224	1.688598	-0.963365	0.483826	-0.010807	0.999999	-0.001682	0.000296	-0.000111	-61.173333	-81.573396	56.911345
60057	9.747424	-0.956393	1.699299	-0.974660	0.385947	0.072436	0.999998	-0.001904	0.000302	-0.000150	-61.142618	-81.584851	56.652524
60058	9.664876	-1.017479	1.691974	-0.977740	0.317322	-0.001918	0.999998	-0.002031	0.000286	-0.000106	-61.153148	-81.592775	56.419543
60059	9.857157	-1.111429	1.686107	-0.963148	0.250986	0.199861	0.999998	-0.002057	0.000307	-0.000059	-61.170221	-81.594786	56.190243
60060	9.728573	-1.198689	1.717870	-1.011482	0.155985	0.086082	0.999998	-0.001980	0.000347	-0.000063	-61.149156	-81.594990	55.931247
60061	9.795468	-1.242498	1.731819	-1.022210	0.126368	0.158938	0.999998	-0.001881	0.000369	-0.000009	-61.122158	-81.588510	55.677789
60062	9.770854	-1.182817	1.619084	-0.907095	0.176202	0.118889	0.999998	-0.001740	0.000155	0.000068	-61.253271	-81.586220	55.600439
60063	10.035132	-1.319956	1.642924	-0.922966	0.079949	0.399418	0.999999	-0.001603	0.000220	0.000020	-61.306577	-81.585083	55.460362
60064	9.506264	-1.390314	1.634133	-0.966282	-0.049856	-0.115459	0.999999	-0.001346	0.000141	0.000088	-61.409427	-81.581462	55.400045
60065	9.730286	-1.461584	1.631693	-0.955359	-0.088298	0.114880	0.999999	-0.001060	-0.000019	0.000171	-61.618503	-81.578257	55.480324
60066	9.908512	-1.644012	1.453505	-0.786656	-0.260763	0.302017	1.000000	-0.000651	-0.000068	0.000267	-61.848683	-81.567961	55.629283
60067	9.878079	-1.650983	1.469959	-0.809544	-0.263497	0.273847	1.000000	-0.000202	-0.000053	0.000344	-62.045071	-81.549014	55.796109
60068	9.874740	-1.621038	1.600740	-0.937327	-0.214413	0.275725	1.000000	0.000234	0.000030	0.000343	-62.133682	-81.525615	55.904479
60069	9.515437	-1.650402	1.615638	-0.985200	-0.281475	-0.074731	1.000000	0.000635	-0.000127	0.000385	-62.297277	-81.506313	56.135183
60070	9.831812	-1.790016	1.511214	-0.870288	-0.389845	0.249274	0.999999	0.000973	-0.000094	0.000258	-62.354002	-81.498002	56.297029
60071	9.617645	-1.642946	1.536088	-0.894959	-0.268711	0.020154	0.999999	0.001483	0.000100	0.000295	-62.233627	-81.475615	56.338819
60072	9.637292	-1.837475	1.472239	-0.842221	-0.465870	0.061259	0.999998	0.001884	0.000122	0.000374	-62.080319	-81.443949	56.393808
60073	9.464309	-1.771924	1.552991	-0.923013	-0.415262	-0.112160	0.999998	0.002134	0.000039	0.000397	-61.962703	-81.414521	56.513879
60074	9.746072	-1.664515	1.491379	-0.822432	-0.280393	0.148523	0.999997	0.002270	-0.000008	0.000507	-61.900009	-81.376551	56.705279
60075	9.710641	-1.483015	1.387314	-0.700876	-0.114575	0.082573	0.999997	0.002190	-0.000007	0.000460	-61.828547	-81.343182	56.878584
60076	9.797401	-1.314797	1.496696	-0.783864	0.072789	0.154163	0.999998	0.002136	0.000016	0.000419	-61.732693	-81.312766	57.020989
60077	9.741527	-1.342968	1.402158	-0.693448	0.029330	0.096158	0.999998	0.001952	-0.000111	0.000347	-61.716288	-81.296561	57.222389
60078	9.923630	-1.423390	1.397622	-0.678760	-0.029618	0.286630	0.999998	0.001850	-0.000162	0.000148	-61.673843	-81.303187	57.385692
60079	9.477269	-1.302854	1.604524	-0.912312	0.043722	-0.155756	0.999999	0.001694	-0.000138	0.000023	-61.589630	-81.321153	57.488564
60080	9.761011	-1.245276	1.411099	-0.693834	0.116280	0.103175	0.999999	0.001453	-0.000178	0.000038	-61.564528	-81.339738	57.621012
60081	9.689010	-1.213835	1.538033	-0.824651	0.143065	0.036949	0.999999	0.001107	-0.000059	0.000061	-61.508287	-81.349534	57.684209
60082	9.545963	-1.142730	1.438476	-0.732007	0.185436	-0.120927	1.000000	0.000717	0.000059	0.000122	-61.440284	-81.346764	57.690310
60083	9.948902	-0.989814	1.309080	-0.560992	0.377709	0.247964	1.000000	0.000321	0.000026	0.000078	-61.423990	-81.350246	57.702716
60084	9.560055	-0.900046	1.525670	-0.802818	0.431400	-0.132720	1.000000	-0.000044	0.000035	0.000057	-61.436005	-81.355309	57.701467
60085	9.702866	-0.903011	1.344764	-0.614762	0.433215	-0.004333	1.000000	-0.000363	-0.000201	-0.000042	-61.605098	-81.383275	57.822173
60086	10.361908	-0.874408	1.299550	-0.520727	0.540787	0.640013	1.000000	-0.000663	-0.000109	-0.000061	-61.741051	-81.408096	57.874596
60087	10.095558	-0.943884	1.369952	-0.619198	0.442783	0.390671	1.000000	-0.000962	0.000098	-0.000050	-61.777284	-81.420648	57.791498
60088	9.543587	-0.780147	1.551427	-0.835293	0.549351	-0.164055	0.999999	-0.001339	-0.000003	-0.000042	-61.927539	-81.437837	57.779956
60089	9.991499	-0.889954	1.349569	-0.610644	0.484366	0.278691	0.999999	-0.001600	-0.000083	0.000024	-62.185204	-81.452591	57.846813
60090	9.865291	-1.004117	1.268666	-0.551843	0.353318	0.162901	0.999999	-0.001715	0.000128	0.000114	-62.345530	-81.446959	57.801935
60091	9.704754	-1.046858	1.268555	-0.568058	0.296194	0.009582	0.999998	-0.001717	0.000267	0.000159	-62.428564	-81.429442	57.678644
60092	9.458643	-0.994414	1.316258	-0.630277	0.326780	-0.237549	0.999999	-0.001594	0.000237	0.000159	-62.517449	-81.413507	57.575495
60093	9.686670	-1.098969	1.255580	-0.561816	0.251953	-0.002658	0.999999	-0.001564	0.000014	0.000119	-62.738826	-81.413454	57.609828
60094	10.083832	-1.132938	1.131189	-0.412668	0.260676	0.385771	0.999999	-0.001421	0.000074	0.000056	-62.881846	-81.416653	57.581470
60095	9.730627	-1.288595	1.280544	-0.605000	0.079425	0.067243	0.999999	-0.001344	0.000145	0.000020	-62.955326	-81.419731	57.491792
60096	9.563182	-1.212971	1.316184	-0.649213	0.138696	-0.106124	0.999999	-0.001237	0.000069	0.000012	-63.065350	-81.427696	57.451480
60097	9.967356	-1.350040	1.278714	-0.594674	0.053519	0.309042	0.999999	-0.001087	0.000081	0.000144	-63.195074	-81.421451	57.448461
60098	10.225512	-1.531504	1.081871	-0.397796	-0.110010	0.575128	1.000000	-0.000908	0.000095	0.000129	-63.289560	-81.416106	57.430559
60099	9.770710	-1.402330	1.280557	-0.620765	-0.015337	0.121473	1.000000	-0.000732	0.000063	0.000178	-63.402154	-81.407365	57.451333
60100	9.458765	-1.458587	1.283703	-0.656120	-0.106866	-0.179324	1.000000	-0.000534	0.000054	0.000113	-63.476269	-81.405724	57.456152
60101	9.473382	-1.236653	1.052326	-0.404324	0.090741	-0.210086	1.000000	-0.000264	0.000069	0.000179	-63.531758	-81.396546	57.473447
60102	9.882811	-1.465735	1.152595	-0.491224	-0.070825	0.232236	1.000000	-0.000106	0.000337	0.000147	-63.376766	-81.376883	57.296094
60103	9.555852	-1.491279	1.098218	-0.461576	-0.141433	-0.090998	1.000000	0.000130	0.000253	0.000268	-63.292897	-81.349108	57.218097
60104	9.942877	-1.505313	1.090038	-0.420838	-0.104388	0.293100	1.000000	0.000313	0.000030	0.000267	-63.337890	-81.332879	57.291669
60105	10.098242	-1.485666	1.126261	-0.443352	-0.058731	0.446462	1.000000	0.000369	-0.000152	0.000232	-63.486938	-81.329599	57.476952
60106	9.831704	-1.462046	1.151066	-0.488958	-0.065193	0.181391	1.000000	0.000514	-0.000036	0.000174	-63.521899	-81.326304	57.563609
60107	9.831040	-1.391946	1.065963	-0.399583	-0.005158	0.165462	1.000000	0.000604	-0.000189	0.000132	-63.635545	-81.335028	57.740279
60108	9.542037	-1.453686	1.140161	-0.504097	-0.096547	-0.107009	1.000000	0.000695	-0.000023	0.000014	-63.587194	-81.347446	57.763608
60109	9.615105	-1.608266	1.220675	-0.590958	-0.234657	-0.008478	1.000000	0.000785	0.000156	0.000007	-63.405145	-81.351421	57.662162
60110	9.755131	-1.544064	0.969775	-0.320935	-0.183469	0.104496	1.000000	0.000804	0.000135	0.000002	-63.233365	-81.356958	57.573333
60111	9.928256	-1.618243	1.027791	-0.368651	-0.232038	0.289569	1.000000	0.000881	0.000040	0.000041	-63.130083	-81.363358	57.562747
60112	9.591223	-1.537192	1.132694	-0.491693	-0.186857	-0.047400	1.000000	0.000892	-0.000087	0.000072	-63.121412	-81.373148	57.649078
60113	9.857285	-1.408792	0.958127	-0.286588	-0.046450	0.186536	1.000000	0.000870	-0.000138	0.000018	-63.131401	-81.391141	57.751745
60114	9.438241	-1.504557	1.011339	-0.384342	-0.191539	-0.211517	1.000000	0.000850	-0.000273	0.000037	-63.242329	-81.414073	57.954190
60115	9.816915	-1.381312	1.034197	-0.369850	-0.022976	0.147839	1.000000	0.000886	-0.000192	-0.000038	-63.269101	-81.440447	58.075667
60116	9.814666	-1.442935	1.005824	-0.351560	-0.091425	0.151722	1.000000	0.000804	-0.000331	-0.000110	-63.375903	-81.481331	58.268592
60117	9.697281	-1.420950	1.111870	-0.470254	-0.079997	0.039474	1.000000	0.000774	-0.000335	-0.000132	-63.482780	-81.524678	58.458123
60118	9.786195	-1.419799	1.065813	-0.422011	-0.077755	0.123975	1.000000	0.000779	-0.000166	-0.000144	-63.469444	-81.560574	58.526632
60119	9.660794	-1.224926	1.093309	-0.444477	0.095613	-0.023918	1.000000	0.000721	0.000009	-0.000126	-63.348234	-81.585630	58.479326
60120	9.619549	-1.275684	1.073398	-0.432620	0.032978	-0.059379	1.000000	0.000566	-0.000075	-0.000128	-63.301912	-81.615179	58.489756
60121	10.171042	-1.357696	0.915391	-0.240050	0.001708	0.486523	1.000000	0.000431	0.000096	-0.000086	-63.166029	-81.631657	58.394086
60122	10.180759	-1.269590	0.888018	-0.203357	0.083753	0.482939	1.000000	0.000280	0.000149	-0.000031	-63.030017	-81.639702	58.280784
60123	9.874506	-1.270892	1.024676	-0.362847	0.052776	0.189140	1.000000	0.000176	-0.000066	-0.000108	-63.027853	-81.666811	58.290760
60124	9.481513	-1.186064	1.030857	-0.396640	0.085530	-0.210403	1.000000	0.000097	-0.000258	-0.000037	-63.194375	-81.696547	58.462063
60125	9.414629	-1.172879	0.946639	-0.322178	0.080493	-0.283956	1.000000	0.000075	-0.000166	-0.000074	-63.286716	-81.725272	58.555809
60126	9.052625	-1.093807	1.176606	-0.576006	0.131462	-0.637625	1.000000	0.000033	-0.000144	-0.000047	-63.378565	-81.750052	58.644202
60127	10.046489	-1.130172	0.640498	0.023399	0.170982	0.315969	1.000000	0.000162	-0.000276	0.000184	-63.631230	-81.757891	58.909987
60128	10.718501	-1.393916	0.942645	-0.250977	0.019134	1.034178	1.000000	0.000080	0.000036	0.000026	-63.616877	-81.765970	58.896448
60129	9.901263	-1.091164	0.964461	-0.307404	0.219633	0.187967	1.000000	0.000153	0.000299	0.000158	-63.454057	-81.747149	58.741344
60130	9.555008	-1.115060	1.232664	-0.600233	0.178468	-0.134420	1.000000	0.000101	-0.000078	0.000255	-63.598554	-81.737585	58.890805
60131	9.734897	-1.157942	1.084714	-0.444341	0.148554	0.039528	1.000000	0.000051	0.000024	0.000245	-63.672825	-81.723880	58.963550
60132	9.904529	-1.190860	0.849323	-0.197950	0.119781	0.196591	1.000000	0.000015	0.000293	0.000270	-63.570163	-81.693892	58.853333
60133	9.857800	-1.206075	0.826842	-0.173886	0.100078	0.150959	1.000000	0.000036	0.000439	0.000271	-63.364541	-81.656270	58.641438
60134	9.768787	-1.151630	0.833837	-0.176678	0.145386	0.056374	1.000000	0.000019	0.000336	0.000160	-63.195304	-81.635231	58.464346
60135	9.759313	-1.270263	0.864566	-0.212906	0.031260	0.064505	1.000000	-0.000019	0.000202	0.000222	-63.145519	-81.614676	58.403554
60136	9.763212	-1.211214	0.863870	-0.206354	0.092999	0.060629	1.000000	-0.000118	0.000011	0.000253	-63.250398	-81.600809	58.487628
60137	9.982657	-1.337181	0.876022	-0.211340	0.000699	0.294945	1.000000	-0.000097	0.000119	0.000290	-63.291217	-81.577611	58.509347
60138	9.629113	-1.340094	0.939552	-0.301726	-0.036286	-0.050205	1.000000	-0.000194	0.000010	0.000321	-63.428313	-81.556876	58.617164
60139	9.747303	-1.107650	0.936740	-0.271383	0.212860	0.035933	1.000000	-0.000052	0.000121	0.000334	-63.476866	-81.529033	58.651924
60140	10.264887	-1.472371	0.868790	-0.189973	-0.084634	0.591510	1.000000	-0.000040	0.000271	0.000232	-63.386137	-81.503990	58.547288
60141	9.612575	-1.261594	0.951824	-0.301200	0.051368	-0.075859	1.000000	0.000004	0.000333	0.000249	-63.254319	-81.474022	58.406159
60142	9.762667	-1.359040	0.950215	-0.290633	-0.024860	0.085518	1.000000	0.000023	0.000291	0.000099	-63.098011	-81.461486	58.242526
60143	9.909136	-1.257270	0.891128	-0.207709	0.087709	0.213029	1.000000	-0.000039	0.000317	-0.000007	-62.895095	-81.458336	58.024509
60144	9.947118	-1.498769	0.673798	-0.004178	-0.166617	0.267873	1.000000	-0.000072	0.000214	0.000097	-62.801750	-81.449873	57.913537
60145	9.822296	-1.380547	0.942028	-0.268471	-0.043100	0.147076	1.000000	0.000017	0.000202	-0.000052	-62.654883	-81.457249	57.758782
60146	9.514187	-1.374504	0.771383	-0.123626	-0.093931	-0.170077	1.000000	0.000013	-0.000137	-0.000053	-62.737746	-81.482525	57.835799
60147	9.158176	-1.424360	1.004238	-0.392387	-0.168326	-0.499944	1.000000	0.000067	-0.000300	0.000059	-62.965089	-81.504845	58.065215
60148	9.530186	-1.308522	0.781589	-0.138390	-0.027595	-0.162420	1.000000	0.000251	-0.000215	0.000057	-63.113934	-81.522908	58.236524
60149	9.702932	-1.355105	0.824736	-0.176877	-0.050159	0.017347	1.000000	0.000166	-0.000246	-0.000092	-63.242738	-81.557654	58.377663
60150	10.233003	-1.353748	0.692870	-0.010295	0.003386	0.532695	1.000000	0.000292	-0.000212	0.000027	-63.375857	-81.578493	58.537793
60151	10.286360	-1.362862	0.728170	-0.046627	0.000259	0.588979	1.000000	0.000268	-0.000150	-0.000215	-63.385656	-81.620917	58.570508
60152	9.925172	-1.593287	0.944649	-0.311103	-0.259831	0.275705	1.000000	0.000391	-0.000122	-0.000204	-63.365425	-81.660769	58.587042
60153	9.662006	-1.234016	0.961152	-0.320871	0.058766	-0.030328	1.000000	0.000445	0.000019	-0.000085	-63.282150	-81.681184	58.546179
60154	10.116222	-1.499360	0.795826	-0.141268	-0.165916	0.442647	1.000000	0.000461	0.000165	-0.000058	-63.103858	-81.691263	58.411109
60155	9.487441	-1.346308	0.810941	-0.189564	-0.093029	-0.198265	1.000000	0.000468	0.000111	0.000113	-63.023813	-81.686568	58.376195
60156	9.601180	-1.296498	0.687441	-0.051467	-0.039238	-0.100224	1.000000	0.000598	0.000159	0.000280	-62.954485	-81.662328	58.367093
60157	9.828809	-1.236592	0.516164	0.145114	0.035681	0.105918	1.000000	0.000649	0.000242	0.000216	-62.799179	-81.640357	58.277015
60158	9.343684	-1.355572	0.796980	-0.175123	-0.115848	-0.339932	1.000000	0.000711	0.000181	0.000401	-62.745939	-81.602657	58.297327
60159	9.680106	-1.213847	0.659357	-0.000466	0.059120	-0.034695	1.000000	0.000628	-0.000092	0.000338	-62.867921	-81.585725	58.485151
60160	9.950947	-1.281558	0.725639	-0.053332	0.034698	0.246449	1.000000	0.000565	-0.000249	0.000252	-63.074842	-81.585646	58.751493
60161	9.869876	-1.356287	0.559437	0.093450	-0.059820	0.165019	1.000000	0.000570	-0.000513	0.000229	-63.455815	-81.601319	59.194369
60162	10.230690	-1.509400	0.692824	-0.031270	-0.155037	0.550724	1.000000	0.000586	-0.000366	0.000018	-63.662004	-81.630799	59.462440
60163	9.223357	-1.334367	0.772959	-0.179248	-0.104101	-0.463605	1.000000	0.000490	-0.000214	0.000002	-63.768352	-81.654134	59.618384
60164	10.277128	-1.541250	0.690353	-0.037466	-0.184041	0.600579	1.000000	0.000572	-0.000205	0.000123	-63.901530	-81.664536	59.811010
60165	10.242266	-1.522155	0.659795	-0.009330	-0.172278	0.561633	1.000000	0.000574	0.000070	0.000086	-63.828802	-81.664790	59.795717
60166	10.010957	-1.390812	0.676560	-0.032168	-0.070502	0.316742	1.000000	0.000556	0.000109	0.000147	-63.751964	-81.656877	59.774135
60167	9.460653	-1.301251	0.734047	-0.120541	-0.046172	-0.235664	1.000000	0.000458	0.000215	0.000188	-63.626473	-81.639343	59.692073
60168	9.499094	-1.330026	0.688652	-0.069327	-0.072067	-0.196764	1.000000	0.000491	0.000302	0.000208	-63.444108	-81.615256	59.556331
60169	9.567797	-1.321236	0.545760	0.083804	-0.063577	-0.139260	1.000000	0.000482	0.000231	0.000221	-63.317246	-81.593429	59.475612
60170	9.392146	-1.217670	0.603458	0.024153	0.021066	-0.322785	1.000000	0.000551	0.000219	0.000075	-63.140355	-81.587076	59.352353
60171	9.504481	-1.260050	0.616373	0.019138	-0.008364	-0.205275	1.000000	0.000620	-0.000011	-0.000068	-63.064429	-81.607305	59.339134
60172	9.884127	-1.718692	0.564019	0.068277	-0.422003	0.226497	1.000000	0.000640	-0.000401	-0.000082	-63.252876	-81.649161	59.595431
60173	10.020150	-1.325300	0.704120	-0.046513	-0.010003	0.319111	1.000000	0.000565	-0.000476	-0.000098	-63.499515	-81.696336	59.901835
60174	9.979052	-1.445976	0.675061	-0.036877	-0.140995	0.292103	1.000000	0.000532	-0.000445	-0.000137	-63.716884	-81.745789	60.174817
60175	9.973368	-1.574203	0.697401	-0.075945	-0.271056	0.304293	1.000000	0.000600	-0.000478	-0.000036	-63.988461	-81.786325	60.510421
60176	9.755674	-1.518280	0.750836	-0.149841	-0.243414	0.084807	1.000000	0.000611	-0.000408	-0.000149	-64.172333	-81.834856	60.758609
60177	10.047715	-1.241460	0.665546	-0.035532	0.056652	0.333064	1.000000	0.000654	-0.000229	-0.000098	-64.241803	-81.869082	60.896204
60178	9.922475	-1.292706	0.697575	-0.080277	-0.011714	0.217598	1.000000	0.000626	0.000076	-0.000047	-64.112304	-81.882792	60.829563
60179	9.576345	-1.336775	0.540231	0.052415	-0.110924	-0.129189	1.000000	0.000608	0.000124	-0.000009	-63.963811	-81.890182	60.741686
60180	9.766742	-1.289935	0.634666	-0.022982	-0.037424	0.059194	1.000000	0.000608	0.000174	0.000077	-63.809677	-81.886191	60.648078
60181	12.460055	-0.594888	-0.725431	1.563331	0.895407	2.552074	1.000000	0.000158	0.000679	-0.000366	-63.183851	-81.901730	60.015108
60182	16.269586	-3.722725	-1.311076	2.328852	-1.783525	6.669758	0.999992	0.001065	0.003869	0.000050	-60.379256	-81.699786	57.286958
60183	4.367711	-0.183588	3.462358	-3.093099	0.546679	-5.204852	0.999985	0.002332	0.004833	0.000655	-57.198230	-81.361211	54.322329
60184	-0.324813	0.305104	3.195492	-3.194542	0.439218	-9.920983	0.999996	-0.000269	-0.002684	0.000319	-59.096380	-81.505245	56.192159
60185	6.275475	-0.320854	-0.125192	0.566175	0.442173	-3.569057	0.999952	-0.002309	-0.009428	-0.001015	-65.654602	-82.122850	62.533605
60186	24.485984	-3.707512	-2.563647	3.902501	-0.833631	14.762845	1.000000	0.000177	-0.000629	0.000386	-66.257600	-82.124486	63.154528
60187	5.466554	-2.167312	0.169415	0.095958	-1.469262	-4.117004	0.999982	0.001421	0.005879	0.000397	-61.956704	-81.801834	58.967209
60188	7.719132	0.210242	-0.315334	0.925230	1.140018	-2.225030	0.999988	0.002073	0.004377	0.000999	-59.140745	-81.468181	56.352808
60189	9.605943	-0.936954	1.846333	-1.081131	0.356281	-0.052299	0.999999	0.000999	0.000725	0.000198	-58.638258	-81.418606	55.952119
60190	13.161481	-1.723557	0.761202	0.226625	-0.041078	3.480957	0.999994	-0.000010	-0.003319	-0.000117	-60.806777	-81.634796	58.135147
60191	10.416533	-1.204691	0.507594	0.200206	0.124910	0.682871	0.999991	0.000101	-0.004270	0.000376	-63.929509	-81.836369	61.294052
60192	5.004771	-1.036125	0.807139	-0.538656	-0.361940	-4.679340	0.999980	-0.000683	-0.006298	-0.000058	-68.706042	-82.145366	66.030221
60193	5.945629	-1.303501	-0.109533	0.345727	-0.545551	-3.759261	0.999980	-0.000839	-0.006216	0.001194	-74.078247	-82.255643	71.347155
60194	14.006232	-1.479764	0.682671	-0.148453	0.345316	4.283019	0.999999	0.000921	-0.000395	-0.000770	-74.147452	-82.365292	71.515219
60195	13.904805	-2.562384	0.389157	0.119896	-0.757326	4.310788	0.999997	0.001176	0.002119	0.000903	-72.544568	-82.208994	70.025463
60196	6.555418	-1.104214	-0.052133	0.337158	-0.265398	-3.178597	0.999988	0.003466	0.003507	-0.000469	-69.281759	-82.140934	67.124637
60197	8.488477	0.221231	1.444142	-0.964747	1.353084	-1.361235	0.999997	0.000552	0.002044	0.000803	-67.917634	-81.982371	65.802878
60198	16.310140	-3.504145	0.212633	0.619866	-1.384342	6.801890	1.000000	0.000296	0.000874	0.000334	-67.351830	-81.921548	65.257445
60199	7.400387	0.354912	2.704190	-2.237777	1.401646	-2.380864	0.999997	0.001450	0.001834	0.000135	-65.895375	-81.836663	63.945864
60200	9.846375	-1.976497	0.277918	0.263005	-0.688439	0.206877	0.999999	-0.000395	-0.001446	0.000332	-67.127089	-81.880475	65.136160
60201	11.822856	-2.606116	-0.224013	0.854590	-1.085951	2.216954	0.999999	-0.000317	0.000878	-0.000769	-66.287627	-81.934323	64.243350
60202	8.740573	-0.029814	0.285188	0.255635	1.086991	-1.138996	1.000000	0.000318	0.000908	0.000137	-65.645586	-81.890321	63.623349
