// Start Time: Unknown
// Update Rate: 40.0Hz
// Filter Profile: human (46.1)
// Firmware Version: 4.4.0
PacketCounter	Acc_X	Acc_Y	Acc_Z	FreeAcc_X	FreeAcc_Y	FreeAcc_Z	OriInc_q0	OriInc_q1	OriInc_q2	OriInc_q3	Roll	Pitch	Yaw
57425	2.041578	0.118935	12.944507	0.000000	-0.000000	3.292367	1.000000	-0.000007	0.000117	-0.000178	0.525255	-8.969153	174.914748
57426	2.035116	0.137901	12.924559	0.001885	-0.019236	3.271829	1.000000	0.000002	0.000095	-0.000196	0.528973	-8.958048	174.892156
57427	2.053769	0.136123	12.946947	-0.015645	-0.015026	3.296831	1.000000	-0.000001	0.000129	-0.000157	0.531345	-8.943508	174.874174
57428	2.047987	0.127533	12.948934	-0.012030	-0.005980	3.297813	1.000000	0.000000	0.000114	-0.000191	0.534886	-8.930284	174.852182
57429	2.025230	0.121829	12.937649	0.006203	-0.001031	3.283080	1.000000	0.000013	0.000114	-0.000182	0.539846	-8.917146	174.831120
57430	2.050478	0.126280	12.945668	-0.020529	-0.002192	3.294955	1.000000	-0.000010	0.000099	-0.000176	0.542026	-8.905654	174.810768
57431	2.044789	0.114425	12.925977	-0.019368	0.010214	3.274507	1.000000	0.000011	0.000097	-0.000181	0.546744	-8.894773	174.789842
57432	2.043367	0.137068	12.936292	-0.020835	-0.011372	3.284687	1.000000	0.000002	0.000107	-0.000179	0.550214	-8.883101	174.769152
57433	2.051478	0.144234	12.931074	-0.032711	-0.016633	3.280849	1.000000	0.000003	0.000104	-0.000196	0.554343	-8.872187	174.746460
57434	2.039121	0.126226	12.925770	-0.022102	0.001384	3.273527	1.000000	-0.000002	0.000108	-0.000173	0.558049	-8.861227	174.726412
57435	2.054418	0.146114	12.949409	-0.037639	-0.015899	3.299425	1.000000	0.000007	0.000126	-0.000170	0.563034	-8.849600	174.706598
57436	2.052731	0.134637	12.938495	-0.038650	-0.003216	3.288266	1.000000	0.000010	0.000104	-0.000192	0.568465	-8.841610	174.684133
57437	2.043689	0.144349	12.920022	-0.035686	-0.012475	3.268713	1.000000	-0.000011	0.000107	-0.000187	0.571350	-8.831297	174.662494
57438	2.042639	0.135913	12.930668	-0.033884	-0.002695	3.278984	1.000000	0.000004	0.000113	-0.000197	0.578397	-8.823163	174.639468
57439	2.046682	0.146184	12.938351	-0.039870	-0.011000	3.287294	1.000000	-0.000002	0.000109	-0.000173	0.583880	-8.812838	174.619722
57440	2.049754	0.134696	12.936103	-0.043223	0.001462	3.285424	1.000000	0.000005	0.000097	-0.000185	0.586877	-8.808757	174.597882
57441	2.042679	0.135408	12.927801	-0.037960	0.001317	3.276143	1.000000	0.000006	0.000106	-0.000186	0.591844	-8.806223	174.575766
57442	2.041826	0.127122	12.938417	-0.035346	0.010277	3.286415	1.000000	0.000003	0.000100	-0.000168	0.594783	-8.803674	174.555674
57443	2.046188	0.103082	12.924811	-0.041183	0.035569	3.273385	1.000000	-0.000010	0.000116	-0.000188	0.597321	-8.794924	174.534008
57444	2.034098	0.137689	12.929130	-0.031071	0.000219	3.276161	1.000000	0.000014	0.000115	-0.000182	0.599892	-8.798853	174.512211
57445	2.045459	0.123574	12.922754	-0.041371	0.015806	3.271455	1.000000	0.000011	0.000097	-0.000181	0.601630	-8.802121	174.490248
57446	2.034764	0.130795	12.948905	-0.024742	0.007588	3.295739	1.000000	0.000007	0.000115	-0.000186	0.602802	-8.814021	174.468104
57447	2.041632	0.116363	12.933834	-0.033240	0.022639	3.281749	1.000000	0.000006	0.000106	-0.000186	0.601949	-8.810894	174.444400
57448	2.041372	0.126665	12.932787	-0.033147	0.012169	3.280783	1.000000	0.000012	0.000106	-0.000182	0.601563	-8.815713	174.422489
57449	2.045588	0.137160	12.940447	-0.038413	0.002752	3.289104	1.000000	0.000007	0.000099	-0.000175	0.603461	-8.810519	174.403042
57450	2.039938	0.125300	12.920765	-0.032208	0.014904	3.268672	1.000000	-0.000005	0.000107	-0.000183	0.607556	-8.821388	174.385681
57451	2.056870	0.132793	12.933028	-0.047124	0.007097	3.283468	1.000000	0.000001	0.000099	-0.000179	0.598993	-8.825523	174.360539
57452	2.037309	0.139259	12.941731	-0.026838	-0.003160	3.289133	1.000000	-0.000007	0.000118	-0.000178	0.589843	-8.827129	174.336385
57453	2.056815	0.122034	12.931299	-0.046135	0.017046	3.281642	1.000000	0.000014	0.000115	-0.000182	0.595988	-8.826153	174.318954
57454	2.031198	0.141027	12.942672	-0.019002	-0.006414	3.289145	1.000000	0.000003	0.000116	-0.000180	0.586926	-8.836420	174.295762
57455	2.051472	0.142240	12.920554	-0.042133	-0.005726	3.270419	1.000000	0.000002	0.000108	-0.000179	0.585945	-8.838572	174.275562
57456	2.037755	0.136460	12.926594	-0.027403	-0.002749	3.274220	1.000000	-0.000008	0.000109	-0.000177	0.578725	-8.837921	174.250684
57457	2.045279	0.125062	12.933100	-0.032070	0.007690	3.281692	1.000000	-0.000002	0.000097	-0.000189	0.572034	-8.841719	174.224168
57458	2.042729	0.125928	12.933494	-0.028290	0.006889	3.281702	1.000000	0.000009	0.000096	-0.000191	0.574550	-8.847828	174.207318
57459	2.046626	0.132907	12.919576	-0.032394	-0.002699	3.268625	1.000000	-0.000007	0.000102	-0.000166	0.560176	-8.860727	174.184587
57460	2.039122	0.118081	12.944552	-0.018955	0.010657	3.292003	1.000000	-0.000007	0.000118	-0.000178	0.558324	-8.863286	174.166400
57461	2.045465	0.137331	12.950812	-0.022823	-0.010413	3.299356	1.000000	-0.000019	0.000110	-0.000174	0.547631	-8.880022	174.148910
57462	2.044239	0.125472	12.939865	-0.021015	0.001296	3.288241	1.000000	0.000007	0.000099	-0.000174	0.549499	-8.885865	174.136128
57463	2.039880	0.138898	12.951676	-0.016679	-0.011995	3.299364	1.000000	0.000014	0.000115	-0.000182	0.552279	-8.883139	174.120790
57464	2.047464	0.143062	12.924970	-0.029686	-0.015916	3.274187	1.000000	0.000009	0.000108	-0.000175	0.548103	-8.879584	174.097645
57465	2.037810	0.134437	12.918138	-0.017096	-0.006277	3.265871	1.000000	0.000006	0.000107	-0.000186	0.558664	-8.893836	174.096880
57466	2.048388	0.139173	12.966370	-0.021120	-0.010571	3.315201	1.000000	-0.000007	0.000106	-0.000194	0.556028	-8.891235	174.072402
57467	2.042212	0.123959	12.925153	-0.019009	0.002828	3.273382	1.000000	0.000007	0.000127	-0.000170	0.550774	-8.894785	174.053915
57468	2.045845	0.134507	12.932919	-0.023599	-0.008211	3.281714	1.000000	0.000014	0.000116	-0.000182	0.546681	-8.890887	174.029470
57469	2.041783	0.147959	12.944673	-0.017448	-0.023219	3.292826	1.000000	0.000011	0.000073	-0.000168	0.541982	-8.901630	174.011676
57470	2.046947	0.127440	12.952663	-0.016779	-0.002711	3.301329	1.000000	-0.000003	0.000128	-0.000168	0.540570	-8.909393	174.000681
57471	2.035171	0.127736	12.935656	-0.006980	-0.005406	3.282707	1.000000	0.000006	0.000107	-0.000186	0.535776	-8.915288	173.979405
57472	2.055821	0.132317	12.935205	-0.027835	-0.008091	3.285503	1.000000	-0.000010	0.000117	-0.000188	0.533632	-8.914877	173.961094
57473	2.042808	0.144890	12.929511	-0.016305	-0.024900	3.277974	1.000000	-0.000000	0.000090	-0.000178	0.520919	-8.922142	173.935384
57474	2.043744	0.124314	12.928747	-0.012328	-0.006090	3.277181	1.000000	0.000014	0.000104	-0.000199	0.515264	-8.935170	173.918955
57475	2.046930	0.116471	12.948177	-0.011869	0.003236	3.296799	1.000000	0.000007	0.000127	-0.000170	0.520526	-8.932358	173.910848
57476	2.037486	0.126044	12.929718	-0.004162	-0.006680	3.277186	1.000000	-0.000007	0.000118	-0.000177	0.522997	-8.943086	173.907936
57477	2.051843	0.124447	12.943554	-0.016862	-0.004680	3.293068	1.000000	0.000008	0.000088	-0.000191	0.519032	-8.941221	173.880141
57478	2.047251	0.134450	12.933759	-0.012271	-0.015414	3.282772	1.000000	0.000003	0.000117	-0.000180	0.518263	-8.951604	173.870638
57479	2.052358	0.129039	12.908574	-0.020231	-0.009584	3.258640	1.000000	-0.000006	0.000116	-0.000194	0.516810	-8.953720	173.853709
57480	2.043141	0.126721	12.944908	-0.004136	-0.010666	3.293075	1.000000	-0.000004	0.000108	-0.000183	0.507712	-8.960333	173.831304
57481	2.046911	0.136977	12.952663	-0.008211	-0.021517	3.301411	1.000000	-0.000001	0.000119	-0.000173	0.503139	-8.958151	173.810407
57482	2.043830	0.134452	12.931524	-0.006796	-0.018687	3.280029	1.000000	0.000005	0.000098	-0.000185	0.506452	-8.965408	173.801150
57483	2.047646	0.141558	12.917654	-0.014546	-0.026739	3.266982	1.000000	-0.000000	0.000107	-0.000190	0.498829	-8.960880	173.770062
57484	2.044100	0.123896	12.929802	-0.007712	-0.010462	3.278275	1.000000	-0.000001	0.000123	-0.000202	0.495076	-8.958515	173.746709
57485	2.041154	0.124688	12.930259	-0.003531	-0.011064	3.278276	1.000000	0.000004	0.000101	-0.000168	0.497992	-8.965423	173.739826
57486	2.029996	0.128267	12.934750	0.008240	-0.016856	3.281003	1.000000	-0.000000	0.000107	-0.000190	0.493737	-8.967831	173.719185
57487	2.035783	0.129551	12.952704	0.004935	-0.018518	3.299650	1.000000	0.000002	0.000108	-0.000179	0.489816	-8.967001	173.698161
57488	2.051603	0.115711	12.955250	-0.009243	-0.004488	3.304510	1.000000	0.000005	0.000115	-0.000197	0.483443	-8.964961	173.670066
57489	2.049064	0.135097	12.944046	-0.010922	-0.024549	3.293209	1.000000	0.000007	0.000116	-0.000186	0.480583	-8.963899	173.650361
57490	2.056328	0.124098	12.950683	-0.014177	-0.012375	3.300806	1.000000	0.000003	0.000117	-0.000180	0.483421	-8.970919	173.643322
57491	2.047193	0.134005	12.932154	-0.009512	-0.022955	3.281164	1.000000	0.000021	0.000105	-0.000194	0.484824	-8.970149	173.622188
57492	2.052918	0.132121	12.928518	-0.014475	-0.020632	3.278450	1.000000	-0.000009	0.000101	-0.000176	0.482513	-8.975000	173.606679
57493	2.041856	0.135667	12.932981	-0.002822	-0.025086	3.281163	1.000000	0.000012	0.000099	-0.000181	0.485505	-8.977111	173.591237
57494	2.039011	0.136597	12.933420	-0.001278	-0.027565	3.281159	1.000000	0.000003	0.000118	-0.000180	0.478839	-8.971285	173.560232
57495	2.051367	0.144232	12.937108	-0.013844	-0.033407	3.286792	1.000000	0.000003	0.000092	-0.000167	0.480475	-8.971820	173.545002
57496	2.035548	0.129115	12.944471	0.006802	-0.020642	3.291472	1.000000	0.000004	0.000106	-0.000196	0.480021	-8.981430	173.532489
57497	2.056392	0.133950	12.944111	-0.014702	-0.024553	3.294406	1.000000	-0.000005	0.000100	-0.000182	0.472743	-8.980552	173.504746
57498	2.064464	0.137899	12.917438	-0.027195	-0.027071	3.269353	1.000000	-0.000001	0.000098	-0.000189	0.474208	-8.980662	173.488772
57499	2.046247	0.135063	12.936256	-0.005528	-0.026827	3.285073	1.000000	0.000001	0.000148	-0.000158	0.472783	-8.980487	173.478354
57500	2.048855	0.123832	12.934208	-0.006900	-0.016116	3.283365	1.000000	0.000014	0.000117	-0.000182	0.470426	-8.983891	173.461105
57501	2.050013	0.124960	12.943467	-0.007307	-0.018458	3.292697	1.000000	-0.000002	0.000122	-0.000156	0.463324	-8.981733	173.440040
57502	2.038516	0.128270	12.947979	0.004957	-0.023577	3.295386	1.000000	-0.000008	0.000110	-0.000177	0.461345	-8.985594	173.427054
57503	2.016935	0.143560	12.946249	0.023812	-0.041494	3.290431	1.000000	0.000005	0.000099	-0.000185	0.460724	-8.985014	173.405953
57504	2.033198	0.126584	12.927201	0.007321	-0.023285	3.274018	1.000000	0.000008	0.000089	-0.000191	0.458149	-8.988228	173.384553
57505	2.069247	0.138516	12.930156	-0.018276	-0.003894	3.282715	1.000000	-0.000000	0.000108	-0.000190	0.587527	-9.019827	174.908319
57506	2.082924	0.137132	12.944205	-0.029669	-0.001518	3.298717	1.000000	0.000003	0.000146	-0.000175	0.586805	-9.016545	174.913876
57507	2.072615	0.128173	12.937462	-0.020992	0.005125	3.290351	1.000000	-0.000007	0.000136	-0.000189	0.579747	-9.012509	174.939808
57508	2.026255	0.120986	12.948236	0.025479	0.009181	3.293663	1.000000	0.000016	0.000135	-0.000183	0.584839	-9.005850	174.923621
57509	1.982387	0.119797	12.935922	0.066019	0.007685	3.274630	1.000000	-0.000007	0.000119	-0.000177	0.588171	-9.002839	174.904661
57510	2.010007	0.134308	12.942928	0.039199	-0.005361	3.286014	1.000000	0.000002	0.000072	-0.000183	0.584504	-9.008194	174.922547
57511	2.059130	0.140297	12.929049	-0.010780	-0.005982	3.280053	1.000000	-0.000013	0.000091	-0.000186	0.588444	-9.011293	174.896810
57512	2.073731	0.138735	12.942971	-0.022030	-0.002864	3.296073	1.000000	-0.000002	0.000090	-0.000188	0.590807	-9.014686	174.883868
57513	2.072978	0.126962	12.932033	-0.022212	0.009759	3.285032	1.000000	-0.000008	0.000110	-0.000177	0.594305	-9.012107	174.861784
57514	2.044202	0.110623	12.913041	0.004226	0.022601	3.261604	1.000000	-0.000004	0.000109	-0.000183	0.590255	-9.011132	174.876753
57515	2.026622	0.126294	12.920079	0.021992	0.005089	3.265963	1.000000	0.000011	0.000116	-0.000193	0.590086	-9.014134	174.883635
57516	2.044803	0.125575	12.942896	0.007424	0.007728	3.291336	1.000000	0.000014	0.000117	-0.000182	0.591787	-9.012480	174.881107
57517	2.042204	0.145126	12.931680	0.006131	-0.010476	3.280053	1.000000	0.000016	0.000110	-0.000171	0.598077	-9.010735	174.856050
57518	2.060538	0.140962	12.932899	-0.010672	-0.004566	3.284085	1.000000	0.000002	0.000109	-0.000179	0.598286	-9.013623	174.855907
57519	2.055350	0.132383	12.934793	-0.004438	0.004082	3.285053	1.000000	0.000002	0.000109	-0.000179	0.600832	-9.013730	174.842733
57520	2.050283	0.123788	12.936666	0.001824	0.011980	3.286021	1.000000	0.000001	0.000100	-0.000178	0.599945	-9.015299	174.846521
57521	2.060294	0.118837	12.920298	-0.010245	0.017409	3.271372	1.000000	-0.000003	0.000107	-0.000200	0.597882	-9.014725	174.852616
57522	2.070109	0.120684	12.947128	-0.015723	0.015677	3.299427	1.000000	0.000009	0.000114	-0.000203	0.595711	-9.015119	174.868013
57523	2.049915	0.123599	12.934046	0.001317	0.011788	3.283375	1.000000	-0.000001	0.000131	-0.000157	0.597858	-9.011624	174.852586
57524	2.017032	0.132368	12.937728	0.032674	0.000296	3.281955	1.000000	0.000029	0.000110	-0.000163	0.600053	-9.009315	174.854900
57525	2.011941	0.142427	12.927972	0.034646	-0.010268	3.271630	1.000000	-0.000003	0.000130	-0.000168	0.597424	-9.005522	174.865199
57526	2.021773	0.140705	12.933221	0.025709	-0.008591	3.278333	1.000000	-0.000002	0.000090	-0.000188	0.593614	-9.007075	174.883888
57527	2.051298	0.143226	12.928989	-0.004362	-0.007680	3.278799	1.000000	0.000009	0.000098	-0.000191	0.597780	-9.005708	174.860993
57528	2.042249	0.137786	12.943599	0.007210	-0.002836	3.291757	1.000000	0.000004	0.000090	-0.000184	0.598632	-9.005611	174.855355
57529	2.056633	0.133331	12.936031	-0.007601	0.002387	3.286487	1.000000	0.000006	0.000108	-0.000185	0.596536	-9.005362	174.870715
57530	2.062225	0.131254	12.932504	-0.013690	0.004993	3.283856	1.000000	-0.000016	0.000113	-0.000164	0.595096	-9.004132	174.865544
57531	2.055157	0.128127	12.902580	-0.011165	0.007642	3.253164	1.000000	-0.000000	0.000108	-0.000190	0.596457	-9.004313	174.854481
57532	2.032443	0.128112	12.934087	0.015659	0.005498	3.280729	1.000000	-0.000001	0.000148	-0.000169	0.595891	-9.000069	174.855122
57533	2.028851	0.110230	12.946272	0.022589	0.022836	3.292018	1.000000	-0.000009	0.000102	-0.000176	0.594994	-9.002351	174.852458
57534	2.024444	0.138516	12.924783	0.021220	-0.005596	3.270396	1.000000	0.000013	0.000109	-0.000181	0.596619	-9.002634	174.848934
57535	2.038353	0.118966	12.950509	0.013559	0.015730	3.297778	1.000000	-0.000004	0.000098	-0.000199	0.599092	-9.004073	174.826309
57536	2.036147	0.138220	12.939220	0.012611	-0.003677	3.286482	1.000000	0.000007	0.000092	-0.000174	0.599278	-9.006021	174.827374
57537	2.067590	0.131906	12.945306	-0.016656	0.005752	3.297346	1.000000	0.000012	0.000100	-0.000181	0.601252	-9.006072	174.819427
57538	2.062885	0.141959	12.935493	-0.014594	-0.004252	3.287023	1.000000	0.000007	0.000109	-0.000185	0.602649	-9.004826	174.810587
57539	2.061613	0.133969	12.946238	-0.011408	0.003763	3.297352	1.000000	0.000019	0.000137	-0.000173	0.603978	-9.001119	174.812466
57540	2.037173	0.158240	12.934226	0.007886	-0.022124	3.281921	1.000000	-0.000008	0.000128	-0.000189	0.604190	-8.998429	174.800359
57541	2.044495	0.147243	12.940996	0.001990	-0.010678	3.289637	1.000000	0.000008	0.000113	-0.000158	0.603930	-8.996151	174.803522
57542	2.041402	0.126150	12.931548	0.005390	0.010157	3.279602	1.000000	-0.000008	0.000111	-0.000177	0.603499	-8.996020	174.796791
57543	2.021454	0.132061	12.939915	0.025619	0.001898	3.284811	1.000000	0.000000	0.000109	-0.000189	0.601551	-8.995610	174.807408
57544	2.035869	0.127627	12.932406	0.010645	0.007756	3.279601	1.000000	0.000007	0.000092	-0.000173	0.602349	-8.996443	174.803247
57545	2.035565	0.137994	12.931363	0.010254	-0.002771	3.278630	1.000000	0.000012	0.000100	-0.000181	0.602066	-8.997794	174.812635
57546	2.037256	0.136003	12.919002	0.006825	-0.000805	3.266666	1.000000	0.000008	0.000101	-0.000174	0.600823	-8.997780	174.825588
57547	2.055755	0.131960	12.920340	-0.010539	0.005224	3.270836	1.000000	0.000000	0.000109	-0.000189	0.602168	-8.998355	174.812016
57548	2.040089	0.138184	12.937490	0.007149	-0.002686	3.285391	1.000000	-0.000009	0.000102	-0.000176	0.600502	-8.999464	174.813854
57549	2.045681	0.117758	12.945638	0.004833	0.017603	3.294100	1.000000	0.000004	0.000103	-0.000168	0.598895	-9.000077	174.827087
57550	2.036646	0.127465	12.927019	0.010106	0.007570	3.274399	1.000000	0.000018	0.000117	-0.000188	0.601602	-8.999803	174.819081
57551	2.042435	0.125995	12.923497	0.003763	0.009821	3.271810	1.000000	0.000014	0.000093	-0.000169	0.602215	-9.000113	174.821853
57552	2.046270	0.136666	12.931280	0.000517	-0.000565	3.280208	1.000000	0.000002	0.000101	-0.000178	0.601389	-9.000750	174.826657
57553	2.047688	0.138094	12.940525	0.000216	-0.001731	3.289575	1.000000	0.000024	0.000108	-0.000183	0.603329	-8.999298	174.828872
57554	2.060050	0.143082	12.922822	-0.015077	-0.005508	3.274075	1.000000	0.000008	0.000102	-0.000174	0.602505	-9.000026	174.840883
57555	2.048464	0.146434	12.927234	-0.003281	-0.009848	3.276656	1.000000	-0.000006	0.000129	-0.000178	0.601941	-8.998441	174.836692
57556	2.034535	0.140180	12.933094	0.011707	-0.005192	3.280202	1.000000	-0.000005	0.000113	-0.000166	0.600412	-8.998705	174.841770
57557	2.050684	0.126625	12.935934	-0.002926	0.009447	3.285389	1.000000	0.000003	0.000110	-0.000179	0.599560	-8.997251	174.848283
57558	2.064991	0.140792	12.916862	-0.021088	-0.003374	3.268936	1.000000	0.000010	0.000120	-0.000175	0.599809	-8.997394	174.854764
57559	2.048918	0.125621	12.924135	-0.003143	0.010504	3.273450	1.000000	0.000017	0.000120	-0.000171	0.600977	-8.995803	174.858002
57560	2.032942	0.131974	12.941286	0.014702	0.002959	3.287958	1.000000	-0.000010	0.000110	-0.000187	0.600738	-8.996255	174.845440
57561	2.017445	0.134950	12.936811	0.029149	-0.001498	3.281148	1.000000	0.000012	0.000101	-0.000180	0.601451	-8.997587	174.849040
57562	2.051300	0.113090	12.910192	-0.006088	0.023278	3.259921	1.000000	-0.000010	0.000099	-0.000203	0.600075	-8.999054	174.849876
57563	2.059024	0.123960	12.926857	-0.012047	0.013132	3.277701	1.000000	0.000005	0.000112	-0.000168	0.600844	-8.998233	174.842569
57564	2.053890	0.137269	12.938634	-0.006208	-0.000403	3.288668	1.000000	0.000011	0.000108	-0.000192	0.602387	-8.998878	174.836645
57565	2.033822	0.121434	12.937038	0.014537	0.013848	3.283790	1.000000	-0.000007	0.000121	-0.000177	0.602357	-8.997413	174.824095
57566	2.037139	0.128681	12.923373	0.007930	0.006637	3.270888	1.000000	0.000011	0.000129	-0.000176	0.601655	-8.994643	174.840007
57567	2.016456	0.138046	12.953284	0.031749	-0.004574	3.297297	1.000000	0.000004	0.000120	-0.000180	0.601380	-8.993477	174.843713
57568	2.028531	0.146144	12.957210	0.019947	-0.011486	3.303145	1.000000	0.000007	0.000093	-0.000173	0.602019	-8.995750	174.841652
57569	2.054249	0.145388	12.922852	-0.010426	-0.008302	3.273221	1.000000	0.000001	0.000093	-0.000178	0.601862	-8.996782	174.838736
57570	2.051698	0.146141	12.923249	-0.007580	-0.009596	3.273223	1.000000	-0.000001	0.000100	-0.000189	0.600621	-8.997947	174.849011
57571	2.042443	0.140272	12.937830	0.004427	-0.004683	3.286116	1.000000	-0.000011	0.000101	-0.000186	0.599789	-8.998357	174.839353
57572	2.044251	0.138078	12.925495	0.001251	-0.002382	3.274194	1.000000	0.000007	0.000098	-0.000202	0.600728	-9.000054	174.836865
57573	2.058351	0.137230	12.939694	-0.010196	-0.000168	3.290412	1.000000	0.000003	0.000111	-0.000179	0.601035	-8.999815	174.832686
57574	2.038191	0.121150	12.938093	0.010596	0.013889	3.285513	1.000000	-0.000012	0.000130	-0.000182	0.599379	-8.997872	174.832484
57575	2.041187	0.131519	12.946023	0.007514	0.003686	3.293921	1.000000	-0.000003	0.000120	-0.000184	0.599258	-8.996487	174.826185
57576	2.033900	0.113478	12.949329	0.016624	0.021098	3.295861	1.000000	0.000007	0.000110	-0.000185	0.600224	-8.996238	174.820056
57577	2.039737	0.130405	12.934199	0.007080	0.004988	3.282004	1.000000	0.000013	0.000110	-0.000181	0.601344	-8.996468	174.821334
57578	2.056028	0.117337	12.937119	-0.007423	0.019681	3.287298	1.000000	0.000007	0.000110	-0.000185	0.601995	-8.995959	174.818195
57579	2.035819	0.123420	12.945372	0.013148	0.011846	3.292355	1.000000	0.000017	0.000120	-0.000171	0.602672	-8.995089	174.828922
57580	2.032811	0.124365	12.945835	0.015832	0.010604	3.292353	1.000000	-0.000002	0.000108	-0.000200	0.601595	-8.994641	174.835849
57581	2.051380	0.139247	12.935664	-0.005414	-0.002261	3.285363	1.000000	0.000024	0.000109	-0.000183	0.604085	-8.994190	174.833775
57582	2.046862	0.127706	12.915929	-0.003011	0.009457	3.265045	1.000000	0.000012	0.000101	-0.000180	0.605860	-8.994532	174.823015
57583	2.065128	0.145727	12.927339	-0.020824	-0.006806	3.279356	1.000000	-0.000004	0.000111	-0.000183	0.605366	-8.993798	174.818428
57584	2.066533	0.146780	12.936612	-0.020643	-0.007994	3.288745	1.000000	-0.000003	0.000094	-0.000171	0.604351	-8.995739	174.821673
57585	2.053613	0.137231	12.920736	-0.009290	0.000416	3.270947	1.000000	0.000002	0.000102	-0.000178	0.604794	-8.996514	174.813761
57586	2.059300	0.135387	12.917315	-0.015342	0.002651	3.268437	1.000000	-0.000009	0.000120	-0.000188	0.603669	-8.995170	174.810617
57587	2.055651	0.139404	12.939404	-0.009018	-0.001855	3.289725	1.000000	0.000002	0.000128	-0.000191	0.603775	-8.993152	174.809846
57588	2.056582	0.140365	12.948753	-0.009014	-0.002993	3.299115	1.000000	-0.000018	0.000113	-0.000174	0.601254	-8.992101	174.808523
57589	2.038328	0.133308	12.945730	0.008535	0.001929	3.293204	1.000000	-0.000014	0.000149	-0.000177	0.599143	-8.987781	174.810378
57590	2.031246	0.111613	12.927495	0.014036	0.022788	3.273864	1.000000	-0.000002	0.000104	-0.000172	0.598781	-8.988090	174.804980
57591	2.026523	0.121196	12.917649	0.016489	0.012466	3.263501	1.000000	-0.000009	0.000103	-0.000176	0.596784	-8.989142	174.814204
57592	2.042533	0.111326	12.942195	0.005485	0.023666	3.290143	1.000000	0.000013	0.000110	-0.000181	0.598238	-8.988836	174.810114
57593	2.033302	0.124094	12.945065	0.014118	0.010061	3.291667	1.000000	-0.000003	0.000095	-0.000171	0.597067	-8.990814	174.815964
57594	2.039327	0.122313	12.941603	0.008058	0.012276	3.289171	1.000000	0.000002	0.000102	-0.000178	0.597028	-8.991496	174.813775
57595	2.032775	0.122636	12.933125	0.013393	0.011243	3.279778	1.000000	-0.000000	0.000085	-0.000177	0.596311	-8.993656	174.815843
57596	2.049061	0.131370	12.945971	-0.001034	0.003982	3.295098	1.000000	0.000016	0.000112	-0.000170	0.597436	-8.993642	174.819846
57597	2.052735	0.138721	12.932299	-0.007702	-0.003091	3.282245	1.000000	-0.000010	0.000111	-0.000187	0.595425	-8.992593	174.825085
57598	2.062887	0.134167	12.916198	-0.020028	0.002483	3.267881	1.000000	0.000012	0.000118	-0.000192	0.596949	-8.991175	174.817806
57599	2.037825	0.143041	12.937127	0.006725	-0.008411	3.284730	1.000000	0.000011	0.000130	-0.000176	0.597767	-8.988736	174.818816
57600	2.017751	0.145402	12.923761	0.023763	-0.012589	3.268419	1.000000	-0.000009	0.000120	-0.000188	0.596169	-8.987528	174.823247
57601	2.036158	0.141574	12.925378	0.006230	-0.007351	3.272849	1.000000	0.000002	0.000103	-0.000178	0.595773	-8.988538	174.828178
57602	2.039569	0.133544	12.944931	0.006713	0.000555	3.292612	1.000000	-0.000020	0.000101	-0.000201	0.593325	-8.989058	174.827212
57603	2.037345	0.130782	12.923777	0.005954	0.002954	3.271343	1.000000	0.000007	0.000105	-0.000157	0.593482	-8.989418	174.827464
57604	2.053796	0.117547	12.926805	-0.008656	0.017358	3.276766	1.000000	-0.000010	0.000111	-0.000187	0.591724	-8.988838	174.831522
57605	2.054828	0.136971	12.924472	-0.011991	-0.002269	3.274822	1.000000	-0.000007	0.000122	-0.000177	0.590059	-8.987375	174.839940
57606	2.055806	0.119722	12.945500	-0.008300	0.014861	3.295568	1.000000	0.000009	0.000112	-0.000175	0.590637	-8.987255	174.842847
57607	2.046159	0.132495	12.948407	0.000331	0.001363	3.297063	1.000000	0.000002	0.000120	-0.000190	0.590657	-8.985978	174.841506
57608	2.047465	0.130457	12.936210	-0.003131	0.003579	3.285199	1.000000	0.000005	0.000130	-0.000180	0.590692	-8.983418	174.843858
57609	2.051019	0.119478	12.934256	-0.006116	0.014842	3.283712	1.000000	0.000009	0.000103	-0.000174	0.590805	-8.984294	174.852402
57610	2.050892	0.126454	12.911695	-0.009924	0.008004	3.261480	1.000000	-0.000000	0.000102	-0.000189	0.590679	-8.985276	174.850622
57611	2.034343	0.135979	12.950232	0.011682	-0.002994	3.297058	1.000000	0.000009	0.000108	-0.000202	0.591834	-8.985460	174.847267
57612	2.063783	0.136253	12.925126	-0.021549	-0.000471	3.276858	1.000000	0.000005	0.000130	-0.000180	0.591672	-8.982797	174.852450
57613	2.047342	0.142532	12.942150	-0.003497	-0.008134	3.291170	1.000000	0.000016	0.000112	-0.000170	0.592637	-8.982764	174.861886
57614	2.044505	0.143404	12.942588	-0.000600	-0.009278	3.291170	1.000000	-0.000004	0.000103	-0.000182	0.591522	-8.983811	174.869421
57615	2.037536	0.143812	12.934164	0.004902	-0.010240	3.281766	1.000000	0.000012	0.000119	-0.000192	0.592690	-8.982870	174.872070
57616	2.041367	0.132735	12.932181	0.001807	0.001084	3.280292	1.000000	-0.000009	0.000095	-0.000175	0.591066	-8.984312	174.874389
57617	2.042684	0.133759	12.941483	0.001915	-0.000026	3.289695	1.000000	-0.000003	0.000112	-0.000183	0.590731	-8.983578	174.865797
57618	2.031762	0.133417	12.924168	0.009965	-0.000875	3.270885	1.000000	-0.000008	0.000104	-0.000176	0.589111	-8.984065	174.870523
57619	2.051477	0.142527	12.946066	-0.007089	-0.008445	3.295684	1.000000	0.000003	0.000129	-0.000191	0.589056	-8.981470	174.871603
57620	2.055673	0.128031	12.922559	-0.013874	0.006345	3.272972	1.000000	-0.000008	0.000104	-0.000176	0.587716	-8.981817	174.870579
57621	2.042170	0.121625	12.928214	0.000822	0.011352	3.276386	1.000000	0.000003	0.000112	-0.000179	0.587691	-8.981253	174.870620
57622	2.047272	0.123225	12.946440	-0.001544	0.009985	3.295200	1.000000	-0.000007	0.000113	-0.000177	0.586351	-8.981032	174.874755
57623	2.025606	0.115953	12.934337	0.018341	0.015399	3.279793	1.000000	0.000007	0.000111	-0.000185	0.587394	-8.980334	174.862577
57624	2.035341	0.133489	12.928182	0.006165	-0.000929	3.275409	1.000000	0.000011	0.000110	-0.000191	0.588768	-8.979893	174.854980
57625	2.034357	0.125441	12.938932	0.009328	0.007111	3.285792	1.000000	0.000002	0.000120	-0.000190	0.588798	-8.978412	174.852712
57626	2.029144	0.135178	12.929138	0.011712	-0.003048	3.275405	1.000000	-0.000002	0.000121	-0.000184	0.588216	-8.976817	174.851927
57627	2.039020	0.133986	12.934662	0.002957	-0.001105	3.282389	1.000000	-0.000001	0.000093	-0.000188	0.587888	-8.978439	174.850087
57628	2.059555	0.140112	12.934993	-0.017728	-0.005237	3.285981	1.000000	0.000015	0.000121	-0.000182	0.589369	-8.976831	174.846071
57629	2.035142	0.145319	12.934166	0.005478	-0.012466	3.281410	1.000000	-0.000002	0.000110	-0.000200	0.589065	-8.976428	174.844729
57630	2.047529	0.150367	12.916746	-0.009876	-0.016449	3.266187	1.000000	0.000003	0.000113	-0.000179	0.588620	-8.976317	174.856082
57631	2.031945	0.134545	12.923791	0.007821	-0.002191	3.270555	1.000000	-0.000001	0.000114	-0.000172	0.587863	-8.975719	174.860774
57632	2.045662	0.133901	12.938248	-0.003562	-0.000429	3.286965	1.000000	0.000006	0.000114	-0.000168	0.587935	-8.974838	174.860002
57633	2.038693	0.134230	12.929815	0.001926	-0.001392	3.277553	1.000000	0.000001	0.000111	-0.000189	0.587625	-8.974901	174.867295
57634	2.046725	0.123596	12.936737	-0.003881	0.009822	3.285535	1.000000	-0.000005	0.000094	-0.000182	0.586970	-8.976236	174.860495
57635	2.047994	0.124651	12.946058	-0.003738	0.008557	3.294950	1.000000	-0.000007	0.000114	-0.000176	0.585521	-8.975372	174.862006
57636	2.041152	0.124814	12.937606	0.001697	0.007563	3.285537	1.000000	-0.000000	0.000102	-0.000189	0.584923	-8.976285	174.870666
57637	2.053557	0.129905	12.920212	-0.013842	0.003703	3.270341	1.000000	0.000002	0.000120	-0.000190	0.585170	-8.974484	174.861377
57638	2.035403	0.126534	12.938495	0.007218	0.005463	3.285536	1.000000	0.000012	0.000094	-0.000180	0.586040	-8.976193	174.865124
57639	2.054776	0.119747	12.918692	-0.014216	0.013809	3.268927	1.000000	-0.000014	0.000113	-0.000181	0.583725	-8.975683	174.873561
57640	2.054972	0.142746	12.937942	-0.013576	-0.009191	3.288204	1.000000	0.000014	0.000112	-0.000181	0.585082	-8.975123	174.870069
57641	2.041984	0.114680	12.933716	0.000663	0.017664	3.281722	1.000000	-0.000006	0.000132	-0.000178	0.583957	-8.972465	174.872834
57642	2.025107	0.139059	12.938991	0.015502	-0.008186	3.284548	1.000000	0.000011	0.000122	-0.000175	0.584429	-8.971101	174.881598
57643	2.035686	0.134926	12.922988	0.002963	-0.002808	3.270349	1.000000	0.000012	0.000094	-0.000180	0.585733	-8.972625	174.875114
57644	2.040700	0.136724	12.941250	0.000620	-0.004245	3.289185	1.000000	-0.000008	0.000131	-0.000188	0.584542	-8.970082	174.876200
57645	2.039645	0.147010	12.940319	0.000455	-0.014585	3.288206	1.000000	0.000014	0.000095	-0.000169	0.585560	-8.971447	174.877944
57646	2.045641	0.127123	12.948682	-0.002397	0.005783	3.297200	1.000000	-0.000002	0.000122	-0.000183	0.584999	-8.969867	174.877913
57647	2.042777	0.127708	12.949129	0.000400	0.004716	3.297201	1.000000	-0.000009	0.000096	-0.000175	0.583510	-8.971286	174.878909
57648	2.038079	0.137312	12.939243	0.002831	-0.005425	3.286801	1.000000	0.000002	0.000104	-0.000178	0.583402	-8.971743	174.878933
57649	2.040213	0.116709	12.938692	0.002529	0.015159	3.286382	1.000000	-0.000006	0.000106	-0.000165	0.582277	-8.971994	174.878135
57650	2.036281	0.139076	12.949044	0.005785	-0.007677	3.296219	1.000000	-0.000002	0.000122	-0.000183	0.581792	-8.970006	174.871601
57651	2.045393	0.121810	12.912951	-0.007715	0.010292	3.261815	1.000000	-0.000004	0.000124	-0.000167	0.580609	-8.968111	174.874749
57652	2.045385	0.126465	12.943926	-0.003593	0.005538	3.292456	1.000000	0.000010	0.000119	-0.000203	0.581630	-8.967062	174.877768
57653	2.042568	0.127390	12.944362	-0.000818	0.004499	3.292457	1.000000	0.000001	0.000095	-0.000177	0.581506	-8.968451	174.874904
57654	2.044473	0.125315	12.932148	-0.004328	0.006695	3.280668	1.000000	-0.000002	0.000122	-0.000183	0.581002	-8.967319	174.879569
57655	2.030813	0.118994	12.937751	0.010354	0.011862	3.284011	1.000000	0.000009	0.000110	-0.000202	0.582187	-8.967154	174.875999
57656	2.053281	0.134751	12.936825	-0.013132	-0.001881	3.286755	1.000000	-0.000003	0.000096	-0.000171	0.581138	-8.968608	174.882193
57657	2.032961	0.140112	12.944752	0.007624	-0.009110	3.291473	1.000000	0.000008	0.000121	-0.000186	0.581603	-8.967178	174.886684
57658	2.056432	0.134055	12.933955	-0.016451	-0.001063	3.284404	1.000000	-0.000008	0.000085	-0.000191	0.580357	-8.970056	174.891091
57659	2.040425	0.139803	12.950733	0.001820	-0.008487	3.298541	1.000000	0.000002	0.000104	-0.000178	0.580011	-8.970797	174.899739
57660	2.052954	0.144730	12.933408	-0.013668	-0.012547	3.283429	1.000000	-0.000023	0.000112	-0.000195	0.577317	-8.970334	174.899398
57661	2.041555	0.129063	12.949275	0.001370	0.001680	3.297168	1.000000	0.000005	0.000106	-0.000167	0.577223	-8.970753	174.903924
57662	2.039556	0.144899	12.916431	-0.002920	-0.014274	3.264574	1.000000	-0.000007	0.000094	-0.000192	0.576294	-8.972582	174.904997
57663	2.036942	0.127161	12.928554	0.003082	0.003044	3.275964	1.000000	0.000002	0.000121	-0.000190	0.576452	-8.970979	174.900509
57664	2.033963	0.127899	12.929016	0.005894	0.001974	3.275963	1.000000	-0.000002	0.000106	-0.000172	0.575722	-8.971366	174.903402
57665	2.043767	0.126833	12.934656	-0.000932	0.007069	3.283050	1.000000	-0.000003	0.000113	-0.000183	0.590648	-8.977774	174.866891
57666	2.045595	0.124719	12.922474	-0.004597	0.009249	3.271282	1.000000	-0.000003	0.000113	-0.000183	0.590005	-8.977170	174.866917
57667	2.037949	0.128358	12.935559	0.004671	0.004996	3.283050	1.000000	0.000011	0.000102	-0.000191	0.591303	-8.977846	174.861703
57668	2.038802	0.129849	12.944957	0.004970	0.003753	3.292482	1.000000	0.000005	0.000132	-0.000180	0.591694	-8.975229	174.859777
57669	2.029805	0.120663	12.937912	0.013232	0.012206	3.284027	1.000000	0.000003	0.000114	-0.000179	0.591792	-8.974938	174.862700
57670	2.033367	0.128130	12.924371	0.006695	0.005118	3.271283	1.000000	-0.000002	0.000123	-0.000183	0.591345	-8.973300	174.860860
57671	2.029110	0.150708	12.934731	0.010228	-0.017730	3.281084	1.000000	0.000010	0.000114	-0.000174	0.592093	-8.972540	174.859172
57672	2.031440	0.130495	12.934198	0.009800	0.002894	3.280714	1.000000	0.000012	0.000095	-0.000179	0.593594	-8.974242	174.852832
57673	2.043330	0.139284	12.938438	-0.001777	-0.004604	3.286845	1.000000	0.000007	0.000104	-0.000184	0.594358	-8.974669	174.846523
57674	2.038757	0.130573	12.940241	0.003905	0.003646	3.287824	1.000000	-0.000004	0.000105	-0.000182	0.593727	-8.975202	174.845812
57675	2.044422	0.129096	12.937015	-0.002289	0.005632	3.285505	1.000000	0.000003	0.000131	-0.000190	0.594082	-8.972615	174.841510
57676	2.044196	0.136091	12.914534	-0.006305	-0.001238	3.263337	1.000000	0.000002	0.000096	-0.000177	0.594013	-8.974137	174.840999
57677	2.047578	0.128460	12.934181	-0.005676	0.006558	3.283191	1.000000	0.000000	0.000104	-0.000188	0.593966	-8.974625	174.837873
57678	2.046673	0.120114	12.944958	-0.002500	0.014542	3.293610	1.000000	-0.000010	0.000125	-0.000171	0.592224	-8.972906	174.841976
57679	2.025617	0.143750	12.941174	0.015148	-0.010852	3.286832	1.000000	0.000015	0.000122	-0.000181	0.593651	-8.971373	174.842272
57680	2.036302	0.121397	12.937028	0.005633	0.012685	3.284174	1.000000	0.000011	0.000123	-0.000175	0.594572	-8.969738	174.842131
57681	2.030233	0.134472	12.948746	0.012111	-0.000872	3.294937	1.000000	-0.000002	0.000106	-0.000172	0.593994	-8.969996	174.841688
57682	2.035282	0.120268	12.925311	0.004784	0.013821	3.272429	1.000000	0.000008	0.000113	-0.000185	0.594698	-8.969770	174.844072
57683	2.036578	0.121800	12.934647	0.005115	0.012545	3.281869	1.000000	0.000009	0.000085	-0.000189	0.595691	-8.972555	174.842782
57684	2.044738	0.129861	12.929956	-0.003856	0.005137	3.278589	1.000000	-0.000007	0.000098	-0.000165	0.594229	-8.974046	174.850238
57685	2.050728	0.128183	12.926704	-0.010035	0.007036	3.276294	1.000000	-0.000009	0.000114	-0.000187	0.592899	-8.973592	174.852463
57686	2.058441	0.136365	12.922088	-0.019031	-0.000316	3.273021	1.000000	0.000017	0.000103	-0.000186	0.594859	-8.974295	174.850527
57687	2.065283	0.147913	12.939017	-0.023922	-0.011260	3.290928	1.000000	-0.000006	0.000104	-0.000193	0.593730	-8.975203	174.859373
57688	2.055750	0.141875	12.953460	-0.011750	-0.006229	3.303645	1.000000	0.000001	0.000113	-0.000189	0.593741	-8.974728	174.858524
57689	2.041304	0.122566	12.938809	0.001618	0.011834	3.286724	1.000000	0.000004	0.000123	-0.000179	0.593982	-8.972986	174.856730
57690	2.040715	0.129487	12.916401	-0.002458	0.004927	3.264570	1.000000	-0.000003	0.000135	-0.000167	0.593038	-8.969992	174.858386
57691	2.032803	0.132900	12.929487	0.006922	0.000664	3.276298	1.000000	-0.000001	0.000095	-0.000188	0.592821	-8.971661	174.858818
57692	2.050170	0.151497	12.941379	-0.009839	-0.016538	3.290941	1.000000	-0.000014	0.000111	-0.000208	0.591496	-8.971253	174.853387
57693	2.050778	0.121467	12.942270	-0.007632	0.013233	3.291608	1.000000	0.000005	0.000107	-0.000167	0.591380	-8.971694	174.859857
57694	2.036975	0.133380	12.936074	0.003913	0.000148	3.283459	1.000000	0.000003	0.000114	-0.000179	0.591312	-8.971171	174.864185
57695	2.042876	0.131952	12.932854	-0.002353	0.002004	3.281184	1.000000	-0.000004	0.000105	-0.000182	0.590454	-8.971382	174.863707
57696	2.042206	0.123672	12.943604	0.000739	0.009982	3.291613	1.000000	-0.000002	0.000106	-0.000172	0.589742	-8.971484	174.863723
57697	2.046343	0.112678	12.941762	-0.002680	0.021192	3.290326	1.000000	-0.000003	0.000114	-0.000183	0.589246	-8.970947	174.863424
57698	2.038976	0.131383	12.921613	-0.000442	0.002015	3.269467	1.000000	0.000013	0.000125	-0.000164	0.590051	-8.969373	174.871163
57699	2.035007	0.135712	12.943619	0.006457	-0.002449	3.290629	1.000000	0.000012	0.000096	-0.000179	0.591370	-8.970688	174.865409
57700	2.023469	0.138771	12.947698	0.018303	-0.006418	3.292891	1.000000	-0.000001	0.000112	-0.000200	0.591340	-8.970247	174.862164
57701	2.025529	0.136695	12.935533	0.014536	-0.004244	3.281175	1.000000	-0.000008	0.000106	-0.000176	0.590193	-8.970533	174.860708
57702	2.024500	0.147062	12.934589	0.014539	-0.014558	3.280188	1.000000	0.000017	0.000104	-0.000186	0.592208	-8.970858	174.854146
57703	2.027187	0.126816	12.934076	0.013848	0.005946	3.279894	1.000000	-0.000005	0.000096	-0.000181	0.591435	-8.972330	174.854334
57704	2.057283	0.144032	12.951293	-0.014256	-0.008757	3.301766	1.000000	0.000002	0.000097	-0.000177	0.591183	-8.973838	174.858036
57705	2.030909	0.126148	12.931209	0.010464	0.006731	3.277634	1.000000	0.000002	0.000097	-0.000177	0.591048	-8.975309	174.859666
57706	2.042750	0.134895	12.935542	-0.000974	-0.001019	3.283849	1.000000	0.000002	0.000097	-0.000177	0.590853	-8.976667	174.860695
57707	2.046774	0.142336	12.921988	-0.007491	-0.008168	3.271165	1.000000	-0.000010	0.000105	-0.000186	0.589694	-8.977165	174.859038
57708	2.047615	0.143740	12.931411	-0.007112	-0.009496	3.280618	1.000000	0.000015	0.000123	-0.000181	0.591163	-8.975504	174.858566
57709	2.057374	0.143171	12.937176	-0.015789	-0.007900	3.287828	1.000000	0.000002	0.000097	-0.000177	0.591182	-8.976838	174.856469
57710	2.054588	0.143898	12.937610	-0.012966	-0.008934	3.287830	1.000000	-0.000003	0.000115	-0.000183	0.590716	-8.976175	174.855213
57711	2.041079	0.137363	12.943077	0.001667	-0.003566	3.291056	1.000000	0.000010	0.000112	-0.000202	0.591913	-8.975921	174.854243
57712	2.043890	0.117185	12.942570	0.000938	0.016932	3.290787	1.000000	0.000001	0.000084	-0.000204	0.592221	-8.978898	174.853052
57713	2.037161	0.135976	12.922298	0.003155	-0.002195	3.269908	1.000000	0.000009	0.000103	-0.000201	0.593318	-8.979639	174.851672
57714	2.010796	0.115929	12.955591	0.036553	0.015471	3.298472	1.000000	0.000007	0.000084	-0.000200	0.594112	-8.982750	174.855638
57715	2.017006	0.133134	12.940598	0.027229	-0.001042	3.284808	1.000000	0.000003	0.000080	-0.000165	0.593882	-8.985839	174.853615
57716	2.055943	0.135899	12.933961	-0.011366	-0.000202	3.284358	1.000000	0.000024	0.000062	-0.000158	0.595953	-8.991166	174.855376
57717	2.099648	0.136162	12.914779	-0.056616	0.003808	3.272242	1.000000	0.000015	0.000097	-0.000169	0.597221	-8.992329	174.854011
57718	2.105959	0.147884	12.931825	-0.061326	-0.007192	3.290183	1.000000	0.000005	0.000133	-0.000180	0.597505	-8.989611	174.855315
57719	2.068925	0.148076	12.957267	-0.021930	-0.010691	3.309529	1.000000	-0.000003	0.000161	-0.000180	0.596951	-8.983629	174.854748
57720	2.002042	0.137768	12.942873	0.041248	-0.006246	3.284770	1.000000	0.000004	0.000150	-0.000192	0.597265	-8.978667	174.852427
57721	1.968008	0.143882	12.945330	0.073642	-0.015575	3.281955	1.000000	-0.000025	0.000133	-0.000190	0.594315	-8.975672	174.849158
57722	1.966754	0.122644	12.935908	0.075196	0.005234	3.272235	1.000000	0.000008	0.000088	-0.000172	0.594795	-8.978002	174.849501
57723	2.031033	0.122637	12.940034	0.013666	0.011151	3.286331	1.000000	0.000019	0.000050	-0.000178	0.596880	-8.984716	174.848125
57724	2.070575	0.138175	12.953642	-0.023360	-0.000947	3.306103	1.000000	-0.000008	0.000081	-0.000163	0.595255	-8.987868	174.850437
57725	2.096385	0.129291	12.921552	-0.052025	0.009994	3.278349	1.000000	0.000003	0.000063	-0.000154	0.594799	-8.993191	174.855079
57726	2.084971	0.131935	12.925574	-0.040169	0.006094	3.280568	1.000000	-0.000014	0.000133	-0.000192	0.593184	-8.990283	174.851197
57727	2.059879	0.136025	12.924394	-0.016818	-0.000326	3.275524	1.000000	-0.000000	0.000142	-0.000185	0.593037	-8.986354	174.849087
57728	2.041859	0.128670	12.920971	0.000166	0.005423	3.269255	1.000000	-0.000003	0.000141	-0.000195	0.592716	-8.982673	174.848086
57729	2.035252	0.123093	12.944462	0.009946	0.010231	3.291369	1.000000	-0.000007	0.000142	-0.000189	0.591747	-8.978789	174.846981
57730	1.999883	0.119567	12.948176	0.045149	0.010306	3.289486	1.000000	-0.000013	0.000116	-0.000181	0.589866	-8.978318	174.852080
57731	2.014779	0.116192	12.941403	0.029820	0.014911	3.285085	1.000000	0.000013	0.000097	-0.000179	0.590912	-8.979834	174.854897
57732	2.043929	0.139697	12.926886	-0.002537	-0.005654	3.275533	1.000000	0.000013	0.000080	-0.000167	0.592015	-8.983619	174.861441
57733	2.070201	0.157110	12.935281	-0.028033	-0.020382	3.288103	1.000000	0.000019	0.000094	-0.000202	0.594269	-8.985180	174.856855
57734	2.090456	0.151498	12.915908	-0.050105	-0.012606	3.272073	1.000000	0.000004	0.000095	-0.000194	0.594894	-8.986660	174.853222
57735	2.075338	0.135283	12.922692	-0.032862	0.002210	3.276247	1.000000	-0.000003	0.000132	-0.000195	0.594555	-8.983990	174.851702
57736	2.045817	0.123578	12.945709	0.000181	0.011076	3.294254	1.000000	-0.000008	0.000133	-0.000188	0.593622	-8.981224	174.851014
57737	2.040040	0.133135	12.935937	0.002765	0.000952	3.283798	1.000000	-0.000000	0.000143	-0.000185	0.593145	-8.977566	174.855232
57738	2.013511	0.127868	12.936011	0.028795	0.003962	3.279681	1.000000	0.000012	0.000117	-0.000164	0.593994	-8.976614	174.856839
57739	2.023338	0.127352	12.941838	0.020203	0.005407	3.286964	1.000000	-0.000000	0.000096	-0.000188	0.593903	-8.978301	174.858601
57740	2.029251	0.144798	12.926926	0.010998	-0.011192	3.273335	1.000000	0.000020	0.000086	-0.000191	0.596178	-8.980910	174.856937
57741	2.054381	0.134327	12.948423	-0.008856	0.001694	3.298380	1.000000	0.000012	0.000088	-0.000179	0.597157	-8.983234	174.857302
57742	2.056596	0.119712	12.916069	-0.014489	0.016569	3.266620	1.000000	-0.000001	0.000108	-0.000171	0.596483	-8.983473	174.859935
57743	2.062833	0.131200	12.933141	-0.019027	0.005539	3.284574	1.000000	-0.000005	0.000114	-0.000193	0.596094	-8.982856	174.856471
57744	2.070727	0.121134	12.940401	-0.025090	0.016321	3.292871	1.000000	0.000009	0.000124	-0.000185	0.597024	-8.980867	174.852531
57745	2.043794	0.134299	12.928728	-0.001969	0.001000	3.277276	1.000000	0.000004	0.000125	-0.000179	0.597196	-8.979070	174.854217
57746	2.008539	0.131017	12.932313	0.033209	0.001271	3.275285	1.000000	0.000011	0.000125	-0.000175	0.598008	-8.977454	174.858704
57747	2.024824	0.137458	12.924288	0.015167	-0.003529	3.269965	1.000000	0.000003	0.000107	-0.000178	0.598140	-8.977589	174.856900
57748	2.033056	0.127517	12.931496	0.009121	0.007265	3.278265	1.000000	0.000014	0.000106	-0.000180	0.599610	-8.977762	174.854222
57749	2.035953	0.138613	12.939508	0.007056	-0.003480	3.286745	1.000000	0.000001	0.000080	-0.000176	0.599394	-8.981495	174.857898
57750	2.059523	0.151722	12.917504	-0.020340	-0.014530	3.268824	1.000000	-0.000008	0.000108	-0.000176	0.598347	-8.981640	174.857274
57751	2.064603	0.122427	12.927435	-0.021121	0.014930	3.279123	1.000000	-0.000001	0.000105	-0.000199	0.598351	-8.982205	174.854970
57752	2.049084	0.124696	12.922453	-0.006822	0.011472	3.271804	1.000000	0.000014	0.000116	-0.000180	0.599800	-8.981565	174.855736
57753	2.056277	0.133248	12.918051	-0.015746	0.003847	3.268666	1.000000	0.000003	0.000133	-0.000190	0.600134	-8.978688	174.853504
57754	2.039713	0.120390	12.946345	0.005883	0.015313	3.293895	1.000000	0.000014	0.000107	-0.000180	0.601570	-8.979166	174.854459
57755	2.049143	0.119783	12.952286	-0.002698	0.016672	3.301227	1.000000	-0.000014	0.000137	-0.000165	0.599486	-8.976211	174.858535
57756	2.029685	0.121124	12.938325	0.013881	0.013626	3.284418	1.000000	0.000015	0.000099	-0.000169	0.600919	-8.977270	174.857409
57757	2.032194	0.132262	12.946399	0.011828	0.002819	3.292899	1.000000	-0.000001	0.000114	-0.000200	0.600762	-8.976936	174.858988
57758	2.061342	0.124543	12.923627	-0.019489	0.013162	3.274872	1.000000	-0.000001	0.000088	-0.000187	0.600696	-8.979477	174.858674
57759	2.050007	0.127266	12.927554	-0.007460	0.009338	3.277012	1.000000	0.000002	0.000098	-0.000177	0.600569	-8.981121	174.863281
57760	2.065074	0.136865	12.941103	-0.020970	0.000925	3.292845	1.000000	-0.000005	0.000118	-0.000166	0.599469	-8.980206	174.866240
57761	2.060570	0.127999	12.942917	-0.015507	0.009219	3.293842	1.000000	0.000001	0.000106	-0.000188	0.599402	-8.980808	174.868194
57762	2.041072	0.129434	12.928946	0.001145	0.006210	3.277016	1.000000	0.000003	0.000134	-0.000190	0.599885	-8.978235	174.868759
57763	2.050535	0.128845	12.934903	-0.007497	0.007503	3.284370	1.000000	-0.000010	0.000107	-0.000186	0.598506	-8.978441	174.867873
57764	2.034948	0.143476	12.950104	0.008656	-0.008760	3.297105	1.000000	-0.000006	0.000126	-0.000177	0.597394	-8.976254	174.866384
57765	2.037031	0.141558	12.938046	0.004732	-0.006701	3.285500	1.000000	0.000005	0.000109	-0.000167	0.597542	-8.976609	174.870508
57766	2.025219	0.131322	12.921825	0.014725	0.002391	3.267530	1.000000	-0.000010	0.000107	-0.000186	0.596348	-8.976774	174.868864
57767	2.060250	0.128216	12.938692	-0.016747	0.008345	3.289620	1.000000	0.000003	0.000108	-0.000178	0.596247	-8.977172	174.872043
57768	2.061028	0.129781	12.948157	-0.016163	0.006920	3.299106	1.000000	0.000008	0.000116	-0.000185	0.597035	-8.976692	174.874138
57769	2.049164	0.119825	12.931944	-0.006194	0.016022	3.281140	1.000000	0.000005	0.000105	-0.000195	0.597718	-8.977014	174.870737
57770	2.049411	0.139795	12.929684	-0.008446	-0.003743	3.279152	1.000000	0.000003	0.000108	-0.000178	0.597919	-8.977295	174.871564
57771	2.044954	0.131055	12.931488	-0.003088	0.004559	3.280149	1.000000	0.000002	0.000116	-0.000189	0.597890	-8.976498	174.870387
57772	2.041671	0.131748	12.932000	-0.000211	0.003494	3.280149	1.000000	-0.000008	0.000134	-0.000188	0.596848	-8.973825	174.872194
57773	2.044737	0.124219	12.951806	0.000574	0.011070	3.300113	1.000000	0.000001	0.000080	-0.000176	0.596695	-8.977192	174.872500
57774	2.034628	0.123497	12.934205	0.007986	0.010813	3.281144	1.000000	-0.000008	0.000125	-0.000188	0.595694	-8.975315	174.871178
57775	2.040590	0.122409	12.931148	0.001689	0.012477	3.279044	1.000000	0.000015	0.000099	-0.000169	0.597028	-8.976591	174.873473
57776	2.048298	0.131075	12.926709	-0.007198	0.004740	3.275951	1.000000	0.000007	0.000107	-0.000184	0.597651	-8.976729	174.872295
57777	2.043970	0.122468	12.928493	-0.001862	0.013047	3.276949	1.000000	0.000009	0.000108	-0.000173	0.598237	-8.976803	174.872920
57778	2.051500	0.143558	12.944276	-0.008629	-0.007565	3.293930	1.000000	-0.000018	0.000109	-0.000174	0.595721	-8.976969	174.875707
57779	2.055498	0.151043	12.930837	-0.015208	-0.014852	3.281356	1.000000	0.000000	0.000097	-0.000188	0.595924	-8.978195	174.872516
57780	2.048089	0.123181	12.935327	-0.004819	0.012280	3.284349	1.000000	0.000002	0.000125	-0.000190	0.596263	-8.976375	174.871560
57781	2.028664	0.137330	12.941463	0.013786	-0.003507	3.287526	1.000000	0.000005	0.000109	-0.000167	0.596348	-8.976320	174.872606
57782	2.039001	0.118330	12.959148	0.007892	0.016139	3.306410	1.000000	-0.000013	0.000117	-0.000181	0.594773	-8.975202	174.870365
57783	2.040683	0.134767	12.935369	0.001039	-0.000244	3.283354	1.000000	0.000002	0.000099	-0.000177	0.594541	-8.976198	174.869527
57784	2.031305	0.115538	12.929461	0.011150	0.017875	3.275860	1.000000	-0.000012	0.000109	-0.000169	0.592707	-8.976189	174.871438
57785	2.056631	0.132757	12.938271	-0.013804	0.002560	3.288687	1.000000	-0.000012	0.000106	-0.000197	0.591355	-8.976944	174.873293
57786	2.041333	0.134711	12.933162	0.000453	-0.000727	3.281275	1.000000	0.000013	0.000098	-0.000179	0.592658	-8.978175	174.872970
57787	2.061642	0.142175	12.934277	-0.019757	-0.006270	3.285621	1.000000	-0.000001	0.000106	-0.000199	0.592561	-8.978801	174.873157
57788	2.048940	0.116869	12.951288	-0.002598	0.017737	3.300182	1.000000	0.000002	0.000125	-0.000190	0.592526	-8.976734	174.871469
57789	2.043655	0.126556	12.941403	0.000022	0.007704	3.289693	1.000000	0.000005	0.000109	-0.000167	0.592629	-8.976839	174.873211
57790	2.038719	0.136283	12.931460	0.002550	-0.002318	3.279202	1.000000	0.000007	0.000098	-0.000183	0.593187	-8.977797	174.870760
57791	2.031641	0.108525	12.935900	0.012804	0.024787	3.282200	1.000000	0.000007	0.000107	-0.000184	0.593727	-8.977905	174.869994
57792	2.054726	0.135238	12.934376	-0.012371	0.000447	3.284568	1.000000	0.000012	0.000107	-0.000190	0.595046	-8.978408	174.870653
57793	2.039121	0.150078	12.949458	0.004042	-0.015669	3.297184	1.000000	-0.000001	0.000109	-0.000171	0.594595	-8.978269	174.869991
57794	2.038119	0.147459	12.928334	0.002251	-0.013281	3.276136	1.000000	-0.000005	0.000090	-0.000181	0.593678	-8.980744	174.872303
57795	2.055464	0.135662	12.932178	-0.013057	-0.000041	3.282518	1.000000	0.000006	0.000119	-0.000168	0.594071	-8.979611	174.872939
57796	2.039942	0.150411	12.947237	0.003472	-0.016158	3.295121	1.000000	-0.000000	0.000089	-0.000187	0.593974	-8.982190	174.874026
57797	2.043591	0.117408	12.926660	-0.000255	0.017048	3.275028	1.000000	0.000005	0.000110	-0.000167	0.593896	-8.981803	174.872961
57798	2.045800	0.128511	12.934797	-0.002175	0.006160	3.283524	1.000000	0.000005	0.000110	-0.000167	0.593908	-8.981617	174.873202
57799	2.031788	0.139992	12.928336	0.009648	-0.006422	3.275074	1.000000	0.000001	0.000107	-0.000188	0.594186	-8.981968	174.873362
57800	2.045409	0.127655	12.923184	-0.003474	0.007144	3.271983	1.000000	0.000010	0.000109	-0.000173	0.594777	-8.981856	174.873629
57801	2.038657	0.140435	12.934787	0.003886	-0.006378	3.282522	1.000000	-0.000012	0.000110	-0.000169	0.592861	-8.981978	174.876204
57802	2.043317	0.129503	12.933112	0.000034	0.004575	3.281482	1.000000	-0.000010	0.000108	-0.000186	0.591585	-8.982369	174.877551
57803	2.040491	0.130300	12.933550	0.002867	0.003522	3.281482	1.000000	0.000012	0.000107	-0.000190	0.592827	-8.982664	174.876993
57804	2.044508	0.138270	12.920139	-0.003677	-0.003874	3.268945	1.000000	0.000003	0.000099	-0.000177	0.592879	-8.983933	174.878836
57805	2.045999	0.121680	12.941341	-0.000410	0.013033	3.289948	1.000000	0.000024	0.000125	-0.000194	0.595662	-8.982183	174.877749
57806	2.035285	0.134089	12.943946	0.009119	0.000059	3.290977	1.000000	-0.000005	0.000116	-0.000193	0.595422	-8.981099	174.873957
57807	2.032326	0.134752	12.944404	0.011951	-0.000971	3.290975	1.000000	-0.000003	0.000108	-0.000182	0.594902	-8.981201	174.874149
57808	2.038429	0.133616	12.941397	0.005623	0.000595	3.288945	1.000000	-0.000003	0.000108	-0.000182	0.594408	-8.981450	174.874678
57809	2.035696	0.134482	12.941818	0.008428	-0.000453	3.288943	1.000000	0.000013	0.000099	-0.000179	0.595620	-8.982511	174.874328
57810	2.050912	0.131759	12.935345	-0.007157	0.003695	3.284896	1.000000	-0.000007	0.000106	-0.000203	0.595018	-8.982753	174.871070
57811	2.044006	0.144448	12.946954	0.000277	-0.009799	3.295415	1.000000	-0.000007	0.000119	-0.000176	0.593896	-8.981878	174.872442
57812	2.048798	0.121101	12.925145	-0.006052	0.013995	3.274382	1.000000	0.000017	0.000119	-0.000170	0.595229	-8.980731	174.873429
57813	2.025669	0.134456	12.922106	0.014946	-0.001148	3.267909	1.000000	0.000001	0.000108	-0.000188	0.595330	-8.980809	174.871956
57814	2.049118	0.142635	12.932461	-0.007451	-0.007363	3.281879	1.000000	-0.000006	0.000128	-0.000177	0.594262	-8.978713	174.873706
57815	2.039266	0.136263	12.946759	0.004746	-0.002021	3.294399	1.000000	0.000003	0.000109	-0.000178	0.594324	-8.978560	174.872677
57816	2.036391	0.137145	12.947202	0.007539	-0.003041	3.294398	1.000000	0.000010	0.000109	-0.000173	0.595143	-8.978381	174.872078
57817	2.046483	0.124103	12.933073	-0.003344	0.010865	3.281882	1.000000	-0.000003	0.000109	-0.000182	0.594414	-8.978888	174.874960
57818	2.043503	0.124851	12.933537	-0.000475	0.009809	3.281883	1.000000	0.000004	0.000118	-0.000178	0.594551	-8.978060	174.876142
57819	2.054348	0.134386	12.938304	-0.011522	0.001428	3.288380	1.000000	0.000015	0.000118	-0.000180	0.595835	-8.976775	174.874757
57820	2.052899	0.131980	12.917287	-0.013453	0.003809	3.267371	1.000000	-0.000006	0.000128	-0.000177	0.594679	-8.974940	174.877303
57821	2.049274	0.145499	12.937975	-0.008167	-0.010109	3.287378	1.000000	-0.000000	0.000116	-0.000199	0.594833	-8.974223	174.875706
57822	2.034362	0.128855	12.944561	0.008640	0.005097	3.291388	1.000000	0.000000	0.000128	-0.000173	0.594344	-8.971994	174.876528
57823	2.032606	0.139262	12.943708	0.009023	-0.005338	3.290379	1.000000	0.000008	0.000108	-0.000184	0.595114	-8.971810	174.874527
57824	2.035122	0.137574	12.931684	0.004860	-0.003332	3.278877	1.000000	-0.000001	0.000110	-0.000171	0.594791	-8.971877	174.876209
57825	2.047162	0.128493	12.948134	-0.001932	0.006386	3.296909	1.000000	0.000003	0.000100	-0.000177	0.594236	-8.979932	174.829919
57826	2.050048	0.126713	12.936059	-0.006136	0.008407	3.285415	1.000000	-0.000004	0.000091	-0.000181	0.593772	-8.982079	174.829001
57827	2.051229	0.128318	12.945485	-0.005546	0.006868	3.294925	1.000000	0.000015	0.000092	-0.000168	0.594871	-8.983864	174.830062
57828	2.041179	0.127623	12.927826	0.001668	0.006787	3.275908	1.000000	-0.000006	0.000128	-0.000177	0.594025	-8.981852	174.830918
57829	2.054485	0.128068	12.942970	-0.009085	0.007332	3.292947	1.000000	-0.000004	0.000087	-0.000208	0.593794	-8.984263	174.827148
57830	2.030095	0.131556	12.941166	0.014397	0.001725	3.287395	1.000000	0.000005	0.000128	-0.000179	0.594217	-8.982303	174.827281
57831	2.026863	0.132533	12.941662	0.017202	0.000697	3.287391	1.000000	0.000015	0.000118	-0.000180	0.595699	-8.981173	174.827021
57832	2.045424	0.130820	12.944378	-0.000658	0.004253	3.292952	1.000000	0.000003	0.000109	-0.000178	0.595857	-8.980817	174.826057
57833	2.020987	0.134297	12.942563	0.022773	-0.001349	3.287383	1.000000	0.000003	0.000110	-0.000178	0.596005	-8.980734	174.826141
57834	2.044851	0.129988	12.932853	-0.002048	0.005137	3.281471	1.000000	0.000005	0.000128	-0.000179	0.596129	-8.978742	174.827063
57835	2.049649	0.119509	12.931236	-0.006036	0.015971	3.280514	1.000000	0.000002	0.000091	-0.000176	0.595825	-8.981112	174.829032
57836	2.051920	0.130791	12.939371	-0.007714	0.005027	3.289019	1.000000	0.000010	0.000107	-0.000201	0.597132	-8.981394	174.826894
57837	2.046586	0.140285	12.929462	-0.005066	-0.004974	3.278498	1.000000	-0.000019	0.000128	-0.000186	0.594805	-8.979340	174.826323
57838	2.052588	0.139050	12.926543	-0.011380	-0.003533	3.276538	1.000000	-0.000004	0.000100	-0.000181	0.594134	-8.980788	174.827678
57839	2.050648	0.121252	12.938715	-0.006094	0.013808	3.288075	1.000000	-0.000007	0.000119	-0.000176	0.593126	-8.979298	174.826867
57840	2.052499	0.132438	12.946918	-0.007785	0.002884	3.296580	1.000000	0.000014	0.000109	-0.000180	0.594642	-8.979148	174.825967
57841	2.027951	0.136001	12.945081	0.015689	-0.002683	3.290974	1.000000	0.000002	0.000118	-0.000189	0.594736	-8.978281	174.825467
57842	2.043221	0.133636	12.938739	0.000052	0.001255	3.287068	1.000000	0.000017	0.000090	-0.000185	0.596498	-8.980506	174.824987
57843	2.044888	0.122579	12.928008	-0.001861	0.012633	3.276614	1.000000	0.000001	0.000099	-0.000188	0.596539	-8.981748	174.824335
57844	2.058352	0.123251	12.943173	-0.012511	0.013071	3.293700	1.000000	0.000003	0.000101	-0.000177	0.596505	-8.982939	174.825613
57845	2.047191	0.141062	12.913800	-0.007950	-0.005364	3.263131	1.000000	0.000014	0.000136	-0.000192	0.598019	-8.979757	174.823834
57846	2.046110	0.133097	12.924715	-0.004933	0.002511	3.273661	1.000000	-0.000009	0.000118	-0.000187	0.596847	-8.978728	174.823582
57847	2.039772	0.127429	12.948037	0.005160	0.007438	3.295649	1.000000	0.000004	0.000119	-0.000178	0.597086	-8.977457	174.823209
57848	2.043635	0.135383	12.934719	-0.001402	-0.000080	3.283180	1.000000	0.000003	0.000101	-0.000177	0.597063	-8.978613	174.824065
57849	2.040759	0.136120	12.935166	0.001411	-0.001136	3.283179	1.000000	-0.000004	0.000118	-0.000193	0.596507	-8.977574	174.822651
57850	2.037647	0.136801	12.935649	0.004241	-0.002170	3.283179	1.000000	-0.000002	0.000119	-0.000183	0.596097	-8.976467	174.822229
57851	2.035746	0.119003	12.947822	0.009619	0.015136	3.294723	1.000000	-0.000008	0.000101	-0.000175	0.594819	-8.977676	174.823787
57852	2.051380	0.144487	12.928464	-0.010858	-0.008747	3.278303	1.000000	0.000016	0.000102	-0.000168	0.596303	-8.978473	174.824768
57853	2.058372	0.125275	12.937302	-0.014862	0.011002	3.287925	1.000000	-0.000006	0.000129	-0.000177	0.595164	-8.975965	174.825089
57854	2.037084	0.129267	12.944523	0.006489	0.005025	3.291778	1.000000	0.000002	0.000118	-0.000189	0.595259	-8.975015	174.824610
57855	2.053370	0.136326	12.936957	-0.011458	-0.000517	3.286917	1.000000	-0.000001	0.000111	-0.000171	0.594924	-8.974932	174.825671
57856	2.035296	0.118599	12.934356	0.007404	0.015379	3.281348	1.000000	-0.000007	0.000120	-0.000176	0.593916	-8.974113	174.827231
57857	2.033534	0.128943	12.933498	0.007925	0.004938	3.280332	1.000000	0.000008	0.000109	-0.000184	0.594813	-8.973997	174.825958
57858	2.032930	0.121162	12.944340	0.010935	0.012790	3.290868	1.000000	0.000012	0.000109	-0.000190	0.595994	-8.974095	174.825095
57859	2.045707	0.127664	12.927711	-0.005009	0.007723	3.276500	1.000000	0.000006	0.000121	-0.000168	0.596278	-8.972464	174.825664
57860	2.049576	0.135792	12.914412	-0.011649	0.000133	3.264052	1.000000	0.000012	0.000100	-0.000190	0.597265	-8.973463	174.825207
57861	2.054066	0.138465	12.932960	-0.012951	-0.001998	3.283100	1.000000	0.000013	0.000092	-0.000178	0.598308	-8.975835	174.826998
57862	2.046579	0.128794	12.925632	-0.005832	0.006936	3.274595	1.000000	-0.000017	0.000117	-0.000202	0.596568	-8.974543	174.823550
57863	2.052506	0.127932	12.922779	-0.012203	0.008348	3.272692	1.000000	0.000015	0.000119	-0.000180	0.598175	-8.973690	174.823956
57864	2.044080	0.131380	12.935645	-0.002232	0.004315	3.284122	1.000000	0.000007	0.000100	-0.000183	0.598654	-8.974597	174.823984
57865	2.027436	0.123396	12.931667	0.014199	0.010803	3.277515	1.000000	-0.000002	0.000119	-0.000183	0.598124	-8.973381	174.824326
57866	2.034693	0.132058	12.927476	0.005521	0.002722	3.274597	1.000000	-0.000005	0.000109	-0.000193	0.597506	-8.973507	174.822952
57867	2.052644	0.143069	12.950508	-0.009391	-0.006930	3.300258	1.000000	-0.000008	0.000102	-0.000175	0.596341	-8.974573	174.824236
57868	2.031516	0.124655	12.938726	0.011422	0.009598	3.285137	1.000000	0.000016	0.000102	-0.000168	0.597840	-8.975563	174.825640
57869	2.026695	0.134370	12.928708	0.014063	-0.000419	3.274591	1.000000	0.000000	0.000091	-0.000187	0.597499	-8.977587	174.825362
57870	2.044413	0.123041	12.932876	-0.001501	0.012307	3.281353	1.000000	-0.000009	0.000110	-0.000186	0.596487	-8.977463	174.824327
57871	2.040309	0.114184	12.934649	0.003601	0.020694	3.282373	1.000000	0.000010	0.000111	-0.000173	0.597184	-8.977438	174.826011
57872	2.035436	0.118210	12.956578	0.011650	0.016182	3.303314	1.000000	-0.000003	0.000101	-0.000181	0.596636	-8.978818	174.826886
57873	2.046292	0.133268	12.929535	-0.004338	0.002111	3.278452	1.000000	-0.000001	0.000102	-0.000171	0.596130	-8.979911	174.828564
57874	2.050325	0.135582	12.948169	-0.005657	-0.000026	3.297509	1.000000	-0.000002	0.000120	-0.000183	0.595623	-8.978705	174.828329
57875	2.039291	0.125083	12.931759	0.003520	0.009425	3.279472	1.000000	0.000001	0.000100	-0.000188	0.595467	-8.979642	174.827718
57876	2.043276	0.132953	12.918467	-0.003048	0.001838	3.267046	1.000000	-0.000007	0.000111	-0.000176	0.594271	-8.979646	174.829068
57877	2.034922	0.136004	12.931301	0.007000	-0.002149	3.278451	1.000000	-0.000001	0.000099	-0.000198	0.594182	-8.980787	174.827445
57878	2.057186	0.135389	12.943296	-0.012730	0.000481	3.293765	1.000000	0.000010	0.000111	-0.000173	0.595008	-8.981143	174.829667
57879	2.048799	0.138733	12.956130	-0.002666	-0.003504	3.305167	1.000000	0.000007	0.000101	-0.000183	0.595616	-8.982127	174.829265
57880	2.048141	0.136328	12.935069	-0.005007	-0.001121	3.284238	1.000000	-0.000003	0.000111	-0.000182	0.594921	-8.981987	174.829672
57881	2.047524	0.128366	12.945934	-0.001972	0.006749	3.294791	1.000000	0.000008	0.000110	-0.000184	0.595712	-8.982090	174.829891
57882	2.048186	0.135482	12.923535	-0.006544	-0.000322	3.272844	1.000000	-0.000012	0.000091	-0.000196	0.594200	-8.984184	174.828209
57883	2.055884	0.138771	12.951238	-0.009920	-0.003034	3.301441	1.000000	0.000016	0.000112	-0.000169	0.595558	-8.983674	174.829098
57884	2.048234	0.129019	12.943933	-0.002810	0.005941	3.292933	1.000000	-0.000021	0.000119	-0.000196	0.593241	-8.982692	174.827512
57885	2.056792	0.119225	12.951491	-0.009122	0.016143	3.301632	1.000000	0.000004	0.000094	-0.000166	0.593195	-8.984504	174.829605
57886	2.038369	0.119823	12.936972	0.007147	0.013863	3.284423	1.000000	-0.000002	0.000093	-0.000170	0.592633	-8.986605	174.831328
57887	2.064022	0.125408	12.926198	-0.019990	0.010391	3.277843	1.000000	-0.000007	0.000112	-0.000176	0.591457	-8.986868	174.833427
57888	2.051917	0.127562	12.929966	-0.007806	0.007026	3.279698	1.000000	-0.000002	0.000120	-0.000183	0.591192	-8.985893	174.833596
57889	2.045564	0.121912	12.953244	0.002383	0.011943	3.301640	1.000000	0.000002	0.000110	-0.000188	0.591129	-8.985602	174.832313
57890	2.046992	0.138754	12.929595	-0.004356	-0.004576	3.278677	1.000000	0.000006	0.000122	-0.000168	0.591314	-8.984311	174.834106
57891	2.039268	0.129279	12.922297	0.002735	0.004442	3.270166	1.000000	0.000011	0.000118	-0.000201	0.592877	-8.983511	174.832153
57892	2.033940	0.133304	12.944269	0.010885	-0.000114	3.291078	1.000000	-0.000008	0.000120	-0.000187	0.591618	-8.982675	174.832718
57893	2.045724	0.130243	12.929058	-0.002799	0.004058	3.277862	1.000000	0.000016	0.000103	-0.000168	0.592911	-8.983709	174.834894
57894	2.035207	0.142235	12.931418	0.007283	-0.008804	3.278673	1.000000	-0.000004	0.000092	-0.000181	0.592205	-8.986164	174.836463
57895	2.039305	0.150214	12.918134	0.000597	-0.016399	3.266275	1.000000	0.000002	0.000110	-0.000188	0.592354	-8.985728	174.834908
57896	2.046523	0.130938	12.927069	-0.003553	0.003231	3.276029	1.000000	-0.000013	0.000121	-0.000181	0.590607	-8.984539	174.835171
57897	2.037820	0.133904	12.939924	0.006674	-0.000725	3.287397	1.000000	0.000004	0.000112	-0.000178	0.590706	-8.984777	174.836619
57898	2.047449	0.139482	12.914289	-0.007188	-0.005443	3.263638	1.000000	-0.000009	0.000101	-0.000186	0.589552	-8.985883	174.836639
57899	2.044707	0.134584	12.946633	0.001058	-0.000992	3.295106	1.000000	0.000004	0.000112	-0.000178	0.589990	-8.985588	174.836495
57900	2.031537	0.132847	12.919758	0.009941	-0.000263	3.266489	1.000000	0.000002	0.000110	-0.000188	0.590276	-8.985510	174.835718
57901	2.040029	0.123686	12.927363	0.003537	0.009915	3.275232	1.000000	0.000023	0.000110	-0.000192	0.592948	-8.985188	174.833837
57902	2.041739	0.135248	12.935591	0.002212	-0.001195	3.283744	1.000000	0.000005	0.000104	-0.000166	0.592980	-8.985872	174.835821
57903	2.051511	0.135215	12.941866	-0.006379	-0.000474	3.291466	1.000000	-0.000012	0.000103	-0.000169	0.591345	-8.986101	174.836182
57904	2.059079	0.121659	12.918860	-0.016077	0.013704	3.269786	1.000000	0.000012	0.000101	-0.000189	0.592575	-8.986887	174.835136
57905	2.043710	0.145727	12.932291	-0.001654	-0.011609	3.280898	1.000000	0.000008	0.000111	-0.000184	0.592390	-8.983352	174.858606
57906	2.038725	0.127233	12.935352	0.005462	0.006286	3.282955	1.000000	-0.000009	0.000102	-0.000186	0.591124	-8.984363	174.858418
57907	2.046084	0.136188	12.931223	-0.003173	-0.001934	3.280117	1.000000	0.000016	0.000113	-0.000169	0.592601	-8.983909	174.859397
57908	2.035042	0.148095	12.933631	0.006922	-0.014826	3.280893	1.000000	-0.000012	0.000118	-0.000208	0.591085	-8.983179	174.858159
57909	2.049210	0.136221	12.928902	-0.006758	-0.001797	3.278312	1.000000	0.000007	0.000105	-0.000156	0.591384	-8.983780	174.861332
57910	2.053022	0.138851	12.947596	-0.007939	-0.004038	3.297398	1.000000	0.000011	0.000122	-0.000174	0.592183	-8.982239	174.861755
57911	2.043169	0.138025	12.929839	-0.001187	-0.003924	3.278314	1.000000	0.000004	0.000112	-0.000178	0.592174	-8.981714	174.861117
57912	2.040478	0.138827	12.930255	0.001719	-0.005007	3.278313	1.000000	0.000001	0.000092	-0.000187	0.591998	-8.984002	174.861625
57913	2.059508	0.137650	12.933287	-0.016148	-0.002075	3.284265	1.000000	0.000006	0.000101	-0.000194	0.592813	-8.984671	174.858868
57914	2.046429	0.130228	12.938293	-0.001899	0.004086	3.287092	1.000000	-0.000008	0.000120	-0.000187	0.591691	-8.983339	174.857825
57915	2.052472	0.129468	12.935533	-0.008402	0.005288	3.285302	1.000000	0.000004	0.000112	-0.000178	0.591776	-8.983024	174.858525
57916	2.049780	0.130273	12.935952	-0.005518	0.004252	3.285304	1.000000	0.000001	0.000092	-0.000187	0.591819	-8.985193	174.858773
57917	2.043706	0.130063	12.927251	-0.000732	0.003852	3.275760	1.000000	-0.000007	0.000112	-0.000176	0.590881	-8.984762	174.858934
57918	2.040862	0.125312	12.959595	0.007661	0.008212	3.307213	1.000000	0.000012	0.000101	-0.000189	0.592130	-8.985894	174.858980
57919	2.047167	0.130327	12.924897	-0.004339	0.003983	3.273978	1.000000	0.000001	0.000114	-0.000161	0.591639	-8.985471	174.861611
57920	2.052276	0.120173	12.923440	-0.008776	0.014682	3.273232	1.000000	0.000012	0.000111	-0.000190	0.593069	-8.985243	174.860159
57921	2.032293	0.133459	12.929016	0.010694	-0.000292	3.275756	1.000000	-0.000007	0.000103	-0.000175	0.592072	-8.986151	174.861061
57922	2.033989	0.144548	12.937250	0.009493	-0.011387	3.284267	1.000000	-0.000003	0.000103	-0.000181	0.591690	-8.986935	174.860583
57923	2.049376	0.142448	12.931246	-0.006374	-0.007946	3.280718	1.000000	0.000004	0.000112	-0.000178	0.591891	-8.986497	174.860585
57924	2.033929	0.143527	12.925803	0.007743	-0.010617	3.272941	1.000000	-0.000016	0.000114	-0.000163	0.589509	-8.985934	174.862284
57925	2.039066	0.133166	12.924352	0.003254	0.000055	3.272204	1.000000	0.000011	0.000110	-0.000201	0.590817	-8.985652	174.859056
57926	2.042859	0.135817	12.943059	0.002127	-0.002252	3.291300	1.000000	-0.000003	0.000112	-0.000182	0.590159	-8.985137	174.858677
57927	2.033207	0.134651	12.925259	0.008847	-0.002067	3.272201	1.000000	-0.000009	0.000112	-0.000186	0.588982	-8.984822	174.857737
57928	2.041704	0.125258	12.932944	0.002451	0.007998	3.281021	1.000000	0.000010	0.000113	-0.000173	0.589844	-8.984466	174.858876
57929	2.061473	0.133927	12.934787	-0.017421	0.001212	3.286015	1.000000	0.000008	0.000103	-0.000183	0.590272	-8.985239	174.859055
57930	2.057741	0.125117	12.936519	-0.012611	0.009626	3.287055	1.000000	-0.000001	0.000104	-0.000171	0.589585	-8.985575	174.859377
57931	2.048316	0.124083	12.918684	-0.005923	0.009843	3.267957	1.000000	0.000005	0.000104	-0.000166	0.589759	-8.986064	174.860716
57932	2.053175	0.136308	12.936081	-0.009038	-0.001902	3.286023	1.000000	0.000002	0.000112	-0.000188	0.590066	-8.985713	174.859487
57933	2.039206	0.119404	12.942338	0.007267	0.013822	3.289850	1.000000	0.000016	0.000104	-0.000168	0.591381	-8.986498	174.861780
57934	2.050831	0.138980	12.946097	-0.005311	-0.004593	3.295577	1.000000	-0.000009	0.000112	-0.000186	0.590425	-8.986006	174.860137
57935	2.041203	0.137871	12.928288	0.001354	-0.004364	3.276474	1.000000	0.000004	0.000113	-0.000178	0.590632	-8.985474	174.860242
57936	2.046383	0.127687	12.926859	-0.003169	0.006329	3.275766	1.000000	0.000002	0.000112	-0.000188	0.590952	-8.985055	174.858409
57937	2.040110	0.127538	12.918181	0.001654	0.005905	3.266214	1.000000	-0.000002	0.000112	-0.000182	0.590432	-8.985016	174.859055
57938	2.050469	0.137241	12.923302	-0.008865	-0.003089	3.272988	1.000000	-0.000011	0.000123	-0.000170	0.588726	-8.983313	174.860122
57939	2.050710	0.138619	12.932924	-0.007949	-0.004781	3.282543	1.000000	-0.000009	0.000112	-0.000186	0.587552	-8.983054	174.859785
57940	2.043557	0.128909	12.925534	-0.001199	0.004301	3.274029	1.000000	0.000016	0.000104	-0.000168	0.588881	-8.983539	174.861048
57941	2.049557	0.150913	12.941601	-0.006102	-0.017010	3.291059	1.000000	0.000001	0.000093	-0.000187	0.588962	-8.985984	174.862027
57942	2.050461	0.130146	12.932351	-0.006706	0.003773	3.281852	1.000000	-0.000002	0.000131	-0.000183	0.588670	-8.983389	174.861503
57943	2.054048	0.138286	12.919224	-0.013368	-0.003965	3.269529	1.000000	0.000004	0.000113	-0.000178	0.588792	-8.982847	174.861117
57944	2.046631	0.122876	12.943760	-0.000928	0.010498	3.292450	1.000000	-0.000007	0.000113	-0.000176	0.587539	-8.982671	174.862557
57945	2.053760	0.131700	12.939744	-0.009457	0.002106	3.289685	1.000000	-0.000007	0.000113	-0.000176	0.586398	-8.982283	174.863448
57946	2.047491	0.131262	12.931066	-0.004717	0.001699	3.280131	1.000000	-0.000015	0.000112	-0.000191	0.584608	-8.982012	174.862035
57947	2.021859	0.124023	12.930052	0.020788	0.006509	3.275057	1.000000	0.000006	0.000123	-0.000168	0.584949	-8.980573	174.863768
57948	2.053852	0.132426	12.937986	-0.010265	0.001127	3.287970	1.000000	0.000016	0.000105	-0.000168	0.586292	-8.981234	174.865504
57949	2.057655	0.140500	12.924837	-0.016901	-0.006603	3.275657	1.000000	-0.000017	0.000123	-0.000175	0.584082	-8.979661	174.866000
57950	2.047890	0.133729	12.938918	-0.004547	-0.000930	3.287973	1.000000	0.000008	0.000103	-0.000183	0.584890	-8.980624	174.866426
57951	2.051835	0.142008	12.925745	-0.011160	-0.008687	3.275662	1.000000	0.000004	0.000113	-0.000178	0.585029	-8.980260	174.866512
57952	2.045237	0.136366	12.948987	-0.000787	-0.003679	3.297532	1.000000	0.000004	0.000123	-0.000178	0.585228	-8.978628	174.866127
57953	2.041440	0.127480	12.950734	0.004019	0.004778	3.298575	1.000000	-0.000003	0.000094	-0.000181	0.584598	-8.980338	174.865947
57954	2.042209	0.134556	12.928401	-0.000743	-0.002327	3.276708	1.000000	-0.000007	0.000113	-0.000176	0.583473	-8.979784	174.866400
57955	2.045696	0.137081	12.947180	-0.001749	-0.004709	3.295825	1.000000	0.000002	0.000122	-0.000189	0.583543	-8.978104	174.864412
57956	2.045303	0.134754	12.926187	-0.004595	-0.002251	3.275005	1.000000	0.000003	0.000104	-0.000177	0.583848	-8.978389	174.863704
57957	2.039272	0.134789	12.917460	0.000118	-0.002641	3.265446	1.000000	0.000016	0.000105	-0.000168	0.585192	-8.978920	174.865543
57958	2.046259	0.138515	12.945356	-0.002750	-0.005618	3.294126	1.000000	0.000002	0.000112	-0.000188	0.585538	-8.978290	174.863527
57959	2.048237	0.127479	12.934820	-0.005427	0.005677	3.283916	1.000000	0.000004	0.000113	-0.000178	0.585913	-8.977952	174.864027
57960	2.046699	0.109890	12.947042	-0.000496	0.023004	3.295570	1.000000	-0.000002	0.000113	-0.000182	0.585534	-8.977800	174.864438
57961	2.043217	0.138549	12.934442	-0.001682	-0.005962	3.282872	1.000000	-0.000004	0.000112	-0.000193	0.584775	-8.977399	174.863121
57962	2.045099	0.121875	12.955795	0.001297	0.010679	3.304088	1.000000	0.000002	0.000103	-0.000188	0.584840	-8.978040	174.861704
57963	2.036628	0.130327	12.936625	0.005880	0.001486	3.283917	1.000000	-0.000009	0.000113	-0.000186	0.583814	-8.977482	174.860526
57964	2.051174	0.118938	12.932095	-0.008144	0.014215	3.281596	1.000000	0.000016	0.000105	-0.000168	0.585402	-8.977849	174.861903
57965	2.047381	0.142323	12.951401	-0.003464	-0.009316	3.300311	1.000000	0.000001	0.000121	-0.000199	0.585556	-8.976839	174.860837
57966	2.048415	0.121664	12.942189	-0.004239	0.011429	3.291164	1.000000	0.000000	0.000112	-0.000199	0.585651	-8.976747	174.858914
57967	2.056648	0.140474	12.936878	-0.014591	-0.006536	3.287393	1.000000	0.000003	0.000095	-0.000176	0.585797	-8.978724	174.859856
57968	2.043834	0.132855	12.941738	-0.000422	-0.000221	3.290118	1.000000	-0.000000	0.000114	-0.000171	0.585076	-8.978242	174.861375
57969	2.046757	0.131406	12.929916	-0.005085	0.001522	3.278881	1.000000	0.000002	0.000113	-0.000188	0.585325	-8.978030	174.860627
57970	2.037108	0.124858	12.943943	0.007274	0.007191	3.291165	1.000000	0.000008	0.000104	-0.000183	0.585901	-8.978945	174.860994
57971	2.051118	0.141557	12.926373	-0.010698	-0.008070	3.276165	1.000000	0.000000	0.000112	-0.000199	0.585888	-8.978583	174.858311
57972	2.040334	0.125169	12.941741	0.003495	0.007100	3.289497	1.000000	-0.000004	0.000124	-0.000166	0.584608	-8.976789	174.860085
57973	2.048393	0.143726	12.936468	-0.006836	-0.010916	3.285733	1.000000	-0.000011	0.000093	-0.000196	0.583335	-8.978910	174.858972
57974	2.048145	0.135905	12.947336	-0.004033	-0.003153	3.296349	1.000000	0.000020	0.000105	-0.000174	0.585186	-8.978988	174.859029
57975	2.038045	0.125406	12.930732	0.004468	0.006686	3.278268	1.000000	0.000002	0.000104	-0.000188	0.585264	-8.979988	174.858786
57976	2.048594	0.135411	12.935907	-0.005868	-0.002504	3.285126	1.000000	-0.000009	0.000104	-0.000186	0.584065	-8.980537	174.858135
57977	2.058148	0.135792	12.942405	-0.014272	-0.002186	3.293039	1.000000	0.000002	0.000113	-0.000188	0.584176	-8.980118	174.857637
57978	2.042138	0.127188	12.938076	0.001676	0.004914	3.286179	1.000000	-0.000003	0.000095	-0.000181	0.583560	-8.981684	174.857559
57979	2.037410	0.140565	12.958664	0.008309	-0.009174	3.305911	1.000000	-0.000006	0.000124	-0.000176	0.582142	-8.979905	174.858165
57980	2.045431	0.127391	12.935884	-0.002101	0.004765	3.284529	1.000000	0.000016	0.000106	-0.000168	0.583383	-8.980400	174.859955
57981	2.039556	0.127251	12.927127	0.002634	0.004350	3.274962	1.000000	-0.000008	0.000096	-0.000175	0.581918	-8.982359	174.861808
57982	2.052304	0.128466	12.942811	-0.007661	0.003960	3.292455	1.000000	-0.000006	0.000124	-0.000176	0.580859	-8.980422	174.861888
57983	2.050162	0.138723	12.941980	-0.006768	-0.006610	3.291403	1.000000	-0.000005	0.000103	-0.000192	0.580297	-8.980855	174.860108
57984	2.045247	0.116033	12.914398	-0.004123	0.015503	3.263165	1.000000	-0.000001	0.000106	-0.000171	0.579663	-8.981328	174.861083
57985	2.051443	0.147544	12.929275	-0.009953	-0.014013	3.279144	1.000000	-0.000003	0.000104	-0.000181	0.586051	-8.983991	174.853171
57986	2.049145	0.120401	12.942807	-0.003229	0.012835	3.291876	1.000000	0.000011	0.000124	-0.000174	0.587025	-8.982633	174.855343
57987	2.041506	0.138525	12.922316	-0.000506	-0.005833	3.270629	1.000000	-0.000009	0.000095	-0.000185	0.585925	-8.984363	174.855027
57988	2.044033	0.127523	12.911756	-0.003345	0.005380	3.260481	1.000000	0.000012	0.000104	-0.000189	0.587291	-8.985270	174.854990
57989	2.041509	0.132566	12.942823	0.003461	0.000248	3.290823	1.000000	0.000001	0.000122	-0.000199	0.587706	-8.983763	174.852392
57990	2.050494	0.129143	12.918765	-0.008902	0.004683	3.268428	1.000000	0.000008	0.000105	-0.000183	0.588555	-8.984418	174.852342
57991	2.044138	0.123504	12.941923	0.001595	0.009783	3.290252	1.000000	0.000004	0.000105	-0.000177	0.588893	-8.984883	174.852388
57992	2.042078	0.133969	12.941072	0.002524	-0.000761	3.289197	1.000000	0.000002	0.000113	-0.000188	0.589158	-8.984199	174.850177
57993	2.039199	0.134789	12.941517	0.005433	-0.001788	3.289196	1.000000	0.000004	0.000105	-0.000177	0.589378	-8.985007	174.851858
57994	2.058014	0.134128	12.944968	-0.012386	0.000471	3.295533	1.000000	-0.000003	0.000105	-0.000181	0.588846	-8.985455	174.851552
57995	2.054575	0.125366	12.946674	-0.007749	0.008980	3.296592	1.000000	0.000012	0.000095	-0.000189	0.590246	-8.986913	174.849803
57996	2.037064	0.135067	12.930520	0.006327	-0.002105	3.278003	1.000000	-0.000010	0.000113	-0.000197	0.589456	-8.986869	174.848883
57997	2.041683	0.115280	12.930503	0.003451	0.017939	3.278505	1.000000	0.000002	0.000114	-0.000188	0.589725	-8.986511	174.848215
57998	2.055436	0.126573	12.944901	-0.008625	0.007951	3.294988	1.000000	0.000005	0.000085	-0.000192	0.590439	-8.988977	174.845530
57999	2.049636	0.126552	12.936126	-0.004002	0.007616	3.285416	1.000000	0.000007	0.000113	-0.000194	0.591194	-8.988566	174.844190
58000	2.044245	0.136124	12.926115	-0.001150	-0.002228	3.274784	1.000000	0.000004	0.000115	-0.000178	0.591463	-8.988265	174.845680
58001	2.043514	0.128285	12.937078	0.001714	0.005510	3.285417	1.000000	0.000003	0.000123	-0.000189	0.591532	-8.986621	174.845056
58002	2.047181	0.136635	12.924025	-0.004903	-0.002395	3.273183	1.000000	0.000006	0.000116	-0.000167	0.591591	-8.986031	174.847010
58003	1.964437	0.144587	12.930566	0.076973	-0.017775	3.266808	1.000000	-0.000009	0.000095	-0.000185	0.590606	-8.987923	174.847081
58004	2.012660	0.112444	12.937797	0.034597	0.018313	3.281147	1.000000	0.000003	0.000041	-0.000162	0.590700	-8.995864	174.849223
58005	2.166269	0.119902	12.935559	-0.116564	0.024130	3.303014	1.000000	-0.000013	0.000099	-0.000141	0.588184	-8.996860	174.852691
58006	2.120832	0.132830	12.928617	-0.074250	0.007132	3.289188	1.000000	0.000009	0.000133	-0.000185	0.589301	-8.994280	174.852668
58007	2.007535	0.162643	12.932696	0.034077	-0.032479	3.275822	1.000000	-0.000005	0.000177	-0.000218	0.589042	-8.986753	174.849136
58008	1.955748	0.145587	12.920524	0.083498	-0.020114	3.255546	1.000000	-0.000010	0.000122	-0.000198	0.587848	-8.985007	174.847031
58009	1.991600	0.123014	12.920504	0.050464	0.005081	3.260892	1.000000	-0.000027	0.000076	-0.000187	0.584787	-8.988905	174.846053
58010	2.086338	0.130553	12.959436	-0.036301	0.005048	3.314212	1.000000	-0.000022	0.000061	-0.000154	0.581646	-8.994524	174.848863
58011	2.167248	0.120706	12.932350	-0.118321	0.021558	3.300007	1.000000	-0.000004	0.000089	-0.000153	0.580452	-8.997218	174.853153
58012	2.098825	0.115287	12.924819	-0.051839	0.020530	3.281823	1.000000	-0.000015	0.000135	-0.000165	0.578237	-8.994178	174.854735
58013	2.027217	0.118948	12.906895	0.014513	0.010756	3.252969	1.000000	0.000021	0.000150	-0.000215	0.581095	-8.989063	174.849576
58014	1.995893	0.123291	12.916576	0.045560	0.003897	3.257685	1.000000	-0.000009	0.000132	-0.000198	0.580094	-8.986033	174.846482
58015	2.042087	0.123333	12.941700	0.003628	0.007667	3.289711	1.000000	-0.000005	0.000116	-0.000165	0.579034	-8.985219	174.848116
58016	2.084593	0.112757	12.958913	-0.034739	0.021686	3.313241	1.000000	-0.000005	0.000116	-0.000165	0.577978	-8.984535	174.850156
58017	2.078173	0.112552	12.950240	-0.030206	0.021353	3.303669	1.000000	0.000009	0.000134	-0.000185	0.578779	-8.981600	174.849207
58018	2.037490	0.114040	12.932311	0.006163	0.016824	3.279628	1.000000	0.000018	0.000142	-0.000198	0.581332	-8.977782	174.846815
58019	2.015369	0.155196	12.924532	0.022568	-0.025505	3.268909	1.000000	0.000020	0.000122	-0.000214	0.584042	-8.976513	174.843295
58020	2.002364	0.189438	12.945549	0.035545	-0.060521	3.287986	1.000000	0.000004	0.000106	-0.000177	0.584175	-8.976992	174.843620
58021	2.051490	0.172728	12.919869	-0.014754	-0.039680	3.270113	1.000000	-0.000015	0.000071	-0.000150	0.581856	-8.981587	174.847283
58022	2.075980	0.163922	12.943126	-0.034270	-0.029595	3.296814	1.000000	-0.000027	0.000129	-0.000135	0.577738	-8.979289	174.852138
58023	0.333948	0.237405	13.185809	1.714001	-0.258747	3.265107	0.999999	0.000075	-0.000113	0.001507	0.555692	-9.006897	175.048244
58024	2.463277	0.172166	12.739718	-0.425622	-0.013026	3.157139	0.999998	-0.000316	-0.001200	-0.001208	0.538020	-9.155980	174.928193
58025	3.907725	0.287810	12.763263	-1.834673	-0.003268	3.411835	1.000000	0.000061	0.000026	-0.000439	0.549593	-9.165011	174.897788
58026	2.809638	0.213413	12.949195	-0.727961	-0.028282	3.419489	1.000000	-0.000303	0.000865	-0.000090	0.512784	-9.078204	174.908462
58027	1.710048	-0.445003	12.996781	0.397592	0.529031	3.286954	0.999999	0.000010	0.000949	-0.000448	0.518699	-8.981672	174.878094
58028	1.356415	0.026917	13.072325	0.699969	0.031249	3.311158	1.000000	0.000128	0.000502	-0.000407	0.537049	-8.936390	174.852255
58029	1.465028	0.031072	12.847934	0.556515	0.040038	3.106499	1.000000	0.000029	-0.000167	-0.000077	0.538200	-8.968375	174.864755
58030	2.039260	-0.099990	12.825201	0.010322	0.221559	3.172117	1.000000	0.000074	-0.000432	-0.000095	0.544989	-9.030937	174.875165
58031	2.611422	0.309981	12.920060	-0.562397	-0.135427	3.359592	1.000000	0.000128	-0.000200	-0.000135	0.558463	-9.066411	174.880964
58032	2.763124	0.104855	12.922293	-0.690870	0.084095	3.383794	1.000000	0.000044	0.000249	-0.000170	0.563026	-9.050176	174.881982
58033	2.295074	0.023955	12.943303	-0.227282	0.125347	3.329978	1.000000	0.000064	0.000527	-0.000229	0.570974	-9.002133	174.877031
58034	1.826066	0.216934	12.943366	0.205143	-0.105111	3.258622	1.000000	0.000088	0.000618	-0.000276	0.582229	-8.943411	174.866078
58035	1.474900	0.299260	12.987877	0.540758	-0.214875	3.249137	1.000000	0.000093	0.000351	-0.000305	0.594854	-8.915626	174.852189
58036	1.400253	0.359841	12.943244	0.600325	-0.279660	3.194201	1.000000	0.000041	0.000002	-0.000188	0.599467	-8.927967	174.851307
58037	1.875998	0.266067	13.001841	0.155540	-0.145018	3.324771	1.000000	-0.000035	-0.000232	-0.000051	0.592549	-8.967456	174.866867
58038	2.175353	0.252211	12.986694	-0.131333	-0.107668	3.356259	1.000000	-0.000092	-0.000234	-0.000064	0.579581	-9.006712	174.880097
58039	2.443705	0.134394	12.920231	-0.389362	0.030430	3.331498	1.000000	-0.000073	-0.000030	-0.000107	0.569416	-9.022309	174.888330
58040	2.326954	0.089467	12.901805	-0.273233	0.063069	3.294588	1.000000	-0.000054	0.000218	-0.000191	0.563130	-9.009802	174.887724
58041	1.989796	0.059841	12.882352	0.053540	0.062212	3.222309	1.000000	-0.000028	0.000340	-0.000202	0.559750	-8.983619	174.886530
58042	1.798266	0.094019	12.972397	0.248385	0.010388	3.281734	1.000000	-0.000043	0.000227	-0.000193	0.554794	-8.969914	174.885076
58043	1.826432	0.069052	12.954465	0.218406	0.036695	3.268205	1.000000	-0.000043	0.000111	-0.000126	0.548545	-8.969835	174.891957
58044	1.930432	-0.017114	12.959890	0.125589	0.130151	3.288949	1.000000	-0.000044	0.000018	-0.000109	0.541979	-8.980604	174.901048
58045	2.103426	-0.057487	12.968545	-0.037629	0.184371	3.324110	1.000000	-0.000004	0.000035	-0.000138	0.540150	-8.989263	174.906808
58046	2.136090	-0.009589	12.962648	-0.073377	0.140280	3.323832	1.000000	0.000071	0.000075	-0.000229	0.549038	-8.993160	174.901271
58047	2.070612	0.077037	12.964417	-0.016013	0.050683	3.316161	1.000000	0.000095	0.000144	-0.000303	0.561982	-8.989258	174.888188
58048	1.985458	0.144150	12.881606	0.048676	-0.020400	3.221722	1.000000	0.000097	0.000118	-0.000280	0.574790	-8.988541	174.877821
58049	1.978665	0.229485	12.905235	0.052087	-0.103979	3.244852	1.000000	0.000057	0.000076	-0.000211	0.581468	-8.992476	174.875050
58050	2.072196	0.226205	12.915679	-0.036948	-0.091735	3.269750	1.000000	0.000011	0.000071	-0.000159	0.582063	-8.997123	174.878662
58051	2.118543	0.217413	12.942327	-0.077004	-0.079213	3.303223	1.000000	-0.000002	0.000101	-0.000143	0.580434	-8.998091	174.883238
58052	2.120291	0.201016	12.963834	-0.074063	-0.062805	3.324573	1.000000	0.000015	0.000135	-0.000181	0.581746	-8.995420	174.884494
58053	2.068254	0.221213	12.936867	-0.029943	-0.087091	3.290009	1.000000	0.000001	0.000170	-0.000213	0.582188	-8.988596	174.881999
58054	1.971074	0.218290	12.937746	0.064839	-0.092529	3.275677	1.000000	0.000001	0.000139	-0.000239	0.582998	-8.984980	174.875444
58055	1.933218	0.200206	12.931162	0.102765	-0.078224	3.263080	1.000000	-0.000041	0.000066	-0.000206	0.578692	-8.989917	174.872736
58056	2.005532	0.134453	12.924660	0.037946	-0.008212	3.267281	1.000000	-0.000086	0.000015	-0.000130	0.567648	-9.000401	174.877610
58057	2.118606	0.065140	12.915460	-0.066456	0.068143	3.275199	1.000000	-0.000082	0.000017	-0.000109	0.556532	-9.010885	174.885418
58058	2.203945	0.013204	12.944515	-0.139539	0.125286	3.316778	1.000000	-0.000036	0.000054	-0.000135	0.551375	-9.017235	174.890647
58059	2.176541	0.013243	12.932452	-0.114487	0.122202	3.300580	1.000000	-0.000009	0.000162	-0.000200	0.550514	-9.011227	174.887871
58060	2.083784	0.040434	12.938731	-0.026368	0.087479	3.292510	1.000000	0.000032	0.000188	-0.000230	0.554891	-9.001923	174.881661
58061	2.007563	0.084336	12.927281	0.041184	0.038012	3.269701	1.000000	0.000022	0.000170	-0.000217	0.557684	-8.994809	174.877164
58062	1.995255	0.096509	12.929492	0.051809	0.025620	3.270079	1.000000	0.000038	0.000109	-0.000171	0.561537	-8.994742	174.878348
58063	2.035882	0.096125	12.936555	0.013489	0.030125	3.283397	1.000000	0.000019	0.000082	-0.000145	0.562903	-8.998273	174.883676
58064	2.096808	0.122849	12.933899	-0.048835	0.009465	3.290555	1.000000	0.000036	0.000108	-0.000182	0.566876	-8.998215	174.882615
58065	2.083160	0.157811	12.954816	-0.035144	-0.025469	3.309425	1.000000	0.000054	0.000115	-0.000207	0.573377	-8.997569	174.880121
58066	2.067222	0.207123	12.933402	-0.027659	-0.074542	3.286277	1.000000	0.000041	0.000151	-0.000229	0.578656	-8.992772	174.874648
58067	2.028077	0.237524	12.911262	0.003723	-0.107174	3.258606	1.000000	0.000020	0.000151	-0.000226	0.581528	-8.988087	174.870098
58068	2.005668	0.230574	12.918909	0.027210	-0.102204	3.262590	1.000000	-0.000019	0.000097	-0.000184	0.579023	-8.989591	174.869969
58069	2.003200	0.182835	12.934986	0.036606	-0.056284	3.277599	1.000000	-0.000064	0.000102	-0.000122	0.570015	-8.990975	174.878569
58070	2.045287	0.148490	12.924626	-0.003181	-0.019846	3.273595	1.000000	-0.000026	0.000093	-0.000122	0.565506	-8.993012	174.886066
58071	2.056353	0.120489	12.944419	-0.008251	0.007932	3.294599	1.000000	-0.000030	0.000100	-0.000144	0.561178	-8.994104	174.890465
58072	2.053500	0.120538	12.944872	-0.005399	0.006844	3.294601	1.000000	-0.000017	0.000117	-0.000174	0.558686	-8.993349	174.892397
58073	2.043760	0.108903	12.928194	0.002241	0.016952	3.276496	1.000000	-0.000033	0.000124	-0.000205	0.554874	-8.991692	174.889700
58074	2.008678	0.091269	12.930775	0.038373	0.030575	3.273399	1.000000	-0.000030	0.000116	-0.000183	0.551029	-8.991008	174.890091
58075	2.024812	0.042402	12.941001	0.028534	0.080127	3.285554	1.000000	-0.000011	0.000087	-0.000195	0.550063	-8.993489	174.888559
58076	2.046100	0.019797	12.925973	0.007542	0.104263	3.273824	1.000000	-0.000004	0.000100	-0.000153	0.548784	-8.994258	174.890635
58077	2.060315	0.051240	12.938106	-0.007207	0.074527	3.288324	1.000000	0.000047	0.000108	-0.000184	0.553673	-8.994070	174.889676
58078	2.063396	0.112412	12.940136	-0.015537	0.015200	3.291392	1.000000	0.000056	0.000136	-0.000198	0.560189	-8.990881	174.887264
58079	2.043694	0.155152	12.941317	-0.000005	-0.027598	3.289896	1.000000	0.000054	0.000116	-0.000207	0.566723	-8.990182	174.884898
58080	2.021114	0.196596	12.933225	0.017167	-0.069529	3.278788	1.000000	0.000036	0.000124	-0.000221	0.571536	-8.988614	174.880975
58081	2.017647	0.188387	12.934947	0.021624	-0.061038	3.279870	1.000000	0.000011	0.000097	-0.000199	0.572705	-8.990184	174.879556
58082	2.030863	0.186546	12.920264	0.007145	-0.057824	3.267413	1.000000	0.000009	0.000080	-0.000171	0.573289	-8.993950	174.882601
58083	2.049384	0.176761	12.925374	-0.009014	-0.046708	3.275255	1.000000	-0.000016	0.000109	-0.000163	0.570853	-8.994158	174.885378
58084	2.058922	0.177197	12.932143	-0.017236	-0.046923	3.283434	1.000000	-0.000019	0.000098	-0.000184	0.568267	-8.995636	174.885693
58085	2.055582	0.167653	12.933875	-0.012789	-0.038329	3.284526	1.000000	-0.000031	0.000115	-0.000194	0.565003	-8.995073	174.885551
58086	2.039712	0.157998	12.929300	0.002714	-0.030708	3.277433	1.000000	-0.000009	0.000119	-0.000159	0.563134	-8.994079	174.888674
58087	2.025374	0.120184	12.937797	0.021317	0.004875	3.283216	1.000000	-0.000042	0.000109	-0.000154	0.557707	-8.994293	174.893186
58088	2.045122	0.081373	12.956061	0.008091	0.043874	3.303969	1.000000	-0.000048	0.000099	-0.000157	0.551516	-8.995115	174.894622
58089	2.057866	0.068782	12.942700	-0.005067	0.056680	3.292647	1.000000	-0.000012	0.000080	-0.000167	0.549784	-8.998150	174.895049
58090	2.073480	0.058056	12.938598	-0.019739	0.068513	3.290935	1.000000	0.000008	0.000108	-0.000183	0.550176	-8.998361	174.895708
58091	2.071576	0.078164	12.936498	-0.019963	0.048288	3.288754	1.000000	-0.000011	0.000115	-0.000208	0.549091	-8.997940	174.894389
58092	2.050814	0.090526	12.941401	0.000451	0.034212	3.290470	1.000000	0.000025	0.000090	-0.000179	0.551420	-9.000688	174.897033
58093	2.045162	0.090844	12.932574	0.004866	0.034010	3.280870	1.000000	0.000021	0.000115	-0.000213	0.554112	-9.000139	174.894057
58094	2.043963	0.130855	12.927936	0.001550	-0.005368	3.276484	1.000000	0.000018	0.000126	-0.000197	0.556199	-8.998160	174.892167
58095	2.053251	0.132551	12.934759	-0.006622	-0.005629	3.284691	1.000000	0.000036	0.000099	-0.000181	0.559921	-8.999648	174.893978
58096	2.058359	0.174989	12.948535	-0.013030	-0.046748	3.299508	1.000000	0.000030	0.000108	-0.000186	0.563055	-8.999628	174.892471
58097	2.049754	0.188047	12.959784	-0.003732	-0.059916	3.309403	1.000000	0.000023	0.000098	-0.000190	0.565642	-9.000882	174.891313
58098	2.038515	0.195442	12.931201	0.002290	-0.068025	3.279489	1.000000	-0.000008	0.000117	-0.000187	0.564409	-9.000165	174.891231
58099	2.032220	0.185231	12.923682	0.008122	-0.058661	3.270977	1.000000	-0.000005	0.000100	-0.000164	0.563088	-9.000917	174.892061
58100	2.034081	0.158495	12.946434	0.012479	-0.032704	3.293477	1.000000	-0.000041	0.000098	-0.000180	0.558030	-9.002544	174.893365
58101	2.033953	0.136264	12.928047	0.011808	-0.011225	3.275080	1.000000	-0.000007	0.000099	-0.000175	0.556743	-9.003338	174.892336
58102	2.063732	0.107265	12.942212	-0.012538	0.019678	3.293448	1.000000	-0.000022	0.000099	-0.000167	0.553461	-9.004358	174.893020
58103	2.057482	0.096705	12.934696	-0.006655	0.029043	3.284948	1.000000	-0.000017	0.000118	-0.000174	0.551006	-9.003480	174.894296
58104	2.063692	0.096230	12.932327	-0.013410	0.029619	3.283576	1.000000	-0.000011	0.000118	-0.000170	0.549185	-9.002247	174.894652
58105	2.035691	0.086506	12.921303	0.013003	0.036569	3.268218	1.000000	-0.000010	0.000116	-0.000197	0.548000	-9.001349	174.892576
58106	2.017204	0.090043	12.936697	0.033340	0.031327	3.280565	1.000000	0.000013	0.000099	-0.000189	0.549140	-9.002585	174.891497
58107	2.042085	0.079039	12.929819	0.009020	0.044741	3.277557	1.000000	0.000013	0.000099	-0.000189	0.550263	-9.003662	174.890220
58108	2.052957	0.109586	12.932798	-0.003658	0.015640	3.282489	1.000000	0.000022	0.000107	-0.000202	0.552688	-9.004015	174.888302
58109	2.046923	0.113963	12.954548	0.005595	0.011278	3.303068	1.000000	0.000022	0.000088	-0.000200	0.555521	-9.006134	174.885345
58110	2.045923	0.140436	12.920534	-0.000920	-0.014304	3.269572	1.000000	0.000037	0.000128	-0.000183	0.559490	-9.004245	174.886420
58111	2.049406	0.163306	12.936975	-0.004144	-0.036305	3.286576	1.000000	0.000007	0.000117	-0.000194	0.560153	-9.003082	174.883826
58112	2.024762	0.164913	12.933879	0.019237	-0.039727	3.279682	1.000000	0.000019	0.000118	-0.000185	0.562194	-9.001861	174.882485
58113	2.031510	0.174834	12.930213	0.011168	-0.048695	3.277213	1.000000	0.000002	0.000108	-0.000188	0.562579	-9.002379	174.883875
58114	2.031551	0.176615	12.939910	0.012634	-0.050661	3.286814	1.000000	-0.000007	0.000109	-0.000175	0.561321	-9.003021	174.887196
58115	2.040179	0.157701	12.949326	0.007378	-0.031850	3.297277	1.000000	-0.000039	0.000099	-0.000170	0.556143	-9.004305	174.888807
58116	2.049647	0.134847	12.928098	-0.002980	-0.008763	3.277571	1.000000	0.000004	0.000090	-0.000176	0.556090	-9.006242	174.888252
58117	2.049691	0.136212	12.937807	-0.001718	-0.010717	3.287180	1.000000	-0.000038	0.000127	-0.000172	0.551148	-9.003910	174.888199
58118	2.048497	0.108275	12.951359	0.004008	0.016102	3.300111	1.000000	-0.000018	0.000090	-0.000172	0.548608	-9.006286	174.889723
58119	2.036893	0.095546	12.925252	0.012903	0.027237	3.272392	1.000000	-0.000018	0.000099	-0.000173	0.545992	-9.007965	174.892676
58120	2.046089	0.086675	12.933374	0.006163	0.036470	3.281769	1.000000	-0.000001	0.000100	-0.000170	0.545370	-9.009194	174.895018
58121	2.050168	0.095165	12.920440	-0.000474	0.028283	3.269714	1.000000	-0.000000	0.000110	-0.000171	0.544794	-9.009348	174.896771
58122	2.059114	0.086740	12.928607	-0.007284	0.037538	3.279100	1.000000	0.000015	0.000110	-0.000179	0.546218	-9.009195	174.896686
58123	2.041064	0.109686	12.941435	0.010256	0.013242	3.289161	1.000000	0.000003	0.000127	-0.000189	0.546452	-9.007141	174.896279
58124	2.042303	0.127186	12.918011	0.003728	-0.003605	3.266386	1.000000	0.000022	0.000108	-0.000201	0.549283	-9.007645	174.896172
58125	2.039325	0.151871	12.946532	0.008732	-0.028178	3.294324	1.000000	0.000014	0.000128	-0.000190	0.550370	-9.005364	174.894211
58126	2.043146	0.160876	12.933634	0.002006	-0.036404	3.282270	1.000000	0.000019	0.000100	-0.000184	0.552124	-9.006149	174.891786
58127	2.052195	0.152681	12.941792	-0.004657	-0.027180	3.291664	1.000000	0.000010	0.000110	-0.000172	0.552922	-9.006500	174.894974
58128	2.043117	0.165041	12.953053	0.004892	-0.040323	3.301484	1.000000	-0.000002	0.000118	-0.000182	0.552363	-9.005733	174.896139
58129	2.046178	0.154138	12.942728	0.001008	-0.029334	3.291661	1.000000	-0.000007	0.000109	-0.000175	0.551133	-9.005412	174.895371
58130	2.049626	0.152772	12.931126	-0.004209	-0.027951	3.280728	1.000000	-0.000013	0.000118	-0.000181	0.549323	-9.004469	174.895885
58131	2.037191	0.153702	12.934418	0.008170	-0.030612	3.282042	1.000000	-0.000029	0.000118	-0.000183	0.545507	-9.003498	174.895736
58132	2.042651	0.124068	12.935888	0.005627	-0.001295	3.284067	1.000000	-0.000014	0.000092	-0.000151	0.543097	-9.005240	174.898071
58133	2.045744	0.103276	12.926790	0.003179	0.019321	3.275371	1.000000	-0.000008	0.000109	-0.000186	0.542045	-9.005299	174.897345
58134	2.045876	0.105009	12.936487	0.004572	0.017348	3.284984	1.000000	-0.000002	0.000100	-0.000181	0.541455	-9.006577	174.898511
58135	2.052938	0.114722	12.932823	-0.003599	0.008231	3.282561	1.000000	0.000004	0.000100	-0.000176	0.541498	-9.007452	174.897922
58136	2.056316	0.104048	12.922465	-0.007456	0.019209	3.272760	1.000000	0.000001	0.000108	-0.000198	0.541585	-9.007665	174.896360
58137	2.046527	0.097113	12.936268	0.004810	0.025297	3.284796	1.000000	0.000007	0.000118	-0.000194	0.542315	-9.006462	174.894205
58138	2.043896	0.107837	12.935453	0.006262	0.014570	3.283680	1.000000	0.000013	0.000109	-0.000189	0.543396	-9.006601	174.893455
58139	2.038862	0.127320	12.924067	0.007841	-0.004736	3.271829	1.000000	0.000024	0.000109	-0.000191	0.546253	-9.006913	174.894079
58140	2.041791	0.130678	12.943037	0.007709	-0.007564	3.291056	1.000000	0.000006	0.000101	-0.000166	0.546514	-9.007572	174.894852
58141	2.045947	0.149043	12.928890	-0.000348	-0.025400	3.277907	1.000000	0.000001	0.000127	-0.000200	0.546644	-9.005447	174.892363
58142	2.033826	0.160533	12.930871	0.010640	-0.037566	3.278077	1.000000	0.000024	0.000110	-0.000191	0.549340	-9.005286	174.890885
58143	2.045825	0.163218	12.947103	0.000956	-0.038881	3.296012	1.000000	0.000004	0.000120	-0.000178	0.549667	-9.003764	174.889675
58144	2.042469	0.154234	12.948852	0.005167	-0.030378	3.297129	1.000000	-0.000007	0.000110	-0.000175	0.548338	-9.003709	174.889963
58145	2.043355	0.151835	12.927958	0.001208	-0.028064	3.276608	1.000000	-0.000007	0.000100	-0.000175	0.547234	-9.004242	174.888243
58146	2.042777	0.134016	12.940224	0.005305	-0.010811	3.288464	1.000000	-0.000017	0.000110	-0.000174	0.544912	-9.004050	174.888244
58147	2.055171	0.122272	12.927177	-0.008173	0.001714	3.277404	1.000000	-0.000006	0.000129	-0.000177	0.544031	-9.001885	174.889424
58148	2.045664	0.124915	12.939690	0.002855	-0.001757	3.288301	1.000000	0.000012	0.000099	-0.000199	0.545481	-9.003324	174.888710
58149	2.039700	0.105393	12.933356	0.009864	0.017303	3.280929	1.000000	0.000004	0.000091	-0.000176	0.545486	-9.005584	174.890405
58150	2.049413	0.116226	12.939023	0.000344	0.007174	3.288147	1.000000	-0.000006	0.000120	-0.000176	0.544190	-9.004454	174.891192
58151	2.030237	0.109701	12.955573	0.022251	0.011827	3.301432	1.000000	0.000003	0.000109	-0.000188	0.544396	-9.004527	174.891037
58152	2.059219	0.105626	12.926399	-0.010408	0.018636	3.277113	1.000000	0.000002	0.000100	-0.000187	0.544697	-9.005323	174.889464
58153	2.041003	0.118648	12.940330	0.008748	0.004115	3.288145	1.000000	0.000010	0.000101	-0.000172	0.545602	-9.006056	174.890304
58154	2.054394	0.126855	12.924688	-0.007453	-0.002699	3.274869	1.000000	0.000009	0.000110	-0.000183	0.546166	-9.006136	174.890947
58155	2.042187	0.138089	12.926655	0.003665	-0.014866	3.275008	1.000000	0.000006	0.000130	-0.000168	0.546258	-9.004014	174.894222
58156	2.036004	0.161488	12.945881	0.010541	-0.038457	3.293252	1.000000	0.000024	0.000101	-0.000190	0.548950	-9.004846	174.892271
58157	2.046138	0.149352	12.923500	-0.001647	-0.025073	3.272617	1.000000	0.000002	0.000100	-0.000187	0.549126	-9.005730	174.890679
58158	2.036819	0.152248	12.935957	0.009325	-0.028547	3.283491	1.000000	0.000024	0.000110	-0.000191	0.551702	-9.005512	174.889152
58159	2.052605	0.152024	12.930913	-0.007024	-0.026654	3.280977	1.000000	-0.000000	0.000111	-0.000171	0.551237	-9.005163	174.889921
58160	2.040352	0.153134	12.934110	0.005312	-0.029159	3.282228	1.000000	-0.000019	0.000109	-0.000185	0.548912	-9.004844	174.888418
58161	2.034108	0.132966	12.927835	0.012170	-0.010040	3.274862	1.000000	-0.000011	0.000111	-0.000169	0.547211	-9.004629	174.889560
58162	2.049786	0.132196	12.922828	-0.004157	-0.008135	3.272361	1.000000	-0.000006	0.000120	-0.000176	0.546295	-9.003385	174.890631
58163	2.046608	0.123067	12.924562	-0.000092	0.000411	3.273491	1.000000	-0.000005	0.000102	-0.000164	0.545062	-9.003944	174.891412
58164	2.055435	0.104931	12.934105	-0.005546	0.019160	3.284126	1.000000	0.000004	0.000111	-0.000177	0.545543	-9.004078	174.893498
58165	2.052926	0.115444	12.933261	-0.003966	0.008473	3.282998	1.000000	0.000003	0.000100	-0.000187	0.545610	-9.005385	174.893967
58166	2.037886	0.115737	12.927155	0.009854	0.006902	3.274618	1.000000	0.000004	0.000120	-0.000178	0.545712	-9.004273	174.894850
58167	2.034227	0.097501	12.930198	0.015223	0.025093	3.276879	1.000000	0.000024	0.000120	-0.000191	0.548449	-9.002803	174.893224
58168	2.053213	0.117925	12.931943	-0.005136	0.006731	3.281764	1.000000	0.000003	0.000110	-0.000188	0.548519	-9.002542	174.891956
58169	2.043969	0.130407	12.943131	0.004514	-0.006329	3.291487	1.000000	0.000021	0.000112	-0.000174	0.550457	-9.001919	174.891053
58170	2.034597	0.133134	12.955575	0.015525	-0.009776	3.302338	1.000000	-0.000004	0.000100	-0.000192	0.549897	-9.002876	174.888976
58171	2.044982	0.130530	12.931979	0.001975	-0.006119	3.280633	1.000000	0.000015	0.000111	-0.000179	0.551088	-9.002804	174.889612
58172	2.038129	0.134418	12.953751	0.011649	-0.010461	3.301101	1.000000	0.000003	0.000120	-0.000188	0.551439	-9.001636	174.889338
58173	2.051394	0.142594	12.938198	-0.004617	-0.017292	3.287893	1.000000	0.000006	0.000102	-0.000166	0.551711	-9.002330	174.891006
58174	2.051610	0.144727	12.947885	-0.003100	-0.019355	3.297514	1.000000	0.000012	0.000091	-0.000199	0.552882	-9.004691	174.889876
58175	2.046053	0.144469	12.939023	0.001147	-0.019477	3.287890	1.000000	-0.000000	0.000121	-0.000172	0.552332	-9.003576	174.891524
58176	2.030662	0.134826	12.934191	0.016199	-0.011358	3.280619	1.000000	-0.000008	0.000110	-0.000186	0.551285	-9.003478	174.890795
58177	2.052873	0.122883	12.918500	-0.007176	0.002405	3.268481	1.000000	-0.000002	0.000111	-0.000182	0.550847	-9.003006	174.889688
58178	2.062093	0.123963	12.925545	-0.015290	0.001834	3.276892	1.000000	-0.000017	0.000111	-0.000174	0.548654	-9.002888	174.891067
58179	2.040123	0.115833	12.932710	0.008032	0.007631	3.280455	1.000000	-0.000008	0.000120	-0.000187	0.547782	-9.001944	174.891819
58180	2.065117	0.105162	12.926332	-0.016645	0.020429	3.277963	1.000000	0.000003	0.000101	-0.000187	0.548104	-9.002928	174.891699
58181	2.044053	0.116793	12.930852	0.004037	0.006953	3.279244	1.000000	0.000004	0.000092	-0.000176	0.548125	-9.004619	174.891188
58182	2.041259	0.117481	12.931288	0.006834	0.005885	3.279244	1.000000	-0.000006	0.000121	-0.000176	0.546955	-9.003228	174.891416
58183	2.057145	0.126889	12.925092	-0.010775	-0.001998	3.275698	1.000000	0.000016	0.000113	-0.000168	0.548388	-9.002862	174.893356
58184	2.050446	0.130828	12.946821	-0.001084	-0.006358	3.296149	1.000000	0.000009	0.000102	-0.000183	0.549194	-9.003567	174.892848
58185	2.051545	0.129201	12.925959	-0.005195	-0.004052	3.275701	1.000000	0.000027	0.000110	-0.000208	0.552708	-9.003288	174.889148
58186	2.032628	0.132797	12.941087	0.015453	-0.008820	3.287718	1.000000	0.000013	0.000111	-0.000189	0.554164	-9.002970	174.887934
58187	2.044929	0.154944	12.954891	0.003509	-0.029661	3.303487	1.000000	0.000003	0.000111	-0.000188	0.554369	-9.002650	174.886397
58188	2.052311	0.151045	12.922106	-0.008766	-0.025056	3.272225	1.000000	-0.000008	0.000129	-0.000187	0.553361	-9.000639	174.886896
58189	2.044545	0.125595	12.947747	0.004686	-0.000613	3.296091	1.000000	0.000006	0.000122	-0.000167	0.553292	-8.999218	174.888218
58190	2.048552	0.134397	12.934921	-0.001929	-0.008971	3.284134	1.000000	0.000004	0.000093	-0.000176	0.553320	-9.001365	174.889380
58191	2.045632	0.135164	12.935375	0.000969	-0.010050	3.284133	1.000000	-0.000003	0.000129	-0.000194	0.552824	-8.999369	174.889080
58192	2.039865	0.134752	12.926544	0.005226	-0.010154	3.274506	1.000000	0.000004	0.000102	-0.000176	0.552870	-9.000648	174.891432
58193	2.049112	0.126566	12.934867	-0.001576	-0.001169	3.284093	1.000000	0.000003	0.000101	-0.000187	0.553215	-9.001861	174.892262
58194	2.062062	0.115298	12.921952	-0.015353	0.011050	3.273255	1.000000	-0.000011	0.000121	-0.000170	0.551393	-9.000797	174.895156
58195	2.031133	0.117602	12.930403	0.016219	0.005908	3.276787	1.000000	0.000012	0.000091	-0.000199	0.552583	-9.002625	174.891788
58196	2.049814	0.118603	12.934802	-0.001474	0.006548	3.284063	1.000000	-0.000006	0.000121	-0.000176	0.551412	-9.001298	174.892121
58197	2.043912	0.108437	12.927248	0.003843	0.016054	3.275583	1.000000	0.000001	0.000110	-0.000198	0.551393	-9.001092	174.889079
58198	2.044287	0.139715	12.933151	0.001851	-0.014813	3.281769	1.000000	0.000020	0.000102	-0.000184	0.553624	-9.002293	174.890458
58199	2.041188	0.131296	12.934882	0.005856	-0.006202	3.282915	1.000000	0.000020	0.000122	-0.000185	0.555851	-9.000766	174.889846
58200	2.043516	0.134794	12.953973	0.006064	-0.009248	3.302168	1.000000	0.000010	0.000113	-0.000173	0.556520	-9.000366	174.890521
58201	2.047370	0.134086	12.942442	0.000606	-0.008011	3.291374	1.000000	0.000009	0.000102	-0.000183	0.557186	-9.001230	174.890640
58202	2.051499	0.142991	12.929613	-0.006108	-0.016425	3.279435	1.000000	0.000004	0.000103	-0.000176	0.557085	-9.001809	174.889844
58203	2.039298	0.144312	12.932704	0.006304	-0.018792	3.280594	1.000000	0.000003	0.000111	-0.000188	0.557284	-9.001464	174.888748
58204	2.048187	0.136184	12.941115	-0.000665	-0.009878	3.290212	1.000000	0.000003	0.000121	-0.000188	0.557504	-8.999781	174.886297
58205	2.045250	0.136881	12.941572	0.002191	-0.010957	3.290211	1.000000	-0.000006	0.000102	-0.000175	0.556282	-9.000710	174.887392
58206	2.046694	0.134633	12.920699	-0.002038	-0.008700	3.269800	1.000000	-0.000002	0.000093	-0.000180	0.555821	-9.002486	174.886645
58207	2.053395	0.125172	12.919731	-0.007676	0.001130	3.269800	1.000000	-0.000002	0.000102	-0.000181	0.555106	-9.003214	174.886076
58208	2.045228	0.123332	12.901544	-0.002314	0.002110	3.250543	1.000000	-0.000013	0.000111	-0.000180	0.553561	-9.002829	174.885531
58209	2.046190	0.120659	12.952494	0.004936	0.004401	3.300989	1.000000	-0.000000	0.000113	-0.000171	0.553124	-9.002781	174.887961
58210	2.049720	0.110087	12.942296	0.000646	0.015279	3.291368	1.000000	0.000003	0.000121	-0.000188	0.553368	-9.001642	174.887821
58211	2.056166	0.120011	12.938856	-0.007257	0.005896	3.289074	1.000000	-0.000006	0.000112	-0.000176	0.552305	-9.001541	174.889597
58212	2.043819	0.121445	12.941952	0.005215	0.003555	3.290215	1.000000	0.000026	0.000113	-0.000180	0.555007	-9.001250	174.890779
58213	2.040979	0.122847	12.942387	0.007995	0.002515	3.290213	1.000000	0.000024	0.000103	-0.000190	0.557715	-9.001779	174.888803
58214	2.047657	0.133060	12.938910	-0.000007	-0.006933	3.287921	1.000000	-0.000008	0.000111	-0.000186	0.556378	-9.001285	174.886814
58215	2.044841	0.133900	12.939347	0.002867	-0.008014	3.287920	1.000000	0.000013	0.000103	-0.000189	0.557691	-9.002258	174.886877
58216	2.048839	0.142984	12.926557	-0.003712	-0.016412	3.276001	1.000000	0.000009	0.000112	-0.000183	0.558524	-9.002278	174.888016
58217	2.051237	0.136770	12.946911	-0.002339	-0.009868	3.296419	1.000000	0.000013	0.000103	-0.000189	0.559839	-9.002738	174.885376
58218	2.042846	0.135267	12.928750	0.003090	-0.008872	3.277156	1.000000	-0.000002	0.000131	-0.000183	0.559587	-9.000548	174.886656
58219	2.052039	0.146496	12.934624	-0.006138	-0.019287	3.284504	1.000000	0.000003	0.000093	-0.000187	0.559761	-9.002238	174.885082
58220	2.039603	0.138082	12.938983	0.007469	-0.011973	3.286784	1.000000	0.000004	0.000132	-0.000178	0.559970	-8.999774	174.885928
58221	2.062185	0.136437	12.922269	-0.017276	-0.008227	3.273790	1.000000	0.000004	0.000094	-0.000176	0.560122	-9.001696	174.887060
58222	2.031243	0.119096	12.933082	0.016625	0.006214	3.279464	1.000000	-0.000000	0.000103	-0.000170	0.559653	-9.002234	174.887440
58223	2.047159	0.128491	12.927034	-0.000939	-0.001980	3.276070	1.000000	-0.000011	0.000122	-0.000170	0.557816	-9.000679	174.888279
58224	2.046782	0.120578	12.938098	0.001684	0.005564	3.286863	1.000000	-0.000002	0.000103	-0.000181	0.557232	-9.001125	174.887019
58225	2.036030	0.117698	12.910569	0.008358	0.006757	3.257965	1.000000	0.000004	0.000113	-0.000177	0.553864	-9.001545	174.880617
58226	2.043742	0.123463	12.948303	0.006266	0.001668	3.296494	1.000000	0.000010	0.000104	-0.000172	0.554802	-9.002412	174.882841
58227	2.035867	0.122215	12.930054	0.011514	0.002603	3.277227	1.000000	0.000024	0.000094	-0.000190	0.557211	-9.003943	174.880737
58228	2.045009	0.133695	12.935950	0.002356	-0.007915	3.284590	1.000000	-0.000008	0.000131	-0.000188	0.555922	-9.001429	174.879561
58229	2.044488	0.126213	12.947036	0.005057	-0.000382	3.295385	1.000000	0.000027	0.000105	-0.000169	0.558448	-9.001954	174.880771
58230	2.048703	0.135682	12.934228	-0.001618	-0.008836	3.283486	1.000000	0.000023	0.000093	-0.000200	0.561028	-9.003756	174.878274
58231	2.039324	0.138557	12.946549	0.009573	-0.012169	3.294217	1.000000	0.000015	0.000104	-0.000178	0.562310	-9.004240	174.877780
58232	2.031220	0.137084	12.928335	0.014860	-0.011196	3.274946	1.000000	0.000004	0.000113	-0.000177	0.562347	-9.003825	174.877995
58233	2.044536	0.125961	12.915543	0.000784	0.000863	3.264287	1.000000	-0.000017	0.000103	-0.000174	0.559996	-9.004736	174.879304
58234	2.042889	0.131933	12.955868	0.008363	-0.005552	3.303914	1.000000	0.000015	0.000104	-0.000178	0.561280	-9.005443	174.879892
58235	2.049328	0.132396	12.953739	0.001639	-0.005420	3.302822	1.000000	-0.000008	0.000122	-0.000187	0.560110	-9.004361	174.880073
58236	2.047840	0.138724	12.922364	-0.002682	-0.011792	3.271663	1.000000	0.000004	0.000113	-0.000177	0.560287	-9.003501	174.878733
58237	2.062094	0.133058	12.949511	-0.012073	-0.005124	3.300650	1.000000	-0.000008	0.000112	-0.000186	0.559096	-9.003093	174.877808
58238	2.047217	0.123146	12.944490	0.002689	0.003254	3.293268	1.000000	-0.000002	0.000103	-0.000181	0.558524	-9.003870	174.877631
58239	2.044484	0.114233	12.946194	0.006564	0.011841	3.294437	1.000000	0.000003	0.000103	-0.000187	0.558715	-9.004481	174.876685
58240	2.048594	0.123234	12.933422	-0.000095	0.003390	3.282553	1.000000	0.000009	0.000104	-0.000183	0.559519	-9.005176	174.876855
58241	2.045869	0.124214	12.933844	0.002762	0.002338	3.282553	1.000000	0.000009	0.000104	-0.000183	0.560330	-9.005968	174.877108
58242	2.036317	0.117097	12.947455	0.015110	0.008661	3.294432	1.000000	0.000009	0.000104	-0.000183	0.561005	-9.006754	174.877197
58243	2.040195	0.125824	12.934725	0.008556	0.000200	3.282551	1.000000	-0.000020	0.000121	-0.000196	0.558751	-9.005941	174.877446
58244	2.044078	0.124950	12.923277	0.003059	0.001373	3.271843	1.000000	0.000012	0.000103	-0.000199	0.560247	-9.007166	174.877385
58245	2.046548	0.137944	12.941083	0.002533	-0.011401	3.289942	1.000000	-0.000006	0.000103	-0.000175	0.559176	-9.008247	174.879670
58246	2.055824	0.129928	12.949557	-0.004379	-0.002713	3.299684	1.000000	0.000009	0.000104	-0.000183	0.559846	-9.009042	174.880167
58247	2.035664	0.137073	12.923298	0.010620	-0.011385	3.270664	1.000000	-0.000002	0.000123	-0.000182	0.559695	-9.007530	174.880690
58248	2.047164	0.130236	12.941169	0.002547	-0.003719	3.290048	1.000000	-0.000002	0.000113	-0.000182	0.559254	-9.007410	174.882103
58249	2.035023	0.131332	12.944152	0.014985	-0.005997	3.291105	1.000000	0.000003	0.000094	-0.000187	0.559168	-9.009084	174.880697
58250	2.058199	0.139561	12.926239	-0.010881	-0.012144	3.277120	1.000000	-0.000000	0.000095	-0.000170	0.558693	-9.011088	174.883071
58251	2.036362	0.140968	12.931821	0.011141	-0.015545	3.279229	1.000000	0.000006	0.000134	-0.000168	0.558725	-9.007955	174.882818
58252	2.035979	0.123680	12.944187	0.015000	0.001568	3.291215	1.000000	0.000004	0.000095	-0.000176	0.558634	-9.010308	174.885400
58253	2.042702	0.114523	12.943338	0.009273	0.011313	3.291340	1.000000	0.000001	0.000112	-0.000199	0.558878	-9.010212	174.884418
58254	2.049250	0.124736	12.939946	0.001402	0.001778	3.289113	1.000000	0.000004	0.000104	-0.000177	0.559045	-9.010662	174.884491
58255	2.036993	0.116199	12.944222	0.014967	0.009152	3.291336	1.000000	0.000004	0.000114	-0.000177	0.558955	-9.010504	174.886129
58256	2.050272	0.115318	12.930254	-0.000321	0.011449	3.279609	1.000000	0.000017	0.000115	-0.000168	0.560355	-9.009871	174.887916
58257	2.040369	0.127453	12.941323	0.009993	-0.001442	3.289109	1.000000	-0.000000	0.000114	-0.000171	0.559894	-9.009461	174.889494
58258	2.044333	0.136425	12.928599	0.003290	-0.009903	3.277250	1.000000	0.000008	0.000103	-0.000193	0.560864	-9.009931	174.887788
58259	2.053621	0.128612	12.937107	-0.003688	-0.001268	3.287031	1.000000	0.000004	0.000104	-0.000177	0.560889	-9.010467	174.888234
58260	2.041326	0.129887	12.940090	0.008790	-0.003481	3.288065	1.000000	0.000014	0.000114	-0.000189	0.562223	-9.009987	174.886873
58261	2.047823	0.140258	12.936714	0.000994	-0.013079	3.285849	1.000000	0.000006	0.000105	-0.000166	0.562214	-9.010578	174.889187
58262	2.033147	0.130372	12.931616	0.015626	-0.004552	3.278421	1.000000	-0.000002	0.000104	-0.000181	0.561765	-9.011217	174.889407
58263	2.051629	0.141728	12.935052	-0.002931	-0.014030	3.284817	1.000000	0.000018	0.000114	-0.000195	0.564033	-9.010919	174.888587
58264	2.041880	0.124818	12.949958	0.010377	0.001926	3.297848	1.000000	-0.000008	0.000113	-0.000186	0.562567	-9.010511	174.887400
58265	2.057758	0.124828	12.945367	-0.006088	0.003073	3.295799	1.000000	-0.000006	0.000114	-0.000176	0.561346	-9.010031	174.887992
58266	2.035907	0.126214	12.950884	0.016099	-0.000302	3.297843	1.000000	0.000014	0.000114	-0.000189	0.562398	-9.009797	174.887886
58267	2.033061	0.127062	12.951323	0.018942	-0.001382	3.297839	1.000000	-0.000011	0.000102	-0.000207	0.561271	-9.010685	174.884911
58268	2.039453	0.137186	12.947976	0.011209	-0.011005	3.295631	1.000000	0.000003	0.000123	-0.000189	0.561344	-9.009385	174.885377
58269	2.024695	0.107972	12.945468	0.027769	0.016847	3.290562	1.000000	0.000009	0.000107	-0.000145	0.561418	-9.009763	174.889951
58270	2.052587	0.128791	12.945121	-0.001423	-0.001266	3.294786	1.000000	0.000014	0.000105	-0.000189	0.562877	-9.010372	174.889399
58271	2.037699	0.148341	12.936144	0.010276	-0.021662	3.283780	1.000000	0.000020	0.000105	-0.000184	0.564810	-9.010962	174.889170
58272	2.052145	0.143250	12.963367	0.000975	-0.015196	3.312878	1.000000	0.000004	0.000095	-0.000176	0.564963	-9.012298	174.888453
58273	2.046952	0.133075	12.955731	0.005845	-0.005435	3.304424	1.000000	-0.000002	0.000114	-0.000182	0.564923	-9.011494	174.887946
58274	2.050885	0.132203	12.944336	0.000146	-0.004293	3.293778	1.000000	-0.000009	0.000112	-0.000197	0.564055	-9.011086	174.885572
58275	2.045428	0.102462	12.939346	0.006920	0.024639	3.287705	1.000000	-0.000006	0.000133	-0.000177	0.562834	-9.008154	174.885169
58276	2.048942	0.130701	12.924121	-0.001699	-0.003250	3.273494	1.000000	0.000003	0.000104	-0.000187	0.562766	-9.008573	174.883032
58277	2.055385	0.131171	12.922086	-0.008596	-0.003191	3.272496	1.000000	-0.000006	0.000124	-0.000176	0.561829	-9.006618	174.882246
58278	2.038387	0.135078	12.946280	0.011383	-0.008557	3.293771	1.000000	0.000021	0.000116	-0.000174	0.563868	-9.006191	174.884593
58279	2.054558	0.116379	12.944303	-0.003273	0.011795	3.294165	1.000000	0.000012	0.000106	-0.000161	0.564471	-9.006275	174.885540
58280	2.027780	0.115119	12.931040	0.021028	0.010749	3.276865	1.000000	-0.000002	0.000114	-0.000182	0.563883	-9.005495	174.884598
58281	2.046054	0.136076	12.933279	0.001542	-0.008616	3.282139	1.000000	0.000004	0.000105	-0.000177	0.563770	-9.005958	174.884819
58282	2.053205	0.107731	12.935052	-0.002530	0.020336	3.284733	1.000000	0.000009	0.000095	-0.000182	0.564582	-9.007328	174.883723
58283	1.971986	0.167307	12.938286	0.073166	-0.045995	3.275799	1.000000	0.000007	0.000092	-0.000241	0.566056	-9.009719	174.878985
58284	2.031840	0.217882	12.935794	0.011225	-0.091136	3.283196	1.000000	-0.000024	-0.000010	-0.000307	0.565370	-9.023348	174.864902
58285	2.125402	0.118177	12.914336	-0.072102	0.015847	3.275702	1.000000	-0.000052	-0.000025	-0.000357	0.562349	-9.038787	174.846102
58286	2.150838	0.038245	12.898263	-0.088676	0.097252	3.263070	1.000000	-0.000007	-0.000057	-0.000301	0.563513	-9.057855	174.833405
58287	2.207856	0.027442	12.874779	-0.141837	0.113170	3.248798	1.000000	0.000022	-0.000156	-0.000205	0.566388	-9.088235	174.831236
58288	2.353752	0.051261	12.873986	-0.280497	0.102896	3.271388	1.000000	0.000067	-0.000159	-0.000151	0.573296	-9.119109	174.834755
58289	2.424634	0.106861	12.817516	-0.357332	0.055368	3.227567	1.000000	0.000105	-0.000136	-0.000114	0.583649	-9.146772	174.840131
58290	2.466079	0.143594	12.842848	-0.390558	0.023911	3.259719	1.000000	0.000094	-0.000146	-0.000112	0.592873	-9.176230	174.849059
58291	2.523685	0.168663	12.855154	-0.441104	0.005264	3.281503	1.000000	0.000080	-0.000107	-0.000096	0.600306	-9.201179	174.858718
58292	2.550591	0.163465	12.869543	-0.458846	0.013551	3.300156	1.000000	0.000059	-0.000118	-0.000092	0.605226	-9.227368	174.868771
58293	2.611640	0.155131	12.783393	-0.525781	0.028186	3.225051	1.000000	0.000070	-0.000127	-0.000093	0.611397	-9.254604	174.878719
58294	2.645953	0.128648	12.788458	-0.550334	0.057843	3.235533	1.000000	0.000030	-0.000111	-0.000105	0.613232	-9.279984	174.887266
58295	2.658299	0.130301	12.785325	-0.557177	0.057602	3.234699	1.000000	0.000065	-0.000119	-0.000126	0.619514	-9.306355	174.893431
58296	2.754989	0.111623	12.833855	-0.636493	0.085657	3.298293	1.000000	0.000096	-0.000126	-0.000102	0.628831	-9.333502	174.902338
58297	2.820978	0.170060	12.726816	-0.718332	0.034702	3.204282	1.000000	0.000088	-0.000062	0.000004	0.635233	-9.353500	174.923609
58298	2.649098	0.202649	12.758636	-0.543071	-0.012528	3.208315	1.000000	0.000061	-0.000013	0.000047	0.637704	-9.367935	174.950036
58299	2.621806	0.150319	12.804140	-0.499443	0.036803	3.248387	1.000000	0.000068	-0.000132	0.000147	0.639181	-9.396126	174.987899
58300	2.732396	0.156008	12.824895	-0.598567	0.039991	3.287251	1.000000	0.000070	-0.000150	0.000159	0.640596	-9.426458	175.027130
58301	2.767380	0.186892	12.821751	-0.628386	0.011625	3.290580	1.000000	0.000077	-0.000209	0.000130	0.643365	-9.463546	175.062849
58302	2.885098	0.199863	12.747691	-0.748734	0.008338	3.237473	1.000000	0.000068	-0.000221	0.000104	0.645589	-9.501954	175.095615
58303	2.892682	0.211957	12.754528	-0.747777	-0.003759	3.246077	1.000000	0.000058	-0.000185	0.000065	0.647323	-9.536259	175.123876
58304	2.939172	0.218779	12.720814	-0.792010	-0.007606	3.221053	1.000000	0.000011	-0.000173	-0.000001	0.644932	-9.569065	175.144543
58305	3.010165	0.169221	12.708607	-0.852514	0.046164	3.220712	1.000000	-0.000012	-0.000158	-0.000048	0.640848	-9.600105	175.159759
58306	3.048274	0.147798	12.762639	-0.872673	0.069014	3.280534	1.000000	-0.000004	-0.000120	-0.000073	0.638108	-9.626843	175.172078
58307	3.091583	0.173597	12.726911	-0.918633	0.045765	3.253158	1.000000	-0.000024	-0.000020	-0.000143	0.634390	-9.642000	175.176438
58308	3.135799	0.157981	12.819254	-0.942920	0.064091	3.351593	1.000000	-0.000021	0.000059	-0.000279	0.633736	-9.647998	175.165004
58309	3.061825	0.206837	12.740768	-0.887408	0.009977	3.262370	1.000000	-0.000041	0.000159	-0.000513	0.635300	-9.642223	175.126588
58310	2.926610	0.187392	12.749594	-0.753940	0.018721	3.248076	1.000000	-0.000093	0.000247	-0.000615	0.632899	-9.626339	175.076348
58311	2.759013	0.180570	12.714176	-0.597662	0.011934	3.184916	1.000000	-0.000116	0.000196	-0.000794	0.631265	-9.615999	175.005256
58312	2.705983	0.167223	12.760920	-0.538117	0.020847	3.221935	1.000000	-0.000157	0.000128	-0.000937	0.627767	-9.613297	174.917493
58313	2.782691	0.208420	12.754801	-0.618008	-0.013665	3.229155	0.999999	-0.000216	0.000068	-0.001094	0.620608	-9.617310	174.811383
58314	2.869150	0.209912	12.823050	-0.691195	-0.008787	3.310912	0.999999	-0.000291	0.000087	-0.001211	0.607083	-9.619088	174.691726
58315	2.904797	0.151170	12.821519	-0.721981	0.051576	3.314693	0.999999	-0.000314	0.000166	-0.001339	0.593432	-9.611647	174.557306
58316	2.861788	0.057645	12.794976	-0.677498	0.139901	3.280287	0.999999	-0.000321	0.000188	-0.001481	0.581623	-9.601530	174.406377
58317	2.763032	0.039465	12.752298	-0.589261	0.148573	3.221410	0.999999	-0.000321	0.000279	-0.001640	0.572879	-9.580954	174.237098
58318	2.639116	0.067912	12.770798	-0.471705	0.108174	3.219144	0.999998	-0.000324	0.000266	-0.001748	0.565833	-9.561786	174.055280
58319	2.596522	0.044631	12.825865	-0.422025	0.126662	3.266019	0.999998	-0.000347	0.000225	-0.001802	0.557180	-9.547212	173.867111
58320	2.612922	-0.016918	12.870771	-0.427160	0.189368	3.312330	0.999998	-0.000329	0.000227	-0.001837	0.551153	-9.532376	173.674864
58321	2.610461	-0.033554	12.883817	-0.423680	0.206245	3.324524	0.999998	-0.000305	0.000233	-0.001819	0.547509	-9.516976	173.484750
58322	2.480191	-0.054506	12.910586	-0.292358	0.213379	3.329099	0.999998	-0.000265	0.000251	-0.001760	0.547287	-9.499608	173.301517
58323	2.415957	-0.035050	12.842964	-0.245189	0.188536	3.251927	0.999998	-0.000254	0.000178	-0.001730	0.547702	-9.490607	173.121775
58324	2.401229	0.030882	12.806887	-0.244960	0.123091	3.214517	0.999999	-0.000215	0.000098	-0.001697	0.551930	-9.490835	172.945787
58325	2.394695	0.101340	12.798700	-0.247690	0.054233	3.206040	0.999999	-0.000200	0.000073	-0.001675	0.557406	-9.493912	172.772277
58326	2.480090	0.187648	12.794950	-0.341293	-0.019522	3.217275	0.999999	-0.000246	0.000035	-0.001612	0.556501	-9.501385	172.606019
58327	2.636556	0.203235	12.823663	-0.490566	-0.015223	3.271585	0.999999	-0.000279	0.000076	-0.001523	0.550109	-9.504255	172.450106
58328	2.672722	0.160719	12.932319	-0.503469	0.029688	3.384274	0.999999	-0.000320	0.000183	-0.001482	0.538193	-9.495031	172.299153
58329	2.565592	0.067108	12.881262	-0.398244	0.107721	3.315278	0.999999	-0.000315	0.000275	-0.001385	0.524877	-9.475362	172.159547
58330	2.487013	0.060439	12.881340	-0.325612	0.102367	3.302239	0.999999	-0.000292	0.000311	-0.001281	0.512175	-9.451724	172.032025
58331	2.369340	0.086882	12.855900	-0.224106	0.059187	3.257957	0.999999	-0.000245	0.000321	-0.001119	0.501783	-9.427076	171.923363
58332	2.202778	0.109576	12.833112	-0.073187	0.012783	3.208352	0.999999	-0.000203	0.000253	-0.000978	0.493490	-9.410440	171.831010
58333	2.133627	0.101650	12.820632	-0.009269	0.009653	3.184663	1.000000	-0.000181	0.000153	-0.000833	0.484925	-9.405369	171.755473
58334	2.243958	0.090849	12.905827	-0.101966	0.032706	3.286645	1.000000	-0.000155	0.000075	-0.000607	0.475030	-9.409457	171.706050
58335	2.383809	0.011027	12.891982	-0.228775	0.129506	3.295202	1.000000	-0.000130	0.000084	-0.000404	0.464174	-9.412802	171.680265
58336	2.342473	-0.022614	12.815367	-0.196319	0.156099	3.212611	1.000000	-0.000071	0.000142	-0.000224	0.456619	-9.409583	171.675391
58337	2.269558	-0.093847	12.925061	-0.098256	0.214114	3.308341	1.000000	0.000037	0.000174	-0.000131	0.459743	-9.402804	171.681382
58338	2.399670	-0.057037	12.948160	-0.228675	0.197890	3.352610	1.000000	0.000142	0.000217	0.000017	0.471999	-9.391283	171.704567
58339	2.302457	0.141913	12.913287	-0.170962	-0.008868	3.303909	1.000000	0.000188	0.000283	0.000148	0.487121	-9.372321	171.743091
58340	2.191853	0.227164	12.847102	-0.090391	-0.104413	3.221298	1.000000	0.000159	0.000340	0.000192	0.498072	-9.346900	171.786722
58341	2.072093	0.259870	12.932725	0.030531	-0.152763	3.286633	1.000000	0.000103	0.000330	0.000352	0.499609	-9.322798	171.848955
58342	2.047366	0.224934	13.055184	0.075185	-0.122712	3.403190	1.000000	0.000089	0.000244	0.000431	0.498049	-9.308643	171.920204
58343	2.158948	0.203109	12.959039	-0.049392	-0.084560	3.326163	1.000000	0.000079	0.000237	0.000569	0.492784	-9.295340	172.007458
58344	2.052773	0.189800	12.844398	0.033908	-0.085154	3.195774	1.000000	0.000081	0.000298	0.000646	0.486327	-9.275108	172.103753
58345	1.852056	0.182508	12.914741	0.238463	-0.106429	3.232839	1.000000	0.000109	0.000252	0.000640	0.483236	-9.260106	172.199314
58346	1.892104	0.285044	12.991197	0.196311	-0.203591	3.315623	1.000000	0.000125	0.000119	0.000647	0.481897	-9.260435	172.295551
58347	2.049858	0.367843	13.000999	0.033468	-0.265913	3.351331	1.000000	0.000065	0.000076	0.000679	0.473081	-9.265675	172.395467
58348	2.104209	0.337587	12.818923	-0.043807	-0.229275	3.180078	1.000000	0.000018	0.000084	0.000739	0.457717	-9.270040	172.502334
58349	2.130101	0.244274	12.794903	-0.060627	-0.137537	3.159743	1.000000	-0.000043	0.000119	0.000788	0.434512	-9.270327	172.614881
