// Start Time: Unknown
// Update Rate: 40.0Hz
// Filter Profile: human (46.1)
// Firmware Version: 4.4.0
PacketCounter	Acc_X	Acc_Y	Acc_Z	FreeAcc_X	FreeAcc_Y	FreeAcc_Z	OriInc_q0	OriInc_q1	OriInc_q2	OriInc_q3	Roll	Pitch	Yaw
42993	2.073671	0.096103	12.935477	0.000000	0.000000	3.288302	1.000000	-0.000002	0.000107	-0.000162	0.424285	-9.113507	173.950169
42994	2.054993	0.111481	12.938471	0.017338	-0.017181	3.288414	1.000000	0.000002	0.000098	-0.000185	0.427937	-9.102106	173.928776
42995	2.070157	0.118134	12.943747	0.000024	-0.021060	3.296075	1.000000	0.000004	0.000119	-0.000187	0.432189	-9.089248	173.907064
42996	2.045493	0.121626	12.941900	0.020457	-0.026219	3.290385	1.000000	-0.000020	0.000122	-0.000167	0.433007	-9.075120	173.887760
42997	2.048952	0.119712	12.921610	0.011152	-0.022844	3.270886	1.000000	0.000007	0.000100	-0.000179	0.437392	-9.063333	173.867047
42998	2.076641	0.120400	12.926828	-0.018123	-0.019480	3.280407	1.000000	-0.000007	0.000115	-0.000178	0.440410	-9.049551	173.846422
42999	2.054239	0.112209	12.931576	0.002580	-0.012433	3.281509	1.000000	0.000011	0.000111	-0.000182	0.445893	-9.036587	173.825230
43000	2.069910	0.103775	12.952660	-0.011521	-0.001171	3.304727	1.000000	-0.000006	0.000116	-0.000189	0.449766	-9.022953	173.803249
43001	2.055377	0.096199	12.927527	-0.003203	0.006295	3.277566	1.000000	0.000001	0.000107	-0.000184	0.454238	-9.010572	173.781848
43002	2.063499	0.120389	12.937800	-0.014846	-0.015683	3.289172	1.000000	0.000005	0.000109	-0.000178	0.458846	-8.998217	173.761221
43003	2.061319	0.107081	12.912636	-0.018081	-0.000935	3.263869	1.000000	0.000002	0.000128	-0.000175	0.463960	-8.983923	173.740687
43004	2.055468	0.101590	12.931354	-0.011338	0.004928	3.281397	1.000000	0.000007	0.000099	-0.000179	0.468291	-8.974124	173.719987
43005	2.069242	0.105310	12.945783	-0.025326	0.004027	3.297824	1.000000	0.000016	0.000112	-0.000176	0.473902	-8.962683	173.699588
43006	2.047736	0.115483	12.925590	-0.010745	-0.006684	3.274607	1.000000	0.000001	0.000107	-0.000184	0.478824	-8.952236	173.678074
43007	2.051977	0.098781	12.921071	-0.016155	0.011379	3.270662	1.000000	0.000005	0.000109	-0.000178	0.481950	-8.941403	173.657755
43008	2.049468	0.116943	12.938060	-0.014922	-0.006038	3.287203	1.000000	0.000004	0.000118	-0.000187	0.485656	-8.932278	173.636137
43009	2.060480	0.115126	12.929363	-0.029129	-0.001677	3.280303	1.000000	0.000001	0.000107	-0.000184	0.489887	-8.922605	173.614858
43010	2.048786	0.113060	12.927341	-0.018523	-0.000359	3.276472	1.000000	0.000008	0.000099	-0.000190	0.492090	-8.919714	173.593092
43011	2.078705	0.101999	12.939272	-0.045350	0.014918	3.292804	1.000000	-0.000006	0.000105	-0.000168	0.495577	-8.916892	173.573817
43012	2.060634	0.102870	12.916605	-0.032585	0.012929	3.267612	1.000000	-0.000011	0.000124	-0.000155	0.497421	-8.909616	173.556019
43013	2.061809	0.112106	12.931095	-0.033024	0.004496	3.282187	1.000000	0.000010	0.000090	-0.000191	0.501943	-8.909350	173.534202
43014	2.059062	0.113121	12.931524	-0.030109	0.002377	3.282194	1.000000	0.000009	0.000120	-0.000181	0.497893	-8.909676	173.512454
43015	2.068486	0.108273	12.931993	-0.039598	0.009846	3.284074	1.000000	0.000004	0.000118	-0.000187	0.504415	-8.905428	173.492079
43016	2.058960	0.111476	12.953192	-0.028966	0.005421	3.303565	1.000000	-0.000005	0.000115	-0.000200	0.502975	-8.898670	173.468662
43017	2.057084	0.098186	12.928007	-0.028249	0.018407	3.278282	1.000000	0.000010	0.000110	-0.000171	0.502938	-8.905240	173.449742
43018	2.061317	0.114041	12.924226	-0.034627	0.004582	3.275339	1.000000	0.000009	0.000089	-0.000180	0.509377	-8.906684	173.431083
43019	2.059280	0.099810	12.940423	-0.029927	0.018646	3.290896	1.000000	0.000002	0.000118	-0.000166	0.509302	-8.898549	173.411158
43020	2.063071	0.115387	12.936716	-0.037720	0.003706	3.287952	1.000000	-0.000006	0.000115	-0.000189	0.508332	-8.891113	173.388966
43021	2.056383	0.107516	12.923094	-0.030689	0.010669	3.273396	1.000000	-0.000002	0.000096	-0.000192	0.508320	-8.900163	173.368669
43022	2.053767	0.125599	12.940080	-0.025871	-0.007170	3.289934	1.000000	0.000006	0.000129	-0.000169	0.512021	-8.905711	173.352082
43023	2.061506	0.100066	12.933156	-0.031232	0.018881	3.284068	1.000000	-0.000010	0.000103	-0.000186	0.510134	-8.909395	173.331407
43024	2.060172	0.103939	12.924475	-0.028704	0.016177	3.275326	1.000000	0.000009	0.000110	-0.000161	0.518062	-8.922215	173.319175
43025	2.059825	0.110019	12.948093	-0.026038	0.007205	3.298657	1.000000	-0.000010	0.000103	-0.000186	0.504518	-8.921354	173.291409
43026	2.051129	0.114085	12.927794	-0.020198	0.000744	3.277293	1.000000	0.000007	0.000099	-0.000179	0.498449	-8.926942	173.269238
43027	2.064387	0.100367	12.925801	-0.027936	0.014859	3.277274	1.000000	-0.000008	0.000124	-0.000188	0.494883	-8.943996	173.251518
43028	2.066891	0.113087	12.931190	-0.032464	0.002184	3.283092	1.000000	0.000022	0.000092	-0.000201	0.494489	-8.939599	173.225028
43029	2.048390	0.096262	12.933311	-0.007814	0.016118	3.282173	1.000000	0.000003	0.000117	-0.000177	0.492604	-8.957582	173.210152
43030	2.073731	0.109402	12.932110	-0.033964	0.004327	3.285046	1.000000	0.000011	0.000110	-0.000183	0.485393	-8.960976	173.184630
43031	2.056925	0.113049	12.941636	-0.017935	-0.002562	3.291866	1.000000	0.000017	0.000102	-0.000178	0.479275	-8.955434	173.156767
43032	2.061311	0.096594	12.937165	-0.018110	0.013723	3.288002	1.000000	0.000003	0.000117	-0.000177	0.477118	-8.967896	173.141503
43033	2.057778	0.112581	12.921832	-0.017297	-0.004028	3.272440	1.000000	0.000008	0.000098	-0.000190	0.470936	-8.977344	173.119042
43034	2.058934	0.122038	12.936318	-0.015500	-0.014024	3.287007	1.000000	0.000001	0.000106	-0.000184	0.468669	-8.985384	173.101414
43035	2.061732	0.102087	12.940995	-0.014799	0.004998	3.291902	1.000000	-0.000008	0.000124	-0.000188	0.463545	-8.986474	173.078619
43036	2.058784	0.102929	12.941458	-0.011512	0.003022	3.291906	1.000000	0.000016	0.000101	-0.000167	0.461362	-8.990120	173.059231
43037	2.067789	0.113362	12.926171	-0.024626	-0.008234	3.278296	1.000000	0.000006	0.000117	-0.000199	0.450835	-8.987622	173.027260
43038	2.057369	0.114422	12.915019	-0.016627	-0.008667	3.265663	1.000000	0.000005	0.000108	-0.000178	0.458302	-8.985853	173.015072
43039	2.051589	0.109011	12.933694	-0.008018	-0.007622	3.283160	1.000000	0.000011	0.000109	-0.000183	0.442716	-8.984878	172.980595
43040	2.058196	0.097743	12.952453	-0.009009	0.002391	3.302635	1.000000	-0.000009	0.000123	-0.000177	0.434225	-8.990391	172.960305
43041	2.058190	0.104986	12.934684	-0.011302	-0.005080	3.285140	1.000000	0.000019	0.000101	-0.000189	0.434441	-8.998023	172.944160
43042	2.056655	0.109262	12.926039	-0.011315	-0.009684	3.276393	1.000000	0.000007	0.000128	-0.000180	0.432609	-8.998313	172.926051
43043	2.062707	0.112943	12.929001	-0.017794	-0.014232	3.280290	1.000000	-0.000015	0.000091	-0.000172	0.423725	-8.998861	172.901426
43044	2.063647	0.104802	12.926983	-0.017581	-0.007634	3.278384	1.000000	0.000003	0.000117	-0.000177	0.417732	-9.000360	172.879930
43045	2.062101	0.108709	12.918346	-0.018494	-0.011265	3.269639	1.000000	-0.000006	0.000114	-0.000190	0.418495	-8.997740	172.861833
43046	2.046741	0.115080	12.918710	-0.002401	-0.019067	3.267645	1.000000	0.000003	0.000096	-0.000186	0.421798	-9.006584	172.853757
43047	2.051331	0.115577	12.930787	-0.004850	-0.020733	3.280293	1.000000	-0.000014	0.000122	-0.000184	0.413815	-9.007098	172.830969
43048	2.060940	0.110578	12.931331	-0.013383	-0.015262	3.282297	1.000000	0.000005	0.000107	-0.000178	0.411957	-9.009171	172.813160
43049	2.061000	0.117662	12.913562	-0.015782	-0.020320	3.264812	1.000000	-0.000007	0.000114	-0.000179	0.419938	-9.013765	172.810252
43050	2.062590	0.111891	12.943876	-0.011409	-0.015308	3.294958	1.000000	0.000005	0.000107	-0.000178	0.418474	-9.016697	172.794181
43051	2.069967	0.101495	12.921236	-0.020678	-0.003752	3.273678	1.000000	-0.000017	0.000120	-0.000201	0.417763	-9.016911	172.776493
43052	2.055145	0.109999	12.953925	0.001152	-0.014816	3.303702	1.000000	0.000006	0.000107	-0.000189	0.419162	-9.032386	172.770846
43053	2.067911	0.111636	12.936230	-0.013201	-0.014527	3.288243	1.000000	0.000004	0.000107	-0.000167	0.419955	-9.037451	172.760431
43054	2.059944	0.100588	12.931694	-0.003737	-0.005280	3.282432	1.000000	-0.000004	0.000104	-0.000191	0.416776	-9.042528	172.742508
43055	2.058518	0.104573	12.923040	-0.005100	-0.009881	3.273690	1.000000	0.000008	0.000118	-0.000171	0.414145	-9.038053	172.718852
43056	2.071923	0.108422	12.937680	-0.013768	-0.014557	3.290281	1.000000	0.000001	0.000105	-0.000185	0.404790	-9.051984	172.700978
43057	2.070538	0.112282	12.929024	-0.014318	-0.019171	3.281541	1.000000	-0.000007	0.000113	-0.000179	0.401010	-9.051734	172.680498
43058	2.058665	0.109772	12.926954	-0.003593	-0.018148	3.277613	1.000000	-0.000006	0.000113	-0.000190	0.400694	-9.047780	172.659218
43059	2.047041	0.107309	12.924841	0.008904	-0.017245	3.273680	1.000000	-0.000003	0.000094	-0.000181	0.401009	-9.054030	172.647701
43060	2.060841	0.111129	12.939427	-0.002078	-0.020255	3.290280	1.000000	0.000007	0.000097	-0.000180	0.398557	-9.057521	172.627730
43061	2.056670	0.108871	12.948954	0.004423	-0.019893	3.299015	1.000000	0.000006	0.000107	-0.000189	0.393487	-9.060525	172.604202
43062	2.077571	0.095291	12.958738	-0.011787	-0.005958	3.311874	1.000000	-0.000007	0.000113	-0.000179	0.383953	-9.065794	172.581015
43063	2.057475	0.108052	12.929231	0.002761	-0.020779	3.279656	1.000000	0.000008	0.000118	-0.000171	0.385404	-9.070634	172.572633
43064	2.069958	0.127031	12.928136	-0.011499	-0.037828	3.280669	1.000000	-0.000000	0.000115	-0.000195	0.386261	-9.073318	172.559183
43065	2.053788	0.097860	12.936837	0.011373	-0.013019	3.286514	1.000000	0.000005	0.000107	-0.000178	0.378878	-9.083544	172.542419
43066	2.062630	0.125519	12.938159	0.000444	-0.039869	3.289395	1.000000	0.000003	0.000116	-0.000177	0.377015	-9.088167	172.529061
43067	2.053290	0.111081	12.942705	0.010339	-0.027948	3.292315	1.000000	-0.000015	0.000091	-0.000172	0.369837	-9.082243	172.495549
43068	2.059063	0.112617	12.913344	-0.000615	-0.029471	3.264239	1.000000	0.000007	0.000097	-0.000180	0.365719	-9.080421	172.468919
43069	2.063698	0.113757	12.925438	-0.004292	-0.029373	3.276922	1.000000	0.000027	0.000113	-0.000186	0.369976	-9.075149	172.448990
43070	2.068207	0.114875	12.937555	-0.007776	-0.031269	3.289601	1.000000	0.000005	0.000107	-0.000178	0.362758	-9.072658	172.420346
43071	2.055033	0.109404	12.944536	0.007734	-0.029314	3.294380	1.000000	0.000005	0.000106	-0.000179	0.355850	-9.077225	172.398424
43072	2.063985	0.119830	12.929347	-0.003804	-0.038607	3.280857	1.000000	0.000005	0.000116	-0.000188	0.354948	-9.081275	172.384038
43073	2.061833	0.105691	12.945592	0.007922	0.002688	3.296493	1.000000	0.000010	0.000108	-0.000172	0.481944	-9.088752	173.839008
43074	2.069564	0.095713	12.922979	-0.001013	0.014468	3.275301	1.000000	0.000010	0.000108	-0.000172	0.486217	-9.093419	173.828998
43075	2.074222	0.096332	12.935085	-0.003050	0.014855	3.287994	1.000000	-0.000015	0.000100	-0.000182	0.487873	-9.096578	173.816295
43076	2.056440	0.114291	12.928700	0.011172	-0.004990	3.279033	1.000000	0.000003	0.000116	-0.000177	0.488101	-9.094375	173.816155
43077	2.069194	0.116073	12.911103	-0.003789	-0.004922	3.263687	1.000000	0.000006	0.000106	-0.000190	0.490110	-9.097065	173.811250
43078	2.053198	0.104110	12.936248	0.017016	0.005008	3.285887	1.000000	-0.000003	0.000093	-0.000182	0.489217	-9.097193	173.812390
43079	2.062347	0.114379	12.921048	0.005704	-0.003435	3.272410	1.000000	-0.000001	0.000114	-0.000184	0.492826	-9.100775	173.797458
43080	2.072686	0.111923	12.953970	0.000689	0.000289	3.306531	1.000000	0.000005	0.000106	-0.000179	0.495006	-9.099569	173.789330
43081	2.057378	0.100870	12.937740	0.014220	0.009860	3.287992	1.000000	-0.000003	0.000114	-0.000173	0.494817	-9.098592	173.788196
43082	2.063359	0.104772	12.940777	0.008387	0.005953	3.291970	1.000000	0.000004	0.000106	-0.000168	0.492297	-9.099251	173.800841
43083	2.068711	0.124015	12.927999	0.000344	-0.011882	3.280363	1.000000	0.000018	0.000100	-0.000178	0.496507	-9.104910	173.792355
43084	2.064628	0.104191	12.921031	0.005659	0.007888	3.272667	1.000000	-0.000021	0.000118	-0.000168	0.496300	-9.104895	173.782632
43085	2.056279	0.110040	12.933026	0.015287	0.000234	3.283240	1.000000	-0.000006	0.000112	-0.000190	0.493703	-9.106348	173.791052
43086	2.063801	0.117145	12.926963	0.006090	-0.006309	3.278504	1.000000	0.000001	0.000104	-0.000185	0.492509	-9.106548	173.795781
43087	2.066972	0.097322	12.931707	0.005269	0.014048	3.283521	1.000000	-0.000004	0.000123	-0.000172	0.493348	-9.102786	173.787099
43088	2.059974	0.106809	12.934618	0.011556	0.003416	3.285369	1.000000	0.000014	0.000119	-0.000176	0.492530	-9.103132	173.798611
43089	2.060871	0.099134	12.932667	0.010421	0.010613	3.283521	1.000000	0.000005	0.000106	-0.000179	0.489293	-9.100801	173.815112
43090	2.051801	0.120483	12.928843	0.015799	-0.011839	3.278492	1.000000	0.000003	0.000115	-0.000178	0.487561	-9.097580	173.823659
43091	2.067031	0.110608	12.917966	0.000142	-0.000066	3.270076	1.000000	0.000018	0.000100	-0.000178	0.489436	-9.098203	173.823580
43092	2.059597	0.101830	12.945718	0.012486	0.007988	3.296229	1.000000	-0.000009	0.000121	-0.000178	0.489335	-9.095595	173.816563
43093	2.061907	0.096961	12.934693	0.008680	0.012982	3.285668	1.000000	-0.000006	0.000112	-0.000190	0.488662	-9.094851	173.815276
43094	2.056980	0.109539	12.928408	0.011144	-0.000451	3.278790	1.000000	0.000003	0.000085	-0.000177	0.487032	-9.096434	173.825041
43095	2.063336	0.113560	12.931407	0.004787	-0.003897	3.282789	1.000000	0.000001	0.000104	-0.000185	0.486445	-9.094683	173.826433
43096	2.056881	0.105637	12.917764	0.009297	0.003139	3.268232	1.000000	0.000000	0.000125	-0.000165	0.484773	-9.091406	173.834955
43097	2.064767	0.115118	12.944042	0.004627	-0.005568	3.295504	1.000000	0.000007	0.000096	-0.000180	0.485762	-9.092670	173.832782
43098	2.049709	0.104102	12.927746	0.017325	0.004715	3.276943	1.000000	0.000003	0.000115	-0.000178	0.488693	-9.088242	173.813332
43099	2.064328	0.111176	12.933459	0.003127	-0.001144	3.284952	1.000000	-0.000017	0.000118	-0.000202	0.486287	-9.088252	173.815188
43100	2.071627	0.118236	12.927465	-0.006172	-0.008080	3.280244	1.000000	0.000003	0.000115	-0.000178	0.483735	-9.086873	173.832383
43101	2.048274	0.106347	12.940828	0.020388	0.000826	3.289654	1.000000	0.000013	0.000086	-0.000215	0.483331	-9.089779	173.844543
43102	2.055753	0.113681	12.934803	0.011545	-0.005405	3.284947	1.000000	-0.000006	0.000132	-0.000171	0.482870	-9.088076	173.841838
43103	2.065214	0.109060	12.935540	0.002698	-0.000041	3.287129	1.000000	0.000009	0.000117	-0.000182	0.482787	-9.088351	173.849416
43104	2.071173	0.113114	12.938618	-0.003117	-0.002920	3.291143	1.000000	-0.000005	0.000102	-0.000181	0.484360	-9.088837	173.832403
43105	2.064925	0.105166	12.924946	0.001616	0.004135	3.276590	1.000000	0.000003	0.000115	-0.000178	0.483440	-9.087871	173.840595
43106	2.052347	0.120003	12.939345	0.014249	-0.011915	3.288947	1.000000	0.000001	0.000134	-0.000186	0.483875	-9.084923	173.836602
43107	2.068815	0.113116	12.919504	-0.004528	-0.003356	3.271897	1.000000	-0.000007	0.000111	-0.000179	0.482371	-9.085381	173.841203
43108	2.060462	0.119043	12.931454	0.004646	-0.010789	3.282428	1.000000	-0.000008	0.000111	-0.000168	0.479628	-9.084404	173.853151
43109	2.060206	0.108068	12.938566	0.006891	0.000030	3.289319	1.000000	0.000020	0.000090	-0.000180	0.481172	-9.084384	173.856189
43110	2.062968	0.103739	12.927498	0.003414	0.005198	3.278790	1.000000	0.000005	0.000115	-0.000189	0.482735	-9.084994	173.847976
43111	2.060089	0.104665	12.927950	0.005828	0.004000	3.278789	1.000000	0.000007	0.000105	-0.000190	0.482818	-9.083848	173.851607
43112	2.059060	0.110963	12.951616	0.009707	-0.002475	3.302049	1.000000	-0.000001	0.000113	-0.000184	0.482652	-9.082504	173.850236
43113	2.065482	0.097678	12.938209	0.002565	0.011542	3.289712	1.000000	-0.000001	0.000113	-0.000184	0.482646	-9.081930	173.847910
43114	2.047166	0.115468	12.931751	0.017264	-0.008307	3.280595	1.000000	-0.000010	0.000130	-0.000188	0.480798	-9.079422	173.853127
43115	2.052890	0.119450	12.934881	0.011337	-0.011993	3.284622	1.000000	0.000005	0.000105	-0.000179	0.480045	-9.079347	173.863398
43116	2.053870	0.111524	12.932957	0.010466	-0.004061	3.282811	1.000000	-0.000009	0.000120	-0.000178	0.478699	-9.076557	173.864090
43117	2.049301	0.108868	12.942524	0.016114	-0.001841	3.291516	1.000000	-0.000006	0.000111	-0.000191	0.479354	-9.074305	173.849929
43118	2.059170	0.104401	12.943242	0.007162	0.003637	3.293743	1.000000	0.000014	0.000108	-0.000166	0.480340	-9.075131	173.854198
43119	2.050527	0.108444	12.922862	0.011955	-0.001114	3.272290	1.000000	0.000002	0.000114	-0.000167	0.479653	-9.074555	173.860665
43120	2.056376	0.112354	12.925983	0.006055	-0.004627	3.276327	1.000000	-0.000008	0.000111	-0.000169	0.478009	-9.073822	173.864696
43121	2.078929	0.102407	12.927003	-0.015198	0.007765	3.280805	1.000000	0.000003	0.000114	-0.000178	0.479142	-9.072163	173.854753
43122	2.066551	0.114902	12.908973	-0.007164	-0.005929	3.261154	1.000000	-0.000003	0.000092	-0.000182	0.478348	-9.073685	173.857269
43123	2.054316	0.094360	12.931629	0.010720	0.013473	3.281428	1.000000	0.000025	0.000121	-0.000186	0.482110	-9.072351	173.847189
43124	2.061538	0.101690	12.925696	0.001547	0.006951	3.276768	1.000000	-0.000021	0.000117	-0.000169	0.478930	-9.071001	173.852227
43125	2.061872	0.111032	12.940295	0.002465	-0.002573	3.291315	1.000000	0.000016	0.000108	-0.000178	0.480420	-9.071295	173.853054
43126	2.065917	0.109792	12.920214	-0.004544	-0.000562	3.272112	1.000000	-0.000003	0.000122	-0.000183	0.480170	-9.070393	173.850308
43127	2.066094	0.119234	12.934838	-0.003635	-0.010158	3.286659	1.000000	0.000003	0.000114	-0.000178	0.479949	-9.069928	173.854349
43128	2.049519	0.104843	12.927582	0.012923	0.002485	3.276763	1.000000	0.000005	0.000114	-0.000189	0.480194	-9.069494	173.856072
43129	2.068037	0.103899	12.931032	-0.004766	0.005575	3.283079	1.000000	0.000014	0.000117	-0.000176	0.481493	-9.068546	173.856613
43130	2.059497	0.110169	12.942965	0.004609	-0.001379	3.293570	1.000000	-0.000001	0.000112	-0.000184	0.481876	-9.067722	173.848624
43131	2.068344	0.122873	12.960284	-0.003105	-0.013370	3.312171	1.000000	-0.000008	0.000129	-0.000200	0.480743	-9.065034	173.849293
43132	2.053415	0.109260	12.911587	0.005323	-0.001311	3.261620	1.000000	-0.000001	0.000082	-0.000183	0.479664	-9.067863	173.858075
43133	2.060645	0.098321	12.930452	0.002884	0.010165	3.281296	1.000000	0.000004	0.000104	-0.000168	0.480035	-9.068906	173.856329
43134	2.053829	0.107627	12.933266	0.009083	0.000024	3.283078	1.000000	-0.000006	0.000110	-0.000191	0.479075	-9.068837	173.858686
43135	2.061167	0.115067	12.927336	0.000332	-0.006595	3.278440	1.000000	0.000014	0.000117	-0.000176	0.479922	-9.069238	173.865857
43136	2.053386	0.104040	12.922750	0.008180	0.003593	3.272595	1.000000	0.000002	0.000114	-0.000167	0.479081	-9.068409	173.874626
43137	2.059077	0.108101	12.925925	0.002537	0.000258	3.276660	1.000000	-0.000003	0.000121	-0.000183	0.479441	-9.067356	173.864002
43138	2.061428	0.103555	12.914981	-0.001470	0.005377	3.266185	1.000000	0.000007	0.000125	-0.000182	0.480933	-9.065052	173.852798
43139	2.044340	0.106500	12.924164	0.016475	0.000729	3.272587	1.000000	0.000010	0.000085	-0.000182	0.481839	-9.067376	173.852172
43140	2.073515	0.112002	12.921230	-0.012956	-0.001810	3.274329	1.000000	-0.000009	0.000120	-0.000179	0.480061	-9.066624	173.859053
43141	2.065000	0.118079	12.933140	-0.003426	-0.008939	3.284800	1.000000	0.000007	0.000104	-0.000191	0.480675	-9.067280	173.859625
43142	2.048605	0.103484	12.925830	0.013022	0.003917	3.274879	1.000000	-0.000012	0.000118	-0.000196	0.479695	-9.066299	173.853409
43143	2.057495	0.116307	12.943156	0.005407	-0.008052	3.293495	1.000000	0.000006	0.000113	-0.000200	0.480604	-9.065439	173.849631
43144	2.058700	0.108620	12.941237	0.004776	-0.000133	3.291725	1.000000	0.000001	0.000102	-0.000186	0.480778	-9.066192	173.846698
43145	2.071936	0.113025	12.956156	-0.006097	-0.003295	3.308579	1.000000	0.000007	0.000104	-0.000191	0.481017	-9.067166	173.852858
43146	2.042920	0.103538	12.948464	0.022194	0.002944	3.296335	1.000000	-0.000016	0.000106	-0.000193	0.478916	-9.067138	173.854828
43147	2.063219	0.105784	12.942884	0.001213	0.002804	3.294040	1.000000	0.000017	0.000107	-0.000189	0.480349	-9.067436	173.860389
43148	2.054823	0.109958	12.922443	0.005908	-0.001743	3.272567	1.000000	0.000007	0.000104	-0.000191	0.481228	-9.067972	173.857497
43149	2.067783	0.114412	12.937417	-0.005095	-0.004946	3.289432	1.000000	0.000003	0.000123	-0.000188	0.480809	-9.066186	173.865294
43150	2.060321	0.103089	12.932782	0.002837	0.005386	3.283586	1.000000	-0.000010	0.000089	-0.000167	0.479177	-9.068782	173.868309
43151	2.068910	0.095317	12.942643	-0.003023	0.013668	3.294611	1.000000	0.000003	0.000113	-0.000178	0.478952	-9.068410	173.874035
43152	2.052439	0.116433	12.926901	0.008574	-0.008738	3.276647	1.000000	0.000009	0.000094	-0.000192	0.480327	-9.069981	173.867488
43153	2.065179	0.100389	12.934396	-0.000395	0.010037	3.285921	1.000000	0.000001	0.000102	-0.000186	0.486964	-9.071733	173.854770
43154	2.059849	0.113075	12.928113	0.002478	-0.002849	3.278984	1.000000	0.000006	0.000113	-0.000201	0.488432	-9.070873	173.843007
43155	2.064087	0.114440	12.940373	0.000069	-0.003288	3.291769	1.000000	0.000026	0.000110	-0.000176	0.491855	-9.070602	173.832717
43156	2.045251	0.114110	12.958602	0.021334	-0.004842	3.306800	1.000000	-0.000006	0.000109	-0.000191	0.491323	-9.069939	173.829092
43157	2.060816	0.102243	12.915706	0.000391	0.009082	3.266792	1.000000	0.000012	0.000116	-0.000166	0.492516	-9.068775	173.826624
43158	2.046498	0.113728	12.939027	0.016779	-0.004112	3.287664	1.000000	0.000002	0.000113	-0.000167	0.491628	-9.068473	173.838023
43159	2.058883	0.097592	12.946604	0.007486	0.013097	3.296960	1.000000	0.000003	0.000113	-0.000178	0.491403	-9.068352	173.844144
43160	2.064749	0.101921	12.949787	0.001837	0.009521	3.301064	1.000000	0.000010	0.000105	-0.000173	0.492350	-9.069022	173.842926
43161	2.059502	0.114595	12.943482	0.004747	-0.003562	3.294119	1.000000	0.000001	0.000102	-0.000186	0.492101	-9.069626	173.845913
43162	2.062362	0.110102	12.932503	0.000774	0.001397	3.283689	1.000000	0.000003	0.000113	-0.000179	0.492634	-9.069332	173.840031
43163	2.067792	0.093779	12.928253	-0.003538	0.018270	3.280209	1.000000	-0.000003	0.000100	-0.000193	0.492487	-9.069853	173.834002
43164	2.062546	0.106492	12.921947	-0.000564	0.005202	3.273264	1.000000	0.000016	0.000107	-0.000178	0.493871	-9.070157	173.836700
43165	2.045191	0.109160	12.931082	0.017538	0.000710	3.279574	1.000000	-0.000009	0.000119	-0.000179	0.492775	-9.069033	173.833614
43166	2.055071	0.104850	12.931948	0.008197	0.006006	3.281949	1.000000	0.000014	0.000107	-0.000167	0.493753	-9.068713	173.837432
43167	2.058360	0.121029	12.928411	0.002781	-0.009474	3.279112	1.000000	0.000003	0.000113	-0.000179	0.494273	-9.068654	173.831578
43168	2.062041	0.101660	12.933276	0.001793	0.010255	3.284330	1.000000	0.000014	0.000116	-0.000177	0.495279	-9.067537	173.835670
43169	2.060703	0.106021	12.924658	0.001250	0.006238	3.275646	1.000000	0.000016	0.000107	-0.000178	0.497111	-9.067737	173.830825
43170	2.045203	0.111763	12.924658	0.015993	-0.001248	3.273255	1.000000	-0.000018	0.000096	-0.000161	0.494531	-9.068977	173.831884
43171	2.059445	0.098715	12.923171	0.003220	0.012990	3.273917	1.000000	0.000005	0.000112	-0.000190	0.494954	-9.068423	173.831314
43172	2.059440	0.108498	12.937803	0.004346	0.003390	3.288450	1.000000	0.000015	0.000116	-0.000188	0.496557	-9.067485	173.830271
43173	2.065105	0.113134	12.941036	-0.001425	-0.000262	3.292574	1.000000	0.000015	0.000116	-0.000188	0.498135	-9.066326	173.829341
43174	2.050513	0.101725	12.924568	0.011408	0.009739	3.273916	1.000000	-0.000011	0.000107	-0.000187	0.496879	-9.066295	173.825206
43175	2.065274	0.109350	12.930507	-0.002748	0.003517	3.282170	1.000000	0.000006	0.000094	-0.000170	0.497127	-9.068072	173.827001
43176	2.053802	0.106634	12.928178	0.008558	0.005005	3.278041	1.000000	-0.000006	0.000118	-0.000201	0.496700	-9.067195	173.822011
43177	2.057961	0.107396	12.940480	0.006192	0.004409	3.290851	1.000000	-0.000013	0.000107	-0.000176	0.495248	-9.067302	173.816394
43178	2.055085	0.108045	12.940932	0.008964	0.003225	3.290849	1.000000	0.000005	0.000112	-0.000190	0.495339	-9.066889	173.821552
43179	2.068245	0.110507	12.923681	-0.006918	0.002505	3.275908	1.000000	0.000014	0.000106	-0.000167	0.496502	-9.067213	173.823040
43180	2.065382	0.111452	12.924131	-0.003979	0.001442	3.275909	1.000000	0.000003	0.000112	-0.000179	0.496868	-9.067480	173.819912
43181	2.055390	0.111864	12.912743	0.003979	-0.000049	3.263094	1.000000	-0.000008	0.000109	-0.000170	0.495616	-9.067665	173.818859
43182	2.062109	0.100874	12.931800	0.001397	0.011264	3.282876	1.000000	-0.000008	0.000118	-0.000191	0.495010	-9.066525	173.811321
43183	2.063742	0.113543	12.937355	-0.000686	-0.001298	3.288727	1.000000	-0.000000	0.000101	-0.000175	0.494888	-9.067526	173.807470
43184	2.056353	0.102179	12.932706	0.007002	0.009108	3.282876	1.000000	-0.000005	0.000120	-0.000173	0.493964	-9.066319	173.808393
43185	2.062020	0.106353	12.935962	0.001303	0.005415	3.287019	1.000000	-0.000001	0.000110	-0.000185	0.493654	-9.066035	173.807711
43186	2.056530	0.118857	12.929670	0.004306	-0.007644	3.280049	1.000000	-0.000001	0.000110	-0.000185	0.493210	-9.065810	173.809544
43187	2.076126	0.103268	12.949198	-0.010313	0.009914	3.302285	1.000000	0.000014	0.000115	-0.000177	0.494501	-9.064938	173.808703
43188	2.060581	0.106963	12.916890	-0.000681	0.004951	3.267964	1.000000	0.000003	0.000112	-0.000179	0.494294	-9.064449	173.813930
43189	2.069076	0.120091	12.934335	-0.007877	-0.007342	3.286641	1.000000	0.000003	0.000121	-0.000189	0.494242	-9.063027	173.817358
43190	2.048850	0.113777	12.929205	0.011814	-0.003219	3.278338	1.000000	-0.000005	0.000099	-0.000182	0.493557	-9.064184	173.815593
43191	2.056467	0.121361	12.923345	0.002836	-0.009935	3.273814	1.000000	0.000007	0.000102	-0.000191	0.494260	-9.065012	173.815202
43192	2.060587	0.102069	12.928201	0.001776	0.009833	3.279093	1.000000	0.000010	0.000104	-0.000174	0.495187	-9.065536	173.812953
43193	2.062166	0.094328	12.926300	0.000894	0.017593	3.277399	1.000000	-0.000009	0.000097	-0.000188	0.493755	-9.066623	173.816229
43194	2.069634	0.124756	12.960188	-0.004166	-0.012123	3.312299	1.000000	0.000016	0.000106	-0.000178	0.495295	-9.066882	173.815629
43195	2.071401	0.114870	12.926008	-0.010231	-0.001741	3.278740	1.000000	-0.000007	0.000108	-0.000181	0.494354	-9.066702	173.812691
43196	2.064454	0.103662	12.921289	-0.002695	0.008598	3.272890	1.000000	0.000011	0.000083	-0.000194	0.495190	-9.069322	173.818663
43197	2.061579	0.104401	12.921742	0.000088	0.007447	3.272891	1.000000	-0.000013	0.000136	-0.000177	0.493137	-9.066216	173.823071
43198	2.054303	0.113687	12.924530	0.006420	-0.002577	3.274578	1.000000	0.000018	0.000096	-0.000180	0.494867	-9.067354	173.823091
43199	2.055816	0.106212	12.922645	0.005617	0.005201	3.272891	1.000000	0.000003	0.000111	-0.000179	0.494849	-9.067204	173.826352
43200	2.060043	0.107445	12.934959	0.003345	0.004447	3.285727	1.000000	0.000011	0.000104	-0.000185	0.495948	-9.067892	173.826971
43201	2.054554	0.120223	12.928648	0.006426	-0.008552	3.278740	1.000000	0.000009	0.000113	-0.000184	0.496880	-9.067445	173.825208
43202	2.056781	0.097600	12.942639	0.008625	0.014105	3.292713	1.000000	0.000001	0.000121	-0.000178	0.496443	-9.066017	173.830881
43203	2.061461	0.117009	12.930093	-0.000013	-0.004589	3.281227	1.000000	0.000006	0.000102	-0.000180	0.496728	-9.067069	173.834215
43204	2.068584	0.104021	12.916894	-0.007829	0.009171	3.269203	1.000000	-0.000010	0.000126	-0.000190	0.495777	-9.065134	173.827863
43205	2.050895	0.106179	12.925943	0.010338	0.004791	3.275373	1.000000	-0.000009	0.000117	-0.000180	0.494318	-9.064078	173.830553
43206	2.069565	0.105550	12.929734	-0.007374	0.007289	3.282050	1.000000	0.000006	0.000102	-0.000180	0.494783	-9.064789	173.828284
43207	2.053869	0.111348	12.929651	0.007547	-0.000110	3.279547	1.000000	0.000005	0.000111	-0.000190	0.495046	-9.064858	173.833414
43208	2.061339	0.119013	12.923849	-0.001453	-0.006851	3.275059	1.000000	-0.000000	0.000100	-0.000176	0.494820	-9.065740	173.829989
43209	2.049957	0.116114	12.921454	0.009759	-0.005270	3.270877	1.000000	-0.000002	0.000109	-0.000175	0.494247	-9.065724	173.829386
43210	2.056997	0.105490	12.940517	0.007181	0.005851	3.290719	1.000000	0.000008	0.000092	-0.000182	0.494853	-9.067593	173.830234
43211	2.061917	0.104151	12.920505	-0.000441	0.007632	3.271721	1.000000	-0.000018	0.000104	-0.000172	0.492294	-9.067980	173.830655
43212	2.060414	0.110350	12.944166	0.004333	0.000918	3.294902	1.000000	0.000017	0.000096	-0.000169	0.493544	-9.069548	173.836587
43213	2.059021	0.114708	12.935576	0.003801	-0.003159	3.286237	1.000000	0.000011	0.000133	-0.000186	0.494784	-9.066897	173.832872
43214	2.051613	0.103564	12.930926	0.011323	0.007351	3.280383	1.000000	0.000004	0.000102	-0.000169	0.494952	-9.067723	173.830941
43215	2.051395	0.113271	12.945573	0.012797	-0.002336	3.294896	1.000000	0.000008	0.000122	-0.000194	0.495889	-9.066451	173.831260
43216	2.052715	0.105887	12.943743	0.011874	0.005502	3.293233	1.000000	0.000016	0.000105	-0.000179	0.497627	-9.066720	173.825611
43217	2.063366	0.120221	12.919850	-0.003819	-0.007282	3.271440	1.000000	-0.000002	0.000109	-0.000175	0.497164	-9.066648	173.822032
43218	2.063171	0.109189	12.927071	-0.001293	0.003574	3.278445	1.000000	0.000002	0.000111	-0.000168	0.497228	-9.066658	173.818473
43219	2.047269	0.114699	12.926984	0.013607	-0.003739	3.275902	1.000000	-0.000008	0.000116	-0.000191	0.496209	-9.065916	173.819895
43220	2.060076	0.098737	12.934751	0.003962	0.013153	3.285452	1.000000	-0.000005	0.000098	-0.000182	0.495079	-9.067147	173.827455
43221	2.061226	0.111583	12.940382	0.002082	0.000442	3.291304	1.000000	0.000007	0.000142	-0.000174	0.495478	-9.063436	173.829668
43222	2.056919	0.107164	12.917642	0.002823	0.004961	3.268132	1.000000	0.000022	0.000107	-0.000183	0.497965	-9.063648	173.824494
43223	2.056568	0.117140	12.932305	0.004272	-0.004712	3.282643	1.000000	0.000012	0.000124	-0.000176	0.499027	-9.061871	173.822250
43224	2.063918	0.104386	12.919139	-0.003702	0.008934	3.270688	1.000000	-0.000000	0.000100	-0.000176	0.498664	-9.063020	173.823471
43225	2.073382	0.102612	12.952471	-0.007606	0.011448	3.305077	1.000000	0.000003	0.000120	-0.000189	0.499004	-9.061636	173.818331
43226	2.053817	0.114450	12.922328	0.005625	-0.002124	3.272334	1.000000	0.000004	0.000101	-0.000170	0.499069	-9.062804	173.821208
43227	2.057744	0.115362	12.934722	0.003390	-0.002897	3.285200	1.000000	-0.000021	0.000131	-0.000202	0.497016	-9.060161	173.813508
43228	2.059921	0.113008	12.956192	0.004535	-0.000668	3.306723	1.000000	0.000003	0.000110	-0.000180	0.497318	-9.059917	173.809126
43229	2.054444	0.104939	12.942441	0.008642	0.006802	3.292213	1.000000	-0.000005	0.000107	-0.000192	0.496575	-9.060314	173.810800
43230	2.066236	0.104331	12.934410	-0.004001	0.008824	3.286132	1.000000	0.000016	0.000105	-0.000179	0.498147	-9.060975	173.811690
43231	2.050379	0.110032	12.934276	0.010873	0.001595	3.283554	1.000000	-0.000003	0.000118	-0.000185	0.497648	-9.059870	173.809337
43232	2.061983	0.109243	12.926282	-0.001829	0.003577	3.277479	1.000000	-0.000001	0.000108	-0.000186	0.497248	-9.059867	173.810735
43233	2.053003	0.115070	12.938081	0.008176	-0.004430	3.287767	1.000000	-0.000002	0.000120	-0.000156	0.491783	-9.059564	173.805276
43234	2.068971	0.105732	12.927821	-0.008257	0.006464	3.280069	1.000000	-0.000007	0.000107	-0.000181	0.490859	-9.059796	173.802527
43235	2.050791	0.102576	12.913433	0.007866	0.007859	3.262973	1.000000	0.000018	0.000095	-0.000180	0.492711	-9.061299	173.800621
43236	2.050649	0.112083	12.928061	0.009438	-0.001843	3.277476	1.000000	-0.000021	0.000113	-0.000171	0.489981	-9.060997	173.800580
43237	2.052758	0.109791	12.949545	0.010656	0.000325	3.299005	1.000000	0.000011	0.000132	-0.000187	0.491079	-9.058473	173.800079
43238	2.057442	0.109017	12.929634	0.002907	0.002083	3.280073	1.000000	0.000014	0.000093	-0.000187	0.492622	-9.060119	173.795355
43239	2.054796	0.109909	12.930047	0.005697	0.000985	3.280072	1.000000	-0.000002	0.000108	-0.000175	0.492030	-9.060187	173.794757
43240	2.064866	0.105996	12.931116	-0.003612	0.005972	3.282679	1.000000	0.000009	0.000112	-0.000184	0.492905	-9.059934	173.794357
43241	2.063497	0.110084	12.922540	-0.004193	0.001845	3.274029	1.000000	-0.000005	0.000118	-0.000174	0.491996	-9.058990	173.794913
43242	2.057124	0.104234	12.941126	0.005344	0.006748	3.291330	1.000000	0.000003	0.000119	-0.000190	0.492098	-9.057770	173.794820
43243	2.060468	0.100123	12.930231	0.000999	0.011477	3.281063	1.000000	0.000019	0.000086	-0.000170	0.493807	-9.060516	173.796684
43244	2.060114	0.109740	12.944889	0.002601	0.001722	3.295564	1.000000	-0.000013	0.000134	-0.000178	0.491858	-9.057644	173.798379
43245	2.055863	0.125505	12.929547	0.002423	-0.014291	3.279880	1.000000	0.000016	0.000104	-0.000179	0.493376	-9.058279	173.799233
43246	2.067310	0.106687	12.946427	-0.003928	0.005592	3.298189	1.000000	-0.000004	0.000097	-0.000183	0.492755	-9.059604	173.795757
43247	2.066115	0.110726	12.937826	-0.004468	0.001413	3.289542	1.000000	0.000003	0.000119	-0.000190	0.492783	-9.058706	173.800059
43248	2.063137	0.111485	12.938295	-0.001633	0.000272	3.289543	1.000000	-0.000002	0.000108	-0.000175	0.492042	-9.059014	173.804154
43249	2.066437	0.107271	12.927421	-0.006002	0.004990	3.279288	1.000000	0.000013	0.000102	-0.000197	0.493558	-9.059888	173.802914
43250	2.055033	0.104348	12.924965	0.005123	0.006694	3.275044	1.000000	-0.000010	0.000116	-0.000169	0.491934	-9.059134	173.802970
43251	2.056167	0.117314	12.930597	0.003380	-0.006084	3.280895	1.000000	0.000017	0.000113	-0.000200	0.493887	-9.058689	173.801127
43252	2.068882	0.101898	12.938514	-0.006344	0.010699	3.290581	1.000000	-0.000000	0.000119	-0.000168	0.493282	-9.057688	173.805195
43253	2.051313	0.103961	12.947369	0.012006	0.006636	3.296579	1.000000	-0.000005	0.000106	-0.000193	0.492922	-9.058156	173.799190
43254	2.051873	0.111368	12.929706	0.008055	-0.000516	3.279288	1.000000	0.000010	0.000102	-0.000175	0.493732	-9.059106	173.800741
43255	2.053556	0.103785	12.927883	0.007039	0.007228	3.277687	1.000000	-0.000002	0.000108	-0.000175	0.493123	-9.059271	173.800818
43256	2.060896	0.111560	12.922200	-0.001860	0.000256	3.273297	1.000000	0.000004	0.000110	-0.000180	0.493187	-9.059344	173.803029
43257	2.064914	0.112791	12.934612	-0.003955	-0.000665	3.286197	1.000000	0.000002	0.000110	-0.000169	0.492927	-9.059474	173.806446
43258	2.068064	0.108323	12.923784	-0.008331	0.004031	3.275961	1.000000	-0.000009	0.000115	-0.000181	0.491614	-9.058988	173.808811
43259	2.055059	0.101992	12.930350	0.006173	0.008765	3.280346	1.000000	0.000006	0.000100	-0.000181	0.491955	-9.060026	173.809764
43260	2.068649	0.104716	12.913363	-0.009999	0.007640	3.265732	1.000000	-0.000005	0.000106	-0.000193	0.491452	-9.060298	173.804072
43261	2.054952	0.118729	12.927396	0.003857	-0.008139	3.277553	1.000000	-0.000013	0.000134	-0.000178	0.489521	-9.057502	173.805326
43262	2.059925	0.104874	12.955682	0.004709	0.005825	3.306151	1.000000	0.000007	0.000100	-0.000192	0.490300	-9.058630	173.804595
43263	2.060408	0.112180	12.938042	0.000709	-0.001373	3.288869	1.000000	-0.000010	0.000115	-0.000170	0.488495	-9.057951	173.807862
43264	2.065242	0.111025	12.918178	-0.007104	0.000308	3.270005	1.000000	0.000004	0.000109	-0.000180	0.488692	-9.058071	173.807804
43265	2.051168	0.107010	12.957054	0.013157	0.002490	3.306146	1.000000	0.000001	0.000119	-0.000179	0.488599	-9.057093	173.807939
43266	2.054147	0.102865	12.946262	0.008711	0.007145	3.295923	1.000000	0.000013	0.000122	-0.000188	0.489773	-9.055688	173.810464
43267	2.062344	0.108694	12.908315	-0.005912	0.002746	3.259788	1.000000	0.000006	0.000100	-0.000181	0.490197	-9.056924	173.812229
43268	2.064809	0.106726	12.929762	-0.004636	0.004789	3.281339	1.000000	0.000004	0.000109	-0.000180	0.490132	-9.056882	173.814557
43269	2.053363	0.103629	12.927284	0.006425	0.006541	3.277065	1.000000	-0.000009	0.000115	-0.000181	0.488798	-9.056112	173.813105
43270	2.057403	0.104764	12.939706	0.004314	0.005588	3.289978	1.000000	0.000004	0.000100	-0.000170	0.488817	-9.057133	173.813846
43271	2.056226	0.108817	12.931112	0.003684	0.001454	3.281340	1.000000	-0.000003	0.000116	-0.000186	0.488301	-9.056201	173.811263
43272	2.066325	0.104856	12.932279	-0.005685	0.006322	3.284047	1.000000	-0.000007	0.000105	-0.000182	0.487432	-9.056634	173.808486
43273	2.061832	0.102345	12.941762	0.000539	0.008237	3.292684	1.000000	0.000009	0.000111	-0.000185	0.488307	-9.056573	173.809161
43274	2.065913	0.103739	12.954181	-0.001567	0.007296	3.305602	1.000000	0.000004	0.000100	-0.000170	0.488436	-9.057562	173.807631
43275	2.065240	0.125961	12.920710	-0.008507	-0.014784	3.272630	1.000000	-0.000010	0.000115	-0.000170	0.486728	-9.056953	173.809254
43276	2.051048	0.095485	12.928869	0.009916	0.013618	3.278198	1.000000	-0.000008	0.000105	-0.000171	0.485457	-9.057437	173.809133
43277	2.064147	0.118470	12.919365	-0.006789	-0.008167	3.271067	1.000000	-0.000017	0.000102	-0.000184	0.483315	-9.058294	173.807939
43278	2.059577	0.115753	12.928859	-0.000579	-0.006258	3.279700	1.000000	0.000006	0.000120	-0.000173	0.483486	-9.057088	173.809788
43279	2.063790	0.096659	12.933931	-0.002175	0.013298	3.285212	1.000000	0.000012	0.000122	-0.000177	0.484449	-9.055630	173.809772
43280	2.059584	0.112574	12.918563	-0.002316	-0.002681	3.269507	1.000000	0.000004	0.000109	-0.000180	0.484665	-9.055622	173.807508
43281	2.057831	0.098311	12.934868	0.003385	0.011077	3.285213	1.000000	-0.000005	0.000116	-0.000175	0.483671	-9.054772	173.808503
43282	2.052687	0.116078	12.951777	0.009151	-0.007528	3.301251	1.000000	-0.000008	0.000105	-0.000171	0.482328	-9.055312	173.809592
43283	2.066144	0.119122	12.934901	-0.007047	-0.008788	3.286728	1.000000	0.000026	0.000116	-0.000188	0.485226	-9.054592	173.807351
43284	2.057586	0.104774	12.939202	0.003524	0.004852	3.289509	1.000000	0.000004	0.000109	-0.000180	0.485312	-9.054678	173.808161
43285	2.059326	0.097086	12.937418	0.002387	0.012539	3.287957	1.000000	-0.000008	0.000105	-0.000171	0.483876	-9.055088	173.808756
43286	2.069833	0.111367	12.913764	-0.013372	-0.000631	3.266369	1.000000	-0.000010	0.000123	-0.000191	0.482569	-9.053319	173.806710
43287	2.059025	0.113813	12.934510	0.000156	-0.004501	3.285178	1.000000	0.000006	0.000099	-0.000182	0.482870	-9.054376	173.806548
43288	2.063826	0.094745	12.939512	-0.001477	0.015010	3.290713	1.000000	0.000010	0.000101	-0.000175	0.483552	-9.055361	173.809044
43289	2.066719	0.111028	12.936102	-0.006401	-0.000882	3.287936	1.000000	-0.000007	0.000105	-0.000182	0.482568	-9.055996	173.809846
43290	2.063779	0.111793	12.936564	-0.003589	-0.002009	3.287937	1.000000	0.000007	0.000119	-0.000184	0.483118	-9.054896	173.810637
43291	2.055092	0.097153	12.940884	0.006954	0.011670	3.290715	1.000000	0.000001	0.000118	-0.000179	0.483010	-9.053970	173.810315
43292	2.049121	0.109541	12.934553	0.010323	-0.001277	3.283627	1.000000	-0.000000	0.000118	-0.000168	0.482527	-9.053221	173.813693
43293	2.066027	0.106163	12.947796	-0.003900	0.003571	3.299335	1.000000	-0.000008	0.000105	-0.000171	0.481199	-9.053761	173.814333
43294	2.072961	0.108524	12.918912	-0.015306	0.002115	3.271922	1.000000	0.000008	0.000099	-0.000193	0.481961	-9.054998	173.813869
43295	2.061928	0.105538	12.916329	-0.004251	0.003979	3.267611	1.000000	0.000000	0.000097	-0.000177	0.481759	-9.056419	173.813113
43296	2.055008	0.120309	12.942251	0.005110	-0.011609	3.292244	1.000000	0.000012	0.000121	-0.000177	0.482699	-9.055307	173.816908
43297	2.059228	0.101316	12.947368	0.003418	0.007924	3.297802	1.000000	0.000006	0.000128	-0.000194	0.483444	-9.053142	173.814632
43298	2.058050	0.105560	12.938786	0.002764	0.003796	3.289178	1.000000	0.000007	0.000090	-0.000172	0.483901	-9.055236	173.812247
43299	2.065589	0.113649	12.933159	-0.006096	-0.003318	3.284874	1.000000	0.000005	0.000108	-0.000192	0.484467	-9.055421	173.810499
43300	2.062683	0.114373	12.933616	-0.003262	-0.004400	3.284875	1.000000	-0.000009	0.000114	-0.000181	0.483346	-9.055054	173.810169
43301	2.059821	0.114883	12.934068	-0.000474	-0.005515	3.284875	1.000000	-0.000008	0.000105	-0.000171	0.481966	-9.055547	173.810741
43302	2.070057	0.111185	12.935305	-0.009862	-0.000812	3.287676	1.000000	0.000010	0.000110	-0.000185	0.482894	-9.055597	173.810903
43303	2.067179	0.112199	12.935756	-0.007021	-0.001954	3.287677	1.000000	0.000010	0.000110	-0.000185	0.483699	-9.055742	173.813769
43304	2.062639	0.109804	12.945231	-0.000788	-0.000026	3.296299	1.000000	0.000004	0.000108	-0.000181	0.483824	-9.055920	173.813849
43305	2.064277	0.102376	12.943494	-0.001946	0.007647	3.294780	1.000000	0.000007	0.000119	-0.000184	0.484459	-9.054948	173.814378
43306	2.050241	0.116595	12.957412	0.012317	-0.007953	3.306436	1.000000	0.000006	0.000119	-0.000173	0.484846	-9.054041	173.815722
43307	2.057745	0.098531	12.921188	0.001047	0.011149	3.271693	1.000000	0.000002	0.000108	-0.000170	0.484698	-9.054086	173.814774
43308	2.058733	0.111536	12.926843	-0.000431	-0.001703	3.277542	1.000000	0.000004	0.000108	-0.000181	0.484981	-9.054040	173.810406
43309	2.050910	0.102559	12.954348	0.012664	0.006350	3.303397	1.000000	0.000016	0.000102	-0.000180	0.486622	-9.054837	173.809157
43310	2.059596	0.108466	12.916473	-0.002300	0.001806	3.267411	1.000000	-0.000005	0.000104	-0.000194	0.485955	-9.055361	173.806850
43311	2.048809	0.110880	12.937153	0.011339	-0.001956	3.286156	1.000000	0.000004	0.000108	-0.000181	0.486206	-9.055393	173.803910
43312	2.062454	0.113882	12.920367	-0.004961	-0.003384	3.271751	1.000000	-0.000002	0.000106	-0.000176	0.485667	-9.055759	173.803177
43313	2.056200	0.107865	12.938866	0.004905	0.002378	3.288985	1.000000	-0.000007	0.000113	-0.000193	0.488301	-9.055829	173.776447
43314	2.069617	0.110860	12.922126	-0.011378	0.000953	3.274590	1.000000	0.000006	0.000119	-0.000173	0.488652	-9.054825	173.776627
43315	2.069492	0.100133	12.929442	-0.009109	0.011638	3.281704	1.000000	0.000005	0.000116	-0.000202	0.489202	-9.054247	173.777286
43316	2.066750	0.101182	12.929873	-0.006339	0.010497	3.281706	1.000000	0.000017	0.000093	-0.000170	0.490577	-9.056026	173.778390
43317	2.049407	0.103143	12.938460	0.012118	0.006683	3.287475	1.000000	-0.000005	0.000103	-0.000194	0.489976	-9.056648	173.776473
43318	2.055790	0.087393	12.934541	0.006844	0.023116	3.284475	1.000000	0.000012	0.000120	-0.000178	0.490976	-9.055306	173.775655
43319	2.062199	0.115928	12.936397	-0.002163	-0.004622	3.287558	1.000000	-0.000010	0.000093	-0.000179	0.489613	-9.057143	173.774153
43320	2.062656	0.104997	12.943625	0.000086	0.006085	3.294675	1.000000	0.000006	0.000098	-0.000182	0.490092	-9.058587	173.774991
43321	2.067879	0.104254	12.923843	-0.008035	0.007674	3.275956	1.000000	0.000006	0.000119	-0.000173	0.490532	-9.057532	173.773459
43322	2.048564	0.102789	12.941478	0.013878	0.006940	3.290320	1.000000	0.000005	0.000098	-0.000171	0.490602	-9.058761	173.773869
43323	2.057673	0.114267	12.926896	0.001625	-0.003287	3.277450	1.000000	0.000005	0.000107	-0.000192	0.491306	-9.059154	173.772106
43324	2.059565	0.106448	12.925153	0.000367	0.004347	3.275960	1.000000	-0.000029	0.000105	-0.000186	0.487716	-9.059575	173.771418
43325	2.054795	0.103645	12.934656	0.006635	0.006313	3.284571	1.000000	0.000011	0.000129	-0.000188	0.488913	-9.057399	173.770010
43326	2.058138	0.099886	12.923931	0.001934	0.010917	3.274473	1.000000	0.000022	0.000103	-0.000185	0.491314	-9.058088	173.768612
43327	2.065454	0.108304	12.918393	-0.006921	0.003695	3.270227	1.000000	0.000008	0.000109	-0.000174	0.491844	-9.058055	173.768540
43328	2.054522	0.110801	12.939052	0.006813	-0.000092	3.288930	1.000000	0.000004	0.000107	-0.000181	0.491869	-9.058237	173.768739
43329	2.059813	0.109993	12.919279	-0.001329	0.001441	3.270229	1.000000	0.000002	0.000107	-0.000170	0.491680	-9.058565	173.770417
43330	2.055581	0.113063	12.952000	0.007723	-0.002325	3.301901	1.000000	0.000005	0.000107	-0.000192	0.492189	-9.058924	173.769960
43331	2.057085	0.100074	12.927019	0.003650	0.011015	3.277358	1.000000	0.000001	0.000116	-0.000180	0.492050	-9.058096	173.769388
43332	2.075588	0.100625	12.931422	-0.013967	0.012504	3.284623	1.000000	0.000012	0.000111	-0.000168	0.492917	-9.057986	173.771760
43333	2.069617	0.113182	12.925047	-0.010540	-0.000416	3.277494	1.000000	0.000003	0.000116	-0.000191	0.493212	-9.057258	173.770188
43334	2.050162	0.111373	12.942657	0.011380	-0.001076	3.291809	1.000000	-0.000019	0.000109	-0.000184	0.490854	-9.057160	173.767413
43335	2.061993	0.110980	12.934998	-0.001522	0.000397	3.286103	1.000000	0.000006	0.000118	-0.000173	0.490990	-9.056194	173.769430
43336	2.050739	0.108016	12.932385	0.009471	0.002387	3.281727	1.000000	0.000016	0.000101	-0.000180	0.492700	-9.057208	173.768958
43337	2.067445	0.099689	12.922539	-0.007551	0.012632	3.274561	1.000000	-0.000004	0.000114	-0.000175	0.491864	-9.056571	173.768612
43338	2.069745	0.116147	12.919240	-0.012250	-0.003359	3.271805	1.000000	0.000013	0.000119	-0.000189	0.493348	-9.055550	173.767771
43339	2.046781	0.102336	12.931572	0.013846	0.007841	3.280253	1.000000	-0.000005	0.000094	-0.000173	0.492373	-9.057557	173.770270
43340	2.069096	0.109362	12.917923	-0.010700	0.003167	3.270345	1.000000	-0.000005	0.000103	-0.000194	0.491850	-9.058290	173.768034
43341	2.062854	0.103279	12.936396	-0.000996	0.008189	3.287553	1.000000	-0.000009	0.000112	-0.000182	0.490644	-9.057919	173.767076
43342	2.065272	0.119649	12.933078	-0.005722	-0.007849	3.284796	1.000000	0.000012	0.000111	-0.000168	0.491466	-9.057716	173.768715
43343	2.058707	0.108205	12.928303	0.001132	0.002888	3.278951	1.000000	-0.000004	0.000114	-0.000176	0.490640	-9.057209	173.768609
43344	2.060610	0.100505	12.926591	-0.000178	0.010556	3.277494	1.000000	-0.000008	0.000103	-0.000172	0.489510	-9.057937	173.767638
43345	2.066244	0.105101	12.930099	-0.005474	0.006343	3.281884	1.000000	-0.000002	0.000105	-0.000177	0.489007	-9.058712	173.769543
43346	2.069996	0.106536	12.942647	-0.007350	0.005152	3.294878	1.000000	0.000003	0.000115	-0.000191	0.489164	-9.058074	173.769525
43347	2.062526	0.110182	12.921941	-0.003319	0.001028	3.273286	1.000000	0.000011	0.000079	-0.000185	0.490287	-9.061620	173.768823
43348	2.064819	0.108298	12.943459	-0.001769	0.002948	3.294880	1.000000	-0.000010	0.000121	-0.000192	0.489204	-9.060151	173.765309
43349	2.053368	0.104901	12.940862	0.009200	0.004941	3.290485	1.000000	-0.000000	0.000116	-0.000169	0.488643	-9.059528	173.768051
43350	2.066500	0.089816	12.949126	-0.000894	0.021206	3.300585	1.000000	0.000001	0.000116	-0.000180	0.488461	-9.059046	173.770449
43351	2.062265	0.105576	12.933717	-0.000877	0.005269	3.284835	1.000000	0.000004	0.000106	-0.000181	0.488840	-9.059440	173.769037
43352	2.061318	0.115298	12.948410	0.001368	-0.004615	3.299277	1.000000	0.000002	0.000107	-0.000170	0.488708	-9.059634	173.768262
43353	2.053174	0.094832	12.929340	0.008669	0.014899	3.278991	1.000000	-0.000005	0.000102	-0.000195	0.488047	-9.060408	173.767303
43354	2.067001	0.103626	12.935978	-0.004815	0.007470	3.287796	1.000000	0.000001	0.000115	-0.000180	0.487762	-9.059664	173.768035
43356	2.061163	0.110531	12.933227	-0.003215	0.000835	16.381125	1.000000	0.000003	0.000213	-0.000329	0.490379	-9.047916	173.754492
43357	2.065148	0.101077	12.926139	-0.006773	0.010854	3.277765	1.000000	0.000008	0.000097	-0.000194	0.491292	-9.049381	173.752658
43358	2.078891	0.109739	12.932805	-0.020168	0.003412	3.286582	1.000000	-0.000024	0.000126	-0.000182	0.488250	-9.047734	173.755252
43359	2.057493	0.098747	12.936083	0.002330	0.011741	3.286363	1.000000	-0.000000	0.000104	-0.000188	0.488365	-9.048220	173.751003
43360	2.066727	0.134067	12.920037	-0.013128	-0.022345	3.272266	1.000000	-0.000003	0.000125	-0.000168	0.487560	-9.046788	173.754904
43361	2.074530	0.022255	12.976096	-0.000327	0.088911	3.327911	1.000000	-0.000008	0.000123	-0.000164	0.485863	-9.045381	173.759014
43362	2.022275	0.133053	12.934009	0.032117	-0.026395	3.279071	1.000000	0.000016	0.000118	-0.000212	0.488037	-9.044200	173.753573
43363	2.038309	0.089896	12.879397	0.012186	0.018819	3.227296	1.000000	-0.000011	0.000121	-0.000181	0.486548	-9.042885	173.752495
43364	2.070085	0.177075	12.982072	-0.011845	-0.065217	3.334419	1.000000	0.000032	0.000069	-0.000150	0.489354	-9.047652	173.756472
43365	2.070018	0.096485	12.899445	-0.015341	0.015702	3.252131	1.000000	-0.000013	0.000098	-0.000208	0.488102	-9.049168	173.754646
43366	2.067302	0.102864	12.923142	-0.009481	0.008856	3.275160	1.000000	0.000017	0.000112	-0.000162	0.489428	-9.049044	173.757635
43367	2.132387	0.139502	12.939587	-0.074996	-0.020774	3.301938	1.000000	-0.000018	0.000127	-0.000187	0.487258	-9.047030	173.756872
43368	2.047220	0.084412	12.924805	0.011637	0.024751	3.273491	1.000000	0.000002	0.000135	-0.000183	0.487179	-9.044181	173.757955
43369	2.056604	0.149379	12.930456	-0.003928	-0.038750	3.281093	1.000000	0.000006	0.000105	-0.000193	0.487890	-9.044723	173.756144
43370	2.047236	0.062670	12.939513	0.015803	0.046077	3.287836	1.000000	-0.000021	0.000128	-0.000165	0.484721	-9.042631	173.759078
43371	2.028146	0.073484	12.908832	0.028585	0.033442	3.254630	1.000000	0.000019	0.000091	-0.000182	0.486766	-9.044895	173.759347
43372	2.066246	0.144862	12.953881	-0.008828	-0.033649	3.305704	1.000000	0.000006	0.000088	-0.000161	0.486814	-9.047562	173.762980
43373	2.066203	0.098900	12.916285	-0.009710	0.012198	3.268182	1.000000	-0.000014	0.000129	-0.000180	0.485166	-9.045449	173.763065
43374	2.069785	0.100371	12.928888	-0.011484	0.010963	3.281204	1.000000	0.000012	0.000098	-0.000187	0.486469	-9.046913	173.763128
43375	2.058800	0.097337	12.926177	-0.000560	0.013035	3.276774	1.000000	0.000010	0.000107	-0.000186	0.487368	-9.047333	173.764238
43376	2.065937	0.135197	12.942460	-0.009346	-0.023815	3.294295	1.000000	0.000004	0.000134	-0.000194	0.487691	-9.044529	173.763400
43377	2.064165	0.115662	12.935573	-0.006882	-0.004367	3.287051	1.000000	0.000012	0.000110	-0.000169	0.488499	-9.044607	173.766132
43378	2.049612	0.100279	12.927614	0.007891	0.009624	3.276775	1.000000	0.000010	0.000107	-0.000186	0.489399	-9.045016	173.767201
43379	2.060266	0.126676	12.950706	-0.001586	-0.015438	3.301476	1.000000	0.000015	0.000100	-0.000170	0.490665	-9.046121	173.768897
43380	2.120517	0.136513	12.924492	-0.065743	-0.018918	3.285138	1.000000	-0.000041	0.000108	-0.000188	0.485952	-9.046564	173.769596
43381	1.993605	0.080832	12.901009	0.061376	0.022624	3.241536	1.000000	0.000017	0.000091	-0.000171	0.487545	-9.048787	173.771366
43382	2.109973	0.151598	12.950775	-0.052677	-0.035627	3.309564	1.000000	-0.000005	0.000133	-0.000167	0.486394	-9.046204	173.774003
43383	1.974035	0.079162	12.972276	0.091827	0.021445	3.308827	1.000000	-0.000004	0.000092	-0.000185	0.485838	-9.048180	173.773136
43384	2.067827	0.094940	12.912133	-0.011004	0.016443	3.264305	1.000000	0.000017	0.000100	-0.000181	0.487600	-9.049397	173.773417
43385	2.077725	0.079179	12.961747	-0.011156	0.032973	3.314722	1.000000	0.000003	0.000114	-0.000192	0.487956	-9.048808	173.770850
43386	2.039264	0.122685	12.939457	0.018603	-0.014303	3.287032	1.000000	-0.000005	0.000093	-0.000174	0.487012	-9.050842	173.771639
43387	2.068005	0.101502	12.916563	-0.010659	0.009864	3.268763	1.000000	0.000002	0.000106	-0.000171	0.486784	-9.051392	173.773658
43388	2.081344	0.062852	12.926535	-0.017913	0.049634	3.280382	1.000000	0.000004	0.000105	-0.000182	0.487039	-9.051966	173.773920
43389	2.111913	0.128176	12.936407	-0.053408	-0.011890	3.295487	1.000000	0.000015	0.000117	-0.000201	0.488816	-9.051034	173.771383
43390	2.103390	0.113533	12.940677	-0.043302	0.002003	3.298239	1.000000	0.000002	0.000143	-0.000193	0.488991	-9.047238	173.769803
43391	2.012314	0.110637	12.933388	0.044536	-0.004614	3.276704	1.000000	0.000006	0.000133	-0.000206	0.489957	-9.044462	173.766133
43392	2.023939	0.116376	12.949193	0.034737	-0.009176	3.294187	1.000000	0.000001	0.000106	-0.000160	0.489260	-9.044954	173.769116
43393	2.069076	0.109167	12.955940	-0.007466	0.002643	3.307881	1.000000	0.000001	0.000094	-0.000179	0.488964	-9.046876	173.771051
43394	2.095151	0.123510	12.924565	-0.039022	-0.008703	3.281116	1.000000	-0.000000	0.000086	-0.000157	0.488292	-9.049663	173.773555
43395	2.095460	0.112625	12.931909	-0.036960	0.001950	3.288326	1.000000	-0.000003	0.000132	-0.000179	0.487708	-9.047231	173.774380
43396	2.053919	0.104954	12.921905	0.002322	0.005235	3.271853	1.000000	0.000006	0.000145	-0.000187	0.488078	-9.043228	173.774732
43397	2.015394	0.115201	12.940436	0.041072	-0.009142	3.284190	1.000000	-0.000003	0.000141	-0.000200	0.487747	-9.039580	173.771984
43398	2.025550	0.087900	12.943567	0.034498	0.018825	3.288647	1.000000	-0.000013	0.000079	-0.000177	0.485904	-9.043116	173.773169
43399	2.066210	0.083214	12.929183	-0.006726	0.027649	3.280789	1.000000	-0.000002	0.000103	-0.000178	0.485333	-9.043859	173.773504
43400	2.075120	0.076686	12.939650	-0.012767	0.034988	3.292470	1.000000	0.000012	0.000089	-0.000166	0.486105	-9.046252	173.775215
43401	2.062669	0.117843	12.942658	-0.004269	-0.007138	3.293830	1.000000	0.000008	0.000116	-0.000186	0.486820	-9.045589	173.774437
43402	2.045216	0.108181	12.904505	0.007847	0.000990	3.253330	1.000000	-0.000001	0.000111	-0.000199	0.486723	-9.045537	173.773530
43403	2.062087	0.111339	12.941426	-0.002885	-0.000767	3.292468	1.000000	-0.000001	0.000082	-0.000186	0.486307	-9.048848	173.775183
43404	2.072878	0.108335	12.942889	-0.012424	0.003478	3.295584	1.000000	0.000017	0.000099	-0.000181	0.488006	-9.050016	173.774708
43405	2.095014	0.116266	12.929630	-0.036978	-0.001771	3.286036	1.000000	-0.000000	0.000114	-0.000170	0.487648	-9.049591	173.776181
43406	2.063768	0.121849	12.936921	-0.005984	-0.010470	3.288373	1.000000	0.000026	0.000123	-0.000171	0.490201	-9.047931	173.776703
43407	2.054153	0.122295	12.925232	0.001353	-0.011364	3.275322	1.000000	0.000013	0.000117	-0.000190	0.491677	-9.047119	173.775503
43408	2.061189	0.130664	12.919897	-0.007301	-0.018909	3.271230	1.000000	-0.000013	0.000108	-0.000190	0.490065	-9.047627	173.776730
43409	2.074824	0.115811	12.928335	-0.017642	-0.002909	3.281580	1.000000	-0.000000	0.000102	-0.000189	0.490146	-9.048556	173.775827
43410	2.068542	0.104148	12.923531	-0.011123	0.007940	3.275750	1.000000	-0.000008	0.000130	-0.000186	0.489113	-9.046413	173.776673
43411	2.080225	0.085964	12.940998	-0.017960	0.027047	3.294680	1.000000	0.000003	0.000096	-0.000161	0.489159	-9.048119	173.778847
43412	2.055840	0.086349	12.937157	0.005187	0.023976	3.287059	1.000000	-0.000005	0.000132	-0.000168	0.488195	-9.045455	173.778755
43413	2.052769	0.111013	12.936026	0.005203	-0.000823	3.285669	1.000000	0.000008	0.000103	-0.000205	0.489357	-9.046295	173.776528
43414	2.054796	0.103802	12.934404	0.003717	0.006701	3.284324	1.000000	0.000001	0.000122	-0.000191	0.489384	-9.045115	173.777692
43415	2.051881	0.104508	12.934861	0.006553	0.005614	3.284324	1.000000	-0.000006	0.000100	-0.000184	0.488629	-9.046299	173.777743
43416	2.045938	0.116708	12.928383	0.010186	-0.007242	3.277095	1.000000	0.000005	0.000107	-0.000153	0.488391	-9.046534	173.780018
43417	2.054544	0.110345	12.938935	0.004154	0.000028	3.288814	1.000000	0.000014	0.000108	-0.000180	0.489690	-9.046750	173.780689
43418	2.055097	0.123629	12.944637	0.003308	-0.013052	3.294645	1.000000	0.000001	0.000093	-0.000179	0.489535	-9.048520	173.779546
43419	2.067591	0.123967	12.937172	-0.009793	-0.011991	3.289239	1.000000	0.000007	0.000095	-0.000184	0.490067	-9.050053	173.777435
43420	2.065139	0.124775	12.937555	-0.006956	-0.013102	3.289240	1.000000	-0.000003	0.000091	-0.000186	0.489548	-9.052282	173.777434
43421	2.064280	0.104993	12.930609	-0.004902	0.006432	3.282077	1.000000	-0.000000	0.000114	-0.000170	0.489231	-9.051829	173.777409
43422	2.056483	0.114055	12.933121	0.002295	-0.003321	3.283408	1.000000	0.000017	0.000099	-0.000182	0.490865	-9.053140	173.777462
43423	2.066981	0.110952	12.934689	-0.007327	0.000870	3.286582	1.000000	-0.000014	0.000107	-0.000179	0.489077	-9.053104	173.774445
43424	2.070820	0.106651	12.924102	-0.012460	0.005270	3.276693	1.000000	-0.000011	0.000118	-0.000182	0.487555	-9.051956	173.772605
43425	2.069714	0.110675	12.915575	-0.013161	0.001077	3.268134	1.000000	0.000000	0.000102	-0.000189	0.487592	-9.052910	173.771206
43426	2.062094	0.095791	12.919685	-0.003244	0.015072	3.270869	1.000000	0.000006	0.000103	-0.000194	0.488287	-9.053622	173.769420
43427	2.062685	0.085067	12.927016	-0.001270	0.025687	3.278110	1.000000	-0.000006	0.000100	-0.000185	0.487445	-9.054941	173.770740
43428	2.056124	0.103048	12.943818	0.005874	0.007075	3.293822	1.000000	0.000020	0.000121	-0.000166	0.489251	-9.053642	173.772135
43429	2.054835	0.107397	12.935316	0.005123	0.002810	3.285261	1.000000	-0.000000	0.000113	-0.000170	0.488580	-9.053103	173.772384
43430	2.063291	0.124801	12.944291	-0.003577	-0.013683	3.295601	1.000000	0.000004	0.000104	-0.000183	0.488878	-9.053912	173.772726
43431	2.051076	0.112395	12.927201	0.007214	-0.002522	3.276698	1.000000	0.000000	0.000101	-0.000189	0.488735	-9.054713	173.770809
43432	2.066680	0.101286	12.926722	-0.006759	0.010209	3.278585	1.000000	0.000002	0.000101	-0.000201	0.489079	-9.055720	173.768320
43433	2.055663	0.097977	12.923934	0.004031	0.012540	3.274071	1.000000	0.000012	0.000117	-0.000180	0.490368	-9.054995	173.767791
43434	2.054151	0.107727	12.938658	0.006795	0.002544	3.288456	1.000000	-0.000007	0.000100	-0.000174	0.489153	-9.055997	173.767528
43435	2.053257	0.111773	12.930099	0.006045	-0.001624	3.279897	1.000000	0.000003	0.000104	-0.000171	0.489241	-9.056501	173.766857
43436	2.058390	0.116634	12.933816	0.000940	-0.006117	3.284416	1.000000	-0.000013	0.000127	-0.000182	0.487561	-9.054708	173.767616
43437	2.060488	0.109094	12.932224	-0.000626	0.001336	3.283110	1.000000	-0.000004	0.000099	-0.000196	0.486958	-9.056146	173.767649
43438	2.056607	0.100742	12.918348	0.002198	0.009109	3.268728	1.000000	-0.000010	0.000097	-0.000191	0.485696	-9.057659	173.767110
43439	2.053886	0.101363	12.918776	0.005030	0.007982	3.268728	1.000000	-0.000002	0.000110	-0.000188	0.485234	-9.057718	173.767006
43440	2.077607	0.094303	12.921592	-0.016925	0.017252	3.275181	1.000000	-0.000013	0.000098	-0.000169	0.483293	-9.059119	173.767702
43441	2.068098	0.099549	12.933044	-0.006143	0.010659	3.285038	1.000000	0.000003	0.000104	-0.000172	0.483202	-9.059826	173.768498
43442	2.078588	0.096671	12.934673	-0.015738	0.014728	3.288273	1.000000	0.000010	0.000105	-0.000187	0.484270	-9.060303	173.767282
43443	2.054155	0.097337	12.930700	0.007428	0.011875	3.280510	1.000000	0.000021	0.000129	-0.000188	0.486582	-9.058210	173.766884
43444	2.060754	0.105993	12.925502	-0.001257	0.004205	3.276488	1.000000	-0.000010	0.000126	-0.000204	0.485536	-9.056301	173.763986
43445	2.057284	0.112444	12.949220	0.005179	-0.002697	3.299419	1.000000	0.000017	0.000098	-0.000182	0.487272	-9.057815	173.764937
43446	2.030709	0.094819	12.916606	0.028226	0.012302	3.262883	1.000000	-0.000008	0.000108	-0.000184	0.486151	-9.058050	173.764947
43447	2.040899	0.115616	12.916632	0.016094	-0.007383	3.264687	1.000000	0.000004	0.000103	-0.000183	0.486461	-9.058845	173.764981
43448	2.072787	0.113231	12.922749	-0.013830	-0.001678	3.275724	1.000000	0.000003	0.000104	-0.000172	0.486166	-9.059546	173.766627
43449	2.073395	0.102624	12.930103	-0.011950	0.008918	3.282993	1.000000	0.000006	0.000103	-0.000194	0.486871	-9.060351	173.765275
43450	2.059137	0.110662	12.920352	-0.000262	-0.000429	3.271188	1.000000	0.000002	0.000112	-0.000182	0.486960	-9.060154	173.765300
43451	2.064144	0.115629	12.924111	-0.005413	-0.005024	3.275729	1.000000	-0.000012	0.000126	-0.000193	0.485426	-9.058158	173.763184
43452	2.047689	0.120307	12.923387	0.009842	-0.011241	3.272465	1.000000	0.000024	0.000119	-0.000189	0.488144	-9.057209	173.763121
43453	2.043392	0.093812	12.934418	0.018736	0.014496	3.282459	1.000000	-0.000019	0.000096	-0.000165	0.485309	-9.058998	173.766892
43454	2.055124	0.099414	12.950362	0.009238	0.009619	3.300097	1.000000	-0.000006	0.000111	-0.000166	0.484245	-9.058848	173.767965
43455	2.061298	0.098823	12.930780	0.000453	0.010832	3.281726	1.000000	0.000002	0.000083	-0.000169	0.483953	-9.061784	173.768456
43456	2.055752	0.111128	12.924193	0.004215	-0.001974	3.274452	1.000000	0.000008	0.000085	-0.000174	0.484511	-9.064642	173.769461
43457	2.071727	0.100415	12.923770	-0.009811	0.010594	3.276459	1.000000	0.000017	0.000098	-0.000182	0.486259	-9.066318	173.771149
43458	2.093420	0.114433	12.934023	-0.030692	-0.000970	3.290118	1.000000	0.000003	0.000103	-0.000172	0.486075	-9.067260	173.773489
43459	2.080522	0.107558	12.940188	-0.016412	0.004491	3.294117	1.000000	0.000009	0.000125	-0.000179	0.486753	-9.065600	173.774714
43460	2.036153	0.092326	12.947534	0.029632	0.014947	3.294257	1.000000	0.000003	0.000120	-0.000203	0.487053	-9.064490	173.772764
43461	2.049963	0.096264	12.931321	0.012926	0.012639	3.280454	1.000000	0.000000	0.000112	-0.000171	0.486455	-9.064198	173.773855
43462	2.042015	0.105379	12.933787	0.020310	0.002959	3.281714	1.000000	0.000027	0.000101	-0.000180	0.489301	-9.065434	173.776436
43463	2.070724	0.114929	12.933045	-0.008665	-0.003222	3.285583	1.000000	0.000001	0.000092	-0.000180	0.488986	-9.067401	173.776258
43464	2.062960	0.123920	12.935482	-0.001347	-0.012916	3.286843	1.000000	0.000014	0.000107	-0.000181	0.490321	-9.067713	173.775850
43465	2.066963	0.120137	12.924951	-0.006607	-0.008542	3.277042	1.000000	-0.000007	0.000119	-0.000177	0.489445	-9.066617	173.775459
43466	2.075439	0.113600	12.935656	-0.012738	-0.001447	3.288892	1.000000	-0.000008	0.000108	-0.000184	0.488357	-9.066512	173.772217
43467	2.048064	0.101096	12.926263	0.013752	0.007934	3.275201	1.000000	-0.000003	0.000130	-0.000180	0.487613	-9.064270	173.772738
43468	2.064326	0.099071	12.940314	-0.000157	0.011456	3.291619	1.000000	-0.000001	0.000121	-0.000181	0.487091	-9.063217	173.774208
43469	2.041871	0.102573	12.927231	0.019501	0.005717	3.275195	1.000000	0.000004	0.000102	-0.000183	0.487607	-9.064460	173.776253
43470	2.057615	0.091710	12.926908	0.005412	0.018186	3.277262	1.000000	0.000003	0.000103	-0.000172	0.487425	-9.065552	173.779387
43471	2.062979	0.096956	12.930636	0.000327	0.013540	3.281833	1.000000	0.000009	0.000105	-0.000177	0.487996	-9.066122	173.780114
43472	2.070154	0.105676	12.925401	-0.008305	0.005759	3.277866	1.000000	0.000005	0.000102	-0.000183	0.488231	-9.066955	173.779524
43473	2.067471	0.106551	12.925823	-0.005484	0.004604	3.277868	1.000000	0.000005	0.000102	-0.000183	0.488362	-9.067883	173.779827
43474	2.059503	0.115326	12.928277	0.001959	-0.005018	3.279111	1.000000	-0.000004	0.000110	-0.000178	0.487807	-9.068242	173.781958
43475	2.051750	0.100289	12.932397	0.011650	0.009068	3.281831	1.000000	0.000009	0.000124	-0.000179	0.488498	-9.066611	173.782521
43476	2.049898	0.110121	12.947141	0.014742	-0.000984	3.296182	1.000000	-0.000004	0.000098	-0.000197	0.488133	-9.068129	173.781747
43477	2.056037	0.109826	12.927619	0.005844	0.000216	3.277868	1.000000	0.000013	0.000107	-0.000170	0.489274	-9.068339	173.781440
43478	2.067545	0.115991	12.943650	-0.003554	-0.004803	3.295563	1.000000	-0.000008	0.000107	-0.000184	0.488294	-9.068446	173.778876
43479	2.063731	0.107801	12.929796	-0.001068	0.002978	3.281213	1.000000	0.000010	0.000104	-0.000188	0.489092	-9.068868	173.776939
43480	2.066256	0.100617	12.928208	-0.002790	0.010385	3.279982	1.000000	-0.000003	0.000101	-0.000168	0.488159	-9.070096	173.779732
43481	2.067327	0.122822	12.948266	-0.003063	-0.011753	3.300145	1.000000	0.000008	0.000113	-0.000187	0.488941	-9.069391	173.776692
43482	2.053526	0.106882	12.940072	0.010939	0.002779	3.289745	1.000000	-0.000000	0.000108	-0.000200	0.489026	-9.069759	173.775522
43483	2.062905	0.095107	12.927549	0.001088	0.015599	3.278756	1.000000	0.000002	0.000111	-0.000182	0.489023	-9.069897	173.777724
43484	2.045724	0.104763	12.949971	0.020185	0.003655	3.298273	1.000000	-0.000017	0.000126	-0.000160	0.486243	-9.068034	173.780501
43485	2.038559	0.107818	12.929153	0.023711	-0.000181	3.276613	1.000000	0.000010	0.000084	-0.000186	0.487143	-9.070982	173.779584
43486	2.062639	0.101649	12.932185	0.001648	0.008627	3.283348	1.000000	0.000009	0.000104	-0.000177	0.487730	-9.071663	173.780347
43487	2.073824	0.093646	12.910719	-0.011848	0.018272	3.263846	1.000000	0.000022	0.000119	-0.000178	0.489850	-9.070709	173.781633
43488	2.062957	0.104788	12.945398	0.002977	0.006011	3.296472	1.000000	-0.000002	0.000109	-0.000189	0.489743	-9.070669	173.779011
43489	2.055630	0.108110	12.924607	0.006447	0.002202	3.274815	1.000000	0.000012	0.000115	-0.000180	0.490871	-9.069874	173.777596
43490	2.059572	0.104565	12.914139	0.001161	0.006496	3.265069	1.000000	0.000009	0.000124	-0.000179	0.491773	-9.068591	173.779492
43491	2.065857	0.095134	12.933922	-0.001375	0.016596	3.285514	1.000000	0.000008	0.000132	-0.000190	0.492546	-9.065852	173.777935
43492	2.065639	0.108668	12.939725	-0.001809	0.003335	3.291325	1.000000	0.000017	0.000097	-0.000183	0.494115	-9.067290	173.777467
43493	2.059304	0.120895	12.933218	0.002127	-0.009449	3.284006	1.000000	-0.000013	0.000125	-0.000183	0.492366	-9.065912	173.779241
43494	2.051823	0.105695	12.937294	0.011733	0.004747	3.286723	1.000000	0.000010	0.000095	-0.000167	0.493180	-9.067602	173.780882
43495	2.054376	0.098531	12.935725	0.009933	0.012108	3.285515	1.000000	0.000000	0.000111	-0.000171	0.492556	-9.067524	173.783109
43496	2.063988	0.119539	12.935920	-0.001898	-0.007897	3.287400	1.000000	-0.000005	0.000117	-0.000188	0.491698	-9.066471	173.781140
43497	2.061736	0.096288	12.938014	0.003089	0.014715	3.288915	1.000000	-0.000008	0.000107	-0.000185	0.490381	-9.067016	173.782583
43498	2.063634	0.112757	12.934817	-0.000894	-0.001654	3.286198	1.000000	-0.000005	0.000097	-0.000186	0.489620	-9.068287	173.781324
43499	2.059565	0.086439	12.945864	0.007616	0.024165	3.296242	1.000000	0.000021	0.000127	-0.000189	0.491950	-9.066303	173.780589
43500	2.041603	0.105739	12.929052	0.020394	0.003302	3.276976	1.000000	-0.000008	0.000106	-0.000185	0.490644	-9.066836	173.781424
43501	2.059987	0.107171	12.934233	0.002929	0.003479	3.284999	1.000000	-0.000013	0.000116	-0.000173	0.488807	-9.066102	173.782502
43502	2.058778	0.111420	12.925757	0.002226	-0.000783	3.276474	1.000000	0.000018	0.000116	-0.000185	0.490699	-9.065636	173.783942
43503	2.059147	0.100987	12.933211	0.003947	0.009794	3.283805	1.000000	-0.000001	0.000119	-0.000182	0.490512	-9.064442	173.783186
43504	2.045558	0.117687	12.937644	0.016038	-0.008338	3.286185	1.000000	0.000002	0.000110	-0.000183	0.490446	-9.064290	173.781913
43505	2.064079	0.105126	12.905292	-0.005822	0.006587	3.257047	1.000000	0.000019	0.000108	-0.000175	0.492149	-9.064672	173.783118
43506	2.058310	0.108211	12.937956	0.004465	0.002769	3.288421	1.000000	-0.000001	0.000119	-0.000182	0.491645	-9.063105	173.780079
43507	2.055581	0.108882	12.938385	0.007253	0.001640	3.288420	1.000000	-0.000004	0.000089	-0.000176	0.490701	-9.065437	173.780231
43508	2.054699	0.113090	12.929858	0.006492	-0.002643	3.279897	1.000000	0.000003	0.000118	-0.000204	0.491125	-9.064494	173.777873
43509	2.066597	0.113813	12.922809	-0.006775	-0.002087	3.274815	1.000000	-0.000005	0.000129	-0.000170	0.489874	-9.062196	173.778227
43510	2.059761	0.107599	12.941209	0.003223	0.003056	3.291856	1.000000	0.000004	0.000113	-0.000165	0.489609	-9.061972	173.781345
43511	2.056057	0.099268	12.927366	0.005601	0.010906	3.277533	1.000000	-0.000008	0.000106	-0.000185	0.488426	-9.062553	173.782030
43512	2.053314	0.100025	12.927796	0.008369	0.009783	3.277532	1.000000	0.000009	0.000103	-0.000177	0.489038	-9.063134	173.781304
43513	2.066584	0.109665	12.934970	-0.004407	0.001432	3.286787	1.000000	-0.000018	0.000102	-0.000187	0.487110	-9.063946	173.779224
43514	2.061911	0.106901	12.944365	0.002027	0.003477	3.295306	1.000000	0.000012	0.000114	-0.000181	0.488263	-9.063618	173.780255
43515	2.050985	0.103229	12.941448	0.012629	0.006003	3.290674	1.000000	-0.000002	0.000111	-0.000160	0.487357	-9.063539	173.783003
43516	2.057098	0.102850	12.922040	0.003604	0.007070	3.272468	1.000000	0.000000	0.000110	-0.000172	0.486987	-9.063589	173.785036
43517	2.067692	0.100144	12.923883	-0.006037	0.010731	3.275933	1.000000	-0.000003	0.000096	-0.000197	0.486451	-9.065242	173.784324
43518	2.062378	0.121435	12.931606	-0.001658	-0.011001	3.282902	1.000000	0.000011	0.000103	-0.000189	0.487595	-9.065836	173.781987
43519	2.060509	0.098393	12.933670	0.003104	0.011656	3.284452	1.000000	-0.000008	0.000106	-0.000185	0.486419	-9.066254	173.781683
43520	2.059552	0.102445	12.925165	0.002415	0.007411	3.275937	1.000000	-0.000004	0.000108	-0.000179	0.485828	-9.066846	173.783852
43521	2.059250	0.115466	12.930975	0.002156	-0.005923	3.281736	1.000000	-0.000011	0.000115	-0.000184	0.484110	-9.066279	173.783925
43522	2.068002	0.109331	12.941778	-0.003891	0.000953	3.293730	1.000000	0.000008	0.000092	-0.000185	0.484954	-9.068441	173.783689
43523	2.059076	0.109227	12.929881	0.003089	0.000396	3.280576	1.000000	0.000009	0.000123	-0.000180	0.485894	-9.066915	173.783827
43524	2.067535	0.103057	12.940736	-0.003015	0.007243	3.292575	1.000000	-0.000012	0.000107	-0.000163	0.484015	-9.067155	173.784714
43525	2.059521	0.111774	12.943109	0.004573	-0.002393	3.293730	1.000000	0.000018	0.000096	-0.000183	0.485611	-9.069037	173.786418
43526	2.063860	0.108165	12.932660	-0.000955	0.001791	3.284064	1.000000	-0.000011	0.000123	-0.000195	0.484223	-9.067405	173.783700
43527	2.044941	0.099648	12.926337	0.017353	0.008056	3.274770	1.000000	-0.000004	0.000108	-0.000179	0.483417	-9.067602	173.783561
43528	2.057786	0.109587	12.933616	0.004624	-0.000460	3.284064	1.000000	0.000013	0.000125	-0.000173	0.484490	-9.065729	173.783291
43529	2.055817	0.105011	12.910860	0.003276	0.004303	3.261244	1.000000	0.000006	0.000112	-0.000177	0.485016	-9.065552	173.783987
43530	2.071105	0.109302	12.948369	-0.006313	0.001547	3.300727	1.000000	0.000016	0.000116	-0.000174	0.486425	-9.065111	173.786032
43531	2.048811	0.112704	12.935014	0.013174	-0.003824	3.284057	1.000000	0.000015	0.000104	-0.000182	0.487696	-9.065921	173.787191
43532	2.051333	0.105885	12.933510	0.011250	0.003508	3.282912	1.000000	0.000012	0.000113	-0.000181	0.488745	-9.065535	173.787480
43533	2.063573	0.106644	12.926493	-0.001993	0.004004	3.277916	1.000000	-0.000020	0.000110	-0.000187	0.486381	-9.065603	173.787741
43534	2.058999	0.103994	12.935861	0.004357	0.006097	3.286425	1.000000	0.000024	0.000097	-0.000188	0.489088	-9.066770	173.785372
43535	2.059834	0.093769	12.943280	0.006064	0.016583	3.293796	1.000000	0.000004	0.000109	-0.000195	0.489456	-9.067109	173.785607
43536	2.059622	0.107142	12.949066	0.005982	0.003317	3.299589	1.000000	0.000005	0.000100	-0.000184	0.489971	-9.068555	173.787091
43537	2.050745	0.106957	12.937148	0.012904	0.002748	3.286420	1.000000	0.000010	0.000114	-0.000170	0.490596	-9.068015	173.787833
43538	2.057737	0.115836	12.932061	0.004410	-0.005230	3.282573	1.000000	-0.000001	0.000098	-0.000180	0.490355	-9.069405	173.788218
43539	2.054415	0.107508	12.918181	0.006557	0.002709	3.268273	1.000000	-0.000006	0.000104	-0.000197	0.489861	-9.069880	173.785694
43540	2.063555	0.110516	12.943369	0.001080	0.000450	3.294611	1.000000	0.000008	0.000123	-0.000169	0.490156	-9.068206	173.785796
43541	2.065997	0.103684	12.941898	-0.000934	0.007793	3.293485	1.000000	0.000017	0.000104	-0.000194	0.492079	-9.068656	173.782887
43542	2.071196	0.109326	12.945747	-0.005833	0.002969	3.298153	1.000000	0.000007	0.000103	-0.000166	0.492524	-9.069467	173.784105
43543	2.069644	0.104623	12.922949	-0.007304	0.007702	3.275355	1.000000	0.000002	0.000109	-0.000184	0.492572	-9.069502	173.783895
43544	2.066666	0.105354	12.923419	-0.004544	0.006626	3.275357	1.000000	-0.000002	0.000119	-0.000171	0.492001	-9.068277	173.783034
43545	2.059889	0.099358	12.941774	0.005461	0.011864	3.292364	1.000000	0.000018	0.000115	-0.000186	0.493926	-9.067621	173.781977
43546	2.055240	0.115109	12.926291	0.005874	-0.004027	3.276476	1.000000	-0.000002	0.000110	-0.000161	0.493154	-9.067733	173.784598
43547	2.048584	0.108964	12.944622	0.015808	0.001198	3.293478	1.000000	0.000010	0.000114	-0.000170	0.493777	-9.066902	173.783884
43548	2.053204	0.105563	12.934175	0.010192	0.005333	3.283859	1.000000	0.000010	0.000090	-0.000197	0.494833	-9.069015	173.781066
43549	2.046851	0.117982	12.927596	0.014140	-0.007427	3.276468	1.000000	0.000011	0.000121	-0.000192	0.495853	-9.067477	173.778855
43550	2.054855	0.103123	12.924195	0.007325	0.008310	3.274244	1.000000	-0.000001	0.000098	-0.000180	0.495382	-9.068717	173.778025
43551	2.058029	0.105079	12.937017	0.006076	0.006577	3.287421	1.000000	0.000005	0.000120	-0.000187	0.495745	-9.067743	173.778239
43552	2.062323	0.101578	12.926634	0.000467	0.010695	3.277814	1.000000	0.000006	0.000111	-0.000177	0.496034	-9.067605	173.778435
43553	2.070775	0.095757	12.937565	-0.005601	0.017409	3.289890	1.000000	0.000005	0.000119	-0.000187	0.496519	-9.066560	173.778488
43554	2.056150	0.103430	12.927602	0.006164	0.006866	3.277816	1.000000	0.000009	0.000122	-0.000181	0.490258	-9.066237	173.776730
43555	2.059361	0.105225	12.940423	0.004807	0.005181	3.290997	1.000000	-0.000017	0.000092	-0.000178	0.488127	-9.067873	173.775681
43556	2.069843	0.102756	12.942403	-0.004832	0.008727	3.294582	1.000000	0.000019	0.000126	-0.000178	0.490165	-9.066268	173.776514
43557	2.048207	0.115006	12.943226	0.015305	-0.005466	3.292091	1.000000	0.000010	0.000090	-0.000197	0.491204	-9.068515	173.774944
43558	2.060676	0.116057	12.936258	0.001935	-0.005147	3.287183	1.000000	-0.000004	0.000119	-0.000160	0.489949	-9.067255	173.776684
43559	2.055386	0.104318	12.931346	0.007586	0.005928	3.281399	1.000000	0.000009	0.000102	-0.000178	0.490560	-9.068121	173.777340
43560	2.062367	0.113327	12.926300	-0.000892	-0.002108	3.277593	1.000000	0.000002	0.000108	-0.000184	0.490855	-9.068276	173.776401
43561	2.055916	0.107142	12.944587	0.009144	0.003192	3.294582	1.000000	-0.000001	0.000098	-0.000180	0.490720	-9.069588	173.775919
43562	2.058691	0.100056	12.943102	0.007135	0.010494	3.293492	1.000000	0.000002	0.000108	-0.000184	0.490791	-9.069821	173.775705
43563	2.055680	0.100959	12.943573	0.009963	0.009383	3.293491	1.000000	0.000009	0.000121	-0.000181	0.491620	-9.068558	173.775867
43564	2.048723	0.104034	12.922697	0.013219	0.005691	3.271806	1.000000	-0.000007	0.000096	-0.000176	0.490369	-9.070262	173.777212
43565	2.056152	0.121833	12.931967	0.005555	-0.011506	3.282281	1.000000	-0.000000	0.000117	-0.000183	0.489868	-9.069467	173.777297
43566	2.060585	0.118161	12.921594	-0.000071	-0.007446	3.272705	1.000000	-0.000004	0.000106	-0.000179	0.488953	-9.070009	173.777805
43567	2.048596	0.119802	12.941783	0.014826	-0.010544	3.290767	1.000000	0.000007	0.000102	-0.000167	0.489486	-9.070802	173.779496
43568	2.064603	0.109834	12.941889	0.000247	0.001283	3.293309	1.000000	0.000018	0.000114	-0.000186	0.491205	-9.070228	173.778173
43569	2.053933	0.106323	12.938859	0.010733	0.003942	3.288606	1.000000	0.000011	0.000101	-0.000189	0.492139	-9.071334	173.778064
43570	2.064640	0.104037	12.940844	0.000994	0.007404	3.292233	1.000000	0.000001	0.000100	-0.000162	0.491692	-9.072285	173.779371
43571	2.058044	0.116043	12.934281	0.004959	-0.005362	3.284816	1.000000	-0.000003	0.000126	-0.000182	0.490728	-9.070067	173.778273
43572	2.072240	0.111466	12.957696	-0.005102	0.000618	3.310135	1.000000	0.000011	0.000121	-0.000192	0.491994	-9.068999	173.777583
43573	2.057552	0.110067	12.933324	0.005767	0.000781	3.283743	1.000000	0.000006	0.000091	-0.000175	0.492202	-9.071262	173.778537
43574	2.060208	0.103093	12.931879	0.003741	0.008034	3.282674	1.000000	0.000003	0.000128	-0.000187	0.492250	-9.069391	173.778644
43575	2.059314	0.116396	12.937755	0.003753	-0.005314	3.288449	1.000000	-0.000000	0.000117	-0.000183	0.491969	-9.068411	173.778126
43576	2.045964	0.099892	12.929405	0.016959	0.009664	3.277961	1.000000	-0.000001	0.000129	-0.000164	0.491267	-9.066236	173.780289
43577	2.056200	0.097571	12.931486	0.007262	0.013094	3.281609	1.000000	0.000008	0.000110	-0.000189	0.492119	-9.066324	173.779558
43578	2.061720	0.112385	12.949693	0.003341	-0.000924	3.300583	1.000000	0.000020	0.000097	-0.000166	0.493889	-9.067874	173.781468
43579	2.073699	0.104581	12.928519	-0.010853	0.008345	3.281494	1.000000	-0.000011	0.000121	-0.000196	0.492607	-9.066751	173.780949
43580	2.068947	0.102140	12.937894	-0.004427	0.010391	3.289982	1.000000	0.000030	0.000098	-0.000193	0.495863	-9.068088	173.779850
43581	2.052809	0.115279	12.951083	0.011769	-0.004295	3.300578	1.000000	-0.000011	0.000144	-0.000169	0.494117	-9.063954	173.781018
43582	2.056769	0.102706	12.926462	0.005123	0.008838	3.276780	1.000000	0.000014	0.000092	-0.000191	0.495637	-9.065964	173.779602
43583	2.054412	0.112680	12.941187	0.008930	-0.001289	3.291035	1.000000	-0.000000	0.000117	-0.000183	0.495590	-9.065512	173.780869
43584	2.051407	0.113538	12.941656	0.011754	-0.002401	3.291033	1.000000	0.000010	0.000112	-0.000171	0.496335	-9.065258	173.782259
43585	2.044379	0.098420	12.945651	0.020879	0.011881	3.293742	1.000000	0.000002	0.000108	-0.000184	0.496162	-9.065407	173.782270
43586	2.066813	0.107951	12.933318	-0.003686	0.005043	3.285177	1.000000	0.000013	0.000084	-0.000169	0.497400	-9.068558	173.784206
43587	2.064239	0.108719	12.933723	-0.000804	0.003945	3.285178	1.000000	-0.000010	0.000112	-0.000186	0.496155	-9.068564	173.784775
43588	2.073285	0.111874	12.959005	-0.006005	0.001425	3.311595	1.000000	0.000005	0.000099	-0.000185	0.496451	-9.069566	173.783510
43589	2.066384	0.114805	12.938116	-0.002852	-0.002224	3.289906	1.000000	-0.000013	0.000121	-0.000185	0.494624	-9.068278	173.783320
43590	2.055622	0.110904	12.935077	0.007555	0.000506	3.285176	1.000000	0.000019	0.000105	-0.000176	0.496260	-9.068793	173.783061
43591	2.066467	0.118013	12.951453	-0.001170	-0.005234	3.303117	1.000000	0.000012	0.000112	-0.000182	0.497310	-9.068721	173.783664
43592	2.070798	0.105511	12.926808	-0.007874	0.007873	3.279355	1.000000	-0.000007	0.000103	-0.000187	0.496285	-9.069599	173.784249
43593	2.075708	0.110912	12.930773	-0.012671	0.002853	3.284091	1.000000	-0.000000	0.000116	-0.000183	0.496022	-9.068812	173.783600
43594	2.068780	0.095853	12.934758	-0.003579	0.017173	3.286805	1.000000	0.000013	0.000100	-0.000201	0.497531	-9.069925	173.780933
43595	2.056713	0.115669	12.930013	0.005441	-0.003910	3.280388	1.000000	-0.000014	0.000113	-0.000163	0.495065	-9.069406	173.782782
43596	2.059296	0.108408	12.928621	0.003334	0.003302	3.279359	1.000000	-0.000000	0.000116	-0.000184	0.494681	-9.068808	173.783235
43597	2.054194	0.096950	12.923695	0.008794	0.014457	3.273593	1.000000	0.000025	0.000107	-0.000181	0.497300	-9.069224	173.783957
43598	2.072485	0.099899	12.929315	-0.008522	0.013890	3.282048	1.000000	0.000012	0.000111	-0.000182	0.498613	-9.069048	173.783376
43599	2.056623	0.112854	12.942389	0.007888	-0.000758	3.292572	1.000000	0.000001	0.000099	-0.000163	0.498064	-9.070444	173.786258
43600	2.048126	0.112443	12.930361	0.014640	-0.001177	3.279351	1.000000	0.000009	0.000101	-0.000179	0.498700	-9.071521	173.786714
43601	2.050891	0.105526	12.928944	0.012428	0.006064	3.278329	1.000000	-0.000000	0.000116	-0.000184	0.498433	-9.070544	173.785446
43602	2.061373	0.103259	12.931065	0.002625	0.009349	3.282054	1.000000	-0.000001	0.000105	-0.000191	0.498078	-9.070833	173.782801
43603	2.064287	0.105394	12.943969	0.001448	0.007482	3.295275	1.000000	0.000010	0.000120	-0.000181	0.498788	-9.069397	173.781973
43604	2.055676	0.105074	12.931957	0.008165	0.007099	3.282054	1.000000	0.000006	0.000090	-0.000175	0.499128	-9.071615	173.782295
43605	2.066525	0.102806	12.934029	-0.001563	0.010331	3.285790	1.000000	-0.000007	0.000103	-0.000187	0.497885	-9.072479	173.781873
43606	2.058182	0.111478	12.936309	0.006177	0.000879	3.286801	1.000000	0.000019	0.000105	-0.000177	0.499741	-9.072853	173.781448
43607	2.070572	0.112982	12.929529	-0.007163	0.000973	3.282071	1.000000	-0.000000	0.000116	-0.000184	0.499608	-9.072343	173.781669
43608	2.069447	0.099087	12.945969	-0.002023	0.014627	3.298008	1.000000	0.000009	0.000109	-0.000189	0.500576	-9.072519	173.781315
43609	2.064676	0.114690	12.930456	-0.001473	-0.001248	3.282073	1.000000	-0.000002	0.000116	-0.000172	0.499878	-9.071996	173.783520
43610	2.048416	0.118471	12.929217	0.013937	-0.006801	3.278320	1.000000	0.000011	0.000103	-0.000161	0.500296	-9.072986	173.786648
43611	2.064509	0.108481	12.929522	-0.000799	0.004734	3.281070	1.000000	-0.000011	0.000120	-0.000196	0.498793	-9.071845	173.785098
43612	2.059435	0.096804	12.924604	0.004538	0.015883	3.275313	1.000000	0.000021	0.000108	-0.000159	0.500423	-9.072026	173.787364
43613	2.056578	0.097943	12.925050	0.007355	0.014766	3.275313	1.000000	0.000013	0.000111	-0.000183	0.501605	-9.071947	173.787877
43614	2.063320	0.107085	12.920139	-0.001062	0.006475	3.271605	1.000000	-0.000008	0.000111	-0.000197	0.500689	-9.071735	173.785589
43615	2.045170	0.116314	12.942118	0.019107	-0.004871	3.290529	1.000000	0.000008	0.000120	-0.000170	0.501094	-9.070668	173.787507
43616	2.066908	0.117136	12.915728	-0.006615	-0.002946	3.267901	1.000000	0.000013	0.000111	-0.000183	0.502284	-9.070531	173.787488
43617	2.058346	0.107473	12.942902	0.007221	0.005595	3.293302	1.000000	-0.000003	0.000105	-0.000180	0.501747	-9.071342	173.788180
43618	2.055358	0.108003	12.943372	0.010075	0.004476	3.293301	1.000000	-0.000011	0.000123	-0.000167	0.499952	-9.069998	173.790468
43619	2.059862	0.104464	12.933110	0.004181	0.008437	3.283846	1.000000	0.000011	0.000111	-0.000171	0.500566	-9.069716	173.791816
43620	2.064503	0.110151	12.937148	-0.000476	0.003271	3.288614	1.000000	-0.000001	0.000124	-0.000194	0.500160	-9.068431	173.791644
43621	2.067102	0.103342	12.935798	-0.002659	0.010465	3.287631	1.000000	0.000013	0.000111	-0.000183	0.501360	-9.068479	173.792188
43622	2.066234	0.116688	12.941646	-0.002374	-0.002982	3.293385	1.000000	-0.000010	0.000111	-0.000186	0.499907	-9.068209	173.790636
43623	2.069055	0.109628	12.940266	-0.004549	0.004180	3.292405	1.000000	0.000003	0.000106	-0.000185	0.499902	-9.068802	173.790995
43624	2.060487	0.109022	12.928234	0.002073	0.003879	3.279169	1.000000	-0.000005	0.000105	-0.000169	0.498934	-9.069095	173.790750
43625	2.074920	0.104731	12.951791	-0.007837	0.009523	3.304668	1.000000	0.000013	0.000111	-0.000183	0.500261	-9.069158	173.791235
43626	2.060539	0.103320	12.927288	0.002621	0.009987	3.278194	1.000000	0.000021	0.000103	-0.000188	0.502578	-9.069591	173.788843
43627	2.065474	0.118516	12.945597	-0.000899	-0.004262	3.297182	1.000000	0.000023	0.000115	-0.000181	0.504727	-9.069005	173.789113
43628	2.055049	0.114730	12.942453	0.009344	-0.001364	3.292403	1.000000	-0.000002	0.000092	-0.000200	0.504523	-9.070600	173.785460
43629	2.061591	0.087639	12.933863	0.004555	0.026346	3.284714	1.000000	0.000016	0.000125	-0.000157	0.505205	-9.069135	173.789107
43630	2.056848	0.103004	12.918329	0.005061	0.010465	3.268762	1.000000	-0.000023	0.000096	-0.000185	0.502236	-9.070638	173.788298
43631	2.052407	0.109186	12.941937	0.012668	0.003507	3.291428	1.000000	0.000016	0.000101	-0.000184	0.503900	-9.071203	173.786434
43632	2.047691	0.097572	12.936969	0.017938	0.014649	3.285679	1.000000	0.000001	0.000107	-0.000174	0.503307	-9.071667	173.788110
43633	2.060398	0.108137	12.944537	0.005673	0.005460	3.295246	1.000000	0.000008	0.000096	-0.000197	0.504072	-9.072873	173.785356
43634	2.059702	0.103670	12.921737	0.002773	0.007426	3.272585	1.000000	0.000012	0.000099	-0.000191	0.492549	-9.071903	173.763213
43635	2.053170	0.097586	12.939963	0.012897	0.012713	3.289501	1.000000	0.000003	0.000106	-0.000185	0.492506	-9.072263	173.763080
43636	2.065841	0.099468	12.933239	-0.000498	0.012624	3.284874	1.000000	0.000030	0.000096	-0.000194	0.495912	-9.073984	173.762296
43637	2.063077	0.100641	12.933671	0.002277	0.011446	3.284875	1.000000	-0.000000	0.000115	-0.000184	0.495404	-9.073297	173.761815
43638	2.062065	0.113790	12.939533	0.002665	-0.002007	3.290616	1.000000	-0.000012	0.000111	-0.000175	0.493606	-9.073110	173.762664
43639	2.053255	0.104153	12.913228	0.007997	0.006827	3.263170	1.000000	0.000014	0.000121	-0.000175	0.494870	-9.071630	173.763283
43640	2.067653	0.109139	12.951135	-0.000722	0.003183	3.302914	1.000000	0.000002	0.000094	-0.000193	0.494737	-9.073032	173.761961
43641	2.066713	0.104388	12.928389	-0.002864	0.007968	3.280264	1.000000	-0.000003	0.000124	-0.000183	0.494235	-9.071420	173.761836
43642	2.063556	0.105330	12.928886	-0.000122	0.006794	3.280265	1.000000	0.000014	0.000118	-0.000205	0.495704	-9.070247	173.758920
43643	2.060506	0.106262	12.929364	0.002646	0.005615	3.280265	1.000000	-0.000002	0.000115	-0.000173	0.494752	-9.069481	173.759911
43644	2.055568	0.103442	12.938737	0.009090	0.007743	3.288718	1.000000	-0.000000	0.000115	-0.000184	0.494602	-9.068750	173.759570
43645	2.062257	0.112599	12.933888	0.000730	-0.000666	3.285062	1.000000	0.000001	0.000106	-0.000174	0.494242	-9.069062	173.760220
43646	2.063206	0.102048	12.941439	0.002106	0.009735	3.292577	1.000000	-0.000006	0.000113	-0.000180	0.493344	-9.068682	173.760006
43647	2.054451	0.110490	12.943709	0.010003	0.000393	3.293513	1.000000	0.000006	0.000116	-0.000189	0.494090	-9.067828	173.758799
43648	2.064849	0.099590	12.931693	-0.001054	0.012551	3.283192	1.000000	0.000006	0.000116	-0.000189	0.494471	-9.067218	173.758210
43649	2.061748	0.109514	12.946469	0.003070	0.002308	3.297379	1.000000	0.000004	0.000117	-0.000178	0.494530	-9.066365	173.758324
43650	2.059001	0.101349	12.932612	0.004571	0.010268	3.283193	1.000000	0.000006	0.000097	-0.000186	0.494865	-9.067986	173.757562
43651	2.067594	0.095842	12.943774	-0.001537	0.016585	3.295521	1.000000	-0.000003	0.000123	-0.000184	0.494375	-9.066356	173.757071
43652	2.060752	0.107994	12.937142	0.002676	0.003968	3.287999	1.000000	0.000021	0.000106	-0.000159	0.496109	-9.066595	173.759132
43653	2.065616	0.113974	12.941183	-0.002041	-0.001213	3.292807	1.000000	0.000005	0.000105	-0.000197	0.496760	-9.066832	173.756678
43654	2.074236	0.108446	12.952349	-0.008133	0.005028	3.305143	1.000000	-0.000006	0.000112	-0.000180	0.495605	-9.066511	173.757073
43655	2.059961	0.106450	12.927790	0.002198	0.005594	3.278626	1.000000	0.000007	0.000108	-0.000179	0.495904	-9.066694	173.757157
43656	2.066770	0.097719	12.947832	-0.000266	0.015119	3.299415	1.000000	0.000018	0.000100	-0.000196	0.497995	-9.067539	173.755178
43657	2.054293	0.117630	12.942953	0.009163	-0.005810	3.292802	1.000000	0.000004	0.000117	-0.000178	0.497810	-9.066913	173.756001
43658	2.060942	0.099820	12.948745	0.005443	0.012821	3.299416	1.000000	0.000019	0.000111	-0.000188	0.499879	-9.066994	173.755612
43659	2.060032	0.095275	12.926021	0.003189	0.017579	3.276794	1.000000	-0.000002	0.000115	-0.000173	0.499166	-9.066488	173.757036
43660	2.064766	0.110033	12.944370	-0.000027	0.003223	3.295786	1.000000	0.000006	0.000096	-0.000187	0.499642	-9.068121	173.755736
43661	2.066003	0.118279	12.926996	-0.004615	-0.004345	3.278895	1.000000	0.000026	0.000105	-0.000182	0.502383	-9.068549	173.755553
43662	2.066780	0.107961	12.934595	-0.003239	0.005999	3.286433	1.000000	-0.000014	0.000131	-0.000167	0.500196	-9.066322	173.757452
43663	2.065605	0.112124	12.926196	-0.004127	0.001632	3.277989	1.000000	0.000007	0.000108	-0.000179	0.500609	-9.066539	173.757441
43664	2.060786	0.109624	12.935538	0.002446	0.003700	3.286434	1.000000	0.000017	0.000112	-0.000177	0.501990	-9.066655	173.758845
43665	2.065569	0.115478	12.939607	-0.002247	-0.001573	3.291256	1.000000	-0.000003	0.000103	-0.000181	0.501195	-9.067076	173.758276
43666	2.058942	0.100244	12.943550	0.006480	0.012817	3.293974	1.000000	0.000012	0.000117	-0.000194	0.502106	-9.066096	173.756832
43667	2.069379	0.098596	12.945877	-0.003299	0.015738	3.297901	1.000000	0.000011	0.000110	-0.000172	0.502594	-9.066114	173.758076
43668	2.054977	0.105709	12.935584	0.008443	0.007288	3.285530	1.000000	0.000000	0.000114	-0.000185	0.502458	-9.065807	173.757884
43669	2.059751	0.102276	12.925397	0.002330	0.011214	3.276193	1.000000	-0.000004	0.000115	-0.000162	0.501543	-9.064949	173.759689
43670	2.056759	0.102939	12.925868	0.005154	0.010085	3.276193	1.000000	0.000000	0.000114	-0.000185	0.501299	-9.064580	173.759194
43671	2.067215	0.110235	12.942467	-0.003137	0.003914	3.294294	1.000000	0.000012	0.000098	-0.000191	0.502541	-9.066074	173.757837
43672	2.064521	0.111246	12.942888	-0.000352	0.002727	3.294295	1.000000	0.000007	0.000107	-0.000179	0.502713	-9.066273	173.758052
43673	2.067778	0.095457	12.927270	-0.004210	0.018953	3.279247	1.000000	0.000003	0.000105	-0.000186	0.502818	-9.066836	173.757682
43674	2.066280	0.117980	12.947444	-0.002139	-0.003658	3.299128	1.000000	0.000007	0.000127	-0.000182	0.503417	-9.064852	173.757281
43675	2.048304	0.099893	12.926338	0.013966	0.012679	3.275299	1.000000	0.000003	0.000105	-0.000186	0.503646	-9.065353	173.756513
43676	2.066503	0.103175	12.932308	-0.003173	0.011430	3.284088	1.000000	0.000013	0.000109	-0.000184	0.504721	-9.065656	173.756480
43677	2.054113	0.095412	12.937998	0.010758	0.017695	3.287688	1.000000	-0.000012	0.000110	-0.000176	0.502936	-9.065810	173.757362
43678	2.066837	0.097290	12.931419	-0.002789	0.017354	3.283212	1.000000	0.000027	0.000092	-0.000201	0.505927	-9.067545	173.754792
43679	2.065576	0.120112	12.951543	-0.000671	-0.005299	3.303084	1.000000	0.000004	0.000116	-0.000178	0.505974	-9.066757	173.754976
43680	2.064608	0.124593	12.943114	-0.001547	-0.009680	3.294648	1.000000	0.000009	0.000106	-0.000191	0.506846	-9.067180	173.753948
43681	2.056300	0.124120	12.930996	0.004936	-0.009944	3.281369	1.000000	0.000008	0.000099	-0.000169	0.506925	-9.068396	173.755232
43682	2.074865	0.118261	12.922684	-0.013811	-0.002045	3.276034	1.000000	0.000001	0.000105	-0.000175	0.506689	-9.068706	173.755495
43683	2.081727	0.100380	12.928531	-0.017787	0.016510	3.282731	1.000000	0.000010	0.000118	-0.000183	0.507627	-9.067583	173.754830
43684	2.064930	0.103717	12.927156	-0.002432	0.011264	3.278757	1.000000	-0.000011	0.000140	-0.000171	0.505471	-9.063910	173.755769
43685	2.061625	0.104650	12.927676	0.000324	0.010133	3.278758	1.000000	0.000025	0.000112	-0.000193	0.508187	-9.063397	173.754024
43686	2.050900	0.109730	12.938755	0.012012	0.004019	3.288055	1.000000	-0.000007	0.000108	-0.000199	0.507171	-9.063381	173.751695
43687	2.065748	0.087618	12.933963	-0.000855	0.027490	3.285466	1.000000	0.000001	0.000105	-0.000175	0.506822	-9.064007	173.752977
43688	2.066604	0.086348	12.955830	0.002035	0.028657	3.307183	1.000000	0.000007	0.000107	-0.000179	0.507254	-9.064557	173.753401
43689	2.060071	0.089336	12.934856	0.004817	0.025131	3.285470	1.000000	0.000004	0.000116	-0.000178	0.506949	-9.064040	173.753869
43690	2.053029	0.101196	12.928204	0.009167	0.012554	3.277897	1.000000	-0.000005	0.000123	-0.000173	0.505903	-9.062638	173.754345
43691	2.022941	0.116276	12.939083	0.038741	-0.005705	3.284035	1.000000	0.000016	0.000100	-0.000185	0.507459	-9.063692	173.753309
43692	2.041071	0.128965	12.959361	0.023178	-0.016220	3.307024	1.000000	0.000019	0.000091	-0.000186	0.509232	-9.065811	173.753170
43693	2.072971	0.138973	12.928149	-0.014041	-0.022361	3.281314	1.000000	-0.000005	0.000122	-0.000173	0.508296	-9.064325	173.753766
43694	2.060583	0.130910	12.933813	-0.000228	-0.016175	3.284884	1.000000	-0.000013	0.000098	-0.000184	0.505926	-9.065482	173.753475
43695	2.050220	0.108155	12.955490	0.015780	0.004795	3.304460	1.000000	-0.000007	0.000119	-0.000191	0.504753	-9.064313	173.752332
43696	2.043842	0.110986	12.934487	0.018477	0.001348	3.282740	1.000000	0.000002	0.000093	-0.000194	0.504785	-9.066094	173.750957
43697	2.060152	0.128749	12.924506	-0.000784	-0.014730	3.275606	1.000000	-0.000014	0.000110	-0.000165	0.502564	-9.066254	173.753192
43698	2.074694	0.115407	12.934057	-0.012099	-0.000501	3.287211	1.000000	-0.000015	0.000107	-0.000183	0.500354	-9.066773	173.753416
43699	2.079374	0.102419	12.963100	-0.010693	0.011990	3.316516	1.000000	-0.000018	0.000111	-0.000142	0.496858	-9.066969	173.758784
43700	2.073218	0.095816	12.927841	-0.009617	0.017752	3.280673	1.000000	-0.000004	0.000114	-0.000163	0.495861	-9.066467	173.761025
43701	1.764263	0.102946	12.948901	0.296943	-0.023564	3.252860	1.000000	-0.000033	0.000039	-0.000121	0.490429	-9.074371	173.767713
43702	2.162877	0.074768	12.950830	-0.088646	0.046247	3.317340	1.000000	0.000001	-0.000008	-0.000129	0.489174	-9.087861	173.773395
43703	2.315917	0.125749	12.930204	-0.246209	0.011965	3.321570	1.000000	0.000008	0.000114	-0.000201	0.490059	-9.086976	173.770751
43704	2.005562	0.106110	12.962098	0.064611	-0.001897	3.303918	1.000000	-0.000007	0.000177	-0.000200	0.489561	-9.079025	173.768180
43705	1.956092	0.103689	12.929948	0.107174	-0.004606	3.264357	1.000000	-0.000008	0.000131	-0.000172	0.488314	-9.076561	173.769211
43706	2.033708	0.107478	12.917331	0.028471	-0.000148	3.264168	1.000000	0.000002	0.000096	-0.000165	0.487803	-9.078144	173.771710
43707	2.069082	0.029930	12.948298	0.007529	0.080366	3.299670	1.000000	0.000006	0.000079	-0.000155	0.487721	-9.081688	173.774622
43708	2.118979	0.093635	12.963897	-0.045078	0.022286	3.323481	1.000000	0.000020	0.000082	-0.000175	0.489240	-9.084749	173.775143
43709	2.148899	0.100263	12.941700	-0.078504	0.019125	3.306341	1.000000	-0.000002	0.000137	-0.000147	0.487916	-9.082320	173.780749
43710	2.102535	0.123453	12.920377	-0.039991	-0.008415	3.278163	1.000000	0.000027	0.000173	-0.000183	0.490681	-9.075059	173.781036
43711	2.033198	0.122456	12.927123	0.027964	-0.014285	3.273887	1.000000	0.000009	0.000144	-0.000197	0.491963	-9.070843	173.778466
43712	2.043258	0.121013	12.929637	0.018095	-0.011473	3.277943	1.000000	0.000009	0.000113	-0.000202	0.493124	-9.070095	173.775012
43713	2.060975	0.151808	12.925143	-0.003098	-0.040113	3.276558	1.000000	0.000000	0.000093	-0.000183	0.492765	-9.072179	173.775239
43714	2.105682	0.109930	12.940369	-0.039395	0.005668	3.298283	1.000000	-0.000027	0.000063	-0.000169	0.489109	-9.077152	173.776187
43715	2.131242	0.087195	12.916157	-0.065301	0.030634	3.278214	1.000000	-0.000009	0.000108	-0.000188	0.487984	-9.077329	173.775386
43716	2.121487	0.104392	12.932694	-0.055458	0.012210	3.293150	1.000000	-0.000007	0.000146	-0.000205	0.487397	-9.073051	173.772264
43717	2.045486	0.088778	12.921309	0.018114	0.019819	3.269797	1.000000	0.000013	0.000147	-0.000190	0.488608	-9.068963	173.771709
43718	2.016186	0.116260	12.937528	0.045971	-0.010587	3.281431	1.000000	0.000002	0.000115	-0.000168	0.488414	-9.068433	173.773638
43719	2.060424	0.093009	12.927971	0.003764	0.017188	3.278765	1.000000	-0.000006	0.000079	-0.000186	0.487480	-9.071577	173.772633
43720	2.078463	0.105392	12.948364	-0.011544	0.006467	3.301850	1.000000	-0.000000	0.000101	-0.000194	0.487381	-9.072683	173.771115
43721	2.064330	0.112289	12.937899	0.000105	-0.001803	3.289346	1.000000	0.000006	0.000102	-0.000198	0.487904	-9.073280	173.768682
43722	2.079072	0.099858	12.947511	-0.011296	0.012289	3.301057	1.000000	0.000014	0.000103	-0.000214	0.489647	-9.074065	173.765376
43723	2.072819	0.103151	12.926488	-0.008657	0.008855	3.279339	1.000000	0.000015	0.000107	-0.000196	0.491104	-9.074452	173.764405
43724	2.082886	0.101399	12.929052	-0.018513	0.011591	3.283442	1.000000	-0.000025	0.000151	-0.000184	0.488140	-9.069465	173.763931
43725	2.052457	0.107033	12.925552	0.009637	0.002794	3.275239	1.000000	0.000024	0.000119	-0.000204	0.491053	-9.068835	173.762200
43726	2.048855	0.117228	12.940314	0.014295	-0.007588	3.289336	1.000000	0.000004	0.000114	-0.000179	0.490801	-9.068523	173.763003
43727	2.018321	0.131792	12.951008	0.044129	-0.025596	3.295211	1.000000	-0.000005	0.000121	-0.000174	0.489423	-9.067078	173.763343
43728	2.048792	0.111189	12.939571	0.014532	-0.001816	3.288541	1.000000	0.000007	0.000106	-0.000180	0.489796	-9.067592	173.763635
43729	2.048072	0.115630	12.931127	0.013599	-0.006238	3.280127	1.000000	-0.000000	0.000100	-0.000194	0.489559	-9.068614	173.761907
43730	2.060762	0.117622	12.924736	0.000072	-0.006859	3.275832	1.000000	-0.000001	0.000108	-0.000204	0.489415	-9.068835	173.759296
43731	2.076822	0.117447	12.939830	-0.013226	-0.005300	3.293265	1.000000	-0.000009	0.000107	-0.000188	0.487901	-9.069316	173.759550
43732	2.104494	0.120221	12.926719	-0.043158	-0.005421	3.284698	1.000000	-0.000027	0.000136	-0.000210	0.484899	-9.066096	173.756063
43733	2.090729	0.120708	12.946738	-0.027560	-0.008123	3.302301	1.000000	-0.000025	0.000151	-0.000184	0.481822	-9.061129	173.755080
43734	-0.882233	1.163499	13.882916	2.930689	-1.367974	3.766971	0.999999	0.000305	-0.000092	0.001597	0.484191	-9.085602	173.960118
43735	3.381513	-0.181936	12.036846	-1.372266	0.427197	2.608564	0.999996	-0.000697	-0.002318	-0.001519	0.429291	-9.362432	173.802559
43736	4.131535	-0.482239	12.872239	-1.909122	0.792914	3.556052	1.000000	0.000127	0.000037	-0.000444	0.448320	-9.369733	173.769532
43737	2.927328	-0.106902	12.894855	-0.775204	0.291301	3.384741	0.999999	-0.000206	0.000984	-0.000100	0.422830	-9.268967	173.777615
43738	2.011497	-0.234316	12.899543	0.111344	0.322318	3.240391	0.999999	0.000108	0.001270	-0.000794	0.446126	-9.135483	173.706910
43739	1.276113	0.402331	13.001886	0.754455	-0.383235	3.230443	0.999999	0.000156	0.000970	-0.000665	0.472388	-9.036503	173.651480
43740	1.029278	0.185188	12.970418	1.002813	-0.192172	3.159702	1.000000	-0.000153	0.000225	-0.000125	0.453488	-9.023370	173.658124
43741	1.352329	-0.134489	12.977862	0.727429	0.156600	3.214903	1.000000	-0.000094	-0.000467	-0.000002	0.439264	-9.089645	173.678309
43742	2.208948	0.023027	12.980867	-0.112053	0.090199	3.354019	1.000000	0.000061	-0.000702	-0.000007	0.442876	-9.182721	173.697733
43743	2.906023	-0.105943	12.904495	-0.776899	0.294634	3.389274	1.000000	0.000120	-0.000385	-0.000116	0.455120	-9.239446	173.704770
43744	2.942180	-0.036440	12.851302	-0.822183	0.233312	3.343425	1.000000	0.000201	0.000160	-0.000226	0.478592	-9.233652	173.699566
43745	2.477915	0.318160	12.839701	-0.412565	-0.163756	3.260268	1.000000	0.000167	0.000523	-0.000297	0.499426	-9.186202	173.686495
43746	1.867030	0.437907	12.842046	0.163242	-0.344553	3.166154	1.000000	0.000073	0.000566	-0.000277	0.509159	-9.133866	173.675777
43747	1.559136	0.268888	12.923712	0.488118	-0.209882	3.196664	1.000000	-0.000088	0.000318	-0.000216	0.499400	-9.109947	173.671967
43748	1.776648	0.118634	13.021659	0.304639	-0.040666	3.326556	1.000000	-0.000146	0.000021	-0.000109	0.481056	-9.120138	173.680198
43749	2.073008	-0.007955	12.993946	0.027168	0.114108	3.345059	1.000000	-0.000086	-0.000131	-0.000228	0.471779	-9.147635	173.674521
43750	2.384843	0.004145	12.927653	-0.285743	0.135677	3.329293	1.000000	0.000030	-0.000031	-0.000285	0.476860	-9.163632	173.662253
43751	2.328175	0.101223	12.879025	-0.247723	0.034961	3.273081	1.000000	0.000064	0.000205	-0.000266	0.485395	-9.152600	173.652498
43752	2.022126	0.210646	12.964438	0.050790	-0.106436	3.309664	1.000000	0.000025	0.000284	-0.000161	0.487524	-9.132603	173.654995
43753	1.815085	0.199242	12.969412	0.252742	-0.117901	3.281666	1.000000	-0.000038	0.000182	-0.000071	0.480851	-9.124415	173.667808
43754	1.811839	0.145679	12.916110	0.253156	-0.066458	3.228071	1.000000	-0.000076	0.000037	-0.000071	0.469830	-9.132898	173.680431
43755	2.074751	0.023587	12.872095	0.004076	0.081437	3.225308	1.000000	-0.000071	-0.000035	-0.000164	0.461095	-9.149500	173.682301
43756	2.262257	0.000701	12.915850	-0.168022	0.122631	3.298137	1.000000	-0.000041	0.000055	-0.000308	0.458377	-9.155680	173.667534
43757	2.310457	0.019680	12.967742	-0.209781	0.108575	3.357169	1.000000	-0.000006	0.000213	-0.000347	0.460356	-9.143730	173.648381
43758	2.100537	0.005839	12.981652	-0.004162	0.100668	3.337424	1.000000	0.000045	0.000327	-0.000261	0.466646	-9.118748	173.639228
43759	1.781573	0.077165	12.962699	0.293228	-0.003138	3.268809	1.000000	0.000055	0.000270	-0.000140	0.471859	-9.100388	173.644079
43760	1.699036	0.126803	12.922280	0.360559	-0.059841	3.216301	1.000000	0.000054	0.000101	-0.000074	0.475786	-9.101470	173.656487
43761	1.831002	0.120559	12.927557	0.234975	-0.038944	3.242277	1.000000	0.000019	-0.000061	-0.000123	0.476550	-9.121060	173.663021
43762	2.112121	0.165839	12.954340	-0.036800	-0.053914	3.313593	1.000000	0.000004	-0.000087	-0.000188	0.476812	-9.143599	173.661983
43763	2.310188	0.141565	12.934236	-0.227922	-0.008018	3.325024	1.000000	0.000018	0.000019	-0.000245	0.479746	-9.153846	173.654478
43764	2.261018	0.175180	12.905036	-0.187531	-0.046167	3.288669	1.000000	-0.000006	0.000166	-0.000261	0.480234	-9.147285	173.645261
43765	2.045605	0.154272	12.914546	0.025282	-0.049119	3.263656	1.000000	-0.000034	0.000230	-0.000221	0.476705	-9.133479	173.640752
43766	1.931346	0.100998	12.922926	0.142098	-0.009257	3.253377	1.000000	-0.000024	0.000173	-0.000169	0.473451	-9.126279	173.642132
43767	1.930006	0.046584	12.944643	0.152340	0.043918	3.274166	1.000000	-0.000006	0.000079	-0.000117	0.471211	-9.129893	173.649491
43768	2.064388	0.074456	12.921866	0.015490	0.030678	3.273209	1.000000	0.000014	0.000010	-0.000101	0.471040	-9.141359	173.658648
43769	2.188742	0.102885	12.918434	-0.108362	0.015882	3.289798	1.000000	0.000019	0.000070	-0.000114	0.471692	-9.145944	173.666349
43770	2.185510	0.112747	12.933120	-0.103481	0.005512	3.303868	1.000000	-0.000000	0.000115	-0.000157	0.470896	-9.145380	173.669109
43771	2.105424	0.115330	12.928006	-0.026576	-0.005959	3.286118	1.000000	-0.000018	0.000147	-0.000219	0.469209	-9.141047	173.664673
43772	2.025151	0.065617	12.869183	0.047358	0.035182	3.214896	1.000000	-0.000003	0.000142	-0.000229	0.469434	-9.137301	173.659100
43773	2.033722	0.042179	12.905564	0.047032	0.058901	3.251987	1.000000	-0.000022	0.000094	-0.000228	0.467484	-9.139010	173.653569
43774	2.124903	0.036991	12.935308	-0.036562	0.073735	3.295783	1.000000	0.000023	0.000080	-0.000188	0.469918	-9.142417	173.652706
43775	2.165127	0.057308	12.953065	-0.074991	0.058356	3.319865	1.000000	0.000035	0.000111	-0.000152	0.473087	-9.142330	173.656086
43776	2.134744	0.121699	12.919205	-0.057996	-0.007547	3.282135	1.000000	0.000060	0.000149	-0.000165	0.479273	-9.137863	173.657973
43777	2.053116	0.152878	12.903412	0.015260	-0.045971	3.253848	1.000000	0.000047	0.000153	-0.000166	0.484006	-9.132922	173.659697
43778	2.009331	0.182556	12.917165	0.056506	-0.079514	3.260735	1.000000	0.000018	0.000124	-0.000211	0.486255	-9.131312	173.656211
43779	2.037672	0.168164	12.929151	0.032298	-0.062161	3.276943	1.000000	-0.000018	0.000085	-0.000229	0.484696	-9.134048	173.650547
43780	2.127521	0.128017	12.933873	-0.050138	-0.013353	3.295520	1.000000	-0.000053	0.000081	-0.000224	0.479079	-9.137278	173.645497
43781	2.144255	0.096452	12.915155	-0.066032	0.018772	3.279434	1.000000	-0.000042	0.000124	-0.000169	0.473664	-9.135606	173.646883
43782	2.104862	0.073492	12.941276	-0.021294	0.036224	3.298785	1.000000	-0.000018	0.000132	-0.000187	0.471335	-9.133076	173.646169
43783	2.046345	0.070020	12.927660	0.033667	0.033383	3.276032	1.000000	0.000018	0.000139	-0.000174	0.472872	-9.129702	173.647025
43784	2.019156	0.091629	12.920397	0.056385	0.009361	3.264727	1.000000	0.000014	0.000117	-0.000178	0.474105	-9.128853	173.647382
43785	2.039049	0.099355	12.918005	0.035655	0.003994	3.265583	1.000000	0.000002	0.000102	-0.000177	0.473879	-9.129738	173.647868
43786	2.076982	0.075575	12.949911	0.006290	0.031408	3.302904	1.000000	0.000002	0.000102	-0.000177	0.473641	-9.130630	173.648373
43787	2.103176	0.075869	12.945906	-0.019969	0.034018	3.303106	1.000000	0.000003	0.000109	-0.000199	0.473978	-9.130699	173.646321
43788	2.056443	0.066794	12.943220	0.026097	0.038108	3.292969	1.000000	0.000006	0.000139	-0.000205	0.474705	-9.127341	173.643548
43789	2.027936	0.075730	12.930528	0.050405	0.026628	3.275993	1.000000	0.000018	0.000135	-0.000204	0.476885	-9.124452	173.640926
43790	2.011304	0.101107	12.948535	0.066491	0.000283	3.291346	1.000000	0.000044	0.000115	-0.000208	0.482054	-9.123828	173.637742
43791	2.054092	0.116480	12.943338	0.022262	-0.009436	3.293123	1.000000	0.000024	0.000091	-0.000180	0.484419	-9.125982	173.637767
43792	2.054497	0.152160	12.915408	0.013988	-0.044328	3.265911	1.000000	0.000009	0.000096	-0.000171	0.484875	-9.127575	173.638927
43793	2.082798	0.137851	12.927519	-0.010276	-0.027142	3.282233	1.000000	-0.000001	0.000122	-0.000168	0.484202	-9.126164	173.640376
43794	2.068372	0.125975	12.941866	0.007170	-0.017154	3.294012	1.000000	-0.000002	0.000118	-0.000187	0.483694	-9.125169	173.639731
43795	2.062261	0.128738	12.920812	0.009527	-0.020405	3.272280	1.000000	0.000004	0.000101	-0.000188	0.483947	-9.126184	173.638890
43796	2.079270	0.120118	12.921856	-0.005875	-0.010054	3.275934	1.000000	-0.000007	0.000104	-0.000201	0.483241	-9.126797	173.636512
43797	2.087992	0.114774	12.933360	-0.011955	-0.004403	3.288630	1.000000	-0.000031	0.000104	-0.000194	0.479530	-9.127333	173.634973
43798	2.087251	0.078680	12.930188	-0.007919	0.030800	3.285082	1.000000	-0.000009	0.000121	-0.000152	0.477612	-9.126083	173.638278
43799	2.073018	0.066742	12.944496	0.009494	0.040815	3.296854	1.000000	0.000009	0.000107	-0.000163	0.478006	-9.126384	173.640308
43800	2.071013	0.076928	12.905762	0.004262	0.030947	3.258377	1.000000	0.000013	0.000110	-0.000156	0.478695	-9.126417	173.643181
43801	2.065288	0.083396	12.929296	0.013105	0.023922	3.280759	1.000000	0.000017	0.000096	-0.000187	0.480411	-9.127934	173.642501
43802	2.062639	0.106199	12.949419	0.016693	0.001069	3.300395	1.000000	0.000010	0.000102	-0.000193	0.481487	-9.128745	173.641063
43803	2.076549	0.099611	12.928968	0.000781	0.009275	3.282353	1.000000	-0.000008	0.000097	-0.000179	0.480218	-9.130213	173.641223
43804	2.086373	0.103962	12.901262	-0.013338	0.006168	3.256593	1.000000	0.000007	0.000092	-0.000189	0.480871	-9.132248	173.640236
43805	2.096255	0.093517	12.943134	-0.015146	0.017196	3.299414	1.000000	-0.000005	0.000119	-0.000175	0.479892	-9.131193	173.640895
43806	2.094420	0.085681	12.929320	-0.014661	0.025257	3.285419	1.000000	0.000035	0.000102	-0.000200	0.483924	-9.132046	173.638615
43807	2.088388	0.110777	12.927951	-0.011517	0.000281	3.283320	1.000000	0.000017	0.000108	-0.000179	0.485531	-9.132268	173.638847
43808	2.076001	0.142920	12.928181	-0.002761	-0.032674	3.281853	1.000000	0.000017	0.000108	-0.000179	0.487125	-9.132485	173.639079
43809	2.077922	0.163976	12.916434	-0.008948	-0.052986	3.270738	1.000000	0.000011	0.000125	-0.000177	0.488000	-9.130774	173.639533
43810	2.051138	0.126767	12.939144	0.024537	-0.019196	3.288599	1.000000	-0.000016	0.000130	-0.000199	0.486181	-9.128451	173.637414
43811	2.064916	0.101820	12.943695	0.014306	0.006901	3.295067	1.000000	0.000004	0.000100	-0.000189	0.486424	-9.129490	173.636522
43812	2.064477	0.084394	12.915567	0.012405	0.024182	3.267081	1.000000	-0.000018	0.000100	-0.000193	0.484189	-9.130576	173.635123
43813	2.054294	0.101004	12.931866	0.023157	0.005869	3.281698	1.000000	-0.000017	0.000115	-0.000166	0.481677	-9.129984	173.636788
43814	2.083573	0.077558	12.929884	-0.003543	0.032034	3.284189	1.000000	-0.000005	0.000118	-0.000176	0.480724	-9.128959	173.637394
43815	2.076434	0.089156	12.923094	0.001076	0.019603	3.276449	1.000000	-0.000001	0.000102	-0.000166	0.480044	-9.129839	173.639122
43816	2.065445	0.093624	12.933925	0.013272	0.013829	3.285437	1.000000	0.000008	0.000103	-0.000182	0.480629	-9.130600	173.639016
43817	2.061716	0.081959	12.928928	0.017480	0.025231	3.279815	1.000000	0.000011	0.000113	-0.000185	0.481604	-9.130180	173.638493
43818	2.057326	0.110521	12.918763	0.016919	-0.003048	3.269321	1.000000	0.000029	0.000119	-0.000199	0.484892	-9.129069	173.636367
43819	2.056274	0.097079	12.935361	0.021659	0.010422	3.285429	1.000000	-0.000004	0.000133	-0.000208	0.484580	-9.126340	173.633215
43820	2.064270	0.110596	12.922083	0.009862	-0.001961	3.273702	1.000000	0.000008	0.000114	-0.000174	0.485028	-9.125834	173.634076
43821	2.060422	0.120560	12.936774	0.015061	-0.012311	3.287679	1.000000	0.000007	0.000091	-0.000189	0.485696	-9.127904	173.633048
43822	2.064131	0.114213	12.935610	0.012227	-0.005490	3.287065	1.000000	0.000009	0.000106	-0.000163	0.486116	-9.128285	173.635029
43823	2.077148	0.116891	12.929479	-0.001405	-0.006601	3.283098	1.000000	0.000008	0.000083	-0.000179	0.486709	-9.131322	173.635256
43824	2.081758	0.123187	12.933757	-0.005611	-0.012333	3.288105	1.000000	0.000005	0.000111	-0.000181	0.486938	-9.131126	173.635216
43825	2.078704	0.123822	12.934242	-0.002802	-0.013475	3.288105	1.000000	-0.000015	0.000121	-0.000189	0.485028	-9.129789	173.634318
43826	2.073737	0.099039	12.923879	0.002720	0.010476	3.276878	1.000000	-0.000002	0.000129	-0.000179	0.484474	-9.127626	173.634497
43827	2.071920	0.090718	12.910089	0.003074	0.018549	3.262906	1.000000	-0.000000	0.000102	-0.000166	0.483804	-9.128564	173.636240
43828	2.051335	0.085670	12.925900	0.026105	0.020745	3.275212	1.000000	-0.000023	0.000132	-0.000165	0.480533	-9.126054	173.638094
43829	2.071149	0.093532	12.923734	0.005454	0.015001	3.276279	1.000000	0.000020	0.000087	-0.000188	0.482701	-9.128649	173.637221
43830	2.075130	0.087013	12.922546	0.002581	0.021801	3.275684	1.000000	-0.000020	0.000092	-0.000171	0.479932	-9.130624	173.638312
43831	2.077737	0.089297	12.935655	0.002173	0.019371	3.289059	1.000000	0.000004	0.000100	-0.000189	0.480209	-9.131749	173.637409
43832	2.089640	0.097399	12.899217	-0.015866	0.012815	3.255039	1.000000	-0.000008	0.000096	-0.000180	0.478947	-9.133372	173.637575
43833	2.074669	0.094316	12.927642	0.003973	0.013747	3.280703	1.000000	-0.000002	0.000098	-0.000184	0.478474	-9.134694	173.637155
43834	2.076925	0.097096	12.940804	0.003577	0.011320	3.294079	1.000000	0.000024	0.000120	-0.000176	0.480819	-9.133463	173.637663
43835	2.064408	0.107649	12.921308	0.011445	0.000203	3.272932	1.000000	0.000023	0.000117	-0.000195	0.483316	-9.132674	173.636130
43836	2.089097	0.117627	12.931921	-0.012377	-0.006914	3.287410	1.000000	-0.000004	0.000118	-0.000176	0.482342	-9.131718	173.636690
43837	2.050710	0.126018	12.938073	0.025225	-0.019217	3.287466	1.000000	0.000033	0.000113	-0.000182	0.485827	-9.131296	173.636624
43838	2.071399	0.125246	12.921739	0.002086	-0.015833	3.274614	1.000000	-0.000015	0.000132	-0.000181	0.483792	-9.128668	173.636593
43839	2.058327	0.103942	12.921714	0.016949	0.003569	3.272339	1.000000	-0.000007	0.000107	-0.000172	0.482484	-9.128989	173.637584
43840	2.069769	0.115504	12.929956	0.005815	-0.006850	3.282386	1.000000	0.000004	0.000107	-0.000200	0.482915	-9.129265	173.635414
43841	2.072586	0.096224	12.923410	0.004187	0.012483	3.276209	1.000000	-0.000013	0.000105	-0.000168	0.480813	-9.129747	173.636874
43842	2.088594	0.096553	12.938900	-0.008850	0.013290	3.294045	1.000000	-0.000015	0.000090	-0.000194	0.478982	-9.131925	173.635331
43843	2.062948	0.089821	12.941928	0.017368	0.016870	3.292912	1.000000	-0.000001	0.000139	-0.000172	0.478273	-9.128517	173.636485
43844	2.061338	0.081638	12.928123	0.017614	0.024959	3.278960	1.000000	0.000009	0.000083	-0.000179	0.478908	-9.131572	173.636603
43845	2.067800	0.091593	12.923638	0.009638	0.015823	3.275638	1.000000	0.000003	0.000123	-0.000162	0.478539	-9.130006	173.638725
43846	2.060423	0.103362	12.916837	0.014348	0.003442	3.267851	1.000000	0.000007	0.000110	-0.000193	0.479271	-9.130026	173.637364
43847	2.057906	0.086086	12.942185	0.022830	0.020257	3.292335	1.000000	0.000008	0.000102	-0.000182	0.479953	-9.130831	173.637051
43848	2.079899	0.097990	12.931266	-0.001590	0.010997	3.285141	1.000000	0.000006	0.000103	-0.000171	0.480076	-9.131612	173.638203
43849	2.070680	0.106316	12.933244	0.006921	0.001968	3.285701	1.000000	0.000019	0.000113	-0.000202	0.482377	-9.131138	173.635716
43850	2.068516	0.120115	12.939139	0.008492	-0.011741	3.291292	1.000000	0.000009	0.000106	-0.000164	0.482785	-9.131580	173.637643
43851	2.064972	0.108200	12.934141	0.012510	-0.000307	3.285697	1.000000	-0.000009	0.000111	-0.000202	0.481789	-9.131406	173.635188
43852	2.075521	0.107200	12.936995	0.002645	0.001761	3.290179	1.000000	0.000009	0.000113	-0.000175	0.482272	-9.130975	173.635916
43853	2.066002	0.115210	12.939014	0.011166	-0.007271	3.290730	1.000000	-0.000005	0.000125	-0.000187	0.481433	-9.129169	173.635177
43854	2.076401	0.114209	12.941898	0.001320	-0.005215	3.295218	1.000000	0.000005	0.000110	-0.000182	0.481633	-9.129122	173.635198
43855	2.082141	0.111336	12.931992	-0.005422	-0.001822	3.286324	1.000000	-0.000010	0.000096	-0.000169	0.479934	-9.130668	173.636563
43856	2.075811	0.101187	12.905423	-0.002137	0.007598	3.259003	1.000000	0.000001	0.000108	-0.000189	0.479879	-9.130859	173.635647
43857	2.063122	0.114561	12.930462	0.012839	-0.007293	3.281824	1.000000	0.000005	0.000110	-0.000182	0.480139	-9.130791	173.635547
43858	2.066129	0.095569	12.923928	0.011076	0.012023	3.275692	1.000000	0.000005	0.000099	-0.000189	0.480478	-9.132030	173.634571
43859	2.072807	0.087279	12.944389	0.008851	0.020771	3.296884	1.000000	-0.000001	0.000108	-0.000177	0.479969	-9.132260	173.635072
43860	2.078179	0.102763	12.909595	-0.003608	0.006221	3.263512	1.000000	0.000001	0.000107	-0.000189	0.479917	-9.132462	173.634143
43861	2.071044	0.096131	12.927697	0.006821	0.011797	3.280197	1.000000	-0.000005	0.000125	-0.000187	0.479151	-9.130770	173.633417
43862	2.067440	0.084542	12.922718	0.010770	0.023221	3.274613	1.000000	0.000031	0.000102	-0.000178	0.482221	-9.131637	173.633808
43863	2.065963	0.111067	12.934040	0.011263	-0.003072	3.285778	1.000000	0.000001	0.000107	-0.000189	0.482201	-9.131868	173.632876
43864	2.076563	0.110239	12.936920	0.001394	-0.001050	3.290296	1.000000	0.000009	0.000113	-0.000175	0.482749	-9.131456	173.633527
43865	2.080780	0.116772	12.941304	-0.002708	-0.006896	3.295348	1.000000	0.000014	0.000103	-0.000187	0.484212	-9.132143	173.632713
43866	2.073039	0.115864	12.928990	0.003193	-0.006674	3.281954	1.000000	-0.000005	0.000105	-0.000184	0.483426	-9.132688	173.632348
43867	2.072522	0.102160	12.945549	0.007862	0.006771	3.298107	1.000000	0.000011	0.000112	-0.000186	0.484502	-9.132435	173.631671
43868	2.070088	0.133777	12.926512	0.003865	-0.024887	3.279190	1.000000	-0.000018	0.000098	-0.000194	0.482348	-9.133756	173.630142
43869	2.076051	0.112524	12.941567	0.002724	-0.003598	3.294822	1.000000	-0.000004	0.000117	-0.000177	0.481416	-9.132809	173.630539
43870	2.072478	0.100544	12.936593	0.006639	0.007844	3.289244	1.000000	0.000003	0.000111	-0.000170	0.481169	-9.132694	173.631782
43871	2.061192	0.104903	12.947336	0.019014	0.002216	3.298097	1.000000	0.000008	0.000101	-0.000183	0.481836	-9.133547	173.631461
43872	2.068358	0.093190	12.923224	0.009476	0.014806	3.275330	1.000000	-0.000008	0.000114	-0.000184	0.480664	-9.132994	173.631080
43873	2.076669	0.088381	12.934978	0.003416	0.020152	3.288213	1.000000	-0.000008	0.000125	-0.000176	0.479419	-9.131166	173.631564
43874	2.062733	0.107119	12.929651	0.013958	-0.000054	3.280900	1.000000	0.000005	0.000110	-0.000182	0.479633	-9.131094	173.631439
43875	2.065906	0.088167	12.923138	0.012054	0.019257	3.274815	1.000000	0.000005	0.000098	-0.000190	0.480064	-9.132418	173.630373
43876	2.077265	0.100061	12.931471	0.001121	0.008620	3.284943	1.000000	0.000001	0.000107	-0.000189	0.480033	-9.132774	173.629503
43877	2.067373	0.095430	12.927969	0.010778	0.012243	3.279877	1.000000	0.000009	0.000112	-0.000175	0.480633	-9.132414	173.630080
43878	2.076601	0.103562	12.945120	0.003673	0.004958	3.298342	1.000000	-0.000004	0.000097	-0.000174	0.479731	-9.133851	173.630918
43879	2.084482	0.104550	12.926457	-0.006990	0.004932	3.281174	1.000000	0.000005	0.000110	-0.000182	0.480018	-9.133776	173.630682
43880	2.075156	0.112508	12.928396	0.001617	-0.004035	3.281675	1.000000	-0.000001	0.000108	-0.000178	0.479570	-9.133997	173.630992
43881	2.078652	0.106199	12.927382	-0.001399	0.002663	3.281176	1.000000	0.000008	0.000120	-0.000186	0.480240	-9.132758	173.630371
43882	2.069308	0.114293	12.929317	0.007207	-0.006297	3.281672	1.000000	0.000005	0.000098	-0.000190	0.480682	-9.134034	173.629209
43883	2.082158	0.117187	12.923425	-0.006497	-0.007743	3.277917	1.000000	-0.000001	0.000108	-0.000178	0.480162	-9.134193	173.629544
43884	2.068637	0.117660	12.942967	0.009770	-0.009948	3.295070	1.000000	0.000004	0.000114	-0.000152	0.479866	-9.133659	173.632649
43885	2.074115	0.102387	12.927644	0.003960	0.005982	3.280683	1.000000	0.000009	0.000082	-0.000180	0.480613	-9.136889	173.632651
43886	2.076451	0.105031	12.940822	0.003771	0.003427	3.294087	1.000000	-0.000004	0.000116	-0.000177	0.479703	-9.136263	173.633236
43887	2.076750	0.087869	12.912779	0.000936	0.020737	3.266305	1.000000	0.000008	0.000101	-0.000183	0.480320	-9.137266	173.633034
43888	2.072402	0.097872	12.927463	0.006549	0.010370	3.280195	1.000000	0.000011	0.000111	-0.000187	0.481392	-9.137072	173.632335
43889	2.076525	0.104308	12.931888	0.002500	0.004460	3.285272	1.000000	-0.000001	0.000107	-0.000178	0.480958	-9.137260	173.632554
43890	2.073635	0.104948	12.932347	0.005308	0.003332	3.285272	1.000000	-0.000008	0.000113	-0.000184	0.479854	-9.136876	173.632112
43891	2.070326	0.093068	12.927348	0.009070	0.014804	3.279712	1.000000	0.000012	0.000103	-0.000176	0.480833	-9.137464	173.632521
43892	2.076500	0.103159	12.922982	0.001206	0.005514	3.276466	1.000000	-0.000004	0.000116	-0.000177	0.480008	-9.136715	173.632858
43893	2.067124	0.111175	12.924902	0.009834	-0.003449	3.276940	1.000000	0.000015	0.000102	-0.000188	0.481398	-9.137470	173.632145
43894	2.061752	0.095731	12.928698	0.017448	0.011387	3.279707	1.000000	-0.000002	0.000115	-0.000189	0.480989	-9.136898	173.631324
43895	2.070697	0.104019	12.945918	0.010454	0.004025	3.298197	1.000000	0.000008	0.000108	-0.000194	0.481792	-9.137090	173.629825
43896	2.056583	0.110290	12.935025	0.022100	-0.003484	3.285254	1.000000	0.000007	0.000097	-0.000202	0.482715	-9.138589	173.627413
43897	2.076017	0.106116	12.927707	0.002541	0.002805	3.281078	1.000000	-0.000007	0.000105	-0.000173	0.481475	-9.139062	173.628220
43898	2.068772	0.117566	12.920815	0.007342	-0.009475	3.273219	1.000000	-0.000001	0.000107	-0.000178	0.481141	-9.139227	173.628262
43899	2.063419	0.102064	12.924610	0.014914	0.005359	3.275988	1.000000	0.000011	0.000111	-0.000187	0.482140	-9.139045	173.627635
43900	2.073526	0.088693	12.922161	0.005979	0.019808	3.275063	1.000000	-0.000004	0.000116	-0.000177	0.481239	-9.138339	173.628073
43901	2.073299	0.118410	12.924760	0.003071	-0.009940	3.277840	1.000000	-0.000005	0.000123	-0.000188	0.480439	-9.136761	173.627299
43902	2.078975	0.084993	12.934438	0.002729	0.023857	3.288018	1.000000	0.000015	0.000095	-0.000177	0.481740	-9.138479	173.627809
43903	2.078638	0.102390	12.931538	0.000740	0.006719	3.285246	1.000000	0.000005	0.000120	-0.000175	0.481889	-9.137148	173.628502
43904	2.080101	0.092406	12.939355	0.001520	0.016747	3.293113	1.000000	0.000003	0.000110	-0.000171	0.481712	-9.137219	173.629660
43905	2.065688	0.098507	12.928492	0.013165	0.009262	3.280151	1.000000	0.000008	0.000119	-0.000186	0.482366	-9.136187	173.629122
43906	2.069378	0.105174	12.933001	0.009159	0.003288	3.285244	1.000000	0.000013	0.000129	-0.000202	0.483893	-9.133894	173.626707
43907	2.078750	0.097647	12.900213	-0.004550	0.012396	3.254296	1.000000	0.000012	0.000103	-0.000176	0.484843	-9.134629	173.627240
43908	2.070037	0.100031	12.932483	0.008875	0.008797	3.284794	1.000000	-0.000004	0.000115	-0.000177	0.484038	-9.133995	173.627608
43909	2.071557	0.120888	12.920825	0.003093	-0.011721	3.273700	1.000000	0.000001	0.000113	-0.000200	0.484186	-9.133471	173.625288
43910	2.070546	0.094549	12.931996	0.008557	0.014315	3.284349	1.000000	0.000006	0.000120	-0.000175	0.484434	-9.132229	173.625871
43911	2.063014	0.106063	12.925130	0.013405	0.002046	3.276471	1.000000	-0.000008	0.000112	-0.000185	0.483409	-9.131873	173.625266
43912	2.071874	0.114290	12.942391	0.006510	-0.005392	3.294987	1.000000	0.000005	0.000109	-0.000183	0.483787	-9.131980	173.624931
43913	2.070836	0.105955	12.928594	0.006345	0.002695	3.281131	1.000000	-0.000013	0.000103	-0.000169	0.481743	-9.132801	173.626361
43914	2.068091	0.106501	12.929029	0.009167	0.001571	3.281130	1.000000	-0.000001	0.000107	-0.000178	0.481359	-9.133232	173.626594
43915	2.076604	0.102056	12.940851	0.003138	0.006730	3.294115	1.000000	-0.000001	0.000114	-0.000189	0.481021	-9.132666	173.625598
43916	2.066741	0.097292	12.937303	0.012712	0.010430	3.289008	1.000000	0.000009	0.000111	-0.000176	0.481533	-9.132550	173.626343
43917	2.099155	0.079659	12.927262	-0.018720	0.032119	3.284088	1.000000	0.000034	0.000111	-0.000183	0.485297	-9.132425	173.625919
43918	2.089850	0.100616	12.934623	-0.010813	0.010575	3.290054	1.000000	0.000003	0.000121	-0.000164	0.484957	-9.131323	173.628045
43919	2.062298	0.120703	12.926577	0.012653	-0.012368	3.277909	1.000000	0.000002	0.000106	-0.000190	0.484968	-9.131824	173.627083
