// Start Time: Unknown
// Update Rate: 100.0Hz
// Filter Profile: human (46.1)
// Firmware Version: 4.4.0
PacketCounter	Acc_X	Acc_Y	Acc_Z	FreeAcc_X	FreeAcc_Y	FreeAcc_Z	OriInc_q0	OriInc_q1	OriInc_q2	OriInc_q3	Roll	Pitch	Yaw
64817	9.855491	-0.800008	0.666354	0.000000	-0.000000	0.097648	1.000000	0.000035	0.000023	0.000048	-50.202708	-83.972363	42.996421
64818	9.858781	-0.777726	0.659680	0.000000	0.000000	0.098700	1.000000	0.000035	0.000027	0.000037	-49.694873	-84.096779	42.564793
64819	9.849970	-0.767227	0.691684	-0.026656	0.024035	0.091236	1.000000	0.000032	0.000019	0.000032	-49.948494	-84.033339	42.784002
64820	9.891662	-0.780850	0.670571	-0.003570	0.011429	0.132373	1.000000	0.000038	0.000034	0.000042	-49.945299	-84.027085	42.785151
64821	9.837608	-0.773316	0.672280	-0.007675	0.015970	0.078126	1.000000	0.000035	0.000027	0.000037	-49.944788	-84.021496	42.788102
64822	9.849689	-0.769252	0.693443	-0.026610	0.024073	0.091236	1.000000	0.000045	0.000019	0.000030	-49.944508	-84.017435	42.793058
64823	9.858331	-0.781198	0.662302	0.003877	0.009657	0.098695	1.000000	0.000018	0.000011	0.000056	-49.971427	-84.011750	42.822194
64824	9.870399	-0.777420	0.683310	-0.015058	0.017760	0.111804	1.000000	0.000040	0.000021	0.000039	-49.976675	-84.006777	42.832093
64825	9.882470	-0.773449	0.704488	-0.033979	0.025841	0.124914	1.000000	0.000035	0.000027	0.000037	-49.974934	-84.001559	42.834362
64826	9.873621	-0.755739	0.677198	-0.004833	0.039889	0.112861	1.000000	0.000035	0.000027	0.000037	-49.974566	-83.996312	42.837995
64827	9.878854	-0.790683	0.653419	0.015470	0.003272	0.119264	1.000000	0.000045	0.000015	0.000041	-49.981601	-83.991692	42.850351
64828	9.875348	-0.814483	0.661173	0.005259	-0.018879	0.118207	1.000000	0.000016	0.000033	0.000037	-49.978433	-83.985998	42.848959
64831	9.864049	-0.771532	0.687557	-0.046300	0.081347	19.941278	1.000000	0.000119	0.000051	0.000087	-49.980477	-83.974745	42.864804
64832	9.833233	-0.803874	0.684808	-0.017809	-0.006320	0.077069	1.000000	0.000027	0.000042	0.000050	-49.977180	-83.967300	42.864616
64833	9.857434	-0.788136	0.667412	0.004022	0.009415	0.098695	1.000000	0.000040	0.000021	0.000039	-49.974914	-83.962443	42.867041
64834	9.872941	-0.760955	0.681264	-0.004701	0.039668	0.112862	1.000000	0.000037	0.000018	0.000023	-49.971862	-83.959116	42.868233
64835	9.860704	-0.766191	0.661157	0.014309	0.031404	0.099753	1.000000	0.000016	0.000033	0.000037	-49.959395	-83.953735	42.857592
64836	9.865900	-0.808266	0.697092	-0.025048	-0.004795	0.110748	1.000000	0.000032	0.000044	0.000030	-49.939574	-83.947840	42.841400
64837	9.869225	-0.785847	0.690597	-0.014751	0.017168	0.111806	1.000000	0.000021	0.000027	0.000039	-49.931293	-83.942788	42.835598
64839	9.854283	-0.774518	0.682714	-0.011901	0.054689	10.003679	1.000000	0.000091	0.000030	0.000082	-49.952707	-83.933372	42.867609
64840	9.860257	-0.769490	0.663992	0.014512	0.030944	0.099754	1.000000	0.000045	0.000024	0.000019	-49.926022	-83.930521	42.846189
64841	9.863589	-0.754113	0.716671	-0.034901	0.053452	0.105408	1.000000	0.000035	0.000027	0.000037	-49.925650	-83.925268	42.849818
64842	9.860094	-0.770589	0.665124	0.014652	0.030565	0.099755	1.000000	0.000040	0.000025	0.000028	-49.899473	-83.921825	42.828352
64843	9.851303	-0.752827	0.637738	0.043797	0.044614	0.087702	1.000000	0.000040	0.000021	0.000039	-49.904640	-83.916844	42.838169
64844	9.839021	-0.765486	0.676946	0.003168	0.036404	0.079189	1.000000	0.000035	0.000023	0.000048	-49.894298	-83.912524	42.831999
64845	9.887581	-0.740254	0.700580	-0.012944	0.068450	0.127041	1.000000	0.000042	0.000012	0.000025	-49.896784	-83.909465	42.839377
64846	9.875344	-0.745520	0.680555	0.006063	0.059738	0.113932	1.000000	0.000027	0.000046	0.000039	-49.855546	-83.904742	42.801378
64847	9.863117	-0.750764	0.660444	0.024998	0.051638	0.100819	1.000000	0.000025	0.000005	0.000021	-49.863607	-83.902521	42.812415
64848	9.850845	-0.763188	0.699597	-0.015664	0.043145	0.092308	1.000000	0.000038	0.000034	0.000043	-49.829487	-83.899076	42.782821
64849	9.859498	-0.775094	0.668722	0.014816	0.028737	0.099760	1.000000	0.000032	0.000020	0.000032	-49.831921	-83.894828	42.788917
64850	9.871557	-0.771031	0.689939	-0.004097	0.036007	0.112877	1.000000	0.000029	0.000033	0.000035	-49.792347	-83.892459	42.752903
64851	9.892349	-0.778213	0.679885	0.007449	0.029696	0.133442	1.000000	0.000024	0.000039	0.000034	-49.781021	-83.886651	42.744286
64852	9.859159	-0.784041	0.730005	-0.044820	0.027381	0.104363	1.000000	0.000023	0.000018	0.000025	-49.746937	-83.886758	42.713005
64853	9.862613	-0.754460	0.663744	0.025016	0.049175	0.100832	1.000000	0.000045	0.000015	0.000041	-49.757634	-83.882047	42.729001
64854	9.879944	-0.784793	0.660874	0.026332	0.019758	0.120332	1.000000	0.000027	0.000046	0.000039	-49.706426	-83.879038	42.680924
64855	9.850243	-0.760890	0.644500	0.043932	0.040128	0.087721	1.000000	0.000024	0.000026	0.000066	-49.728125	-83.871322	42.705512
64856	9.879715	-0.786637	0.662111	0.026171	0.018797	0.120334	1.000000	0.000037	0.000018	0.000023	-49.693020	-83.872432	42.674283
64857	9.891775	-0.782618	0.683170	0.007235	0.026892	0.133450	1.000000	0.000040	0.000017	0.000050	-49.709339	-83.866814	42.695296
64858	9.837746	-0.775010	0.684592	0.002869	0.030469	0.079210	1.000000	0.000035	0.000027	0.000037	-49.678604	-83.866230	42.668269
64859	9.862024	-0.759224	0.667057	0.024622	0.046303	0.100847	1.000000	0.000040	0.000021	0.000039	-49.684081	-83.861243	42.678353
64860	9.858450	-0.783036	0.674886	0.014246	0.023124	0.099776	1.000000	0.000043	0.000029	0.000044	-49.651732	-83.859976	42.650849
64861	9.861848	-0.760619	0.668074	0.024455	0.045276	0.100852	1.000000	0.000042	0.000012	0.000025	-49.654525	-83.856915	42.658491
64862	9.858263	-0.784428	0.676006	0.013845	0.022057	0.099779	1.000000	0.000016	0.000050	0.000057	-49.623910	-83.854160	42.629454
64863	9.873765	-0.757566	0.690093	0.005116	0.052301	0.113975	1.000000	0.000018	0.000020	0.000034	-49.629668	-83.849750	42.637230
64864	9.849299	-0.774677	0.708668	-0.016963	0.035317	0.092337	1.000000	0.000049	0.000027	0.000035	-49.592701	-83.850587	42.606669
64865	9.861453	-0.763559	0.670540	0.023717	0.043056	0.100863	1.000000	0.000035	0.000027	0.000037	-49.593064	-83.845347	42.610973
64866	9.824840	-0.785408	0.668532	0.020561	0.017886	0.066105	1.000000	0.000035	0.000027	0.000037	-49.555307	-83.846495	42.579217
64867	9.873400	-0.760244	0.692370	0.004427	0.049883	0.113987	1.000000	0.000035	0.000027	0.000037	-49.555814	-83.841288	42.583695
64868	9.890707	-0.790549	0.689467	0.005427	0.020223	0.133467	1.000000	0.000035	0.000027	0.000037	-49.521052	-83.842053	42.553366
64869	9.852334	-0.754941	0.704166	-0.007462	0.055034	0.093432	1.000000	0.000028	0.000012	0.000027	-49.527134	-83.838890	42.562742
64870	9.878393	-0.796576	0.669910	0.023824	0.011008	0.120352	1.000000	0.000044	0.000049	0.000053	-49.493393	-83.837221	42.532736
64871	9.857381	-0.790809	0.681413	0.012261	0.017344	0.099790	1.000000	0.000018	0.000020	0.000034	-49.499811	-83.832885	42.541179
64872	9.857303	-0.791398	0.681849	0.011843	0.016261	0.099792	1.000000	0.000045	0.000019	0.000030	-49.472204	-83.834832	42.518196
64873	9.860735	-0.768940	0.674946	0.022028	0.038415	0.100886	1.000000	0.000037	0.000014	0.000034	-49.481474	-83.830954	42.531702
64874	9.848523	-0.774292	0.654742	0.040515	0.029228	0.087774	1.000000	0.000035	0.000027	0.000037	-49.454118	-83.831939	42.508947
64875	9.881454	-0.776878	0.665223	0.033085	0.030977	0.121453	1.000000	0.000035	0.000027	0.000037	-49.455373	-83.826778	42.514123
64876	9.872593	-0.766317	0.697174	0.001908	0.044289	0.114015	1.000000	0.000026	0.000021	0.000041	-49.445408	-83.828942	42.507672
64877	9.851617	-0.760292	0.708427	-0.009664	0.050635	0.093453	1.000000	0.000032	0.000024	0.000021	-49.438788	-83.825456	42.504556
64878	9.863828	-0.748958	0.670303	0.030883	0.057367	0.102004	1.000000	0.000048	0.000031	0.000025	-49.390714	-83.825458	42.460418
64879	9.839339	-0.765890	0.688927	0.009104	0.041568	0.080340	1.000000	0.000032	0.000020	0.000032	-49.394872	-83.821314	42.468129
64880	9.863508	-0.757016	0.730802	-0.029324	0.056653	0.106580	1.000000	0.000035	0.000031	0.000026	-49.361678	-83.823222	42.437595
64881	9.856557	-0.796585	0.686577	0.009843	0.012013	0.099801	1.000000	0.000032	0.000020	0.000032	-49.366044	-83.819082	42.445484
64882	9.863509	-0.751155	0.672529	0.029892	0.055302	0.102019	1.000000	0.000029	0.000033	0.000035	-49.334623	-83.819052	42.415331
64883	9.868669	-0.786186	0.649006	0.050118	0.018742	0.108354	1.000000	0.000040	0.000021	0.000039	-49.341804	-83.814157	42.426985
64884	9.863327	-0.752550	0.673647	0.029572	0.054115	0.102026	1.000000	0.000035	0.000027	0.000037	-49.304529	-83.814799	42.396477
64885	9.863234	-0.753241	0.674233	0.029537	0.054124	0.102026	1.000000	0.000035	0.000027	0.000037	-49.306227	-83.809644	42.402046
64886	9.892640	-0.778790	0.691979	0.011459	0.032490	0.134598	1.000000	0.000045	0.000019	0.000030	-49.274853	-83.812224	42.378480
64887	9.854281	-0.743218	0.706750	-0.001429	0.067348	0.094592	1.000000	0.000024	0.000035	0.000045	-49.276601	-83.805891	42.382886
64888	9.859443	-0.778250	0.683101	0.018088	0.029639	0.100925	1.000000	0.000034	0.000006	0.000029	-49.269701	-83.810567	42.380034
64889	9.862903	-0.755832	0.676165	0.028257	0.051795	0.102042	1.000000	0.000035	0.000027	0.000037	-49.271670	-83.805443	42.385877
64890	9.859280	-0.779479	0.684048	0.017326	0.028488	0.100929	1.000000	0.000026	0.000026	0.000030	-49.249380	-83.808526	42.367751
64891	9.862740	-0.757006	0.677228	0.027489	0.050644	0.102050	1.000000	0.000045	0.000019	0.000030	-49.251521	-83.804615	42.374997
64892	9.883346	-0.771162	0.726518	-0.020881	0.043432	0.127168	1.000000	0.000038	0.000039	0.000032	-49.200166	-83.804770	42.331366
64893	9.850444	-0.762990	0.657776	0.046117	0.041385	0.088940	1.000000	0.000018	0.000016	0.000045	-49.218458	-83.799890	42.351713
64894	9.858932	-0.782023	0.686150	0.016288	0.026223	0.100937	1.000000	0.000032	0.000020	0.000032	-49.203075	-83.802746	42.339891
64895	9.865949	-0.736551	0.671945	0.036657	0.070525	0.103192	1.000000	0.000045	0.000019	0.000030	-49.205244	-83.798853	42.347194
64896	9.883208	-0.766940	0.669058	0.037532	0.040948	0.122631	1.000000	0.000016	0.000029	0.000048	-49.187358	-83.798537	42.331436
64897	9.850094	-0.765823	0.659718	0.044902	0.039252	0.088954	1.000000	0.000035	0.000027	0.000037	-49.189604	-83.793453	42.337578
64898	9.879459	-0.791504	0.677505	0.026495	0.017803	0.121505	1.000000	0.000026	0.000021	0.000041	-49.186566	-83.795514	42.336421
64899	9.870807	-0.773936	0.650033	0.055597	0.031895	0.109522	1.000000	0.000035	0.000027	0.000037	-49.189062	-83.790442	42.342784
64900	9.858379	-0.786232	0.689275	0.014247	0.023224	0.100948	1.000000	0.000032	0.000020	0.000032	-49.178599	-83.792761	42.334363
64901	9.882769	-0.770382	0.671583	0.035921	0.039014	0.122645	1.000000	0.000042	0.000012	0.000025	-49.183845	-83.789905	42.344353
64902	9.882686	-0.770997	0.672105	0.034718	0.038174	0.122652	1.000000	0.000038	0.000035	0.000043	-49.192286	-83.792038	42.353455
64903	9.858131	-0.788047	0.690757	0.012917	0.022410	0.100952	1.000000	0.000032	0.000020	0.000032	-49.198178	-83.788029	42.362802
64904	9.866814	-0.800229	0.659955	0.042479	0.007004	0.108405	1.000000	0.000019	0.000036	0.000054	-49.198213	-83.788343	42.367016
64905	9.885692	-0.757279	0.726018	-0.015756	0.059719	0.128322	1.000000	0.000035	0.000027	0.000037	-49.201652	-83.783339	42.374249
64906	9.870173	-0.778775	0.653876	0.051820	0.028271	0.109554	1.000000	0.000035	0.000027	0.000037	-49.195385	-83.784943	42.372039
64907	9.873649	-0.756445	0.647178	0.061950	0.050432	0.110699	1.000000	0.000029	0.000033	0.000036	-49.193651	-83.779678	42.373443
64908	9.849086	-0.773523	0.665763	0.039844	0.033820	0.088996	1.000000	0.000032	0.000015	0.000043	-49.187836	-83.779655	42.370553
64909	9.861095	-0.769526	0.687012	0.020815	0.041894	0.102107	1.000000	0.000024	0.000039	0.000034	-49.180630	-83.774094	42.365828
64910	9.881899	-0.776750	0.677035	0.031048	0.034866	0.122677	1.000000	0.000035	0.000031	0.000027	-49.191087	-83.777475	42.375166
64911	9.824362	-0.791593	0.685431	0.016677	0.017434	0.067290	1.000000	0.000036	-0.000007	0.000025	-49.213942	-83.776108	42.401991
64912	9.860879	-0.771098	0.688349	0.017988	0.040425	0.102119	1.000000	0.000029	0.000033	0.000036	-49.228825	-83.780105	42.421068
64913	9.885263	-0.755446	0.670932	0.039605	0.056213	0.123838	1.000000	0.000035	0.000027	0.000037	-49.233524	-83.775187	42.429456
64914	9.857112	-0.795433	0.696799	0.007118	0.017425	0.100967	1.000000	0.000037	0.000014	0.000034	-49.227084	-83.776983	42.429191
64915	9.839999	-0.759521	0.641212	0.065352	0.045621	0.077068	1.000000	0.000035	0.000027	0.000037	-49.231728	-83.772069	42.437540
64916	9.885010	-0.757377	0.672470	0.038321	0.054371	0.123853	1.000000	0.000021	0.000031	0.000028	-49.207203	-83.773758	42.420187
64917	9.869235	-0.785743	0.659663	0.046962	0.024185	0.109589	1.000000	0.000045	0.000015	0.000041	-49.222519	-83.769426	42.440558
64918	9.872447	-0.770172	0.712354	-0.003612	0.046115	0.115237	1.000000	0.000038	0.000043	0.000021	-49.218419	-83.771519	42.434892
64919	9.848151	-0.780249	0.671713	0.034191	0.030023	0.089029	1.000000	0.000035	0.000023	0.000048	-49.234266	-83.766017	42.454496
64920	9.860158	-0.776248	0.692868	0.014410	0.037391	0.102137	1.000000	0.000045	0.000020	0.000030	-49.237142	-83.768125	42.460390
64921	9.851576	-0.758587	0.665356	0.043464	0.051501	0.090199	1.000000	0.000035	0.000027	0.000037	-49.242387	-83.763266	42.469311
64922	9.859989	-0.777518	0.693849	0.012491	0.036796	0.102142	1.000000	0.000037	0.000014	0.000034	-49.291987	-83.769431	42.520008
64923	9.875906	-0.743654	0.648288	0.063239	0.066665	0.111947	1.000000	0.000038	0.000035	0.000043	-49.295346	-83.763621	42.527338
64924	9.871882	-0.774362	0.715629	-0.008315	0.044420	0.115242	1.000000	0.000040	0.000017	0.000050	-49.356038	-83.767094	42.584236
64925	9.854820	-0.738422	0.660124	0.049890	0.072618	0.091390	1.000000	0.000035	0.000036	0.000016	-49.341344	-83.763627	42.572971
64926	9.842319	-0.750569	0.699485	0.007088	0.064225	0.082751	1.000000	0.000035	0.000023	0.000048	-49.402550	-83.769619	42.637721
64927	9.896105	-0.760165	0.699286	0.010914	0.059531	0.136990	1.000000	0.000035	0.000023	0.000048	-49.421067	-83.764341	42.659828
64928	9.859434	-0.781689	0.697040	0.006786	0.035034	0.102154	1.000000	0.000039	0.000009	0.000009	-49.439324	-83.771557	42.682678
64929	9.862989	-0.759145	0.690016	0.016812	0.057209	0.103331	1.000000	0.000026	0.000021	0.000041	-49.455598	-83.767057	42.701522
64930	9.871712	-0.771273	0.659104	0.046437	0.042212	0.110822	1.000000	0.000032	0.000020	0.000032	-49.467335	-83.768441	42.710309
64931	9.862821	-0.760514	0.690915	0.015792	0.056702	0.103336	1.000000	0.000026	0.000021	0.000041	-49.483887	-83.763945	42.729382
64932	9.838554	-0.770683	0.650003	0.052704	0.040107	0.077167	1.000000	0.000018	0.000020	0.000034	-49.508422	-83.765752	42.748853
64933	9.859030	-0.784914	0.699127	0.004341	0.034130	0.102158	1.000000	0.000045	0.000015	0.000041	-49.528041	-83.761704	42.773147
64934	9.883452	-0.769448	0.681617	0.025247	0.049446	0.123921	1.000000	0.000024	0.000035	0.000045	-49.540650	-83.760260	42.779712
64935	9.850368	-0.768174	0.672201	0.032537	0.047830	0.090259	1.000000	0.000032	0.000020	0.000032	-49.552501	-83.756678	42.794533
64936	9.874812	-0.752531	0.654664	0.052522	0.062907	0.112034	1.000000	0.000048	0.000027	0.000036	-49.586448	-83.761471	42.834311
64937	9.850192	-0.769455	0.673321	0.030604	0.047218	0.090268	1.000000	0.000035	0.000027	0.000038	-49.596185	-83.756934	42.847347
64938	9.862173	-0.765493	0.694654	0.010601	0.054567	0.103354	1.000000	0.000024	0.000035	0.000045	-49.605569	-83.757642	42.861337
64939	9.882967	-0.773041	0.684574	0.021840	0.048211	0.123935	1.000000	0.000026	0.000021	0.000041	-49.623542	-83.753231	42.881677
64940	9.849886	-0.771894	0.675000	0.029113	0.046116	0.090278	1.000000	0.000040	0.000017	0.000050	-49.631225	-83.750247	42.886302
64941	9.849801	-0.772579	0.675450	0.028892	0.046168	0.090278	1.000000	0.000018	0.000024	0.000023	-49.635767	-83.747182	42.892101
64942	9.870633	-0.779863	0.665141	0.039168	0.039166	0.110866	1.000000	0.000042	0.000008	0.000036	-49.669298	-83.750855	42.928095
64943	9.862118	-0.762183	0.637520	0.068140	0.053291	0.098984	1.000000	0.000035	0.000031	0.000027	-49.668792	-83.746974	42.930745
64944	9.853207	-0.751384	0.669509	0.036360	0.067021	0.091489	1.000000	0.000029	0.000029	0.000047	-49.693849	-83.749412	42.962261
64945	9.870358	-0.781941	0.666774	0.037349	0.038529	0.110876	1.000000	0.000026	0.000021	0.000041	-49.712411	-83.745038	42.983125
64946	9.833641	-0.803549	0.664667	0.032901	0.014305	0.076028	1.000000	0.000040	0.000025	0.000029	-49.753860	-83.749783	43.023049
64947	9.882275	-0.778402	0.688472	0.016371	0.046211	0.123955	1.000000	0.000032	0.000020	0.000032	-49.767774	-83.746376	43.039804
64948	9.858039	-0.788484	0.647496	0.051463	0.029678	0.097831	1.000000	0.000037	0.000014	0.000034	-49.865190	-83.756173	43.137362
64949	9.870036	-0.784407	0.668637	0.032193	0.037800	0.110897	1.000000	0.000035	0.000027	0.000038	-49.877527	-83.751860	43.152833
64950	9.849051	-0.778293	0.679811	0.019192	0.043683	0.090313	1.000000	0.000032	0.000020	0.000032	-49.916498	-83.756275	43.193419
64951	9.881953	-0.780882	0.690282	0.011350	0.045394	0.123966	1.000000	0.000045	0.000020	0.000030	-49.929407	-83.753195	43.210679
64952	9.861354	-0.768130	0.642185	0.058440	0.051113	0.099058	1.000000	0.000027	0.000042	0.000050	-49.956584	-83.751502	43.231189
64953	9.860840	-0.775591	0.702326	-0.001512	0.051596	0.103376	1.000000	0.000040	0.000025	0.000029	-49.964490	-83.748159	43.242730
64954	9.869575	-0.787699	0.671570	0.027626	0.036436	0.110916	1.000000	0.000035	0.000027	0.000038	-49.984727	-83.750976	43.270093
64955	9.840173	-0.763391	0.654723	0.045097	0.056980	0.078478	1.000000	0.000035	0.000027	0.000038	-49.998154	-83.746754	43.286584
64956	9.852166	-0.759310	0.675864	0.024418	0.064702	0.091541	1.000000	0.000037	0.000014	0.000034	-50.055156	-83.751289	43.340941
64957	9.872963	-0.766871	0.665819	0.035519	0.058349	0.112137	1.000000	0.000027	0.000042	0.000050	-50.066243	-83.744907	43.354152
64958	9.839888	-0.765582	0.656448	0.041447	0.056269	0.078498	1.000000	0.000045	0.000020	0.000030	-50.109378	-83.749407	43.399738
64959	9.897342	-0.752125	0.649021	0.055207	0.073695	0.133962	1.000000	0.000024	0.000035	0.000045	-50.123721	-83.744081	43.415831
64960	9.848104	-0.785188	0.685585	0.010197	0.041734	0.090335	1.000000	0.000034	0.000006	0.000029	-50.175059	-83.750332	43.471243
64961	9.893518	-0.776320	0.657204	0.042925	0.051090	0.132756	1.000000	0.000045	0.000020	0.000030	-50.190141	-83.747426	43.490534
64962	9.867382	-0.735749	0.692290	0.010347	0.093496	0.105829	1.000000	0.000029	0.000029	0.000047	-50.206188	-83.747838	43.510995
64963	9.863601	-0.759394	0.700351	-0.000250	0.071434	0.104605	1.000000	0.000035	0.000031	0.000027	-50.210566	-83.744423	43.518299
64964	9.860262	-0.776339	0.649043	0.047435	0.048408	0.099130	1.000000	0.000024	0.000035	0.000045	-50.255249	-83.747063	43.565145
64965	9.863412	-0.760616	0.701690	-0.002346	0.071035	0.104608	1.000000	0.000059	0.000024	0.000018	-50.257627	-83.745044	43.573232
64966	9.842898	-0.747577	0.653393	0.045932	0.076729	0.079756	1.000000	0.000031	0.000020	0.000032	-50.247282	-83.741739	43.556567
64967	9.872079	-0.773313	0.671451	0.027743	0.056320	0.112174	1.000000	0.000024	0.000035	0.000045	-50.262441	-83.736471	43.573392
64968	9.875678	-0.751074	0.664608	0.036850	0.078008	0.113409	1.000000	0.000031	0.000020	0.000032	-50.289674	-83.738700	43.601097
64969	9.883972	-0.769883	0.693159	0.007239	0.064028	0.125217	1.000000	0.000031	0.000020	0.000032	-50.308075	-83.735647	43.622027
64970	9.850930	-0.768423	0.683539	0.012944	0.061690	0.091582	1.000000	0.000031	0.000020	0.000032	-50.352696	-83.742054	43.675559
64971	9.875445	-0.752955	0.665935	0.034210	0.077463	0.113422	1.000000	0.000026	0.000022	0.000041	-50.376737	-83.738141	43.701561
64972	9.838679	-0.774687	0.663843	0.030204	0.053184	0.078556	1.000000	0.000029	0.000029	0.000047	-50.411937	-83.739674	43.737864
64973	9.883641	-0.772557	0.694902	0.003208	0.062968	0.125226	1.000000	0.000036	-0.000003	0.000015	-50.437003	-83.739933	43.766017
64974	9.842252	-0.752831	0.657081	0.038386	0.074991	0.079802	1.000000	0.000024	0.000035	0.000045	-50.483090	-83.742049	43.810720
64975	9.867686	-0.801633	0.682747	0.009885	0.032455	0.110963	1.000000	0.000038	0.000035	0.000043	-50.496995	-83.737091	43.827804
64976	9.871310	-0.779337	0.675775	0.019174	0.053947	0.112207	1.000000	0.000034	0.000006	0.000029	-50.518122	-83.740606	43.853516
64977	9.883297	-0.775197	0.696849	-0.000240	0.062092	0.125232	1.000000	0.000035	0.000027	0.000038	-50.534974	-83.736684	43.873217
64978	9.871140	-0.780645	0.676754	0.019454	0.053136	0.112211	1.000000	0.000035	0.000027	0.000038	-50.474257	-83.731999	43.820613
64979	9.853872	-0.751528	0.680392	0.017911	0.081766	0.092843	1.000000	0.000037	0.000014	0.000034	-50.498736	-83.729316	43.848298
64980	9.858903	-0.786771	0.657066	0.037669	0.044630	0.099190	1.000000	0.000038	0.000035	0.000043	-50.490303	-83.726669	43.841406
64981	9.895478	-0.766641	0.660369	0.039907	0.068461	0.134072	1.000000	0.000035	0.000027	0.000038	-50.506429	-83.722693	43.860419
64982	9.849871	-0.776580	0.689551	0.006906	0.059098	0.091603	1.000000	0.000031	0.000020	0.000032	-50.503785	-83.718707	43.847672
64983	9.874437	-0.760928	0.671792	0.028163	0.074860	0.113461	1.000000	0.000039	0.000005	0.000020	-50.525784	-83.717898	43.873032
64984	9.846009	-0.800548	0.697795	-0.004748	0.037049	0.090358	1.000000	0.000032	0.000041	0.000041	-50.554541	-83.715613	43.888283
64985	9.841299	-0.760135	0.662933	0.034385	0.073292	0.079829	1.000000	0.000035	0.000027	0.000038	-50.570955	-83.711577	43.907415
64986	9.874161	-0.762955	0.673545	0.025784	0.074582	0.113470	1.000000	0.000026	0.000022	0.000041	-50.601125	-83.711846	43.934615
64987	9.849432	-0.779743	0.692245	0.003751	0.058992	0.091606	1.000000	0.000038	0.000039	0.000032	-50.604313	-83.707464	43.940770
64988	9.865129	-0.752625	0.706117	-0.005696	0.088867	0.105875	1.000000	0.000031	0.000020	0.000032	-50.619986	-83.707425	43.952421
64989	9.861818	-0.769759	0.654793	0.043302	0.066341	0.100458	1.000000	0.000027	0.000042	0.000050	-50.633561	-83.701187	43.967750
64990	9.857971	-0.793423	0.663023	0.032589	0.043561	0.099213	1.000000	0.000035	0.000031	0.000027	-50.613084	-83.701059	43.952890
64991	9.840716	-0.764324	0.666758	0.031085	0.072210	0.079848	1.000000	0.000034	0.000023	0.000049	-50.640180	-83.696354	43.982707
64992	9.865271	-0.749002	0.649125	0.050986	0.087253	0.101733	1.000000	0.000037	0.000014	0.000034	-50.687194	-83.702086	44.037665
64993	9.861448	-0.772624	0.656990	0.040322	0.065220	0.100478	1.000000	0.000040	0.000021	0.000040	-50.709481	-83.698355	44.063278
64994	9.869658	-0.791520	0.685681	0.009461	0.050190	0.112241	1.000000	0.000035	0.000027	0.000038	-50.728517	-83.703638	44.097959
64995	9.865019	-0.751002	0.650646	0.048578	0.086429	0.101752	1.000000	0.000040	0.000026	0.000029	-50.740444	-83.700637	44.113224
64996	9.849151	-0.779195	0.637894	0.057399	0.056077	0.087484	1.000000	0.000023	0.000018	0.000025	-50.732466	-83.697405	44.093233
64997	9.856016	-0.740391	0.683016	0.017864	0.100891	0.094141	1.000000	0.000038	0.000039	0.000032	-50.736027	-83.693086	44.099764
64998	9.869322	-0.793697	0.688001	0.007861	0.049638	0.112245	1.000000	0.000045	0.000020	0.000031	-50.744452	-83.694741	44.112104
64999	9.873000	-0.771328	0.680985	0.017716	0.071836	0.113508	1.000000	0.000031	0.000020	0.000032	-50.764344	-83.691798	44.134345
65000	9.893816	-0.778887	0.670855	0.029416	0.064908	0.134133	1.000000	0.000026	0.000022	0.000041	-50.740957	-83.687047	44.108999
65001	9.851920	-0.765885	0.692550	0.006290	0.077899	0.092888	1.000000	0.000035	0.000027	0.000038	-50.757631	-83.683046	44.128349
65002	9.851824	-0.766580	0.693142	0.004266	0.077614	0.092891	1.000000	0.000035	0.000027	0.000038	-50.820677	-83.687342	44.189301
65003	9.872629	-0.774152	0.683155	0.015210	0.071244	0.113516	1.000000	0.000035	0.000027	0.000038	-50.837876	-83.683385	44.209140
65004	9.864261	-0.756698	0.655525	0.043706	0.085055	0.101787	1.000000	0.000040	0.000021	0.000040	-50.863699	-83.682468	44.230586
65005	9.872421	-0.775733	0.684369	0.014002	0.071121	0.113519	1.000000	0.000013	0.000043	0.000052	-50.880403	-83.676133	44.247414
65006	9.851430	-0.769439	0.695577	0.000805	0.077676	0.092892	1.000000	0.000056	0.000016	0.000013	-50.941963	-83.681193	44.299691
65007	9.856427	-0.804752	0.672271	0.020463	0.041107	0.099256	1.000000	0.000024	0.000027	0.000067	-50.980433	-83.674712	44.339544
65008	9.875923	-0.754875	0.678487	0.019537	0.093006	0.114800	1.000000	0.000042	0.000016	0.000014	-51.047552	-83.684170	44.410197
65009	9.863809	-0.760216	0.658238	0.038114	0.085005	0.101810	1.000000	0.000034	0.000023	0.000049	-51.076500	-83.679610	44.441693
65010	9.875742	-0.756319	0.679509	0.017811	0.092679	0.114806	1.000000	0.000043	0.000029	0.000045	-51.109382	-83.680547	44.475159
65011	9.859825	-0.784840	0.666794	0.026101	0.062571	0.100543	1.000000	0.000031	0.000016	0.000043	-51.141478	-83.677022	44.509449
65012	9.851473	-0.767504	0.639110	0.054604	0.076216	0.088841	1.000000	0.000043	0.000029	0.000045	-51.158844	-83.675715	44.526189
65013	9.850772	-0.774622	0.699126	-0.005509	0.076870	0.092896	1.000000	0.000018	0.000024	0.000023	-51.172749	-83.673378	44.540577
65014	9.892488	-0.789158	0.678392	0.016346	0.063574	0.134171	1.000000	0.000031	0.000012	0.000054	-51.211460	-83.672512	44.577570
65015	9.859425	-0.788041	0.668922	0.023586	0.062039	0.100553	1.000000	0.000044	0.000050	0.000054	-51.221438	-83.665600	44.590993
65016	9.854256	-0.754092	0.693346	0.002660	0.098084	0.094184	1.000000	0.000034	0.000011	0.000018	-51.228899	-83.669314	44.604105
65017	9.871298	-0.784322	0.690747	0.003246	0.069608	0.113539	1.000000	0.000035	0.000032	0.000027	-51.237365	-83.666143	44.614955
65018	9.854095	-0.755169	0.694459	0.001012	0.097968	0.094186	1.000000	0.000029	0.000029	0.000047	-51.277580	-83.665712	44.650206
65019	9.859063	-0.790543	0.671314	0.020611	0.061392	0.100563	1.000000	0.000048	0.000027	0.000036	-51.294108	-83.662035	44.670707
65020	9.850103	-0.779415	0.703211	-0.011029	0.075624	0.092901	1.000000	0.000035	0.000032	0.000027	-51.317469	-83.664127	44.692998
65021	9.870895	-0.787134	0.693312	-0.000178	0.069253	0.113542	1.000000	0.000010	0.000031	0.000058	-51.349336	-83.658264	44.724485
65022	9.858755	-0.792711	0.673265	0.017615	0.060802	0.100573	1.000000	0.000035	0.000032	0.000027	-51.370376	-83.660113	44.744455
65023	9.874515	-0.765587	0.686917	0.008408	0.091111	0.114833	1.000000	0.000042	0.000008	0.000036	-51.403672	-83.657812	44.781054
65024	9.850375	-0.775804	0.645977	0.045676	0.073992	0.088903	1.000000	0.000029	0.000033	0.000036	-51.391203	-83.659158	44.781318
65025	9.862314	-0.771619	0.667314	0.026171	0.082191	0.101873	1.000000	0.000040	0.000026	0.000029	-51.405661	-83.656299	44.798766
65026	9.841335	-0.765245	0.678360	0.014469	0.088311	0.081232	1.000000	0.000031	0.000020	0.000032	-51.408577	-83.655044	44.799044
65027	9.895078	-0.774979	0.678496	0.017584	0.083563	0.135489	1.000000	0.000035	0.000027	0.000038	-51.427958	-83.651237	44.820802
65028	9.862054	-0.773550	0.668920	0.024097	0.081653	0.101882	1.000000	0.000021	0.000028	0.000040	-51.463771	-83.651871	44.850616
65029	9.873978	-0.769440	0.690326	0.004587	0.089862	0.114847	1.000000	0.000038	0.000039	0.000032	-51.470038	-83.647749	44.859513
65030	9.882786	-0.781622	0.659576	0.034054	0.074649	0.122537	1.000000	0.000039	0.000005	0.000020	-51.483406	-83.651729	44.879103
65031	9.840905	-0.768341	0.681090	0.010972	0.087706	0.081242	1.000000	0.000024	0.000035	0.000045	-51.502579	-83.646764	44.899398
65032	9.873716	-0.771344	0.691943	0.001808	0.088754	0.114858	1.000000	0.000043	0.000029	0.000045	-51.534531	-83.648883	44.937126
65033	9.865413	-0.754044	0.664365	0.030655	0.102843	0.103200	1.000000	0.000043	0.000029	0.000045	-51.556703	-83.644362	44.962647
65034	9.877343	-0.749979	0.685609	0.010632	0.110628	0.116163	1.000000	0.000031	0.000020	0.000032	-51.583029	-83.645425	44.985532
65035	9.889969	-0.739435	0.647430	0.050773	0.118232	0.125162	1.000000	0.000029	0.000033	0.000036	-51.597555	-83.641431	45.001752
65036	9.878362	-0.808970	0.670634	0.019066	0.051311	0.121256	1.000000	0.000015	0.000029	0.000049	-51.609605	-83.640855	45.016904
65037	9.889077	-0.747294	0.708102	-0.010197	0.118303	0.129124	1.000000	0.000031	0.000024	0.000022	-51.622208	-83.638822	45.031463
65038	9.914935	-0.789490	0.674502	0.020247	0.074380	0.156176	1.000000	0.000038	0.000035	0.000043	-51.621691	-83.639073	45.039448
65039	9.897757	-0.760455	0.678247	0.018761	0.103057	0.136832	1.000000	0.000024	0.000035	0.000045	-51.641096	-83.634169	45.059991
65040	9.893808	-0.784141	0.686433	0.006688	0.080947	0.135524	1.000000	0.000034	0.000027	0.000038	-51.705319	-83.636193	45.112032
65041	9.881706	-0.789576	0.666245	0.025226	0.072934	0.122577	1.000000	0.000031	0.000020	0.000033	-51.728651	-83.633505	45.137339
65042	9.848691	-0.788081	0.656706	0.034066	0.070735	0.088973	1.000000	0.000032	0.000041	0.000041	-51.656974	-83.624792	45.066410
65043	9.861303	-0.777751	0.618890	0.074206	0.078322	0.097993	1.000000	0.000035	0.000048	0.000047	-51.665360	-83.618765	45.077141
65044	9.807388	-0.769225	0.619973	0.069817	0.082566	0.043744	1.000000	0.000031	0.000024	0.000022	-51.665152	-83.621245	45.081935
65045	9.815467	-0.787884	0.648766	0.039979	0.068681	0.055379	1.000000	0.000034	0.000027	0.000038	-51.684945	-83.617504	45.104051
65046	9.827354	-0.783948	0.670299	0.020005	0.076313	0.068331	1.000000	0.000044	0.000050	0.000054	-51.690854	-83.614916	45.112598
65047	9.815227	-0.789476	0.650451	0.038556	0.068295	0.055387	1.000000	0.000035	0.000032	0.000027	-51.700441	-83.611877	45.124446
65048	9.831015	-0.762329	0.664188	0.028129	0.098424	0.069654	1.000000	0.000031	0.000020	0.000033	-51.762421	-83.614847	45.178510
65049	9.803062	-0.795362	0.630802	0.055406	0.060197	0.042456	1.000000	0.000040	0.000026	0.000029	-51.777753	-83.612070	45.196698
65050	9.851766	-0.770400	0.654700	0.037844	0.091505	0.090324	1.000000	0.000045	0.000020	0.000031	-51.796042	-83.614353	45.220339
65051	9.859821	-0.789132	0.683475	0.007980	0.077632	0.101941	1.000000	0.000034	0.000027	0.000038	-51.816313	-83.610650	45.242874
65052	9.895731	-0.775525	0.746230	-0.049036	0.101921	0.140754	1.000000	0.000043	0.000029	0.000045	-51.810106	-83.604419	45.225917
65053	9.895645	-0.776161	0.746705	-0.049537	0.102025	0.140750	1.000000	0.000042	0.000012	0.000025	-51.833793	-83.602877	45.252714
65054	9.886661	-0.765054	0.778326	-0.080308	0.116139	0.133026	1.000000	0.000034	0.000023	0.000049	-51.840367	-83.600813	45.260998
65055	9.878438	-0.747679	0.750558	-0.051441	0.130205	0.121410	1.000000	0.000045	0.000020	0.000031	-51.860939	-83.598251	45.285015
65056	9.899242	-0.755331	0.740722	-0.041298	0.123186	0.142075	1.000000	0.000032	0.000041	0.000041	-51.872746	-83.598301	45.299769
65057	9.862347	-0.776752	0.738774	-0.044333	0.099581	0.107148	1.000000	0.000034	0.000027	0.000038	-51.892891	-83.594573	45.322119
65058	9.833231	-0.752283	0.721577	-0.027014	0.119659	0.074880	1.000000	0.000026	0.000026	0.000031	-51.903978	-83.594852	45.331226
65059	9.842055	-0.764663	0.690868	0.002787	0.105131	0.082614	1.000000	0.000031	0.000020	0.000033	-51.927213	-83.592140	45.356311
65060	9.821073	-0.758254	0.701796	-0.008488	0.111538	0.061949	1.000000	0.000031	0.000020	0.000033	-51.926318	-83.588386	45.343415
65061	9.842701	-0.759519	0.632209	0.061938	0.104445	0.078753	1.000000	0.000028	0.000012	0.000027	-51.952534	-83.586661	45.371093
65062	9.829824	-0.771253	0.671477	0.020978	0.096623	0.069690	1.000000	0.000038	0.000035	0.000043	-51.946256	-83.583243	45.361540
65063	9.829709	-0.772079	0.672215	0.020481	0.096728	0.069690	1.000000	0.000024	0.000035	0.000045	-51.965778	-83.578296	45.381945
65064	9.846310	-0.738874	0.626386	0.068737	0.125610	0.080119	1.000000	0.000042	0.000008	0.000036	-52.053922	-83.588067	45.480608
65065	9.854344	-0.757638	0.654926	0.038844	0.111765	0.091707	1.000000	0.000023	0.000014	0.000036	-52.085358	-83.585449	45.512906
65066	9.858166	-0.735395	0.647747	0.048066	0.133543	0.093052	1.000000	0.000031	0.000020	0.000033	-52.117124	-83.586892	45.541148
65067	9.871201	-0.788804	0.652773	0.038119	0.082977	0.111051	1.000000	0.000037	0.000014	0.000035	-52.146200	-83.584447	45.572633
65068	9.854117	-0.759622	0.656039	0.035889	0.110753	0.091730	1.000000	0.000031	0.000016	0.000044	-52.176034	-83.588119	45.613155
65069	9.862158	-0.778237	0.684495	0.005982	0.096908	0.103305	1.000000	0.000036	-0.000003	0.000015	-52.206570	-83.588670	45.646044
65070	9.898895	-0.758163	0.687430	0.008453	0.120173	0.138242	1.000000	0.000034	0.000023	0.000049	-52.200537	-83.584578	45.637607
65071	9.886774	-0.764012	0.667376	0.026989	0.112141	0.125326	1.000000	0.000027	0.000039	0.000061	-52.227527	-83.577989	45.665864
65072	9.894759	-0.782905	0.696214	-0.001664	0.097485	0.136906	1.000000	0.000042	0.000012	0.000026	-52.175661	-83.574759	45.618018
65073	9.894691	-0.783429	0.696590	-0.002174	0.097586	0.136905	1.000000	0.000031	0.000020	0.000033	-52.198860	-83.572055	45.643003
65074	9.882610	-0.788883	0.676396	0.015701	0.089032	0.123995	1.000000	0.000034	0.000028	0.000038	-52.225184	-83.573204	45.668768
65075	9.877517	-0.754865	0.700609	-0.004758	0.125864	0.117577	1.000000	0.000034	0.000028	0.000038	-52.245422	-83.569497	45.691113
65076	9.874317	-0.772426	0.649419	0.044727	0.102678	0.112431	1.000000	0.000041	0.000039	0.000060	-52.228194	-83.562451	45.668171
65077	9.866160	-0.755007	0.621649	0.073615	0.116712	0.100867	1.000000	0.000025	0.000009	0.000011	-52.247397	-83.562470	45.688396
65078	9.882225	-0.791615	0.678823	0.014802	0.088252	0.124003	1.000000	0.000027	0.000047	0.000039	-52.210566	-83.558129	45.652165
65079	9.816339	-0.787798	0.659016	0.029957	0.085118	0.056827	1.000000	0.000031	0.000020	0.000033	-52.233522	-83.555402	45.676869
65080	9.844992	-0.749769	0.634108	0.061154	0.121805	0.080216	1.000000	0.000027	0.000047	0.000039	-52.209013	-83.555294	45.663402
65081	9.852947	-0.768602	0.663120	0.031252	0.107965	0.091776	1.000000	0.000026	0.000022	0.000042	-52.236612	-83.551639	45.692192
65082	9.840873	-0.774085	0.642911	0.049269	0.099293	0.078877	1.000000	0.000026	0.000026	0.000031	-52.251385	-83.553483	45.707142
65083	9.861687	-0.781763	0.633084	0.059981	0.092863	0.099557	1.000000	0.000029	0.000033	0.000036	-52.265867	-83.549532	45.723095
65084	9.873577	-0.777662	0.654401	0.040312	0.100448	0.112473	1.000000	0.000040	0.000022	0.000040	-52.271570	-83.549157	45.730497
65085	9.848640	-0.794161	0.673086	0.018243	0.084999	0.090438	1.000000	0.000024	0.000039	0.000034	-52.280666	-83.544970	45.740416
65086	9.869474	-0.801774	0.663003	0.029245	0.078145	0.111121	1.000000	0.000036	-0.000007	0.000026	-52.294889	-83.545337	45.749654
65087	9.856536	-0.813347	0.702212	-0.011882	0.070845	0.101988	1.000000	0.000041	0.000047	0.000038	-52.298337	-83.540287	45.755809
65088	9.860354	-0.791223	0.695497	-0.002774	0.092592	0.103348	1.000000	0.000038	0.000035	0.000043	-52.327400	-83.540299	45.782254
65089	9.872228	-0.787139	0.716903	-0.022343	0.100835	0.116248	1.000000	0.000048	0.000027	0.000036	-52.344756	-83.536747	45.803244
65091	9.857617	-0.775588	0.708829	-0.028147	0.220740	10.012973	1.000000	0.000088	0.000049	0.000076	-52.348212	-83.532610	45.818613
65092	9.896772	-0.773633	0.700645	-0.002130	0.115773	0.138297	1.000000	0.000046	0.000033	0.000062	-52.377177	-83.526399	45.851018
65093	9.854840	-0.760368	0.722287	-0.023922	0.128362	0.096938	1.000000	0.000024	0.000039	0.000034	-52.324313	-83.520080	45.794378
65094	9.867650	-0.749866	0.684024	0.016195	0.135843	0.106083	1.000000	0.000053	0.000005	0.000019	-52.348104	-83.519717	45.822361
65095	9.867591	-0.750257	0.684447	0.016121	0.135589	0.106086	1.000000	0.000035	0.000032	0.000027	-52.330148	-83.516465	45.797824
65098	9.845487	-0.750065	0.678809	0.062580	0.403833	19.876467	1.000000	0.000089	0.000083	0.000116	-52.346892	-83.501777	45.822923
65099	9.855249	-0.757804	0.666046	0.034206	0.127359	0.093191	1.000000	0.000018	0.000020	0.000034	-52.362278	-83.499953	45.828166
65100	9.855157	-0.758591	0.666516	0.033708	0.127457	0.093191	1.000000	0.000034	0.000024	0.000049	-52.391630	-83.495470	45.859546
65101	9.851121	-0.782001	0.674487	0.022737	0.104484	0.091837	1.000000	0.000025	0.000009	0.000011	-52.377550	-83.500041	45.853971
65102	9.863031	-0.777461	0.695777	0.003179	0.112733	0.104732	1.000000	0.000038	0.000043	0.000021	-52.373742	-83.496685	45.852399
65103	9.850993	-0.782663	0.675576	0.021547	0.104354	0.091841	1.000000	0.000025	0.000005	0.000022	-52.398856	-83.498142	45.867536
65104	9.850918	-0.783322	0.675903	0.021047	0.104452	0.091841	1.000000	0.000034	0.000024	0.000049	-52.428154	-83.493662	45.898846
65105	9.867754	-0.814043	0.673573	0.021031	0.075243	0.111164	1.000000	0.000031	0.000020	0.000033	-52.438157	-83.495185	45.909345
65106	9.874678	-0.775112	0.718303	-0.018411	0.120264	0.117631	1.000000	0.000040	0.000022	0.000040	-52.462773	-83.491659	45.936562
65107	9.871549	-0.792580	0.666978	0.030783	0.096779	0.112543	1.000000	0.000034	0.000028	0.000038	-52.442610	-83.489319	45.916055
65108	9.887408	-0.765660	0.680528	0.021597	0.127093	0.126808	1.000000	0.000050	0.000010	0.000044	-52.477667	-83.486250	45.954996
65109	9.887340	-0.766286	0.680818	0.020829	0.126658	0.126816	1.000000	0.000042	0.000012	0.000026	-52.491982	-83.487979	45.968605
65110	9.875291	-0.771795	0.660505	0.039390	0.118592	0.113928	1.000000	0.000034	0.000024	0.000049	-52.521099	-83.483496	45.999706
65111	9.846313	-0.747355	0.643170	0.056790	0.138611	0.081738	1.000000	0.000035	0.000032	0.000027	-52.525404	-83.484077	46.001916
65112	9.879086	-0.750302	0.654200	0.048408	0.140316	0.115316	1.000000	0.000038	0.000035	0.000043	-52.541498	-83.479297	46.020259
65113	9.854086	-0.766767	0.672959	0.025726	0.124265	0.093256	1.000000	0.000029	0.000034	0.000036	-52.555548	-83.480508	46.035070
65114	9.873942	-0.716953	0.679038	0.026920	0.176635	0.108902	1.000000	0.000040	0.000022	0.000040	-52.580106	-83.476986	46.062174
65115	9.874799	-0.775346	0.663686	0.035688	0.117159	0.113959	1.000000	0.000021	0.000028	0.000040	-52.583260	-83.476981	46.065014
65116	9.853789	-0.768997	0.674757	0.024011	0.123811	0.093266	1.000000	0.000037	0.000035	0.000043	-52.599371	-83.472218	46.083360
65117	9.866660	-0.758606	0.636484	0.063213	0.130464	0.102481	1.000000	0.000025	0.000009	0.000011	-52.624015	-83.479096	46.111785
65118	9.841683	-0.774838	0.654988	0.041154	0.115062	0.080400	1.000000	0.000024	0.000035	0.000045	-52.642664	-83.474189	46.131097
65119	9.837584	-0.798386	0.663214	0.029902	0.092014	0.079025	1.000000	0.000045	0.000020	0.000031	-52.636874	-83.477617	46.136522
65120	9.874363	-0.778493	0.666493	0.031868	0.115760	0.113988	1.000000	0.000015	0.000034	0.000038	-52.653266	-83.473511	46.152626
65121	9.882208	-0.797192	0.695607	0.000904	0.101297	0.125479	1.000000	0.000024	0.000039	0.000034	-52.675711	-83.476148	46.172276
65122	9.862199	-0.784679	0.647224	0.048909	0.107110	0.101128	1.000000	0.000034	0.000028	0.000038	-52.695108	-83.472460	46.193593
65123	9.858091	-0.808226	0.655456	0.037339	0.084905	0.099740	1.000000	0.000034	0.000028	0.000038	-52.731599	-83.472495	46.222151
65124	9.853062	-0.774132	0.679491	0.016979	0.121781	0.093306	1.000000	0.000040	0.000022	0.000040	-52.756439	-83.469040	46.249507
65125	9.860906	-0.792862	0.708403	-0.012605	0.107133	0.104787	1.000000	0.000034	0.000028	0.000038	-52.731160	-83.467360	46.226383
65126	9.852882	-0.775480	0.680566	0.016338	0.121103	0.093315	1.000000	0.000045	0.000020	0.000031	-52.751221	-83.464849	46.249560
65127	9.852791	-0.776190	0.681065	0.015265	0.120203	0.093328	1.000000	0.000048	0.000023	0.000047	-52.763129	-83.466931	46.271993
65128	9.864627	-0.772331	0.702393	-0.004327	0.128457	0.106193	1.000000	0.000024	0.000031	0.000056	-52.791648	-83.461359	46.301223
65129	9.864514	-0.773194	0.703029	-0.005884	0.127802	0.106201	1.000000	0.000048	0.000027	0.000036	-52.820625	-83.465106	46.335118
65130	9.856490	-0.755813	0.675377	0.023056	0.141770	0.094742	1.000000	0.000038	0.000039	0.000033	-52.827052	-83.461165	46.343727
65131	9.868345	-0.751643	0.696771	0.003624	0.149404	0.107613	1.000000	0.000040	0.000022	0.000040	-52.824510	-83.459720	46.337513
65132	9.856317	-0.757080	0.676482	0.022178	0.141319	0.094751	1.000000	0.000023	0.000018	0.000025	-52.844875	-83.457867	46.358444
65133	9.856238	-0.757667	0.676980	0.020762	0.141042	0.094758	1.000000	0.000034	0.000028	0.000038	-52.885291	-83.459357	46.394033
65134	9.852097	-0.781254	0.685304	0.009840	0.119083	0.093348	1.000000	0.000037	0.000035	0.000044	-52.901675	-83.454700	46.412597
65135	9.856073	-0.758842	0.678071	0.019534	0.140448	0.094769	1.000000	0.000036	0.000001	0.000004	-52.901230	-83.459921	46.413423
65136	9.872855	-0.789419	0.675904	0.019744	0.111910	0.114064	1.000000	0.000016	0.000051	0.000058	-52.916111	-83.452913	46.428007
65137	9.884692	-0.785392	0.697300	-0.000718	0.119713	0.126924	1.000000	0.000028	0.000013	0.000027	-52.957987	-83.456677	46.464347
65138	9.843860	-0.765662	0.658991	0.036177	0.132066	0.081924	1.000000	0.000034	0.000028	0.000038	-52.977624	-83.453052	46.485797
65140	9.870072	-0.774419	0.689560	0.012990	0.258950	10.034402	1.000000	0.000066	0.000048	0.000071	-53.008272	-83.451257	46.522435
65141	9.855522	-0.762999	0.681405	0.015137	0.139783	0.094786	1.000000	0.000037	0.000031	0.000055	-53.034665	-83.445908	46.551011
65142	9.846478	-0.751684	0.712908	-0.015104	0.153678	0.086936	1.000000	0.000025	0.000005	0.000022	-53.011864	-83.447299	46.532401
65143	9.876285	-0.771378	0.671747	0.025694	0.132416	0.115509	1.000000	0.000045	0.000020	0.000031	-53.032142	-83.444864	46.555726
65144	9.851234	-0.787748	0.690262	0.004247	0.116511	0.093383	1.000000	0.000034	0.000024	0.000049	-53.020925	-83.440349	46.539537
65145	9.859238	-0.743009	0.675509	0.024530	0.160673	0.096225	1.000000	0.000029	0.000030	0.000047	-53.044821	-83.435767	46.564622
65146	9.859144	-0.743715	0.676107	0.023948	0.159835	0.096240	1.000000	0.000040	0.000026	0.000029	-53.029328	-83.437153	46.553569
65147	9.875911	-0.774315	0.673870	0.024132	0.131287	0.115528	1.000000	0.000037	0.000014	0.000035	-53.057060	-83.434769	46.583399
65148	9.838100	-0.737620	0.687288	0.011124	0.165865	0.075540	1.000000	0.000037	0.000018	0.000024	-53.074001	-83.438750	46.601838
65149	9.879830	-0.752590	0.667088	0.032823	0.152762	0.116967	1.000000	0.000034	0.000028	0.000038	-53.093333	-83.435140	46.622951
65150	9.858808	-0.746302	0.678153	0.020909	0.158691	0.096265	1.000000	0.000040	0.000039	0.000060	-53.100326	-83.432973	46.631752
65151	9.854648	-0.769857	0.686315	0.009966	0.136732	0.094835	1.000000	0.000039	0.000005	0.000020	-53.126759	-83.432574	46.660525
65152	9.871388	-0.800524	0.684218	0.009875	0.107371	0.114129	1.000000	0.000021	0.000049	0.000049	-53.118319	-83.430990	46.650689
65153	9.875351	-0.778476	0.677268	0.019751	0.129483	0.115561	1.000000	0.000031	0.000020	0.000033	-53.140770	-83.428408	46.674575
65154	9.875262	-0.779159	0.677784	0.018263	0.128734	0.115574	1.000000	0.000021	0.000028	0.000040	-53.168781	-83.431897	46.704355
65155	9.883028	-0.797811	0.706716	-0.011777	0.114957	0.126973	1.000000	0.000031	0.000020	0.000033	-53.191328	-83.429336	46.728334
65156	9.875067	-0.780642	0.678915	0.016623	0.128081	0.115585	1.000000	0.000032	0.000037	0.000053	-53.205012	-83.429417	46.741840
65157	9.849964	-0.797082	0.697628	-0.005434	0.112721	0.093426	1.000000	0.000034	0.000028	0.000038	-53.224389	-83.425856	46.762981
65158	9.874880	-0.781965	0.680105	0.015037	0.127375	0.115597	1.000000	0.000042	0.000016	0.000015	-53.226683	-83.430787	46.770218
65159	9.862851	-0.787520	0.659966	0.033583	0.119263	0.102766	1.000000	0.000027	0.000039	0.000062	-53.251846	-83.424317	46.796290
65160	9.865707	-0.771413	0.712345	-0.016425	0.141358	0.107718	1.000000	0.000042	0.000012	0.000026	-53.249054	-83.427664	46.799543
65161	9.862673	-0.788935	0.660930	0.032308	0.118459	0.102780	1.000000	0.000040	0.000022	0.000040	-53.273656	-83.424349	46.826559
65162	9.869630	-0.749920	0.705606	-0.007511	0.162493	0.109177	1.000000	0.000034	0.000028	0.000038	-53.271650	-83.426771	46.832318
65163	9.866576	-0.767545	0.654446	0.041222	0.139593	0.104245	1.000000	0.000029	0.000034	0.000036	-53.285626	-83.423028	46.847437
65164	9.836599	-0.748911	0.696501	-0.001341	0.160426	0.075635	1.000000	0.000034	0.000028	0.000038	-53.311332	-83.425172	46.870319
65165	9.865258	-0.774742	0.714942	-0.020317	0.140037	0.107729	1.000000	0.000039	0.000001	0.000031	-53.347689	-83.424133	46.909056
65166	9.824529	-0.754865	0.676586	0.017202	0.151320	0.062826	1.000000	0.000038	0.000043	0.000022	-53.287007	-83.423356	46.855603
65167	9.890105	-0.760140	0.698100	0.000633	0.154528	0.129921	1.000000	0.000031	0.000020	0.000033	-53.309363	-83.420861	46.879405
65168	9.857191	-0.758419	0.688150	0.007663	0.152073	0.096388	1.000000	0.000040	0.000022	0.000040	-53.316854	-83.423277	46.893129
65169	9.857097	-0.759142	0.688696	0.007115	0.152135	0.096387	1.000000	0.000034	0.000028	0.000038	-53.335979	-83.419782	46.914041
65170	9.861877	-0.794688	0.665907	0.025958	0.114537	0.102845	1.000000	0.000026	0.000026	0.000031	-53.338034	-83.422078	46.916062
65171	9.836015	-0.753209	0.700106	-0.005428	0.158038	0.075672	1.000000	0.000026	0.000022	0.000042	-53.364821	-83.418651	46.943701
65172	9.865807	-0.773197	0.659358	0.034934	0.135817	0.104322	1.000000	0.000029	0.000038	0.000025	-53.351211	-83.420695	46.934033
65173	9.856757	-0.761599	0.690851	0.004208	0.150672	0.096411	1.000000	0.000039	0.000001	0.000031	-53.387320	-83.419690	46.972537
65174	9.861556	-0.797124	0.667746	0.024338	0.113073	0.102866	1.000000	0.000017	0.000020	0.000035	-53.349619	-83.416934	46.929675
65175	9.860713	-0.740146	0.683991	0.014463	0.171989	0.097889	1.000000	0.000037	0.000035	0.000044	-53.365267	-83.412435	46.947434
65176	9.849437	-0.803423	0.648198	0.041639	0.104331	0.090062	1.000000	0.000031	0.000020	0.000033	-53.390713	-83.415612	46.969735
65177	9.881438	-0.748793	0.674748	0.023738	0.164811	0.118630	1.000000	0.000040	0.000022	0.000040	-53.414927	-83.412359	46.996350
65178	9.856326	-0.764994	0.693233	0.001505	0.148623	0.096443	1.000000	0.000031	0.000020	0.000033	-53.415467	-83.414241	46.995700
65179	9.881288	-0.750025	0.675587	0.022447	0.164078	0.118646	1.000000	0.000028	0.000013	0.000028	-53.440794	-83.412803	47.022110
65180	9.832338	-0.775879	0.652603	0.037875	0.131431	0.070836	1.000000	0.000015	0.000034	0.000038	-53.452106	-83.415808	47.032879
65181	9.888898	-0.769354	0.705066	-0.008929	0.149417	0.129995	1.000000	0.000031	0.000016	0.000044	-53.483980	-83.412637	47.066218
65182	9.848214	-0.749749	0.666465	0.027284	0.160880	0.085140	1.000000	0.000042	0.000008	0.000037	-53.516971	-83.417527	47.102712
65183	9.889944	-0.764889	0.646314	0.048839	0.147671	0.126607	1.000000	0.000034	0.000032	0.000027	-53.526207	-83.414839	47.113654
65184	9.855829	-0.768861	0.696019	-0.003488	0.146258	0.096478	1.000000	0.000034	0.000028	0.000038	-53.519206	-83.415651	47.109375
65185	9.880783	-0.754011	0.678528	0.017439	0.161699	0.118695	1.000000	0.000031	0.000020	0.000033	-53.541349	-83.413244	47.132932
65186	9.868781	-0.759531	0.658305	0.036169	0.152332	0.105910	1.000000	0.000034	0.000028	0.000038	-53.510525	-83.414267	47.111224
65187	9.880607	-0.755313	0.679631	0.016504	0.160561	0.118715	1.000000	0.000026	0.000026	0.000031	-53.527210	-83.411651	47.128705
65188	9.864442	-0.783749	0.667273	0.023865	0.129655	0.104437	1.000000	0.000032	0.000037	0.000053	-53.549633	-83.412402	47.154732
65189	9.876254	-0.779606	0.688670	0.004194	0.137883	0.117238	1.000000	0.000018	0.000024	0.000024	-53.564325	-83.410596	47.169231
65190	9.852360	-0.789886	0.647544	0.042110	0.120762	0.091649	1.000000	0.000042	0.000008	0.000037	-53.560611	-83.411039	47.164729
65191	9.855205	-0.773423	0.699798	-0.007713	0.143815	0.096511	1.000000	0.000048	0.000032	0.000026	-53.567229	-83.408547	47.174623
65192	9.868268	-0.763322	0.661608	0.032249	0.150178	0.105957	1.000000	0.000031	0.000020	0.000033	-53.561882	-83.410163	47.168620
65193	9.843124	-0.779465	0.680146	0.010215	0.134839	0.083724	1.000000	0.000034	0.000028	0.000038	-53.580512	-83.406773	47.188994
65194	9.868094	-0.764601	0.662720	0.030913	0.149314	0.105974	1.000000	0.000040	0.000026	0.000029	-53.570822	-83.409239	47.179056
65195	9.851256	-0.735200	0.665885	0.029755	0.178016	0.086736	1.000000	0.000043	0.000030	0.000046	-53.591452	-83.405063	47.202406
65196	9.863741	-0.788762	0.671718	0.018956	0.126468	0.104489	1.000000	0.000021	0.000032	0.000029	-53.586424	-83.407664	47.199234
65197	9.854631	-0.777340	0.703530	-0.011753	0.141340	0.096543	1.000000	0.000027	0.000043	0.000051	-53.600848	-83.402107	47.214496
65198	9.867708	-0.767453	0.665175	0.028610	0.147689	0.106005	1.000000	0.000036	-0.000007	0.000026	-53.598038	-83.404627	47.208621
65199	9.846732	-0.760781	0.675792	0.017020	0.154374	0.085267	1.000000	0.000037	0.000035	0.000044	-53.613219	-83.400245	47.225871
65200	9.862709	-0.733802	0.689471	0.008278	0.183726	0.099580	1.000000	0.000040	0.000026	0.000029	-53.579089	-83.399741	47.191202
65201	9.846552	-0.761956	0.677082	0.016391	0.153552	0.085280	1.000000	0.000034	0.000032	0.000027	-53.587682	-83.397113	47.201479
65202	9.867374	-0.769825	0.667373	0.026230	0.146122	0.106035	1.000000	0.000031	0.000020	0.000033	-53.605336	-83.400719	47.217185
65203	9.846393	-0.763112	0.678092	0.014646	0.152810	0.085295	1.000000	0.000031	0.000020	0.000033	-53.626903	-83.398377	47.240135
65204	9.854050	-0.781529	0.707018	-0.015078	0.138130	0.096584	1.000000	0.000037	0.000018	0.000024	-53.599142	-83.399270	47.210331
65205	9.846245	-0.764191	0.679034	0.013930	0.151978	0.085308	1.000000	0.000034	0.000028	0.000038	-53.617326	-83.395914	47.230227
65206	9.869958	-0.755130	0.721056	-0.024692	0.167339	0.110901	1.000000	0.000017	0.000020	0.000035	-53.598768	-83.397274	47.211872
65207	9.866957	-0.772906	0.669987	0.024000	0.144315	0.106067	1.000000	0.000027	0.000047	0.000040	-53.603004	-83.392477	47.216880
65208	9.878747	-0.768779	0.691475	0.004307	0.151623	0.118868	1.000000	0.000040	0.000022	0.000040	-53.596023	-83.393325	47.211034
65209	9.824966	-0.759608	0.691640	0.000833	0.156784	0.064597	1.000000	0.000028	0.000013	0.000028	-53.620498	-83.392010	47.236554
65210	9.854789	-0.779827	0.650834	0.041114	0.134370	0.093313	1.000000	0.000043	0.000030	0.000046	-53.620989	-83.392984	47.238276
65211	9.882680	-0.748037	0.685142	0.012780	0.172795	0.120405	1.000000	0.000031	0.000020	0.000033	-53.642185	-83.390665	47.260846
65212	9.865202	-0.782018	0.732181	-0.039455	0.142789	0.109405	1.000000	0.000034	0.000028	0.000038	-53.654018	-83.393643	47.268851
65213	9.870606	-0.754342	0.665398	0.030146	0.163757	0.107641	1.000000	0.000031	0.000016	0.000044	-53.684908	-83.390595	47.301152
65214	9.857300	-0.765708	0.704724	-0.011478	0.155790	0.098161	1.000000	0.000037	0.000036	0.000044	-53.688359	-83.391801	47.305403
65215	9.870390	-0.756003	0.666710	0.028545	0.162943	0.107660	1.000000	0.000024	0.000036	0.000045	-53.705399	-83.387319	47.322896
65216	9.845211	-0.772043	0.685111	0.005956	0.146829	0.085394	1.000000	0.000044	-0.000001	0.000023	-53.729556	-83.393072	47.350009
65217	9.857031	-0.767805	0.706206	-0.013727	0.155049	0.098170	1.000000	0.000029	0.000030	0.000047	-53.751893	-83.388817	47.373426
65218	9.898741	-0.783282	0.686195	0.007139	0.140602	0.139682	1.000000	0.000036	0.000014	0.000035	-53.761004	-83.393639	47.390352
65219	9.865861	-0.781522	0.676097	0.014697	0.139099	0.106160	1.000000	0.000026	0.000022	0.000042	-53.786582	-83.390415	47.416683
65220	9.869980	-0.759404	0.668917	0.024120	0.160106	0.107717	1.000000	0.000034	0.000032	0.000027	-53.777839	-83.394057	47.410526
65221	9.869890	-0.760008	0.669560	0.023552	0.160120	0.107719	1.000000	0.000034	0.000028	0.000038	-53.795765	-83.390796	47.430138
65222	9.857910	-0.765491	0.649446	0.042084	0.151358	0.094959	1.000000	0.000034	0.000032	0.000027	-53.786561	-83.390906	47.412865
65223	9.856470	-0.771804	0.709678	-0.018188	0.152459	0.098203	1.000000	0.000024	0.000036	0.000045	-53.803522	-83.386470	47.430241
65224	9.865386	-0.784802	0.679222	0.011018	0.136690	0.106198	1.000000	0.000036	0.000014	0.000035	-53.812103	-83.389578	47.440697
65225	9.853411	-0.790360	0.658937	0.029573	0.128500	0.093432	1.000000	0.000034	0.000028	0.000038	-53.829974	-83.386328	47.460213
65226	9.869430	-0.763366	0.672508	0.021280	0.157907	0.107759	1.000000	0.000026	0.000026	0.000031	-53.784904	-83.383748	47.407327
65227	9.869341	-0.764011	0.673089	0.020714	0.157918	0.107760	1.000000	0.000034	0.000028	0.000038	-53.802583	-83.380489	47.426634
65228	9.885941	-0.794728	0.671084	0.019846	0.128326	0.126976	1.000000	0.000042	0.000012	0.000026	-53.823306	-83.386449	47.451888
65229	9.869168	-0.765308	0.674150	0.018772	0.157027	0.107778	1.000000	0.000027	0.000043	0.000051	-53.836792	-83.381018	47.466090
65230	9.852946	-0.793733	0.661837	0.026795	0.125939	0.093473	1.000000	0.000031	0.000020	0.000033	-53.830014	-83.382860	47.456618
65231	9.848061	-0.759426	0.685655	0.006604	0.162847	0.087040	1.000000	0.000037	0.000036	0.000044	-53.844383	-83.378612	47.472932
65232	9.868860	-0.767589	0.676055	0.016333	0.155389	0.107808	1.000000	0.000040	0.000022	0.000040	-53.866755	-83.381540	47.494594
65233	9.856886	-0.773219	0.655790	0.034889	0.147185	0.095050	1.000000	0.000040	0.000022	0.000040	-53.889730	-83.378531	47.519800
65234	9.868681	-0.768996	0.677077	0.014542	0.154575	0.107824	1.000000	0.000026	0.000026	0.000031	-53.902129	-83.382225	47.527186
65235	9.856710	-0.774526	0.656897	0.033096	0.146368	0.095068	1.000000	0.000034	0.000028	0.000038	-53.919842	-83.379017	47.546473
65236	9.868487	-0.770421	0.678286	0.013165	0.153800	0.107838	1.000000	0.000043	0.000030	0.000046	-53.922049	-83.379292	47.546410
65237	9.868401	-0.771098	0.678759	0.012591	0.153803	0.107838	1.000000	0.000028	0.000013	0.000028	-53.946323	-83.378119	47.571571
65239	9.855719	-0.779610	0.688366	0.002443	0.290220	10.006069	1.000000	0.000076	0.000040	0.000065	-53.931416	-83.376466	47.561225
65240	9.839634	-0.747587	0.661898	0.030033	0.173237	0.075916	1.000000	0.000024	0.000040	0.000034	-53.938427	-83.372852	47.568511
65241	9.868072	-0.773491	0.680816	0.010339	0.151655	0.107874	1.000000	0.000036	0.000014	0.000035	-53.943926	-83.377306	47.581098
65242	9.867998	-0.774134	0.681157	0.009763	0.151653	0.107875	1.000000	0.000036	0.000014	0.000035	-53.970078	-83.375355	47.609115
65243	9.847020	-0.767351	0.691763	-0.002023	0.157141	0.087134	1.000000	0.000031	0.000020	0.000033	-53.958395	-83.379379	47.604676
65244	9.851693	-0.803164	0.669072	0.016997	0.120220	0.093565	1.000000	0.000034	0.000024	0.000050	-53.985481	-83.375464	47.633374
65245	9.871980	-0.753579	0.674922	0.017901	0.171395	0.109495	1.000000	0.000024	0.000040	0.000034	-53.971720	-83.377615	47.620283
65246	9.867638	-0.776706	0.683440	0.006833	0.149399	0.107911	1.000000	0.000045	0.000028	0.000009	-53.970944	-83.377150	47.622228
65247	9.859932	-0.759572	0.655485	0.035200	0.162032	0.096772	1.000000	0.000023	0.000028	0.000068	-53.993247	-83.378828	47.646874
65248	9.859826	-0.760504	0.656010	0.034620	0.162021	0.096774	1.000000	0.000045	0.000020	0.000032	-54.011680	-83.376875	47.668117
65249	9.871622	-0.756197	0.677232	0.014065	0.169160	0.109539	1.000000	0.000031	0.000020	0.000033	-54.027954	-83.382587	47.683681
65250	9.859664	-0.761754	0.656994	0.032620	0.160936	0.096799	1.000000	0.000034	0.000028	0.000038	-54.045422	-83.379480	47.702719
65251	9.879042	-0.775347	0.706907	-0.016983	0.154289	0.120704	1.000000	0.000026	0.000026	0.000031	-54.034105	-83.382736	47.690332
65252	9.846185	-0.773389	0.696898	-0.009364	0.152792	0.087198	1.000000	0.000026	0.000026	0.000031	-54.049533	-83.380445	47.706355
65253	9.880327	-0.770905	0.648382	0.040945	0.152075	0.117607	1.000000	0.000056	0.000012	0.000025	-54.057297	-83.386430	47.718205
65254	9.884517	-0.748755	0.641229	0.050854	0.174040	0.119211	1.000000	0.000027	0.000047	0.000040	-54.060782	-83.381919	47.722308
65255	9.871088	-0.759998	0.680746	0.008839	0.165883	0.109600	1.000000	0.000034	0.000024	0.000050	-54.082011	-83.386079	47.750975
65256	9.870995	-0.760770	0.681234	0.008249	0.165862	0.109601	1.000000	0.000031	0.000020	0.000033	-54.102775	-83.384035	47.772970
65257	9.838149	-0.758838	0.671105	0.016408	0.163353	0.076116	1.000000	0.000031	0.000020	0.000033	-54.069924	-83.384323	47.737290
65258	9.891740	-0.769435	0.671948	0.018526	0.158066	0.130388	1.000000	0.000031	0.000020	0.000033	-54.090535	-83.382280	47.759126
65259	9.845560	-0.777939	0.700660	-0.013999	0.148321	0.087261	1.000000	0.000034	0.000028	0.000039	-54.051198	-83.382827	47.723804
65260	9.870668	-0.763350	0.683081	0.006837	0.163537	0.109641	1.000000	0.000042	0.000009	0.000037	-54.082261	-83.381209	47.757382
65261	9.870580	-0.764013	0.683609	0.006326	0.162286	0.109662	1.000000	0.000024	0.000040	0.000034	-54.043966	-83.382644	47.725008
65262	9.882355	-0.759775	0.704905	-0.013406	0.170466	0.122395	1.000000	0.000042	0.000009	0.000037	-54.074911	-83.381036	47.758477
65263	9.854256	-0.792889	0.671646	0.013501	0.130964	0.095330	1.000000	0.000034	0.000032	0.000027	-54.057516	-83.384561	47.738872
65264	9.858454	-0.770861	0.664488	0.023416	0.152913	0.096952	1.000000	0.000029	0.000030	0.000048	-54.078768	-83.380568	47.761101
65265	9.870200	-0.766817	0.685955	0.003066	0.160234	0.109697	1.000000	0.000037	0.000036	0.000044	-54.086359	-83.382599	47.770754
65266	9.891006	-0.775009	0.676332	0.013389	0.153451	0.130468	1.000000	0.000036	0.000014	0.000035	-54.111970	-83.380807	47.798229
65267	9.870017	-0.768210	0.687035	0.001773	0.158954	0.109718	1.000000	0.000029	0.000034	0.000037	-54.086775	-83.383223	47.775534
65268	9.849023	-0.761350	0.697851	-0.009725	0.165673	0.088947	1.000000	0.000040	0.000026	0.000030	-54.099379	-83.381188	47.790301
65269	9.848958	-0.761899	0.698177	-0.010611	0.164603	0.088964	1.000000	0.000039	0.000001	0.000032	-54.109743	-83.386247	47.802550
65270	9.886360	-0.800219	0.686196	0.000103	0.129075	0.128875	1.000000	0.000027	0.000048	0.000040	-54.112626	-83.381827	47.806047
65271	9.869652	-0.770871	0.689290	-0.001282	0.156919	0.109750	1.000000	0.000034	0.000024	0.000050	-54.125689	-83.383339	47.814914
65272	9.857698	-0.776491	0.669126	0.017277	0.148668	0.097029	1.000000	0.000034	0.000032	0.000028	-54.132930	-83.381119	47.823654
65273	9.857612	-0.776987	0.669811	0.016917	0.147714	0.097044	1.000000	0.000034	0.000032	0.000028	-54.101523	-83.381989	47.786174
65274	9.869378	-0.772743	0.691111	-0.002825	0.155888	0.109766	1.000000	0.000031	0.000016	0.000044	-54.131187	-83.379271	47.817068
65275	9.857441	-0.778347	0.670760	0.015217	0.146406	0.097066	1.000000	0.000045	0.000020	0.000032	-54.126552	-83.384723	47.818921
65276	9.857362	-0.778959	0.671211	0.014624	0.146362	0.097068	1.000000	0.000017	0.000021	0.000035	-54.148887	-83.382621	47.840881
65277	9.857293	-0.779496	0.671594	0.013624	0.145277	0.097085	1.000000	0.000056	0.000012	0.000025	-54.148116	-83.388094	47.841129
65278	9.880934	-0.770244	0.713410	-0.025278	0.161660	0.122519	1.000000	0.000028	0.000009	0.000039	-54.181074	-83.386421	47.874983
65279	9.836249	-0.773188	0.682474	0.001179	0.151015	0.076326	1.000000	0.000034	0.000032	0.000028	-54.170119	-83.389727	47.866218
65280	9.868897	-0.776406	0.693869	-0.007685	0.152407	0.109818	1.000000	0.000032	0.000042	0.000042	-54.178107	-83.385573	47.875411
65281	9.852220	-0.746992	0.696855	-0.008598	0.179933	0.090716	1.000000	0.000026	0.000022	0.000042	-54.160845	-83.387511	47.861187
65282	9.880547	-0.772947	0.715849	-0.027985	0.159349	0.122549	1.000000	0.000040	0.000026	0.000030	-54.173129	-83.385557	47.875584
65283	9.886334	-0.745474	0.649058	0.041640	0.178970	0.121237	1.000000	0.000034	0.000028	0.000039	-54.154524	-83.387236	47.858481
65284	9.840082	-0.754044	0.677896	0.008766	0.170509	0.078024	1.000000	0.000032	0.000038	0.000053	-54.171918	-83.382341	47.877117
65285	9.860907	-0.762174	0.668146	0.018732	0.162558	0.098823	1.000000	0.000036	-0.000003	0.000015	-54.173800	-83.389687	47.880230
65286	9.881752	-0.769997	0.658462	0.029012	0.155716	0.119603	1.000000	0.000038	0.000044	0.000022	-54.167698	-83.387295	47.875889
65287	9.844556	-0.790739	0.656513	0.025819	0.131140	0.084468	1.000000	0.000024	0.000036	0.000046	-54.158188	-83.389427	47.869855
65288	9.851598	-0.751508	0.700779	-0.013447	0.176261	0.090776	1.000000	0.000033	0.000003	0.000041	-54.196186	-83.388019	47.909369
65289	9.860570	-0.764654	0.670277	0.015473	0.160191	0.098867	1.000000	0.000029	0.000034	0.000037	-54.192722	-83.391298	47.904627
65290	9.888865	-0.790694	0.689366	-0.003945	0.139587	0.130681	1.000000	0.000026	0.000022	0.000042	-54.216705	-83.388475	47.929171
65291	9.897483	-0.745996	0.674126	0.016063	0.182435	0.134050	1.000000	0.000031	0.000020	0.000033	-54.218712	-83.392717	47.931714
65292	9.855928	-0.789667	0.679702	0.002708	0.137024	0.097211	1.000000	0.000029	0.000026	0.000059	-54.248896	-83.388129	47.962822
65293	9.860193	-0.767756	0.672282	0.011926	0.157945	0.098908	1.000000	0.000042	0.000013	0.000026	-54.262819	-83.394395	47.982656
65294	9.869182	-0.780757	0.641748	0.041348	0.142869	0.106992	1.000000	0.000017	0.000021	0.000035	-54.284815	-83.392410	48.004219
65295	9.892766	-0.771665	0.683900	0.002046	0.158308	0.132409	1.000000	0.000037	0.000036	0.000044	-54.281298	-83.393999	47.995655
65296	9.859937	-0.769657	0.673855	0.009752	0.156827	0.098928	1.000000	0.000050	0.000018	0.000023	-54.294473	-83.393311	48.012121
65297	9.892596	-0.772797	0.685082	0.000966	0.156976	0.132430	1.000000	0.000029	0.000034	0.000037	-54.259970	-83.394876	47.982321
65298	9.852286	-0.753111	0.646453	0.038374	0.169243	0.087944	1.000000	0.000034	0.000028	0.000039	-54.276195	-83.392055	48.000003
65299	9.871506	-0.766631	0.696401	-0.011097	0.162727	0.111663	1.000000	0.000031	0.000020	0.000033	-54.266069	-83.394295	47.981643
65300	9.859570	-0.772268	0.676231	0.007466	0.154439	0.098968	1.000000	0.000037	0.000036	0.000044	-54.278866	-83.390466	47.996210
65301	9.884753	-0.757718	0.658890	0.028564	0.168429	0.121467	1.000000	0.000031	0.000024	0.000022	-54.241179	-83.392919	47.954041
65302	9.850325	-0.761078	0.708305	-0.023434	0.168246	0.090897	1.000000	0.000034	0.000024	0.000050	-54.266810	-83.389347	47.981141
65303	9.884594	-0.759035	0.659763	0.027459	0.167178	0.121492	1.000000	0.000039	0.000005	0.000021	-54.249789	-83.394071	47.967422
65304	9.847384	-0.779866	0.657518	0.024640	0.143744	0.086314	1.000000	0.000021	0.000046	0.000060	-54.265530	-83.388111	47.983083
65305	9.870935	-0.770904	0.699768	-0.015027	0.159061	0.111717	1.000000	0.000031	0.000020	0.000033	-54.277219	-83.393681	47.993644
65306	9.872473	-0.766182	0.640738	0.044086	0.157676	0.108829	1.000000	0.000040	0.000026	0.000030	-54.288934	-83.391867	48.007375
65307	9.870766	-0.772115	0.700822	-0.016327	0.157849	0.111734	1.000000	0.000039	0.000022	0.000041	-54.277941	-83.394166	47.999872
65308	9.847016	-0.782687	0.659677	0.021408	0.141330	0.086356	1.000000	0.000023	0.000015	0.000037	-54.304810	-83.392454	48.026881
65309	9.870576	-0.773703	0.701743	-0.017752	0.156647	0.111751	1.000000	0.000037	0.000032	0.000055	-54.300618	-83.393307	48.017075
65310	9.874879	-0.751681	0.694395	-0.007808	0.178515	0.113466	1.000000	0.000028	0.000017	0.000017	-54.313620	-83.393341	48.030768
65311	9.858570	-0.779874	0.682055	-0.000064	0.147213	0.099080	1.000000	0.000024	0.000036	0.000046	-54.304145	-83.395051	48.012681
65312	9.858481	-0.780538	0.682586	-0.000671	0.147128	0.099082	1.000000	0.000042	0.000013	0.000026	-54.324424	-83.394490	48.035250
65313	9.862811	-0.758392	0.675087	0.009201	0.167882	0.100822	1.000000	0.000031	0.000021	0.000033	-54.309555	-83.397863	48.018444
65314	9.853663	-0.746488	0.706429	-0.021395	0.182859	0.092719	1.000000	0.000045	0.000020	0.000032	-54.326392	-83.396296	48.037898
65315	9.871717	-0.772103	0.645258	0.037755	0.151483	0.108952	1.000000	0.000029	0.000034	0.000037	-54.306984	-83.399251	48.013047
65316	9.858164	-0.782878	0.684486	-0.003401	0.144519	0.099120	1.000000	0.000047	0.000007	0.000028	-54.332499	-83.398918	48.041480
65317	9.862492	-0.760828	0.676997	0.006181	0.165306	0.100868	1.000000	0.000020	0.000028	0.000040	-54.328579	-83.402075	48.036852
65318	9.857995	-0.784198	0.685408	-0.004990	0.143272	0.099137	1.000000	0.000031	0.000021	0.000033	-54.347601	-83.400377	48.056906
65319	9.857916	-0.784787	0.685870	-0.005165	0.142170	0.099153	1.000000	0.000045	0.000020	0.000032	-54.315096	-83.401615	48.016093
65320	9.869641	-0.780571	0.707262	-0.024942	0.150308	0.111833	1.000000	0.000023	0.000036	0.000046	-54.329499	-83.397730	48.030607
65321	9.845882	-0.791227	0.666376	0.012872	0.132579	0.086492	1.000000	0.000034	0.000028	0.000039	-54.302461	-83.399748	48.005552
65322	9.862023	-0.764335	0.679874	0.003666	0.162652	0.100913	1.000000	0.000034	0.000028	0.000039	-54.317881	-83.397047	48.022322
65323	9.857515	-0.787635	0.688363	-0.008237	0.139457	0.099189	1.000000	0.000040	0.000026	0.000030	-54.317205	-83.403128	48.023072
65324	9.882762	-0.773004	0.670889	0.012527	0.154434	0.121728	1.000000	0.000050	0.000018	0.000023	-54.329518	-83.402590	48.038570
65325	9.866207	-0.743292	0.673599	0.011630	0.182062	0.102704	1.000000	0.000034	0.000028	0.000039	-54.311811	-83.404799	48.017812
65326	9.848174	-0.776879	0.720952	-0.040101	0.153189	0.091088	1.000000	0.000037	0.000036	0.000044	-54.323786	-83.401110	48.031456
65327	9.882477	-0.775070	0.672705	0.010602	0.151889	0.121770	1.000000	0.000017	0.000021	0.000035	-54.306834	-83.404460	48.011890
65328	9.861500	-0.768131	0.683176	-0.000802	0.158652	0.100978	1.000000	0.000036	0.000015	0.000035	-54.330850	-83.403018	48.037545
65329	9.861414	-0.768814	0.683652	-0.001111	0.157466	0.100997	1.000000	0.000034	0.000028	0.000039	-54.298645	-83.403877	48.004742
65330	9.852247	-0.756958	0.714990	-0.031684	0.172467	0.092878	1.000000	0.000036	0.000015	0.000035	-54.322545	-83.402441	48.030272
65331	9.882139	-0.777782	0.674531	0.008529	0.149255	0.121811	1.000000	0.000034	0.000028	0.000039	-54.297978	-83.404409	48.001226
65332	9.865595	-0.748069	0.677268	0.007718	0.177952	0.102782	1.000000	0.000031	0.000024	0.000022	-54.306846	-83.403546	48.011043
65333	9.870138	-0.783966	0.655037	0.026869	0.139558	0.109162	1.000000	0.000027	0.000044	0.000051	-54.260483	-83.402492	47.972620
65334	9.860966	-0.772086	0.686426	-0.003699	0.154560	0.101042	1.000000	0.000039	0.000005	0.000021	-54.283297	-83.403061	47.997328
65335	9.872689	-0.767979	0.707587	-0.023588	0.161562	0.113732	1.000000	0.000023	0.000028	0.000068	-54.282956	-83.403007	47.992438
65336	9.832513	-0.748357	0.668662	0.013963	0.173788	0.069370	1.000000	0.000042	0.000017	0.000015	-54.292735	-83.403336	48.004402
65337	9.881614	-0.781740	0.677651	0.004861	0.145129	0.121875	1.000000	0.000031	0.000021	0.000033	-54.285957	-83.407547	47.994141
65338	9.848812	-0.779756	0.667454	0.012651	0.143664	0.088415	1.000000	0.000020	0.000028	0.000040	-54.303037	-83.404773	48.010955
65339	9.864984	-0.752802	0.680910	0.003391	0.172672	0.102878	1.000000	0.000040	0.000026	0.000030	-54.281816	-83.407923	47.986067
65340	9.860435	-0.776157	0.689445	-0.007811	0.150629	0.101101	1.000000	0.000042	0.000030	0.000046	-54.298558	-83.404501	48.005072
65341	9.864800	-0.754122	0.682120	0.002171	0.171342	0.102901	1.000000	0.000031	0.000025	0.000022	-54.270882	-83.408431	47.975185
65342	9.860246	-0.777357	0.690797	-0.009034	0.149300	0.101120	1.000000	0.000027	0.000048	0.000040	-54.271470	-83.404408	47.976115
65343	9.885484	-0.763172	0.673577	0.011388	0.163067	0.123721	1.000000	0.000034	0.000024	0.000050	-54.270685	-83.407256	47.972268
65344	9.860040	-0.778926	0.691970	-0.010589	0.147926	0.101139	1.000000	0.000028	0.000013	0.000028	-54.292100	-83.406707	47.994292
65345	9.869051	-0.792160	0.661520	0.018851	0.131553	0.109290	1.000000	0.000026	0.000023	0.000042	-54.273196	-83.408501	47.974980
65346	9.850769	-0.767743	0.723805	-0.041639	0.161725	0.093022	1.000000	0.000029	0.000034	0.000037	-54.282388	-83.405721	47.984803
65347	9.885123	-0.766007	0.675653	0.008773	0.160312	0.123769	1.000000	0.000034	0.000028	0.000039	-54.268730	-83.409145	47.974350
65348	9.859659	-0.781718	0.694248	-0.013200	0.145177	0.101176	1.000000	0.000048	0.000028	0.000037	-54.280987	-83.406737	47.989442
65349	9.852226	-0.764753	0.666131	0.016872	0.157577	0.090334	1.000000	0.000007	0.000029	0.000042	-54.228678	-83.405402	47.926204
65350	9.880386	-0.790750	0.685056	-0.002766	0.136859	0.121993	1.000000	0.000035	-0.000007	0.000027	-54.263867	-83.406301	47.962923
65351	9.880326	-0.791239	0.685364	-0.003157	0.135674	0.122009	1.000000	0.000034	0.000032	0.000028	-54.225782	-83.408274	47.916672
65352	9.842897	-0.754047	0.698263	-0.014654	0.171297	0.082221	1.000000	0.000032	0.000038	0.000053	-54.240876	-83.403727	47.932741
65353	9.884587	-0.770174	0.678750	0.005976	0.156045	0.123839	1.000000	0.000036	0.000015	0.000035	-54.230838	-83.408887	47.924877
65354	9.859128	-0.785747	0.697242	-0.015997	0.140924	0.101233	1.000000	0.000034	0.000032	0.000028	-54.235409	-83.407112	47.930661
65355	9.896206	-0.766505	0.700726	-0.014547	0.162922	0.136518	1.000000	0.000029	0.000030	0.000048	-54.222184	-83.408861	47.912727
65356	9.851615	-0.769526	0.669673	0.012457	0.153217	0.090409	1.000000	0.000036	0.000015	0.000035	-54.245040	-83.407551	47.937124
65357	9.884245	-0.772793	0.680760	0.003639	0.153241	0.123883	1.000000	0.000042	0.000013	0.000026	-54.216574	-83.411320	47.908393
65358	9.851457	-0.770693	0.670651	0.011468	0.151785	0.090432	1.000000	0.000027	0.000048	0.000040	-54.216469	-83.407369	47.908581
65359	9.884067	-0.773988	0.681975	0.002148	0.151774	0.123906	1.000000	0.000025	0.000005	0.000023	-54.211074	-83.414065	47.901728
65360	9.858609	-0.789550	0.700272	-0.019823	0.136665	0.101286	1.000000	0.000039	0.000022	0.000041	-54.230405	-83.411758	47.922924
65361	9.851219	-0.772543	0.672014	0.009111	0.148996	0.090477	1.000000	0.000031	0.000021	0.000033	-54.217906	-83.416390	47.909600
65362	9.904722	-0.783614	0.673229	0.010788	0.143212	0.144731	1.000000	0.000039	0.000022	0.000041	-54.237184	-83.414095	47.930741
65363	9.825640	-0.788933	0.691021	-0.013260	0.132769	0.067866	1.000000	0.000034	0.000028	0.000039	-54.210776	-83.415080	47.898404
65364	9.899922	-0.749918	0.697234	-0.009501	0.179032	0.138434	1.000000	0.000034	0.000024	0.000050	-54.234196	-83.411819	47.923066
65365	9.850840	-0.775403	0.674269	0.006999	0.146319	0.090518	1.000000	0.000035	0.000036	0.000017	-54.187780	-83.415246	47.872051
65366	9.883454	-0.778551	0.685661	-0.002062	0.147470	0.123971	1.000000	0.000045	0.000020	0.000032	-54.202651	-83.413937	47.889359
65367	9.862479	-0.771464	0.696145	-0.013562	0.153119	0.103190	1.000000	0.000031	0.000021	0.000033	-54.186568	-83.418048	47.877764
65368	9.850600	-0.777146	0.675767	0.005012	0.144712	0.090543	1.000000	0.000031	0.000017	0.000045	-54.213230	-83.415827	47.905322
65369	9.883193	-0.780652	0.687039	-0.004236	0.144796	0.124010	1.000000	0.000034	0.000028	0.000039	-54.198537	-83.418668	47.884349
65370	9.866711	-0.751050	0.689711	-0.004921	0.173499	0.105057	1.000000	0.000034	0.000028	0.000039	-54.212152	-83.416205	47.899145
65371	9.850316	-0.779270	0.677468	0.002931	0.142208	0.090580	1.000000	0.000040	0.000026	0.000030	-54.191827	-83.419328	47.873040
65372	9.862006	-0.775031	0.698875	-0.016858	0.150311	0.103228	1.000000	0.000029	0.000030	0.000048	-54.209622	-83.415902	47.891398
65373	9.861898	-0.775842	0.699502	-0.016942	0.148952	0.103249	1.000000	0.000034	0.000028	0.000039	-54.163316	-83.416641	47.840687
65374	9.870947	-0.788820	0.669160	0.012342	0.133558	0.111406	1.000000	0.000039	0.000013	-0.000001	-54.165397	-83.418944	47.844434
65375	9.866294	-0.753930	0.692535	-0.007735	0.169427	0.105125	1.000000	0.000023	0.000036	0.000046	-54.149882	-83.421010	47.822004
65376	9.873451	-0.772428	0.721868	-0.038178	0.155642	0.115912	1.000000	0.000045	0.000017	0.000043	-54.174030	-83.418981	47.848575
65377	9.861581	-0.778108	0.701442	-0.019760	0.146066	0.103286	1.000000	0.000036	0.000015	0.000036	-54.162967	-83.423322	47.838206
65378	9.882389	-0.786497	0.691919	-0.009666	0.138919	0.124090	1.000000	0.000034	0.000028	0.000039	-54.176284	-83.420896	47.852669
65379	9.854149	-0.761796	0.673690	0.008261	0.158298	0.092530	1.000000	0.000031	0.000021	0.000033	-54.179735	-83.426413	47.855463
65380	9.849545	-0.784948	0.682099	-0.003008	0.136247	0.090664	1.000000	0.000036	0.000019	0.000024	-54.192192	-83.425995	47.869325
65381	9.882143	-0.788270	0.693416	-0.011646	0.136227	0.124125	1.000000	0.000034	0.000028	0.000039	-54.150457	-83.426701	47.824051
65382	9.874790	-0.771441	0.665221	0.017589	0.149675	0.113360	1.000000	0.000034	0.000024	0.000050	-54.173272	-83.423527	47.848027
65383	9.853801	-0.764506	0.675712	0.006398	0.155422	0.092577	1.000000	0.000031	0.000021	0.000033	-54.149868	-83.426404	47.818581
65384	9.874610	-0.772911	0.666197	0.016481	0.148253	0.113383	1.000000	0.000039	0.000022	0.000041	-54.168360	-83.424209	47.838824
65385	9.881751	-0.791306	0.695531	-0.014062	0.133274	0.124162	1.000000	0.000034	0.000028	0.000039	-54.143898	-83.427254	47.816582
65386	9.853513	-0.766743	0.677375	0.004493	0.153712	0.092604	1.000000	0.000029	0.000030	0.000048	-54.161163	-83.423895	47.834359
65387	9.886081	-0.770314	0.688812	-0.004642	0.153605	0.126067	1.000000	0.000034	0.000028	0.000039	-54.134477	-83.426738	47.810706
65388	9.860546	-0.785877	0.707315	-0.026607	0.138557	0.103378	1.000000	0.000031	0.000021	0.000033	-54.150800	-83.425383	47.827810
65389	9.874108	-0.776786	0.669123	0.012898	0.143838	0.113453	1.000000	0.000037	0.000032	0.000055	-54.146696	-83.427757	47.828357
65390	9.853109	-0.769886	0.679682	0.001607	0.150667	0.092652	1.000000	0.000031	0.000021	0.000033	-54.162981	-83.426415	47.845418
65391	9.853050	-0.770377	0.679989	0.001074	0.149556	0.092669	1.000000	0.000039	0.000005	0.000021	-54.150321	-83.431087	47.824117
65392	9.869312	-0.743299	0.693298	-0.008043	0.179519	0.107201	1.000000	0.000024	0.000040	0.000035	-54.152373	-83.428324	47.825985
65393	9.864659	-0.766591	0.701864	-0.019041	0.156345	0.105325	1.000000	0.000022	0.000015	0.000037	-54.128005	-83.430819	47.794164
65394	9.864573	-0.767318	0.702281	-0.019649	0.156163	0.105326	1.000000	0.000039	0.000022	0.000041	-54.146142	-83.428672	47.814014
65395	9.873604	-0.780718	0.671982	0.009501	0.139533	0.113519	1.000000	0.000031	0.000021	0.000033	-54.127101	-83.432702	47.791891
65396	9.852620	-0.773644	0.682494	-0.001778	0.146373	0.092716	1.000000	0.000034	0.000028	0.000039	-54.139775	-83.430362	47.805638
65397	9.864316	-0.769266	0.703759	-0.021558	0.153305	0.105367	1.000000	0.000042	0.000013	0.000027	-54.117357	-83.435161	47.782991
65398	9.861614	-0.729558	0.667358	0.018394	0.188578	0.096558	1.000000	0.000031	0.000021	0.000034	-54.133338	-83.433853	47.799706
65399	9.873285	-0.783150	0.673828	0.007082	0.136502	0.113563	1.000000	0.000031	0.000021	0.000034	-54.111101	-83.437355	47.774909
65400	9.852291	-0.776143	0.684405	-0.004189	0.143347	0.092760	1.000000	0.000023	0.000036	0.000046	-54.122466	-83.433859	47.786096
65401	9.877660	-0.761994	0.667107	0.016506	0.156901	0.115502	1.000000	0.000040	0.000026	0.000030	-54.096286	-83.437393	47.756494
65402	9.877580	-0.762574	0.667626	0.015897	0.156708	0.115506	1.000000	0.000031	0.000021	0.000034	-54.112129	-83.436104	47.773052
65403	9.852030	-0.778059	0.685992	-0.006318	0.140612	0.092798	1.000000	0.000036	0.000015	0.000036	-54.106095	-83.440656	47.767937
65404	9.856510	-0.756301	0.678512	0.003769	0.162280	0.094724	1.000000	0.000037	0.000032	0.000056	-54.124772	-83.436564	47.788017
65405	9.858337	-0.752297	0.619593	0.062766	0.159153	0.092230	1.000000	0.000034	0.000028	0.000039	-54.101002	-83.439841	47.765445
65406	9.877220	-0.765518	0.669580	0.013084	0.153648	0.115558	1.000000	0.000025	0.000005	0.000023	-54.123497	-83.440620	47.787979
65407	9.860803	-0.793593	0.657089	0.021085	0.122186	0.101022	1.000000	0.000045	0.000020	0.000032	-54.094514	-83.443899	47.755564
65408	9.847046	-0.746216	0.711222	-0.028490	0.174509	0.086592	1.000000	0.000023	0.000036	0.000046	-54.105607	-83.440442	47.766449
65409	9.865189	-0.772555	0.650319	0.030478	0.142523	0.102980	1.000000	0.000026	0.000023	0.000043	-54.091225	-83.443398	47.747288
65410	9.844209	-0.765493	0.660748	0.019226	0.149379	0.082177	1.000000	0.000031	0.000021	0.000034	-54.106803	-83.442150	47.763553
65411	9.860483	-0.738568	0.674131	0.010256	0.178256	0.096761	1.000000	0.000029	0.000034	0.000037	-54.074079	-83.443835	47.723544
65412	9.851215	-0.784150	0.690737	-0.011776	0.134348	0.092880	1.000000	0.000028	0.000021	0.000006	-54.073642	-83.445157	47.723387
65413	9.864855	-0.774838	0.652653	0.028170	0.139484	0.103030	1.000000	0.000026	0.000044	0.000051	-54.041056	-83.445621	47.688648
65414	9.888278	-0.765712	0.694840	-0.010814	0.155845	0.128276	1.000000	0.000041	0.000009	0.000038	-54.067310	-83.444798	47.716840
65415	9.855529	-0.763665	0.684487	-0.002324	0.153282	0.094868	1.000000	0.000037	0.000036	0.000044	-54.017206	-83.444373	47.660627
65416	9.864569	-0.777065	0.654332	0.026886	0.137712	0.103058	1.000000	0.000036	0.000019	0.000025	-54.028248	-83.444120	47.672935
65417	9.871628	-0.795293	0.683808	-0.003751	0.122724	0.113745	1.000000	0.000032	0.000042	0.000042	-53.994506	-83.446347	47.637574
65418	9.876137	-0.773405	0.676461	0.006362	0.144359	0.115704	1.000000	0.000031	0.000021	0.000034	-54.009734	-83.445134	47.653465
65419	9.850559	-0.788733	0.694862	-0.015734	0.128234	0.092955	1.000000	0.000036	0.000019	0.000025	-53.986568	-83.450359	47.630784
65421	9.871370	-0.768502	0.693049	-0.019800	0.300936	10.035952	1.000000	0.000073	0.000051	0.000080	-53.999788	-83.442802	47.649531
65422	9.838536	-0.795755	0.675509	0.001890	0.118378	0.080356	1.000000	0.000041	0.000009	0.000038	-53.999581	-83.448268	47.651427
65423	9.859454	-0.746208	0.680725	0.003545	0.170136	0.096909	1.000000	0.000021	0.000033	0.000029	-54.003864	-83.446670	47.655096
65424	9.838368	-0.796958	0.676533	0.000891	0.116791	0.080375	1.000000	0.000031	0.000021	0.000034	-53.971590	-83.449638	47.616518
65425	9.880175	-0.755272	0.671892	0.013173	0.161448	0.117745	1.000000	0.000034	0.000028	0.000039	-53.983242	-83.447432	47.629151
65426	9.854559	-0.770817	0.690402	-0.010483	-0.000994	0.096048	1.000000	0.000025	0.000023	0.000043	-48.496204	-84.057079	41.571075
65427	9.875362	-0.779340	0.680946	-0.000572	-0.009119	0.116751	1.000000	0.000031	0.000021	0.000034	-48.497633	-84.057629	41.572197
65428	9.856412	-0.767282	0.631733	0.047946	-0.004640	0.093591	1.000000	0.000023	0.000019	0.000026	-48.497046	-84.059130	41.579186
65429	9.866072	-0.767727	0.712520	-0.031483	0.005482	0.108777	1.000000	0.000044	0.000017	0.000043	-48.507396	-84.059164	41.590828
65430	9.867984	-0.763712	0.653637	0.027681	0.002423	0.106326	1.000000	0.000027	0.000048	0.000040	-48.488242	-84.056763	41.555709
65431	9.842358	-0.779201	0.672208	0.005568	-0.012347	0.083314	1.000000	0.000041	0.000009	0.000038	-48.501318	-84.057849	41.569737
65432	9.846906	-0.757394	0.664624	0.015840	0.008734	0.085625	1.000000	0.000042	0.000030	0.000047	-48.505620	-84.056909	41.602089
65433	9.858558	-0.753086	0.686109	-0.003887	0.016426	0.098355	1.000000	0.000034	0.000032	0.000028	-48.492994	-84.057063	41.589470
65434	9.858466	-0.753700	0.686760	-0.004505	0.015812	0.098356	1.000000	0.000034	0.000028	0.000039	-48.491388	-84.056581	41.589553
65435	9.879261	-0.762270	0.677403	0.005395	0.007675	0.119062	1.000000	0.000039	0.000023	0.000041	-48.495914	-84.056343	41.594741
65436	9.841893	-0.782591	0.675068	0.002470	-0.015398	0.083311	1.000000	0.000031	0.000025	0.000023	-48.482983	-84.057240	41.553433
65437	9.879121	-0.763346	0.678233	0.004233	0.006449	0.119063	1.000000	0.000038	0.000001	0.000032	-48.498795	-84.059377	41.569855
65438	9.874380	-0.786597	0.686813	-0.007371	-0.015848	0.116740	1.000000	0.000027	0.000048	0.000040	-48.483036	-84.057325	41.556622
65439	9.867167	-0.769868	0.658722	0.022093	-0.003084	0.106340	1.000000	0.000034	0.000025	0.000050	-48.493065	-84.056157	41.566710
65440	9.846191	-0.762719	0.669113	0.011010	0.003841	0.085635	1.000000	0.000036	0.000019	0.000025	-48.487108	-84.057471	41.548403
65441	9.878748	-0.766163	0.680483	0.001789	0.004001	0.119065	1.000000	0.000039	0.000023	0.000041	-48.491636	-84.057229	41.553592
65442	9.857759	-0.759045	0.691004	-0.009377	0.010948	0.098359	1.000000	0.000029	0.000034	0.000037	-48.486287	-84.056627	41.541167
65443	9.873897	-0.790136	0.689686	-0.010489	-0.018887	0.116732	1.000000	0.000036	0.000015	0.000036	-48.493546	-84.057439	41.548747
65444	9.845834	-0.765513	0.671170	0.008432	0.001419	0.085638	1.000000	0.000034	0.000025	0.000050	-48.505809	-84.056510	41.564179
65445	9.878382	-0.769074	0.682509	-0.000798	0.001573	0.119066	1.000000	0.000042	0.000013	0.000027	-48.507577	-84.058250	41.566868
65446	9.873639	-0.792155	0.691060	-0.012495	-0.020717	0.116726	1.000000	0.000021	0.000033	0.000029	-48.500608	-84.058664	41.586244
65447	9.871137	-0.752766	0.654745	0.027964	0.013719	0.108689	1.000000	0.000034	0.000025	0.000050	-48.510636	-84.057491	41.596330
65448	9.840819	-0.790753	0.681182	-0.005058	-0.022687	0.083296	1.000000	0.000042	0.000013	0.000027	-48.509439	-84.058922	41.568642
65449	9.845423	-0.768731	0.673513	0.005319	-0.001622	0.085640	1.000000	0.000031	0.000021	0.000034	-48.510874	-84.059463	41.569769
65450	9.877954	-0.772358	0.684985	-0.003904	-0.001474	0.119065	1.000000	0.000029	0.000031	0.000048	-48.514432	-84.057947	41.556365
65451	9.856964	-0.765202	0.695548	-0.015009	0.005490	0.098357	1.000000	0.000034	0.000032	0.000028	-48.501809	-84.058094	41.543746
65452	9.854294	-0.783652	0.644549	0.032995	-0.019336	0.093634	1.000000	0.000036	0.000015	0.000036	-48.511768	-84.059224	41.571830
65453	9.889419	-0.769362	0.707468	-0.024951	0.005022	0.131778	1.000000	0.000020	0.000029	0.000041	-48.512862	-84.058566	41.571385
65454	9.877591	-0.775038	0.687192	-0.006349	-0.003916	0.119063	1.000000	0.000045	0.000021	0.000032	-48.507120	-84.058787	41.538888
65455	9.856603	-0.767891	0.697694	-0.017445	0.003058	0.098354	1.000000	0.000023	0.000037	0.000046	-48.505479	-84.057073	41.536047
65456	9.861199	-0.745985	0.690219	-0.006970	0.024102	0.100713	1.000000	0.000036	0.000019	0.000025	-48.498304	-84.058273	41.515911
65457	9.870272	-0.759447	0.660040	0.021983	0.007569	0.108711	1.000000	0.000034	0.000029	0.000039	-48.497006	-84.057756	41.514644
65458	9.877217	-0.777770	0.689478	-0.008767	-0.006359	0.119060	1.000000	0.000025	0.000023	0.000043	-48.503758	-84.057379	41.518032
65459	9.865400	-0.783380	0.669176	0.009714	-0.015306	0.106348	1.000000	0.000031	0.000025	0.000023	-48.493871	-84.058578	41.507808
65460	9.860858	-0.748475	0.692384	-0.009392	0.021671	0.100717	1.000000	0.000048	0.000028	0.000038	-48.488238	-84.058016	41.485749
65461	9.865235	-0.784463	0.670346	0.008512	-0.016529	0.106348	1.000000	0.000031	0.000025	0.000023	-48.478346	-84.059214	41.475521
65462	9.876872	-0.780073	0.691819	-0.011154	-0.008801	0.119056	1.000000	0.000037	0.000036	0.000045	-48.471621	-84.057436	41.464191
65463	9.839718	-0.742314	0.703964	-0.021645	0.027447	0.080009	1.000000	0.000052	0.000005	0.000020	-48.473743	-84.060367	41.468462
65464	9.885879	-0.794079	0.662051	0.017170	-0.025978	0.127056	1.000000	0.000015	0.000035	0.000038	-48.468065	-84.059350	41.446337
65465	9.848704	-0.756473	0.674377	0.006697	0.010276	0.088013	1.000000	0.000034	0.000029	0.000039	-48.466769	-84.058829	41.445070
65466	9.864786	-0.787647	0.673203	0.005480	-0.019586	0.106344	1.000000	0.000034	0.000029	0.000039	-48.465046	-84.058274	41.433911
65467	9.843796	-0.780499	0.683678	-0.005587	-0.012576	0.085632	1.000000	0.000020	0.000029	0.000041	-48.466135	-84.057610	41.433459
65468	9.874008	-0.744006	0.658321	0.026423	0.022455	0.111111	1.000000	0.000043	0.000034	0.000036	-48.453731	-84.056703	41.405541
65469	9.864501	-0.789666	0.675016	0.003673	-0.021417	0.106341	1.000000	0.000042	0.000013	0.000027	-48.455510	-84.058433	41.408238
65470	9.857386	-0.772966	0.646692	0.033173	-0.008755	0.096025	1.000000	0.000026	0.000040	0.000063	-48.463963	-84.055169	41.423132
65471	9.852849	-0.738262	0.669792	0.014082	0.028260	0.090408	1.000000	0.000052	0.000005	0.000020	-48.466097	-84.058096	41.427414
65472	9.843312	-0.784099	0.686527	-0.008677	-0.015610	0.085626	1.000000	0.000021	0.000046	0.000061	-48.467408	-84.054437	41.427303
65473	9.901426	-0.773182	0.680179	0.003536	-0.001481	0.142144	1.000000	0.000042	0.000013	0.000027	-48.469196	-84.056166	41.430008
65474	9.826970	-0.755003	0.689313	-0.009244	0.012440	0.067307	1.000000	0.000031	0.000021	0.000034	-48.469177	-84.056564	41.415258
65475	9.863932	-0.794110	0.678117	-0.000084	-0.025063	0.106333	1.000000	0.000031	0.000017	0.000045	-48.481936	-84.056431	41.427729
65476	9.894200	-0.757561	0.652494	0.032005	0.009908	0.131844	1.000000	0.000050	0.000019	0.000023	-48.470015	-84.057539	41.392438
65477	9.842869	-0.787527	0.688955	-0.011633	-0.018646	0.085618	1.000000	0.000037	0.000033	0.000056	-48.477307	-84.055292	41.400122
65478	9.868384	-0.773722	0.671597	0.009201	-0.005278	0.108733	1.000000	0.000045	0.000021	0.000032	-48.478327	-84.056182	41.413101
65479	9.868287	-0.774531	0.672090	0.008579	-0.005885	0.108733	1.000000	0.000006	0.000025	0.000053	-48.493095	-84.054708	41.424781
65480	9.868199	-0.775289	0.672504	0.007924	-0.006493	0.108733	1.000000	0.000042	0.000013	0.000027	-48.495997	-84.056590	41.440910
65481	9.847225	-0.768051	0.682833	-0.003114	0.000549	0.088020	1.000000	0.000028	0.000031	0.000048	-48.500175	-84.055130	41.444513
65482	9.900608	-0.779719	0.684602	-0.002056	-0.006987	0.142142	1.000000	0.000034	0.000029	0.000039	-48.500734	-84.054853	41.468214
65483	9.851772	-0.746967	0.675964	0.006669	0.020955	0.090434	1.000000	0.000039	0.000027	0.000030	-48.493964	-84.055254	41.462073
65484	9.867825	-0.778132	0.674710	0.005434	-0.008929	0.108733	1.000000	0.000031	0.000017	0.000045	-48.504547	-84.054901	41.451842
65485	9.846863	-0.770852	0.684900	-0.005597	-0.001879	0.088018	1.000000	0.000042	0.000013	0.000027	-48.506358	-84.056624	41.454570
65486	9.862908	-0.801979	0.683715	-0.006918	-0.031762	0.106312	1.000000	0.000037	0.000036	0.000045	-48.502986	-84.055144	41.460305
65487	9.858390	-0.767208	0.706885	-0.025960	0.005282	0.100709	1.000000	0.000031	0.000021	0.000034	-48.504427	-84.055669	41.461433
65488	9.855764	-0.785819	0.655866	0.022077	-0.019748	0.096040	1.000000	0.000031	0.000021	0.000034	-48.503370	-84.055989	41.450527
65489	9.881323	-0.771804	0.638501	0.042950	-0.006409	0.119181	1.000000	0.000034	0.000032	0.000028	-48.490757	-84.056120	41.437915
65490	9.846436	-0.773945	0.687542	-0.008643	-0.004914	0.088015	1.000000	0.000033	0.000007	0.000030	-48.499808	-84.057861	41.431361
65491	9.876403	-0.795548	0.647599	0.030625	-0.029248	0.116755	1.000000	0.000032	0.000042	0.000043	-48.489926	-84.056003	41.421218
65492	9.846226	-0.775513	0.688784	-0.009815	-0.006125	0.088013	1.000000	0.000020	0.000025	0.000052	-48.499344	-84.054371	41.405178
65493	9.867003	-0.784329	0.679530	-0.000047	-0.014410	0.108728	1.000000	0.000034	0.000029	0.000039	-48.498047	-84.053836	41.403907
65494	9.862141	-0.807474	0.688303	-0.011751	-0.036615	0.106290	1.000000	0.000034	0.000032	0.000028	-48.483556	-84.053774	41.370616
65495	9.857652	-0.772586	0.711296	-0.030726	0.000465	0.100697	1.000000	0.000027	0.000009	0.000039	-48.499048	-84.054688	41.385477
65496	9.883237	-0.758572	0.693746	-0.010001	0.013770	0.123851	1.000000	0.000045	0.000024	0.000021	-48.492785	-84.056624	41.420050
65497	9.866690	-0.786544	0.681523	-0.002637	-0.016827	0.108724	1.000000	0.000023	0.000019	0.000026	-48.491120	-84.057936	41.417103
65498	9.854900	-0.792195	0.661159	0.015903	-0.025837	0.096038	1.000000	0.000039	0.000023	0.000041	-48.492635	-84.057394	41.404390
65499	9.866509	-0.787914	0.682550	-0.003817	-0.018048	0.108721	1.000000	0.000034	0.000029	0.000039	-48.491339	-84.056856	41.403118
65500	9.850337	-0.757884	0.684663	-0.003882	0.010639	0.090452	1.000000	0.000025	0.000009	0.000012	-48.493769	-84.060891	41.461106
65501	9.838554	-0.763593	0.664180	0.014603	0.001656	0.077770	1.000000	0.000033	0.000021	0.000062	-48.515113	-84.059021	41.482521
65502	9.882753	-0.762466	0.696364	-0.013915	0.010117	0.123851	1.000000	0.000027	0.000009	0.000039	-48.533103	-84.060204	41.519535
65503	9.866182	-0.790639	0.684126	-0.006524	-0.020470	0.108715	1.000000	0.000034	0.000033	0.000028	-48.520487	-84.060331	41.506919
65504	9.861705	-0.755678	0.707214	-0.025630	0.016578	0.103133	1.000000	0.000031	0.000021	0.000034	-48.525062	-84.061211	41.540518
65505	9.859089	-0.774435	0.656228	0.022359	-0.008438	0.098491	1.000000	0.000025	0.000023	0.000043	-48.531976	-84.060796	41.546513
65506	9.870711	-0.770013	0.677571	0.002640	-0.000684	0.111171	1.000000	0.000031	0.000025	0.000023	-48.521469	-84.061915	41.528029
65507	9.858924	-0.775611	0.657322	0.021131	-0.009658	0.098493	1.000000	0.000034	0.000029	0.000039	-48.520171	-84.061374	41.526756
65508	9.896213	-0.756714	0.660807	0.022825	0.012023	0.134354	1.000000	0.000026	0.000027	0.000032	-48.517249	-84.061791	41.533670
65509	9.870427	-0.772063	0.679379	0.000736	-0.002505	0.111171	1.000000	0.000037	0.000033	0.000056	-48.524524	-84.059524	41.541332
65510	9.849462	-0.764841	0.689495	-0.010254	0.004581	0.090452	1.000000	0.000035	-0.000006	0.000027	-48.543031	-84.062673	41.556635
65511	9.858563	-0.778492	0.659327	0.018612	-0.012087	0.098495	1.000000	0.000027	0.000048	0.000040	-48.527264	-84.060541	41.539978
65512	9.854090	-0.743570	0.682473	-0.000274	0.024974	0.092924	1.000000	0.000042	0.000013	0.000027	-48.525187	-84.061804	41.498707
65513	9.842296	-0.749350	0.662206	0.018217	0.015987	0.080251	1.000000	0.000032	0.000039	0.000054	-48.526600	-84.059269	41.499879
65514	9.858259	-0.780792	0.661147	0.016866	-0.013929	0.098496	1.000000	0.000031	0.000017	0.000045	-48.538313	-84.059024	41.504508
65515	9.886375	-0.748894	0.695205	-0.010855	0.023826	0.126321	1.000000	0.000034	0.000033	0.000028	-48.525703	-84.059146	41.491898
65516	9.853714	-0.746507	0.684690	-0.002681	0.022547	0.092930	1.000000	0.000036	0.000015	0.000036	-48.531583	-84.059775	41.484082
65517	9.848810	-0.769673	0.693427	-0.014427	0.000353	0.090448	1.000000	0.000024	0.000041	0.000035	-48.518569	-84.058698	41.469839
65518	9.862721	-0.760889	0.655203	0.025484	0.005233	0.100981	1.000000	0.000041	0.000009	0.000038	-48.533747	-84.059966	41.501589
65519	9.857805	-0.784125	0.663967	0.013739	-0.016965	0.098496	1.000000	0.000027	0.000048	0.000041	-48.517983	-84.057829	41.484936
65520	9.869397	-0.779801	0.685472	-0.006041	-0.009183	0.111165	1.000000	0.000036	0.000015	0.000036	-48.527257	-84.058809	41.505473
65521	9.869310	-0.780537	0.685897	-0.006663	-0.009790	0.111164	1.000000	0.000025	0.000023	0.000043	-48.534165	-84.058387	41.511459
65522	9.841469	-0.755771	0.667177	0.012564	0.010537	0.080268	1.000000	0.000031	0.000021	0.000034	-48.537174	-84.059054	41.521940
65523	9.857445	-0.786919	0.666007	0.011168	-0.019383	0.098495	1.000000	0.000031	0.000021	0.000034	-48.538632	-84.059564	41.523079
65524	9.857364	-0.787546	0.666470	0.010560	-0.019996	0.098494	1.000000	0.000031	0.000021	0.000034	-48.539348	-84.060036	41.523006
65525	9.868949	-0.783347	0.687884	-0.009176	-0.012220	0.111159	1.000000	0.000037	0.000033	0.000056	-48.546611	-84.057758	41.530651
65526	9.866836	-0.744103	0.651176	0.031548	0.021966	0.103496	1.000000	0.000038	0.000005	0.000022	-48.551645	-84.060608	41.545758
65527	9.868805	-0.784595	0.688521	-0.010435	-0.013438	0.111156	1.000000	0.000041	0.000009	0.000038	-48.564837	-84.061646	41.559882
65528	9.868709	-0.785360	0.689033	-0.011021	-0.014046	0.111155	1.000000	0.000037	0.000037	0.000045	-48.559178	-84.059882	41.542733
65529	9.861749	-0.768706	0.660687	0.018601	-0.001455	0.100998	1.000000	0.000039	0.000023	0.000042	-48.563745	-84.059595	41.547946
65530	9.868502	-0.786948	0.690183	-0.012254	-0.015261	0.111152	1.000000	0.000025	0.000023	0.000043	-48.570011	-84.059119	41.549529
65531	9.849875	-0.775217	0.640898	0.036487	-0.011063	0.088338	1.000000	0.000039	0.000027	0.000030	-48.563271	-84.059500	41.543414
65532	9.840595	-0.762812	0.672039	0.006378	0.004464	0.080278	1.000000	0.000025	0.000023	0.000043	-48.571881	-84.059259	41.563286
65533	9.873084	-0.766456	0.683513	-0.003030	0.004501	0.113662	1.000000	0.000042	0.000013	0.000027	-48.573770	-84.060964	41.566086
65534	9.872994	-0.767134	0.684054	-0.003625	0.003894	0.113662	1.000000	0.000023	0.000037	0.000046	-48.571039	-84.059102	41.551359
65535	9.849524	-0.778035	0.642883	0.033985	-0.013493	0.088344	1.000000	0.000027	0.000009	0.000040	-48.586571	-84.059997	41.566252
00000	9.863614	-0.755571	0.715625	-0.034322	0.018824	0.105597	1.000000	0.000029	0.000035	0.000037	-48.580150	-84.059243	41.559283
00001	9.851826	-0.761326	0.695464	-0.015826	0.009828	0.092938	1.000000	0.000034	0.000029	0.000039	-48.578852	-84.058688	41.558005
00002	9.851734	-0.761963	0.696066	-0.016437	0.009218	0.092938	1.000000	0.000039	0.000027	0.000030	-48.571568	-84.059044	41.552445
00003	9.844305	-0.803184	0.653335	0.020348	-0.037501	0.085821	1.000000	0.000031	0.000021	0.000034	-48.573031	-84.059548	41.553588
00004	9.877317	-0.748635	0.679161	0.003812	0.021821	0.116190	1.000000	0.000031	0.000025	0.000023	-48.562101	-84.060616	41.535547
00005	9.849026	-0.781680	0.646085	0.030274	-0.017148	0.088350	1.000000	0.000028	0.000013	0.000028	-48.566326	-84.062178	41.539111
00006	9.888313	-0.802812	0.686720	-0.009409	-0.030303	0.131850	1.000000	0.000037	0.000037	0.000045	-48.561554	-84.060522	41.533667
00007	9.877046	-0.750639	0.680893	0.001964	0.019994	0.116195	1.000000	0.000023	0.000037	0.000046	-48.559824	-84.058765	41.530726
00008	9.860397	-0.778925	0.668846	0.009307	-0.010582	0.101005	1.000000	0.000031	0.000021	0.000034	-48.561142	-84.059270	41.531742
00009	9.881193	-0.787582	0.659624	0.018988	-0.018958	0.121730	1.000000	0.000039	0.000027	0.000030	-48.554410	-84.059645	41.525634
00010	9.851023	-0.767030	0.700558	-0.021330	0.004374	0.092932	1.000000	0.000034	0.000029	0.000039	-48.552085	-84.058991	41.515719
00011	9.876687	-0.753342	0.683112	-0.000491	0.017559	0.116199	1.000000	0.000022	0.000015	0.000037	-48.561744	-84.059617	41.524113
00012	9.887712	-0.807149	0.690291	-0.013151	-0.033954	0.131834	1.000000	0.000037	0.000037	0.000045	-48.558204	-84.058067	41.527205
00013	9.843926	-0.751871	0.673272	0.007071	0.015721	0.082826	1.000000	0.000034	0.000029	0.000039	-48.556909	-84.057506	41.525929
00014	9.871524	-0.777894	0.693054	-0.013562	-0.005832	0.113652	1.000000	0.000028	0.000017	0.000017	-48.550812	-84.059876	41.532975
00015	9.871463	-0.778394	0.693367	-0.014184	-0.006439	0.113651	1.000000	0.000041	0.000009	0.000038	-48.564025	-84.060902	41.547117
00016	9.871374	-0.779091	0.693856	-0.014815	-0.007035	0.113650	1.000000	0.000029	0.000035	0.000037	-48.557460	-84.060079	41.532435
00017	9.838726	-0.776701	0.683404	-0.006608	-0.008257	0.080276	1.000000	0.000026	0.000027	0.000032	-48.553052	-84.060312	41.527080
00018	9.866297	-0.802929	0.703177	-0.027227	-0.029806	0.111089	1.000000	0.000030	0.000017	0.000045	-48.565931	-84.060143	41.538917
00019	9.843439	-0.755682	0.676118	0.003316	0.012094	0.082834	1.000000	0.000031	0.000021	0.000034	-48.567399	-84.060640	41.540063
00020	9.896777	-0.767493	0.678036	0.004186	0.004302	0.136932	1.000000	0.000034	0.000029	0.000039	-48.564280	-84.059928	41.530532
00021	9.826705	-0.784491	0.664481	0.010067	-0.019085	0.067627	1.000000	0.000041	0.000013	0.000027	-48.566195	-84.061623	41.533354
00022	9.875749	-0.760581	0.688621	-0.007292	0.010881	0.116206	1.000000	0.000017	0.000021	0.000035	-48.568319	-84.061791	41.517959
00023	9.870769	-0.783679	0.697279	-0.019094	-0.011276	0.113639	1.000000	0.000045	0.000021	0.000033	-48.567472	-84.062424	41.518359
00024	9.875578	-0.761889	0.689627	-0.008535	0.009667	0.116207	1.000000	0.000020	0.000029	0.000041	-48.568408	-84.061723	41.518780
00025	9.861364	-0.771911	0.729063	-0.049729	0.003727	0.105549	1.000000	0.000042	0.000034	0.000036	-48.558919	-84.061030	41.510252
00026	9.872924	-0.781465	0.639505	0.038766	-0.016188	0.111653	1.000000	0.000031	0.000021	0.000034	-48.558576	-84.061378	41.503361
00027	9.849522	-0.778248	0.709237	-0.031814	-0.005896	0.092903	1.000000	0.000036	0.000015	0.000036	-48.565924	-84.062136	41.511010
00028	9.859269	-0.733909	0.693164	-0.010114	0.036592	0.098056	1.000000	0.000028	0.000013	0.000028	-48.572027	-84.063882	41.530611
00029	9.884364	-0.778283	0.661552	0.017734	-0.009593	0.124295	1.000000	0.000034	0.000029	0.000039	-48.570729	-84.063314	41.529329
00030	9.863383	-0.771015	0.671853	0.006919	-0.002399	0.103568	1.000000	0.000034	0.000025	0.000051	-48.577741	-84.061783	41.515715
00031	9.830746	-0.768727	0.661239	0.015155	-0.003606	0.070202	1.000000	0.000045	0.000021	0.000033	-48.576901	-84.062413	41.516121
00032	9.874868	-0.767293	0.693788	-0.013383	0.004808	0.116205	1.000000	0.000021	0.000033	0.000030	-48.564325	-84.062146	41.484323
00033	9.863109	-0.773040	0.673536	0.005109	-0.004224	0.103568	1.000000	0.000025	0.000023	0.000043	-48.571218	-84.061701	41.490287
00034	9.874681	-0.768682	0.694914	-0.014602	0.003601	0.116204	1.000000	0.000026	0.000027	0.000032	-48.565952	-84.061816	41.470661
00035	9.874590	-0.769363	0.695457	-0.015225	0.002996	0.116203	1.000000	0.000039	0.000023	0.000042	-48.570538	-84.061507	41.475887
00036	9.862831	-0.775193	0.675128	0.003361	-0.006052	0.103568	1.000000	0.000039	0.000023	0.000042	-48.571157	-84.060809	41.449666
00037	9.862754	-0.775818	0.675545	0.002738	-0.006658	0.103568	1.000000	0.000041	0.000013	0.000027	-48.573089	-84.062497	41.452504
00038	9.883539	-0.784608	0.666393	0.012384	-0.015113	0.124297	1.000000	0.000037	0.000037	0.000045	-48.567637	-84.060747	41.439634
00039	9.841669	-0.769202	0.686571	-0.008713	-0.000029	0.082838	1.000000	0.000023	0.000037	0.000046	-48.565875	-84.058974	41.436658
00040	9.883319	-0.786247	0.667730	0.011085	-0.016321	0.124296	1.000000	0.000036	0.000015	0.000036	-48.575374	-84.059942	41.462339
00041	9.874014	-0.773744	0.698763	-0.018885	-0.000641	0.116197	1.000000	0.000034	0.000029	0.000040	-48.574076	-84.059367	41.461056
00042	9.843877	-0.767221	0.628635	0.048976	-0.005022	0.080912	1.000000	0.000034	0.000029	0.000040	-48.575942	-84.059134	41.491137
00043	9.820418	-0.763995	0.698359	-0.021565	0.005401	0.062104	1.000000	0.000027	0.000010	0.000040	-48.591483	-84.060010	41.506033
00044	9.813614	-0.747327	0.669773	0.008231	0.017881	0.052085	1.000000	0.000029	0.000035	0.000037	-48.581333	-84.058887	41.474480
00045	9.989677	-0.812174	0.673214	0.010640	-0.033894	0.232472	1.000000	0.000055	0.000013	0.000026	-48.580978	-84.060709	41.476599
00046	9.798623	-0.815732	0.695480	-0.026721	-0.047892	0.044245	1.000000	0.000021	0.000033	0.000030	-48.571975	-84.060834	41.481537
00047	9.903565	-0.799125	0.661733	0.016900	-0.028431	0.145023	1.000000	0.000033	0.000025	0.000051	-48.581977	-84.059583	41.491572
00048	9.845815	-0.752868	0.682983	-0.003131	0.016051	0.085448	1.000000	0.000033	0.000011	0.000020	-48.579406	-84.061903	41.475786
00049	9.861662	-0.783987	0.682025	-0.004764	-0.013932	0.103559	1.000000	0.000029	0.000035	0.000037	-48.572218	-84.061061	41.467990
00050	9.866513	-0.762258	0.674474	0.005885	0.006975	0.106180	1.000000	0.000034	0.000029	0.000040	-48.569499	-84.060338	41.454433
00051	9.838848	-0.737516	0.655587	0.025402	0.027302	0.075450	1.000000	0.000030	0.000017	0.000045	-48.582271	-84.060147	41.466897
00052	9.865630	-0.821853	0.661457	0.011507	-0.053583	0.109037	1.000000	0.000034	0.000033	0.000028	-48.568539	-84.060148	41.448515
00053	9.894500	-0.731830	0.709528	-0.022936	0.043561	0.134056	1.000000	0.000030	0.000017	0.000045	-48.581310	-84.059956	41.460978
00054	9.798574	-0.763131	0.713654	-0.038375	0.006669	0.041357	1.000000	0.000041	0.000009	0.000038	-48.591565	-84.060655	41.448429
00055	9.914509	-0.799564	0.686467	-0.007078	-0.024871	0.157637	1.000000	0.000031	0.000021	0.000034	-48.593037	-84.061136	41.449576
00056	9.847664	-0.754194	0.627275	0.051780	0.007896	0.083576	1.000000	0.000031	0.000021	0.000034	-48.592980	-84.061426	41.429104
00057	9.845035	-0.758996	0.687423	-0.008521	0.010611	0.085452	1.000000	0.000034	0.000029	0.000040	-48.591679	-84.060844	41.427816
00058	9.870779	-0.745467	0.670133	0.012311	0.023618	0.108823	1.000000	0.000034	0.000029	0.000040	-48.590873	-84.060301	41.429130
00059	9.856485	-0.755427	0.709451	-0.028882	0.017873	0.098071	1.000000	0.000025	0.000023	0.000043	-48.597751	-84.059843	41.435076
00060	9.860658	-0.791635	0.687676	-0.011484	-0.020584	0.103542	1.000000	0.000037	0.000023	0.000014	-48.583138	-84.061990	41.423317
00061	9.865537	-0.769805	0.680150	-0.000838	0.000307	0.106185	1.000000	0.000026	0.000045	0.000052	-48.578580	-84.059142	41.417881
00062	9.851225	-0.779825	0.719494	-0.041988	-0.005415	0.095422	1.000000	0.000041	0.000009	0.000038	-48.590184	-84.059945	41.412090
00063	9.886241	-0.779340	0.671386	0.008147	-0.008804	0.126918	1.000000	0.000028	0.000017	0.000017	-48.583134	-84.062163	41.404357
00064	9.874512	-0.785031	0.651058	0.026690	-0.017899	0.114302	1.000000	0.000028	0.000031	0.000049	-48.584572	-84.060354	41.381347
00065	9.871847	-0.789914	0.711173	-0.033612	-0.015114	0.116147	1.000000	0.000036	0.000015	0.000036	-48.591940	-84.061093	41.389011
00066	9.844237	-0.764974	0.692211	-0.013957	0.005186	0.085450	1.000000	0.000039	0.000027	0.000031	-48.582628	-84.061223	41.368251
00067	9.865028	-0.773775	0.683024	-0.004405	-0.003332	0.106183	1.000000	0.000036	0.000015	0.000036	-48.589997	-84.061961	41.375916
00068	9.860687	-0.738933	0.705811	-0.023076	0.033953	0.100720	1.000000	0.000037	0.000033	0.000056	-48.600036	-84.059873	41.401022
00069	9.885714	-0.783424	0.674381	0.004456	-0.012448	0.126916	1.000000	0.000052	0.000009	0.000009	-48.591207	-84.063423	41.394307
00070	9.848133	-0.803230	0.671953	0.001535	-0.035113	0.090907	1.000000	0.000023	0.000037	0.000046	-48.586062	-84.061356	41.371590
00071	9.864648	-0.776583	0.685323	-0.006888	-0.005751	0.106181	1.000000	0.000037	0.000037	0.000045	-48.581983	-84.059702	41.367862
00072	9.827802	-0.738422	0.697107	-0.016554	0.030965	0.067377	1.000000	0.000034	0.000033	0.000028	-48.569815	-84.059856	41.364582
00073	9.878682	-0.768751	0.647969	0.032423	-0.001903	0.116972	1.000000	0.000034	0.000029	0.000040	-48.568514	-84.059265	41.363293
00074	9.878599	-0.769327	0.648552	0.031826	-0.002518	0.116974	1.000000	0.000031	0.000025	0.000023	-48.557589	-84.060306	41.342966
00075	9.836782	-0.753407	0.668400	0.010884	0.012737	0.075506	1.000000	0.000026	0.000027	0.000032	-48.553164	-84.060517	41.337590
00076	9.890080	-0.765234	0.670575	0.011560	0.004744	0.129585	1.000000	0.000026	0.000031	0.000021	-48.533868	-84.061082	41.294777
00077	9.866492	-0.761738	0.740614	-0.058891	0.015555	0.110654	1.000000	0.000026	0.000045	0.000052	-48.529313	-84.058225	41.289344
00078	9.863986	-0.780968	0.689855	-0.011121	-0.009992	0.106173	1.000000	0.000041	0.000009	0.000038	-48.540814	-84.059046	41.286441
00079	9.854687	-0.768166	0.720662	-0.040990	0.005859	0.098043	1.000000	0.000028	0.000017	0.000017	-48.533753	-84.061258	41.278696
00080	9.842974	-0.773752	0.700366	-0.022469	-0.003255	0.085435	1.000000	0.000029	0.000035	0.000037	-48.524515	-84.060237	41.258536
00081	9.880397	-0.755094	0.703978	-0.020713	0.018160	0.121458	1.000000	0.000039	0.000027	0.000031	-48.517813	-84.060581	41.252452
00082	9.815312	-0.749408	0.682066	-0.003406	0.016437	0.054779	1.000000	0.000031	0.000021	0.000034	-48.518729	-84.061002	41.249306
00083	9.884455	-0.792065	0.682700	-0.004051	-0.020972	0.126902	1.000000	0.000036	0.000015	0.000036	-48.526097	-84.061733	41.256967
00084	9.845267	-0.772288	0.642704	0.034765	-0.009211	0.083649	1.000000	0.000022	0.000016	0.000038	-48.533785	-84.062175	41.253740
00085	9.900939	-0.765956	0.696127	-0.013015	0.007778	0.142193	1.000000	0.000048	0.000029	0.000038	-48.530213	-84.061713	41.251748
00086	9.868351	-0.763453	0.685463	-0.004621	0.006607	0.108855	1.000000	0.000044	0.000021	0.000033	-48.527002	-84.062135	41.239528
00087	9.894192	-0.749818	0.667766	0.016234	0.019481	0.132288	1.000000	0.000035	-0.000006	0.000027	-48.545819	-84.065257	41.258583
00088	9.873246	-0.742232	0.677803	0.005483	0.026841	0.111554	1.000000	0.000032	0.000043	0.000043	-48.535731	-84.063346	41.250765
00089	9.856478	-0.770524	0.665930	0.012603	-0.003731	0.096256	1.000000	0.000039	0.000023	0.000042	-48.540331	-84.063009	41.255998
00090	9.856398	-0.771134	0.666403	0.013648	-0.004653	0.096254	1.000000	0.000036	0.000019	0.000025	-48.460285	-84.058544	41.333042
00091	9.867943	-0.766632	0.687786	-0.006087	0.003213	0.108856	1.000000	0.000034	0.000029	0.000040	-48.458794	-84.057929	41.331603
00092	9.835355	-0.764144	0.677150	0.002248	0.002086	0.075520	1.000000	0.000026	0.000027	0.000032	-48.455002	-84.058206	41.334392
00093	9.841847	-0.782120	0.706887	-0.028784	-0.011521	0.085413	1.000000	0.000034	0.000029	0.000040	-48.453512	-84.057589	41.332953
00094	9.861097	-0.751174	0.660351	0.022458	0.014396	0.098965	1.000000	0.000028	0.000017	0.000017	-48.446372	-84.059766	41.319109
00095	9.835101	-0.765922	0.678824	0.000401	0.000275	0.075520	1.000000	0.000023	0.000037	0.000046	-48.444395	-84.057948	41.315954
00096	9.902662	-0.768967	0.642245	0.041508	-0.002737	0.140441	1.000000	0.000041	0.000013	0.000027	-48.445599	-84.059568	41.319520
00097	9.876668	-0.783768	0.660557	0.019449	-0.016857	0.116992	1.000000	0.000025	0.000023	0.000043	-48.452273	-84.059078	41.325297
00098	9.850659	-0.798597	0.679003	-0.002620	-0.030972	0.093539	1.000000	0.000039	0.000027	0.000031	-48.445811	-84.059456	41.324701
00099	9.904776	-0.752486	0.695193	-0.008737	0.020341	0.144904	1.000000	0.000029	0.000035	0.000037	-48.438425	-84.058574	41.316743
00100	9.862089	-0.794808	0.701071	-0.022992	-0.023713	0.106130	1.000000	0.000036	0.000015	0.000036	-48.446180	-84.059360	41.332894
00101	9.872110	-0.750710	0.684980	-0.001002	0.018616	0.111574	1.000000	0.000034	0.000029	0.000040	-48.444692	-84.058739	41.331455
00102	9.846078	-0.765688	0.703464	-0.023047	0.004511	0.088113	1.000000	0.000033	0.000025	0.000051	-48.454317	-84.057422	41.338817
00103	9.843631	-0.784824	0.652504	0.024706	-0.021009	0.083662	1.000000	0.000038	0.000005	0.000022	-48.458841	-84.060134	41.343941
00104	9.887660	-0.783396	0.685131	-0.004119	-0.012631	0.129584	1.000000	0.000037	0.000041	0.000034	-48.447098	-84.059482	41.357191
00105	9.850876	-0.745224	0.696792	-0.013687	0.024167	0.090840	1.000000	0.000028	0.000031	0.000049	-48.451012	-84.057921	41.360547
00106	9.860038	-0.759326	0.666819	0.014908	0.007129	0.098987	1.000000	0.000028	0.000013	0.000029	-48.456500	-84.059587	41.378129
00107	9.854889	-0.782352	0.675585	0.002993	-0.014946	0.096253	1.000000	0.000034	0.000029	0.000040	-48.455011	-84.058963	41.376690
00108	9.862229	-0.742140	0.719198	-0.034726	0.030809	0.103432	1.000000	0.000026	0.000027	0.000032	-48.451034	-84.059228	41.379910
00109	9.854720	-0.783581	0.676629	0.001741	-0.016160	0.096251	1.000000	0.000028	0.000013	0.000029	-48.455064	-84.060739	41.383310
00110	9.880569	-0.770160	0.659282	0.022548	-0.003276	0.119730	1.000000	0.000037	0.000037	0.000045	-48.450449	-84.059034	41.382302
00111	9.854506	-0.785129	0.677954	0.000512	-0.017376	0.096249	1.000000	0.000023	0.000037	0.000047	-48.448459	-84.057209	41.379132
00112	9.854416	-0.785832	0.678446	-0.000095	-0.017990	0.096248	1.000000	0.000046	0.000007	0.000030	-48.455526	-84.059105	41.393404
00113	9.859417	-0.764073	0.670561	0.010587	0.002870	0.098995	1.000000	0.000034	0.000029	0.000040	-48.454038	-84.058479	41.391964
00114	9.877475	-0.776842	0.721119	-0.039591	-0.002279	0.121417	1.000000	0.000036	0.000019	0.000025	-48.449743	-84.059838	41.385848
00115	9.891732	-0.768468	0.682842	0.000337	0.002134	0.132320	1.000000	0.000039	0.000023	0.000042	-48.454160	-84.059473	41.390934
00116	9.842463	-0.793544	0.659531	0.016533	-0.028871	0.083659	1.000000	0.000039	0.000023	0.000042	-48.460335	-84.059278	41.410249
00117	9.882297	-0.756430	0.714332	-0.030187	0.017365	0.124165	1.000000	0.000031	0.000025	0.000023	-48.450306	-84.060395	41.399914
00118	9.843214	-0.736623	0.674428	0.008648	0.029291	0.081017	1.000000	0.000047	0.000025	0.000050	-48.458374	-84.059274	41.413328
00119	9.863982	-0.745644	0.665482	0.018140	0.020696	0.101759	1.000000	0.000034	0.000033	0.000029	-48.445585	-84.059323	41.400573
00120	9.863896	-0.746349	0.665973	0.017478	0.020092	0.101761	1.000000	0.000035	0.000012	0.000048	-48.465551	-84.059522	41.435694
00121	9.870323	-0.764382	0.695527	-0.013575	0.006475	0.111580	1.000000	0.000031	0.000021	0.000034	-48.466824	-84.059960	41.436676
00122	9.891108	-0.773346	0.686369	-0.004064	-0.002120	0.132319	1.000000	0.000036	0.000015	0.000036	-48.473155	-84.060535	41.430255
00123	9.858555	-0.770778	0.675546	0.004356	-0.003194	0.099000	1.000000	0.000026	0.000027	0.000032	-48.468519	-84.060711	41.424706
00124	9.853354	-0.793952	0.684378	-0.007516	-0.025259	0.096229	1.000000	0.000038	0.000019	0.000053	-48.481821	-84.059399	41.417723
00125	9.853268	-0.794691	0.684764	-0.008135	-0.025865	0.096227	1.000000	0.000041	0.000013	0.000027	-48.483619	-84.061035	41.420458
00126	9.858287	-0.773037	0.676879	0.002552	-0.005012	0.098999	1.000000	0.000033	0.000025	0.000051	-48.494198	-84.059760	41.429263
00127	9.816478	-0.757024	0.696476	-0.018240	0.010397	0.057519	1.000000	0.000028	0.000017	0.000018	-48.486945	-84.061942	41.421365
00128	9.858122	-0.774265	0.677877	0.001326	-0.006220	0.098999	1.000000	0.000042	0.000031	0.000048	-48.488498	-84.060443	41.415124
00129	9.869628	-0.769925	0.699258	-0.018425	0.001648	0.111574	1.000000	0.000036	0.000015	0.000036	-48.495687	-84.061138	41.422641
00130	9.878810	-0.783948	0.669304	0.010168	-0.015444	0.119739	1.000000	0.000041	0.000026	0.000027	-48.487148	-84.061774	41.408909
00131	9.852751	-0.798583	0.687669	-0.011861	-0.029479	0.096214	1.000000	0.000035	0.000016	0.000038	-48.495300	-84.062300	41.417280
00132	9.857795	-0.776875	0.679637	-0.001159	-0.008640	0.098997	1.000000	0.000043	0.000008	0.000035	-48.506498	-84.063733	41.433495
00133	9.869318	-0.772356	0.700962	-0.020910	-0.000769	0.111569	1.000000	0.000020	0.000033	0.000030	-48.496320	-84.063578	41.421738
00134	9.875718	-0.790046	0.730767	-0.052011	-0.014351	0.121350	1.000000	0.000034	0.000024	0.000018	-48.483784	-84.065299	41.418004
00135	9.890023	-0.781734	0.692477	-0.012090	-0.010010	0.132308	1.000000	0.000029	0.000018	0.000047	-48.497313	-84.064886	41.431144
00136	9.862614	-0.756757	0.673177	0.007683	0.010376	0.101789	1.000000	0.000046	0.000011	0.000020	-48.494938	-84.067313	41.432094
00137	9.869024	-0.774468	0.702757	-0.023403	-0.003198	0.111563	1.000000	0.000032	0.000021	0.000033	-48.495172	-84.067926	41.432152
00138	9.888465	-0.743804	0.656125	0.027830	0.022580	0.125331	1.000000	0.000032	0.000021	0.000033	-48.496458	-84.068617	41.436562
00139	9.888390	-0.744405	0.656586	0.027213	0.021970	0.125334	1.000000	0.000032	0.000021	0.000033	-48.496686	-84.069230	41.436614
00140	9.855862	-0.741740	0.645664	0.035703	0.020908	0.092027	1.000000	0.000040	0.000014	0.000029	-48.498205	-84.070578	41.430429
00141	9.866390	-0.795349	0.653186	0.022467	-0.030612	0.107164	1.000000	0.000021	0.000020	0.000029	-48.497923	-84.071538	41.428714
00142	9.867319	-0.737698	0.667413	0.015218	0.028188	0.104600	1.000000	0.000040	0.000027	0.000030	-48.494940	-84.072306	41.457441
00143	9.856968	-0.783017	0.684568	-0.008061	-0.015304	0.098986	1.000000	0.000024	0.000015	0.000035	-48.502569	-84.073180	41.464033
00144	9.888028	-0.747253	0.658792	0.024034	0.018935	0.125348	1.000000	0.000040	0.000027	0.000030	-48.495670	-84.073593	41.465621
00145	9.871211	-0.775285	0.646868	0.031229	-0.011585	0.109974	1.000000	0.000040	0.000027	0.000030	-48.488469	-84.073947	41.459108
00146	9.867013	-0.739946	0.669444	0.012774	0.025747	0.104611	1.000000	0.000048	0.000020	0.000027	-48.482558	-84.075053	41.448285
00147	9.850201	-0.767988	0.657408	0.019965	-0.004771	0.089233	1.000000	0.000043	0.000022	0.000036	-48.483264	-84.075321	41.450076
00148	9.882574	-0.771848	0.669216	0.010250	-0.004950	0.122540	1.000000	0.000032	0.000021	0.000032	-48.483846	-84.075976	41.452846
00149	9.887647	-0.750068	0.661306	0.020970	0.015878	0.125361	1.000000	0.000021	0.000020	0.000029	-48.483538	-84.076938	41.451106
00150	9.899158	-0.745553	0.682683	0.001278	0.023734	0.137924	1.000000	0.000023	0.000028	0.000036	-48.478680	-84.076458	41.427412
00151	9.861468	-0.765278	0.680298	-0.001591	0.001267	0.101797	1.000000	0.000040	0.000027	0.000030	-48.471454	-84.076813	41.420876
00152	9.861368	-0.766006	0.680924	-0.002299	0.000669	0.101797	1.000000	0.000029	0.000031	0.000048	-48.478775	-84.075645	41.452481
00153	9.866416	-0.744475	0.673207	0.008425	0.021496	0.104625	1.000000	0.000034	0.000029	0.000039	-48.476926	-84.075061	41.450715
00154	9.856003	-0.789931	0.690490	-0.014835	-0.021982	0.098966	1.000000	0.000026	0.000023	0.000041	-48.480635	-84.074571	41.441761
00155	9.840206	-0.759904	0.692261	-0.014145	0.006900	0.081052	1.000000	0.000031	0.000034	0.000034	-48.470863	-84.074073	41.431675
00156	9.872562	-0.763682	0.704310	-0.023920	0.006710	0.114353	1.000000	0.000037	0.000032	0.000025	-48.457835	-84.074729	41.434445
00157	9.872471	-0.764396	0.704806	-0.024537	0.006104	0.114352	1.000000	0.000032	0.000013	0.000053	-48.479221	-84.074233	41.455845
00158	9.860794	-0.770296	0.684387	-0.006091	-0.002971	0.101795	1.000000	0.000040	0.000027	0.000030	-48.475442	-84.074929	41.478126
00159	9.849126	-0.775973	0.664110	0.012444	-0.012043	0.089239	1.000000	0.000040	0.000027	0.000030	-48.468195	-84.075286	41.471571
00160	9.860619	-0.771473	0.685586	-0.007325	-0.004182	0.101793	1.000000	0.000034	0.000029	0.000039	-48.466500	-84.074698	41.465428
00161	9.822902	-0.791286	0.683227	-0.010166	-0.026625	0.065649	1.000000	0.000034	0.000029	0.000039	-48.464622	-84.074115	41.463635
00162	9.860425	-0.772887	0.686773	-0.008534	-0.005393	0.101792	1.000000	0.000043	0.000022	0.000036	-48.464408	-84.074274	41.453951
00163	9.855155	-0.795915	0.695707	-0.020499	-0.027428	0.098942	1.000000	0.000034	0.000029	0.000039	-48.462521	-84.073692	41.452151
00164	9.855064	-0.796523	0.696301	-0.021133	-0.028035	0.098939	1.000000	0.000029	0.000026	0.000027	-48.455485	-84.074472	41.450363
00165	9.839298	-0.766417	0.697961	-0.020428	0.000858	0.081043	1.000000	0.000026	0.000023	0.000041	-48.461006	-84.074150	41.455107
00166	9.880930	-0.783938	0.679365	-0.001009	-0.015892	0.122534	1.000000	0.000024	0.000015	0.000035	-48.469218	-84.075078	41.464903
00167	9.850703	-0.762599	0.719836	-0.040823	0.008122	0.093590	1.000000	0.000039	0.000040	0.000031	-48.451986	-84.074324	41.448226
00168	9.876666	-0.749236	0.702482	-0.020122	0.020864	0.117193	1.000000	0.000033	0.000008	0.000031	-48.464096	-84.076253	41.474977
00169	9.906728	-0.771871	0.662960	0.018457	-0.004364	0.146138	1.000000	0.000026	0.000023	0.000041	-48.469605	-84.075931	41.479709
00170	9.848157	-0.783216	0.669950	0.005585	-0.018711	0.089235	1.000000	0.000032	0.000021	0.000032	-48.470735	-84.076654	41.489097
00171	9.859655	-0.778672	0.691284	-0.014187	-0.010852	0.101781	1.000000	0.000032	0.000021	0.000032	-48.470868	-84.077272	41.489063
00172	9.880426	-0.787855	0.682155	-0.004824	-0.019539	0.122526	1.000000	0.000022	0.000012	0.000049	-48.493320	-84.077291	41.524205
00173	9.879164	-0.749009	0.644868	0.036403	0.014245	0.115718	1.000000	0.000037	0.000019	0.000023	-48.488084	-84.078850	41.519410
00174	9.847858	-0.785548	0.671606	0.003086	-0.021133	0.089231	1.000000	0.000051	0.000022	0.000012	-48.470065	-84.081056	41.498418
00175	9.869759	-0.736272	0.676164	0.006007	0.029574	0.107521	1.000000	0.000029	0.000018	0.000047	-48.483482	-84.080649	41.511455
00176	9.906178	-0.776285	0.666019	0.014067	-0.008642	0.146142	1.000000	0.000026	0.000023	0.000041	-48.488419	-84.080358	41.521687
00177	9.858005	-0.742913	0.656284	0.023937	0.019882	0.094982	1.000000	0.000040	0.000027	0.000030	-48.481113	-84.080719	41.515079
00178	9.864287	-0.760758	0.686089	-0.007205	0.006313	0.104648	1.000000	0.000026	0.000023	0.000041	-48.487237	-84.080482	41.527914
00179	9.878681	-0.752761	0.647901	0.032695	0.010575	0.115735	1.000000	0.000034	0.000029	0.000039	-48.485289	-84.079903	41.526057
00180	9.852517	-0.767436	0.666357	0.010693	-0.003358	0.092107	1.000000	0.000037	0.000024	0.000045	-48.492761	-84.079352	41.539461
00181	9.873272	-0.776518	0.657613	0.020081	-0.012060	0.112855	1.000000	0.000036	0.000045	0.000026	-48.467539	-84.078689	41.514403
00182	9.863893	-0.763664	0.688514	-0.009723	0.003890	0.104647	1.000000	0.000014	0.000006	0.000051	-48.496729	-84.078884	41.546986
00183	9.852238	-0.769578	0.668009	0.008825	-0.005179	0.092108	1.000000	0.000040	0.000027	0.000030	-48.489408	-84.079247	41.540364
00184	9.878219	-0.756304	0.650806	0.029538	0.007542	0.115748	1.000000	0.000042	0.000035	0.000037	-48.480942	-84.078476	41.535838
00185	9.863617	-0.765668	0.690245	-0.011590	0.002071	0.104645	1.000000	0.000051	0.000028	0.000033	-48.474113	-84.078494	41.530969
00186	9.879163	-0.796999	0.689780	-0.013606	-0.028060	0.122497	1.000000	0.000040	0.000027	0.000030	-48.468832	-84.079078	41.543545
00187	9.868655	-0.744639	0.683077	-0.001528	0.022276	0.107542	1.000000	0.000029	0.000031	0.000048	-48.472212	-84.077561	41.546411
00188	9.858099	-0.790148	0.700399	-0.024842	-0.021181	0.101743	1.000000	0.000019	0.000017	0.000044	-48.485139	-84.077540	41.562247
00189	9.868458	-0.746265	0.684154	-0.002764	0.021055	0.107544	1.000000	0.000042	0.000035	0.000037	-48.475733	-84.076706	41.553800
00190	9.863132	-0.769292	0.693136	-0.014783	-0.000972	0.104641	1.000000	0.000046	0.000017	0.000041	-48.486529	-84.077117	41.580923
00191	9.851467	-0.775169	0.672888	0.003773	-0.010032	0.092107	1.000000	0.000023	0.000042	0.000037	-48.474051	-84.075774	41.567140
00192	9.862925	-0.770809	0.694392	-0.016027	-0.002186	0.104639	1.000000	0.000029	0.000018	0.000047	-48.487998	-84.075417	41.583430
00193	9.856502	-0.754452	0.665622	0.013875	0.010175	0.095016	1.000000	0.000034	0.000029	0.000039	-48.485998	-84.074841	41.581525
00194	9.857486	-0.794729	0.703833	-0.028653	-0.024821	0.101725	1.000000	0.000029	0.000018	0.000047	-48.501590	-84.074640	41.609543
00195	9.841775	-0.764701	0.705444	-0.027912	0.004104	0.083885	1.000000	0.000031	0.000034	0.000034	-48.491667	-84.074152	41.599320
00196	9.877072	-0.765287	0.657673	0.021958	0.000242	0.115770	1.000000	0.000014	0.000006	0.000051	-48.519780	-84.074291	41.629067
00197	9.857217	-0.796918	0.705119	-0.030505	-0.026647	0.101714	1.000000	0.000054	0.000017	0.000018	-48.509657	-84.076451	41.621260
00198	9.867636	-0.752719	0.688928	-0.008493	0.015583	0.107551	1.000000	0.000039	0.000040	0.000031	-48.494479	-84.075955	41.625035
00199	9.883133	-0.784294	0.688520	-0.010467	-0.014563	0.125379	1.000000	0.000013	0.000020	0.000053	-48.512638	-84.074954	41.640952
00200	9.850627	-0.781780	0.677530	-0.001926	-0.015493	0.092101	1.000000	0.000032	0.000021	0.000032	-48.514644	-84.075741	41.652921
00201	9.855802	-0.760173	0.669479	0.008798	0.005320	0.095026	1.000000	0.000038	0.000011	0.000043	-48.530531	-84.076190	41.669438
00202	9.850462	-0.783203	0.678282	-0.003160	-0.016700	0.092099	1.000000	0.000043	0.000022	0.000036	-48.531573	-84.076442	41.667296
00203	9.867197	-0.756361	0.691217	-0.011613	0.012555	0.107552	1.000000	0.000032	0.000021	0.000032	-48.531621	-84.077066	41.667184
00204	9.867119	-0.756955	0.691680	-0.012235	0.011946	0.107552	1.000000	0.000032	0.000021	0.000032	-48.531942	-84.077720	41.669798
00205	9.871052	-0.793709	0.670296	0.004958	-0.026649	0.112846	1.000000	0.000032	0.000026	0.000054	-48.543142	-84.076118	41.680885
00206	9.876216	-0.772186	0.662453	0.015651	-0.005836	0.115781	1.000000	0.000040	0.000027	0.000030	-48.537266	-84.076634	41.686159
00207	9.855297	-0.764277	0.672228	0.005066	0.001679	0.095030	1.000000	0.000025	0.000002	0.000033	-48.554743	-84.078625	41.702749
00208	9.864508	-0.778646	0.642326	0.033604	-0.015496	0.103261	1.000000	0.000026	0.000036	0.000043	-48.550295	-84.077157	41.692791
00209	9.849846	-0.787936	0.681732	-0.007507	-0.020947	0.092088	1.000000	0.000029	0.000026	0.000027	-48.542410	-84.077870	41.684353
00210	9.855032	-0.766324	0.673784	0.003249	-0.000136	0.095031	1.000000	0.000029	0.000018	0.000047	-48.555074	-84.077346	41.687179
00211	9.875785	-0.775576	0.664911	0.012594	-0.008881	0.115783	1.000000	0.000031	0.000034	0.000034	-48.545085	-84.076863	41.676896
00212	9.875706	-0.776093	0.665487	0.012008	-0.009492	0.115783	1.000000	0.000037	0.000019	0.000023	-48.538703	-84.078278	41.659825
00213	9.866335	-0.762954	0.696262	-0.017744	0.006494	0.107549	1.000000	0.000043	0.000022	0.000036	-48.539215	-84.078560	41.661441
