// Start Time: Unknown
// Update Rate: 100.0Hz
// Filter Profile: human (46.1)
// Firmware Version: 4.4.0
PacketCounter	Acc_X	Acc_Y	Acc_Z	FreeAcc_X	FreeAcc_Y	FreeAcc_Z	OriInc_q0	OriInc_q1	OriInc_q2	OriInc_q3	Roll	Pitch	Yaw
42140	9.579065	0.042402	-2.182266	0.000000	-0.000000	0.011903	1.000000	-0.000007	0.000012	0.000030	178.879859	-77.163063	-166.173416
42141	9.616431	0.008703	-2.204082	0.000000	0.000000	0.053101	1.000000	-0.000007	0.000021	0.000029	179.766829	-77.089505	-166.363665
42142	9.588107	0.017819	-2.158058	-0.029509	-0.015188	0.015244	1.000000	-0.000006	0.000019	0.000012	179.323862	-77.128072	-166.273150
42143	9.599810	0.036630	-2.193741	-0.002258	0.010675	0.034651	1.000000	-0.000011	0.000002	0.000020	179.332550	-77.128383	-166.283366
42144	9.633076	0.031785	-2.184914	-0.016461	0.003023	0.065103	1.000000	-0.000024	0.000032	0.000045	179.355603	-77.132743	-166.310259
42145	9.629449	0.007273	-2.181614	-0.012724	-0.020712	0.060771	1.000000	-0.000008	0.000037	0.000018	179.363462	-77.137048	-166.319305
42146	9.600170	0.035133	-2.192192	-0.002175	0.010832	0.034651	1.000000	0.000004	0.000020	0.000026	179.377109	-77.139426	-166.332875
42147	9.609131	0.010868	-2.168283	-0.021071	-0.017869	0.038008	1.000000	-0.000010	0.000022	0.000036	179.393847	-77.141949	-166.351272
42148	9.583923	0.009793	-2.209634	0.024213	-0.007928	0.022633	1.000000	-0.000020	0.000021	0.000022	179.402455	-77.144454	-166.362463
42149	9.604571	0.004817	-2.221529	0.032568	-0.010767	0.045396	1.000000	-0.000013	0.000029	0.000025	179.413444	-77.147861	-166.375234
42150	9.609459	0.009577	-2.166834	-0.021070	-0.017844	0.038008	1.000000	-0.000002	0.000029	0.000022	179.424751	-77.151106	-166.387082
42151	9.593131	-0.015112	-2.184613	0.005300	-0.036612	0.025989	1.000000	-0.000013	0.000021	0.000026	179.435955	-77.153514	-166.400153
42152	9.597011	0.008481	-2.186841	0.001559	-0.012819	0.030320	1.000000	-0.000020	0.000021	0.000022	179.446018	-77.155964	-166.412762
42153	9.642948	0.003922	-2.156966	-0.035354	-0.025591	0.068459	1.000000	0.000007	0.000030	0.000036	179.465001	-77.159400	-166.431377
42154	9.613975	-0.021052	-2.195630	0.013676	-0.039300	0.048753	1.000000	-0.000023	0.000020	0.000011	179.470167	-77.161954	-166.439279
42155	9.589420	0.012252	-2.152255	-0.029404	-0.014856	0.015244	1.000000	-0.000006	0.000019	0.000012	179.475579	-77.164156	-166.445539
42156	9.639431	-0.020968	-2.153105	-0.031549	-0.049088	0.064130	1.000000	-0.000013	0.000021	0.000026	179.490237	-77.166992	-166.461979
42157	9.597492	0.006665	-2.184736	0.001626	-0.012583	0.030321	1.000000	-0.000010	0.000020	0.000019	179.498563	-77.169295	-166.471662
42158	9.618118	0.001738	-2.196722	0.010055	-0.015209	0.053085	1.000000	-0.000010	0.000020	0.000019	179.511823	-77.172307	-166.486157
42159	9.597686	0.006026	-2.183887	0.001700	-0.012372	0.030321	1.000000	-0.000009	0.000029	0.000018	179.519960	-77.175608	-166.495566
42160	9.609490	0.025003	-2.219304	0.029009	0.013732	0.049726	1.000000	-0.000026	0.000019	0.000001	179.523154	-77.178435	-166.501617
42161	9.597871	0.005913	-2.183072	0.001758	-0.012132	0.030321	1.000000	-0.000002	0.000018	0.000006	179.525674	-77.180534	-166.504475
42162	9.597958	0.005592	-2.182690	0.001771	-0.011907	0.030321	1.000000	-0.000017	0.000022	0.000032	179.545520	-77.183419	-166.526548
42163	9.609755	0.024299	-2.218162	0.029023	0.013958	0.049725	1.000000	-0.000016	0.000020	0.000015	179.551204	-77.185712	-166.534307
42164	9.598157	0.004887	-2.181817	0.001736	-0.011695	0.030322	1.000000	-0.000013	0.000029	0.000025	179.567900	-77.189200	-166.552625
42165	9.618807	-0.000094	-2.193706	0.010091	-0.014530	0.053086	1.000000	-0.000010	0.000020	0.000019	179.576251	-77.191499	-166.562333
42166	9.593347	0.051817	-2.206998	0.016843	0.040983	0.031289	1.000000	-0.000002	0.000029	0.000022	179.593576	-77.194841	-166.580033
42167	9.598494	0.003936	-2.180334	0.001684	-0.011453	0.030322	1.000000	-0.000019	0.000028	0.000004	179.593502	-77.198020	-166.582154
42168	9.615095	0.027919	-2.161332	-0.024753	0.007507	0.042338	1.000000	-0.000015	0.000048	0.000031	179.612407	-77.203402	-166.603079
42169	9.586161	0.002868	-2.199927	0.024251	-0.006297	0.022634	1.000000	-0.000007	0.000012	0.000030	179.626551	-77.204811	-166.618458
42170	9.615313	0.027063	-2.160372	-0.024816	0.007680	0.042338	1.000000	-0.000012	0.000028	0.000008	179.633965	-77.207877	-166.627235
42171	9.610689	0.021696	-2.214140	0.028806	0.014776	0.049725	1.000000	-0.000010	0.000011	0.000019	179.642533	-77.209178	-166.637246
42172	9.602840	0.026303	-2.180590	-0.002274	0.012762	0.034649	1.000000	-0.000016	0.000020	0.000015	179.651787	-77.211098	-166.648415
42173	9.627286	0.045389	-2.195166	0.002342	0.033663	0.061740	1.000000	-0.000020	0.000021	0.000022	179.660418	-77.213484	-166.659628
42174	9.610919	0.020875	-2.213150	0.028623	0.014932	0.049725	1.000000	-0.000007	0.000010	0.000013	179.667614	-77.214222	-166.667687
42175	9.615670	0.025850	-2.158798	-0.025000	0.007834	0.042337	1.000000	-0.000024	0.000011	0.000012	179.670847	-77.215496	-166.673793
42176	9.611059	0.020376	-2.212543	0.028575	0.014931	0.049725	1.000000	-0.000016	0.000030	0.000032	179.685183	-77.218730	-166.690428
42177	9.607097	0.048913	-2.181266	-0.006151	0.036534	0.038975	1.000000	-0.000001	0.000036	0.000005	179.687360	-77.222824	-166.692770
42178	9.590727	0.024358	-2.199264	0.020153	0.017676	0.026961	1.000000	-0.000009	-0.000005	0.000031	179.700016	-77.221738	-166.706885
42179	9.627748	0.043486	-2.193177	0.002137	0.033610	0.061740	1.000000	-0.000013	0.000021	0.000026	179.711317	-77.224137	-166.720050
42180	9.590872	0.023443	-2.198640	0.020088	0.017524	0.026962	1.000000	-0.000002	0.000029	0.000022	179.718771	-77.226874	-166.728238
42181	9.644697	0.014046	-2.201968	0.014164	0.006890	0.080178	1.000000	-0.000013	0.000021	0.000026	179.730085	-77.229283	-166.741419
42182	9.615463	0.041945	-2.212636	0.024517	0.038267	0.054054	1.000000	-0.000013	0.000029	0.000025	179.738378	-77.231394	-166.751741
42183	9.628192	0.041829	-2.191260	0.001886	0.033302	0.061741	1.000000	-0.000010	0.000020	0.000019	179.746803	-77.233703	-166.761526
42184	9.603932	0.022045	-2.175825	-0.003019	0.012103	0.034650	1.000000	-0.000016	0.000030	0.000032	179.754982	-77.235147	-166.772109
42185	9.604046	0.021505	-2.175325	-0.003019	0.012103	0.034650	1.000000	-0.000017	0.000022	0.000032	179.769277	-77.237638	-166.788782
42186	9.591506	0.020709	-2.195902	0.019413	0.016790	0.026964	1.000000	-0.000007	0.000012	0.000030	179.777555	-77.237517	-166.798606
42187	9.624783	0.015856	-2.186855	0.005130	0.008989	0.057415	1.000000	-0.000022	0.000039	0.000027	179.788861	-77.241996	-166.812837
42188	9.591752	0.019794	-2.194837	0.019099	0.016518	0.026965	1.000000	-0.000013	0.000021	0.000026	179.795142	-77.242239	-166.821401
42189	9.604456	0.019562	-2.173534	-0.003539	0.011554	0.034650	1.000000	-0.000007	0.000021	0.000029	179.809277	-77.244621	-166.836695
42190	9.604545	0.019185	-2.173143	-0.003720	0.011197	0.034650	1.000000	-0.000016	0.000020	0.000015	179.806945	-77.245411	-166.836505
42191	9.625147	0.014229	-2.185261	0.004628	0.008362	0.057416	1.000000	-0.000015	0.000003	0.000027	179.818736	-77.245791	-166.850341
42192	9.608756	-0.010581	-2.203335	0.030696	-0.010763	0.045402	1.000000	0.000007	0.000021	0.000037	179.830830	-77.245991	-166.862249
42193	9.612703	0.012960	-2.205448	0.026953	0.012974	0.049733	1.000000	-0.000033	0.000029	0.000014	179.834099	-77.249333	-166.869455
42194	9.601013	-0.006471	-2.169209	-0.000474	-0.013289	0.030320	1.000000	-0.000007	0.000012	0.000030	179.839048	-77.249190	-166.875265
42195	9.624669	0.031251	-2.240496	0.054016	0.038435	0.069148	1.000000	-0.000002	0.000029	0.000022	179.850012	-77.252466	-166.886781
42196	9.621759	-0.011946	-2.180688	0.007431	-0.016383	0.053085	1.000000	-0.000010	0.000020	0.000019	179.854644	-77.251915	-166.893276
42197	9.605134	0.016330	-2.170560	-0.004663	0.010192	0.034651	1.000000	-0.000010	0.000020	0.000019	179.863171	-77.254171	-166.903164
42198	9.596480	0.039736	-2.193584	0.013803	0.038625	0.031303	1.000000	-0.000019	0.000029	0.000021	179.867442	-77.254731	-166.910177
42199	9.622060	-0.012865	-2.179355	0.006981	-0.016649	0.053085	1.000000	-0.000016	0.000020	0.000015	179.873326	-77.256960	-166.918138
42200	9.589013	-0.008854	-2.187445	0.020802	-0.009214	0.022639	1.000000	-0.000016	0.000030	0.000032	179.880663	-77.257274	-166.927435
42201	9.614308	-0.008918	-2.145219	-0.024485	-0.019150	0.037997	1.000000	-0.000007	0.000012	0.000030	179.894971	-77.258583	-166.942972
42202	9.634190	0.004890	-2.213728	0.033645	0.008599	0.072505	1.000000	-0.000018	0.000047	0.000020	179.897638	-77.263124	-166.947852
42203	9.593209	0.013884	-2.188503	0.016941	0.014281	0.026973	1.000000	-0.000017	0.000011	0.000016	179.903627	-77.264345	-166.955993
42204	9.613833	0.009029	-2.200536	0.024646	0.011086	0.049741	1.000000	-0.000016	0.000020	0.000015	179.904157	-77.262490	-166.958055
42205	9.613923	0.008703	-2.200144	0.024627	0.011082	0.049741	1.000000	-0.000013	0.000021	0.000026	179.915573	-77.264765	-166.971320
42206	9.606072	0.013244	-2.166426	-0.006698	0.008659	0.034651	1.000000	-0.000016	0.000029	0.000015	179.915569	-77.265710	-166.972978
42207	9.593604	0.012744	-2.186780	0.015919	0.013622	0.026975	1.000000	-0.000019	0.000029	0.000021	179.924111	-77.268975	-166.983995
42208	9.614288	0.007791	-2.198550	0.023741	0.010490	0.049744	1.000000	-0.000009	0.000029	0.000018	179.928110	-77.268901	-166.989151
42209	9.593817	0.012108	-2.185847	0.015374	0.013327	0.026977	1.000000	-0.000000	0.000010	0.000017	179.936462	-77.269954	-166.997691
42210	9.627034	0.007483	-2.176968	0.000985	0.005175	0.057419	1.000000	-0.000023	0.000020	0.000011	179.931359	-77.271273	-166.994764
42211	9.593975	0.011560	-2.185157	0.015259	0.012980	0.026977	1.000000	-0.000017	0.000022	0.000032	179.945592	-77.273632	-167.011337
42212	9.597945	0.035095	-2.187246	0.011155	0.036321	0.031315	1.000000	-0.000019	0.000029	0.000021	179.946172	-77.274433	-167.013508
42213	9.631220	0.030418	-2.178102	-0.003161	0.028493	0.061756	1.000000	-0.000005	0.000028	0.000012	179.951363	-77.277493	-167.019415
42214	9.631346	0.030101	-2.177549	-0.003162	0.027884	0.061758	1.000000	-0.000013	0.000030	0.000025	179.946788	-77.280106	-167.014541
42215	9.598289	0.034240	-2.185751	0.011118	0.035683	0.031317	1.000000	-0.000024	0.000011	0.000012	179.949667	-77.281274	-167.020226
42216	9.602531	0.005090	-2.215848	0.045444	0.013589	0.042076	1.000000	-0.000015	0.000048	0.000031	179.953285	-77.283866	-167.025026
42217	9.606506	0.028629	-2.217940	0.041684	0.037299	0.046416	1.000000	-0.000011	0.000003	0.000020	179.961622	-77.284028	-167.034811
42218	9.598585	0.033048	-2.184467	0.010327	0.034749	0.031322	1.000000	-0.000017	0.000022	0.000032	179.967271	-77.283806	-167.042456
42219	9.627977	0.004172	-2.172801	-0.000245	0.003171	0.057420	1.000000	-0.000013	0.000030	0.000025	179.978039	-77.287057	-167.054919
42220	9.607525	0.008432	-2.159998	-0.008522	0.005938	0.034652	1.000000	-0.000020	0.000021	0.000022	179.984436	-77.289736	-167.065428
42221	9.615616	0.003193	-2.192746	0.022445	0.008044	0.049749	1.000000	-0.000023	0.000030	0.000028	179.995560	-77.293128	-167.079492
42222	9.615708	0.002811	-2.192347	0.021873	0.007925	0.049751	1.000000	-0.000010	0.000011	0.000019	-179.995282	-77.291000	-167.091773
42223	9.607089	0.026139	-2.215446	0.040754	0.036615	0.046422	1.000000	-0.000006	0.000030	0.000029	-179.981591	-77.294281	-167.106474
42224	9.607903	0.006807	-2.158323	-0.009171	0.005107	0.034652	1.000000	-0.000010	0.000011	0.000019	-179.990326	-77.294416	-167.096920
42225	9.607936	0.006365	-2.158175	-0.009181	0.005086	0.034652	1.000000	-0.000019	0.000004	0.000033	-179.976103	-77.294810	-167.113618
42226	9.607266	0.025047	-2.214689	0.040073	0.035721	0.046428	1.000000	-0.000016	0.000018	-0.000002	-179.980089	-77.293112	-167.112502
42227	9.619971	0.025040	-2.193213	0.017418	0.030728	0.054095	1.000000	-0.000016	0.000039	0.000031	-179.966376	-77.297475	-167.128352
42228	9.603649	0.000440	-2.211004	0.043267	0.011550	0.042089	1.000000	-0.000010	0.000020	0.000019	-179.965571	-77.296172	-167.130321
42229	9.620190	0.024240	-2.192259	0.016864	0.030286	0.054098	1.000000	-0.000003	0.000020	0.000023	-179.954759	-77.298323	-167.141703
42230	9.603824	-0.000249	-2.210244	0.042578	0.010976	0.042092	1.000000	-0.000006	0.000019	0.000012	-179.959600	-77.295966	-167.136706
42231	9.599764	0.028287	-2.179347	0.007833	0.032561	0.031331	1.000000	-0.000032	0.000004	0.000026	-179.950704	-77.296257	-167.149499
42232	9.595935	0.003887	-2.176559	0.011448	0.008491	0.026987	1.000000	0.000014	0.000019	0.000024	-179.945081	-77.297305	-167.153972
42233	9.607917	0.022687	-2.211892	0.038655	0.034320	0.046439	1.000000	-0.000033	0.000029	0.000014	-179.942280	-77.300517	-167.160621
42234	9.604186	-0.001606	-2.208671	0.041856	0.010520	0.042096	1.000000	-0.000016	0.000039	0.000031	-179.926563	-77.301809	-167.180738
42235	9.637432	-0.006434	-2.199566	0.027522	0.002672	0.072528	1.000000	-0.000017	0.000011	0.000016	-179.920885	-77.302921	-167.188509
42236	9.608251	0.021710	-2.210448	0.038143	0.034061	0.046442	1.000000	-0.000010	0.000020	0.000019	-179.917072	-77.305356	-167.194692
42237	9.620927	0.021639	-2.189050	0.015484	0.029070	0.054104	1.000000	-0.000016	0.000029	0.000015	-179.911659	-77.308512	-167.202037
42238	9.617187	-0.002645	-2.185848	0.018765	0.004905	0.049759	1.000000	-0.000012	0.000038	0.000025	-179.908967	-77.309699	-167.206152
42239	9.588298	-0.027534	-2.224577	0.067771	-0.008891	0.030091	1.000000	-0.000010	0.000022	0.000036	-179.892162	-77.312040	-167.224557
42240	9.604822	-0.003748	-2.205902	0.041072	0.009271	0.042100	1.000000	-0.000003	0.000010	0.000006	-179.903007	-77.310601	-167.212033
42241	9.625472	-0.008401	-2.217847	0.049385	0.006392	0.064871	1.000000	-0.000025	0.000028	0.000001	-179.906052	-77.313652	-167.211825
42242	9.608883	0.019997	-2.207716	0.036428	0.032366	0.046454	1.000000	-0.000007	0.000012	0.000030	-179.902509	-77.309215	-167.214898
42243	9.600967	0.024462	-2.174089	0.005432	0.030221	0.031341	1.000000	-0.000016	0.000029	0.000015	-179.897315	-77.312319	-167.221988
42244	9.601092	0.024248	-2.173538	0.004913	0.030254	0.031341	1.000000	-0.000016	0.000029	0.000015	-179.887510	-77.312689	-167.236353
42245	9.605332	-0.004768	-2.203676	0.039601	0.008623	0.042107	1.000000	-0.000005	0.000028	0.000012	-179.882415	-77.315700	-167.242137
42246	9.609333	0.018884	-2.205768	0.035241	0.031820	0.046460	1.000000	-0.000003	0.000020	0.000023	-179.881442	-77.313809	-167.242214
42247	9.588870	0.023168	-2.193002	0.026885	0.034656	0.023689	1.000000	-0.000009	0.000029	0.000018	-179.873459	-77.316896	-167.251385
42248	9.609551	0.017987	-2.204823	0.035227	0.031465	0.046461	1.000000	0.000007	0.000021	0.000037	-179.862587	-77.318985	-167.261958
42249	9.630821	-0.006254	-2.160156	-0.006333	-0.002246	0.057418	1.000000	-0.000019	0.000004	0.000033	-179.848311	-77.319295	-167.278700
42250	9.597766	-0.002223	-2.168474	0.007544	0.005186	0.026993	1.000000	-0.000019	0.000030	0.000021	-179.847646	-77.319650	-167.281415
42251	9.601771	0.021580	-2.170564	0.003772	0.028891	0.031345	1.000000	-0.000009	0.000018	0.000002	-179.848167	-77.321577	-167.281862
42252	9.622427	0.016814	-2.182491	0.011103	0.025676	0.054119	1.000000	-0.000016	0.000020	0.000015	-179.845556	-77.317724	-167.286540
42253	9.589389	0.020968	-2.190752	0.025391	0.033494	0.023697	1.000000	-0.000003	0.000020	0.000023	-179.834755	-77.319794	-167.297894
42254	9.613938	0.039896	-2.205283	0.029418	0.053725	0.050827	1.000000	-0.000021	0.000012	0.000022	-179.839155	-77.317242	-167.294228
42255	9.602106	0.020281	-2.169096	0.002167	0.027849	0.031349	1.000000	-0.000010	0.000030	0.000036	-179.822695	-77.320480	-167.312158
42256	9.614089	0.038918	-2.204640	0.028080	0.053041	0.050834	1.000000	-0.000012	-0.000006	0.000020	-179.823082	-77.311471	-167.312014
42257	9.610178	0.014507	-2.202113	0.031782	0.029280	0.046480	1.000000	-0.000019	0.000004	0.000033	-179.808935	-77.311621	-167.328589
42258	9.610253	0.014067	-2.201789	0.030886	0.028900	0.046484	1.000000	-0.000019	0.000030	0.000021	-179.804802	-77.309387	-167.335379
42259	9.597773	0.013620	-2.222429	0.053475	0.033850	0.038842	1.000000	-0.000007	0.000002	0.000013	-179.799457	-77.309213	-167.341621
42260	9.597783	0.013343	-2.222389	0.052602	0.033417	0.038848	1.000000	-0.000011	0.000003	0.000020	-179.796703	-77.303949	-167.346101
42261	9.610382	0.013190	-2.201231	0.029893	0.028399	0.046488	1.000000	-0.000010	0.000020	0.000019	-179.788672	-77.305828	-167.355361
42262	9.593971	-0.011222	-2.219415	0.055822	0.009167	0.034495	1.000000	-0.000018	0.000002	0.000016	-179.792474	-77.302817	-167.352939
42263	9.609852	0.031701	-2.257604	0.079212	0.058702	0.058347	1.000000	-0.000013	0.000010	0.000009	-179.789975	-77.303594	-167.356955
42264	9.631164	0.007757	-2.212619	0.035900	0.024437	0.069275	1.000000	-0.000015	0.000048	0.000031	-179.780331	-77.298214	-167.367923
42265	9.598177	0.011719	-2.220697	0.050156	0.032252	0.038864	1.000000	-0.000007	0.000012	0.000030	-179.766530	-77.299076	-167.382816
42266	9.585703	0.011122	-2.241332	0.072332	0.036870	0.031235	1.000000	-0.000010	0.000020	0.000019	-179.764718	-77.298205	-167.386452
42267	9.643407	0.025601	-2.247114	0.062463	0.049833	0.088781	1.000000	-0.000010	0.000020	0.000019	-179.756676	-77.299968	-167.395706
42268	9.610970	0.010762	-2.198676	0.026087	0.026263	0.046505	1.000000	-0.000003	0.000020	0.000023	-179.755902	-77.296555	-167.395560
42269	9.602459	0.034136	-2.221681	0.044893	0.054935	0.043235	1.000000	-0.000013	0.000030	0.000025	-179.745087	-77.299382	-167.408001
42270	9.598665	0.009909	-2.218593	0.048248	0.029988	0.038881	1.000000	-0.000012	0.000028	0.000008	-179.771953	-77.298751	-167.376576
42271	9.615259	0.033613	-2.199621	0.021755	0.048670	0.050873	1.000000	-0.000003	0.000030	0.000039	-179.753108	-77.301665	-167.396088
42272	9.594776	0.037646	-2.186938	0.012848	0.051416	0.028097	1.000000	0.000003	0.000011	0.000027	-179.738732	-77.299355	-167.412525
42273	9.602927	0.032283	-2.219682	0.043713	0.053484	0.043249	1.000000	-0.000016	0.000039	0.000031	-179.725282	-77.303262	-167.428002
42274	9.603060	0.031960	-2.219114	0.043217	0.052350	0.043257	1.000000	-0.000023	0.000020	0.000011	-179.748850	-77.301298	-167.402430
42275	9.587291	-0.011510	-2.180253	0.019697	0.002727	0.019372	1.000000	-0.000009	0.000039	0.000035	-179.732949	-77.305192	-167.419609
42276	9.628434	0.031372	-2.175899	-0.002627	0.041478	0.058510	1.000000	-0.000012	0.000038	0.000025	-179.740562	-77.305947	-167.410404
42277	9.595473	0.035409	-2.183913	0.011633	0.049288	0.028109	1.000000	-0.000016	0.000030	0.000032	-179.727344	-77.308833	-167.425686
42278	9.612253	0.006239	-2.193081	0.023385	0.021645	0.046523	1.000000	-0.000006	0.000030	0.000029	-179.738638	-77.309135	-167.410696
42279	9.595778	0.034349	-2.182592	0.011233	0.048176	0.028115	1.000000	-0.000015	0.000048	0.000031	-179.725882	-77.314023	-167.425317
42280	9.612553	0.005284	-2.191767	0.022999	0.021726	0.046524	1.000000	-0.000010	0.000011	0.000019	-179.711293	-77.313810	-167.445567
42281	9.625191	0.005005	-2.170328	0.000264	0.016666	0.054145	1.000000	-0.000016	0.000039	0.000031	-179.698221	-77.317714	-167.460615
42282	9.612849	0.004542	-2.190471	0.022938	0.021133	0.046525	1.000000	-0.000011	0.000045	0.000007	-179.709575	-77.322405	-167.449135
42283	9.612994	0.004280	-2.189834	0.022858	0.021068	0.046525	1.000000	-0.000013	0.000021	0.000026	-179.699255	-77.324244	-167.461091
42284	9.592538	0.008536	-2.177007	0.014180	0.022613	0.023750	1.000000	-0.000002	0.000037	0.000022	-179.721004	-77.324686	-167.432648
42285	9.605189	0.008205	-2.155481	-0.008548	0.017535	0.031369	1.000000	-0.000017	0.000022	0.000032	-179.708020	-77.326608	-167.447740
42286	9.633946	-0.001731	-2.200485	0.030630	0.015665	0.069310	1.000000	-0.000009	0.000029	0.000018	-179.728046	-77.328121	-167.423858
42287	9.613980	-0.016365	-2.131039	-0.027571	-0.012383	0.034611	1.000000	-0.000020	0.000021	0.000022	-179.720943	-77.329959	-167.433249
42288	9.593036	0.006878	-2.174820	0.013036	0.020460	0.023757	1.000000	-0.000015	0.000048	0.000031	-179.724700	-77.329035	-167.427791
42289	9.605700	0.006596	-2.153208	-0.009695	0.015362	0.031372	1.000000	-0.000010	0.000020	0.000019	-179.717966	-77.330739	-167.435566
42290	9.601341	0.001207	-2.207006	0.045213	0.022433	0.038916	1.000000	0.000004	0.000020	0.000027	-179.713099	-77.340509	-167.441307
42291	9.626443	0.001006	-2.164774	-0.000147	0.012330	0.054151	1.000000	-0.000014	0.000012	0.000026	-179.703297	-77.341416	-167.452763
42292	9.630448	0.024527	-2.167060	-0.004493	0.035930	0.058531	1.000000	-0.000014	0.000012	0.000026	-179.691321	-77.339367	-167.468627
42293	9.634620	-0.004697	-2.197529	0.030160	0.014246	0.069314	1.000000	-0.000014	0.000012	0.000026	-179.681432	-77.340262	-167.480179
42294	9.572930	0.008980	-2.160443	0.004326	0.022265	0.000980	1.000000	-0.000010	0.000020	0.000019	-179.684140	-77.336338	-167.476254
42295	9.614172	-0.000767	-2.184660	0.020846	0.016402	0.046539	1.000000	-0.000004	0.000011	0.000023	-179.674549	-77.337101	-167.486272
42296	9.597612	0.027601	-2.174610	0.008431	0.042300	0.028145	1.000000	-0.000033	0.000021	0.000014	-179.687597	-77.336611	-167.475407
42297	9.597701	0.027376	-2.174217	0.008359	0.042209	0.028145	1.000000	-0.000010	0.000020	0.000019	-179.680928	-77.338368	-167.483117
42298	9.593338	0.021992	-2.228093	0.061482	0.048074	0.035710	1.000000	-0.000007	0.000012	0.000030	-179.697164	-77.335475	-167.461778
42299	9.585338	0.026222	-2.194547	0.030465	0.045851	0.020542	1.000000	-0.000010	0.000022	0.000036	-179.682144	-77.337397	-167.478110
42300	9.606040	0.020997	-2.206310	0.038037	0.042603	0.043325	1.000000	-0.000013	0.000030	0.000025	-179.675729	-77.336204	-167.486183
42301	9.610232	-0.008272	-2.236693	0.072680	0.020908	0.054110	1.000000	-0.000019	0.000004	0.000033	-179.663120	-77.336100	-167.500994
42302	9.618215	0.039209	-2.241482	0.065475	0.067810	0.062887	1.000000	-0.000010	0.000020	0.000019	-179.670480	-77.339756	-167.493228
42303	9.614781	-0.003985	-2.181973	0.019371	0.013133	0.046547	1.000000	-0.000024	0.000011	0.000012	-179.669378	-77.340506	-167.496853
42304	9.639428	0.014950	-2.196335	0.023552	0.033823	0.073716	1.000000	-0.000016	0.000030	0.000032	-179.656410	-77.341923	-167.514384
42305	9.573389	0.023662	-2.213113	0.052197	0.049546	0.012943	1.000000	-0.000008	0.000037	0.000018	-179.650216	-77.345680	-167.521417
42306	9.606615	0.018667	-2.203827	0.036391	0.039876	0.043343	1.000000	-0.000017	0.000022	0.000032	-179.673453	-77.337667	-167.491192
42307	9.581678	0.018099	-2.245464	0.081609	0.049807	0.028138	1.000000	-0.000003	0.000010	0.000006	-179.673106	-77.338155	-167.491568
42308	9.598664	0.022890	-2.170015	0.005069	0.037512	0.028167	1.000000	-0.000013	0.000021	0.000026	-179.662964	-77.338654	-167.505949
42309	9.619346	0.017813	-2.181862	0.013276	0.034503	0.050948	1.000000	-0.000020	0.000021	0.000022	-179.656510	-77.340427	-167.514603
42310	9.569870	-0.001963	-2.208658	0.053688	0.022919	0.008574	1.000000	-0.000016	0.000020	0.000015	-179.669625	-77.339490	-167.501262
42311	9.602928	0.045815	-2.171248	0.000735	0.060186	0.032567	1.000000	-0.000006	0.000030	0.000029	-179.658013	-77.342257	-167.513540
42312	9.607136	0.016616	-2.201569	0.033972	0.038094	0.043359	1.000000	-0.000010	0.000011	0.000019	-179.653693	-77.334416	-167.518357
42313	9.607226	0.016392	-2.201176	0.033880	0.037978	0.043359	1.000000	-0.000033	0.000030	0.000014	-179.652820	-77.337119	-167.522754
42314	9.607379	0.015964	-2.200515	0.031420	0.036483	0.043373	1.000000	-0.000002	0.000039	0.000039	-179.658050	-77.325636	-167.512546
42315	9.603551	-0.008575	-2.197354	0.035097	0.012642	0.038974	1.000000	-0.000013	0.000030	0.000025	-179.649259	-77.328208	-167.522673
42316	9.607643	0.014953	-2.199369	0.030515	0.035527	0.043379	1.000000	-0.000013	0.000021	0.000026	-179.654756	-77.325025	-167.516035
42317	9.607753	0.014579	-2.198891	0.030397	0.035395	0.043380	1.000000	-0.000009	0.000029	0.000019	-179.649000	-77.327476	-167.522602
42318	9.591406	-0.009808	-2.216809	0.057001	0.016146	0.031392	1.000000	-0.000019	0.000030	0.000021	-179.656030	-77.331068	-167.515553
42319	9.579332	0.023447	-2.152223	-0.008763	0.035473	0.005402	1.000000	-0.000019	0.000038	0.000021	-179.650206	-77.334639	-167.523321
42320	9.608158	0.013620	-2.197125	0.029592	0.033884	0.043388	1.000000	0.000001	0.000019	0.000016	-179.658034	-77.330962	-167.512812
42321	9.604279	-0.010553	-2.194161	0.033271	0.010036	0.038984	1.000000	-0.000033	0.000030	0.000014	-179.657557	-77.333502	-167.516739
42322	9.608358	0.013073	-2.196255	0.027642	0.033708	0.043394	1.000000	-0.000007	0.000012	0.000030	-179.633460	-77.324334	-167.546349
42323	9.608450	0.012590	-2.195853	0.027511	0.033575	0.043395	1.000000	-0.000013	0.000030	0.000025	-179.624730	-77.326797	-167.556392
42324	9.621045	0.012318	-2.174397	0.004162	0.027777	0.050977	1.000000	-0.000010	0.000020	0.000019	-179.631998	-77.324174	-167.547076
42325	9.600684	-0.035965	-2.189925	0.034277	-0.014746	0.034587	1.000000	-0.000016	0.000029	0.000015	-179.628982	-77.326525	-167.551598
42326	9.600660	0.016434	-2.161225	-0.006529	0.030145	0.028191	1.000000	-0.000003	0.000020	0.000023	-179.615008	-77.315177	-167.567726
42327	9.617000	0.006398	-2.227175	0.055158	0.034256	0.058626	1.000000	-0.000013	0.000030	0.000025	-179.606254	-77.317518	-167.577779
42328	9.600853	0.015742	-2.160371	-0.007017	0.028680	0.028195	1.000000	-0.000003	0.000010	0.000006	-179.636124	-77.315056	-167.539611
42329	9.613031	0.034679	-2.195789	0.019949	0.054371	0.047825	1.000000	-0.000010	0.000020	0.000019	-179.630426	-77.316296	-167.546155
42330	9.605149	-0.013556	-2.190334	0.027916	0.006438	0.039003	1.000000	-0.000019	0.000030	0.000021	-179.637162	-77.321124	-167.538642
42331	9.601152	0.014883	-2.159049	-0.006951	0.027872	0.028197	1.000000	-0.000009	0.000029	0.000019	-179.631644	-77.323401	-167.544915
42332	9.605047	0.004809	-2.245897	0.076965	0.036651	0.051072	1.000000	-0.000013	0.000030	0.000025	-179.630420	-77.322835	-167.547645
42333	9.634092	0.028577	-2.206020	0.027699	0.050123	0.070621	1.000000	-0.000010	0.000011	0.000019	-179.624690	-77.323094	-167.554303
42334	9.613564	0.032906	-2.193483	0.021544	0.051622	0.047836	1.000000	-0.000013	0.000021	0.000026	-179.662363	-77.335803	-167.507905
42335	9.597203	0.008369	-2.211482	0.047881	0.032809	0.035848	1.000000	-0.000027	0.000031	0.000035	-179.651074	-77.338457	-167.522165
42336	9.634376	0.027371	-2.204794	0.028653	0.048784	0.070625	1.000000	-0.000024	0.000011	0.000012	-179.635447	-77.334149	-167.545128
42337	9.597374	0.007593	-2.210740	0.046721	0.032892	0.035854	1.000000	-0.000025	0.000023	0.000045	-179.618211	-77.335865	-167.565238
42338	9.564418	0.011776	-2.218996	0.059591	0.039538	0.005513	1.000000	-0.000033	0.000030	0.000014	-179.640839	-77.328858	-167.539952
42339	9.618188	0.002106	-2.222045	0.053313	0.028484	0.058654	1.000000	-0.000018	0.000013	0.000033	-179.629546	-77.329321	-167.553155
42340	9.585189	0.006300	-2.230494	0.069078	0.036618	0.028292	1.000000	-0.000010	0.000020	0.000019	-179.624507	-77.339666	-167.561911
42341	9.601780	0.029914	-2.211506	0.042485	0.055117	0.040281	1.000000	-0.000006	0.000030	0.000029	-179.613653	-77.342126	-167.573292
42342	9.639144	-0.003834	-2.232740	0.062495	0.025148	0.081438	1.000000	-0.000014	0.000046	0.000014	-179.617092	-77.345052	-167.570731
42343	9.631191	0.000862	-2.198732	0.031451	0.022861	0.066217	1.000000	-0.000018	0.000037	0.000004	-179.620361	-77.348335	-167.569026
42344	9.635390	0.024554	-2.200391	0.026628	0.046395	0.070643	1.000000	-0.000015	0.000048	0.000031	-179.604735	-77.347830	-167.588117
42345	9.627420	0.028716	-2.166435	-0.004420	0.044111	0.055418	1.000000	0.000007	0.000030	0.000037	-179.588397	-77.350261	-167.603559
42346	9.635707	0.023612	-2.199012	0.026512	0.044721	0.070651	1.000000	-0.000014	0.000036	-0.000003	-179.631133	-77.352607	-167.553312
42347	9.586492	0.037575	-2.140741	-0.021049	0.048276	0.009850	1.000000	-0.000010	0.000030	0.000036	-179.617502	-77.355141	-167.567957
42348	9.586607	0.036983	-2.140239	-0.021802	0.046277	0.009858	1.000000	-0.000017	0.000022	0.000032	-179.650881	-77.350841	-167.525373
42349	9.586685	0.036432	-2.139896	-0.021933	0.046101	0.009859	1.000000	-0.000028	0.000014	0.000035	-179.639793	-77.351434	-167.539546
42350	9.537179	0.016501	-2.167042	0.018549	0.034837	-0.032474	1.000000	-0.000008	0.000003	0.000030	-179.639331	-77.348770	-167.541223
42351	9.586461	0.054366	-2.196319	0.027285	0.076203	0.021969	1.000000	-0.000022	0.000005	0.000040	-179.625477	-77.348353	-167.557528
42352	9.603069	0.024977	-2.205962	0.038930	0.049021	0.040328	1.000000	-0.000016	0.000005	0.000043	-179.616848	-77.345751	-167.567669
42353	9.632184	-0.004074	-2.194374	0.028219	0.017140	0.066238	1.000000	-0.000033	0.000030	0.000014	-179.617373	-77.348151	-167.570452
42354	9.627936	-0.009376	-2.248329	0.081499	0.023792	0.073920	1.000000	-0.000016	-0.000004	0.000044	-179.609554	-77.345394	-167.580157
42355	9.665087	0.009214	-2.241754	0.063140	0.039310	0.108700	1.000000	0.000001	0.000030	0.000033	-179.596612	-77.347786	-167.592828
42356	9.661169	-0.015324	-2.238801	0.065547	0.014772	0.104274	1.000000	-0.000007	0.000021	0.000029	-179.595913	-77.341068	-167.594042
42357	9.644685	0.012975	-2.228662	0.053328	0.041223	0.085924	1.000000	-0.000016	0.000020	0.000015	-179.593952	-77.342318	-167.597441
42358	9.644793	0.012660	-2.228199	0.052077	0.039440	0.085938	1.000000	0.000008	0.000028	0.000019	-179.622429	-77.336193	-167.558626
42359	9.587256	-0.002416	-2.221602	0.061920	0.026499	0.028372	1.000000	0.000002	0.000047	0.000032	-179.610005	-77.340484	-167.570550
42360	9.566776	0.001738	-2.208837	0.052095	0.028604	0.005593	1.000000	0.000003	0.000011	0.000027	-179.608568	-77.331675	-167.571092
42361	9.595841	0.025389	-2.168737	0.002789	0.041948	0.025121	1.000000	-0.000018	0.000047	0.000020	-179.604273	-77.335912	-167.577020
42362	9.596009	0.024967	-2.168000	0.003170	0.042179	0.025120	1.000000	-0.000006	0.000030	0.000029	-179.586177	-77.341757	-167.601565
42363	9.596156	0.024598	-2.167355	0.003017	0.041985	0.025120	1.000000	-0.000015	0.000038	0.000014	-179.584620	-77.344937	-167.604351
42364	9.600410	-0.004518	-2.197529	0.037104	0.018234	0.035933	1.000000	-0.000017	0.000022	0.000032	-179.623725	-77.340977	-167.554856
42365	9.600423	0.047735	-2.168834	-0.001626	0.063281	0.029580	1.000000	-0.000020	0.000021	0.000022	-179.619341	-77.342217	-167.561110
42366	9.617085	0.018614	-2.178163	0.009979	0.035361	0.047927	1.000000	-0.000017	0.000022	0.000032	-179.635435	-77.340402	-167.540227
42367	9.617164	0.017909	-2.177820	0.009823	0.035147	0.047927	1.000000	-0.000008	0.000014	0.000047	-179.617101	-77.340808	-167.559374
42368	9.617237	0.017422	-2.177501	0.008376	0.034078	0.047933	1.000000	-0.000013	0.000019	0.000009	-179.633610	-77.333409	-167.540535
42369	9.604882	0.017156	-2.198130	0.030869	0.038951	0.040402	1.000000	-0.000010	0.000020	0.000019	-179.629724	-77.334488	-167.545025
42370	9.588488	-0.007488	-2.216264	0.056736	0.018646	0.028422	1.000000	-0.000011	0.000023	0.000053	-179.644959	-77.331371	-167.521785
42371	9.592848	-0.003299	-2.161637	0.003017	0.011174	0.020689	1.000000	-0.000010	0.000020	0.000019	-179.641312	-77.332426	-167.526001
42372	9.601112	-0.008461	-2.194446	0.034047	0.012487	0.035953	1.000000	-0.000013	0.000021	0.000026	-179.652301	-77.334540	-167.512539
42373	9.625914	0.010318	-2.208513	0.038271	0.032994	0.063207	1.000000	-0.000022	0.000039	0.000028	-179.645785	-77.337803	-167.521175
42374	9.601394	-0.009270	-2.193208	0.032633	0.010444	0.035960	1.000000	-0.000019	0.000030	0.000021	-179.677183	-77.331751	-167.482065
42375	9.593360	-0.004703	-2.159363	0.001572	0.008051	0.020692	1.000000	-0.000022	0.000038	0.000010	-179.679499	-77.334779	-167.481524
42376	9.638780	0.009333	-2.185612	0.014167	0.024679	0.070746	1.000000	-0.000014	0.000023	0.000043	-179.689137	-77.335824	-167.466819
42377	9.614239	-0.010521	-2.170380	0.009625	0.003700	0.043485	1.000000	-0.000016	0.000039	0.000031	-179.680307	-77.339044	-167.476998
42378	9.630876	0.013249	-2.151168	-0.017579	0.021159	0.055479	1.000000	-0.000025	0.000028	0.000001	-179.707869	-77.336941	-167.444438
42379	9.614471	-0.010908	-2.169350	0.008773	0.002336	0.043487	1.000000	-0.000014	0.000012	0.000026	-179.701752	-77.337042	-167.451644
42380	9.606176	0.012675	-2.192499	0.027044	0.030277	0.040443	1.000000	-0.000016	0.000020	0.000015	-179.715346	-77.335291	-167.436098
42381	9.606435	-0.006575	-2.135464	-0.022804	-0.000943	0.028213	1.000000	-0.000019	0.000019	0.000005	-179.720723	-77.336197	-167.432117
42382	9.606351	0.012343	-2.191736	0.025088	0.029260	0.040452	1.000000	-0.000013	0.000021	0.000026	-179.718605	-77.327418	-167.436199
42383	9.618848	0.011996	-2.170410	0.002249	0.023881	0.047966	1.000000	-0.000010	0.000011	0.000019	-179.715522	-77.327353	-167.439838
42384	9.589883	0.040323	-2.181634	0.012193	0.054924	0.022141	1.000000	-0.000012	-0.000006	0.000020	-179.721972	-77.322221	-167.430486
42385	9.610533	0.035250	-2.193683	0.020237	0.051699	0.044937	1.000000	-0.000010	0.000020	0.000019	-179.719055	-77.323144	-167.433864
42386	9.610644	0.034926	-2.193204	0.019551	0.050846	0.044943	1.000000	-0.000019	0.000030	0.000021	-179.728545	-77.321563	-167.422767
42387	9.635476	0.001239	-2.235759	0.062348	0.026091	0.078544	1.000000	-0.000013	0.000010	0.000009	-179.731217	-77.321373	-167.420838
42388	9.598363	0.034348	-2.213608	0.041957	0.054975	0.037441	1.000000	-0.000018	0.000013	0.000033	-179.735442	-77.321567	-167.415227
42389	9.635535	0.053135	-2.206966	0.023463	0.070294	0.072228	1.000000	-0.000021	0.000012	0.000022	-179.732294	-77.321574	-167.420133
42390	9.606879	0.009712	-2.189433	0.023688	0.025350	0.040466	1.000000	-0.000015	0.000038	0.000014	-179.744897	-77.329177	-167.404941
42391	9.611080	0.033548	-2.191314	0.019633	0.048767	0.044953	1.000000	-0.000030	0.000020	0.000008	-179.750275	-77.330133	-167.402148
42392	9.573974	0.033313	-2.253716	0.085709	0.062826	0.022455	1.000000	-0.000028	0.000048	0.000023	-179.765754	-77.323112	-167.383746
42393	9.632002	0.028309	-2.202179	0.025770	0.044169	0.067760	1.000000	-0.000010	0.000020	0.000019	-179.763135	-77.323996	-167.386783
42394	9.586753	0.013424	-2.175085	0.013428	0.025050	0.017684	1.000000	-0.000008	0.000012	0.000030	-179.786173	-77.324895	-167.354243
42395	9.619882	0.008313	-2.165837	-0.001188	0.016653	0.047981	1.000000	-0.000026	0.000030	0.000018	-179.786319	-77.326893	-167.356344
42396	9.591034	0.036667	-2.176635	0.007030	0.047746	0.022183	1.000000	-0.000003	0.000020	0.000023	-179.779779	-77.314979	-167.363968
42397	9.607683	0.007652	-2.185911	0.018941	0.020809	0.040487	1.000000	-0.000016	0.000029	0.000015	-179.780139	-77.316803	-167.364621
42398	9.624285	0.031295	-2.166846	-0.007053	0.037748	0.052483	1.000000	-0.000003	0.000020	0.000023	-179.813502	-77.320269	-167.323129
42399	9.620172	0.026244	-2.220679	0.046288	0.044781	0.060290	1.000000	-0.000023	0.000020	0.000011	-179.816678	-77.321114	-167.321744
42400	9.603747	0.054615	-2.210446	0.032914	0.069734	0.042010	1.000000	-0.000016	0.000031	0.000032	-179.839429	-77.315285	-167.292567
42401	9.620378	0.025386	-2.219797	0.044831	0.042779	0.060305	1.000000	0.000013	0.000010	0.000024	-179.832112	-77.314982	-167.297651
42402	9.624495	0.049007	-2.222096	0.039432	0.066297	0.064816	1.000000	-0.000025	0.000003	0.000012	-179.823877	-77.306533	-167.311849
42403	9.608164	0.005379	-2.183799	0.016156	0.016478	0.040500	1.000000	-0.000018	0.000024	0.000049	-179.807291	-77.307674	-167.330106
42404	9.620566	0.023917	-2.218999	0.045260	0.041236	0.060310	1.000000	-0.000003	0.000020	0.000023	-179.837003	-77.320780	-167.289796
42405	9.612443	0.028196	-2.185401	0.014199	0.038759	0.045007	1.000000	-0.000017	0.000022	0.000032	-179.829188	-77.321815	-167.298961
42406	9.616663	-0.001001	-2.215762	0.047883	0.015500	0.055812	1.000000	-0.000013	0.000021	0.000026	-179.857187	-77.315732	-167.264140
42407	9.600266	0.027271	-2.205438	0.035566	0.041854	0.037530	1.000000	-0.000022	0.000039	0.000028	-179.852520	-77.318736	-167.270661
42408	9.592230	-0.021003	-2.199928	0.042001	-0.005516	0.028512	1.000000	-0.000030	0.000031	0.000024	-179.835977	-77.314309	-167.293318
42409	9.579959	-0.021435	-2.220380	0.064459	-0.000652	0.021030	1.000000	-0.000006	0.000030	0.000029	-179.828612	-77.316177	-167.300695
42410	9.625518	-0.026516	-2.189916	0.027342	-0.015316	0.058790	1.000000	-0.000033	0.000030	0.000014	-179.860034	-77.317766	-167.262402
42411	9.613224	-0.026733	-2.210477	0.049800	-0.010452	0.051309	1.000000	0.000001	0.000019	0.000016	-179.858585	-77.318444	-167.262911
42412	9.596854	-0.017586	-2.143714	-0.012755	-0.015526	0.020675	1.000000	-0.000003	0.000020	0.000023	-179.860799	-77.315133	-167.256760
42413	9.592789	-0.022712	-2.197469	0.040567	-0.008475	0.028515	1.000000	-0.000009	0.000029	0.000019	-179.859259	-77.316892	-167.258491
42414	9.613608	-0.047086	-2.152428	-0.001226	-0.043181	0.038950	1.000000	-0.000006	0.000030	0.000029	-179.860435	-77.317135	-167.254379
42415	9.609506	0.000430	-2.177896	0.013389	0.009024	0.040514	1.000000	-0.000017	0.000011	0.000016	-179.861378	-77.316887	-167.254516
42416	9.593093	-0.023781	-2.196131	0.039870	-0.010177	0.028517	1.000000	-0.000009	0.000029	0.000019	-179.870926	-77.318720	-167.242544
42417	9.609682	-0.000270	-2.177117	0.013092	0.007993	0.040515	1.000000	-0.000008	0.000012	0.000030	-179.863585	-77.318572	-167.250044
42418	9.609711	-0.000493	-2.176991	0.012130	0.008326	0.040516	1.000000	-0.000017	0.000001	-0.000001	-179.851648	-77.313620	-167.269772
42419	9.613864	0.023337	-2.179201	0.008005	0.031684	0.045039	1.000000	-0.000010	0.000020	0.000019	-179.849932	-77.314363	-167.271776
42420	9.613954	0.023010	-2.178806	0.007086	0.031999	0.045039	1.000000	-0.000020	0.000021	0.000022	-179.827467	-77.311915	-167.302517
42421	9.626374	0.041868	-2.214087	0.033818	0.057543	0.064891	1.000000	-0.000021	0.000012	0.000022	-179.825249	-77.311739	-167.306356
42422	9.597598	-0.001590	-2.196795	0.033506	0.012127	0.033049	1.000000	-0.000020	0.000021	0.000022	-179.844770	-77.313045	-167.282639
42423	9.601819	0.022133	-2.198724	0.029378	0.035485	0.037576	1.000000	-0.000022	0.000029	0.000011	-179.848556	-77.314786	-167.280482
42424	9.614343	0.021786	-2.177099	0.005925	0.029405	0.045048	1.000000	-0.000037	0.000032	0.000037	-179.852298	-77.312810	-167.278989
42425	9.597956	-0.002582	-2.195229	0.032301	0.010612	0.033055	1.000000	-0.000010	0.000020	0.000019	-179.850619	-77.313527	-167.280949
42426	9.639277	0.040093	-2.190840	0.007075	0.048260	0.072386	1.000000	-0.000008	0.000012	0.000030	-179.858013	-77.296454	-167.269414
42427	9.606406	-0.027400	-2.171000	0.010449	-0.020054	0.035993	1.000000	-0.000008	0.000038	0.000018	-179.856658	-77.299081	-167.270844
42428	9.590015	0.001045	-2.160699	-0.002427	0.005745	0.017723	1.000000	-0.000016	0.000020	0.000015	-179.868987	-77.295958	-167.258030
42429	9.590104	0.019993	-2.216860	0.046927	0.036469	0.030149	1.000000	-0.000009	0.000029	0.000019	-179.867564	-77.297565	-167.259610
42430	9.623230	0.014886	-2.207498	0.030578	0.026882	0.060416	1.000000	-0.000010	0.000020	0.000019	-179.883930	-77.287405	-167.239476
42431	9.594472	0.024033	-2.161608	-0.008691	0.027376	0.022260	1.000000	-0.000002	0.000038	0.000022	-179.880032	-77.289955	-167.242704
42432	9.606911	0.042965	-2.196911	0.018534	0.052300	0.042155	1.000000	-0.000004	-0.000008	0.000007	-179.902918	-77.289694	-167.213120
42433	9.586309	0.047507	-2.184630	0.010116	0.054981	0.019355	1.000000	-0.000030	0.000022	0.000025	-179.901090	-77.290457	-167.217617
42434	9.607037	0.042408	-2.196372	0.017920	0.050856	0.042164	1.000000	-0.000010	0.000020	0.000019	-179.919177	-77.289177	-167.194775
42435	9.603004	0.018138	-2.193579	0.021632	0.026860	0.037623	1.000000	-0.000020	0.000021	0.000022	-179.917687	-77.289834	-167.197693
42436	9.574226	0.046505	-2.204397	0.032885	0.058986	0.011913	1.000000	-0.000002	0.000029	0.000022	-179.904387	-77.297584	-167.213316
42437	9.615612	0.036430	-2.228197	0.049033	0.052629	0.057520	1.000000	-0.000011	0.000022	0.000036	-179.894500	-77.298375	-167.223732
42438	9.603321	0.016744	-2.192203	0.020935	0.026280	0.037626	1.000000	-0.000020	0.000021	0.000022	-179.891481	-77.293328	-167.229660
42439	9.586926	0.045132	-2.181969	0.008577	0.052625	0.019369	1.000000	-0.000019	0.000030	0.000021	-179.890030	-77.294998	-167.232463
42440	9.603569	0.015874	-2.191120	0.020383	0.024479	0.037632	1.000000	-0.000024	0.000032	0.000045	-179.906154	-77.294985	-167.210661
42441	9.620171	-0.013494	-2.200441	0.032285	-0.002535	0.055887	1.000000	-0.000008	0.000012	0.000030	-179.899208	-77.294640	-167.217693
42442	9.599626	-0.009151	-2.187899	0.023611	-0.000546	0.033086	1.000000	-0.000019	0.000030	0.000021	-179.914403	-77.293916	-167.197695
42443	9.608002	-0.014372	-2.220599	0.054223	0.001312	0.048450	1.000000	-0.000000	0.000021	0.000033	-179.904967	-77.294564	-167.206400
42444	9.612197	-0.010203	-2.165963	0.000501	-0.007242	0.040524	1.000000	-0.000013	0.000021	0.000026	-179.921629	-77.294238	-167.185761
42445	9.604057	0.013343	-2.188998	0.018974	0.021292	0.037642	1.000000	-0.000013	0.000021	0.000026	-179.917693	-77.294888	-167.190380
42446	9.612376	-0.011066	-2.165166	-0.000975	-0.007683	0.040524	1.000000	-0.000003	0.000020	0.000023	-179.901555	-77.289971	-167.210747
42447	9.600095	-0.011502	-2.185830	0.021451	-0.002804	0.033090	1.000000	0.000004	0.000020	0.000027	-179.895080	-77.290493	-167.215973
42448	9.583688	0.016792	-2.175690	0.007838	0.023437	0.014844	1.000000	-0.000020	0.000021	0.000022	-179.888944	-77.283880	-167.224642
42449	9.620908	-0.016927	-2.197192	0.027902	-0.006611	0.055899	1.000000	-0.000002	0.000018	0.000006	-179.893687	-77.284175	-167.219053
42450	9.620975	-0.017248	-2.196899	0.028096	-0.006831	0.055898	1.000000	-0.000008	0.000012	0.000030	-179.886179	-77.286400	-167.226513
42451	9.604536	0.010982	-2.186909	0.015725	0.019509	0.037652	1.000000	-0.000025	0.000013	0.000029	-179.881758	-77.286102	-167.232947
42452	9.625249	0.005763	-2.198722	0.026442	0.017121	0.060449	1.000000	-0.000003	0.000020	0.000023	-179.868870	-77.303707	-167.244739
42453	9.592336	0.010113	-2.207248	0.040699	0.025036	0.030213	1.000000	-0.000007	0.000021	0.000029	-179.862044	-77.304405	-167.251572
42454	9.637774	0.004851	-2.176955	0.002383	0.010816	0.067886	1.000000	-0.000027	0.000012	0.000018	-179.868149	-77.298180	-167.244936
42455	9.567714	-0.009859	-2.192007	0.035087	0.003333	0.002856	1.000000	-0.000010	0.000031	0.000036	-179.858528	-77.299951	-167.254978
42456	9.621443	-0.019854	-2.194827	0.027882	-0.008841	0.055897	1.000000	-0.000003	0.000010	0.000006	-179.873559	-77.294806	-167.237534
42457	9.592677	0.008921	-2.205772	0.038174	0.022733	0.030228	1.000000	-0.000025	0.000028	0.000001	-179.883585	-77.296272	-167.229239
42458	9.600972	-0.015289	-2.181952	0.019280	-0.006844	0.033093	1.000000	-0.000008	0.000012	0.000030	-179.886046	-77.295648	-167.224099
42459	9.601060	-0.015667	-2.181558	0.019051	-0.007185	0.033093	1.000000	-0.000016	0.000029	0.000015	-179.887783	-77.297210	-167.223173
42460	9.613628	0.003269	-2.216556	0.046549	0.018196	0.053035	1.000000	-0.000019	0.000030	0.000021	-179.895198	-77.303611	-167.213680
42461	9.634292	-0.020996	-2.171595	0.004974	-0.016272	0.063322	1.000000	-0.000013	0.000019	0.000009	-179.899785	-77.304101	-167.209483
42462	9.638641	0.022046	-2.230132	0.048388	0.037457	0.080423	1.000000	-0.000005	0.000028	0.000012	-179.908048	-77.293862	-167.200130
42463	9.593307	0.007415	-2.203037	0.035787	0.019529	0.030244	1.000000	-0.000020	0.000021	0.000022	-179.906793	-77.294490	-167.202788
42464	9.572731	0.011987	-2.190621	0.026861	0.021025	0.007444	1.000000	-0.000003	0.000010	0.000006	-179.939600	-77.289286	-167.162155
42465	9.618265	0.026134	-2.216863	0.038983	0.038251	0.057631	1.000000	-0.000019	0.000030	0.000021	-179.938613	-77.290898	-167.164431
42466	9.593554	0.006551	-2.201964	0.035852	0.017503	0.030248	1.000000	-0.000008	0.000012	0.000030	-179.934061	-77.298176	-167.169315
42467	9.585456	0.030174	-2.225002	0.054305	0.046051	0.027406	1.000000	-0.000016	0.000029	0.000015	-179.936011	-77.299731	-167.168149
42468	9.618580	0.025109	-2.215507	0.039150	0.037716	0.057633	1.000000	-0.000016	0.000029	0.000015	-179.927565	-77.299194	-167.181564
42469	9.602207	0.053520	-2.205288	0.026773	0.064057	0.039405	1.000000	-0.000003	0.000020	0.000023	-179.923928	-77.299736	-167.184657
42470	9.598135	0.029153	-2.202523	0.029865	0.040138	0.034833	1.000000	-0.000013	0.000021	0.000026	-179.914082	-77.296730	-167.201358
42471	9.618895	0.023880	-2.214153	0.037795	0.036751	0.057642	1.000000	-0.000006	0.000030	0.000029	-179.907600	-77.298357	-167.207721
42472	9.590078	0.032978	-2.168295	-0.001131	0.036894	0.019444	1.000000	-0.000009	0.000029	0.000019	-179.917544	-77.301155	-167.195948
42473	9.598530	0.027825	-2.200818	0.029463	0.038752	0.034840	1.000000	-0.000016	0.000039	0.000031	-179.910999	-77.303895	-167.203505
42474	9.611001	0.027339	-2.179200	0.008314	0.032135	0.042255	1.000000	0.000011	0.000018	0.000013	-179.947407	-77.312898	-167.151648
42475	9.598767	0.027035	-2.199794	0.030750	0.037038	0.034842	1.000000	-0.000023	0.000031	0.000028	-179.943615	-77.314685	-167.157240
42476	9.615396	-0.002128	-2.208875	0.042407	0.009466	0.053066	1.000000	-0.000012	0.000038	0.000025	-179.952262	-77.315139	-167.148847
42477	9.611389	0.026165	-2.177501	0.007371	0.030545	0.042261	1.000000	-0.000010	0.000020	0.000019	-179.951568	-77.315716	-167.149686
42478	9.594986	0.001871	-2.195724	0.033506	0.010422	0.030266	1.000000	-0.000006	0.000030	0.000029	-179.979713	-77.313956	-167.111391
42479	9.628118	-0.003313	-2.186126	0.018788	0.001746	0.060482	1.000000	-0.000011	0.000037	0.000008	-179.985084	-77.316427	-167.106157
42480	9.607619	0.001056	-2.173354	0.010116	0.003044	0.037678	1.000000	-0.000024	0.000032	0.000045	179.992626	-77.314975	-167.075834
42481	9.607712	0.000516	-2.172943	0.009892	0.002676	0.037678	1.000000	-0.000000	0.000010	0.000017	179.992889	-77.314422	-167.075059
42482	9.616117	-0.004635	-2.205731	0.039442	0.003766	0.053082	1.000000	-0.000006	0.000030	0.000029	179.985182	-77.309124	-167.063256
42483	9.620449	0.018774	-2.207438	0.035210	0.027035	0.057683	1.000000	-0.000005	0.000038	0.000029	179.990860	-77.311749	-167.068631
42484	9.612258	0.023077	-2.173700	0.003807	0.022808	0.042284	1.000000	-0.000010	0.000020	0.000019	179.950861	-77.308154	-167.016053
42485	9.620512	-0.001313	-2.149788	-0.015072	-0.006495	0.045079	1.000000	-0.000013	0.000030	0.000025	179.953772	-77.309761	-167.019436
42486	9.600169	0.022300	-2.193721	0.024999	0.026625	0.034892	1.000000	-0.000006	0.000030	0.000029	179.946965	-77.304728	-167.008900
42487	9.600284	0.021712	-2.193226	0.024763	0.026243	0.034894	1.000000	-0.000011	0.000022	0.000036	179.955589	-77.305402	-167.017876
42488	9.587866	0.002006	-2.157266	-0.003999	-0.000537	0.014874	1.000000	-0.000041	0.000023	0.000027	179.952809	-77.295639	-167.019871
42489	9.608609	-0.003025	-2.168970	0.003912	-0.003985	0.037682	1.000000	-0.000002	0.000018	0.000006	179.946992	-77.295865	-167.013059
42490	9.596414	-0.003370	-2.189474	0.027981	0.000329	0.030289	1.000000	-0.000023	0.000041	0.000045	179.933130	-77.307332	-166.992322
42491	9.600724	0.020022	-2.191316	0.023727	0.023577	0.034903	1.000000	-0.000021	0.000012	0.000022	179.933420	-77.306903	-166.993953
42492	9.621247	-0.004523	-2.146491	-0.018794	-0.011267	0.045069	1.000000	-0.000007	0.000021	0.000029	179.939005	-77.301536	-166.997924
42493	9.600890	0.019103	-2.190594	0.022262	0.022575	0.034909	1.000000	-0.000013	0.000021	0.000026	179.941867	-77.302083	-167.001317
42494	9.633976	0.013880	-2.181131	0.008182	0.012418	0.065106	1.000000	-0.000016	0.000029	0.000015	179.898709	-77.305486	-166.945319
42495	9.596914	-0.005534	-2.187275	0.026477	-0.003233	0.030293	1.000000	-0.000017	0.000022	0.000032	179.904316	-77.306147	-166.951945
42496	9.629957	-0.010761	-2.177987	0.009764	-0.012589	0.060487	1.000000	-0.000003	0.000010	0.000006	179.895086	-77.293414	-166.944370
42497	9.617711	-0.011105	-2.198747	0.032178	-0.007679	0.053106	1.000000	-0.000025	0.000024	0.000045	179.906533	-77.294224	-166.957852
42498	9.601370	0.017105	-2.188509	0.020299	0.018592	0.034922	1.000000	0.000001	0.000028	0.000016	179.901693	-77.298589	-166.949851
42499	9.617912	-0.011965	-2.197864	0.032239	-0.008508	0.053106	1.000000	-0.000021	0.000012	0.000022	179.901770	-77.298110	-166.951231
42500	9.601530	0.016404	-2.187811	0.019264	0.017248	0.034926	1.000000	-0.000003	0.000020	0.000023	179.893218	-77.294667	-166.938097
42501	9.601617	0.016086	-2.187433	0.019020	0.016849	0.034927	1.000000	-0.000006	0.000019	0.000012	179.889952	-77.294972	-166.934294
42502	9.593596	0.039851	-2.210482	0.035557	0.045156	0.032189	1.000000	-0.000010	0.000020	0.000019	179.894628	-77.284559	-166.944608
42503	9.601813	0.015393	-2.186576	0.016681	0.015813	0.034933	1.000000	-0.000006	0.000030	0.000029	179.899808	-77.286020	-166.949467
42504	9.581489	0.039199	-2.230690	0.056650	0.050295	0.024828	1.000000	-0.000024	0.000011	0.000012	179.916983	-77.280118	-166.976386
42505	9.601977	0.014735	-2.185860	0.015104	0.015645	0.034936	1.000000	-0.000017	0.000022	0.000032	179.922631	-77.280656	-166.983045
42506	9.626922	0.033412	-2.199960	0.019883	0.035413	0.062378	1.000000	-0.000021	0.000012	0.000022	179.907279	-77.284906	-166.964903
42507	9.622780	0.009153	-2.197314	0.023668	0.011385	0.057748	1.000000	0.000001	0.000019	0.000016	179.906781	-77.285164	-166.963158
42508	9.589904	0.013698	-2.205918	0.037280	0.019058	0.027575	1.000000	-0.000024	0.000022	0.000028	179.905133	-77.281554	-166.963204
42509	9.606519	0.037146	-2.186771	0.010325	0.036968	0.039575	1.000000	-0.000010	0.000020	0.000019	179.904844	-77.281898	-166.962890
42510	9.623055	0.008015	-2.196118	0.023728	0.008939	0.057750	1.000000	-0.000013	0.000021	0.000026	179.874820	-77.289557	-166.923028
42511	9.623164	0.007639	-2.195638	0.023480	0.008534	0.057751	1.000000	-0.000009	0.000029	0.000019	179.874247	-77.290938	-166.922321
42512	9.594527	0.036178	-2.206501	0.032934	0.039553	0.032223	1.000000	-0.000020	0.000021	0.000022	179.862734	-77.286223	-166.909073
42513	9.627588	0.030810	-2.197081	0.018161	0.030730	0.062397	1.000000	-0.000017	0.000022	0.000032	179.868103	-77.286785	-166.915417
42514	9.582432	0.035530	-2.226696	0.053693	0.043926	0.024875	1.000000	-0.000012	0.000028	0.000008	179.866662	-77.279869	-166.918874
42515	9.615226	0.010944	-2.160626	-0.010499	0.003909	0.042305	1.000000	-0.000007	0.000021	0.000029	179.871828	-77.280293	-166.923786
42516	9.594958	0.034568	-2.204650	0.028540	0.037271	0.032245	1.000000	-0.000006	0.000030	0.000029	179.875472	-77.269773	-166.929068
42517	9.615447	0.009928	-2.159650	-0.013001	0.002577	0.042302	1.000000	-0.000013	0.000021	0.000026	179.877932	-77.270148	-166.931980
42518	9.623919	0.004841	-2.192336	0.016044	0.004284	0.057769	1.000000	-0.000009	0.000029	0.000019	179.883098	-77.262869	-166.941370
42519	9.619904	0.033221	-2.160956	-0.019064	0.025261	0.046947	1.000000	-0.000005	0.000028	0.000012	179.879609	-77.264007	-166.937213
42520	9.616104	0.028254	-2.214647	0.032749	0.032407	0.055078	1.000000	-0.000016	0.000031	0.000032	179.892816	-77.257672	-166.954580
42521	9.628513	0.027706	-2.193066	0.009805	0.026665	0.062421	1.000000	-0.000010	0.000020	0.000019	179.892422	-77.257877	-166.954124
42522	9.595321	0.012880	-2.145187	-0.025780	0.004009	0.019479	1.000000	-0.000008	0.000012	0.000030	179.913739	-77.255238	-166.978587
42523	9.607997	0.031611	-2.180353	0.000672	0.029458	0.039606	1.000000	-0.000024	0.000022	0.000028	179.916557	-77.255641	-166.983094
42524	9.591569	0.007258	-2.198696	0.027108	0.009968	0.027622	1.000000	-0.000011	0.000022	0.000036	179.904227	-77.254977	-166.964725
42525	9.624618	0.001770	-2.189269	0.012278	0.001121	0.057775	1.000000	-0.000003	0.000020	0.000023	179.906517	-77.255170	-166.966239
42526	9.608279	0.030103	-2.179133	0.000658	0.027688	0.039611	1.000000	-0.000013	0.000021	0.000026	179.910708	-77.260518	-166.972621
42527	9.612530	0.000982	-2.209480	0.035220	0.005895	0.050439	1.000000	-0.000006	0.000030	0.000029	179.915795	-77.261839	-166.977358
42528	9.591955	0.005387	-2.197018	0.026800	0.008380	0.027624	1.000000	-0.000010	0.000011	0.000019	179.910330	-77.260609	-166.971595
42529	9.629222	0.023922	-2.189995	0.007915	0.023147	0.062431	1.000000	-0.000017	0.000022	0.000032	179.915752	-77.261031	-166.977984
42530	9.625095	-0.000443	-2.187172	0.011183	-0.000791	0.057776	1.000000	-0.000019	0.000030	0.000021	179.920897	-77.259548	-166.985659
42531	9.629449	0.023209	-2.189006	0.006846	0.022419	0.062434	1.000000	-0.000027	0.000021	0.000018	179.918030	-77.259862	-166.984674
42532	9.612994	-0.000923	-2.207459	0.034044	0.003282	0.050444	1.000000	-0.000014	0.000012	0.000026	179.904599	-77.262830	-166.968485
42533	9.596622	0.027516	-2.197498	0.021596	0.029597	0.032289	1.000000	-0.000007	0.000011	0.000013	179.901356	-77.261950	-166.964759
42534	9.625398	-0.001707	-2.185839	0.010500	-0.004087	0.057776	1.000000	-0.000013	0.000021	0.000026	179.874804	-77.258807	-166.929653
42535	9.604822	0.002747	-2.173372	0.002114	-0.001395	0.034960	1.000000	-0.000020	0.000021	0.000022	179.874448	-77.259123	-166.930439
42536	9.592649	0.002558	-2.193991	0.023724	0.003179	0.027635	1.000000	-0.000009	0.000029	0.000019	179.869061	-77.255411	-166.925558
42537	9.629958	0.021083	-2.186783	0.004819	0.017912	0.062444	1.000000	-0.000017	0.000022	0.000032	179.874302	-77.255808	-166.931737
42538	9.597124	0.025625	-2.195325	0.019857	0.025335	0.032305	1.000000	-0.000019	0.000030	0.000021	179.853003	-77.260612	-166.903894
42539	9.609533	0.025114	-2.173661	-0.003082	0.019557	0.039630	1.000000	-0.000002	0.000029	0.000022	179.854887	-77.261823	-166.904872
42540	9.618034	0.019986	-2.206341	0.027673	0.021186	0.055124	1.000000	-0.000013	0.000021	0.000026	179.850565	-77.263331	-166.901252
42541	9.630383	0.019517	-2.184926	0.004735	0.015404	0.062448	1.000000	-0.000017	0.000011	0.000016	179.847297	-77.262545	-166.898689
42542	9.605900	0.019526	-2.226827	0.049480	0.025583	0.047807	1.000000	-0.000010	0.000020	0.000019	179.845257	-77.260830	-166.896134
42543	9.614014	-0.004926	-2.203005	0.030618	-0.003814	0.050455	1.000000	-0.000024	0.000022	0.000028	179.847686	-77.261245	-166.900200
42544	9.597709	0.023576	-2.192791	0.017158	0.021696	0.032318	1.000000	-0.000001	0.000027	0.000005	179.826309	-77.255509	-166.871004
42545	9.610473	0.042384	-2.227791	0.043567	0.047132	0.052500	1.000000	-0.000004	0.000022	0.000040	179.836773	-77.255894	-166.880953
42546	9.630875	0.017628	-2.182773	0.001783	0.012498	0.062453	1.000000	-0.000019	0.000030	0.000021	179.841238	-77.255903	-166.889061
42547	9.614451	-0.006474	-2.201095	0.028253	-0.006169	0.050461	1.000000	0.000001	0.000019	0.000016	179.840278	-77.255977	-166.886762
42548	9.581719	0.050699	-2.181225	0.002108	0.046214	0.014190	1.000000	-0.000013	0.000021	0.000026	179.834405	-77.246873	-166.879299
42549	9.618895	0.016698	-2.202613	0.022105	0.015931	0.055148	1.000000	-0.000020	0.000021	0.000022	179.833850	-77.247120	-166.879847
42550	9.598320	0.021053	-2.190140	0.014221	0.019008	0.032329	1.000000	-0.000021	0.000023	0.000039	179.848612	-77.250912	-166.895885
42551	9.619090	0.015714	-2.201768	0.022037	0.015460	0.055149	1.000000	-0.000020	0.000021	0.000022	179.848087	-77.251174	-166.896470
42552	9.594222	-0.003694	-2.187101	0.017145	-0.005944	0.027647	1.000000	-0.000010	0.000011	0.000019	179.838291	-77.246246	-166.883922
42553	9.598618	0.019912	-2.188842	0.012770	0.017238	0.032334	1.000000	-0.000018	0.000047	0.000021	179.837325	-77.249503	-166.883776
42554	9.615279	0.043367	-2.169482	-0.014704	0.034506	0.044326	1.000000	-0.000000	0.000010	0.000017	179.825283	-77.245398	-166.867624
42555	9.602975	-0.009348	-2.218752	0.046625	-0.005503	0.043167	1.000000	-0.000019	0.000030	0.000021	179.824544	-77.246637	-166.867885
42556	9.619621	0.014044	-2.199457	0.019990	0.012603	0.055157	1.000000	-0.000013	0.000021	0.000026	179.832129	-77.249625	-166.877004
42557	9.591073	0.042443	-2.210328	0.030184	0.044295	0.029729	1.000000	-0.000010	0.000031	0.000036	179.839725	-77.250975	-166.884695
42558	9.599175	0.017821	-2.186419	0.011580	0.014824	0.032339	1.000000	-0.000013	0.000021	0.000026	179.838920	-77.252583	-166.883527
42559	9.603406	-0.011226	-2.216877	0.046153	-0.006955	0.043169	1.000000	-0.000003	0.000020	0.000023	179.840813	-77.252731	-166.884583
42560	9.599356	0.017015	-2.185627	0.010448	0.014032	0.032342	1.000000	-0.000020	0.000021	0.000022	179.845224	-77.249844	-166.893172
42561	9.615849	-0.012202	-2.194956	0.022351	-0.013133	0.050469	1.000000	-0.000017	0.000022	0.000032	179.850269	-77.250190	-166.899122
42562	9.599582	0.016048	-2.184643	0.010074	0.012809	0.032344	1.000000	0.000005	0.000038	0.000026	179.843869	-77.252960	-166.886715
42563	9.599730	0.015627	-2.183995	0.009790	0.012381	0.032344	1.000000	-0.000019	0.000030	0.000021	179.843127	-77.254212	-166.886976
42564	9.587134	-0.003983	-2.148065	-0.017882	-0.014372	0.012119	1.000000	-0.000003	0.000020	0.000023	179.837409	-77.249542	-166.877614
42565	9.587697	0.014992	-2.204152	0.031149	0.016451	0.025057	1.000000	-0.000013	0.000030	0.000025	179.839337	-77.250774	-166.879827
42566	9.608047	-0.009696	-2.159051	-0.011292	-0.019116	0.034935	1.000000	-0.000013	0.000030	0.000025	179.827627	-77.245739	-166.862033
42567	9.595906	-0.009958	-2.179680	0.011086	-0.014150	0.027648	1.000000	-0.000013	0.000021	0.000026	179.829638	-77.245946	-166.864410
42568	9.620942	0.008728	-2.193697	0.014194	0.005952	0.055174	1.000000	-0.000010	0.000011	0.000019	179.834249	-77.241875	-166.872211
42569	9.616765	-0.015628	-2.190915	0.018012	-0.018082	0.050470	1.000000	-0.000016	0.000039	0.000031	179.838926	-77.244181	-166.877581
42570	9.608960	0.008039	-2.213661	0.036590	0.009808	0.047892	1.000000	-0.000019	0.000030	0.000021	179.818657	-77.246262	-166.852937
42571	9.600619	0.012295	-2.180105	0.005551	0.007113	0.032353	1.000000	-0.000008	0.000012	0.000030	179.823450	-77.245456	-166.857469
42572	9.621369	0.007108	-2.191832	0.013273	0.003668	0.055176	1.000000	-0.000013	0.000019	0.000009	179.820771	-77.245244	-166.857660
42573	9.588550	0.011932	-2.200459	0.027570	0.011784	0.025074	1.000000	-0.000009	0.000029	0.000019	179.819699	-77.246345	-166.856340
42574	9.617425	0.035020	-2.160102	-0.021492	0.024417	0.044344	1.000000	-0.000011	0.000013	0.000036	179.830498	-77.249875	-166.868947
42575	9.600960	0.010837	-2.178614	0.005003	0.005790	0.032354	1.000000	-0.000016	0.000020	0.000015	179.826873	-77.249991	-166.865888
42576	9.605326	0.034488	-2.180598	0.000395	0.028025	0.037069	1.000000	-0.000010	0.000011	0.000019	179.803324	-77.246736	-166.833079
42577	9.621779	0.005374	-2.190035	0.012306	0.000843	0.055178	1.000000	-0.000010	0.000020	0.000019	179.802314	-77.246842	-166.831907
42578	9.588928	0.009990	-2.198819	0.026238	0.009942	0.025080	1.000000	-0.000008	0.000012	0.000030	179.834509	-77.245244	-166.874954
42579	9.601244	0.009318	-2.177367	0.003280	0.004101	0.032356	1.000000	-0.000024	0.000022	0.000028	179.836730	-77.245558	-166.878771
42580	9.609779	0.004304	-2.210111	0.033538	0.005861	0.047906	1.000000	-0.000016	0.000020	0.000015	179.832548	-77.244461	-166.873319
42581	9.605751	0.032532	-2.178756	-0.001617	0.026765	0.037072	1.000000	-0.000016	0.000031	0.000032	179.837335	-77.245772	-166.878894
42582	9.602052	0.027602	-2.232625	0.051160	0.034144	0.045355	1.000000	-0.000010	0.000011	0.000019	179.842252	-77.243096	-166.886080
42583	9.618136	0.031473	-2.156989	-0.025213	0.020627	0.044344	1.000000	-0.000018	0.000013	0.000033	179.847325	-77.242395	-166.892135
42584	9.601647	0.007301	-2.175596	0.000892	0.001881	0.032357	1.000000	-0.000010	0.000011	0.000019	179.845604	-77.239070	-166.889542
42585	9.618654	-0.002492	-2.241404	0.062080	0.005971	0.063472	1.000000	-0.000016	0.000039	0.000031	179.850279	-77.241371	-166.894913
42586	9.585519	0.035125	-2.164776	-0.012914	0.027427	0.014252	1.000000	-0.000017	0.000022	0.000032	179.852598	-77.235363	-166.899715
42587	9.598200	0.001517	-2.228397	0.052390	0.007919	0.040657	1.000000	-0.000013	0.000019	0.000009	179.846100	-77.235328	-166.893268
42588	9.594152	0.029743	-2.197131	0.017758	0.029069	0.029816	1.000000	-0.000011	0.000022	0.000036	179.856985	-77.238929	-166.905678
42589	9.606496	0.029067	-2.175514	-0.005207	0.023219	0.037080	1.000000	-0.000009	0.000029	0.000019	179.855977	-77.240012	-166.904434
42590	9.582145	0.029035	-2.217301	0.039274	0.033940	0.022559	1.000000	0.000004	0.000020	0.000027	179.872145	-77.237273	-166.924754
42591	9.594445	0.028361	-2.195870	0.016306	0.028093	0.029821	1.000000	-0.000004	0.000011	0.000023	179.874139	-77.236335	-166.925998
42592	9.606767	0.027681	-2.174336	-0.006552	0.021815	0.037082	1.000000	-0.000016	0.000031	0.000032	179.867313	-77.237687	-166.916911
42593	9.615333	0.022681	-2.207010	0.023886	0.023641	0.052651	1.000000	-0.000002	0.000018	0.000006	179.860620	-77.237551	-166.909049
42594	9.635498	-0.001962	-2.162347	-0.018700	-0.011498	0.062437	1.000000	-0.000009	-0.000005	0.000031	179.865294	-77.228256	-166.913689
42595	9.606959	0.026598	-2.173500	-0.008518	0.020247	0.037084	1.000000	-0.000019	0.000030	0.000021	179.864502	-77.229414	-166.913884
42596	9.611210	-0.002381	-2.203883	0.026261	-0.002354	0.047930	1.000000	-0.000013	0.000021	0.000026	179.843682	-77.229684	-166.883609
42597	9.615626	0.021159	-2.205749	0.021825	0.020800	0.052663	1.000000	-0.000020	0.000021	0.000022	179.842939	-77.229840	-166.883933
42598	9.590728	0.001790	-2.190976	0.016831	-0.000334	0.025105	1.000000	-0.000019	0.000030	0.000021	179.839678	-77.226236	-166.882195
42599	9.595165	0.025332	-2.192757	0.012391	0.022820	0.029840	1.000000	-0.000013	0.000021	0.000026	179.841624	-77.226373	-166.884493
42600	9.615968	0.019966	-2.204270	0.020274	0.019151	0.052669	1.000000	-0.000016	0.000031	0.000032	179.843957	-77.228266	-166.886428
42601	9.603281	0.000400	-2.168385	-0.006614	-0.007142	0.032352	1.000000	-0.000002	0.000018	0.000006	179.837176	-77.228096	-166.878456
42602	9.591128	0.000287	-2.189225	0.015649	-0.002172	0.025107	1.000000	-0.000008	0.000012	0.000030	179.841855	-77.226573	-166.881303
42603	9.607733	0.023506	-2.170113	-0.011467	0.015542	0.037090	1.000000	-0.000025	0.000013	0.000029	179.844134	-77.225814	-166.885256
42604	9.603477	-0.000853	-2.167516	-0.007572	-0.008611	0.032350	1.000000	-0.000013	0.000021	0.000026	179.842503	-77.226079	-166.883997
42605	9.591349	-0.001019	-2.188257	0.014799	-0.003610	0.025108	1.000000	-0.000010	0.000020	0.000019	179.841526	-77.226116	-166.882857
42606	9.624323	-0.006544	-2.178824	-0.001337	-0.012980	0.055177	1.000000	0.000003	0.000011	0.000027	179.845189	-77.217816	-166.885866
42607	9.595844	0.022045	-2.189823	0.008834	0.018784	0.029853	1.000000	-0.000019	0.000030	0.000021	179.844290	-77.218939	-166.885930
42608	9.591620	-0.002201	-2.187070	0.011026	-0.005920	0.025112	1.000000	-0.000020	0.000021	0.000022	179.835959	-77.208759	-166.877954
42609	9.616716	0.016609	-2.201033	0.014610	0.014047	0.052688	1.000000	-0.000013	0.000011	0.000009	179.829492	-77.207632	-166.871600
42610	9.608307	0.020959	-2.167596	-0.017062	0.011920	0.037087	1.000000	0.000004	0.000020	0.000027	179.852581	-77.204701	-166.901411
42611	9.583975	0.020961	-2.209468	0.027976	0.022365	0.022631	1.000000	-0.000030	0.000022	0.000025	179.852058	-77.204882	-166.903173
42612	9.621331	0.039446	-2.202101	0.008015	0.036404	0.057440	1.000000	-0.000009	0.000029	0.000019	179.843686	-77.200329	-166.891476
42613	9.617101	0.015151	-2.199360	0.011850	0.012377	0.052694	1.000000	-0.000013	0.000021	0.000026	179.845627	-77.200382	-166.893757
42614	9.584290	0.019940	-2.208112	0.025914	0.020616	0.022640	1.000000	-0.000006	0.000019	0.000012	179.844663	-77.198819	-166.895084
42615	9.617277	0.014561	-2.198592	0.010956	0.011546	0.052696	1.000000	-0.000010	0.000020	0.000019	179.843717	-77.198763	-166.893965
42616	9.629576	0.014012	-2.177053	-0.011895	0.005859	0.059917	1.000000	-0.000020	0.000021	0.000022	179.847291	-77.199890	-166.900388
42617	9.600907	-0.009786	-2.216683	0.037295	-0.007270	0.040726	1.000000	-0.000010	0.000020	0.000019	179.846361	-77.199838	-166.899291
42618	9.629797	0.013255	-2.176079	-0.012582	0.003859	0.059917	1.000000	-0.000016	0.000039	0.000031	179.822746	-77.200235	-166.865238
42619	9.601134	-0.010700	-2.215697	0.036613	-0.009256	0.040727	1.000000	-0.000015	0.000004	0.000026	179.824878	-77.198275	-166.867889
42620	9.605516	0.012886	-2.217807	0.032804	0.014467	0.045481	1.000000	-0.000017	0.000011	0.000016	179.832340	-77.201781	-166.879255
42621	9.589245	0.041373	-2.207760	0.020295	0.040796	0.027407	1.000000	-0.000003	0.000020	0.000023	179.834049	-77.201737	-166.880076
42622	9.617880	0.011959	-2.195971	0.008448	0.008379	0.052702	1.000000	-0.000010	0.000020	0.000019	179.845805	-77.196061	-166.897183
42623	9.605769	0.011811	-2.216719	0.030808	0.013394	0.045489	1.000000	-0.000013	0.000021	0.000026	179.847761	-77.196106	-166.899485
42624	9.593640	0.011663	-2.237551	0.052725	0.018683	0.038281	1.000000	-0.000010	0.000011	0.000019	179.856720	-77.192889	-166.913701
42625	9.589552	0.039923	-2.206452	0.017541	0.039563	0.027417	1.000000	-0.000000	0.000010	0.000017	179.855738	-77.191712	-166.911425
42626	9.626692	0.005896	-2.227725	0.037220	0.008575	0.068331	1.000000	-0.000008	0.000038	0.000018	179.840820	-77.191667	-166.889149
42627	9.622684	0.034155	-2.196269	0.002031	0.029446	0.057467	1.000000	-0.000020	0.000021	0.000022	179.840073	-77.191703	-166.889454
42628	9.630615	0.009677	-2.172475	-0.016832	-0.000699	0.059912	1.000000	-0.000010	0.000020	0.000019	179.822419	-77.190590	-166.866068
42629	9.589996	0.038587	-2.204546	0.016009	0.036561	0.027432	1.000000	-0.000013	0.000030	0.000025	179.824181	-77.191624	-166.868064
42630	9.610159	0.013770	-2.159429	-0.024912	0.001726	0.037077	1.000000	-0.000013	0.000030	0.000025	179.825472	-77.196134	-166.873558
42631	9.618774	0.008621	-2.192068	0.005473	0.003551	0.052707	1.000000	-0.000017	0.000022	0.000032	179.830259	-77.196280	-166.879195
42632	9.598168	0.013195	-2.179683	-0.002603	0.006187	0.029872	1.000000	-0.000013	0.000019	0.000009	179.819038	-77.197472	-166.868121
42633	9.614832	0.036551	-2.160305	-0.029767	0.023853	0.041844	1.000000	-0.000006	0.000030	0.000029	179.823482	-77.198519	-166.872090
42634	9.586233	0.012694	-2.199714	0.019457	0.010214	0.022671	1.000000	-0.000008	0.000038	0.000018	179.807798	-77.199823	-166.849802
42635	9.594851	0.007555	-2.232371	0.049841	0.012042	0.038306	1.000000	-0.000001	0.000012	0.000034	179.815148	-77.198857	-166.856149
42636	9.619285	0.006531	-2.189831	0.003322	0.000679	0.052708	1.000000	-0.000014	0.000012	0.000026	179.822937	-77.193124	-166.867554
42637	9.598680	0.011002	-2.177442	-0.005017	0.003437	0.029873	1.000000	-0.000013	0.000030	0.000025	179.824659	-77.194158	-166.869505
42638	9.640170	0.000703	-2.200992	0.010008	-0.003405	0.075545	1.000000	-0.000018	0.000013	0.000033	179.833995	-77.189374	-166.883028
42639	9.615190	-0.018684	-2.186373	0.005845	-0.024221	0.047933	1.000000	-0.000005	0.000028	0.000012	179.829944	-77.190188	-166.878179
42640	9.586786	0.010115	-2.197313	0.015873	0.007873	0.022680	1.000000	-0.000020	0.000021	0.000022	179.837249	-77.189806	-166.892583
42641	9.611968	0.028906	-2.211059	0.019391	0.027798	0.050294	1.000000	-0.000012	0.000028	0.000008	179.830532	-77.190623	-166.885785
42642	9.623555	0.008827	-2.132894	-0.052725	-0.010968	0.044251	1.000000	-0.000017	0.000022	0.000032	179.796049	-77.189199	-166.834984
42643	9.599264	0.008836	-2.174875	-0.007689	-0.000451	0.029872	1.000000	-0.000014	0.000012	0.000026	179.797944	-77.188208	-166.837283
42644	9.603696	0.032313	-2.176874	-0.012078	0.023106	0.034653	1.000000	-0.000014	0.000012	0.000026	179.810233	-77.188454	-166.854625
42645	9.587210	0.008166	-2.195475	0.014464	0.004570	0.022684	1.000000	-0.000007	0.000021	0.000029	179.814729	-77.188467	-166.858725
42646	9.612403	0.026739	-2.209196	0.019229	0.024563	0.050303	1.000000	-0.000019	0.000030	0.000021	179.808213	-77.196740	-166.852138
42647	9.603993	0.031071	-2.175581	-0.011782	0.021842	0.034656	1.000000	-0.000010	0.000020	0.000019	179.807103	-77.196677	-166.850831
42648	9.599701	0.006831	-2.172950	-0.008483	-0.002598	0.029871	1.000000	-0.000020	0.000021	0.000022	179.798832	-77.192916	-166.841260
42649	9.608337	0.001745	-2.205594	0.021890	-0.000771	0.045522	1.000000	-0.000006	0.000030	0.000029	179.803161	-77.193946	-166.845094
42650	9.629131	-0.003704	-2.217162	0.030575	-0.004485	0.068357	1.000000	-0.000008	0.000012	0.000030	179.800471	-77.198511	-166.836651
42651	9.612890	0.024740	-2.207098	0.018051	0.021851	0.050311	1.000000	-0.000027	0.000021	0.000018	179.796820	-77.198567	-166.834734
42652	9.608614	0.000606	-2.204385	0.022184	-0.002707	0.045521	1.000000	-0.000016	0.000029	0.000015	179.777408	-77.200244	-166.809991
42653	9.613135	0.024193	-2.206038	0.017673	0.020411	0.050315	1.000000	-0.000023	0.000031	0.000028	179.779171	-77.201409	-166.813186
42654	9.613251	0.023759	-2.205538	0.016968	0.020176	0.050317	1.000000	-0.000013	0.000021	0.000026	179.788793	-77.199528	-166.830097
42655	9.601174	0.023540	-2.226295	0.039329	0.025224	0.043138	1.000000	-0.000007	0.000021	0.000029	179.793208	-77.199570	-166.834109
42656	9.596897	-0.000908	-2.223572	0.042944	0.001293	0.038346	1.000000	-0.000016	0.000031	0.000032	179.801537	-77.199333	-166.846633
42657	9.613591	0.022312	-2.204068	0.015753	0.018913	0.050321	1.000000	0.000002	0.000028	0.000016	179.800045	-77.200166	-166.843614
42658	9.588581	0.002997	-2.189490	0.011384	-0.002672	0.022689	1.000000	-0.000021	0.000012	0.000022	179.780302	-77.196778	-166.816245
42659	9.588672	0.002671	-2.189093	0.011068	-0.003123	0.022689	1.000000	-0.000009	0.000029	0.000019	179.778950	-77.197712	-166.814578
42660	9.613882	0.021395	-2.202807	0.013761	0.016374	0.050329	1.000000	-0.000016	0.000020	0.000015	179.769709	-77.192621	-166.803071
42661	9.651241	0.039896	-2.195436	-0.005438	0.030752	0.085141	1.000000	-0.000016	0.000020	0.000015	179.765775	-77.192540	-166.799623
42662	9.614064	0.020798	-2.202019	0.013865	0.015084	0.050331	1.000000	-0.000007	0.000021	0.000029	179.755778	-77.196274	-166.782501
42663	9.589047	0.001485	-2.187448	0.009751	-0.005707	0.022689	1.000000	-0.000013	0.000019	0.000009	179.748904	-77.196099	-166.775592
42664	9.602120	0.020534	-2.222239	0.036367	0.019947	0.043162	1.000000	-0.000018	0.000039	0.000021	179.751394	-77.201105	-166.780242
42665	9.589307	0.000838	-2.186310	0.009580	-0.006356	0.022689	1.000000	-0.000017	0.000022	0.000032	179.755916	-77.201253	-166.785568
42666	9.593825	0.024316	-2.188028	0.004358	0.016791	0.027497	1.000000	-0.000019	0.000030	0.000021	179.759850	-77.198390	-166.794050
42667	9.614643	0.018966	-2.199506	0.012042	0.013108	0.050336	1.000000	0.000004	0.000020	0.000027	179.763991	-77.198307	-166.796545
42668	9.626909	0.018263	-2.177864	-0.011381	0.007292	0.057502	1.000000	-0.000009	0.000029	0.000019	179.769108	-77.197017	-166.803258
42669	9.594154	0.023091	-2.186596	0.002977	0.015586	0.027500	1.000000	-0.000013	0.000021	0.000026	179.770771	-77.197041	-166.805215
42670	9.614954	0.017788	-2.198154	0.010412	0.011572	0.050340	1.000000	-0.000010	0.000020	0.000019	179.762572	-77.195131	-166.794341
42671	9.631632	0.041037	-2.178705	-0.016802	0.029159	0.062314	1.000000	-0.000023	0.000031	0.000028	179.764283	-77.196264	-166.797470
42672	9.598635	-0.006595	-2.216047	0.035760	-0.007713	0.038372	1.000000	-0.000009	0.000029	0.000019	179.759641	-77.191577	-166.790029
42673	9.610900	-0.007309	-2.194385	0.012759	-0.013691	0.045529	1.000000	-0.000017	0.000022	0.000032	179.764167	-77.191685	-166.795354
42674	9.611010	-0.007633	-2.193904	0.011783	-0.013841	0.045530	1.000000	-0.000012	0.000028	0.000008	179.768923	-77.189190	-166.805419
42675	9.594804	0.020776	-2.183766	-0.000751	0.012503	0.027505	1.000000	-0.000005	0.000013	0.000040	179.779004	-77.188276	-166.814983
42676	9.615612	0.015149	-2.195295	0.006816	0.008746	0.050346	1.000000	-0.000010	0.000031	0.000036	179.785058	-77.188724	-166.820589
42677	9.624272	0.009912	-2.227996	0.037162	0.010578	0.066037	1.000000	-0.000018	0.000013	0.000033	179.789743	-77.187817	-166.826177
42678	9.615784	0.014170	-2.194549	0.006218	0.008173	0.050347	1.000000	-0.000016	0.000020	0.000015	179.794130	-77.188442	-166.836726
42679	9.578577	-0.004895	-2.201256	0.024805	-0.007073	0.015539	1.000000	-0.000008	0.000012	0.000030	179.798644	-77.187427	-166.840926
42680	9.628114	0.012963	-2.172569	-0.017631	0.001625	0.057495	1.000000	-0.000005	0.000039	0.000029	179.802920	-77.186334	-166.844201
42681	9.628205	0.012533	-2.172172	-0.017958	0.001171	0.057494	1.000000	-0.000011	0.000003	0.000020	179.801971	-77.184205	-166.843229
42682	9.616111	0.012499	-2.193128	0.004200	0.006181	0.050349	1.000000	-0.000010	0.000020	0.000019	179.800315	-77.182884	-166.840622
42683	9.595470	0.017003	-2.180870	-0.004111	0.008971	0.027508	1.000000	-0.000008	0.000012	0.000030	179.804827	-77.181857	-166.844818
42684	9.599686	-0.012031	-2.211468	0.031061	-0.012523	0.038383	1.000000	-0.000013	0.000021	0.000026	179.808783	-77.185597	-166.850874
42685	9.591493	0.044687	-2.149232	-0.039046	0.029568	0.016633	1.000000	-0.000010	0.000020	0.000019	179.807592	-77.185486	-166.849470
42686	9.624989	0.006290	-2.224913	0.033959	0.006817	0.066052	1.000000	-0.000017	0.000012	0.000016	179.803375	-77.183091	-166.845076
42687	9.608758	0.034860	-2.214950	0.021423	0.033168	0.048037	1.000000	-0.000010	0.000011	0.000019	179.802308	-77.181972	-166.843893
42688	9.607988	0.014858	-2.158040	-0.028108	0.001283	0.034648	1.000000	-0.000016	0.000031	0.000032	179.805882	-77.182502	-166.847930
42689	9.612279	-0.014114	-2.188303	0.006460	-0.020438	0.045523	1.000000	-0.000008	0.000038	0.000018	179.804441	-77.184396	-166.846080
42690	9.592839	0.062423	-2.203661	0.007408	0.058586	0.030030	1.000000	-0.000008	0.000012	0.000030	179.814076	-77.179210	-166.858330
42691	9.624597	-0.015332	-2.166320	-0.017616	-0.026854	0.052656	1.000000	-0.000013	0.000021	0.000026	179.815789	-77.179188	-166.860347
42692	9.609290	0.032657	-2.212673	0.018666	0.030797	0.048050	1.000000	-0.000013	0.000021	0.000026	179.817220	-77.177399	-166.860805
42693	9.596365	0.013009	-2.176957	-0.008090	0.004504	0.027508	1.000000	-0.000010	0.000020	0.000019	179.816044	-77.177266	-166.859416
42694	9.596435	0.012685	-2.176653	-0.009032	0.004524	0.027507	1.000000	-0.000010	0.000011	0.000019	179.830729	-77.173260	-166.881805
42695	9.613671	0.002978	-2.242572	0.051953	0.008640	0.058940	1.000000	-0.000017	0.000022	0.000032	179.835377	-77.173330	-166.887283
42696	9.608672	0.011612	-2.155012	-0.033121	-0.002464	0.034632	1.000000	-0.000005	-0.000008	0.000007	179.819366	-77.165005	-166.864364
42697	9.597479	0.031179	-2.232483	0.038334	0.034006	0.040938	1.000000	-0.000006	0.000030	0.000029	179.823670	-77.165955	-166.868164
42698	9.605285	0.006529	-2.208605	0.019747	0.004014	0.043228	1.000000	-0.000030	0.000022	0.000024	179.810331	-77.166533	-166.851411
42699	9.593244	0.006519	-2.229401	0.042099	0.009108	0.036107	1.000000	0.000011	0.000018	0.000013	179.808758	-77.166160	-166.847165
42700	9.622055	0.029487	-2.188769	-0.008038	0.021226	0.055190	1.000000	-0.000009	0.000029	0.000019	179.811582	-77.166046	-166.851494
42701	9.601430	0.034056	-2.176437	-0.016339	0.024030	0.032345	1.000000	-0.000014	0.000012	0.000026	179.813413	-77.164992	-166.853722
42702	9.584927	0.010137	-2.195118	0.009865	0.005763	0.020386	1.000000	-0.000016	0.000020	0.000015	179.816703	-77.162873	-166.863777
42703	9.622347	0.028512	-2.187496	-0.009428	0.020052	0.055191	1.000000	-0.000008	0.000038	0.000018	179.815305	-77.164722	-166.861972
42704	9.605919	0.004606	-2.205851	0.018045	0.001223	0.043232	1.000000	-0.000009	0.000029	0.000019	179.799159	-77.170070	-166.839187
42705	9.606070	0.004180	-2.205192	0.017715	0.000769	0.043233	1.000000	-0.000016	0.000040	0.000031	179.803490	-77.172143	-166.844136
42706	9.622799	0.027336	-2.185522	-0.010235	0.017980	0.055194	1.000000	-0.000019	0.000030	0.000021	179.798044	-77.168775	-166.836901
42707	9.609860	0.007682	-2.149726	-0.036968	-0.008316	0.034615	1.000000	-0.000013	0.000021	0.000026	179.799722	-77.168722	-166.838872
42708	9.618553	0.002562	-2.182428	-0.005896	-0.006005	0.050349	1.000000	-0.000017	0.000022	0.000032	179.811895	-77.173700	-166.856135
42709	9.589327	0.011605	-2.136971	-0.044838	-0.005483	0.011769	1.000000	-0.000007	0.000021	0.000029	179.816292	-77.173655	-166.860125
42710	9.635314	0.025069	-2.162610	-0.033488	0.010936	0.062308	1.000000	0.000004	0.000020	0.000027	179.816887	-77.173325	-166.859533
42711	9.635446	0.024480	-2.162025	-0.033819	0.010479	0.062307	1.000000	-0.000019	0.000040	0.000038	179.824112	-77.175506	-166.867895
42712	9.623405	0.024314	-2.182886	-0.011721	0.015643	0.055196	1.000000	-0.000012	-0.000006	0.000020	179.826327	-77.170978	-166.872821
42713	9.606837	0.000409	-2.201853	0.014882	-0.002799	0.043237	1.000000	-0.000000	0.000011	0.000017	179.825070	-77.169714	-166.870225
42714	9.590669	0.028844	-2.191725	0.002064	0.023966	0.025242	1.000000	-0.000006	0.000030	0.000029	179.841296	-77.169612	-166.894175
42715	9.599389	0.023784	-2.224350	0.032376	0.025800	0.040984	1.000000	-0.000020	0.000021	0.000022	179.840335	-77.169572	-166.894239
42716	9.607130	-0.000825	-2.200577	0.012198	-0.004619	0.043240	1.000000	-0.000003	0.000020	0.000023	179.828211	-77.160271	-166.872989
42717	9.598629	0.003433	-2.166990	-0.018778	-0.007363	0.027492	1.000000	-0.000009	0.000029	0.000019	179.826904	-77.161100	-166.871365
42718	9.623926	0.022106	-2.180614	-0.015765	0.012174	0.055196	1.000000	-0.000016	0.000020	0.000015	179.818046	-77.158587	-166.859829
42719	9.591201	0.027128	-2.189418	-0.001368	0.020561	0.025249	1.000000	-0.000009	0.000029	0.000019	179.816726	-77.159409	-166.858187
42720	9.612056	0.021739	-2.200760	0.005403	0.016386	0.048101	1.000000	-0.000016	0.000031	0.000032	179.814894	-77.155077	-166.855105
42721	9.607681	-0.002600	-2.198166	0.009325	-0.007614	0.043241	1.000000	-0.000021	0.000012	0.000022	179.813986	-77.153986	-166.855291
42722	9.619895	-0.003149	-2.176503	-0.013765	-0.013752	0.050333	1.000000	-0.000001	0.000036	0.000005	179.804343	-77.155079	-166.844429
42723	9.594822	-0.022301	-2.161864	-0.017788	-0.034472	0.022619	1.000000	-0.000020	0.000021	0.000022	179.803308	-77.154992	-166.844389
42724	9.612478	0.020550	-2.198928	0.003817	0.014333	0.048105	1.000000	-0.000010	0.000020	0.000019	179.800151	-77.153721	-166.840803
42725	9.596028	-0.003332	-2.217396	0.030430	-0.004090	0.036153	1.000000	-0.000008	0.000038	0.000018	179.798683	-77.155530	-166.838904
42726	9.615904	-0.028176	-2.172180	-0.010129	-0.039554	0.045462	1.000000	-0.000015	0.000029	0.000015	179.781359	-77.160949	-166.815933
42727	9.617027	-0.008665	-2.228123	0.038585	-0.008597	0.059002	1.000000	-0.000008	0.000027	0.000002	179.771513	-77.161558	-166.805427
42728	9.587777	0.000769	-2.182656	-0.001304	-0.008576	0.020389	1.000000	0.000001	0.000019	0.000016	179.762892	-77.155038	-166.789858
42729	9.613090	0.019385	-2.196262	0.002027	0.011218	0.048109	1.000000	-0.000019	0.000030	0.000021	179.761674	-77.155950	-166.789519
42730	9.629449	-0.009702	-2.205514	0.014594	-0.016326	0.066088	1.000000	-0.000023	0.000020	0.000011	179.744249	-77.159304	-166.767024
42731	9.625405	0.018555	-2.174109	-0.020652	0.004448	0.055193	1.000000	0.000008	0.000028	0.000020	179.745323	-77.159996	-166.765809
42732	9.580610	0.023944	-2.204062	0.017082	0.018426	0.018178	1.000000	-0.000022	0.000029	0.000011	179.733843	-77.164451	-166.751258
42733	9.604907	0.023145	-2.161186	-0.028623	0.006780	0.032343	1.000000	-0.000013	0.000019	0.000009	179.726941	-77.164164	-166.744294
42734	9.634377	0.013447	-2.205731	0.010846	0.005820	0.070961	1.000000	-0.000022	0.000029	0.000011	179.725065	-77.172618	-166.747645
42735	9.593023	0.023323	-2.181467	-0.005379	0.011938	0.025262	1.000000	-0.000009	0.000019	0.000002	179.715287	-77.172245	-166.737301
42736	9.601783	0.018653	-2.214042	0.024730	0.013927	0.041031	1.000000	-0.000011	0.000037	0.000008	179.712961	-77.173112	-166.736900
42737	9.614022	0.018093	-2.192191	0.001712	0.007874	0.048113	1.000000	-0.000019	0.000030	0.000021	179.711725	-77.174062	-166.736551
42738	9.634885	0.012800	-2.203512	0.009705	0.003741	0.070963	1.000000	-0.000019	0.000030	0.000021	179.698417	-77.176678	-166.719326
42739	9.606663	0.041745	-2.214500	0.019827	0.035706	0.045915	1.000000	-0.000016	0.000020	0.000015	179.694390	-77.176520	-166.715762
42740	9.605709	0.021889	-2.157631	-0.030748	0.003781	0.032339	1.000000	-0.000016	0.000020	0.000015	179.697018	-77.169419	-166.722930
42741	9.602710	0.069715	-2.182667	-0.016970	0.055987	0.035028	1.000000	-0.000023	0.000031	0.000028	179.698652	-77.170463	-166.725961
42742	9.606984	0.040769	-2.213122	0.017012	0.034404	0.045925	1.000000	-0.000003	0.000020	0.000023	179.706327	-77.167048	-166.735135
42743	9.593915	0.021213	-2.177562	-0.009662	0.008107	0.025263	1.000000	-0.000013	0.000011	0.000009	179.699583	-77.165752	-166.728440
42744	9.602987	0.068688	-2.181477	-0.018191	0.054780	0.035033	1.000000	-0.000016	0.000031	0.000032	179.703316	-77.169061	-166.732032
42745	9.602753	0.015735	-2.209854	0.020672	0.009561	0.041045	1.000000	-0.000008	0.000012	0.000030	179.707731	-77.167975	-166.736112
42746	9.610786	0.043360	-2.157213	-0.037630	0.025141	0.037216	1.000000	0.000005	0.000038	0.000026	179.724311	-77.168231	-166.759467
42747	9.607490	0.038628	-2.210964	0.015340	0.032584	0.045934	1.000000	-0.000013	0.000021	0.000026	179.725936	-77.168151	-166.761378
42748	9.582374	0.019323	-2.196426	0.011161	0.012107	0.018196	1.000000	-0.000019	0.000030	0.000021	179.731422	-77.168237	-166.773556
42749	9.619819	0.037405	-2.188672	-0.008221	0.026281	0.053003	1.000000	-0.000010	0.000031	0.000036	179.738524	-77.169263	-166.780657
42750	9.611275	0.041530	-2.155067	-0.038884	0.023462	0.037216	1.000000	-0.000020	0.000021	0.000022	179.734127	-77.170778	-166.777746
42751	9.615548	0.012587	-2.185526	-0.004314	0.001770	0.048115	1.000000	-0.000006	0.000030	0.000029	179.738339	-77.171701	-166.781440
42752	9.599404	0.041032	-2.175393	-0.017098	0.028431	0.030152	1.000000	-0.000010	0.000011	0.000019	179.745796	-77.169583	-166.793777
42753	9.603639	0.012088	-2.206022	0.017470	0.006740	0.041054	1.000000	-0.000017	0.000022	0.000032	179.750339	-77.169610	-166.799137
42754	9.627878	0.010921	-2.163181	-0.029481	-0.005359	0.055170	1.000000	-0.000010	0.000020	0.000019	179.745424	-77.161847	-166.792079
42755	9.595162	0.015833	-2.172106	-0.015056	0.003094	0.025259	1.000000	-0.000017	0.000022	0.000032	179.749956	-77.161855	-166.797419
42756	9.616011	0.010372	-2.183500	-0.007448	-0.000570	0.048113	1.000000	-0.000002	0.000029	0.000022	179.753755	-77.162926	-166.802916
42757	9.616121	0.009892	-2.183018	-0.007789	-0.001028	0.048113	1.000000	-0.000007	0.000021	0.000029	179.758109	-77.162822	-166.806856
42758	9.611703	-0.014542	-2.180465	-0.004115	-0.024905	0.043216	1.000000	-0.000007	0.000021	0.000029	179.766955	-77.161294	-166.817227
42759	9.624957	0.004259	-2.215391	0.021863	0.000464	0.063916	1.000000	-0.000014	0.000012	0.000026	179.768745	-77.160187	-166.819414
42760	9.599802	-0.015144	-2.200948	0.018199	-0.020170	0.036163	1.000000	-0.000016	0.000031	0.000032	179.772401	-77.162973	-166.822818
42761	9.637232	0.002964	-2.193261	-0.001208	-0.006021	0.070966	1.000000	-0.000010	0.000020	0.000019	179.771188	-77.162770	-166.821389
42762	9.616561	0.007627	-2.181086	-0.010267	-0.003141	0.048110	1.000000	-0.000000	0.000011	0.000017	179.775324	-77.156955	-166.826274
42763	9.595554	-0.040062	-2.197629	0.020676	-0.045043	0.031264	1.000000	-0.000026	0.000030	0.000017	179.771493	-77.157865	-166.824065
42764	9.625456	0.002528	-2.213225	0.019600	-0.001953	0.063920	1.000000	-0.000015	0.000029	0.000015	179.762827	-77.158091	-166.812645
42765	9.600308	-0.016601	-2.198731	0.015642	-0.022622	0.036162	1.000000	-0.000016	0.000020	0.000015	179.758922	-77.157881	-166.809230
42766	9.600377	-0.016771	-2.198425	0.015690	-0.023101	0.036161	1.000000	-0.000024	0.000012	0.000012	179.749540	-77.158854	-166.800718
42767	9.604943	0.007064	-2.200359	0.011047	-0.000032	0.041065	1.000000	-0.000010	0.000010	0.000002	179.739989	-77.157430	-166.790725
42768	9.625791	0.001917	-2.211768	0.018873	-0.004024	0.063921	1.000000	-0.000018	0.000039	0.000021	179.731657	-77.160493	-166.780566
42769	9.625939	0.001703	-2.211123	0.018531	-0.004482	0.063922	1.000000	-0.000012	0.000028	0.000008	179.724724	-77.161189	-166.773506
42770	9.605309	0.006468	-2.198764	0.010423	-0.001724	0.041066	1.000000	-0.000030	0.000022	0.000024	179.720311	-77.161902	-166.766949
42771	9.621960	0.029703	-2.179358	-0.016917	0.015717	0.053014	1.000000	-0.000007	0.000011	0.000013	179.716313	-77.160583	-166.762312
42772	9.605469	0.005976	-2.198068	0.009762	-0.002535	0.041066	1.000000	-0.000015	0.000029	0.000015	179.714834	-77.161647	-166.763898
42773	9.596910	0.010305	-2.164402	-0.021181	-0.005296	0.025247	1.000000	-0.000019	0.000030	0.000021	179.713660	-77.162561	-166.763632
42774	9.629833	0.004713	-2.154484	-0.036319	-0.015263	0.055137	1.000000	-0.000012	0.000028	0.000008	179.692725	-77.162408	-166.734399
42775	9.597180	0.009878	-2.163209	-0.021880	-0.006769	0.025244	1.000000	-0.000008	0.000038	0.000018	179.691209	-77.164212	-166.732452
42776	9.630103	0.004280	-2.153278	-0.036975	-0.016160	0.055133	1.000000	-0.000033	0.000021	0.000014	179.685243	-77.164309	-166.728212
42777	9.634716	0.028164	-2.155021	-0.041632	0.006899	0.060047	1.000000	-0.000015	0.000019	-0.000002	179.672818	-77.163898	-166.715943
42778	9.609528	0.009247	-2.140651	-0.045743	-0.013928	0.032271	1.000000	-0.000023	0.000020	0.000011	179.662940	-77.162460	-166.703973
42779	9.621624	0.008684	-2.119206	-0.068774	-0.020026	0.039299	1.000000	-0.000008	0.000002	0.000013	179.659041	-77.160131	-166.699524
42780	9.581316	0.038291	-2.151900	-0.035072	0.017577	0.007303	1.000000	-0.000017	0.000001	-0.000001	179.639985	-77.162696	-166.677724
42781	9.576738	0.014377	-2.149997	-0.031088	-0.006402	0.002382	1.000000	-0.000017	-0.000024	0.000010	179.633759	-77.157368	-166.671957
42782	9.581218	0.038150	-2.152338	-0.035325	0.016174	0.007305	1.000000	-0.000014	0.000002	0.000009	179.612302	-77.156836	-166.643314
42783	9.573267	0.009883	-2.204840	0.021952	0.000158	0.011180	1.000000	-0.000011	-0.000033	0.000015	179.608879	-77.150501	-166.639731
42784	9.589774	0.033316	-2.186053	-0.005187	0.017117	0.023134	1.000000	-0.000007	0.000000	-0.000004	179.583658	-77.148604	-166.606141
42785	9.631234	0.023218	-2.209913	0.010293	0.009992	0.068847	1.000000	-0.000034	-0.000013	0.000026	179.583188	-77.144619	-166.608272
42786	9.611619	0.047676	-2.254682	0.050631	0.044325	0.059727	1.000000	-0.000015	-0.000007	0.000010	179.578260	-77.139202	-166.603927
42787	9.619129	0.023211	-2.231379	0.031937	0.014695	0.061825	1.000000	-0.000008	0.000002	0.000013	179.574303	-77.136885	-166.599401
42788	9.619136	0.023098	-2.231352	0.032125	0.013828	0.061826	1.000000	-0.000010	0.000001	0.000003	179.551194	-77.136907	-166.567939
42789	9.641099	0.037764	-2.299472	0.088635	0.041528	0.098428	1.000000	-0.000013	0.000019	0.000009	179.544247	-77.136612	-166.560923
42790	9.640013	0.017996	-2.242648	0.038498	0.009473	0.084689	1.000000	-0.000019	0.000020	0.000005	179.537476	-77.131357	-166.555986
42791	9.653308	0.037301	-2.277573	0.064407	0.034846	0.105464	1.000000	-0.000020	0.000011	0.000005	179.527981	-77.130048	-166.547230
42792	9.632655	0.042125	-2.265320	0.056092	0.037459	0.082612	1.000000	-0.000009	0.000029	0.000019	179.520153	-77.130112	-166.533593
42793	9.637325	0.065699	-2.266867	0.051405	0.060507	0.087551	1.000000	-0.000019	0.000030	0.000021	179.518808	-77.131028	-166.533105
42794	9.603462	0.051051	-2.219301	0.017224	0.037262	0.043919	1.000000	-0.000010	0.000020	0.000019	179.508389	-77.132191	-166.517930
42795	9.582851	0.055714	-2.206857	0.008982	0.040138	0.021064	1.000000	-0.000029	0.000040	0.000024	179.507062	-77.134231	-166.518580
42796	9.562264	0.060271	-2.194314	0.000501	0.042998	-0.001791	1.000000	-0.000016	0.000031	0.000032	179.512310	-77.133855	-166.525428
42797	9.562403	0.059735	-2.193722	0.000162	0.042535	-0.001789	1.000000	-0.000016	0.000031	0.000032	179.516512	-77.134877	-166.530290
42798	9.570044	0.034888	-2.169774	-0.018204	0.012811	0.000283	1.000000	-0.000027	0.000032	0.000035	179.516996	-77.137669	-166.530405
42799	9.595495	0.053248	-2.183048	-0.014995	0.032512	0.028083	1.000000	-0.000026	0.000041	0.000034	179.521233	-77.139815	-166.536426
42800	9.637112	0.042821	-2.206245	-0.000036	0.025294	0.073800	1.000000	-0.000031	0.000013	0.000025	179.521685	-77.135927	-166.540397
42801	9.623974	0.023063	-2.170529	-0.026607	-0.001013	0.053005	1.000000	-0.000016	0.000040	0.000031	179.525751	-77.137952	-166.545021
42802	9.616643	0.046834	-2.193183	-0.008910	0.027620	0.050944	1.000000	-0.000027	0.000032	0.000035	179.529736	-77.137290	-166.552350
42803	9.637531	0.041299	-2.204443	-0.001357	0.023806	0.073804	1.000000	-0.000006	0.000030	0.000029	179.533760	-77.138190	-166.555806
42804	9.633116	0.016816	-2.201754	0.002069	-0.000415	0.068857	1.000000	-0.000010	0.000031	0.000036	179.537963	-77.135533	-166.559023
42805	9.619981	-0.003148	-2.165965	-0.024495	-0.026720	0.048049	1.000000	-0.000010	0.000031	0.000036	179.544853	-77.136534	-166.565858
42806	9.617191	0.044474	-2.190825	-0.010128	0.025440	0.050949	1.000000	-0.000006	0.000030	0.000029	179.542681	-77.141528	-166.560645
42807	9.604065	0.024624	-2.154972	-0.036688	-0.000866	0.030139	1.000000	-0.000005	0.000039	0.000029	179.546556	-77.143434	-166.563845
42808	9.612963	0.019411	-2.187302	-0.006206	0.001119	0.045998	1.000000	-0.000013	0.000040	0.000042	179.557723	-77.147090	-166.579079
42809	9.620939	0.046804	-2.134561	-0.064174	0.016141	0.042089	1.000000	-0.000008	0.000012	0.000030	179.561997	-77.145983	-166.582985
42810	9.613152	0.018231	-2.186482	-0.006783	-0.000346	0.045998	1.000000	0.000004	0.000020	0.000027	179.551814	-77.145623	-166.560710
42811	9.604517	0.022217	-2.152986	-0.037700	-0.003151	0.030135	1.000000	-0.000011	0.000022	0.000036	179.558798	-77.145632	-166.567729
42812	9.620782	-0.007329	-2.162394	-0.025223	-0.030261	0.048037	1.000000	-0.000011	0.000013	0.000036	179.568001	-77.148087	-166.579710
42813	9.613363	0.016341	-2.185566	-0.007241	-0.001533	0.045997	1.000000	-0.000012	0.000004	0.000037	179.575250	-77.146092	-166.587203
42814	9.600086	-0.003630	-2.150292	-0.034934	-0.027753	0.025170	1.000000	-0.000012	0.000004	0.000037	179.591539	-77.137713	-166.611688
42815	9.632858	-0.009675	-2.140901	-0.050075	-0.037269	0.055018	1.000000	-0.000009	-0.000005	0.000031	179.596057	-77.134588	-166.616036
42816	9.604677	0.019002	-2.152300	-0.039278	-0.005648	0.030128	1.000000	-0.000026	0.000015	0.000046	179.590360	-77.137172	-166.601181
42817	9.608873	-0.010011	-2.183123	-0.004668	-0.027278	0.041033	1.000000	-0.000011	0.000003	0.000020	179.589145	-77.134957	-166.599878
42818	9.600121	-0.005883	-2.150131	-0.035616	-0.030133	0.025160	1.000000	-0.000021	-0.000013	0.000034	179.592906	-77.130678	-166.605621
42819	9.596789	-0.010674	-2.204634	0.017308	-0.022562	0.034041	1.000000	-0.000006	-0.000004	0.000041	179.602945	-77.127664	-166.615289
42820	9.584764	-0.010780	-2.225884	0.039567	-0.017152	0.027055	1.000000	-0.000022	0.000004	0.000023	179.607053	-77.125304	-166.628055
42821	9.596802	-0.011610	-2.204570	0.016541	-0.023316	0.034041	1.000000	-0.000015	0.000004	0.000026	179.608715	-77.123197	-166.630152
42822	9.601415	0.011896	-2.206516	0.010927	-0.000560	0.039009	1.000000	-0.000010	0.000012	0.000019	179.605779	-77.116502	-166.625415
42823	9.622238	0.006501	-2.218048	0.018466	-0.004393	0.061870	1.000000	-0.000013	0.000021	0.000026	179.607187	-77.116394	-166.627049
42824	9.602870	0.030908	-2.262239	0.058050	0.029794	0.052886	1.000000	0.000001	0.000019	0.000016	179.605616	-77.109641	-166.622065
42825	9.635730	0.025125	-2.252458	0.042892	0.020254	0.082728	1.000000	-0.000010	0.000020	0.000019	179.604159	-77.109408	-166.620310
42826	9.607638	0.054157	-2.263558	0.053166	0.052791	0.057861	1.000000	-0.000010	0.000020	0.000019	179.612808	-77.110784	-166.636750
42827	9.615186	0.029341	-2.239740	0.034509	0.023122	0.059869	1.000000	0.000001	0.000030	0.000033	179.619501	-77.111658	-166.642156
42828	9.582552	0.034333	-2.248579	0.049222	0.031541	0.030034	1.000000	-0.000009	0.000029	0.000019	179.611497	-77.113562	-166.627913
42829	9.599269	0.057344	-2.228937	0.021806	0.048864	0.041985	1.000000	-0.000007	0.000021	0.000029	179.615608	-77.113440	-166.631542
42830	9.599367	0.056809	-2.228531	0.021324	0.048489	0.041988	1.000000	-0.000007	0.000021	0.000029	179.622943	-77.112644	-166.641783
42831	9.590767	0.060792	-2.194859	-0.009584	0.045685	0.026099	1.000000	-0.000009	0.000040	0.000035	179.629681	-77.114641	-166.648357
42832	9.592204	0.079978	-2.250794	0.039140	0.076633	0.040000	1.000000	0.000003	0.000011	0.000027	179.629222	-77.114365	-166.644011
42833	9.578970	0.060020	-2.215206	0.012619	0.050333	0.019134	1.000000	-0.000014	0.000032	0.000042	179.638940	-77.115468	-166.654181
42834	9.599869	0.054140	-2.226434	0.020744	0.046678	0.041998	1.000000	-0.000000	0.000032	0.000050	179.655219	-77.120179	-166.672051
42835	9.583847	0.082088	-2.216142	0.008143	0.073082	0.024118	1.000000	-0.000022	0.000025	0.000056	179.670802	-77.120503	-166.689228
42836	9.637496	0.070598	-2.218004	0.000804	0.060208	0.076814	1.000000	-0.000011	0.000033	0.000053	179.687928	-77.121504	-166.710034
42837	9.609475	0.098955	-2.228964	0.010893	0.092325	0.051969	1.000000	-0.000005	0.000024	0.000057	179.706041	-77.121702	-166.727809
42838	9.625718	0.068909	-2.238342	0.022432	0.064937	0.069855	1.000000	0.000001	0.000015	0.000061	179.727974	-77.118704	-166.748690
42839	9.597689	0.097062	-2.249384	0.032521	0.097059	0.045015	1.000000	-0.000001	0.000033	0.000067	179.751536	-77.120002	-166.771623
42840	9.621820	0.094685	-2.206396	-0.013897	0.084894	0.058947	1.000000	0.000007	0.000017	0.000082	179.780988	-77.115135	-166.797302
42841	9.601192	0.098231	-2.194090	-0.022109	0.087806	0.036087	1.000000	0.000005	0.000033	0.000071	179.807240	-77.116411	-166.822210
42842	9.612864	0.043924	-2.201097	-0.006056	0.036481	0.048983	1.000000	-0.000002	0.000035	0.000084	179.828229	-77.115851	-166.834853
42843	9.559503	0.052941	-2.198111	0.000562	0.048503	-0.003700	1.000000	-0.000010	0.000026	0.000081	179.857607	-77.116336	-166.864722
42844	9.555011	0.027570	-2.195460	0.004602	0.024251	-0.008686	1.000000	0.000012	0.000033	0.000075	179.879062	-77.117130	-166.877705
42845	9.575875	0.021079	-2.206817	0.012122	0.020399	0.014179	1.000000	0.000004	0.000016	0.000072	179.905489	-77.116380	-166.902974
42846	9.583324	-0.004664	-2.183092	-0.006387	-0.009398	0.016142	1.000000	0.000005	0.000024	0.000071	179.928320	-77.117175	-166.924981
42847	9.599558	-0.035091	-2.192289	0.005536	-0.036742	0.034012	1.000000	0.000029	0.000032	0.000076	179.959763	-77.118300	-166.952418
42848	9.587624	-0.035998	-2.213266	0.027800	-0.031300	0.027060	1.000000	-0.000001	-0.000003	0.000062	179.985852	-77.115205	-166.982173
42849	9.615801	-0.066704	-2.201374	0.017031	-0.064378	0.051880	1.000000	0.000017	0.000041	0.000068	-179.988175	-77.117350	-167.005463
42850	9.632569	-0.044366	-2.181607	-0.011243	-0.047367	0.063820	1.000000	0.000017	0.000020	0.000034	-179.980902	-77.111967	-167.006155
42851	9.596690	-0.043933	-2.244971	0.056486	-0.030628	0.042979	1.000000	0.000008	0.000024	0.000065	-179.957449	-77.112096	-167.027831
42852	9.644741	-0.046975	-2.159495	-0.034498	-0.054524	0.070758	1.000000	0.000020	0.000021	0.000045	-179.955259	-77.111951	-167.017787
42853	9.571465	-0.064793	-2.230242	0.052477	-0.052121	0.015112	1.000000	0.000020	0.000021	0.000045	-179.940436	-77.111764	-167.029268
42854	9.604292	-0.071202	-2.220391	0.038179	-0.061350	0.044919	1.000000	0.000006	0.000021	0.000037	-179.926528	-77.117125	-167.047648
42855	9.609043	-0.048126	-2.222064	0.033425	-0.038333	0.049919	1.000000	0.000003	0.000022	0.000044	-179.914212	-77.117075	-167.058568
42856	9.599806	-0.096776	-2.217481	0.041687	-0.086020	0.039912	1.000000	0.000020	0.000021	0.000045	-179.904409	-77.115273	-167.062004
42857	9.616581	-0.074233	-2.197720	0.014240	-0.068751	0.051855	1.000000	-0.000002	0.000040	0.000039	-179.894972	-77.117243	-167.070545
42858	9.591329	-0.093656	-2.183064	0.010279	-0.089128	0.023983	1.000000	-0.000015	0.000040	0.000031	-179.885230	-77.118471	-167.084581
42859	9.591500	-0.094250	-2.182287	0.009939	-0.089597	0.023979	1.000000	-0.000030	0.000042	0.000041	-179.878124	-77.120681	-167.093957
42860	9.617079	-0.075961	-2.195482	0.013091	-0.070310	0.051845	1.000000	-0.000030	0.000031	0.000024	-179.888080	-77.121533	-167.079664
42861	9.599108	-0.119488	-2.157569	-0.008951	-0.120098	0.025897	1.000000	-0.000022	0.000040	0.000028	-179.886733	-77.123534	-167.082238
42862	9.611231	-0.120314	-2.135624	-0.032042	-0.126401	0.032825	1.000000	-0.000036	0.000031	0.000020	-179.892361	-77.124086	-167.078592
42863	9.612823	-0.100569	-2.191545	0.016427	-0.095284	0.046826	1.000000	-0.000053	0.000022	0.000002	-179.907209	-77.124024	-167.068197
42864	9.629561	-0.077155	-2.171958	-0.011253	-0.077723	0.058768	1.000000	-0.000012	0.000020	0.000009	-179.905312	-77.122868	-167.075934
42865	9.608891	-0.072075	-2.159772	-0.019443	-0.074793	0.035898	1.000000	-0.000036	0.000021	0.000004	-179.917614	-77.122677	-167.066159
42866	9.588182	-0.066791	-2.147763	-0.027426	-0.071790	0.013028	1.000000	-0.000030	0.000001	-0.000009	-179.934911	-77.121542	-167.052358
42867	9.634399	-0.052848	-2.173324	-0.016496	-0.055586	0.063770	1.000000	-0.000033	0.000011	-0.000003	-179.949992	-77.120242	-167.039390
42868	9.618365	-0.023692	-2.163381	-0.029057	-0.029068	0.045914	1.000000	-0.000033	0.000011	-0.000003	-179.962793	-77.119390	-167.034436
42869	9.585684	-0.017907	-2.172640	-0.014553	-0.020379	0.016117	1.000000	-0.000033	0.000011	-0.000003	-179.977864	-77.118089	-167.021481
42870	9.611162	0.001079	-2.186307	-0.012062	-0.001116	0.043997	1.000000	-0.000023	0.000010	-0.000005	-179.998294	-77.112894	-166.995547
42871	9.632507	0.048574	-2.169054	-0.043955	0.039612	0.060956	1.000000	-0.000030	0.000001	-0.000009	179.983860	-77.110470	-166.979392
42872	9.613247	0.073552	-2.213627	-0.003175	0.074118	0.052128	1.000000	-0.000014	0.000002	0.000009	179.975437	-77.109078	-166.970070
42873	9.625268	0.073032	-2.192133	-0.026215	0.067885	0.059054	1.000000	-0.000036	0.000021	0.000004	179.963141	-77.108881	-166.960295
42874	9.630046	0.097112	-2.193733	-0.030982	0.090870	0.064077	1.000000	-0.000017	0.000027	-0.000013	179.944282	-77.109412	-166.940160
42875	9.609374	0.102188	-2.181551	-0.039172	0.093808	0.041212	1.000000	-0.000021	0.000013	0.000022	179.943031	-77.108284	-166.939926
42876	9.609452	0.101856	-2.181221	-0.039795	0.093253	0.041215	1.000000	-0.000020	0.000021	0.000022	179.941195	-77.106493	-166.938776
42877	9.609569	0.101527	-2.180722	-0.040144	0.092780	0.041218	1.000000	-0.000019	0.000030	0.000021	179.939755	-77.107374	-166.938145
42878	9.621648	0.100740	-2.158958	-0.063616	0.086454	0.048136	1.000000	-0.000016	0.000020	0.000015	179.935911	-77.104588	-166.933949
42879	9.601027	0.105386	-2.146558	-0.071802	0.089394	0.025269	1.000000	-0.000030	0.000042	0.000041	179.942970	-77.106791	-166.943268
42880	9.609968	0.100428	-2.179016	-0.041840	0.090910	0.041229	1.000000	-0.000033	0.000022	0.000014	179.928240	-77.105022	-166.925456
42881	9.598106	0.100612	-2.199868	-0.019497	0.096211	0.034319	1.000000	-0.000017	0.000022	0.000032	179.932438	-77.104985	-166.930365
42882	9.626232	0.070482	-2.187983	-0.030119	0.063141	0.059074	1.000000	-0.000015	0.000014	0.000043	179.943137	-77.104922	-166.943677
42883	9.596753	0.079432	-2.142765	-0.068829	0.063727	0.020248	1.000000	-0.000011	0.000022	0.000036	179.950033	-77.104876	-166.950578
42884	9.596242	0.026317	-2.171486	-0.029854	0.018592	0.026147	1.000000	0.000008	0.000004	0.000048	179.963883	-77.102175	-166.961676
42885	9.612950	0.048757	-2.152006	-0.057338	0.035815	0.038087	1.000000	0.000003	0.000022	0.000044	179.976165	-77.102106	-166.972547
42886	9.621834	0.043384	-2.184740	-0.027318	0.037517	0.054050	1.000000	-0.000005	0.000013	0.000040	179.982136	-77.099935	-166.974047
42887	9.603724	-0.000754	-2.147217	-0.049292	-0.012261	0.028017	1.000000	0.000002	0.000024	0.000061	-179.997169	-77.100065	-166.993654
42888	9.600631	-0.005657	-2.201305	0.004044	-0.004457	0.037076	1.000000	-0.000008	0.000004	0.000030	-179.992349	-77.100727	-167.003417
42889	9.609474	-0.011086	-2.234208	0.034221	-0.002570	0.053042	1.000000	0.000011	0.000014	0.000059	-179.971733	-77.099737	-167.021827
42890	9.654220	-0.018097	-2.203111	-0.003452	-0.018090	0.089719	1.000000	0.000004	0.000020	0.000027	-179.970687	-77.100682	-167.019955
42891	9.603364	-0.056275	-2.175113	-0.010557	-0.058656	0.033902	1.000000	-0.000005	0.000013	0.000040	-179.961027	-77.099622	-167.029014
42892	9.637708	-0.042939	-2.221683	0.023194	-0.037122	0.077774	1.000000	0.000009	0.000022	0.000048	-179.957375	-77.100095	-167.021734
42893	9.582762	-0.052822	-2.162576	-0.018873	-0.056577	0.011024	1.000000	-0.000000	0.000021	0.000033	-179.950687	-77.099937	-167.027190
42894	9.619647	-0.087496	-2.183773	0.001798	-0.087333	0.051718	1.000000	-0.000018	0.000013	0.000033	-179.950707	-77.104033	-167.025879
42895	9.607787	-0.087665	-2.204623	0.024148	-0.082012	0.044813	1.000000	-0.000007	0.000032	0.000046	-179.938381	-77.105104	-167.037907
42896	9.624501	-0.064928	-2.185141	-0.004041	-0.064769	0.056754	1.000000	-0.000012	-0.000006	0.000020	-179.934577	-77.097989	-167.047383
42897	9.591784	-0.059724	-2.194652	0.010482	-0.056019	0.026984	1.000000	-0.000019	0.000005	0.000033	-179.930250	-77.095949	-167.052621
42898	9.587121	-0.083923	-2.192369	0.014056	-0.079878	0.021937	1.000000	-0.000023	0.000021	0.000011	-179.932013	-77.092794	-167.057051
42899	9.559199	-0.054633	-2.203586	0.024124	-0.047657	-0.002784	1.000000	-0.000031	0.000014	0.000025	-179.933148	-77.091778	-167.058143
42900	9.599156	-0.084924	-2.170692	-0.009632	-0.086515	0.028823	1.000000	-0.000025	-0.000006	0.000012	-179.935537	-77.086940	-167.061564
42901	9.579968	-0.060098	-2.215330	0.030953	-0.051932	0.020086	1.000000	-0.000025	0.000003	0.000012	-179.942299	-77.084703	-167.056099
42902	9.616744	-0.094311	-2.236978	0.050177	-0.082950	0.060778	1.000000	-0.000026	-0.000015	0.000013	-179.951205	-77.077113	-167.044592
42903	9.600633	-0.065354	-2.227522	0.037550	-0.056521	0.042955	1.000000	-0.000029	-0.000015	0.000002	-179.963344	-77.072760	-167.034139
42904	9.597422	-0.069390	-2.282175	0.090829	-0.048862	0.052049	1.000000	-0.000016	-0.000016	0.000010	-179.973390	-77.070719	-167.023354
42905	9.602075	-0.045755	-2.284487	0.086019	-0.025867	0.057102	1.000000	-0.000034	-0.000013	0.000026	-179.974271	-77.066677	-167.025006
42906	9.594812	-0.021352	-2.307934	0.103210	0.002622	0.055280	1.000000	-0.000009	-0.000001	-0.000014	-179.996459	-77.059686	-166.995595
42907	9.602027	-0.045562	-2.284690	0.084638	-0.027117	0.057111	1.000000	-0.000028	-0.000007	0.000002	179.991328	-77.056335	-166.984955
42908	9.599565	0.002769	-2.309830	0.098291	0.025362	0.060340	1.000000	-0.000018	0.000028	0.000004	179.985687	-77.058698	-166.983330
42909	9.602816	0.006722	-2.255016	0.044740	0.016719	0.051234	1.000000	-0.000012	0.000020	0.000009	179.978603	-77.058347	-166.976099
42910	9.604543	0.026695	-2.310789	0.093198	0.048291	0.065404	1.000000	-0.000016	0.000044	-0.000013	179.970433	-77.061765	-166.976808
42911	9.584637	0.084157	-2.269033	0.045590	0.095826	0.036658	1.000000	-0.000013	0.000056	0.000014	179.965867	-77.065549	-166.972212
42912	9.612848	0.054693	-2.256554	0.033500	0.062387	0.061362	1.000000	-0.000005	0.000043	-0.000016	179.948472	-77.060071	-166.949952
42913	9.578803	0.040608	-2.208555	-0.000694	0.039533	0.017433	1.000000	-0.000018	0.000073	0.000009	179.941032	-77.065863	-166.942975
42914	9.588548	0.088352	-2.211294	-0.009891	0.085980	0.027556	1.000000	-0.000021	0.000064	-0.000001	179.927424	-77.071134	-166.928740
42915	9.600771	0.087646	-2.188766	-0.032938	0.079697	0.034431	1.000000	-0.000009	0.000065	0.000024	179.928300	-77.076007	-166.929286
42916	9.612953	0.086725	-2.166398	-0.056480	0.073644	0.041300	1.000000	-0.000007	0.000047	0.000018	179.935195	-77.076192	-166.943027
42917	9.585185	0.115889	-2.177032	-0.046417	0.105888	0.016621	1.000000	-0.000011	0.000048	0.000025	179.936273	-77.079046	-166.943989
42918	9.583743	0.095591	-2.119821	-0.095482	0.073399	0.002424	1.000000	-0.000012	0.000039	0.000025	179.927929	-77.080528	-166.926997
42919	9.613488	0.085499	-2.164075	-0.057531	0.071843	0.041307	1.000000	-0.000013	0.000021	0.000026	179.929259	-77.080361	-166.928510
42920	9.608882	0.060932	-2.161534	-0.053096	0.047684	0.036245	1.000000	-0.000011	0.000033	0.000053	179.937025	-77.082993	-166.930106
42921	9.588214	0.065188	-2.149335	-0.061252	0.050659	0.013371	1.000000	0.000006	0.000012	0.000038	179.946513	-77.081788	-166.937752
42922	9.609085	0.059427	-2.160676	-0.054227	0.046668	0.036244	1.000000	-0.000027	0.000032	0.000035	179.951627	-77.080348	-166.943849
42923	9.637131	0.029225	-2.148765	-0.064987	0.013461	0.060910	1.000000	-0.000016	0.000005	0.000043	179.961526	-77.078369	-166.954461
42924	9.625230	0.028976	-2.169966	-0.043712	0.018521	0.054044	1.000000	0.000001	0.000004	0.000045	179.972954	-77.069837	-166.961943
42925	9.620532	0.004355	-2.167778	-0.039577	-0.005411	0.048972	1.000000	-0.000011	0.000013	0.000036	179.979900	-77.068744	-166.968972
42926	9.608646	0.004274	-2.188912	-0.016501	0.000051	0.042116	1.000000	-0.000002	0.000004	0.000034	179.985228	-77.070832	-166.974822
42927	9.603921	-0.020241	-2.186818	-0.012362	-0.023878	0.037042	1.000000	-0.000012	0.000005	0.000037	179.992256	-77.068741	-166.982041
42928	9.624771	-0.026174	-2.198226	-0.005290	-0.027975	0.059915	1.000000	-0.000011	0.000033	0.000053	-179.994568	-77.067526	-166.991522
42929	9.578560	-0.040541	-2.172343	-0.016739	-0.044990	0.009085	1.000000	0.000002	0.000003	0.000028	-179.990562	-77.065204	-166.993969
42930	9.612956	-0.026997	-2.219042	0.016426	-0.022903	0.053061	1.000000	0.000006	0.000012	0.000038	-179.974670	-77.062691	-167.015710
42931	9.632118	-0.052753	-2.174110	-0.024826	-0.058493	0.061684	1.000000	0.000006	0.000021	0.000037	-179.965275	-77.062474	-167.023156
42932	9.615515	-0.076736	-2.193072	0.002507	-0.076772	0.049751	1.000000	-0.000001	0.000012	0.000034	-179.965971	-77.063772	-167.014278
42933	9.599565	-0.048331	-2.183013	-0.010135	-0.050334	0.031951	1.000000	0.000004	0.000020	0.000027	-179.962134	-77.063466	-167.016349
42934	9.636458	-0.082988	-2.204038	0.009202	-0.081376	0.072619	1.000000	-0.000006	0.000030	0.000029	-179.960775	-77.061751	-167.013395
42935	9.587901	-0.048762	-2.203182	0.011461	-0.045636	0.025098	1.000000	-0.000001	0.000038	0.000022	-179.959797	-77.063467	-167.013101
42937	9.627600	-0.045451	-2.210263	0.017927	-0.085132	9.943438	1.000000	0.000006	0.000057	0.000042	-179.948229	-77.065968	-167.021847
42938	9.588318	-0.049975	-2.201341	0.010526	-0.046650	0.025094	1.000000	-0.000029	0.000040	0.000024	-179.949623	-77.067931	-167.022340
42939	9.633081	-0.056645	-2.169742	-0.027968	-0.062431	0.061651	1.000000	-0.000001	0.000038	0.000022	-179.949413	-77.066377	-167.021629
42940	9.600563	-0.051249	-2.178554	-0.013413	-0.053597	0.031930	1.000000	-0.000025	0.000039	0.000017	-179.953661	-77.068227	-167.018744
42941	9.638156	-0.033223	-2.170354	-0.033140	-0.039965	0.066730	1.000000	-0.000029	0.000029	0.000007	-179.964342	-77.069174	-167.008860
42942	9.605602	-0.027514	-2.179343	-0.018584	-0.031127	0.037012	1.000000	-0.000029	0.000029	0.000007	-179.974061	-77.069923	-167.000795
42943	9.638412	-0.033404	-2.169214	-0.033811	-0.040945	0.066724	1.000000	-0.000019	0.000030	0.000021	-179.976391	-77.070930	-166.998388
42944	9.617726	-0.028493	-2.157062	-0.041949	-0.037954	0.043842	1.000000	-0.000024	0.000012	0.000012	-179.983256	-77.069652	-166.992677
42945	9.605910	-0.027813	-2.177981	-0.019768	-0.032626	0.037004	1.000000	-0.000038	0.000029	-0.000007	179.998526	-77.069340	-166.976394
42946	9.622651	-0.004560	-2.158353	-0.047331	-0.015508	0.048927	1.000000	-0.000032	0.000005	0.000025	179.997451	-77.067268	-166.977613
42947	9.610781	-0.004093	-2.179519	-0.024693	-0.010345	0.042094	1.000000	-0.000016	0.000010	-0.000002	179.977819	-77.067174	-166.951528
42948	9.599567	0.048748	-2.171636	-0.041865	0.039541	0.029403	1.000000	-0.000035	0.000004	0.000015	179.971189	-77.065009	-166.947372
42949	9.615593	0.019522	-2.181317	-0.029457	0.012172	0.047188	1.000000	-0.000011	0.000003	0.000020	179.967711	-77.065362	-166.942243
42950	9.603724	0.019840	-2.202485	-0.007116	0.017556	0.040358	1.000000	-0.000017	0.000012	0.000016	179.963529	-77.064077	-166.938498
42951	9.575865	0.049315	-2.213826	0.002849	0.049931	0.015748	1.000000	-0.000020	0.000011	0.000005	179.956036	-77.062364	-166.933520
42952	9.608555	0.043413	-2.204216	-0.012420	0.040119	0.045457	1.000000	-0.000012	-0.000006	0.000020	179.954724	-77.059052	-166.932148
42953	9.589558	0.068140	-2.248690	0.027821	0.074856	0.036906	1.000000	-0.000010	0.000020	0.000019	179.955878	-77.057267	-166.935094
42954	9.625290	0.066023	-2.184634	-0.040622	0.056791	0.057385	1.000000	-0.000002	-0.000007	0.000017	179.954415	-77.053832	-166.932346
42955	9.622297	0.061760	-2.238880	0.011688	0.064500	0.066619	1.000000	0.000001	0.000019	0.000016	179.953987	-77.050492	-166.929671
42956	9.601630	0.066579	-2.226667	0.003554	0.067503	0.043743	1.000000	-0.000009	0.000029	0.000019	179.952344	-77.051201	-166.927550
42957	9.610606	0.061663	-2.259321	0.034116	0.069164	0.059806	1.000000	-0.000014	0.000013	0.000026	179.944542	-77.052275	-166.910826
42958	9.601805	0.065716	-2.225940	0.003288	0.066296	0.043751	1.000000	-0.000007	0.000021	0.000029	179.948506	-77.052076	-166.914220
42959	9.610787	0.060691	-2.258574	0.032947	0.068216	0.059817	1.000000	-0.000024	0.000022	0.000028	179.952739	-77.049422	-166.922162
42960	9.597267	0.040782	-2.222942	0.006652	0.041909	0.038651	1.000000	0.000008	0.000039	0.000037	179.961922	-77.051208	-166.929152
42961	9.588542	0.044679	-2.189209	-0.024476	0.039042	0.022588	1.000000	-0.000027	0.000032	0.000035	179.967897	-77.050511	-166.939699
42962	9.581537	0.068389	-2.212068	-0.006670	0.067880	0.020883	1.000000	-0.000002	0.000014	0.000051	179.983028	-77.049487	-166.953990
42963	9.634431	0.004379	-2.242782	0.024922	0.010156	0.079311	1.000000	-0.000013	0.000041	0.000042	179.997205	-77.049182	-166.974034
42964	9.618582	0.032630	-2.232417	0.012262	0.036605	0.061541	1.000000	-0.000014	0.000023	0.000043	-179.993121	-77.049184	-166.984181
42965	9.609108	-0.015786	-2.228007	0.020562	-0.010942	0.051322	1.000000	-0.000011	0.000022	0.000036	-179.988804	-77.046498	-166.985467
42966	9.595544	-0.035805	-2.192449	-0.005722	-0.037246	0.030135	1.000000	-0.000013	0.000032	0.000042	-179.979215	-77.047503	-166.995418
42967	9.618241	-0.021830	-2.260012	0.050515	-0.009514	0.067396	1.000000	-0.000008	0.000023	0.000047	-179.968353	-77.048632	-167.004782
42968	9.583848	-0.036692	-2.212911	0.016469	-0.032328	0.023326	1.000000	0.000003	0.000011	0.000027	-179.964457	-77.047290	-167.006985
42969	9.604743	-0.042490	-2.224136	0.024296	-0.036130	0.046206	1.000000	-0.000023	0.000042	0.000045	-179.953072	-77.052024	-167.024069
42970	9.588219	-0.066268	-2.242782	0.051176	-0.054161	0.034285	1.000000	-0.000019	0.000030	0.000021	-179.954556	-77.052848	-167.023328
42971	9.616933	-0.044025	-2.201465	0.000756	-0.042911	0.053008	1.000000	-0.000012	0.000039	0.000025	-179.951362	-77.053994	-167.028106
42972	9.612259	-0.068253	-2.198923	0.004941	-0.066823	0.047888	1.000000	0.000001	0.000019	0.000016	-179.953076	-77.053568	-167.024789
42973	9.596423	-0.039611	-2.188532	-0.008111	-0.040600	0.030121	1.000000	-0.000011	0.000048	0.000025	-179.955506	-77.053824	-167.015511
42974	9.617374	-0.045248	-2.199513	-0.000705	-0.044570	0.053001	1.000000	-0.000006	0.000030	0.000029	-179.951607	-77.054615	-167.018734
42975	9.629378	-0.046194	-2.177621	-0.024152	-0.051162	0.059794	1.000000	-0.000022	0.000029	0.000011	-179.961953	-77.052787	-167.002702
42976	9.622453	-0.021929	-2.200284	-0.006362	-0.022314	0.058118	1.000000	0.000003	0.000037	0.000016	-179.963832	-77.054367	-166.998994
42977	9.629704	-0.046724	-2.176167	-0.025637	-0.052156	0.059785	1.000000	-0.000017	0.000048	0.000021	-179.961965	-77.052785	-167.004112
42978	9.602002	-0.017407	-2.187091	-0.015605	-0.019810	0.035230	1.000000	-0.000010	0.000020	0.000019	-179.963530	-77.052462	-167.002154
42979	9.602111	-0.017626	-2.186614	-0.015839	-0.020279	0.035229	1.000000	-0.000022	0.000029	0.000011	-179.971073	-77.053886	-166.994042
42980	9.614105	-0.018363	-2.164733	-0.038895	-0.026653	0.042017	1.000000	-0.000012	0.000028	0.000008	-179.978257	-77.054478	-166.986547
42981	9.614230	-0.018526	-2.164179	-0.039881	-0.026983	0.042012	1.000000	-0.000015	0.000029	0.000015	-179.975340	-77.051824	-166.997863
42982	9.581686	-0.012959	-2.173300	-0.025292	-0.018064	0.012339	1.000000	-0.000027	0.000022	0.000018	-179.979432	-77.051630	-166.995316
42983	9.591361	0.034575	-2.177008	-0.034390	0.028327	0.022595	1.000000	-0.000025	0.000003	0.000012	-179.988262	-77.051425	-166.986809
42984	9.640061	-0.000350	-2.176831	-0.037392	-0.008485	0.070019	1.000000	-0.000022	0.000029	0.000011	-179.995281	-77.052135	-166.980709
42985	9.607458	0.005222	-2.186226	-0.022602	0.000187	0.040350	1.000000	-0.000002	-0.000007	0.000017	179.995762	-77.049486	-166.960614
42986	9.612322	0.028853	-2.187969	-0.027522	0.023138	0.045481	1.000000	-0.000032	0.000030	0.000014	179.988881	-77.050318	-166.955870
42987	9.595737	0.005569	-2.206931	-0.000704	0.005131	0.033567	1.000000	-0.000020	0.000011	0.000005	179.979476	-77.048440	-166.945920
42988	9.621411	0.024093	-2.220302	0.002122	0.024577	0.061586	1.000000	-0.000020	0.000021	0.000022	179.978062	-77.048237	-166.945334
42989	9.617393	0.052249	-2.188816	-0.033316	0.044686	0.050618	1.000000	-0.000023	0.000021	0.000011	179.960543	-77.047065	-166.914255
42990	9.617446	0.052129	-2.188586	-0.033677	0.044206	0.050619	1.000000	-0.000025	0.000003	0.000012	179.953735	-77.044750	-166.908656
42991	9.626445	0.047441	-2.221327	-0.003218	0.046396	0.066727	1.000000	-0.000005	0.000028	0.000012	179.953568	-77.047766	-166.914893
42992	9.612787	0.027840	-2.185937	-0.029452	0.020085	0.045482	1.000000	-0.000010	0.000012	0.000019	179.952073	-77.046437	-166.913097
42993	9.605879	0.052114	-2.208654	-0.012634	0.048798	0.043846	1.000000	-0.000031	0.000048	0.000013	179.946803	-77.043709	-166.910751
42994	9.589396	0.028585	-2.227201	0.014273	0.030812	0.031935	1.000000	0.000005	0.000038	0.000026	179.950455	-77.045367	-166.912368
42995	9.611022	0.075225	-2.209229	-0.017124	0.071384	0.048991	1.000000	-0.000010	0.000020	0.000019	179.947091	-77.049766	-166.910403
42996	9.613330	0.026390	-2.183567	-0.031036	0.018139	0.045481	1.000000	-0.000011	0.000022	0.000036	179.953898	-77.049647	-166.917137
42997	9.618272	0.049648	-2.185012	-0.035697	0.041085	0.050625	1.000000	-0.000016	0.000031	0.000032	179.956354	-77.052106	-166.919207
42998	9.634356	0.020038	-2.194258	-0.023739	0.013669	0.068367	1.000000	-0.000000	0.000021	0.000033	179.963009	-77.051868	-166.924562
42999	9.601829	0.025158	-2.203387	-0.008718	0.022477	0.038713	1.000000	-0.000003	0.000031	0.000040	179.966148	-77.054986	-166.920230
43000	9.601924	0.024517	-2.202982	-0.009077	0.021999	0.038714	1.000000	0.000003	0.000011	0.000027	179.970026	-77.053636	-166.922387
43001	9.622766	0.019024	-2.214473	-0.001842	0.018039	0.061600	1.000000	-0.000013	0.000011	0.000009	179.964696	-77.051418	-166.919468
43002	9.609068	-0.000849	-2.179142	-0.028057	-0.008271	0.040332	1.000000	-0.000012	0.000024	0.000053	179.979880	-77.051508	-166.934906
43003	9.602133	0.022899	-2.202085	-0.010385	0.020625	0.038715	1.000000	-0.000008	0.000012	0.000030	179.985040	-77.049832	-166.942168
43004	9.618149	-0.006720	-2.211584	0.001578	-0.006792	0.056451	1.000000	-0.000011	0.000013	0.000036	179.991916	-77.048709	-166.949072
43005	9.618169	-0.007425	-2.211497	0.001508	-0.007270	0.056451	1.000000	-0.000007	-0.000004	0.000041	179.999934	-77.047191	-166.955611
43006	9.597397	-0.002902	-2.199707	-0.006589	-0.004228	0.033565	1.000000	-0.000018	0.000014	0.000033	-179.995889	-77.046084	-166.960523
43007	9.606400	-0.007913	-2.232496	0.024109	-0.002315	0.049688	1.000000	-0.000014	0.000013	0.000026	-179.998745	-77.048360	-166.953688
43008	9.601656	-0.032249	-2.230126	0.028340	-0.026210	0.044534	1.000000	-0.000016	0.000031	0.000032	-179.994727	-77.049276	-166.958228
43009	9.592785	-0.028273	-2.196744	-0.002218	-0.029164	0.028408	1.000000	-0.000019	0.000005	0.000033	-179.993430	-77.048392	-166.956556
43010	9.601791	-0.033441	-2.229526	0.027860	-0.027225	0.044532	1.000000	-0.000004	0.000022	0.000040	-179.983952	-77.048275	-166.965245
43011	9.590022	-0.033316	-2.250543	0.050428	-0.021913	0.037772	1.000000	-0.000010	0.000012	0.000019	-179.990776	-77.048036	-166.951956
43012	9.585226	-0.057489	-2.248372	0.054669	-0.045805	0.032613	1.000000	-0.000010	0.000012	0.000019	-179.992310	-77.046725	-166.950106
43013	9.629772	-0.064378	-2.217076	0.016824	-0.061482	0.069014	1.000000	-0.000013	0.000021	0.000026	-179.986649	-77.047768	-166.963376
43014	9.597268	-0.058906	-2.226148	0.031429	-0.052492	0.039369	1.000000	-0.000008	0.000038	0.000018	-179.988400	-77.049482	-166.961000
43015	9.614103	-0.035883	-2.206116	0.003524	-0.035526	0.051285	1.000000	-0.000018	0.000029	0.000004	-179.997534	-77.048594	-166.951381
43016	9.581620	-0.030300	-2.215117	0.018130	-0.026531	0.021643	1.000000	-0.000005	0.000039	0.000029	-179.993745	-77.050400	-166.954358
43017	9.614418	-0.036575	-2.204731	0.002753	-0.036291	0.051282	1.000000	-0.000008	0.000038	0.000018	-179.990325	-77.052047	-166.964859
43018	9.610438	-0.008428	-2.173075	-0.032628	-0.015768	0.040309	1.000000	-0.000023	0.000021	0.000011	-179.997308	-77.051771	-166.958881
43019	9.619547	-0.013053	-2.205471	-0.002964	-0.013857	0.056444	1.000000	-0.000010	0.000046	0.000008	179.997103	-77.052049	-166.951370
43020	9.598914	-0.007972	-2.193066	-0.011051	-0.010803	0.033556	1.000000	-0.000012	0.000028	0.000008	179.989898	-77.052654	-166.943836
43021	9.624671	0.010634	-2.206233	-0.007887	0.008763	0.061609	1.000000	-0.000019	0.000020	0.000005	179.981868	-77.054686	-166.940615
43022	9.608859	0.039502	-2.195918	-0.020573	0.035231	0.043890	1.000000	-0.000018	0.000039	0.000021	179.980280	-77.056520	-166.939637
43023	9.611104	-0.009032	-2.170128	-0.034865	-0.018000	0.040298	1.000000	-0.000019	0.000020	0.000005	179.973525	-77.053682	-166.935722
43024	9.609102	0.039064	-2.194862	-0.021725	0.034296	0.043891	1.000000	-0.000016	0.000031	0.000032	179.977561	-77.054598	-166.940288
43025	9.613311	0.010275	-2.225558	0.013241	0.012852	0.054866	1.000000	-0.000000	0.000011	0.000017	179.974962	-77.054902	-166.934878
43026	9.609282	0.038419	-2.194086	-0.022142	0.033372	0.043893	1.000000	-0.000012	0.000028	0.000008	179.967763	-77.055509	-166.927356
43027	9.609371	0.038254	-2.193699	-0.022365	0.032752	0.043895	1.000000	-0.000017	0.000012	0.000015	179.959185	-77.054815	-166.913153
43028	9.609443	0.038033	-2.193387	-0.022722	0.032274	0.043895	1.000000	-0.000016	0.000021	0.000015	179.954900	-77.054524	-166.909166
43029	9.597712	0.038440	-2.214342	0.000143	0.037906	0.037157	1.000000	-0.000010	0.000020	0.000019	179.954109	-77.057390	-166.912945
43030	9.605510	0.065789	-2.161488	-0.057939	0.052466	0.032925	1.000000	-0.000020	0.000021	0.000022	179.952671	-77.057213	-166.912330
43031	9.593061	0.013834	-2.211501	0.004148	0.013678	0.031983	1.000000	-0.000016	0.000031	0.000032	179.959508	-77.058941	-166.924303
43032	9.609840	0.036566	-2.191669	-0.023512	0.030656	0.043899	1.000000	-0.000010	0.000012	0.000019	179.958003	-77.057635	-166.922507
43033	9.598116	0.037027	-2.212615	-0.000777	0.036087	0.037163	1.000000	-0.000032	0.000031	0.000014	179.947515	-77.060687	-166.910173
43034	9.625969	0.006867	-2.200580	-0.011496	0.002698	0.061609	1.000000	-0.000015	0.000014	0.000043	179.957242	-77.059698	-166.920460
43035	9.630936	0.030064	-2.202080	-0.016040	0.025642	0.066790	1.000000	-0.000006	0.000030	0.000029	179.958992	-77.062920	-166.920520
43036	9.598434	0.035460	-2.211261	-0.001422	0.034671	0.037168	1.000000	-0.000013	0.000021	0.000026	179.960247	-77.062740	-166.921895
43037	9.617288	0.009645	-2.166209	-0.042267	-0.000985	0.045456	1.000000	-0.000004	0.000022	0.000040	179.971927	-77.064489	-166.937487
43038	9.607622	0.029614	-2.243449	0.028579	0.036288	0.053326	1.000000	-0.000004	0.000022	0.000040	179.981432	-77.064392	-166.946226
