// Start Time: Unknown
// Update Rate: 100.0Hz
// Filter Profile: human (46.1)
// Firmware Version: 4.4.0
PacketCounter	Acc_X	Acc_Y	Acc_Z	FreeAcc_X	FreeAcc_Y	FreeAcc_Z	OriInc_q0	OriInc_q1	OriInc_q2	OriInc_q3	Roll	Pitch	Yaw
37433	2.152825	-0.058086	12.956846	-0.000000	-0.000000	3.321919	1.000000	-0.000009	0.000043	-0.000065	-0.256972	-9.436057	178.883087
37434	2.168874	-0.048341	12.942540	-0.000000	-0.000000	3.310411	1.000000	0.000004	0.000045	-0.000061	-0.214827	-9.515555	179.257721
37435	2.168192	-0.035588	12.910557	-0.013593	-0.017246	3.278696	1.000000	-0.000002	0.000057	-0.000071	-0.234876	-9.471757	179.055028
37436	2.199981	-0.041091	12.946203	-0.040314	-0.011153	3.319107	1.000000	0.000001	0.000045	-0.000070	-0.233455	-9.466602	179.046926
37437	2.198807	-0.040790	12.946403	-0.040272	-0.011055	3.319107	1.000000	-0.000003	0.000046	-0.000078	-0.231821	-9.461561	179.037653
37438	2.186287	-0.059906	12.920385	-0.033055	0.008324	3.291458	1.000000	-0.000003	0.000046	-0.000078	-0.230624	-9.456343	179.028550
37439	2.196363	-0.040162	12.946820	-0.040247	-0.011053	3.319107	1.000000	0.000004	0.000052	-0.000073	-0.228735	-9.450500	179.020101
37440	2.177870	-0.049416	12.961528	-0.020759	-0.001895	3.330613	1.000000	-0.000005	0.000050	-0.000068	-0.228045	-9.444822	179.012202
37441	2.216072	-0.052384	12.924293	-0.065822	0.002222	3.300158	1.000000	-0.000002	0.000057	-0.000071	-0.226852	-9.438597	179.003950
37442	2.192961	-0.026788	12.915304	-0.046318	-0.023249	3.287397	1.000000	0.000010	0.000048	-0.000074	-0.224247	-9.433170	178.995306
37443	2.196234	-0.061235	12.939230	-0.046192	0.011406	3.311664	1.000000	-0.000015	0.000055	-0.000075	-0.224390	-9.427525	178.986588
37444	2.200038	-0.083384	12.930972	-0.052336	0.033831	3.304220	1.000000	0.000002	0.000056	-0.000062	-0.223019	-9.421116	178.979347
37445	2.171754	-0.035764	12.930464	-0.026452	-0.014086	3.298903	1.000000	-0.000009	0.000043	-0.000065	-0.222862	-9.417266	178.971811
37446	2.169889	-0.047963	12.962872	-0.020323	-0.001881	3.330614	1.000000	0.000004	0.000052	-0.000072	-0.220988	-9.411317	178.963370
37447	2.208228	-0.050757	12.925641	-0.065159	0.002226	3.300161	1.000000	-0.000003	0.000046	-0.000078	-0.219779	-9.407347	178.954273
37448	2.167370	-0.047240	12.963296	-0.020037	-0.001882	3.330614	1.000000	0.000008	0.000052	-0.000064	-0.217683	-9.401462	178.946835
37449	2.165995	-0.047031	12.963527	-0.019644	-0.001883	3.330615	1.000000	-0.000015	0.000055	-0.000075	-0.217926	-9.396915	178.938138
37450	2.153460	-0.066444	12.937503	-0.012429	0.017495	3.302965	1.000000	-0.000009	0.000043	-0.000065	-0.217702	-9.392034	178.930594
37451	2.164247	-0.034408	12.931726	-0.025344	-0.014113	3.298905	1.000000	0.000001	0.000045	-0.000069	-0.216365	-9.388761	178.922516
37452	2.163082	-0.034086	12.931922	-0.025344	-0.014113	3.298905	1.000000	0.000001	0.000045	-0.000069	-0.214955	-9.383608	178.914427
37453	2.183617	-0.058869	12.941376	-0.044346	0.011378	3.311671	1.000000	0.000001	0.000053	-0.000081	-0.213180	-9.379785	178.904968
37454	2.160558	-0.033391	12.932346	-0.024843	-0.014093	3.298906	1.000000	0.000001	0.000045	-0.000069	-0.211772	-9.374634	178.896881
37455	2.199027	-0.036168	12.895128	-0.069367	-0.009954	3.268461	1.000000	0.000001	0.000045	-0.000069	-0.210173	-9.372107	178.888769
37456	2.185256	-0.080223	12.933498	-0.049889	0.033834	3.304230	1.000000	-0.000005	0.000050	-0.000068	-0.209493	-9.366430	178.880883
37457	2.195911	-0.048195	12.927750	-0.062446	0.002200	3.300175	1.000000	-0.000009	0.000047	-0.000095	-0.208920	-9.364541	178.869789
37458	2.200024	-0.070187	12.919455	-0.068592	0.024624	3.292732	1.000000	0.000004	0.000045	-0.000061	-0.207294	-9.359452	178.862708
37459	2.187569	-0.037824	12.968853	-0.049114	-0.008025	3.339330	1.000000	-0.000005	0.000050	-0.000068	-0.206523	-9.358335	178.854903
37460	2.196872	-0.082223	12.952082	-0.061411	0.036827	3.324447	1.000000	-0.000009	0.000050	-0.000076	-0.206062	-9.352583	178.846016
37461	2.185043	-0.037472	12.969280	-0.047794	-0.008213	3.339335	1.000000	0.000001	0.000045	-0.000069	-0.205388	-9.353231	178.837946
37462	2.189091	-0.059361	12.960999	-0.053941	0.014211	3.331894	1.000000	0.000004	0.000052	-0.000072	-0.203527	-9.347286	178.829520
37463	2.204391	-0.061929	12.978961	-0.065707	0.017162	3.352114	1.000000	-0.000005	0.000042	-0.000056	-0.203355	-9.349418	178.823147
37464	2.153626	-0.053186	12.925899	-0.025650	0.008025	3.291475	1.000000	0.000001	0.000053	-0.000081	-0.201712	-9.343447	178.813719
37465	2.185949	-0.046197	12.929445	-0.057053	0.001628	3.300199	1.000000	-0.000008	0.000054	-0.000057	-0.202685	-9.343681	178.806969
37466	2.167310	-0.055548	12.944132	-0.037539	0.010782	3.311692	1.000000	0.000004	0.000060	-0.000084	-0.200602	-9.336958	178.797204
37467	2.183141	-0.045531	12.929922	-0.055835	0.001455	3.300205	1.000000	0.000001	0.000045	-0.000069	-0.199841	-9.337124	178.789134
37468	2.164851	-0.054769	12.944547	-0.036306	0.010608	3.311696	1.000000	0.000004	0.000041	-0.000080	-0.197954	-9.332573	178.779866
37469	2.158349	-0.032212	12.953234	-0.028338	-0.012606	3.319137	1.000000	-0.000005	0.000050	-0.000068	-0.200662	-9.334924	178.771410
37470	2.162461	-0.054233	12.944948	-0.034454	0.009799	3.311702	1.000000	0.000001	0.000045	-0.000069	-0.199350	-9.329931	178.763370
37471	2.194893	-0.047049	12.948496	-0.065136	0.003124	3.320441	1.000000	0.000004	0.000052	-0.000072	-0.199810	-9.333487	178.754749
37472	2.193543	-0.046644	12.948727	-0.065094	0.003093	3.320442	1.000000	0.000001	0.000053	-0.000081	-0.198304	-9.327666	178.745380
37473	2.197640	-0.068524	12.940452	-0.069294	0.025863	3.313018	1.000000	0.000004	0.000045	-0.000061	-0.194930	-9.331191	178.739233
37474	2.197314	-0.055699	12.908425	-0.075390	0.013638	3.281313	1.000000	0.000003	0.000034	-0.000068	-0.193356	-9.327674	178.731344
37475	2.202083	-0.013662	12.943348	-0.073141	-0.028573	3.316419	1.000000	-0.000003	0.000046	-0.000078	-0.193646	-9.336945	178.722732
37476	2.177865	-0.064653	12.923237	-0.052512	0.022365	3.292811	1.000000	0.000004	0.000052	-0.000072	-0.191899	-9.331452	178.714360
37477	2.205017	-0.035235	12.935276	-0.075969	-0.006003	3.309008	1.000000	-0.000003	0.000038	-0.000066	-0.189817	-9.341242	178.708195
37478	2.187299	-0.032191	12.917706	-0.062522	-0.009065	3.288780	1.000000	-0.000002	0.000057	-0.000071	-0.188753	-9.335311	178.700007
37479	2.207269	-0.069417	12.959407	-0.074058	0.027344	3.333295	1.000000	0.000001	0.000038	-0.000058	-0.193102	-9.338893	178.690707
37480	2.184224	-0.044092	12.950311	-0.054442	0.001831	3.320490	1.000000	-0.000006	0.000054	-0.000098	-0.192089	-9.333364	178.679361
37481	2.182777	-0.043662	12.950556	-0.050569	0.001395	3.320506	1.000000	0.000011	0.000058	-0.000067	-0.191080	-9.343677	178.672103
37482	2.170392	-0.062962	12.924503	-0.043264	0.020736	3.292847	1.000000	-0.000022	0.000041	-0.000069	-0.192459	-9.339671	178.664195
37483	2.163269	-0.053045	12.965361	-0.028008	0.009903	3.331979	1.000000	0.000007	0.000041	-0.000071	-0.192721	-9.347868	178.655445
37484	2.195832	-0.045768	12.968925	-0.060658	0.003733	3.340757	1.000000	0.000001	0.000045	-0.000069	-0.191544	-9.343502	178.647467
37485	2.167097	-0.062098	12.925060	-0.038456	0.020067	3.292863	1.000000	0.000004	0.000045	-0.000061	-0.189786	-9.346075	178.640897
37486	2.155086	-0.017339	12.942228	-0.025944	-0.024844	3.307704	1.000000	-0.000005	0.000050	-0.000068	-0.189331	-9.341233	178.633116
37487	2.159318	-0.039290	12.933942	-0.029471	-0.003328	3.300290	1.000000	0.000004	0.000041	-0.000080	-0.191236	-9.348177	178.622517
37488	2.158125	-0.038835	12.934143	-0.029279	-0.003395	3.300290	1.000000	0.000008	0.000052	-0.000064	-0.189427	-9.343145	178.615217
37489	2.179489	-0.051195	12.911465	-0.052741	0.008625	3.281428	1.000000	-0.000015	0.000044	-0.000082	-0.195094	-9.348063	178.603196
37490	2.172383	-0.041225	12.952312	-0.040150	-0.001707	3.320542	1.000000	0.000003	0.000034	-0.000068	-0.193790	-9.345140	178.595422
37491	2.171161	-0.040984	12.952517	-0.035611	-0.003635	3.320555	1.000000	-0.000008	0.000061	-0.000069	-0.201580	-9.358395	178.584800
37492	2.192535	-0.053333	12.929847	-0.061048	0.009522	3.301701	1.000000	0.000000	0.000034	-0.000077	-0.200655	-9.355642	178.576088
37493	2.168853	-0.040523	12.952905	-0.032326	-0.004654	3.320563	1.000000	-0.000005	0.000050	-0.000068	-0.203652	-9.363367	178.567077
37494	2.173064	-0.062523	12.944632	-0.038217	0.017636	3.313159	1.000000	0.000001	0.000045	-0.000069	-0.202839	-9.359439	178.559245
37495	2.189030	-0.052572	12.930444	-0.054989	0.007141	3.301729	1.000000	-0.000002	0.000049	-0.000059	-0.207749	-9.366272	178.549843
37496	2.182283	-0.030039	12.939144	-0.048497	-0.015465	3.309131	1.000000	0.000001	0.000053	-0.000081	-0.206834	-9.361720	178.540720
37497	2.185755	-0.064397	12.963078	-0.044624	0.017768	3.333444	1.000000	-0.000002	0.000046	-0.000078	-0.211396	-9.373281	178.530014
37498	2.151795	-0.058558	12.927633	-0.017720	0.011511	3.292918	1.000000	0.000003	0.000034	-0.000068	-0.210538	-9.371017	178.522418
37499	2.200695	-0.054127	12.949072	-0.060784	0.007706	3.322026	1.000000	-0.000008	0.000061	-0.000069	-0.213021	-9.377343	178.514155
37500	2.182860	-0.051165	12.931492	-0.047157	0.004473	3.301761	1.000000	0.000001	0.000045	-0.000069	-0.212464	-9.373783	178.506426
37501	2.187250	-0.073127	12.923198	-0.047418	0.026931	3.294391	1.000000	-0.000003	0.000038	-0.000066	-0.210693	-9.395532	178.503978
37502	2.164256	-0.047874	12.914040	-0.027566	0.001267	3.281508	1.000000	0.000001	0.000045	-0.000069	-0.210125	-9.392235	178.496247
37503	2.179466	-0.050268	12.932068	-0.038382	0.003057	3.301790	1.000000	0.000001	0.000053	-0.000081	-0.213754	-9.397117	178.484335
37504	2.211934	-0.043024	12.935707	-0.070761	-0.003276	3.310651	1.000000	-0.000006	0.000039	-0.000075	-0.213938	-9.394611	178.475977
37505	2.193673	-0.052507	12.950270	-0.048769	0.004349	3.322078	1.000000	-0.000002	0.000046	-0.000078	-0.219275	-9.400379	178.463825
37506	2.175897	-0.049501	12.932672	-0.035058	0.001078	3.301799	1.000000	-0.000002	0.000057	-0.000070	-0.219165	-9.395961	178.456023
37507	2.174686	-0.049235	12.932877	-0.032110	-0.000023	3.301807	1.000000	0.000001	0.000038	-0.000058	-0.222581	-9.404792	178.448219
37508	2.185224	-0.016940	12.927172	-0.045007	-0.031858	3.297776	1.000000	0.000004	0.000052	-0.000072	-0.221810	-9.400998	178.440247
37509	2.189463	-0.038792	12.918913	-0.047118	-0.011642	3.290412	1.000000	0.000001	0.000045	-0.000069	-0.229911	-9.414018	178.428182
37510	2.193013	-0.073250	12.942846	-0.046469	0.022653	3.314736	1.000000	-0.000009	0.000050	-0.000076	-0.230688	-9.410551	178.419806
37511	2.170561	-0.035631	12.901500	-0.031272	-0.014881	3.270129	1.000000	0.000001	0.000045	-0.000069	-0.228664	-9.414696	178.413960
37512	2.185939	-0.038105	12.919512	-0.043983	-0.012156	3.290422	1.000000	-0.000006	0.000039	-0.000075	-0.229163	-9.412633	178.405729
37513	2.178302	-0.028008	12.960416	-0.028735	-0.024441	3.329487	1.000000	0.000005	0.000070	-0.000076	-0.235729	-9.416935	178.392932
37514	2.188162	-0.072133	12.943673	-0.040536	0.020114	3.314760	1.000000	-0.000004	0.000020	-0.000062	-0.236330	-9.417183	178.386243
37515	2.187854	-0.059543	12.911653	-0.043892	0.006551	3.283078	1.000000	-0.000008	0.000061	-0.000069	-0.241940	-9.423549	178.376679
37516	2.180908	-0.037215	12.920364	-0.037129	-0.016242	3.290439	1.000000	-0.000009	0.000050	-0.000076	-0.242946	-9.420435	178.368396
37517	2.156953	-0.024382	12.943402	-0.006146	-0.031873	3.309189	1.000000	0.000010	0.000047	-0.000074	-0.250069	-9.438427	178.359092
37518	2.162018	-0.033697	12.902939	-0.018046	-0.021949	3.270144	1.000000	0.000001	0.000045	-0.000069	-0.250282	-9.436152	178.351673
37519	2.210103	-0.041439	12.956674	-0.054066	-0.013768	3.331078	1.000000	0.000004	0.000052	-0.000072	-0.251741	-9.446245	178.344498
37520	2.158886	-0.045428	12.935538	-0.007403	-0.011064	3.301839	1.000000	0.000001	0.000038	-0.000058	-0.252238	-9.444934	178.338440
37521	2.190558	-0.050566	12.971430	-0.029734	-0.005633	3.342471	1.000000	-0.000002	0.000056	-0.000070	-0.253190	-9.456577	178.334655
37522	2.172505	-0.047659	12.953857	-0.015813	-0.009053	3.322156	1.000000	-0.000008	0.000069	-0.000080	-0.254265	-9.451949	178.325987
37523	2.188309	-0.037719	12.939741	-0.032475	-0.019131	3.310788	1.000000	-0.000003	0.000038	-0.000066	-0.257196	-9.460537	178.317718
37524	2.170068	-0.047177	12.954267	-0.012162	-0.010434	3.322159	1.000000	0.000004	0.000044	-0.000061	-0.257330	-9.458704	178.311357
37525	2.191647	-0.059286	12.931654	-0.035472	0.002142	3.303457	1.000000	0.000001	0.000045	-0.000069	-0.258943	-9.464544	178.303902
37526	2.184816	-0.036910	12.940334	-0.028530	-0.020740	3.310795	1.000000	-0.000011	0.000054	-0.000066	-0.260802	-9.461709	178.296955
37527	2.172668	-0.056276	12.914232	-0.017216	-0.003120	3.283142	1.000000	0.000001	0.000045	-0.000069	-0.267003	-9.475869	178.288615
37528	2.181536	-0.048850	12.972957	-0.017009	-0.010913	3.342490	1.000000	0.000001	0.000053	-0.000081	-0.267268	-9.473383	178.279974
37529	2.220211	-0.051148	12.936034	-0.059483	-0.008315	3.312453	1.000000	0.000004	0.000044	-0.000060	-0.272488	-9.481331	178.271027
37530	2.169339	-0.055323	12.914796	-0.012723	-0.005675	3.283146	1.000000	-0.000010	0.000021	-0.000079	-0.274161	-9.482600	178.262597
37531	2.207482	-0.070326	12.910035	-0.046277	0.010388	3.284820	1.000000	-0.000004	0.000060	-0.000060	-0.273944	-9.499596	178.264218
37532	2.216134	-0.062955	12.968801	-0.045962	0.002558	3.344169	1.000000	0.000004	0.000052	-0.000072	-0.274081	-9.497444	178.256615
37533	2.176361	-0.034963	12.941764	-0.011293	-0.026586	3.310810	1.000000	0.000004	0.000052	-0.000072	-0.275074	-9.500973	178.248462
37534	2.180732	-0.056930	12.933510	-0.016640	-0.004628	3.303494	1.000000	-0.000009	0.000043	-0.000064	-0.276888	-9.499946	178.241755
37535	2.196791	-0.046932	12.919372	-0.033110	-0.015109	3.292157	1.000000	0.000004	0.000044	-0.000060	-0.280926	-9.508798	178.232220
37536	2.178393	-0.056498	12.933906	-0.012639	-0.006501	3.303497	1.000000	-0.000012	0.000051	-0.000085	-0.282779	-9.506894	178.223197
37537	2.155138	-0.031457	12.924703	0.009892	-0.033245	3.290456	1.000000	-0.000002	0.000046	-0.000078	-0.286958	-9.515769	178.211505
37538	2.193026	-0.046268	12.920014	-0.028209	-0.017435	3.292165	1.000000	-0.000002	0.000056	-0.000070	-0.287975	-9.513205	178.204160
37539	2.168389	-0.045878	12.975172	0.007163	-0.019269	3.342490	1.000000	0.000013	0.000028	-0.000061	-0.287514	-9.523610	178.200397
37540	2.180041	-0.064947	12.894056	-0.017308	0.000919	3.264513	1.000000	-0.000002	0.000056	-0.000070	-0.288554	-9.521141	178.193063
37541	2.166778	-0.032835	12.943377	0.004135	-0.034243	3.310797	1.000000	-0.000009	0.000043	-0.000064	-0.298481	-9.527832	178.177104
37542	2.188389	-0.045131	12.920804	-0.020792	-0.021449	3.292173	1.000000	-0.000005	0.000049	-0.000067	-0.300105	-9.526211	178.170162
37543	2.169902	-0.054663	12.935341	0.002939	-0.013080	3.303498	1.000000	0.000001	0.000052	-0.000081	-0.301141	-9.538464	178.167217
37544	2.185157	-0.056989	12.953416	-0.009254	-0.010666	3.323863	1.000000	0.000001	0.000037	-0.000058	-0.302309	-9.538377	178.161435
37545	2.201125	-0.046914	12.939311	-0.026217	-0.020095	3.312549	1.000000	-0.000002	0.000056	-0.000070	-0.302194	-9.543727	178.160225
37546	2.183560	-0.043941	12.921625	-0.012122	-0.023640	3.292180	1.000000	0.000004	0.000033	-0.000068	-0.302860	-9.544238	178.153254
37547	2.181480	-0.056126	12.954040	-0.003786	-0.012407	3.323864	1.000000	-0.000008	0.000068	-0.000080	-0.305721	-9.544640	178.144085
37548	2.197880	-0.033565	12.907805	-0.028933	-0.034174	3.280869	1.000000	0.000004	0.000052	-0.000072	-0.306245	-9.543104	178.136643
37549	2.184331	-0.077657	12.946061	-0.006431	0.009016	3.316582	1.000000	0.000001	0.000045	-0.000069	-0.306441	-9.549426	178.131554
37550	2.172649	-0.020483	12.930969	0.000501	-0.048556	3.299461	1.000000	0.000001	0.000045	-0.000069	-0.307432	-9.548736	178.124460
37551	2.159789	-0.052074	12.937044	0.016706	-0.017429	3.303483	1.000000	0.000008	0.000059	-0.000075	-0.306617	-9.554418	178.121051
37552	2.164172	-0.073760	12.928809	0.011489	0.004442	3.296203	1.000000	0.000007	0.000040	-0.000071	-0.306887	-9.554335	178.113767
37553	2.151769	-0.029150	12.945890	0.025929	-0.040220	3.310755	1.000000	-0.000015	0.000044	-0.000082	-0.305648	-9.558003	178.109717
37554	2.189722	-0.044032	12.941256	-0.012024	-0.024488	3.312562	1.000000	-0.000002	0.000056	-0.000070	-0.306897	-9.556113	178.102475
37555	2.187642	-0.056169	12.973668	-0.003278	-0.010665	3.344245	1.000000	0.000004	0.000044	-0.000060	-0.297084	-9.560513	178.111542
37556	2.170096	-0.053197	12.955964	0.010859	-0.014185	3.323858	1.000000	0.000001	0.000045	-0.000069	-0.297945	-9.559992	178.104404
37557	2.196772	-0.023548	12.968228	-0.013140	-0.043894	3.340228	1.000000	-0.000005	0.000049	-0.000067	-0.301779	-9.565449	178.097844
37558	2.167666	-0.052715	12.956373	0.014398	-0.015852	3.323853	1.000000	0.000001	0.000045	-0.000069	-0.302683	-9.565005	178.090725
37559	2.200071	-0.045188	12.960186	-0.017157	-0.023367	3.332955	1.000000	-0.000002	0.000045	-0.000078	-0.307356	-9.565184	178.076112
37560	2.183363	-0.029732	12.910277	-0.009558	-0.038979	3.280884	1.000000	0.000007	0.000040	-0.000071	-0.307589	-9.565263	178.068821
37561	2.181496	-0.041963	12.942652	-0.001290	-0.027865	3.312561	1.000000	-0.000015	0.000044	-0.000082	-0.311781	-9.568004	178.057298
37562	2.202630	-0.066694	12.952274	-0.019570	-0.003041	3.325693	1.000000	-0.000003	0.000030	-0.000055	-0.313483	-9.569229	178.051900
37563	2.190109	-0.022105	12.969357	-0.005447	-0.048122	3.340219	1.000000	-0.000002	0.000056	-0.000070	-0.312807	-9.569963	178.046356
37564	2.167289	-0.061026	12.916891	0.009287	-0.009710	3.284899	1.000000	-0.000005	0.000057	-0.000079	-0.314299	-9.568197	178.038134
37565	2.181424	-0.075850	12.967240	0.004710	0.005162	3.336975	1.000000	-0.000002	0.000056	-0.000070	-0.313491	-9.570337	178.034510
37566	2.192378	-0.031055	12.929439	-0.014178	-0.039061	3.301280	1.000000	0.000001	0.000045	-0.000069	-0.314486	-9.569985	178.027430
37567	2.179860	-0.062799	12.935450	0.002058	-0.008775	3.305297	1.000000	0.000001	0.000037	-0.000057	-0.318574	-9.578370	178.018692
37568	2.190020	-0.030435	12.929840	-0.010263	-0.040943	3.301278	1.000000	0.000002	0.000063	-0.000073	-0.319442	-9.575944	178.011147
37569	2.171429	-0.040028	12.944351	0.011171	-0.032651	3.312545	1.000000	-0.000009	0.000046	-0.000095	-0.322013	-9.578643	178.001513
37570	2.187436	-0.029882	12.930279	-0.007393	-0.042368	3.301276	1.000000	0.000004	0.000044	-0.000060	-0.322875	-9.578430	177.995466
37571	2.191129	-0.064118	12.954238	-0.004907	-0.009006	3.325704	1.000000	0.000004	0.000052	-0.000072	-0.325780	-9.582171	177.986644
37572	2.173460	-0.061213	12.936534	0.009254	-0.012572	3.305291	1.000000	-0.000002	0.000049	-0.000059	-0.327421	-9.581489	177.980812
37573	2.200004	-0.031560	12.948850	-0.016519	-0.041630	3.321684	1.000000	-0.000005	0.000049	-0.000067	-0.328543	-9.578938	177.971657
37574	2.170897	-0.060737	12.936967	0.011036	-0.013631	3.305288	1.000000	0.000004	0.000052	-0.000072	-0.329221	-9.577915	177.964295
37575	2.197398	-0.030942	12.949294	-0.014250	-0.041689	3.321687	1.000000	-0.000002	0.000049	-0.000059	-0.325566	-9.577371	177.962316
37576	2.162548	-0.037952	12.945844	0.019559	-0.036138	3.312526	1.000000	0.000001	0.000052	-0.000080	-0.326418	-9.576294	177.953942
37577	2.167239	-0.059854	12.937584	0.014736	-0.015087	3.305283	1.000000	-0.000003	0.000030	-0.000054	-0.331728	-9.579355	177.943903
37578	2.183443	-0.049745	12.923492	-0.003826	-0.024819	3.294025	1.000000	-0.000002	0.000045	-0.000077	-0.333094	-9.579091	177.935893
37580	2.172552	-0.060536	12.947035	0.023471	-0.029283	16.443665	1.000000	-0.000007	0.000102	-0.000156	-0.332282	-9.578199	177.923254
37581	2.179562	-0.048923	12.924150	-0.000289	-0.025845	3.294024	1.000000	0.000001	0.000052	-0.000080	-0.333198	-9.577206	177.914908
37582	2.161047	-0.058418	12.938626	0.020458	-0.017191	3.305273	1.000000	0.000004	0.000052	-0.000072	-0.333126	-9.576144	177.907592
37583	2.176885	-0.048115	12.924605	0.001910	-0.026928	3.294022	1.000000	0.000001	0.000052	-0.000080	-0.334052	-9.575165	177.899252
37585	2.191235	-0.050430	12.942888	-0.021909	-0.047702	16.441585	1.000000	-0.000020	0.000104	-0.000141	-0.332900	-9.564097	177.880396
37586	2.155904	-0.057426	12.939489	0.022855	-0.018310	3.305267	1.000000	0.000010	0.000036	-0.000081	-0.332799	-9.564894	177.872001
37587	2.178022	-0.069294	12.916959	-0.001838	-0.005188	3.286793	1.000000	-0.000003	0.000030	-0.000054	-0.332887	-9.566900	177.867693
37588	2.221078	-0.042149	12.947224	-0.040211	-0.031516	3.323635	1.000000	-0.000005	0.000049	-0.000067	-0.334772	-9.566217	177.860883
37589	2.164150	-0.024425	12.934208	0.013958	-0.051860	3.301236	1.000000	0.000011	0.000047	-0.000073	-0.336777	-9.570491	177.853733
37590	2.168714	-0.046213	12.925985	0.008803	-0.030035	3.294012	1.000000	-0.000005	0.000049	-0.000067	-0.338702	-9.569855	177.846940
37591	2.178159	-0.026538	12.952553	0.003536	-0.049470	3.321667	1.000000	-0.000012	0.000035	-0.000061	-0.338198	-9.572354	177.843377
37592	2.215357	-0.053509	12.980254	-0.027678	-0.021786	3.355320	1.000000	0.000008	0.000066	-0.000086	-0.338220	-9.569812	177.834367
37593	2.197586	-0.050486	12.962542	-0.014046	-0.024635	3.334884	1.000000	0.000004	0.000044	-0.000060	-0.336094	-9.567359	177.827433
37594	2.181241	-0.035254	12.912538	-0.006545	-0.040227	3.282771	1.000000	-0.000010	0.000020	-0.000079	-0.338311	-9.570030	177.819264
37595	2.196566	-0.037477	12.930670	-0.017232	-0.038693	3.303209	1.000000	0.000008	0.000059	-0.000075	-0.341776	-9.573849	177.811322
37596	2.184667	-0.056757	12.904517	-0.009362	-0.019797	3.275555	1.000000	-0.000005	0.000049	-0.000067	-0.343721	-9.573259	177.804540
37597	2.199800	-0.059041	12.922685	-0.021810	-0.017657	3.295997	1.000000	0.000001	0.000045	-0.000069	-0.345675	-9.570806	177.794729
37598	2.180517	-0.081305	12.969313	0.005641	0.002817	3.338902	1.000000	-0.000015	0.000054	-0.000074	-0.348592	-9.569638	177.787156
37599	2.191379	-0.036474	12.931553	-0.013230	-0.041517	3.303205	1.000000	0.000011	0.000047	-0.000073	-0.349073	-9.569566	177.777550
37600	2.195869	-0.058415	12.923357	-0.018388	-0.019706	3.296000	1.000000	-0.000017	0.000058	-0.000064	-0.352533	-9.567935	177.771179
37602	2.204908	-0.032415	12.933977	-0.053341	-0.093057	16.428315	1.000000	-0.000004	0.000087	-0.000124	-0.355951	-9.566137	177.757051
37603	2.169215	-0.045830	12.946613	0.010482	-0.035007	3.314424	1.000000	-0.000012	0.000050	-0.000084	-0.358413	-9.565462	177.748313
37604	2.195574	-0.016130	12.959016	-0.013897	-0.064546	3.330849	1.000000	-0.000005	0.000049	-0.000067	-0.361314	-9.568898	177.740354
37605	2.155446	-0.077719	12.952811	0.027046	-0.005007	3.318441	1.000000	-0.000009	0.000042	-0.000064	-0.363833	-9.569143	177.733963
37606	2.198986	-0.038006	12.951007	-0.017536	-0.042882	3.323653	1.000000	-0.000002	0.000056	-0.000070	-0.362963	-9.569355	177.728662
37607	2.164086	-0.045135	12.947474	0.016287	-0.037371	3.314412	1.000000	0.000001	0.000052	-0.000080	-0.364044	-9.568489	177.720400
37608	2.185693	-0.057058	12.925088	-0.007803	-0.024390	3.296002	1.000000	-0.000004	0.000060	-0.000060	-0.364792	-9.569943	177.719529
37609	2.168015	-0.054343	12.907336	0.006338	-0.027972	3.275541	1.000000	-0.000002	0.000045	-0.000077	-0.366330	-9.569917	177.711609
37610	2.187578	-0.014785	12.960370	-0.006032	-0.066460	3.330846	1.000000	-0.000002	0.000056	-0.000070	-0.362155	-9.567969	177.707328
37611	2.181832	-0.056307	12.925743	-0.004474	-0.025099	3.296003	1.000000	0.000001	0.000037	-0.000057	-0.363684	-9.568841	177.701728
37612	2.164486	-0.053669	12.907931	0.010580	-0.028423	3.275538	1.000000	-0.000012	0.000043	-0.000073	-0.365121	-9.573091	177.697329
37613	2.207267	-0.026398	12.938323	-0.027647	-0.054844	3.312447	1.000000	-0.000002	0.000045	-0.000077	-0.366625	-9.573100	177.689399
37614	2.178423	-0.055692	12.926321	0.000447	-0.026315	3.296001	1.000000	0.000001	0.000052	-0.000080	-0.365210	-9.574676	177.682920
37615	2.200209	-0.067558	12.903926	-0.024387	-0.013613	3.277615	1.000000	-0.000002	0.000049	-0.000058	-0.367019	-9.574292	177.677178
37616	2.209279	-0.047497	12.930569	-0.029317	-0.032884	3.305271	1.000000	0.000008	0.000055	-0.000093	-0.362698	-9.575663	177.671295
37617	2.213737	-0.069042	12.922401	-0.034459	-0.011078	3.298092	1.000000	0.000011	0.000058	-0.000066	-0.362838	-9.574225	177.664674
37618	2.212257	-0.068664	12.922656	-0.032484	-0.010821	3.298097	1.000000	-0.000008	0.000057	-0.000087	-0.360563	-9.576336	177.659633
37619	2.193550	-0.078337	12.937105	-0.011624	-0.002373	3.309292	1.000000	0.000008	0.000062	-0.000056	-0.361203	-9.574461	177.654197
37620	2.179153	-0.046202	12.986409	0.009578	-0.034685	3.355318	1.000000	-0.000004	0.000068	-0.000071	-0.357219	-9.574806	177.653641
37621	2.149883	-0.075442	12.974461	0.037113	-0.006659	3.338849	1.000000	0.000011	0.000066	-0.000077	-0.357054	-9.572577	177.645666
37622	2.142345	-0.052728	12.983145	0.045069	-0.029943	3.346019	1.000000	0.000008	0.000059	-0.000074	-0.358023	-9.573224	177.636788
37623	2.097021	-0.079181	12.953143	0.085571	-0.004815	3.309063	1.000000	0.000024	0.000057	-0.000081	-0.356409	-9.572037	177.628434
37624	2.089806	-0.056171	12.961766	0.093452	-0.028209	3.316223	1.000000	0.000020	0.000042	-0.000066	-0.356676	-9.574279	177.624470
37625	2.088538	-0.055647	12.961973	0.094636	-0.028866	3.316213	1.000000	-0.000002	0.000056	-0.000070	-0.358197	-9.573172	177.617384
37626	2.048944	-0.028162	12.934530	0.127815	-0.057041	3.282405	1.000000	0.000009	0.000025	-0.000088	-0.354904	-9.574390	177.608532
37627	2.037030	-0.059732	12.940405	0.142377	-0.026120	3.286404	1.000000	0.000010	0.000029	-0.000069	-0.355111	-9.576407	177.601535
37628	2.030473	-0.037056	12.948910	0.150880	-0.048643	3.293545	1.000000	0.000009	0.000018	-0.000077	-0.352496	-9.583987	177.601055
37629	2.047459	-0.026644	12.934769	0.132368	-0.058401	3.282354	1.000000	-0.000001	-0.000003	-0.000068	-0.353979	-9.589697	177.594215
37630	2.098231	-0.008756	12.924418	0.080546	-0.074378	3.280487	1.000000	0.000002	-0.000007	-0.000078	-0.355035	-9.593030	177.581785
37631	2.187736	-0.018002	12.941654	-0.002862	-0.062118	3.312443	1.000000	-0.000011	-0.000016	-0.000071	-0.357651	-9.600260	177.574630
37632	2.211344	-0.029829	12.918993	-0.028080	-0.049995	3.294106	1.000000	0.000011	-0.000019	-0.000060	-0.360621	-9.606298	177.562577
37633	2.307539	-0.048522	12.895655	-0.124562	-0.027261	3.287265	1.000000	-0.000004	0.000008	-0.000069	-0.362438	-9.610668	177.555615
37634	2.351990	-0.008521	12.893768	-0.170152	-0.065832	3.292575	1.000000	0.000003	0.000007	-0.000052	-0.364553	-9.611980	177.546684
37635	2.378882	-0.067493	12.927240	-0.187803	-0.006696	3.330442	1.000000	-0.000012	0.000032	-0.000080	-0.367165	-9.613664	177.538446
37636	2.412117	-0.047393	12.899101	-0.225662	-0.025004	3.308128	1.000000	-0.000011	0.000054	-0.000065	-0.367324	-9.614396	177.532344
37637	2.393407	-0.057254	12.913559	-0.204770	-0.016575	3.319314	1.000000	0.000002	0.000067	-0.000054	-0.368743	-9.612084	177.527128
37638	2.301463	-0.060106	12.928773	-0.112022	-0.018681	3.318978	1.000000	-0.000004	0.000078	-0.000063	-0.372906	-9.609493	177.518359
37639	2.293386	-0.037870	12.937551	-0.104514	-0.041831	3.326133	1.000000	-0.000010	0.000083	-0.000062	-0.375588	-9.605318	177.512211
37640	2.216659	-0.055552	13.002963	-0.018173	-0.028229	3.377937	1.000000	0.000015	0.000076	-0.000061	-0.373822	-9.601759	177.505397
37641	2.176038	-0.028061	12.975665	0.015211	-0.057136	3.344072	1.000000	-0.000001	0.000082	-0.000085	-0.375001	-9.597713	177.496533
37642	2.140657	-0.035380	12.972115	0.049097	-0.051700	3.334721	1.000000	-0.000001	0.000067	-0.000062	-0.377147	-9.595607	177.489557
37643	2.138974	-0.035080	12.972393	0.050281	-0.052382	3.334714	1.000000	0.000002	0.000063	-0.000073	-0.378303	-9.593718	177.482179
37644	2.098017	-0.020224	12.977160	0.090723	-0.068956	3.332494	1.000000	0.000001	0.000052	-0.000080	-0.377759	-9.594250	177.474590
37646	2.154178	-0.011793	12.926533	0.052842	-0.148910	16.396444	1.000000	-0.000009	0.000054	-0.000155	-0.378602	-9.593464	177.457669
37647	2.198682	-0.048157	12.913785	-0.017290	-0.036533	3.286959	1.000000	-0.000009	0.000024	-0.000060	-0.381746	-9.597921	177.454608
37648	2.254675	-0.052453	12.895239	-0.074804	-0.030069	3.278034	1.000000	-0.000006	0.000027	-0.000082	-0.383680	-9.600170	177.446210
37649	2.248782	-0.017722	12.871588	-0.074304	-0.065225	3.253504	1.000000	-0.000009	0.000031	-0.000071	-0.386355	-9.601010	177.436819
37650	2.275153	-0.076804	12.905198	-0.091909	-0.006134	3.291429	1.000000	-0.000014	0.000054	-0.000074	-0.389396	-9.600174	177.429330
37651	2.301167	-0.047046	12.917742	-0.116625	-0.035521	3.307936	1.000000	-0.000011	0.000054	-0.000065	-0.392131	-9.601178	177.423234
37652	2.298797	-0.059482	12.950186	-0.108629	-0.024256	3.339611	1.000000	-0.000011	0.000061	-0.000077	-0.394732	-9.599561	177.415415
37653	2.247284	-0.064668	12.928555	-0.062050	-0.021410	3.309724	1.000000	-0.000010	0.000079	-0.000081	-0.396425	-9.595083	177.407997
37654	2.228027	-0.074684	12.943052	-0.041136	-0.013010	3.320873	1.000000	-0.000010	0.000083	-0.000062	-0.399180	-9.590948	177.401886
37655	2.224767	-0.086927	12.975639	-0.032835	-0.002573	3.352542	1.000000	0.000003	0.000100	-0.000081	-0.403651	-9.586360	177.394980
37656	2.166651	-0.069879	12.962464	0.020244	-0.022378	3.329756	1.000000	-0.000010	0.000083	-0.000062	-0.406445	-9.582241	177.388887
37657	2.113667	-0.087648	12.973054	0.074137	-0.007647	3.331507	1.000000	-0.000012	0.000102	-0.000074	-0.408747	-9.577422	177.380412
37658	2.072686	-0.060435	12.945724	0.107480	-0.036543	3.297559	1.000000	0.000012	0.000084	-0.000081	-0.408646	-9.573208	177.372076
37659	2.060479	-0.079681	12.919595	0.116008	-0.016920	3.269901	1.000000	-0.000001	0.000074	-0.000074	-0.406921	-9.573354	177.367001
37660	2.028446	-0.057706	12.982963	0.156455	-0.041534	3.326911	1.000000	0.000005	0.000063	-0.000064	-0.407958	-9.571593	177.360669
37661	2.016817	-0.077024	12.956735	0.164904	-0.022304	3.299245	1.000000	0.000005	0.000052	-0.000071	-0.407425	-9.574106	177.354416
37662	2.049123	-0.068761	12.960866	0.133472	-0.029249	3.308632	1.000000	0.000017	0.000035	-0.000063	-0.407160	-9.575489	177.348180
37663	2.075609	-0.038493	12.973350	0.108980	-0.058423	3.325126	1.000000	0.000001	0.000030	-0.000046	-0.407873	-9.580012	177.347325
37664	2.082148	-0.047541	12.932858	0.096987	-0.048594	3.286345	1.000000	0.000025	0.000008	-0.000071	-0.406513	-9.584493	177.340191
37665	2.092864	-0.014782	12.927196	0.085590	-0.080318	3.282309	1.000000	-0.000003	0.000019	-0.000062	-0.405986	-9.591040	177.340680
37666	2.147312	-0.043699	12.973080	0.041784	-0.050007	3.336815	1.000000	0.000003	0.000011	-0.000082	-0.406962	-9.595226	177.332275
37667	2.181287	-0.022967	12.944922	0.003502	-0.069274	3.314564	1.000000	0.000013	0.000017	-0.000068	-0.408725	-9.598725	177.325210
37668	2.197979	-0.012476	12.930893	-0.015027	-0.079080	3.303440	1.000000	-0.000006	0.000020	-0.000070	-0.410987	-9.601943	177.318196
37669	2.253200	-0.028958	12.944633	-0.065780	-0.060098	3.326313	1.000000	-0.000003	0.000023	-0.000092	-0.409719	-9.604202	177.308882
37670	2.285905	-0.021020	12.948721	-0.097188	-0.067062	3.335744	1.000000	-0.000012	0.000032	-0.000080	-0.412466	-9.606065	177.300728
37672	2.285496	-0.052714	12.927362	-0.198385	-0.070068	16.442361	1.000000	-0.000008	0.000083	-0.000151	-0.411367	-9.601487	177.283701
37673	2.261364	-0.072534	12.928570	-0.074982	-0.016830	3.312139	1.000000	-0.000020	0.000066	-0.000083	-0.414967	-9.599431	177.275118
37674	2.226178	-0.080033	12.924904	-0.040318	-0.011422	3.302711	1.000000	0.000012	0.000073	-0.000088	-0.415230	-9.600276	177.268715
37675	2.201156	-0.067674	12.947687	-0.012993	-0.025520	3.320913	1.000000	-0.000008	0.000060	-0.000068	-0.417691	-9.598853	177.261939
37676	2.183340	-0.065071	12.929874	0.001246	-0.029392	3.300359	1.000000	0.000005	0.000062	-0.000064	-0.420174	-9.597946	177.255169
37677	2.158475	-0.052597	12.952617	0.028576	-0.043496	3.318549	1.000000	0.000015	0.000058	-0.000057	-0.420312	-9.596853	177.249671
37678	2.157159	-0.052123	12.952838	0.029679	-0.043980	3.318544	1.000000	0.000001	0.000045	-0.000068	-0.420761	-9.596706	177.243202
37679	2.155965	-0.051834	12.953038	0.030896	-0.044700	3.318539	1.000000	0.000002	0.000048	-0.000050	-0.422544	-9.596692	177.238570
37680	2.132566	-0.026823	12.943501	0.051816	-0.070109	3.305056	1.000000	0.000026	0.000030	-0.000056	-0.418537	-9.600652	177.235341
37681	2.165039	-0.018487	12.947657	0.020426	-0.077092	3.314505	1.000000	-0.000002	0.000041	-0.000047	-0.420764	-9.601446	177.231044
37682	2.180343	-0.020661	12.965903	0.008763	-0.074917	3.335061	1.000000	-0.000003	0.000030	-0.000054	-0.422639	-9.603375	177.225631
37683	2.214007	-0.000060	12.937843	-0.029521	-0.093824	3.312858	1.000000	0.000007	0.000022	-0.000066	-0.423530	-9.606405	177.219107
37684	2.276293	-0.025888	12.911110	-0.093332	-0.064493	3.297082	1.000000	0.000000	0.000026	-0.000064	-0.423140	-9.609172	177.213126
37685	2.269283	-0.003580	12.919637	-0.085737	-0.087695	3.304159	1.000000	-0.000009	0.000039	-0.000083	-0.425468	-9.610296	177.204662
37686	2.296823	-0.049983	12.921156	-0.110168	-0.040022	3.310591	1.000000	-0.000012	0.000043	-0.000072	-0.425629	-9.610611	177.197963
37687	2.255151	-0.048288	12.957905	-0.063058	-0.045037	3.339853	1.000000	-0.000021	0.000047	-0.000079	-0.429425	-9.610714	177.189882
37688	2.287895	-0.027982	12.930023	-0.100836	-0.063980	3.317677	1.000000	-0.000011	0.000076	-0.000099	-0.431680	-9.609854	177.179923
37689	2.251713	-0.048131	12.958503	-0.060095	-0.046520	3.339862	1.000000	-0.000008	0.000068	-0.000079	-0.433926	-9.607635	177.171839
37690	2.239759	-0.067673	12.932357	-0.052100	-0.026662	3.312233	1.000000	-0.000007	0.000083	-0.000102	-0.431514	-9.604887	177.166422
37691	2.187196	-0.085404	12.942742	0.001483	-0.012010	3.313834	1.000000	-0.000001	0.000074	-0.000073	-0.433083	-9.601929	177.158993
37692	2.179164	-0.063081	12.951430	0.009087	-0.034647	3.320895	1.000000	-0.000004	0.000067	-0.000071	-0.432608	-9.599628	177.146417
37693	2.150095	-0.092695	12.939329	0.036524	-0.006608	3.304339	1.000000	0.000006	0.000081	-0.000068	-0.433516	-9.595915	177.139649
37694	2.108603	-0.078147	12.943973	0.076599	-0.023302	3.301897	1.000000	-0.000001	0.000067	-0.000062	-0.434342	-9.593183	177.133017
37695	2.113106	-0.099983	12.935879	0.071434	-0.001538	3.294832	1.000000	-0.000001	0.000067	-0.000062	-0.436157	-9.591058	177.126922
37696	2.104398	-0.090042	12.976680	0.085921	-0.012560	3.333539	1.000000	0.000008	0.000051	-0.000063	-0.435739	-9.590447	177.118526
37697	2.137345	-0.069114	12.948795	0.047611	-0.031462	3.311377	1.000000	0.000018	0.000057	-0.000048	-0.435666	-9.589430	177.114039
37698	2.119949	-0.066177	12.930875	0.061769	-0.034892	3.290787	1.000000	0.000010	0.000036	-0.000080	-0.435374	-9.591316	177.104113
37699	2.146050	-0.035733	12.943484	0.036785	-0.064375	3.307339	1.000000	0.000004	0.000044	-0.000060	-0.436626	-9.591801	177.098311
37700	2.144082	-0.047833	12.975828	0.045267	-0.053455	3.338989	1.000000	0.000004	0.000033	-0.000067	-0.438873	-9.594976	177.091617
37701	2.177477	-0.027016	12.947881	0.006951	-0.072359	3.316839	1.000000	0.000007	0.000040	-0.000070	-0.439611	-9.595936	177.084637
37702	2.160339	-0.024284	12.929914	0.021408	-0.075515	3.296247	1.000000	0.000004	0.000033	-0.000067	-0.439040	-9.599411	177.081632
37703	2.185505	-0.006567	12.974700	0.003397	-0.093116	3.344464	1.000000	-0.000008	0.000042	-0.000064	-0.441704	-9.600160	177.075371
37704	2.191509	-0.015977	12.934361	-0.009107	-0.083252	3.305760	1.000000	-0.000005	0.000053	-0.000097	-0.443448	-9.598072	177.059882
37705	2.173401	-0.025982	12.948567	0.011891	-0.074895	3.316821	1.000000	-0.000010	0.000020	-0.000079	-0.445963	-9.601331	177.051923
37706	2.195841	-0.037711	12.926321	-0.012947	-0.062091	3.298716	1.000000	-0.000008	0.000057	-0.000086	-0.447540	-9.600837	177.042877
37707	2.176420	-0.060306	12.972758	0.015021	-0.041850	3.341434	1.000000	-0.000012	0.000042	-0.000072	-0.450429	-9.601537	177.035632
37708	2.172489	-0.089555	12.905925	0.009052	-0.012292	3.275109	1.000000	-0.000005	0.000056	-0.000078	-0.452469	-9.599612	177.025587
37709	2.146913	-0.089934	12.960704	0.043420	-0.014545	3.324857	1.000000	-0.000003	0.000034	-0.000084	-0.454097	-9.601283	177.016970
37710	2.163993	-0.067034	12.914668	0.017925	-0.035818	3.282136	1.000000	-0.000008	0.000049	-0.000075	-0.454646	-9.601255	177.011347
37711	2.151874	-0.098979	12.920548	0.032525	-0.004978	3.286161	1.000000	0.000008	0.000047	-0.000081	-0.455163	-9.601385	177.003056
37712	2.160534	-0.078837	12.947262	0.027730	-0.025260	3.313786	1.000000	-0.000005	0.000049	-0.000067	-0.456685	-9.602981	176.997839
37713	2.183795	-0.077874	12.892887	-0.004215	-0.024470	3.264045	1.000000	0.000011	0.000043	-0.000043	-0.457570	-9.603585	176.994054
37714	2.192665	-0.057539	12.919569	-0.009014	-0.044606	3.291674	1.000000	0.000010	0.000036	-0.000080	-0.456417	-9.606592	176.987598
37715	2.174627	-0.067211	12.933751	0.011995	-0.036257	3.302722	1.000000	0.000010	0.000032	-0.000050	-0.457221	-9.608467	176.982964
37716	2.217940	-0.026581	12.932350	-0.033013	-0.074437	3.308250	1.000000	0.000001	0.000037	-0.000057	-0.457164	-9.608468	176.976189
37717	2.226815	-0.006394	12.959030	-0.038170	-0.094873	3.335877	1.000000	0.000007	0.000040	-0.000070	-0.457928	-9.609454	176.969234
37718	2.199694	-0.023477	12.914558	-0.017633	-0.078099	3.287641	1.000000	0.000008	0.000044	-0.000051	-0.456325	-9.610505	176.964693
37719	2.225635	0.006994	12.927227	-0.042572	-0.107618	3.304221	1.000000	0.000004	0.000040	-0.000078	-0.457288	-9.611451	176.956743
37720	2.207468	-0.002873	12.941424	-0.021236	-0.098775	3.315267	1.000000	0.000001	0.000037	-0.000057	-0.456761	-9.614065	176.950350
37721	2.228643	-0.027065	12.951442	-0.039198	-0.074235	3.328865	1.000000	-0.000014	0.000065	-0.000066	-0.460020	-9.612232	176.943825
37722	2.218189	-0.034220	12.893030	-0.038399	-0.066810	3.269584	1.000000	-0.000002	0.000060	-0.000099	-0.459751	-9.611873	176.932303
37723	2.209494	-0.024530	12.933799	-0.023746	-0.078168	3.308249	1.000000	-0.000018	0.000047	-0.000071	-0.463381	-9.612101	176.925263
37724	2.197368	-0.056922	12.939679	-0.008785	-0.047180	3.312276	1.000000	-0.000014	0.000054	-0.000073	-0.465811	-9.613037	176.919590
37725	2.203224	-0.066526	12.899398	-0.020991	-0.037290	3.273613	1.000000	-0.000017	0.000062	-0.000093	-0.468956	-9.611600	176.909900
37726	2.210622	-0.059165	12.958334	-0.018547	-0.045582	3.332895	1.000000	-0.000008	0.000049	-0.000075	-0.469972	-9.613863	176.906292
37727	2.182429	-0.089051	12.946032	0.008833	-0.017525	3.316299	1.000000	-0.000005	0.000045	-0.000085	-0.471883	-9.614298	176.897550
37728	2.192186	-0.056497	12.940560	-0.003517	-0.049177	3.312271	1.000000	0.000001	0.000037	-0.000057	-0.470753	-9.614602	176.889987
37729	2.179890	-0.088594	12.946463	0.011093	-0.018340	3.316296	1.000000	-0.000007	0.000079	-0.000072	-0.473113	-9.611208	176.882804
37730	2.155903	-0.063955	12.936901	0.031060	-0.044323	3.302666	1.000000	0.000010	0.000036	-0.000080	-0.473350	-9.610742	176.871454
37731	2.216983	-0.101695	12.942715	-0.025871	-0.003608	3.318898	1.000000	0.000005	0.000051	-0.000071	-0.474401	-9.610453	176.864370
37732	2.220041	-0.046977	12.945659	-0.031531	-0.058125	3.321866	1.000000	0.000002	0.000055	-0.000061	-0.474696	-9.609931	176.859362
37733	2.169110	-0.052383	12.923566	0.015014	-0.055329	3.291627	1.000000	0.000008	0.000058	-0.000074	-0.475297	-9.608851	176.851948
37734	2.217167	-0.046042	12.946155	-0.028984	-0.059423	3.321866	1.000000	0.000008	0.000051	-0.000062	-0.475324	-9.608945	176.843771
37735	2.177173	-0.019120	12.918381	0.004175	-0.088198	3.287588	1.000000	0.000005	0.000051	-0.000071	-0.476380	-9.608662	176.836693
37736	2.174570	-0.031378	12.950822	0.012448	-0.076870	3.319238	1.000000	-0.000010	0.000072	-0.000069	-0.478249	-9.605948	176.834006
37737	2.180446	-0.040612	12.910556	0.000197	-0.066966	3.280592	1.000000	0.000011	0.000047	-0.000073	-0.478566	-9.606176	176.826740
37738	2.149216	-0.006507	12.941464	0.033885	-0.103520	3.305575	1.000000	-0.000008	0.000053	-0.000056	-0.481001	-9.604803	176.823407
37739	2.119931	-0.048898	12.961318	0.068296	-0.063607	3.320612	1.000000	0.000001	0.000052	-0.000079	-0.482268	-9.604479	176.815343
37740	2.142192	-0.060404	12.939196	0.042873	-0.050881	3.302609	1.000000	-0.000008	0.000049	-0.000075	-0.484579	-9.602614	176.804068
37741	2.134574	-0.038204	12.947746	0.050529	-0.074118	3.309582	1.000000	-0.000005	0.000045	-0.000085	-0.486508	-9.603034	176.795348
37742	2.155959	-0.062180	12.957778	0.032604	-0.049018	3.323240	1.000000	-0.000002	0.000045	-0.000077	-0.485628	-9.603429	176.789884
37743	2.178434	-0.073575	12.935633	0.007591	-0.036346	3.305247	1.000000	0.000001	0.000041	-0.000087	-0.486810	-9.604359	176.780974
37744	2.137714	-0.059361	12.939941	0.048314	-0.052833	3.302582	1.000000	-0.000005	0.000038	-0.000074	-0.486956	-9.607767	176.777032
37745	2.160093	-0.070872	12.917815	0.023296	-0.040160	3.284596	1.000000	-0.000002	0.000056	-0.000069	-0.488756	-9.606985	176.770157
37746	2.191172	-0.074857	12.954403	-0.000837	-0.035061	3.325888	1.000000	0.000004	0.000037	-0.000097	-0.487922	-9.608770	176.759495
37747	2.191167	-0.061915	12.922409	-0.006688	-0.047640	3.294234	1.000000	0.000004	0.000044	-0.000060	-0.489227	-9.609336	176.753758
37748	2.189150	-0.074020	12.954750	0.001408	-0.036126	3.325885	1.000000	0.000004	0.000033	-0.000067	-0.488630	-9.610105	176.747096
37749	2.205375	-0.063263	12.940936	-0.017175	-0.045950	3.314883	1.000000	0.000007	0.000040	-0.000070	-0.489397	-9.611133	176.740178
37750	2.198795	-0.028285	12.917309	-0.016850	-0.080607	3.290197	1.000000	0.000005	0.000051	-0.000071	-0.488692	-9.609648	176.731864
37751	2.196591	-0.040286	12.949681	-0.008531	-0.069519	3.321846	1.000000	0.000011	0.000040	-0.000061	-0.489252	-9.610712	176.725939
37752	2.212498	-0.029783	12.935925	-0.027266	-0.079458	3.310846	1.000000	-0.000017	0.000058	-0.000063	-0.493547	-9.609105	176.718148
37753	2.211264	-0.029399	12.936136	-0.026038	-0.080204	3.310844	1.000000	0.000023	0.000038	-0.000076	-0.492393	-9.610347	176.710525
37754	2.203638	-0.006890	12.944677	-0.018167	-0.103163	3.317803	1.000000	-0.000008	0.000053	-0.000056	-0.493877	-9.610683	176.706809
37755	2.175470	-0.036826	12.932326	0.009153	-0.075082	3.301174	1.000000	0.000005	0.000051	-0.000071	-0.494945	-9.610409	176.699758
37756	2.173049	-0.048970	12.964730	0.017235	-0.063709	3.332822	1.000000	-0.000001	0.000056	-0.000069	-0.495506	-9.608456	176.691417
37757	2.206106	-0.028177	12.937020	-0.021180	-0.082610	3.310837	1.000000	-0.000012	0.000042	-0.000072	-0.498417	-9.609219	176.684230
37758	2.188869	-0.025865	12.919000	-0.007014	-0.086095	3.290171	1.000000	-0.000002	0.000045	-0.000077	-0.500063	-9.610685	176.678966
37759	2.170594	-0.036025	12.933147	0.014036	-0.077766	3.301154	1.000000	-0.000008	0.000042	-0.000064	-0.502778	-9.611496	176.672777
37760	2.192123	-0.059963	12.943203	-0.004082	-0.053194	3.314866	1.000000	0.000001	0.000041	-0.000087	-0.503664	-9.611606	176.661409
37761	2.214666	-0.071292	12.921099	-0.029131	-0.040521	3.296933	1.000000	-0.000002	0.000045	-0.000077	-0.505398	-9.612086	176.653709
37762	2.206919	-0.049160	12.929652	-0.021333	-0.063513	3.303879	1.000000	-0.000014	0.000054	-0.000073	-0.507450	-9.612033	176.643664
37763	2.205655	-0.049041	12.929868	-0.020107	-0.064264	3.303877	1.000000	-0.000002	0.000045	-0.000077	-0.509188	-9.612516	176.635968
37764	2.233522	-0.094822	12.931629	-0.044507	-0.016651	3.310665	1.000000	0.000008	0.000051	-0.000062	-0.507288	-9.612019	176.628953
37765	2.219160	-0.050430	12.948536	-0.030376	-0.062402	3.324549	1.000000	-0.000001	0.000056	-0.000069	-0.509107	-9.611241	176.622107
37766	2.231873	-0.081733	12.899930	-0.049137	-0.029457	3.279022	1.000000	-0.000005	0.000049	-0.000066	-0.509134	-9.611366	176.613785
37767	2.216341	-0.049833	12.949021	-0.027868	-0.063400	3.324550	1.000000	0.000008	0.000066	-0.000085	-0.509515	-9.609467	176.605094
37768	2.192141	-0.025478	12.939399	-0.006979	-0.089191	3.310810	1.000000	-0.000017	0.000058	-0.000063	-0.512273	-9.610666	176.600701
37769	2.187734	-0.067091	12.904733	-0.005976	-0.047673	3.276259	1.000000	0.000017	0.000046	-0.000055	-0.512203	-9.610995	176.595466
37770	2.179939	-0.044768	12.913282	0.001699	-0.070315	3.283192	1.000000	-0.000014	0.000054	-0.000073	-0.512717	-9.610287	176.587360
37771	2.161202	-0.054901	12.927486	0.022761	-0.061992	3.294156	1.000000	0.000009	0.000069	-0.000066	-0.513430	-9.607974	176.580847
37772	2.153007	-0.032622	12.936096	0.030656	-0.084644	3.301083	1.000000	-0.000011	0.000061	-0.000076	-0.513480	-9.607427	176.572288
37773	2.158186	-0.054437	12.927992	0.025425	-0.062892	3.294147	1.000000	0.000001	0.000044	-0.000068	-0.514996	-9.607969	176.565588
37774	2.166547	-0.034320	12.954759	0.020742	-0.083370	3.321752	1.000000	-0.000005	0.000049	-0.000066	-0.516982	-9.609327	176.560661
37775	2.132041	-0.042410	12.950659	0.054490	-0.077775	3.312020	1.000000	-0.000005	0.000049	-0.000066	-0.519245	-9.609371	176.554155
37776	2.165207	-0.021383	12.922995	0.016013	-0.096497	3.290091	1.000000	0.000001	0.000041	-0.000087	-0.519688	-9.610171	176.546881
37777	2.153531	-0.053527	12.928772	0.030617	-0.065674	3.294122	1.000000	-0.000008	0.000042	-0.000063	-0.522402	-9.611011	176.540710
37778	2.184734	-0.057582	12.965420	0.006778	-0.060388	3.335499	1.000000	-0.000002	0.000034	-0.000084	-0.521337	-9.613811	176.533739
37779	2.151561	-0.053036	12.929102	0.033349	-0.066581	3.294111	1.000000	0.000001	0.000044	-0.000068	-0.522855	-9.614368	176.527048
37780	2.182584	-0.056958	12.965785	0.009226	-0.061555	3.335492	1.000000	-0.000002	0.000045	-0.000076	-0.523087	-9.614709	176.519141
37781	2.198562	-0.046128	12.952066	-0.009384	-0.071379	3.324535	1.000000	0.000011	0.000047	-0.000072	-0.523415	-9.614978	176.511932
37782	2.180284	-0.055992	12.966176	0.012043	-0.062600	3.335485	1.000000	0.000004	0.000040	-0.000078	-0.522265	-9.617399	176.505610
37783	2.196384	-0.045343	12.952438	-0.006568	-0.072424	3.324531	1.000000	-0.000008	0.000042	-0.000063	-0.524970	-9.618254	176.499442
37784	2.195181	-0.045118	12.952643	-0.005285	-0.073015	3.324529	1.000000	0.000002	0.000052	-0.000079	-0.525517	-9.618142	176.493235
37785	2.177694	-0.042535	12.934630	0.008605	-0.076481	3.303825	1.000000	0.000011	0.000058	-0.000065	-0.525936	-9.617161	176.486882
37786	2.199068	-0.066302	12.944780	-0.009081	-0.051563	3.317617	1.000000	-0.000008	0.000042	-0.000063	-0.526571	-9.618818	176.481717
37787	2.175267	-0.041911	12.935040	0.011284	-0.077529	3.303816	1.000000	0.000008	0.000047	-0.000081	-0.527098	-9.619064	176.473523
37788	2.174028	-0.041578	12.935250	0.011965	-0.078263	3.303811	1.000000	-0.000008	0.000049	-0.000075	-0.529627	-9.616710	176.459392
37789	2.172963	-0.041368	12.935429	0.013196	-0.079017	3.303806	1.000000	-0.000002	0.000034	-0.000084	-0.531262	-9.618497	176.450874
37790	2.154805	-0.051463	12.949505	0.033924	-0.070391	3.314742	1.000000	0.000001	0.000044	-0.000068	-0.531507	-9.617425	176.443717
37791	2.164285	-0.019009	12.944098	0.021780	-0.102719	3.310695	1.000000	-0.000018	0.000039	-0.000059	-0.535410	-9.618562	176.438080
37792	2.187127	-0.030312	12.922030	-0.003787	-0.089555	3.292856	1.000000	0.000013	0.000032	-0.000090	-0.533107	-9.618423	176.424908
37793	2.219107	-0.021640	12.926604	-0.035059	-0.096669	3.302625	1.000000	-0.000014	0.000064	-0.000066	-0.536405	-9.616663	176.418470
37794	2.167480	-0.040235	12.936353	0.018260	-0.081423	3.303785	1.000000	0.000004	0.000033	-0.000067	-0.535169	-9.617217	176.411186
37795	2.199637	-0.031657	12.940900	-0.013011	-0.088538	3.313557	1.000000	-0.000011	0.000049	-0.000083	-0.537832	-9.617180	176.402718
37796	2.187892	-0.063882	12.946686	0.001562	-0.057229	3.317596	1.000000	-0.000002	0.000045	-0.000076	-0.537390	-9.617397	176.400603
37797	2.213281	-0.033325	12.959582	-0.023220	-0.086855	3.334267	1.000000	-0.000005	0.000049	-0.000066	-0.539643	-9.617439	176.394120
37798	2.219715	-0.042498	12.919322	-0.035747	-0.076325	3.295734	1.000000	0.000005	0.000051	-0.000071	-0.538292	-9.616834	176.389179
37799	2.194692	-0.030617	12.941742	-0.008176	-0.090513	3.313547	1.000000	-0.000005	0.000045	-0.000085	-0.540201	-9.617304	176.380526
37800	2.206730	-0.074206	12.925323	-0.019995	-0.046111	3.299773	1.000000	0.000008	0.000051	-0.000062	-0.540460	-9.616772	176.370543
37801	2.198430	-0.051927	12.933922	-0.012283	-0.069371	3.306656	1.000000	-0.000007	0.000078	-0.000071	-0.542854	-9.613420	176.363451
37802	2.186161	-0.084031	12.939794	0.002404	-0.038218	3.310695	1.000000	0.000005	0.000059	-0.000082	-0.542178	-9.612636	176.355277
37803	2.187684	-0.041789	12.974910	0.003985	-0.081292	3.345176	1.000000	-0.000002	0.000037	-0.000065	-0.544136	-9.613979	176.348943
37804	2.194275	-0.051144	12.934630	-0.008499	-0.070815	3.306651	1.000000	-0.000011	0.000053	-0.000064	-0.544984	-9.613486	176.340430
37805	2.153020	-0.037438	12.938775	0.031703	-0.087704	3.303719	1.000000	-0.000001	0.000056	-0.000069	-0.546787	-9.612737	176.333626
37806	2.167633	-0.039232	12.957300	0.020280	-0.085568	3.324438	1.000000	-0.000001	0.000056	-0.000069	-0.547735	-9.611791	176.328896
37807	2.173081	-0.061151	12.949193	0.015013	-0.063814	3.317557	1.000000	-0.000015	0.000039	-0.000050	-0.551423	-9.612960	176.324264
37808	2.157063	-0.046207	12.898925	0.021540	-0.078760	3.265181	1.000000	0.000020	0.000046	-0.000095	-0.549114	-9.613034	176.312927
37809	2.186621	-0.062373	12.967907	0.004791	-0.062383	3.338278	1.000000	-0.000014	0.000064	-0.000066	-0.552406	-9.611277	176.306506
37810	2.162501	-0.038258	12.958161	0.024883	-0.088219	3.324413	1.000000	-0.000002	0.000045	-0.000076	-0.553678	-9.610709	176.297968
37811	2.168035	-0.059917	12.950045	0.019611	-0.066466	3.317538	1.000000	0.000001	0.000044	-0.000068	-0.555194	-9.611256	176.291318
37812	2.166899	-0.059589	12.950237	0.020335	-0.066911	3.317535	1.000000	0.000001	0.000044	-0.000068	-0.555467	-9.609560	176.278384
37813	2.176073	-0.026888	12.944894	0.008180	-0.099240	3.313484	1.000000	-0.000005	0.000056	-0.000077	-0.557481	-9.608763	176.270604
37814	2.181530	-0.048491	12.936796	0.002742	-0.076778	3.306620	1.000000	0.000008	0.000040	-0.000069	-0.555168	-9.608906	176.261053
37815	2.187032	-0.070205	12.928693	-0.002536	-0.055022	3.299753	1.000000	-0.000011	0.000053	-0.000064	-0.558165	-9.608435	176.254781
37816	2.185691	-0.070014	12.928921	-0.001497	-0.055400	3.299752	1.000000	0.000002	0.000052	-0.000079	-0.557815	-9.607253	176.244098
37817	2.184279	-0.069578	12.929162	-0.000280	-0.056156	3.299749	1.000000	0.000005	0.000059	-0.000082	-0.558633	-9.606161	176.235803
37818	2.176247	-0.047236	12.937691	0.006883	-0.079103	3.306604	1.000000	-0.000002	0.000045	-0.000076	-0.559086	-9.604192	176.219980
37819	2.192166	-0.036395	12.924043	-0.011780	-0.088915	3.295698	1.000000	0.000005	0.000051	-0.000070	-0.560152	-9.603921	176.213010
37820	2.172667	-0.058983	12.970268	0.016682	-0.068380	3.338239	1.000000	0.000005	0.000044	-0.000059	-0.559228	-9.604709	176.202597
37821	2.172571	-0.046074	12.938313	0.010610	-0.080873	3.306591	1.000000	0.000005	0.000051	-0.000070	-0.560292	-9.604439	176.195627
37822	2.171429	-0.045768	12.938505	0.011880	-0.081166	3.306588	1.000000	-0.000005	0.000038	-0.000073	-0.560384	-9.605838	176.186016
37823	2.170344	-0.045378	12.938689	0.013096	-0.081922	3.306582	1.000000	0.000011	0.000047	-0.000072	-0.560703	-9.606073	176.178861
37824	2.186419	-0.034448	12.925022	-0.005554	-0.091406	3.295685	1.000000	0.000001	0.000037	-0.000056	-0.561014	-9.607422	176.173776
37825	2.167957	-0.044889	12.939091	0.015547	-0.083110	3.306572	1.000000	-0.000020	0.000065	-0.000083	-0.564706	-9.605573	176.165391
37826	2.199862	-0.036281	12.943774	-0.015755	-0.090043	3.316427	1.000000	0.000004	0.000033	-0.000067	-0.565052	-9.607113	176.160447
37827	2.198781	-0.035864	12.943959	-0.014539	-0.090801	3.316423	1.000000	0.000005	0.000051	-0.000070	-0.566115	-9.606847	176.153486
37828	2.181567	-0.033635	12.925844	-0.000662	-0.093986	3.295668	1.000000	-0.000011	0.000042	-0.000072	-0.567903	-9.607922	176.145370
37829	2.180420	-0.033350	12.926038	0.000552	-0.094743	3.295662	1.000000	0.000008	0.000047	-0.000081	-0.568425	-9.608125	176.137234
37830	2.212286	-0.024587	12.930741	-0.030994	-0.101650	3.305528	1.000000	-0.000014	0.000053	-0.000073	-0.570688	-9.606246	176.130149
37831	2.200498	-0.056911	12.936521	-0.016394	-0.070841	3.309573	1.000000	0.000002	0.000055	-0.000060	-0.572298	-9.605512	176.124373
37832	2.176347	-0.032670	12.926726	0.003651	-0.096474	3.295649	1.000000	-0.000005	0.000052	-0.000096	-0.572665	-9.604000	176.109393
37833	2.197703	-0.056168	12.937000	-0.014212	-0.072047	3.309569	1.000000	0.000011	0.000058	-0.000065	-0.573087	-9.602969	176.103105
37834	2.197675	-0.043214	12.905040	-0.020742	-0.083986	3.277928	1.000000	-0.000002	0.000034	-0.000084	-0.572445	-9.602720	176.096185
37835	2.202252	-0.077427	12.929088	-0.018714	-0.050510	3.302735	1.000000	-0.000005	0.000049	-0.000066	-0.574699	-9.602734	176.089753
37836	2.178189	-0.053226	12.919268	0.001728	-0.076288	3.288801	1.000000	0.000002	0.000052	-0.000079	-0.575197	-9.603076	176.079741
37837	2.175961	-0.065345	12.951612	0.010272	-0.065334	3.320437	1.000000	0.000004	0.000033	-0.000067	-0.576414	-9.604893	176.073266
37838	2.191973	-0.054485	12.937979	-0.008007	-0.074686	3.309560	1.000000	-0.000001	0.000055	-0.000069	-0.576083	-9.605758	176.065406
37839	2.174676	-0.052405	12.919863	0.005764	-0.078108	3.288789	1.000000	-0.000011	0.000046	-0.000053	-0.579328	-9.606111	176.060483
37840	2.189690	-0.053994	12.938368	-0.005298	-0.075956	3.309554	1.000000	0.000020	0.000031	-0.000073	-0.577420	-9.609313	176.052272
37841	2.188285	-0.053512	12.938607	-0.004084	-0.076717	3.309550	1.000000	-0.000007	0.000078	-0.000071	-0.579826	-9.605956	176.045237
37842	2.203844	-0.042810	12.925058	-0.022959	-0.086120	3.298680	1.000000	-0.000008	0.000045	-0.000093	-0.580213	-9.605487	176.029187
37843	2.201482	-0.055139	12.957424	-0.014393	-0.075177	3.330316	1.000000	-0.000005	0.000048	-0.000066	-0.582469	-9.605515	176.022764
37844	2.184182	-0.053114	12.939302	-0.000912	-0.077844	3.309544	1.000000	-0.000014	0.000053	-0.000073	-0.582419	-9.603602	176.005203
37845	2.176058	-0.031128	12.947811	0.006809	-0.101126	3.316354	1.000000	-0.000005	0.000048	-0.000066	-0.584670	-9.603626	175.998781
37846	2.181588	-0.052783	12.939741	0.001630	-0.078777	3.309538	1.000000	0.000002	0.000051	-0.000079	-0.583293	-9.603688	175.986776
37847	2.180203	-0.052504	12.939976	0.002841	-0.079536	3.309533	1.000000	-0.000008	0.000056	-0.000086	-0.585493	-9.602850	175.978046
37848	2.195889	-0.041949	12.926415	-0.015732	-0.088928	3.298672	1.000000	-0.000017	0.000057	-0.000063	-0.587381	-9.602270	175.975118
37849	2.144278	-0.060896	12.935900	0.037838	-0.074261	3.299604	1.000000	0.000011	0.000047	-0.000072	-0.587692	-9.602509	175.967997
37850	2.174915	-0.064423	12.972829	0.014209	-0.069311	3.341160	1.000000	-0.000008	0.000056	-0.000086	-0.588056	-9.602549	175.962159
37851	2.158903	-0.049756	12.922518	0.020580	-0.084419	3.288735	1.000000	-0.000002	0.000037	-0.000065	-0.590000	-9.603881	175.955882
37852	2.189809	-0.053399	12.959409	-0.003278	-0.079524	3.330298	1.000000	-0.000002	0.000044	-0.000076	-0.590157	-9.604259	175.947431
37853	2.186478	-0.095036	12.924662	-0.002570	-0.037890	3.295904	1.000000	-0.000002	0.000037	-0.000065	-0.592101	-9.605591	175.941157
37854	2.171734	-0.050936	12.941406	0.011527	-0.083262	3.309505	1.000000	-0.000002	0.000044	-0.000076	-0.591928	-9.605283	175.934513
37855	2.186549	-0.052768	12.959962	0.000212	-0.081372	3.330287	1.000000	-0.000011	0.000045	-0.000053	-0.595159	-9.605644	175.929604
37856	2.186473	-0.040087	12.928017	-0.006091	-0.093400	3.298649	1.000000	0.000002	0.000051	-0.000079	-0.594586	-9.604651	175.924012
37857	2.152389	-0.048167	12.923611	0.027559	-0.087763	3.288700	1.000000	0.000017	0.000024	-0.000070	-0.594293	-9.607485	175.917185
37858	2.207316	-0.062879	12.938442	-0.022972	-0.069408	3.312637	1.000000	-0.000001	0.000055	-0.000069	-0.594655	-9.605492	175.911589
37859	2.167142	-0.036746	12.910222	0.009804	-0.097978	3.277844	1.000000	0.000005	0.000051	-0.000070	-0.595703	-9.605228	175.904669
37860	2.173778	-0.028984	12.969242	0.012389	-0.106549	3.337061	1.000000	-0.000005	0.000048	-0.000066	-0.596260	-9.604958	175.903289
37861	2.187369	-0.060083	12.920755	-0.006860	-0.073946	3.291838	1.000000	-0.000001	0.000055	-0.000069	-0.598049	-9.604193	175.896558
37862	2.195112	-0.039906	12.947632	-0.011724	-0.094042	3.319422	1.000000	-0.000008	0.000049	-0.000074	-0.598093	-9.603632	175.888240
37863	2.176872	-0.050173	12.961601	0.009406	-0.085758	3.330256	1.000000	0.000004	0.000037	-0.000096	-0.598687	-9.605064	175.878311
37864	2.199962	-0.061083	12.939703	-0.016138	-0.072631	3.312629	1.000000	0.000001	0.000037	-0.000056	-0.598724	-9.604957	175.875651
37865	2.192954	-0.026552	12.916045	-0.015807	-0.107592	3.287776	1.000000	-0.000014	0.000064	-0.000065	-0.601997	-9.603185	175.869297
37866	2.197411	-0.060860	12.940138	-0.013313	-0.073825	3.312626	1.000000	-0.000002	0.000034	-0.000083	-0.602019	-9.606625	175.860803
37867	2.190605	-0.026083	12.916444	-0.012984	-0.108784	3.287769	1.000000	0.000002	0.000051	-0.000079	-0.603257	-9.606330	175.852905
37868	2.212179	-0.049627	12.926769	-0.030644	-0.084244	3.301790	1.000000	-0.000005	0.000048	-0.000066	-0.604813	-9.607081	175.845528
37869	2.169851	-0.048626	12.962784	0.016954	-0.089444	3.330223	1.000000	0.000004	0.000040	-0.000078	-0.605753	-9.608086	175.837775
37870	2.209816	-0.048951	12.927175	-0.028329	-0.085125	3.301789	1.000000	-0.000001	0.000055	-0.000069	-0.604749	-9.606678	175.830074
37871	2.191359	-0.059152	12.941172	-0.007193	-0.076842	3.312613	1.000000	0.000008	0.000047	-0.000080	-0.605239	-9.606887	175.821996
37872	2.184289	-0.024538	12.917517	-0.006696	-0.111376	3.287752	1.000000	-0.000017	0.000057	-0.000063	-0.607037	-9.606577	175.814650
37873	2.189794	-0.046550	12.909485	-0.012030	-0.089607	3.280975	1.000000	-0.000014	0.000053	-0.000073	-0.610205	-9.606082	175.807458
37874	2.181763	-0.024474	12.917944	-0.004369	-0.112168	3.287746	1.000000	0.000004	0.000033	-0.000066	-0.608211	-9.607300	175.800080
37875	2.186422	-0.058480	12.942010	-0.002264	-0.078732	3.312604	1.000000	0.000005	0.000051	-0.000070	-0.609240	-9.607044	175.793179
37876	2.195256	-0.025608	12.936751	-0.014616	-0.111007	3.308548	1.000000	-0.000001	0.000055	-0.000069	-0.610853	-9.605494	175.787929
37877	2.177887	-0.023449	12.918600	-0.000921	-0.114388	3.287728	1.000000	-0.000001	0.000055	-0.000069	-0.612630	-9.604736	175.781220
37878	2.198289	-0.059463	12.961097	-0.011312	-0.078090	3.333408	1.000000	0.000001	0.000044	-0.000067	-0.613028	-9.605131	175.774023
37879	2.182236	-0.044640	12.910771	-0.005070	-0.093132	3.280955	1.000000	0.000005	0.000058	-0.000081	-0.613815	-9.604047	175.765817
37880	2.196951	-0.046146	12.929378	-0.016086	-0.090963	3.301771	1.000000	0.000001	0.000037	-0.000056	-0.614095	-9.606430	175.762323
37881	2.171549	-0.034832	12.951619	0.011608	-0.105209	3.319337	1.000000	-0.000020	0.000065	-0.000082	-0.617760	-9.604612	175.754014
37882	2.168130	-0.076674	12.916920	0.012330	-0.063175	3.284998	1.000000	-0.000002	0.000044	-0.000076	-0.617814	-9.605623	175.743828
37883	2.168906	-0.034438	12.952063	0.014165	-0.106373	3.319325	1.000000	0.000002	0.000051	-0.000079	-0.619045	-9.605342	175.735955
37884	2.175703	-0.043503	12.911878	0.001182	-0.095885	3.280936	1.000000	-0.000005	0.000056	-0.000077	-0.619424	-9.603693	175.724800
37885	2.173301	-0.055804	12.944231	0.009857	-0.084992	3.312561	1.000000	-0.000002	0.000037	-0.000065	-0.621346	-9.605031	175.718572
37886	2.189251	-0.044906	12.930689	-0.008939	-0.094485	3.301753	1.000000	-0.000001	0.000055	-0.000068	-0.621801	-9.603871	175.716157
37887	2.170807	-0.055503	12.944651	0.012210	-0.086207	3.312552	1.000000	-0.000018	0.000046	-0.000070	-0.625410	-9.604177	175.709314
37888	2.162569	-0.033501	12.953125	0.019986	-0.108776	3.319298	1.000000	0.000002	0.000051	-0.000079	-0.623454	-9.603713	175.700321
37889	2.208380	-0.068100	12.941481	-0.024326	-0.070907	3.315827	1.000000	0.000005	0.000044	-0.000059	-0.624727	-9.604288	175.694760
37890	2.142994	-0.043232	12.967270	0.042058	-0.100681	3.330086	1.000000	0.000011	0.000050	-0.000102	-0.621945	-9.602728	175.679381
37891	2.172999	-0.075856	12.937202	0.010207	-0.065418	3.305792	1.000000	-0.000002	0.000037	-0.000065	-0.623857	-9.604062	175.673158
37892	2.166178	-0.041167	12.913487	0.010702	-0.100174	3.280899	1.000000	0.000001	0.000044	-0.000067	-0.624465	-9.605543	175.660485
37893	2.189815	-0.022779	12.958785	-0.006448	-0.118248	3.329302	1.000000	-0.000008	0.000049	-0.000074	-0.626878	-9.605556	175.653136
37894	2.186719	-0.064457	12.924049	-0.005664	-0.076335	3.294985	1.000000	0.000001	0.000044	-0.000067	-0.627303	-9.607051	175.648302
37895	2.179706	-0.029691	12.900365	-0.005395	-0.111264	3.270088	1.000000	0.000002	0.000051	-0.000079	-0.628527	-9.606774	175.640447
37896	2.169112	-0.032537	12.973116	0.017550	-0.110673	3.340080	1.000000	0.000001	0.000037	-0.000056	-0.627505	-9.608739	175.633633
37897	2.176129	-0.041506	12.932915	0.004696	-0.100540	3.301710	1.000000	0.000005	0.000058	-0.000081	-0.628280	-9.607671	175.625453
37898	2.190747	-0.043123	12.951559	-0.006693	-0.098250	3.322549	1.000000	-0.000014	0.000042	-0.000080	-0.629403	-9.607656	175.615688
37899	2.173679	-0.041187	12.933328	0.006960	-0.101612	3.301701	1.000000	-0.000002	0.000048	-0.000057	-0.631417	-9.607738	175.610324
37900	2.196690	-0.052262	12.911546	-0.018409	-0.088573	3.284183	1.000000	-0.000011	0.000042	-0.000071	-0.632972	-9.608233	175.597888
37901	2.194452	-0.064664	12.943868	-0.009689	-0.077702	3.315808	1.000000	-0.000002	0.000037	-0.000065	-0.634881	-9.609578	175.591680
37902	2.187513	-0.029929	12.920166	-0.009776	-0.112449	3.290903	1.000000	0.000005	0.000051	-0.000070	-0.635238	-9.607761	175.587766
37903	2.185026	-0.041943	12.952530	-0.001052	-0.101580	3.322525	1.000000	0.000011	0.000047	-0.000072	-0.635516	-9.608011	175.580729
37904	2.200824	-0.031033	12.939042	-0.019613	-0.110891	3.311744	1.000000	-0.000017	0.000057	-0.000062	-0.637022	-9.607692	175.578138
37905	2.190677	-0.050967	12.912573	-0.012542	-0.091714	3.284169	1.000000	0.000005	0.000044	-0.000059	-0.638289	-9.608272	175.572601
37906	2.189548	-0.050634	12.912766	-0.011426	-0.092388	3.284165	1.000000	-0.000002	0.000044	-0.000076	-0.639604	-9.608367	175.566629
37907	2.220066	-0.053991	12.949863	-0.035082	-0.087966	3.325866	1.000000	0.000002	0.000055	-0.000060	-0.641177	-9.607653	175.560958
37908	2.178609	-0.040652	12.953615	0.004894	-0.104710	3.322499	1.000000	0.000002	0.000051	-0.000079	-0.641981	-9.606502	175.553589
37909	2.201575	-0.051472	12.931868	-0.020433	-0.091972	3.305007	1.000000	-0.000002	0.000044	-0.000076	-0.643648	-9.607018	175.546088
37910	2.176097	-0.040019	12.954039	0.007645	-0.105717	3.322490	1.000000	0.000002	0.000055	-0.000060	-0.642809	-9.607613	175.538317
37911	2.224792	-0.020016	12.945327	-0.043496	-0.121955	3.321803	1.000000	0.000005	0.000058	-0.000081	-0.643585	-9.606546	175.530168
37912	2.157517	-0.037470	12.936045	0.022253	-0.109559	3.301620	1.000000	-0.000005	0.000037	-0.000073	-0.644585	-9.606764	175.525250
37913	2.196387	-0.050093	12.932755	-0.015502	-0.094234	3.304998	1.000000	0.000005	0.000058	-0.000081	-0.645362	-9.605694	175.517107
37914	2.187983	-0.027844	12.941226	-0.007700	-0.117418	3.311700	1.000000	-0.000002	0.000044	-0.000076	-0.646523	-9.606281	175.507405
37915	2.193840	-0.049364	12.933190	-0.013073	-0.095647	3.304990	1.000000	0.000002	0.000051	-0.000078	-0.647746	-9.606007	175.499592
37916	2.199564	-0.070895	12.925179	-0.018088	-0.073422	3.298287	1.000000	-0.000001	0.000055	-0.000068	-0.647379	-9.606643	175.499528
37917	2.175370	-0.046850	12.915176	0.002110	-0.099298	3.284119	1.000000	0.000008	0.000040	-0.000069	-0.648100	-9.607698	175.492846
37918	2.214255	-0.059440	12.911908	-0.035982	-0.083839	3.287523	1.000000	-0.000008	0.000056	-0.000085	-0.649734	-9.605325	175.493775
37919	2.164444	-0.037024	12.956000	0.018331	-0.111599	3.322431	1.000000	-0.000005	0.000048	-0.000066	-0.651950	-9.605379	175.487468
37920	2.187401	-0.047869	12.934286	-0.007144	-0.098283	3.304975	1.000000	0.000002	0.000051	-0.000078	-0.650643	-9.604328	175.484197
37921	2.186323	-0.047474	12.934470	-0.005940	-0.099046	3.304970	1.000000	0.000004	0.000033	-0.000066	-0.651804	-9.606173	175.477850
37922	2.183928	-0.059719	12.966811	0.002887	-0.087655	3.336594	1.000000	-0.000008	0.000056	-0.000085	-0.651521	-9.605476	175.463231
37923	2.159559	-0.035776	12.956819	0.023087	-0.113524	3.322407	1.000000	0.000005	0.000051	-0.000070	-0.652540	-9.605235	175.456421
37924	2.182557	-0.046366	12.935110	-0.002668	-0.100224	3.304962	1.000000	0.000011	0.000047	-0.000072	-0.650460	-9.603588	175.446352
37925	2.181454	-0.045793	12.935298	-0.001466	-0.100986	3.304957	1.000000	0.000011	0.000039	-0.000060	-0.650977	-9.604663	175.440673
37926	2.180234	-0.045411	12.935505	-0.000269	-0.101438	3.304953	1.000000	-0.000004	0.000056	-0.000077	-0.651569	-9.603728	175.436312
37927	2.178855	-0.045131	12.935739	0.000933	-0.102200	3.304947	1.000000	-0.000001	0.000052	-0.000087	-0.652974	-9.603423	175.427535
37928	2.177721	-0.044821	12.935931	0.002218	-0.102718	3.304943	1.000000	0.000001	0.000037	-0.000056	-0.653573	-9.605074	175.422026
37929	2.177768	-0.031907	12.903991	-0.004165	-0.115078	3.273313	1.000000	0.000005	0.000058	-0.000081	-0.654341	-9.604006	175.413916
37930	2.190902	-0.045839	12.954860	-0.007721	-0.101252	3.325815	1.000000	-0.000001	0.000055	-0.000068	-0.654190	-9.603329	175.404912
37931	2.198081	-0.054983	12.914691	-0.020707	-0.091074	3.287507	1.000000	-0.000008	0.000041	-0.000063	-0.656837	-9.604177	175.398949
37932	2.148358	-0.032737	12.958688	0.033678	-0.118762	3.322338	1.000000	-0.000008	0.000049	-0.000074	-0.658874	-9.604280	175.393639
37933	2.194471	-0.067196	12.947236	-0.010683	-0.080928	3.319124	1.000000	0.000002	0.000044	-0.000067	-0.660334	-9.604833	175.387175
37934	2.194773	-0.024921	12.982390	-0.008678	-0.123655	3.353358	1.000000	0.000002	0.000051	-0.000078	-0.659109	-9.604319	175.373461
37935	2.178937	-0.010502	12.931974	-0.002696	-0.138567	3.300841	1.000000	-0.000018	0.000046	-0.000070	-0.662698	-9.604643	175.366702
37936	2.174723	-0.064733	12.929415	0.005379	-0.085010	3.298229	1.000000	0.000009	0.000065	-0.000084	-0.662053	-9.603076	175.366939
37937	2.190596	-0.053462	12.915969	-0.013401	-0.094808	3.287490	1.000000	0.000004	0.000033	-0.000066	-0.663206	-9.604923	175.360623
37938	2.181002	-0.043874	12.956537	0.001763	-0.106398	3.325776	1.000000	-0.000008	0.000056	-0.000085	-0.664902	-9.602975	175.353059
37939	2.188219	-0.053030	12.916374	-0.011254	-0.096210	3.287482	1.000000	-0.000005	0.000041	-0.000054	-0.667358	-9.603853	175.348104
37940	2.179972	-0.031132	12.924782	-0.003481	-0.119172	3.294144	1.000000	-0.000011	0.000042	-0.000071	-0.668711	-9.604377	175.342907
37941	2.184783	-0.065325	12.948884	-0.001278	-0.085817	3.319097	1.000000	0.000002	0.000044	-0.000067	-0.670171	-9.604929	175.336462
37942	2.200635	-0.054237	12.935450	-0.019773	-0.095140	3.308370	1.000000	-0.000001	0.000055	-0.000068	-0.669721	-9.605246	175.333993
37943	2.180861	-0.077217	12.981476	0.009034	-0.075290	3.350712	1.000000	0.000005	0.000051	-0.000070	-0.670736	-9.605008	175.327228
37944	2.197878	-0.053800	12.935920	-0.017114	-0.096494	3.308364	1.000000	-0.000024	0.000058	-0.000079	-0.673955	-9.605065	175.320578
37945	2.172064	-0.042612	12.958043	0.010693	-0.110762	3.325736	1.000000	0.000011	0.000057	-0.000064	-0.674335	-9.604065	175.314481
37946	2.172013	-0.029486	12.926126	0.004472	-0.122596	3.294112	1.000000	0.000011	0.000047	-0.000071	-0.672286	-9.605030	175.308456
37947	2.186584	-0.030751	12.944841	-0.006682	-0.120821	3.315007	1.000000	-0.000001	0.000052	-0.000087	-0.673688	-9.604744	175.299725
37948	2.170721	-0.016113	12.894418	-0.000755	-0.135263	3.262480	1.000000	0.000002	0.000051	-0.000078	-0.672965	-9.604349	175.291661
37949	2.158305	-0.060924	12.932184	0.021448	-0.092879	3.298159	1.000000	0.000002	0.000044	-0.000067	-0.674418	-9.604915	175.285230
37950	2.181326	-0.071747	12.910549	-0.003892	-0.079647	3.280794	1.000000	-0.000011	0.000060	-0.000075	-0.674908	-9.603792	175.280940
37951	2.148405	-0.038750	12.940852	0.030552	-0.116450	3.304793	1.000000	-0.000002	0.000044	-0.000076	-0.676552	-9.604331	175.273526
37952	2.186066	-0.063685	12.969856	0.000328	-0.089157	3.339961	1.000000	0.000002	0.000051	-0.000078	-0.675800	-9.603462	175.263913
37953	2.161731	-0.069180	12.892679	0.011946	-0.084018	3.259873	1.000000	-0.000002	0.000044	-0.000076	-0.677442	-9.604001	175.256502
37954	2.194729	-0.017935	12.932729	-0.018139	-0.133673	3.304265	1.000000	-0.000008	0.000056	-0.000085	-0.678833	-9.603740	175.251370
37955	2.156614	-0.093895	12.957386	0.029784	-0.062251	3.323099	1.000000	-0.000005	0.000041	-0.000054	-0.681280	-9.604635	175.246444
37956	2.198336	-0.051948	12.957051	-0.014944	-0.100675	3.329238	1.000000	-0.000002	0.000044	-0.000076	-0.681128	-9.603973	175.242974
37957	2.197297	-0.051663	12.957228	-0.013741	-0.101441	3.329233	1.000000	0.000001	0.000037	-0.000056	-0.682825	-9.605361	175.237871
37958	2.214722	-0.028118	12.911634	-0.040090	-0.122628	3.286909	1.000000	-0.000008	0.000041	-0.000063	-0.684631	-9.606594	175.233932
37959	2.194092	-0.093304	12.922601	-0.012172	-0.060240	3.295042	1.000000	-0.000005	0.000030	-0.000062	-0.686965	-9.608752	175.228170
37960	2.228731	-0.029400	12.930465	-0.049954	-0.121134	3.307826	1.000000	0.000008	0.000040	-0.000069	-0.685407	-9.609898	175.224698
37961	2.194607	-0.038299	12.925768	-0.016424	-0.115382	3.297601	1.000000	-0.000014	0.000053	-0.000072	-0.688543	-9.609448	175.217673
37962	2.193368	-0.038134	12.925979	-0.014960	-0.115594	3.297601	1.000000	0.000005	0.000043	-0.000059	-0.687252	-9.610952	175.216843
37963	2.199316	-0.059727	12.917990	-0.020404	-0.093820	3.290969	1.000000	-0.000011	0.000060	-0.000075	-0.689942	-9.609712	175.209498
37964	2.207736	-0.026831	12.912833	-0.032627	-0.125553	3.286902	1.000000	0.000005	0.000051	-0.000070	-0.688272	-9.608961	175.202173
37965	2.189158	-0.037300	12.926695	-0.011427	-0.117276	3.297589	1.000000	-0.000001	0.000062	-0.000079	-0.689769	-9.607422	175.194326
37966	2.177957	-0.069650	12.932325	0.003182	-0.086268	3.301653	1.000000	-0.000002	0.000044	-0.000076	-0.690534	-9.608110	175.190804
37967	2.169389	-0.047571	12.940753	0.011033	-0.109571	3.308268	1.000000	-0.000001	0.000055	-0.000068	-0.692281	-9.607394	175.184272
37968	2.184004	-0.049037	12.959486	-0.000165	-0.107433	3.329193	1.000000	-0.000005	0.000037	-0.000073	-0.692656	-9.608263	175.173438
37969	2.174459	-0.068910	12.932917	0.006703	-0.088170	3.301639	1.000000	-0.000002	0.000044	-0.000076	-0.694288	-9.608810	175.166064
37970	2.190454	-0.057719	12.919505	-0.012012	-0.097799	3.290950	1.000000	0.000005	0.000043	-0.000059	-0.694725	-9.609689	175.166461
37971	2.172010	-0.068366	12.933332	0.009192	-0.089522	3.301628	1.000000	-0.000011	0.000060	-0.000075	-0.697413	-9.608453	175.159136
37972	2.187758	-0.057221	12.919964	-0.009500	-0.098885	3.290944	1.000000	0.000005	0.000047	-0.000088	-0.696047	-9.609023	175.148088
37973	2.244115	0.126554	12.919954	-0.080698	-0.277586	3.298137	1.000000	-0.000002	0.000040	-0.000046	-0.698290	-9.609952	175.144186
37974	2.263616	0.047806	12.927669	-0.091537	-0.199046	3.309922	1.000000	-0.000063	0.000047	0.000035	-0.708365	-9.611038	175.147615
37975	2.198621	-0.473268	12.870732	0.007853	0.313844	3.249284	1.000000	-0.000050	0.000049	0.000039	-0.717761	-9.610871	175.153550
37976	2.255828	-0.433310	12.889064	-0.049085	0.277855	3.276425	1.000000	0.000040	0.000051	-0.000006	-0.714394	-9.609591	175.148661
37977	2.184133	0.181491	12.940519	-0.023588	-0.341205	3.307657	1.000000	0.000062	0.000063	-0.000017	-0.709840	-9.607893	175.148026
37978	2.019466	0.178214	12.950885	0.140222	-0.351359	3.290454	1.000000	-0.000009	0.000034	-0.000003	-0.711275	-9.609799	175.137070
37979	2.265487	-0.302559	12.922182	-0.064392	0.147828	3.309079	1.000000	-0.000027	0.000050	-0.000028	-0.716758	-9.609570	175.135214
37980	2.087562	-0.249866	12.916813	0.105199	0.080857	3.273443	1.000000	0.000053	0.000046	-0.000087	-0.710353	-9.610879	175.127457
37981	2.274708	0.115536	12.918375	-0.109723	-0.266284	3.301774	1.000000	0.000056	0.000024	-0.000142	-0.704133	-9.613879	175.112388
37982	2.284184	0.220962	13.015228	-0.112284	-0.371762	3.397599	1.000000	0.000009	0.000065	-0.000132	-0.701286	-9.611128	175.097288
37983	2.171766	-0.078586	12.986504	0.019338	-0.082327	3.354122	1.000000	-0.000017	0.000049	-0.000099	-0.704236	-9.611112	175.087164
37984	2.242651	-0.152633	12.886459	-0.060640	0.000508	3.268212	1.000000	0.000022	0.000064	-0.000146	-0.699741	-9.608858	175.070032
37985	2.106515	0.157109	12.964370	0.058379	-0.320863	3.318596	1.000000	0.000031	0.000063	-0.000169	-0.695764	-9.607411	175.051782
37986	2.320225	0.266444	13.015924	-0.152925	-0.412321	3.403791	1.000000	0.000006	0.000073	-0.000103	-0.695166	-9.605813	175.044100
37987	2.111718	-0.036537	12.908004	0.060075	-0.126296	3.266215	1.000000	-0.000061	0.000076	-0.000107	-0.702994	-9.602783	175.033107
37988	2.192084	-0.078954	12.802672	-0.033043	-0.075098	3.176275	1.000000	-0.000014	0.000067	-0.000094	-0.703744	-9.601237	175.023203
37989	2.086783	0.070298	12.968161	0.083680	-0.237644	3.320070	1.000000	-0.000007	0.000085	-0.000081	-0.705853	-9.597138	175.015132
37990	2.124987	0.057455	12.965306	0.045949	-0.222207	3.323771	1.000000	-0.000039	0.000073	-0.000047	-0.711459	-9.594261	175.015718
37991	2.057806	-0.147218	12.938905	0.125122	-0.024967	3.289039	1.000000	-0.000046	0.000063	-0.000023	-0.719190	-9.592559	175.014431
37992	1.990690	-0.166499	12.929083	0.191269	-0.012211	3.268407	1.000000	-0.000024	0.000043	-0.000057	-0.721887	-9.594669	175.018687
37993	2.094252	-0.173074	12.968244	0.096666	0.001425	3.324354	1.000000	-0.000001	0.000044	-0.000075	-0.723510	-9.595239	175.011367
37994	2.016069	-0.051430	13.012544	0.170517	-0.127582	3.353487	1.000000	0.000004	0.000029	-0.000036	-0.723007	-9.598648	175.002443
37995	2.150963	-0.132433	12.986752	0.041470	-0.035288	3.351542	1.000000	-0.000018	0.000027	-0.000066	-0.726697	-9.601112	174.996269
37996	2.076368	-0.170783	12.950018	0.112641	-0.002368	3.303362	1.000000	0.000026	0.000012	-0.000051	-0.723448	-9.604263	174.993132
37997	2.177156	-0.087368	12.967953	0.010305	-0.076928	3.336816	1.000000	0.000036	0.000000	-0.000081	-0.720701	-9.609885	174.985190
37998	2.245950	0.028812	13.015826	-0.058681	-0.187158	3.394067	1.000000	0.000033	0.000015	-0.000064	-0.716922	-9.613383	174.981795
37999	2.214581	0.003429	12.911619	-0.041833	-0.161783	3.286411	1.000000	0.000004	0.000007	-0.000051	-0.718417	-9.618171	174.977377
38000	2.319186	-0.031769	12.883629	-0.145329	-0.116846	3.276726	1.000000	0.000020	0.000031	-0.000072	-0.716557	-9.619910	174.974902
38001	2.248340	0.068645	12.919703	-0.078418	-0.223771	3.299225	1.000000	0.000018	0.000038	-0.000091	-0.715674	-9.621146	174.965750
38002	2.307270	0.122173	12.905935	-0.143149	-0.271195	3.294850	1.000000	0.000004	0.000018	-0.000044	-0.715117	-9.623408	174.954743
38003	2.244310	0.014716	12.917187	-0.069622	-0.170658	3.296732	1.000000	-0.000027	0.000061	-0.000069	-0.719728	-9.622002	174.948170
38004	2.259938	0.025267	12.903895	-0.088619	-0.180068	3.286098	1.000000	-0.000024	0.000054	-0.000049	-0.722709	-9.620524	174.946725
38005	2.208481	0.004621	12.912663	-0.035107	-0.165232	3.286387	1.000000	-0.000027	0.000061	-0.000069	-0.727319	-9.619117	174.940158
38006	2.189787	-0.006703	12.926479	-0.013851	-0.156712	3.297016	1.000000	-0.000027	0.000061	-0.000069	-0.730816	-9.617662	174.937949
38007	2.209329	-0.085079	12.934285	-0.024936	-0.078339	3.308949	1.000000	-0.000040	0.000048	-0.000080	-0.736688	-9.617798	174.930059
38008	2.157201	-0.147853	12.908023	0.027136	-0.020538	3.275142	1.000000	-0.000030	0.000054	-0.000066	-0.740386	-9.615772	174.923118
38009	2.178989	-0.171423	12.918659	0.009396	0.003706	3.289565	1.000000	-0.000014	0.000056	-0.000102	-0.742880	-9.614980	174.912745
38010	2.161586	-0.140265	12.967359	0.031785	-0.030210	3.334274	1.000000	-0.000002	0.000033	-0.000083	-0.742424	-9.616668	174.906876
38011	2.191342	-0.185198	12.969730	0.007355	0.016574	3.342153	1.000000	-0.000014	0.000038	-0.000098	-0.745046	-9.617960	174.896969
38012	2.208000	-0.203228	12.889269	-0.020394	0.038414	3.265842	1.000000	0.000008	0.000043	-0.000098	-0.742816	-9.618704	174.886859
38013	2.242060	-0.138551	12.897355	-0.058114	-0.023060	3.278679	1.000000	0.000024	0.000034	-0.000093	-0.741175	-9.620429	174.877562
38014	2.282168	-0.107978	12.929393	-0.094592	-0.050169	3.316581	1.000000	0.000027	0.000045	-0.000077	-0.737952	-9.621342	174.871873
38015	2.283001	-0.052348	12.932472	-0.100031	-0.105068	3.319053	1.000000	0.000034	0.000059	-0.000082	-0.735359	-9.620239	174.863772
38016	2.283101	-0.038667	12.900569	-0.106607	-0.116878	3.287454	1.000000	0.000033	0.000041	-0.000030	-0.731837	-9.621085	174.865850
38017	2.216753	-0.014632	12.925634	-0.039694	-0.147111	3.300779	1.000000	0.000018	0.000071	-0.000069	-0.731302	-9.618525	174.859282
38018	2.248698	0.037441	12.965959	-0.069607	-0.196793	3.345222	1.000000	0.000024	0.000056	-0.000030	-0.729510	-9.617359	174.857737
38019	2.214088	0.028469	12.961180	-0.036140	-0.190973	3.334838	1.000000	-0.000004	0.000081	-0.000043	-0.732034	-9.613668	174.854188
38020	2.146443	0.009954	12.951337	0.029546	-0.178102	3.314074	1.000000	0.000012	0.000072	-0.000038	-0.730870	-9.610585	174.853855
38021	2.154884	0.013574	12.879202	0.008385	-0.179298	3.244316	1.000000	-0.000007	0.000070	-0.000059	-0.733462	-9.608135	174.848481
38022	2.069634	0.013245	12.949914	0.103054	-0.188513	3.299814	1.000000	-0.000004	0.000070	-0.000050	-0.733847	-9.604903	174.849320
38023	2.082961	-0.030186	12.933839	0.090822	-0.144185	3.286732	1.000000	-0.000011	0.000060	-0.000075	-0.736506	-9.603694	174.842121
38024	2.097430	-0.031652	12.952659	0.079847	-0.141911	3.307720	1.000000	-0.000005	0.000037	-0.000073	-0.735937	-9.604955	174.839713
38025	2.121031	-0.042383	12.931143	0.054281	-0.129174	3.290571	1.000000	-0.000020	0.000042	-0.000096	-0.739291	-9.605759	174.830023
38026	2.127684	-0.063906	12.923114	0.048797	-0.107064	3.284036	1.000000	0.000005	0.000025	-0.000103	-0.738177	-9.608586	174.818297
38027	2.190970	-0.057357	12.965633	-0.006677	-0.109555	3.336428	1.000000	-0.000020	0.000049	-0.000108	-0.741281	-9.608576	174.807308
38028	2.197451	-0.078786	12.957641	-0.012008	-0.087558	3.329902	1.000000	0.000008	0.000032	-0.000105	-0.740152	-9.611242	174.805570
38029	2.188908	-0.056472	12.965985	-0.004082	-0.110871	3.336418	1.000000	0.000002	0.000047	-0.000096	-0.740937	-9.611471	174.795878
38030	2.228078	-0.068399	12.963140	-0.041949	-0.095361	3.340303	1.000000	-0.000005	0.000044	-0.000084	-0.741242	-9.611518	174.784341
38031	2.196256	-0.023124	12.961029	-0.015095	-0.143654	3.332330	1.000000	-0.000002	0.000037	-0.000064	-0.743085	-9.612911	174.778428
38032	2.194217	-0.064800	12.926305	-0.015026	-0.101322	3.298287	1.000000	-0.000004	0.000073	-0.000080	-0.742867	-9.610463	174.775126
38033	2.193046	-0.022552	12.961573	-0.012564	-0.144750	3.332321	1.000000	0.000011	0.000065	-0.000026	-0.743945	-9.608601	174.773544
38034	2.167841	-0.040909	12.916370	0.006247	-0.127587	3.283782	1.000000	-0.000002	0.000040	-0.000046	-0.745130	-9.609138	174.781430
38035	2.141660	-0.030187	12.938284	0.034230	-0.141846	3.300875	1.000000	-0.000011	0.000078	-0.000030	-0.748650	-9.605776	174.779412
38036	2.122829	-0.041301	12.952061	0.055449	-0.133150	3.311457	1.000000	-0.000008	0.000056	-0.000037	-0.749950	-9.604649	174.779610
38037	2.096723	-0.030658	12.973949	0.083438	-0.147407	3.328540	1.000000	-0.000011	0.000056	-0.000045	-0.753223	-9.603817	174.775907
38038	2.104423	-0.039669	12.933865	0.070317	-0.136638	3.290419	1.000000	0.000008	0.000043	-0.000050	-0.752070	-9.605553	174.768155
38039	2.087691	-0.038004	12.915392	0.083699	-0.139821	3.269388	1.000000	-0.000015	0.000038	-0.000050	-0.755658	-9.606783	174.763927
38040	2.118425	-0.041165	12.952782	0.060608	-0.135267	3.311413	1.000000	-0.000012	0.000012	-0.000075	-0.756316	-9.611126	174.761832
38041	2.142659	-0.051736	12.931207	0.035007	-0.122539	3.294317	1.000000	-0.000008	0.000023	-0.000107	-0.758033	-9.614195	174.750982
38042	2.190570	-0.043480	12.955108	-0.008172	-0.127227	3.325770	1.000000	-0.000002	0.000022	-0.000090	-0.758043	-9.617346	174.743013
38043	2.247331	-0.044379	12.938748	-0.066009	-0.121141	3.319130	1.000000	-0.000008	0.000034	-0.000100	-0.759882	-9.619152	174.733016
38044	2.246047	-0.086077	12.903910	-0.066117	-0.078927	3.285115	1.000000	-0.000008	0.000026	-0.000088	-0.760637	-9.621752	174.720800
38045	2.270584	-0.054633	12.917356	-0.090404	-0.108878	3.302060	1.000000	-0.000005	0.000026	-0.000080	-0.762537	-9.624397	174.713096
38046	2.292958	-0.077650	12.928001	-0.107995	-0.084181	3.316599	1.000000	-0.000008	0.000045	-0.000092	-0.762109	-9.625241	174.714861
38047	2.268463	-0.054070	12.917731	-0.087871	-0.109901	3.302068	1.000000	0.000005	0.000051	-0.000069	-0.763062	-9.625055	174.708356
38048	2.258970	-0.074013	12.891168	-0.081239	-0.090047	3.274556	1.000000	-0.000011	0.000059	-0.000075	-0.763532	-9.623736	174.705787
38049	2.255943	-0.086430	12.923576	-0.072154	-0.079352	3.306156	1.000000	-0.000001	0.000066	-0.000060	-0.765359	-9.621795	174.700313
38050	2.204984	-0.064802	12.967107	-0.017349	-0.106603	3.340272	1.000000	0.000005	0.000054	-0.000051	-0.764531	-9.620792	174.700596
38051	2.195280	-0.084680	12.940573	-0.010749	-0.087228	3.312750	1.000000	-0.000001	0.000073	-0.000071	-0.766105	-9.618035	174.693826
38052	2.169013	-0.073772	12.962461	0.017575	-0.100826	3.329800	1.000000	-0.000002	0.000048	-0.000057	-0.765050	-9.619236	174.687206
38053	2.151976	-0.072068	12.944030	0.030934	-0.103991	3.308758	1.000000	-0.000001	0.000059	-0.000049	-0.767120	-9.618114	174.683042
38054	2.167639	-0.060572	12.930809	0.012016	-0.113322	3.298192	1.000000	0.000015	0.000053	-0.000074	-0.764741	-9.617130	174.683136
38055	2.157243	-0.050864	12.971315	0.027888	-0.125173	3.336261	1.000000	0.000005	0.000051	-0.000069	-0.765682	-9.616948	174.676652
38056	2.174763	-0.026750	12.925900	0.001292	-0.146199	3.294098	1.000000	0.000008	0.000028	-0.000076	-0.765003	-9.619856	174.679166
38057	2.198639	-0.036699	12.904434	-0.024348	-0.133483	3.277055	1.000000	0.000018	0.000038	-0.000091	-0.764066	-9.621108	174.670183
38058	2.213499	-0.037436	12.923240	-0.035122	-0.131332	3.298096	1.000000	0.000011	0.000024	-0.000086	-0.761610	-9.624515	174.662609
38059	2.245578	0.014640	12.963603	-0.064724	-0.181469	3.342567	1.000000	0.000005	0.000058	-0.000080	-0.762299	-9.623522	174.654834
38060	2.245094	-0.014298	12.896778	-0.072919	-0.150452	3.276987	1.000000	-0.000001	0.000062	-0.000079	-0.761379	-9.621495	174.649705
38061	2.227841	-0.012458	12.878383	-0.059578	-0.153601	3.255941	1.000000	0.000002	0.000062	-0.000070	-0.762628	-9.620032	174.643100
38062	2.224896	-0.024729	12.910769	-0.050354	-0.142484	3.287537	1.000000	-0.000004	0.000055	-0.000076	-0.762532	-9.619541	174.645027
38063	2.212700	-0.027880	12.983450	-0.026525	-0.142888	3.357190	1.000000	0.000002	0.000073	-0.000063	-0.763905	-9.616814	174.639274
38064	2.171843	-0.002917	12.954561	0.005804	-0.170570	3.321559	1.000000	-0.000004	0.000073	-0.000080	-0.763943	-9.614007	174.641097
38065	2.137326	-0.012440	12.949621	0.039206	-0.164639	3.311045	1.000000	-0.000014	0.000063	-0.000064	-0.767130	-9.612359	174.635183
38066	2.133933	-0.067011	12.947044	0.046700	-0.110819	3.308656	1.000000	-0.000014	0.000063	-0.000064	-0.768518	-9.609743	174.631778
38067	2.141894	-0.034027	12.941990	0.034631	-0.143195	3.304563	1.000000	0.000008	0.000050	-0.000061	-0.769262	-9.609586	174.626318
38068	2.131119	-0.066455	12.947510	0.049030	-0.111924	3.308638	1.000000	-0.000001	0.000055	-0.000068	-0.769129	-9.608455	174.620983
38069	2.087828	-0.066696	12.982757	0.097159	-0.117080	3.336165	1.000000	-0.000001	0.000055	-0.000068	-0.770810	-9.607787	174.614725
38070	2.137588	-0.075052	12.907689	0.036463	-0.101649	3.270572	1.000000	-0.000001	0.000044	-0.000075	-0.769343	-9.607152	174.603386
38071	2.127459	-0.065629	12.948117	0.052397	-0.113507	3.308611	1.000000	-0.000001	0.000033	-0.000082	-0.770766	-9.609012	174.595441
38072	2.151573	-0.033894	12.961670	0.028150	-0.143284	3.325577	1.000000	0.000008	0.000039	-0.000068	-0.770395	-9.609804	174.588693
38073	2.184604	-0.053147	12.899993	-0.012273	-0.119476	3.270535	1.000000	0.000005	0.000032	-0.000066	-0.771445	-9.611704	174.582722
38074	2.176044	-0.030894	12.908279	-0.004344	-0.142357	3.276984	1.000000	0.000017	0.000035	-0.000061	-0.769282	-9.612832	174.578344
38075	2.190757	-0.031900	12.927130	-0.015271	-0.140752	3.298036	1.000000	-0.000005	0.000037	-0.000072	-0.771269	-9.614221	174.571576
38076	2.189757	-0.031768	12.927300	-0.014082	-0.141044	3.298035	1.000000	-0.000008	0.000041	-0.000062	-0.771746	-9.614904	174.566979
38077	2.187335	-0.044300	12.959585	-0.004933	-0.130370	3.329619	1.000000	-0.000008	0.000034	-0.000051	-0.774545	-9.616638	174.562679
38078	2.187696	-0.031724	12.927649	-0.011925	-0.142306	3.298023	1.000000	-0.000011	0.000052	-0.000063	-0.776349	-9.615135	174.558294
38079	2.209904	-0.054726	12.938406	-0.029655	-0.118165	3.312638	1.000000	0.000001	0.000036	-0.000055	-0.777960	-9.616563	174.553507
38080	2.199598	-0.087251	12.943852	-0.015106	-0.086778	3.316722	1.000000	0.000001	0.000036	-0.000055	-0.777167	-9.618148	174.551786
38081	2.190706	-0.065293	12.952187	-0.007096	-0.110082	3.323158	1.000000	-0.000001	0.000055	-0.000068	-0.778839	-9.617478	174.545565
38082	2.189328	-0.065184	12.952420	-0.005805	-0.110563	3.323154	1.000000	-0.000014	0.000052	-0.000072	-0.780604	-9.617339	174.544982
38083	2.163286	-0.096545	12.939176	0.020753	-0.082061	3.306163	1.000000	-0.000011	0.000030	-0.000078	-0.783209	-9.619505	174.537575
38084	2.202937	-0.066492	12.971468	-0.015220	-0.109353	3.344217	1.000000	-0.000007	0.000044	-0.000092	-0.783310	-9.621142	174.534772
38085	2.178213	-0.085007	12.926128	0.003359	-0.092277	3.295634	1.000000	-0.000001	0.000051	-0.000086	-0.784601	-9.620928	174.526420
38086	2.200595	-0.065759	12.971869	-0.012681	-0.110487	3.344210	1.000000	0.000005	0.000036	-0.000095	-0.783209	-9.622815	174.529523
38087	2.176051	-0.084027	12.926498	0.005885	-0.093401	3.295625	1.000000	0.000005	0.000047	-0.000088	-0.783746	-9.623093	174.521001
38088	2.207657	-0.073805	12.931990	-0.025108	-0.100536	3.306186	1.000000	0.000008	0.000039	-0.000068	-0.782739	-9.623997	174.513689
38089	2.214275	-0.053018	12.959048	-0.029175	-0.121496	3.333686	1.000000	0.000011	0.000057	-0.000063	-0.783031	-9.623047	174.507985
38090	2.197595	-0.093154	12.905529	-0.017530	-0.081376	3.278678	1.000000	-0.000008	0.000019	-0.000077	-0.783194	-9.625973	174.503444
38091	2.213827	-0.039888	12.927258	-0.034834	-0.133961	3.302093	1.000000	-0.000001	0.000055	-0.000068	-0.784860	-9.625310	174.497258
38092	2.228066	-0.041158	12.946211	-0.045701	-0.132046	3.323173	1.000000	-0.000008	0.000052	-0.000055	-0.785994	-9.624845	174.502614
38093	2.209756	-0.052080	12.959823	-0.024427	-0.123721	3.333675	1.000000	0.000008	0.000043	-0.000050	-0.786970	-9.625504	174.498541
38094	2.200813	-0.071927	12.933167	-0.018089	-0.103852	3.306171	1.000000	0.000005	0.000043	-0.000058	-0.786286	-9.625479	174.498251
38095	2.184240	-0.028238	12.949593	-0.003201	-0.149690	3.319001	1.000000	0.000005	0.000036	-0.000047	-0.787697	-9.626932	174.494501
38096	2.207811	-0.038290	12.928292	-0.028949	-0.136463	3.302081	1.000000	0.000009	0.000065	-0.000083	-0.785534	-9.624790	174.491453
38097	2.198628	-0.016180	12.936655	-0.020903	-0.159762	3.308490	1.000000	-0.000001	0.000044	-0.000075	-0.787064	-9.625392	174.484445
38098	2.205437	-0.037493	12.928699	-0.026652	-0.137677	3.302074	1.000000	0.000005	0.000032	-0.000065	-0.786769	-9.626731	174.481466
38099	2.196423	-0.015504	12.937030	-0.018604	-0.160976	3.308479	1.000000	-0.000007	0.000063	-0.000095	-0.788550	-9.625218	174.472046
38100	2.194961	-0.015189	12.937279	-0.017447	-0.161491	3.308474	1.000000	0.000002	0.000051	-0.000078	-0.788573	-9.624761	174.464156
38101	2.184402	-0.047765	12.942763	-0.003028	-0.130622	3.312553	1.000000	-0.000008	0.000048	-0.000073	-0.790856	-9.624875	174.457342
38102	2.198723	-0.048931	12.961712	-0.013801	-0.128662	3.333643	1.000000	-0.000001	0.000051	-0.000086	-0.790325	-9.624800	174.463938
38103	2.183174	-0.034574	12.911105	-0.008542	-0.143157	3.280957	1.000000	0.000005	0.000061	-0.000062	-0.791361	-9.623362	174.458466
38104	2.189547	-0.055835	12.903232	-0.014424	-0.120807	3.274552	1.000000	0.000002	0.000051	-0.000078	-0.790012	-9.622026	174.450238
38105	2.155465	-0.023419	12.933079	0.020581	-0.157543	3.297838	1.000000	-0.000007	0.000055	-0.000084	-0.792039	-9.621327	174.442141
38106	2.161761	-0.045028	12.925217	0.014900	-0.135464	3.291431	1.000000	-0.000014	0.000063	-0.000064	-0.793893	-9.619444	174.444751
38107	2.143161	-0.056106	12.938848	0.036174	-0.127122	3.301907	1.000000	0.000002	0.000054	-0.000059	-0.795363	-9.618799	174.439611
38108	2.174573	-0.045967	12.944425	0.005163	-0.134298	3.312516	1.000000	0.000005	0.000043	-0.000058	-0.794896	-9.618985	174.437941
38109	2.156175	-0.056905	12.958020	0.026439	-0.125957	3.322991	1.000000	-0.000004	0.000059	-0.000057	-0.797119	-9.617851	174.432987
38110	2.139282	-0.055266	12.939493	0.039646	-0.128525	3.301884	1.000000	0.000005	0.000043	-0.000058	-0.796101	-9.618047	174.430766
38111	2.155292	-0.043830	12.926302	0.020755	-0.138387	3.291392	1.000000	-0.000005	0.000040	-0.000054	-0.798440	-9.618991	174.426271
38112	2.185310	-0.046460	12.963989	-0.002020	-0.133891	3.333598	1.000000	-0.000005	0.000048	-0.000065	-0.797616	-9.619417	174.425996
38113	2.176398	-0.066541	12.937327	0.004346	-0.114418	3.306095	1.000000	-0.000007	0.000044	-0.000092	-0.799502	-9.619986	174.417083
38114	2.167457	-0.044756	12.945622	0.012363	-0.137331	3.312479	1.000000	-0.000008	0.000041	-0.000062	-0.800372	-9.620452	174.414993
38115	2.189943	-0.067564	12.956422	-0.005381	-0.113256	3.327192	1.000000	0.000002	0.000033	-0.000074	-0.801569	-9.622338	174.408191
38116	2.182705	-0.033074	12.932568	-0.005371	-0.147464	3.301993	1.000000	-0.000008	0.000037	-0.000081	-0.801555	-9.623222	174.412079
38117	2.189529	-0.054494	12.924634	-0.011073	-0.125688	3.295602	1.000000	-0.000001	0.000044	-0.000075	-0.803067	-9.623825	174.405149
38118	2.221057	-0.044353	12.930222	-0.041892	-0.132905	3.306241	1.000000	-0.000001	0.000044	-0.000075	-0.802924	-9.624741	174.403208
38119	2.170242	-0.065236	12.938368	0.011514	-0.117729	3.306062	1.000000	-0.000008	0.000041	-0.000062	-0.805439	-9.625671	174.397759
38120	2.217100	-0.056419	12.962758	-0.031417	-0.122480	3.337819	1.000000	0.000009	0.000065	-0.000083	-0.803221	-9.623767	174.399420
38121	2.208059	-0.076363	12.936123	-0.025086	-0.102995	3.310323	1.000000	-0.000008	0.000041	-0.000062	-0.805732	-9.624697	174.393979
38122	2.174340	-0.086002	12.930899	0.008270	-0.096433	3.299671	1.000000	0.000005	0.000043	-0.000058	-0.804699	-9.625290	174.390375
38123	2.180813	-0.065340	12.957973	0.004332	-0.117439	3.327156	1.000000	0.000002	0.000051	-0.000077	-0.805768	-9.625102	174.383151
38124	2.156176	-0.084021	12.912576	0.022692	-0.099683	3.278543	1.000000	-0.000008	0.000059	-0.000066	-0.805737	-9.623754	174.375694
38125	2.178031	-0.064970	12.958443	0.006725	-0.118408	3.327146	1.000000	-0.000005	0.000048	-0.000065	-0.807808	-9.623890	174.369950
38126	2.178381	-0.052154	12.926527	-0.000317	-0.130041	3.295564	1.000000	-0.000001	0.000044	-0.000075	-0.807082	-9.623475	174.364346
38127	2.192778	-0.053076	12.945494	-0.011156	-0.128518	3.316679	1.000000	0.000008	0.000046	-0.000079	-0.807392	-9.623774	174.356958
38128	2.182498	-0.085453	12.950924	0.003278	-0.097199	3.320765	1.000000	0.000002	0.000040	-0.000085	-0.806416	-9.624917	174.353137
38129	2.167281	-0.029233	12.935171	0.010239	-0.154416	3.301910	1.000000	-0.000001	0.000033	-0.000082	-0.807779	-9.626789	174.345404
38130	2.206696	-0.040667	12.932693	-0.027795	-0.139028	3.306215	1.000000	-0.000001	0.000055	-0.000067	-0.807475	-9.625066	174.341011
38131	2.230334	-0.008749	12.946412	-0.051797	-0.169165	3.323246	1.000000	0.000005	0.000029	-0.000084	-0.808082	-9.627424	174.333109
38132	2.180059	-0.071298	12.919488	-0.000204	-0.110787	3.289169	1.000000	0.000011	0.000039	-0.000059	-0.806792	-9.628440	174.330007
38133	2.220683	-0.028034	12.919887	-0.044295	-0.150047	3.295753	1.000000	0.000002	0.000051	-0.000077	-0.807851	-9.628251	174.322820
38134	2.219237	-0.027652	12.920136	-0.042971	-0.150347	3.295754	1.000000	0.000002	0.000062	-0.000070	-0.806943	-9.627074	174.325321
38135	2.200723	-0.038486	12.933717	-0.021688	-0.141979	3.306195	1.000000	0.000008	0.000050	-0.000060	-0.807632	-9.626919	174.320105
38136	2.197929	-0.050750	12.966046	-0.012598	-0.131002	3.337769	1.000000	-0.000005	0.000048	-0.000065	-0.808258	-9.626117	174.314848
38137	2.197966	-0.037849	12.934188	-0.019486	-0.143149	3.306186	1.000000	0.000005	0.000069	-0.000073	-0.809014	-9.623868	174.308207
38138	2.172750	-0.014599	12.923791	0.000705	-0.168272	3.291400	1.000000	-0.000007	0.000066	-0.000077	-0.809229	-9.621973	174.300991
38139	2.177745	-0.048565	12.948049	0.003048	-0.135110	3.316617	1.000000	0.000002	0.000043	-0.000066	-0.810535	-9.622596	174.295122
38140	2.151598	-0.037901	12.969654	0.031148	-0.148820	3.333400	1.000000	-0.000001	0.000044	-0.000075	-0.810078	-9.622498	174.286599
38141	2.150327	-0.037648	12.969866	0.032341	-0.149577	3.333389	1.000000	-0.000004	0.000055	-0.000076	-0.811885	-9.621824	174.279620
38142	2.191021	-0.036479	12.935370	-0.013585	-0.145671	3.306165	1.000000	-0.000001	0.000055	-0.000067	-0.811821	-9.620941	174.282619
38143	2.149139	-0.024612	12.938208	0.026644	-0.162084	3.301795	1.000000	-0.000005	0.000048	-0.000065	-0.813879	-9.621077	174.276944
38144	2.171546	-0.047359	12.949094	0.008810	-0.137609	3.316588	1.000000	-0.000005	0.000037	-0.000072	-0.813870	-9.621910	174.271464
38145	2.187444	-0.035850	12.935977	-0.010096	-0.147494	3.306148	1.000000	-0.000001	0.000055	-0.000067	-0.815491	-9.621252	174.265483
38146	2.161706	-0.067100	12.922594	0.016314	-0.118243	3.289094	1.000000	0.000005	0.000032	-0.000065	-0.813812	-9.623153	174.265623
38147	2.200705	-0.036743	12.955160	-0.019635	-0.146162	3.327285	1.000000	-0.000023	0.000057	-0.000078	-0.817740	-9.622287	174.258353
38148	2.176305	-0.055789	12.909698	-0.001371	-0.128551	3.278653	1.000000	-0.000005	0.000048	-0.000065	-0.818325	-9.622279	174.269014
38149	2.198078	-0.036705	12.955606	-0.017208	-0.147348	3.327275	1.000000	-0.000011	0.000052	-0.000063	-0.821131	-9.621931	174.263541
38150	2.189214	-0.057015	12.928942	-0.010773	-0.127506	3.299790	1.000000	-0.000011	0.000052	-0.000063	-0.822469	-9.622278	174.267559
38151	2.179949	-0.035287	12.937244	-0.002620	-0.150788	3.306114	1.000000	0.000002	0.000047	-0.000048	-0.824153	-9.622449	174.263881
38152	2.146099	-0.045010	12.931953	0.030562	-0.144219	3.295380	1.000000	-0.000004	0.000051	-0.000094	-0.823754	-9.621640	174.255745
38153	2.201015	-0.057717	12.948381	-0.019281	-0.127116	3.320927	1.000000	-0.000008	0.000041	-0.000062	-0.826237	-9.622574	174.250426
38154	2.143586	-0.044836	12.932370	0.033087	-0.145278	3.295362	1.000000	-0.000014	0.000063	-0.000064	-0.827357	-9.621281	174.255049
38155	2.173290	-0.047188	12.970212	0.010316	-0.141570	3.337661	1.000000	0.000011	0.000039	-0.000059	-0.827711	-9.622409	174.250054
38156	2.163112	-0.079759	12.975613	0.024634	-0.110197	3.341749	1.000000	-0.000008	0.000048	-0.000073	-0.827926	-9.622343	174.243115
38157	2.170995	-0.046624	12.970598	0.012703	-0.142625	3.337648	1.000000	0.000002	0.000043	-0.000066	-0.829216	-9.622971	174.237322
38158	2.187479	-0.076907	12.922515	-0.008273	-0.109273	3.293432	1.000000	-0.000001	0.000044	-0.000075	-0.828843	-9.622984	174.231539
38159	2.193930	-0.056367	12.949589	-0.012080	-0.130327	3.320904	1.000000	-0.000008	0.000037	-0.000080	-0.830931	-9.624377	174.224105
38160	2.185148	-0.076349	12.922913	-0.005903	-0.110374	3.293424	1.000000	0.000003	0.000065	-0.000099	-0.829673	-9.622371	174.214472
38161	2.199403	-0.077169	12.941946	-0.016685	-0.108904	3.314580	1.000000	0.000005	0.000032	-0.000065	-0.830639	-9.624279	174.208831
38162	2.198291	-0.076830	12.942137	-0.015423	-0.109205	3.314579	1.000000	-0.000001	0.000055	-0.000067	-0.830209	-9.623659	174.212383
38163	2.214013	-0.065154	12.929083	-0.034335	-0.119111	3.304169	1.000000	0.000005	0.000050	-0.000069	-0.831060	-9.623492	174.206301
38164	2.187646	-0.054588	12.950660	-0.006108	-0.132721	3.320884	1.000000	-0.000004	0.000048	-0.000065	-0.830831	-9.623195	174.199174
38165	2.186334	-0.054353	12.950882	-0.004918	-0.133476	3.320877	1.000000	0.000002	0.000054	-0.000059	-0.832253	-9.622558	174.194256
38166	2.152377	-0.064112	12.945571	0.028122	-0.126810	3.310108	1.000000	0.000002	0.000054	-0.000059	-0.831613	-9.620819	174.184116
38167	2.199113	-0.055056	12.970171	-0.014711	-0.132281	3.342036	1.000000	-0.000001	0.000047	-0.000056	-0.833467	-9.620975	174.179518
38168	2.149674	-0.063538	12.946023	0.030327	-0.127923	3.310093	1.000000	0.000008	0.000061	-0.000053	-0.832624	-9.618595	174.178652
38169	2.172794	-0.031315	12.959884	0.006447	-0.158140	3.327159	1.000000	0.000018	0.000046	-0.000053	-0.832350	-9.618940	174.174380
38170	2.164113	-0.051320	12.933191	0.012801	-0.137986	3.299682	1.000000	-0.000014	0.000052	-0.000071	-0.832630	-9.619126	174.175363
38171	2.162997	-0.051007	12.933379	0.013989	-0.138739	3.299673	1.000000	0.000015	0.000035	-0.000069	-0.832395	-9.620723	174.169272
38172	2.171037	-0.017532	12.928340	0.001970	-0.170624	3.295576	1.000000	0.000002	0.000040	-0.000085	-0.830931	-9.621003	174.170779
38173	2.193480	-0.039893	12.939297	-0.015795	-0.146647	3.310445	1.000000	0.000005	0.000047	-0.000087	-0.831380	-9.621291	174.162600
38174	2.211079	-0.015384	12.894103	-0.042908	-0.167301	3.268488	1.000000	0.000008	0.000035	-0.000086	-0.828784	-9.622357	174.159072
38175	2.175935	-0.037639	12.920810	-0.001512	-0.149733	3.289259	1.000000	-0.000001	0.000044	-0.000075	-0.830236	-9.622969	174.152369
38176	2.214644	-0.006892	12.953502	-0.037316	-0.177466	3.327519	1.000000	-0.000004	0.000051	-0.000094	-0.830287	-9.622510	174.149149
38177	2.213273	-0.006641	12.953736	-0.036126	-0.178220	3.327512	1.000000	-0.000007	0.000055	-0.000084	-0.832242	-9.621830	174.141339
38178	2.212465	-0.048535	12.919021	-0.036969	-0.135676	3.293750	1.000000	-0.000020	0.000063	-0.000081	-0.833691	-9.620134	174.141342
38179	2.201312	-0.039402	12.959442	-0.020597	-0.147592	3.331599	1.000000	0.000008	0.000050	-0.000060	-0.834344	-9.619980	174.136308
38180	2.217859	-0.069601	12.911423	-0.041448	-0.114118	3.287460	1.000000	-0.000001	0.000047	-0.000056	-0.833691	-9.620492	174.146464
38181	2.174267	-0.070612	12.946230	0.006975	-0.119049	3.314501	1.000000	-0.000007	0.000059	-0.000066	-0.836034	-9.619357	174.140809
38182	2.197988	-0.080614	12.925160	-0.018695	-0.106124	3.297835	1.000000	0.000002	0.000054	-0.000059	-0.835866	-9.619674	174.148134
38183	2.164072	-0.090451	12.919795	0.014528	-0.099883	3.287019	1.000000	0.000002	0.000054	-0.000059	-0.837270	-9.619040	174.143293
38184	2.152867	-0.081155	12.960211	0.030938	-0.111312	3.324860	1.000000	0.000002	0.000061	-0.000070	-0.836341	-9.617306	174.152870
38185	2.185790	-0.058020	12.933918	-0.008080	-0.130424	3.304104	1.000000	0.000005	0.000032	-0.000065	-0.837278	-9.619216	174.147332
38186	2.184498	-0.057585	12.934138	-0.006812	-0.130719	3.304102	1.000000	0.000006	0.000068	-0.000072	-0.835956	-9.617061	174.146640
38187	2.166714	-0.013989	12.950512	0.008472	-0.176502	3.316646	1.000000	0.000008	0.000050	-0.000060	-0.836600	-9.616912	174.141643
38188	2.173554	-0.035079	12.942673	0.002857	-0.154192	3.310367	1.000000	0.000008	0.000050	-0.000060	-0.834755	-9.617432	174.148909
38189	2.164211	-0.013132	12.950932	0.011102	-0.177456	3.316631	1.000000	-0.000001	0.000044	-0.000075	-0.836192	-9.618054	174.142271
38190	2.186679	-0.035593	12.961930	-0.006852	-0.153097	3.331550	1.000000	0.000002	0.000043	-0.000066	-0.835646	-9.617788	174.134117
38191	2.161912	-0.012590	12.951316	0.013314	-0.178530	3.316614	1.000000	-0.000007	0.000048	-0.000073	-0.837837	-9.617925	174.127662
38192	2.184423	-0.035159	12.962312	-0.004397	-0.154195	3.331538	1.000000	0.000002	0.000036	-0.000055	-0.837538	-9.619470	174.125669
38193	2.150886	-0.045098	12.956852	0.028814	-0.147921	3.320692	1.000000	-0.000007	0.000044	-0.000091	-0.839333	-9.620066	174.117087
38194	2.183879	-0.022053	12.930573	-0.010231	-0.166574	3.299966	1.000000	-0.000001	0.000043	-0.000074	-0.838692	-9.620269	174.118934
38195	2.199020	-0.064973	12.914669	-0.023175	-0.122295	3.287431	1.000000	-0.000010	0.000048	-0.000081	-0.841060	-9.620394	174.111517
38196	2.188068	-0.055831	12.955024	-0.006972	-0.133768	3.325252	1.000000	-0.000001	0.000043	-0.000074	-0.840665	-9.619822	174.096597
38197	2.186980	-0.055709	12.955208	-0.005783	-0.134518	3.325245	1.000000	-0.000017	0.000041	-0.000087	-0.843646	-9.620728	174.088519
38198	2.195684	-0.064533	12.915239	-0.019967	-0.123575	3.287424	1.000000	-0.000001	0.000043	-0.000074	-0.842806	-9.620683	174.079867
38199	2.160489	-0.087234	12.941874	0.021438	-0.105944	3.308126	1.000000	-0.000017	0.000041	-0.000087	-0.845784	-9.621589	174.071797
38200	2.191627	-0.076748	12.947757	-0.009184	-0.113272	3.318977	1.000000	0.000009	0.000064	-0.000082	-0.843820	-9.620391	174.076916
38201	2.173334	-0.087664	12.961191	0.012113	-0.104827	3.329321	1.000000	0.000005	0.000032	-0.000065	-0.844741	-9.622303	174.071445
38202	2.189421	-0.075892	12.948135	-0.006771	-0.114401	3.318969	1.000000	-0.000001	0.000043	-0.000074	-0.844523	-9.622841	174.073782
38203	2.179213	-0.108530	12.953536	0.007445	-0.083439	3.323059	1.000000	0.000002	0.000061	-0.000070	-0.845659	-9.621403	174.067738
38204	2.196460	-0.084121	12.908462	-0.019582	-0.104227	3.281153	1.000000	0.000002	0.000050	-0.000077	-0.844370	-9.621413	174.069390
38205	2.195936	-0.029003	12.911540	-0.024333	-0.159199	3.283301	1.000000	0.000021	0.000042	-0.000063	-0.843485	-9.622232	174.064122
38206	2.193162	-0.041116	12.943837	-0.014866	-0.148186	3.314856	1.000000	-0.000004	0.000047	-0.000064	-0.843617	-9.622314	174.071813
38207	2.169301	-0.060137	12.898224	0.003008	-0.130700	3.266173	1.000000	-0.000004	0.000047	-0.000064	-0.845613	-9.622467	174.066410
38208	2.183924	-0.006383	12.920230	-0.013903	-0.182949	3.289536	1.000000	0.000015	0.000064	-0.000065	-0.842910	-9.619355	174.049723
38209	2.172728	0.002918	12.960600	0.002601	-0.194866	3.327325	1.000000	-0.000008	0.000040	-0.000062	-0.845335	-9.620301	174.044637
38210	2.187935	-0.039992	12.944726	-0.010293	-0.150075	3.314839	1.000000	-0.000001	0.000054	-0.000067	-0.844581	-9.619748	174.049515
38211	2.193871	-0.019323	12.971874	-0.013888	-0.171199	3.342291	1.000000	0.000002	0.000043	-0.000066	-0.845815	-9.620383	174.043952
38212	2.177190	-0.017876	12.953191	-0.000933	-0.173611	3.321067	1.000000	-0.000004	0.000055	-0.000075	-0.845536	-9.619081	174.031328
38213	2.184098	-0.039237	12.945376	-0.006844	-0.151848	3.314821	1.000000	-0.000007	0.000048	-0.000073	-0.847705	-9.619221	174.024968
38214	2.181339	-0.051549	12.977666	0.002596	-0.140773	3.346373	1.000000	0.000005	0.000039	-0.000076	-0.846237	-9.620044	174.030352
38215	2.191698	-0.047472	12.905626	-0.019794	-0.141689	3.277022	1.000000	-0.000004	0.000051	-0.000094	-0.847574	-9.619849	174.021558
38216	2.197038	-0.081370	12.929904	-0.017502	-0.108095	3.302343	1.000000	-0.000004	0.000047	-0.000064	-0.847393	-9.619564	174.029702
38217	2.189413	-0.046981	12.906015	-0.017440	-0.142687	3.277015	1.000000	-0.000001	0.000032	-0.000082	-0.848654	-9.621454	174.022346
38218	2.220720	-0.036224	12.911922	-0.048260	-0.150152	3.287915	1.000000	0.000012	0.000057	-0.000063	-0.847183	-9.620199	174.020919
38219	2.186779	-0.046217	12.906465	-0.015094	-0.143799	3.277006	1.000000	-0.000010	0.000059	-0.000074	-0.849672	-9.619063	174.014455
38220	2.192520	-0.025616	12.933644	-0.018800	-0.164500	3.304459	1.000000	0.000002	0.000050	-0.000077	-0.848798	-9.618114	174.003907
38221	2.181260	-0.016353	12.974004	-0.002246	-0.176420	3.342229	1.000000	0.000002	0.000054	-0.000059	-0.850169	-9.617483	173.999236
38222	2.172813	-0.036497	12.947283	0.003811	-0.156351	3.314769	1.000000	-0.000004	0.000047	-0.000064	-0.850244	-9.617853	174.004400
38223	2.163410	-0.014880	12.955504	0.012125	-0.179604	3.320981	1.000000	-0.000011	0.000041	-0.000070	-0.852836	-9.618791	173.998400
38224	2.170549	-0.036264	12.947663	0.006149	-0.157301	3.314757	1.000000	0.000002	0.000047	-0.000048	-0.852097	-9.618488	174.000890
38225	2.153849	-0.034872	12.928967	0.019195	-0.160155	3.293512	1.000000	-0.000001	0.000054	-0.000067	-0.853644	-9.617846	173.995258
38226	2.166472	-0.048287	12.980168	0.016874	-0.146941	3.346295	1.000000	0.000005	0.000032	-0.000065	-0.852221	-9.619900	173.991929
38227	2.207677	-0.046618	12.945979	-0.029301	-0.143632	3.319445	1.000000	-0.000010	0.000059	-0.000074	-0.854702	-9.618766	173.985500
38228	2.182213	-0.078305	12.932434	-0.003054	-0.114154	3.302303	1.000000	-0.000001	0.000043	-0.000074	-0.853364	-9.619997	173.991527
38229	2.172812	-0.056493	12.940649	0.005274	-0.137402	3.308509	1.000000	-0.000001	0.000043	-0.000074	-0.854758	-9.620625	173.985068
38230	2.197037	-0.066225	12.919638	-0.020704	-0.124313	3.291988	1.000000	-0.000001	0.000043	-0.000074	-0.853639	-9.621389	173.980181
38231	2.204219	-0.087478	12.911804	-0.026666	-0.102552	3.285774	1.000000	-0.000007	0.000044	-0.000091	-0.855388	-9.621996	173.971771
38232	2.171030	-0.043025	12.909134	0.000686	-0.149957	3.276945	1.000000	0.000002	0.000050	-0.000077	-0.854390	-9.621617	173.975852
38233	2.183400	-0.056434	12.960385	-0.001704	-0.137275	3.329731	1.000000	-0.000001	0.000054	-0.000067	-0.855927	-9.620980	173.970255
38234	2.205973	-0.078764	12.971480	-0.019398	-0.112909	3.344771	1.000000	-0.000001	0.000032	-0.000082	-0.854845	-9.623094	173.967975
38235	2.196545	-0.056956	12.979694	-0.011051	-0.136156	3.350969	1.000000	-0.000001	0.000054	-0.000067	-0.856379	-9.622458	173.962386
38236	2.196756	-0.044161	12.947845	-0.018033	-0.147620	3.319421	1.000000	-0.000007	0.000058	-0.000065	-0.855937	-9.621444	173.962537
38237	2.186580	-0.076991	12.953234	-0.003894	-0.116622	3.323511	1.000000	-0.000001	0.000054	-0.000067	-0.857468	-9.620809	173.956956
38238	2.161721	-0.054124	12.942517	0.016172	-0.141375	3.308458	1.000000	-0.000001	0.000036	-0.000063	-0.856604	-9.621502	173.946621
38239	2.176017	-0.055031	12.961633	0.005525	-0.140030	3.329701	1.000000	-0.000004	0.000047	-0.000064	-0.858564	-9.621662	173.941356
38240	2.161063	-0.041027	12.910813	0.010182	-0.153641	3.276899	1.000000	0.000002	0.000050	-0.000077	-0.857166	-9.620870	173.937858
38241	2.198930	-0.064394	12.940876	-0.019463	-0.127714	3.313204	1.000000	-0.000001	0.000043	-0.000074	-0.858543	-9.621500	173.931449
38242	2.174077	-0.041339	12.930149	0.000801	-0.152420	3.298142	1.000000	0.000012	0.000046	-0.000070	-0.855795	-9.621800	173.932849
38243	2.196438	-0.063608	12.941303	-0.017014	-0.128582	3.313199	1.000000	-0.000010	0.000059	-0.000074	-0.858254	-9.620674	173.926487
38244	2.195091	-0.063298	12.941533	-0.015871	-0.128781	3.313198	1.000000	0.000009	0.000046	-0.000078	-0.856067	-9.620486	173.925849
38245	2.201037	-0.042533	12.968674	-0.019330	-0.149946	3.340640	1.000000	-0.000007	0.000037	-0.000080	-0.858048	-9.621902	173.918789
38246	2.193007	-0.062682	12.941889	-0.013457	-0.129759	3.313191	1.000000	0.000002	0.000043	-0.000066	-0.856995	-9.622496	173.912561
38247	2.200487	-0.029273	12.936961	-0.025210	-0.162248	3.309088	1.000000	0.000005	0.000050	-0.000068	-0.857755	-9.622341	173.906848
38248	2.181973	-0.040290	12.950357	-0.003846	-0.153263	3.319368	1.000000	0.000009	0.000064	-0.000082	-0.855710	-9.620505	173.908621
38249	2.213010	-0.029553	12.956395	-0.034594	-0.161187	3.330344	1.000000	-0.000014	0.000041	-0.000079	-0.858443	-9.621442	173.901751
38250	2.164189	-0.038735	12.931816	0.010291	-0.156421	3.298091	1.000000	0.000005	0.000043	-0.000057	-0.857757	-9.621666	173.898903
38251	2.195267	-0.028065	12.937850	-0.020457	-0.164347	3.309070	1.000000	-0.000010	0.000059	-0.000074	-0.860209	-9.620541	173.892579
38252	2.168447	-0.017875	12.959235	0.007777	-0.177949	3.325521	1.000000	0.000005	0.000050	-0.000068	-0.859393	-9.619113	173.882555
38253	2.160132	-0.037956	12.932497	0.013582	-0.158255	3.298066	1.000000	-0.000004	0.000054	-0.000075	-0.861086	-9.618468	173.876067
38254	2.191256	-0.027208	12.938532	-0.017091	-0.165698	3.309058	1.000000	0.000002	0.000043	-0.000066	-0.860096	-9.619069	173.880203
38255	2.157855	-0.037392	12.932879	0.016022	-0.159242	3.298051	1.000000	-0.000001	0.000036	-0.000063	-0.861711	-9.620505	173.875148
38256	2.189114	-0.026638	12.938896	-0.014713	-0.166726	3.309048	1.000000	-0.000004	0.000051	-0.000094	-0.861000	-9.620021	173.875505
38257	2.179091	-0.059229	12.944256	-0.000610	-0.135709	3.313138	1.000000	0.000012	0.000057	-0.000062	-0.861145	-9.619081	173.870514
38258	2.177948	-0.058737	12.944450	0.000800	-0.136057	3.313134	1.000000	0.000005	0.000032	-0.000065	-0.860185	-9.621603	173.883850
38259	2.185553	-0.025451	12.939500	-0.010919	-0.168557	3.309028	1.000000	-0.000010	0.000048	-0.000081	-0.862479	-9.621747	173.876726
38260	2.177546	-0.045702	12.912713	-0.005223	-0.148260	3.281585	1.000000	-0.000001	0.000036	-0.000063	-0.861519	-9.622561	173.874407
38261	2.217218	-0.056358	12.910744	-0.043174	-0.133726	3.286427	1.000000	0.000002	0.000050	-0.000077	-0.862444	-9.622399	173.867789
38262	2.190516	-0.046163	12.932083	-0.014790	-0.147231	3.302852	1.000000	-0.000004	0.000047	-0.000064	-0.862424	-9.621776	173.859272
38263	2.189259	-0.045901	12.932297	-0.013606	-0.147969	3.302845	1.000000	-0.000001	0.000050	-0.000085	-0.863525	-9.621605	173.851685
38264	2.179575	-0.024168	12.940511	-0.005138	-0.170616	3.309005	1.000000	-0.000004	0.000047	-0.000064	-0.862858	-9.621628	173.856819
38265	2.195304	-0.066992	12.924703	-0.018405	-0.126370	3.296679	1.000000	-0.000008	0.000040	-0.000062	-0.865220	-9.622586	173.851987
38266	2.166814	-0.069726	12.978131	0.018280	-0.128309	3.344631	1.000000	-0.000014	0.000063	-0.000064	-0.865227	-9.619855	173.848080
38267	2.168904	-0.044461	12.914172	0.002793	-0.151672	3.281546	1.000000	-0.000005	0.000040	-0.000053	-0.867408	-9.620820	173.844235
38268	2.181303	-0.057969	12.965445	0.000446	-0.138612	3.334365	1.000000	-0.000004	0.000054	-0.000075	-0.867159	-9.619490	173.848014
38269	2.180133	-0.057778	12.965642	0.001633	-0.139350	3.334357	1.000000	-0.000007	0.000037	-0.000080	-0.869111	-9.620908	173.841073
38270	2.180763	-0.045006	12.933736	-0.005448	-0.150862	3.302818	1.000000	-0.000007	0.000047	-0.000073	-0.868831	-9.620892	173.855653
38271	2.162511	-0.056488	12.947048	0.015855	-0.142311	3.313058	1.000000	-0.000010	0.000048	-0.000081	-0.871108	-9.621036	173.848590
38272	2.186882	-0.066064	12.926135	-0.010417	-0.129236	3.296659	1.000000	0.000008	0.000039	-0.000067	-0.868869	-9.621443	173.847239
38273	2.201178	-0.066850	12.945294	-0.021010	-0.127948	3.317943	1.000000	-0.000014	0.000041	-0.000078	-0.871573	-9.622382	173.840494
38274	2.177754	-0.086038	12.899541	-0.003593	-0.109703	3.269214	1.000000	-0.000000	0.000058	-0.000096	-0.870057	-9.620909	173.828428
38275	2.198752	-0.066431	12.945708	-0.018705	-0.128881	3.317938	1.000000	-0.000008	0.000033	-0.000051	-0.872658	-9.622668	173.824932
38276	2.206154	-0.087662	12.937897	-0.024739	-0.106622	3.311794	1.000000	0.000005	0.000050	-0.000068	-0.871118	-9.622335	173.830775
38277	2.189674	-0.031835	12.922010	-0.017387	-0.163639	3.292539	1.000000	-0.000007	0.000047	-0.000073	-0.873211	-9.622487	173.824718
38278	2.195180	-0.065620	12.946318	-0.015239	-0.130040	3.317931	1.000000	0.000008	0.000050	-0.000060	-0.871445	-9.621459	173.827302
38279	2.170001	-0.042857	12.935553	0.004976	-0.155273	3.302767	1.000000	-0.000007	0.000058	-0.000065	-0.873689	-9.620345	173.822100
38280	2.167026	-0.055190	12.967851	0.014634	-0.144106	3.334298	1.000000	0.000008	0.000039	-0.000067	-0.871449	-9.621569	173.828172
38281	2.177903	-0.050975	12.895867	-0.008168	-0.144977	3.265086	1.000000	-0.000001	0.000043	-0.000074	-0.872777	-9.622201	173.821964
38282	2.166436	-0.041877	12.936154	0.008624	-0.156372	3.302752	1.000000	-0.000001	0.000054	-0.000067	-0.872023	-9.621163	173.821861
38283	2.180572	-0.042642	12.955348	-0.001952	-0.155100	3.324044	1.000000	-0.000001	0.000036	-0.000063	-0.873601	-9.622598	173.816947
38284	2.196522	-0.030819	12.942444	-0.021059	-0.164611	3.313812	1.000000	-0.000004	0.000047	-0.000064	-0.873266	-9.621771	173.811143
38285	2.163034	-0.041214	12.936725	0.012002	-0.158042	3.302729	1.000000	-0.000004	0.000043	-0.000082	-0.874765	-9.622394	173.803977
38286	2.202653	-0.051720	12.934863	-0.025792	-0.143062	3.307675	1.000000	0.000002	0.000050	-0.000077	-0.873208	-9.622632	173.809126
38287	2.177648	-0.028920	12.924049	-0.005568	-0.168274	3.292490	1.000000	-0.000001	0.000043	-0.000074	-0.874528	-9.623264	173.802947
38288	2.200431	-0.051117	12.935244	-0.023364	-0.144062	3.307668	1.000000	-0.000004	0.000036	-0.000072	-0.874181	-9.624616	173.807665
38289	2.167099	-0.061494	12.929489	0.009687	-0.137472	3.296576	1.000000	-0.000001	0.000043	-0.000074	-0.875498	-9.625249	173.801498
38290	2.198152	-0.050620	12.935633	-0.021123	-0.145005	3.307662	1.000000	-0.000007	0.000055	-0.000083	-0.875078	-9.623805	173.794509
38291	2.188282	-0.028851	12.943845	-0.012642	-0.168216	3.313777	1.000000	0.000008	0.000050	-0.000060	-0.875613	-9.623657	173.790000
38292	2.204145	-0.071318	12.928086	-0.026127	-0.123551	3.301534	1.000000	0.000002	0.000043	-0.000066	-0.874845	-9.623746	173.788494
38293	2.194417	-0.049492	12.936272	-0.017644	-0.146761	3.307647	1.000000	0.000005	0.000050	-0.000068	-0.875554	-9.623590	173.783018
38294	2.169259	-0.026694	12.925465	0.002227	-0.171538	3.292449	1.000000	0.000002	0.000054	-0.000058	-0.875153	-9.621336	173.769365
38295	2.191915	-0.048888	12.936698	-0.015631	-0.147803	3.307638	1.000000	-0.000007	0.000036	-0.000080	-0.877070	-9.622755	173.762557
38296	2.150145	-0.037892	12.938884	0.024610	-0.163218	3.302648	1.000000	0.000002	0.000036	-0.000055	-0.876444	-9.623573	173.754240
38297	2.189720	-0.048562	12.937071	-0.013370	-0.148799	3.307630	1.000000	-0.000014	0.000062	-0.000064	-0.879430	-9.621981	173.749300
38298	2.179807	-0.027021	12.945279	-0.004788	-0.171496	3.313740	1.000000	-0.000001	0.000043	-0.000074	-0.878435	-9.622676	173.751236
38299	2.178692	-0.026723	12.945467	-0.003605	-0.172227	3.313731	1.000000	-0.000001	0.000043	-0.000074	-0.879743	-9.623307	173.745119
38300	2.169013	-0.059683	12.950757	0.010593	-0.140562	3.317827	1.000000	-0.000014	0.000052	-0.000071	-0.879864	-9.623396	173.755071
38301	2.201776	-0.036302	12.924854	-0.028471	-0.159941	3.297408	1.000000	-0.000004	0.000047	-0.000064	-0.881753	-9.623557	173.750113
38302	2.183543	-0.047815	12.938118	-0.007336	-0.150953	3.307610	1.000000	-0.000007	0.000047	-0.000072	-0.882162	-9.622770	173.745074
38303	2.182359	-0.047842	12.938317	-0.006155	-0.151684	3.307602	1.000000	-0.000020	0.000045	-0.000077	-0.885589	-9.623235	173.738651
38304	2.180958	-0.047639	12.938554	-0.004827	-0.151836	3.307601	1.000000	0.000009	0.000064	-0.000082	-0.883002	-9.621658	173.746906
38305	2.173215	-0.067725	12.911731	0.000745	-0.132057	3.280166	1.000000	-0.000007	0.000018	-0.000076	-0.885002	-9.625148	173.740591
38306	2.187444	-0.068663	12.930936	-0.009929	-0.130124	3.301492	1.000000	-0.000014	0.000062	-0.000063	-0.884972	-9.622673	173.732361
38307	2.216608	-0.070467	12.969232	-0.032184	-0.126924	3.344142	1.000000	0.000002	0.000043	-0.000066	-0.886094	-9.623311	173.727261
38308	2.176250	-0.046834	12.939350	-0.000202	-0.153402	3.307583	1.000000	-0.000004	0.000054	-0.000075	-0.884829	-9.622428	173.727334
38309	2.191920	-0.034824	12.926533	-0.019145	-0.163466	3.297381	1.000000	0.000005	0.000050	-0.000068	-0.885519	-9.622271	173.721937
38310	2.197562	-0.068495	12.950848	-0.016946	-0.129921	3.322809	1.000000	0.000002	0.000043	-0.000066	-0.884439	-9.622387	173.720261
38311	2.165988	-0.066372	12.912952	0.007657	-0.134566	3.280138	1.000000	-0.000008	0.000040	-0.000061	-0.886744	-9.623343	173.715658
38312	2.186801	-0.046314	12.959185	-0.007179	-0.153270	3.328895	1.000000	0.000028	0.000045	-0.000075	-0.882137	-9.623672	173.720653
38313	2.196037	-0.054448	12.919332	-0.021762	-0.142823	3.291275	1.000000	-0.000007	0.000044	-0.000091	-0.883774	-9.624292	173.712652
38314	2.162564	-0.065060	12.913533	0.011304	-0.135643	3.280124	1.000000	-0.000008	0.000051	-0.000054	-0.883935	-9.623923	173.714211
38315	2.176511	-0.065797	12.932796	0.000778	-0.134419	3.301453	1.000000	0.000002	0.000050	-0.000076	-0.884793	-9.623760	173.707869
38316	2.181940	-0.044970	12.960009	-0.002422	-0.155170	3.328874	1.000000	0.000002	0.000043	-0.000066	-0.883743	-9.623846	173.716938
38317	2.174158	-0.065179	12.933195	0.003100	-0.135373	3.301443	1.000000	-0.000004	0.000047	-0.000064	-0.885612	-9.624008	173.712063
38318	2.190009	-0.053244	12.920361	-0.015687	-0.144807	3.291261	1.000000	-0.000001	0.000043	-0.000074	-0.883979	-9.624854	173.720076
38319	2.219366	-0.055026	12.958651	-0.037902	-0.141654	3.333938	1.000000	-0.000014	0.000044	-0.000060	-0.887033	-9.625335	173.715687
38320	2.176976	-0.044355	12.960846	0.002624	-0.156874	3.328854	1.000000	-0.000010	0.000073	-0.000095	-0.886392	-9.622900	173.716221
38321	2.201129	-0.053814	12.940113	-0.023692	-0.144496	3.312591	1.000000	-0.000001	0.000043	-0.000074	-0.887668	-9.623535	173.710216
38322	2.160873	-0.030089	12.910159	0.008393	-0.171069	3.275978	1.000000	0.000012	0.000046	-0.000070	-0.885394	-9.624097	173.715285
38323	2.198841	-0.052902	12.940505	-0.021192	-0.145468	3.312585	1.000000	-0.000001	0.000043	-0.000074	-0.886668	-9.624733	173.709292
38324	2.180638	-0.064251	12.953730	0.000254	-0.136308	3.322755	1.000000	0.000005	0.000050	-0.000068	-0.884995	-9.624841	173.714242
38325	2.196303	-0.052201	12.940939	-0.018684	-0.146404	3.312578	1.000000	-0.000004	0.000054	-0.000075	-0.886599	-9.624206	173.708126
38326	2.186393	-0.030523	12.949109	-0.009967	-0.169107	3.318648	1.000000	0.000002	0.000043	-0.000065	-0.885503	-9.625084	173.714218
38327	2.152945	-0.041156	12.943267	0.023020	-0.162377	3.307455	1.000000	-0.000011	0.000051	-0.000062	-0.888120	-9.624775	173.709565
38328	2.192350	-0.051496	12.941612	-0.015240	-0.147526	3.312570	1.000000	0.000003	0.000064	-0.000098	-0.886061	-9.621713	173.699481
38329	2.175569	-0.050035	12.922813	-0.002378	-0.150169	3.291210	1.000000	0.000012	0.000057	-0.000062	-0.886125	-9.620769	173.694864
38330	2.189608	-0.050385	12.942081	-0.013111	-0.148386	3.312563	1.000000	0.000006	0.000035	-0.000094	-0.883733	-9.621105	173.680732
38331	2.197108	-0.016903	12.937165	-0.024651	-0.180945	3.308459	1.000000	-0.000005	0.000029	-0.000060	-0.885678	-9.623337	173.676365
38332	2.172447	-0.048976	12.923342	0.000762	-0.151097	3.291200	1.000000	-0.000004	0.000058	-0.000057	-0.884886	-9.621260	173.667320
38333	2.179832	-0.070149	12.915611	-0.005463	-0.129358	3.285130	1.000000	-0.000001	0.000043	-0.000074	-0.886146	-9.621894	173.661376
38334	2.202219	-0.037476	12.929824	-0.028633	-0.159470	3.302391	1.000000	0.000012	0.000046	-0.000070	-0.883673	-9.622048	173.663621
38335	2.184072	-0.048784	12.943022	-0.007328	-0.150815	3.312539	1.000000	-0.000004	0.000043	-0.000082	-0.885105	-9.622678	173.656711
38336	2.182874	-0.048416	12.943226	-0.006059	-0.150932	3.312539	1.000000	0.000008	0.000050	-0.000060	-0.882884	-9.622510	173.661636
38337	2.196638	-0.049121	12.962547	-0.016544	-0.149747	3.333892	1.000000	-0.000014	0.000062	-0.000063	-0.885822	-9.620928	173.656897
38338	2.197068	-0.036397	12.930703	-0.023652	-0.161086	3.302381	1.000000	-0.000007	0.000043	-0.000091	-0.884367	-9.621781	173.662956
38339	2.161957	-0.059625	12.956883	0.017773	-0.143032	3.322672	1.000000	0.000002	0.000043	-0.000065	-0.885445	-9.622423	173.658018
38340	2.193002	-0.048512	12.963165	-0.012763	-0.150719	3.333886	1.000000	-0.000004	0.000047	-0.000064	-0.884963	-9.622546	173.659467
38341	2.185212	-0.068779	12.936359	-0.007351	-0.130885	3.306462	1.000000	-0.000001	0.000054	-0.000066	-0.886373	-9.621916	173.654405
38342	2.183965	-0.068497	12.936571	-0.006010	-0.131073	3.306461	1.000000	-0.000001	0.000043	-0.000074	-0.885203	-9.622836	173.664269
38343	2.191029	-0.035211	12.931731	-0.017512	-0.163644	3.302359	1.000000	-0.000011	0.000051	-0.000062	-0.887799	-9.622528	173.659694
