// Start Time: Unknown
// Update Rate: 100.0Hz
// Filter Profile: human (46.1)
// Firmware Version: 4.4.0
PacketCounter	Acc_X	Acc_Y	Acc_Z	FreeAcc_X	FreeAcc_Y	FreeAcc_Z	OriInc_q0	OriInc_q1	OriInc_q2	OriInc_q3	Roll	Pitch	Yaw
42701	9.620505	-0.017704	-2.108736	-0.000000	0.000000	0.036231	1.000000	-0.000011	0.000026	0.000023	-179.524458	-77.634857	-124.323877
42702	9.608917	-0.029353	-2.160385	-0.000000	0.000000	0.036140	1.000000	-0.000009	0.000025	0.000031	-179.228976	-77.326266	-124.976575
42703	9.617100	0.003585	-2.157551	-0.010258	0.032965	0.043400	1.000000	-0.000014	0.000015	0.000030	-179.366225	-77.480867	-124.666214
42704	9.638670	-0.036279	-2.176391	0.030249	0.022641	0.068634	1.000000	-0.000011	0.000026	0.000023	-179.355409	-77.483810	-124.678554
42705	9.620413	-0.034931	-2.137853	0.010283	-0.003881	0.042456	1.000000	-0.000020	0.000024	0.000017	-179.346462	-77.486669	-124.690649
42706	9.620051	-0.050684	-2.168226	0.039996	0.012549	0.048722	1.000000	-0.000027	0.000029	0.000027	-179.335412	-77.489925	-124.705148
42707	9.609901	-0.015949	-2.127200	-0.009982	0.001313	0.029839	1.000000	-0.000011	0.000026	0.000023	-179.323839	-77.492979	-124.718601
42708	9.620261	-0.051469	-2.167275	0.039985	0.012580	0.048722	1.000000	-0.000009	0.000019	0.000021	-179.313677	-77.495071	-124.730059
42709	9.639651	-0.022561	-2.143221	0.000434	0.006413	0.062369	1.000000	-0.000018	0.000017	0.000015	-179.305850	-77.497411	-124.741298
42710	9.610176	-0.016943	-2.125951	-0.010004	0.001417	0.029839	1.000000	-0.000013	0.000033	0.000025	-179.294327	-77.501199	-124.754572
42711	9.613413	-0.055028	-2.106516	0.010578	-0.035995	0.028895	1.000000	-0.000022	0.000032	0.000018	-179.294242	-77.502327	-124.752365
42712	9.628790	-0.019332	-2.162920	0.009863	0.027505	0.056018	1.000000	-0.000014	0.000015	0.000030	-179.280108	-77.504057	-124.768523
42713	9.621252	-0.037847	-2.134023	0.010186	-0.004388	0.042456	1.000000	-0.000013	0.000033	0.000025	-179.269997	-77.507044	-124.778945
42714	9.621806	-0.022881	-2.102740	-0.019526	-0.020820	0.036190	1.000000	-0.000013	0.000008	0.000029	-179.256534	-77.507924	-124.794204
42715	9.629506	-0.005352	-2.130918	-0.019902	0.011219	0.049752	1.000000	-0.000007	0.000018	0.000029	-179.237349	-77.511233	-124.817333
42716	9.610265	-0.034994	-2.154295	0.019628	0.017491	0.036105	1.000000	-0.000009	0.000019	0.000021	-179.227156	-77.513321	-124.828821
42717	9.629657	-0.006175	-2.130234	-0.019935	0.010901	0.049752	1.000000	-0.000016	0.000016	0.000023	-179.221340	-77.513524	-124.833604
42718	9.588488	-0.011830	-2.165234	0.008799	0.043930	0.017138	1.000000	-0.000016	0.000023	0.000032	-179.206499	-77.516098	-124.850697
42719	9.651759	-0.031082	-2.117813	-0.009133	-0.016198	0.068719	1.000000	-0.000009	0.000019	0.000021	-179.201703	-77.516566	-124.853967
42720	9.618259	-0.018616	-2.181187	0.019239	0.048583	0.049670	1.000000	-0.000011	0.000026	0.000023	-179.190815	-77.519500	-124.866378
42721	9.610673	-0.037109	-2.152439	0.019562	0.016710	0.036107	1.000000	-0.000013	0.000008	0.000029	-179.178415	-77.519658	-124.880453
42722	9.618854	-0.004078	-2.149717	-0.010510	0.032025	0.043403	1.000000	-0.000009	0.000019	0.000021	-179.168205	-77.521743	-124.891959
42723	9.611304	-0.022444	-2.120791	-0.010121	0.000309	0.029839	1.000000	-0.000014	0.000034	0.000017	-179.160938	-77.525866	-124.903417
42724	9.610952	-0.038182	-2.151175	0.019590	0.016741	0.036107	1.000000	-0.000009	0.000019	0.000021	-179.150715	-77.527951	-124.914936
42725	9.629432	-0.040219	-2.188833	0.039423	0.043191	0.062288	1.000000	-0.000025	0.000021	0.000025	-179.141000	-77.529486	-124.928532
42726	9.600373	-0.019295	-2.140870	-0.000726	0.021765	0.023490	1.000000	-0.000005	0.000010	0.000027	-179.127274	-77.530627	-124.943206
42727	9.641251	-0.029927	-2.135919	0.000151	0.004951	0.062370	1.000000	-0.000007	0.000036	0.000016	-179.120697	-77.533407	-124.951613
42728	9.611749	-0.024435	-2.118754	-0.010285	-0.000042	0.029839	1.000000	-0.000018	0.000005	0.000038	-179.103229	-77.533915	-124.971606
42729	9.611314	-0.040345	-2.149517	0.019132	0.016192	0.036108	1.000000	0.000009	0.000008	0.000016	-179.090424	-77.532915	-124.984357
42730	9.641430	-0.031329	-2.135092	-0.000146	0.004754	0.062370	1.000000	-0.000016	0.000023	0.000032	-179.075513	-77.535477	-125.001522
42731	9.619616	-0.007793	-2.146295	-0.011061	0.031299	0.043405	1.000000	-0.000018	0.000024	0.000024	-179.065388	-77.536724	-125.015076
42732	9.622768	-0.045867	-2.127019	0.009549	-0.005612	0.042456	1.000000	-0.000013	0.000027	0.000015	-179.058633	-77.539748	-125.023475
42733	9.600968	-0.022258	-2.138172	-0.001286	0.020987	0.023491	1.000000	-0.000009	0.000025	0.000031	-179.044986	-77.541683	-125.040667
42734	9.630650	-0.028758	-2.154520	0.009149	0.025977	0.056023	1.000000	-0.000007	0.000018	0.000029	-179.030528	-77.543666	-125.056305
42735	9.601186	-0.023129	-2.137184	-0.001486	0.020345	0.023493	1.000000	-0.000018	0.000042	0.000011	-179.032172	-77.544749	-125.053572
42736	9.620190	-0.009635	-2.143712	-0.011305	0.030496	0.043407	1.000000	-0.000025	0.000021	0.000025	-179.021702	-77.547134	-125.067250
42737	9.620282	-0.010177	-2.143299	-0.011394	0.030252	0.043407	1.000000	0.000009	0.000022	0.000034	-179.004384	-77.548085	-125.086525
42738	9.612227	-0.044259	-2.145355	0.018677	0.014933	0.036111	1.000000	-0.000016	0.000023	0.000032	-178.989475	-77.550643	-125.103683
42739	9.609320	-0.006979	-2.163604	-0.002274	0.051100	0.037067	1.000000	-0.000013	0.000033	0.000025	-178.981873	-77.549721	-125.109461
42740	9.612479	-0.045236	-2.144205	0.018335	0.014187	0.036113	1.000000	-0.000018	0.000030	0.000034	-178.966224	-77.553104	-125.127562
42741	9.631456	-0.031962	-2.150868	0.008289	0.023784	0.056029	1.000000	-0.000009	0.000019	0.000021	-178.959454	-77.551776	-125.135908
42742	9.609647	-0.008320	-2.162146	-0.002510	0.050542	0.037069	1.000000	-0.000002	0.000021	0.000020	-178.948845	-77.554083	-125.146931
42743	9.642830	-0.037054	-2.128669	-0.001163	0.001486	0.062371	1.000000	-0.000005	0.000036	0.000023	-178.948143	-77.554848	-125.147675
42744	9.612893	-0.046808	-2.142313	0.018111	0.012930	0.036115	1.000000	-0.000018	0.000017	0.000015	-178.942249	-77.556719	-125.155790
42745	9.631864	-0.033529	-2.149016	0.008197	0.022413	0.056033	1.000000	-0.000023	0.000027	0.000042	-178.930865	-77.556275	-125.169713
42746	9.591209	-0.023643	-2.153052	0.007218	0.039025	0.017160	1.000000	0.000002	0.000025	0.000004	-178.928450	-77.559039	-125.171912
42747	9.632096	-0.034254	-2.147966	0.008586	0.021901	0.056033	1.000000	-0.000011	0.000033	0.000032	-178.929229	-77.561642	-125.175029
42748	9.610349	-0.010722	-2.159015	-0.002208	0.048661	0.037079	1.000000	-0.000020	0.000031	0.000026	-178.917811	-77.565121	-125.189009
42749	9.602728	-0.029241	-2.130168	-0.001733	0.015931	0.023501	1.000000	-0.000014	0.000015	0.000030	-178.921668	-77.562508	-125.183060
42750	9.643582	-0.039997	-2.125207	-0.000755	-0.000699	0.062371	1.000000	-0.000003	0.000028	0.000022	-178.910627	-77.565668	-125.194698
42751	9.610661	-0.011973	-2.157621	-0.002517	0.047008	0.037087	1.000000	-0.000013	0.000027	0.000015	-178.904538	-77.564126	-125.203080
42752	9.621878	-0.016648	-2.136078	-0.011978	0.025402	0.043420	1.000000	-0.000011	0.000001	0.000027	-178.891764	-77.564092	-125.217343
42753	9.621487	-0.032399	-2.166739	0.017763	0.041186	0.049706	1.000000	-0.000020	0.000024	0.000017	-178.895912	-77.563886	-125.217050
42754	9.610841	-0.013048	-2.156809	-0.002491	0.046348	0.037090	1.000000	-0.000013	0.000008	0.000029	-178.882434	-77.564703	-125.232252
42755	9.651667	-0.023871	-2.151964	-0.001942	0.029120	0.075959	1.000000	-0.000016	0.000023	0.000032	-178.867321	-77.562987	-125.252899
42756	9.611005	-0.014113	-2.156073	-0.002918	0.045745	0.037093	1.000000	-0.000016	0.000023	0.000032	-178.852324	-77.565494	-125.270093
42757	9.622253	-0.018899	-2.134371	-0.012329	0.022956	0.043426	1.000000	-0.000002	0.000021	0.000020	-178.861557	-77.562330	-125.255515
42758	9.633059	-0.039002	-2.143563	0.007918	0.017774	0.056042	1.000000	-0.000018	0.000024	0.000024	-178.850858	-77.564910	-125.268470
42759	9.611274	-0.015333	-2.154867	-0.002810	0.043736	0.037102	1.000000	-0.000024	0.000014	0.000024	-178.855183	-77.562832	-125.267075
42760	9.622520	-0.020044	-2.133157	-0.012270	0.022123	0.043428	1.000000	0.000004	0.000031	0.000021	-178.843829	-77.566215	-125.278131
42761	9.603750	-0.034183	-2.125480	-0.002505	0.011366	0.023507	1.000000	-0.000027	0.000029	0.000027	-178.840977	-77.566296	-125.287987
42762	9.622297	-0.036147	-2.163079	0.017379	0.037917	0.049720	1.000000	-0.000002	0.000014	0.000011	-178.835415	-77.567828	-125.293788
42763	9.611639	-0.016783	-2.153224	-0.002642	0.041930	0.037110	1.000000	-0.000005	0.000010	0.000027	-178.845158	-77.564216	-125.279040
42764	9.614670	-0.055007	-2.134129	0.017978	0.005007	0.036123	1.000000	-0.000018	0.000024	0.000024	-178.834686	-77.566790	-125.291717
42765	9.630705	-0.003887	-2.159575	-0.012591	0.051068	0.057039	1.000000	-0.000002	0.000021	0.000020	-178.836533	-77.564060	-125.287611
42766	9.611889	-0.018070	-2.152101	-0.002770	0.040920	0.037114	1.000000	-0.000007	0.000018	0.000029	-178.822309	-77.565928	-125.302812
42767	9.623125	-0.022865	-2.130395	-0.011851	0.018600	0.043436	1.000000	-0.000011	0.000026	0.000023	-178.830848	-77.566718	-125.297364
42768	9.593137	-0.032693	-2.144327	0.007430	0.030058	0.017191	1.000000	-0.000011	0.000001	0.000027	-178.818428	-77.566651	-125.311163
42769	9.622796	-0.039042	-2.160807	0.018035	0.033941	0.049733	1.000000	-0.000020	0.000024	0.000017	-178.832656	-77.564915	-125.295125
42770	9.623332	-0.024045	-2.129448	-0.011660	0.017485	0.043438	1.000000	-0.000016	0.000023	0.000032	-178.818332	-77.567378	-125.311455
42771	9.623019	-0.039995	-2.159799	0.017581	0.032988	0.049737	1.000000	-0.000003	0.000035	0.000031	-178.806294	-77.565310	-125.322817
42772	9.601303	-0.016343	-2.170898	0.006784	0.059742	0.030811	1.000000	-0.000020	0.000024	0.000017	-178.800239	-77.567942	-125.331089
42773	9.623672	-0.025406	-2.127895	-0.011911	0.015250	0.043441	1.000000	0.000000	0.000020	0.000028	-178.810295	-77.564795	-125.313568
42774	9.604846	-0.039582	-2.120431	-0.002079	0.005096	0.023512	1.000000	-0.000009	0.000018	0.000021	-178.800726	-77.566716	-125.324073
42775	9.612712	-0.021907	-2.148386	-0.002100	0.036129	0.037133	1.000000	-0.000011	0.000026	0.000023	-178.808520	-77.567557	-125.318543
42776	9.646212	-0.035322	-2.084065	-0.030431	-0.028735	0.056063	1.000000	-0.000025	0.000021	0.000025	-178.798875	-77.569813	-125.331054
42777	9.612875	-0.022657	-2.147649	-0.001797	0.035559	0.037135	1.000000	0.000009	0.000008	0.000016	-178.804293	-77.569188	-125.327537
42778	9.612940	-0.023101	-2.147350	-0.001776	0.035524	0.037135	1.000000	-0.000016	0.000023	0.000032	-178.790334	-77.571637	-125.343413
42779	9.623298	-0.058662	-2.187481	0.048115	0.045541	0.056050	1.000000	-0.000009	0.000018	0.000021	-178.798219	-77.567534	-125.328335
42780	9.613566	-0.008655	-2.115552	-0.031526	0.017796	0.030837	1.000000	-0.000011	0.000033	0.000032	-178.783369	-77.571044	-125.344390
42781	9.642874	-0.030530	-2.162604	0.007946	0.038360	0.069684	1.000000	-0.000011	0.000026	0.000023	-178.770271	-77.567870	-125.358550
42782	9.624482	-0.029253	-2.124182	-0.011921	0.011769	0.043446	1.000000	-0.000009	0.000018	0.000021	-178.760845	-77.569749	-125.368825
42783	9.632370	-0.011581	-2.152108	-0.012284	0.042535	0.057079	1.000000	-0.000003	0.000028	0.000022	-178.764965	-77.568459	-125.361019
42784	9.613559	-0.025687	-2.144549	-0.002450	0.032379	0.037146	1.000000	-0.000025	0.000021	0.000025	-178.755355	-77.570627	-125.373359
42785	9.624808	-0.030446	-2.122687	-0.011585	0.009678	0.043449	1.000000	0.000002	0.000038	0.000022	-178.767118	-77.570791	-125.354637
42786	9.613805	-0.026500	-2.143438	-0.002134	0.031237	0.037150	1.000000	-0.000009	0.000018	0.000021	-178.757914	-77.572624	-125.364577
42787	9.613876	-0.026947	-2.143112	-0.001994	0.030413	0.037152	1.000000	-0.000014	0.000015	0.000030	-178.759708	-77.570879	-125.362017
42788	9.614385	-0.012111	-2.111810	-0.031680	0.013910	0.030843	1.000000	-0.000009	0.000025	0.000031	-178.745651	-77.573446	-125.376894
42789	9.633398	0.001056	-2.118473	-0.042069	0.023308	0.050779	1.000000	-0.000007	0.000018	0.000029	-178.729577	-77.570167	-125.394748
42790	9.625272	-0.032851	-2.120546	-0.011980	0.007976	0.043450	1.000000	-0.000020	0.000031	0.000026	-178.719067	-77.573384	-125.407262
42791	9.614239	-0.028872	-2.141460	-0.001948	0.028751	0.037157	1.000000	-0.000014	0.000009	0.000021	-178.736240	-77.572347	-125.387583
42792	9.633214	-0.015597	-2.148300	-0.011767	0.038782	0.057095	1.000000	-0.000014	0.000015	0.000030	-178.723202	-77.573773	-125.402009
42793	9.614370	-0.029758	-2.140857	-0.001643	0.027799	0.037160	1.000000	0.000006	0.000023	0.000019	-178.733032	-77.573151	-125.387721
42794	9.633394	-0.016521	-2.147486	-0.011457	0.037821	0.057100	1.000000	-0.000016	0.000023	0.000032	-178.719449	-77.575412	-125.402870
42795	9.595652	-0.044407	-2.132829	0.008241	0.016685	0.017222	1.000000	-0.000020	0.000031	0.000026	-178.723887	-77.574489	-125.396402
42796	9.644729	-0.021837	-2.125174	-0.020837	0.015167	0.063393	1.000000	-0.000023	0.000021	0.000033	-178.710647	-77.576455	-125.411996
42797	9.603667	-0.027272	-2.160304	0.008241	0.047116	0.030879	1.000000	-0.000002	0.000021	0.000020	-178.727921	-77.574347	-125.385970
42798	9.633399	-0.033697	-2.176491	0.018692	0.051945	0.063424	1.000000	-0.000020	0.000031	0.000026	-178.718233	-77.577498	-125.397400
42799	9.614987	-0.032344	-2.138049	-0.001030	0.024547	0.037169	1.000000	-0.000018	0.000017	0.000015	-178.728921	-77.575780	-125.384961
42800	9.634019	-0.019032	-2.144659	-0.010840	0.034539	0.057112	1.000000	-0.000018	0.000030	0.000034	-178.715107	-77.578812	-125.400362
42801	9.615207	-0.033296	-2.137041	-0.000981	0.023667	0.037171	1.000000	-0.000002	0.000027	0.000030	-178.712642	-77.578221	-125.400685
42802	9.615745	-0.018184	-2.105567	-0.030646	0.007115	0.030854	1.000000	-0.000009	0.000030	-0.000001	-178.715898	-77.581340	-125.397535
42803	9.615435	-0.033861	-2.136007	-0.000173	0.023097	0.037172	1.000000	0.000002	0.000019	0.000036	-178.721956	-77.583890	-125.392883
42804	9.634477	-0.020795	-2.142588	-0.009972	0.033083	0.057118	1.000000	-0.000018	0.000030	0.000034	-178.708398	-77.586945	-125.408013
42805	9.593449	-0.026223	-2.177643	0.018951	0.065496	0.024611	1.000000	-0.000002	0.000021	0.000020	-178.715390	-77.586473	-125.398660
42806	9.605043	-0.015612	-2.125045	-0.020123	0.027312	0.024576	1.000000	-0.000009	0.000018	0.000021	-178.707342	-77.588201	-125.407066
42807	9.612576	-0.013215	-2.183867	0.009640	0.074893	0.044562	1.000000	-0.000005	0.000029	0.000014	-178.720248	-77.590371	-125.394584
42808	9.623768	-0.017973	-2.162137	0.000258	0.053167	0.050843	1.000000	-0.000014	0.000015	0.000030	-178.708362	-77.591747	-125.407561
42809	9.616011	-0.036582	-2.133368	0.001381	0.021051	0.037177	1.000000	-0.000002	0.000027	0.000030	-178.715221	-77.595309	-125.404254
42810	9.635041	-0.023349	-2.140023	-0.008397	0.031031	0.057126	1.000000	-0.000024	0.000014	0.000024	-178.707952	-77.596565	-125.413613
42811	9.594401	-0.013302	-2.144299	-0.009139	0.047194	0.018305	1.000000	-0.000018	0.000024	0.000024	-178.712070	-77.597469	-125.411906
42812	9.626976	-0.057630	-2.141690	0.022023	0.015130	0.049772	1.000000	-0.000011	0.000033	0.000032	-178.698679	-77.600857	-125.426039
42813	9.602498	0.003806	-2.171574	-0.009411	0.077622	0.031986	1.000000	-0.000018	0.000024	0.000024	-178.708668	-77.598190	-125.410382
42814	9.624370	-0.020696	-2.159432	0.001491	0.050720	0.050856	1.000000	-0.000018	0.000024	0.000024	-178.700604	-77.600533	-125.419843
42815	9.635581	-0.025565	-2.137564	-0.008060	0.028122	0.057135	1.000000	-0.000003	0.000035	0.000031	-178.696568	-77.599413	-125.419675
42816	9.616750	-0.039735	-2.129980	0.001821	0.017952	0.037183	1.000000	-0.000025	0.000021	0.000025	-178.688743	-77.601458	-125.429702
42817	9.614029	-0.002391	-2.148288	-0.019642	0.053573	0.038275	1.000000	-0.000016	0.000023	0.000032	-178.676077	-77.595430	-125.435495
42818	9.635844	-0.027104	-2.136358	-0.008749	0.026657	0.057139	1.000000	-0.000002	0.000002	0.000034	-178.661378	-77.595182	-125.449691
42819	9.606289	-0.021504	-2.119352	-0.017902	0.020852	0.024597	1.000000	-0.000014	0.000034	0.000017	-178.696862	-77.599087	-125.410748
42820	9.624965	-0.023577	-2.156747	0.001996	0.047264	0.050873	1.000000	-0.000009	0.000025	0.000031	-178.684636	-77.601512	-125.423231
42821	9.636132	-0.028425	-2.135041	-0.006831	0.024832	0.057145	1.000000	-0.000016	0.000016	0.000023	-178.699971	-77.601520	-125.406914
42822	9.595111	-0.033791	-2.170202	0.021872	0.057937	0.024652	1.000000	-0.000002	0.000027	0.000030	-178.687688	-77.604220	-125.418580
42823	9.625220	-0.024868	-2.155597	0.002870	0.045479	0.050881	1.000000	-0.000024	0.000007	0.000014	-178.701815	-77.601675	-125.403657
42824	9.606730	-0.023646	-2.117332	-0.016910	0.018825	0.024602	1.000000	-0.000007	0.000024	0.000038	-178.685678	-77.603994	-125.419874
42825	9.614726	-0.006051	-2.145162	-0.017328	0.049493	0.038300	1.000000	-0.000005	0.000029	0.000014	-178.695068	-77.602456	-125.404495
42826	9.625923	-0.010772	-2.123298	-0.026667	0.027718	0.044565	1.000000	-0.000027	0.000029	0.000027	-178.687168	-77.605268	-125.414584
42827	9.606677	-0.040272	-2.146677	0.013057	0.033036	0.030931	1.000000	-0.000009	0.000025	0.000031	-178.694521	-77.603484	-125.400980
42828	9.636408	-0.046800	-2.162883	0.023558	0.037782	0.063478	1.000000	-0.000002	0.000021	0.000020	-178.687474	-77.605377	-125.407144
42829	9.614763	-0.023131	-2.174135	0.012323	0.063754	0.044637	1.000000	-0.000009	0.000025	0.000031	-178.677416	-77.603003	-125.414169
42830	9.637005	-0.032397	-2.131043	-0.006409	0.020320	0.057156	1.000000	-0.000018	0.000024	0.000024	-178.670032	-77.605176	-125.422570
42831	9.585357	-0.017782	-2.156464	0.002930	0.057846	0.012096	1.000000	-0.000016	0.000035	0.000009	-178.703019	-77.608290	-125.386335
42832	9.648300	-0.037363	-2.108686	-0.014734	-0.002368	0.063416	1.000000	-0.000014	0.000015	0.000030	-178.692477	-77.609531	-125.397512
42833	9.626249	-0.029094	-2.150943	0.003916	0.040779	0.050902	1.000000	-0.000016	0.000023	0.000032	-178.676687	-77.610908	-125.422119
42834	9.615654	-0.009882	-2.140985	-0.016295	0.045801	0.038320	1.000000	0.000002	0.000013	0.000026	-178.666228	-77.611853	-125.431344
42835	9.626790	-0.014655	-2.119338	-0.025463	0.023085	0.044580	1.000000	-0.000027	0.000022	0.000018	-178.681664	-77.610039	-125.410814
42836	9.626478	-0.030287	-2.149902	0.004268	0.039434	0.050907	1.000000	-0.000016	0.000016	0.000023	-178.675294	-77.611380	-125.417939
42837	9.607583	-0.044409	-2.142535	0.014183	0.028642	0.030943	1.000000	0.000000	0.000020	0.000028	-178.674245	-77.610255	-125.417313
42838	9.626612	-0.031256	-2.149284	0.004414	0.038527	0.050910	1.000000	-0.000013	0.000008	0.000029	-178.664433	-77.610634	-125.427513
42839	9.645650	-0.018108	-2.156005	-0.004513	0.048014	0.070881	1.000000	-0.000016	0.000023	0.000032	-178.678160	-77.613700	-125.416328
42840	9.607797	-0.045830	-2.141545	0.015234	0.027811	0.030944	1.000000	-0.000004	0.000022	0.000013	-178.675775	-77.615702	-125.417872
42841	9.648578	-0.056615	-2.136478	0.016421	0.010607	0.069743	1.000000	-0.000009	0.000018	0.000021	-178.674811	-77.616219	-125.423565
42842	9.597356	-0.026805	-2.130905	-0.004839	0.032407	0.018368	1.000000	-0.000016	0.000048	0.000028	-178.665550	-77.621244	-125.433647
42843	9.623997	-0.010805	-2.196589	0.015196	0.089418	0.058392	1.000000	0.000000	0.000013	0.000019	-178.689439	-77.619311	-125.400055
42844	9.597203	-0.042863	-2.160772	0.025568	0.047565	0.024699	1.000000	-0.000007	0.000036	0.000016	-178.685870	-77.623003	-125.403184
42845	9.605639	-0.009780	-2.157618	-0.004478	0.061595	0.032103	1.000000	-0.000002	0.000021	0.000020	-178.695182	-77.620116	-125.385120
42846	9.625109	0.018822	-2.133222	-0.043890	0.054950	0.045749	1.000000	-0.000003	0.000028	0.000022	-178.688220	-77.622825	-125.391234
42847	9.616888	-0.014972	-2.135403	-0.013718	0.038903	0.038353	1.000000	-0.000016	0.000016	0.000023	-178.693108	-77.620659	-125.382464
42848	9.605901	-0.010758	-2.156445	-0.004262	0.060402	0.032110	1.000000	-0.000011	0.000013	0.000004	-178.696298	-77.621603	-125.379025
42849	9.627700	-0.035139	-2.144346	0.006782	0.033513	0.050927	1.000000	-0.000027	0.000029	0.000027	-178.688949	-77.624936	-125.396603
42850	9.617523	-0.000299	-2.103327	-0.043076	0.022007	0.032026	1.000000	-0.000013	0.000020	0.000006	-178.691332	-77.626756	-125.394263
42851	9.616464	-0.046499	-2.195739	0.045316	0.070505	0.051023	1.000000	-0.000025	0.000021	0.000025	-178.683965	-77.622303	-125.400080
42852	9.636307	-0.002570	-2.140436	-0.023758	0.047341	0.058335	1.000000	-0.000018	0.000024	0.000024	-178.677356	-77.624446	-125.407523
42853	9.609079	-0.050010	-2.135693	0.017471	0.020946	0.030957	1.000000	-0.000024	0.000014	0.000024	-178.715308	-77.624483	-125.363003
42854	9.606449	-0.012561	-2.153992	-0.003195	0.057603	0.032128	1.000000	-0.000003	0.000028	0.000022	-178.708616	-77.627167	-125.368762
42855	9.609276	-0.050708	-2.134787	0.018473	0.019845	0.030957	1.000000	-0.000020	0.000024	0.000016	-178.737238	-77.628554	-125.335926
42856	9.595996	0.006483	-2.143444	-0.022478	0.061643	0.019568	1.000000	0.000000	0.000020	0.000028	-178.727311	-77.630298	-125.344540
42857	9.628091	-0.053234	-2.171783	0.038993	0.045280	0.057270	1.000000	-0.000013	0.000033	0.000025	-178.743594	-77.631761	-125.324668
42858	9.606902	-0.014155	-2.151963	-0.001483	0.055402	0.032141	1.000000	0.000020	0.000028	0.000017	-178.737323	-77.634407	-125.327161
42859	9.607011	-0.014552	-2.151471	-0.001093	0.054359	0.032146	1.000000	-0.000018	0.000024	0.000024	-178.751810	-77.633417	-125.308270
42860	9.637125	-0.005781	-2.136742	-0.020181	0.042502	0.058365	1.000000	-0.000007	0.000018	0.000029	-178.742465	-77.634884	-125.317072
42861	9.607193	-0.015471	-2.150655	-0.001525	0.053116	0.032153	1.000000	-0.000011	0.000026	0.000023	-178.736215	-77.630913	-125.318259
42862	9.626671	0.013106	-2.126208	-0.040909	0.046394	0.045806	1.000000	-0.000011	0.000026	0.000023	-178.730290	-77.633285	-125.323936
42863	9.637416	-0.007102	-2.135425	-0.020369	0.040297	0.058374	1.000000	-0.000014	0.000015	0.000030	-178.736514	-77.631317	-125.314645
42864	9.626475	-0.003130	-2.156352	-0.010917	0.061783	0.052147	1.000000	-0.000011	0.000026	0.000023	-178.730685	-77.633677	-125.320189
42865	9.607551	-0.017228	-2.149039	-0.002147	0.050217	0.032168	1.000000	-0.000013	0.000008	0.000029	-178.718278	-77.623382	-125.321434
42866	9.607626	-0.017756	-2.148699	-0.002057	0.050019	0.032169	1.000000	-0.000002	0.000027	0.000030	-178.707869	-77.625817	-125.330488
42867	9.618756	-0.022660	-2.126905	-0.011179	0.027366	0.038395	1.000000	-0.000025	0.000021	0.000025	-178.717636	-77.624325	-125.317812
42868	9.618869	-0.023138	-2.126388	-0.011087	0.027164	0.038396	1.000000	-0.000011	0.000033	0.000032	-178.706837	-77.627325	-125.328296
42869	9.608344	-0.003878	-2.116188	-0.030175	0.031980	0.025839	1.000000	-0.000003	0.000028	0.000022	-178.727546	-77.633068	-125.309931
42870	9.629772	-0.043867	-2.134861	0.010519	0.021500	0.050958	1.000000	0.000006	0.000030	0.000028	-178.717177	-77.635802	-125.318091
42871	9.618848	-0.039820	-2.155745	0.019417	0.042428	0.044741	1.000000	0.000006	0.000016	0.000010	-178.713251	-77.632569	-125.318956
42872	9.619320	-0.025060	-2.124324	-0.010121	0.025683	0.038401	1.000000	0.000000	0.000033	0.000046	-178.693867	-77.635646	-125.336959
42873	9.600433	-0.039346	-2.116803	-0.000059	0.015271	0.018411	1.000000	0.000006	0.000023	0.000019	-178.694708	-77.636890	-125.336910
42874	9.627516	-0.008002	-2.151688	-0.010312	0.056699	0.052178	1.000000	-0.000009	0.000018	0.000021	-178.689683	-77.638336	-125.341316
42875	9.636289	0.040199	-2.117883	-0.071174	0.055003	0.053265	1.000000	-0.000018	0.000005	0.000037	-178.651865	-77.633843	-125.385077
42876	9.589237	-0.051694	-2.168211	0.038013	0.052834	0.018540	1.000000	-0.000023	0.000021	0.000033	-178.642072	-77.635472	-125.396090
42877	9.606767	0.045193	-2.100700	-0.081644	0.049187	0.020719	1.000000	-0.000014	0.000015	0.000030	-178.637686	-77.633088	-125.398302
42878	9.619397	-0.043620	-2.153222	0.018804	0.040144	0.044752	1.000000	-0.000013	0.000015	0.000038	-178.624132	-77.634014	-125.411865
42879	9.617189	0.008847	-2.140636	-0.030435	0.060124	0.039631	1.000000	-0.000022	0.000020	0.000041	-178.635979	-77.638969	-125.407152
42880	9.630217	-0.064687	-2.162026	0.040393	0.034536	0.057307	1.000000	-0.000018	0.000030	0.000033	-178.625368	-77.641739	-125.418377
42881	9.619629	-0.045524	-2.152146	0.020692	0.039158	0.044752	1.000000	-0.000016	-0.000002	0.000036	-178.629967	-77.640923	-125.416423
42882	9.611288	-0.079412	-2.154639	0.050932	0.023856	0.037311	1.000000	-0.000009	0.000018	0.000021	-178.624882	-77.642391	-125.420944
42883	9.630405	-0.066247	-2.161140	0.040498	0.033031	0.057312	1.000000	-0.000018	0.000030	0.000033	-178.608400	-77.640004	-125.437558
42884	9.611499	-0.080359	-2.153661	0.050436	0.022871	0.037316	1.000000	0.000006	0.000023	0.000019	-178.602697	-77.641971	-125.440975
42885	9.630651	-0.067145	-2.160017	0.041023	0.031745	0.057314	1.000000	0.000009	0.000040	0.000021	-178.617105	-77.642793	-125.418438
42886	9.598522	-0.023531	-2.161416	0.009851	0.063512	0.026000	1.000000	0.000009	0.000034	0.000012	-178.614792	-77.645965	-125.417912
42887	9.620359	-0.047967	-2.148827	0.020771	0.035996	0.044764	1.000000	0.000002	0.000057	0.000009	-178.618934	-77.648988	-125.410999
42888	9.588249	-0.004363	-2.150162	-0.010405	0.067761	0.013453	1.000000	0.000015	0.000025	0.000026	-178.608899	-77.651091	-125.417724
42889	9.599381	-0.009311	-2.128226	-0.018207	0.044998	0.019667	1.000000	0.000002	0.000038	0.000022	-178.647847	-77.655492	-125.370660
42890	9.597261	0.043417	-2.115340	-0.068550	0.065012	0.014573	1.000000	0.000020	0.000028	0.000017	-178.642157	-77.657988	-125.372266
42891	9.627035	0.036808	-2.131422	-0.056297	0.068996	0.047140	1.000000	-0.000016	0.000023	0.000032	-178.680434	-77.662705	-125.331756
42892	9.616827	0.071271	-2.090527	-0.106105	0.057354	0.028257	1.000000	-0.000020	0.000012	0.000039	-178.668189	-77.663435	-125.344765
42893	9.646174	0.049097	-2.137897	-0.066735	0.078013	0.067148	1.000000	-0.000024	0.000002	0.000046	-178.641851	-77.657733	-125.372045
42894	9.646141	0.048419	-2.138059	-0.066620	0.077798	0.067150	1.000000	-0.000044	-0.000019	0.000039	-178.632670	-77.654834	-125.384696
42895	9.658954	-0.025067	-2.160231	0.004551	0.051801	0.084783	1.000000	-0.000045	-0.000012	0.000041	-178.636106	-77.651713	-125.387041
42896	9.617902	-0.030357	-2.196105	0.033145	0.085040	0.052377	1.000000	-0.000047	-0.000004	0.000042	-178.625536	-77.650509	-125.401531
42897	9.631463	-0.073197	-2.156194	0.043547	0.025854	0.057320	1.000000	-0.000056	-0.000006	0.000036	-178.599738	-77.642589	-125.432867
42898	9.631121	-0.089048	-2.187037	0.073275	0.042206	0.063669	1.000000	-0.000053	0.000018	0.000047	-178.586750	-77.643879	-125.450444
42899	9.620583	-0.069821	-2.177000	0.053717	0.046308	0.051124	1.000000	-0.000011	0.000026	0.000023	-178.608853	-77.644392	-125.421977
42900	9.625508	-0.161223	-2.170080	0.125134	-0.010880	0.054930	1.000000	-0.000020	0.000031	0.000026	-178.603211	-77.647221	-125.428156
42901	9.612426	-0.104016	-2.178537	0.083745	0.030330	0.043663	1.000000	0.000004	0.000030	0.000021	-178.597228	-77.646545	-125.432300
42902	9.612599	-0.104385	-2.177756	0.083855	0.030113	0.043662	1.000000	0.000013	0.000051	0.000014	-178.593748	-77.651639	-125.432402
42903	9.642814	-0.095631	-2.162489	0.065401	0.017335	0.069862	1.000000	0.000033	0.000040	0.000016	-178.612877	-77.653692	-125.401861
42904	9.640465	-0.058190	-2.180145	0.044664	0.053879	0.071143	1.000000	0.000033	0.000065	0.000012	-178.608083	-77.660426	-125.400919
42905	9.619491	-0.019116	-2.159654	0.003558	0.063336	0.046068	1.000000	0.000042	0.000066	0.000019	-178.594568	-77.662530	-125.406755
42906	9.639501	0.024636	-2.103454	-0.065407	0.039880	0.053378	1.000000	0.000050	0.000062	0.000008	-178.589926	-77.668925	-125.403714
42907	9.610056	0.030536	-2.085868	-0.074703	0.034315	0.020837	1.000000	0.000020	0.000046	0.000003	-178.623461	-77.674549	-125.363796
42908	9.618639	0.063704	-2.082416	-0.104744	0.049136	0.028316	1.000000	0.000017	0.000036	0.000011	-178.621809	-77.677948	-125.361550
42909	9.626843	0.081449	-2.110108	-0.105290	0.080044	0.042150	1.000000	-0.000011	0.000026	0.000023	-178.622156	-77.677473	-125.359297
42910	9.567586	0.093386	-2.076617	-0.126099	0.070225	-0.022951	1.000000	-0.000040	0.000017	0.000028	-178.618308	-77.678636	-125.365919
42911	9.607606	0.051737	-2.133483	-0.064626	0.085404	0.028505	1.000000	-0.000044	0.000006	0.000035	-178.646403	-77.677933	-125.335882
42912	9.569514	0.024138	-2.119621	-0.044805	0.065337	-0.011529	1.000000	-0.000066	-0.000007	0.000029	-178.645285	-77.676351	-125.342684
42913	9.629188	0.026662	-2.121824	-0.053635	0.057844	0.047226	1.000000	-0.000064	-0.000001	0.000046	-178.632591	-77.673231	-125.364263
42914	9.620387	-0.022591	-2.155629	0.006260	0.059159	0.046093	1.000000	-0.000060	-0.000016	0.000043	-178.623693	-77.670585	-125.378395
42915	9.622530	-0.076393	-2.168156	0.057016	0.038050	0.051141	1.000000	-0.000053	-0.000007	0.000051	-178.624336	-77.666058	-125.380768
42916	9.663138	-0.087724	-2.163472	0.058320	0.020887	0.089873	1.000000	-0.000047	-0.000004	0.000042	-178.614281	-77.664776	-125.394557
42917	9.654679	-0.121707	-2.166255	0.087555	0.004840	0.082393	1.000000	-0.000024	-0.000005	0.000037	-178.593021	-77.656151	-125.413797
42918	9.646251	-0.155720	-2.168879	0.117842	-0.010426	0.074903	1.000000	-0.000020	0.000012	0.000039	-178.581088	-77.656728	-125.426254
42919	9.641266	-0.080521	-2.205819	0.077140	0.062611	0.077523	1.000000	0.000013	0.000025	0.000018	-178.600706	-77.661004	-125.405693
42920	9.635822	-0.136892	-2.158359	0.098712	-0.005994	0.062359	1.000000	0.000004	0.000030	0.000021	-178.595610	-77.663731	-125.408385
42921	9.614727	-0.097858	-2.138478	0.057931	0.003534	0.037301	1.000000	0.000028	0.000037	0.000025	-178.587099	-77.663927	-125.411266
42922	9.622983	-0.080049	-2.166011	0.057488	0.034919	0.051150	1.000000	0.000020	0.000040	-0.000006	-178.593891	-77.667760	-125.399857
42923	9.620975	-0.026959	-2.152950	0.006429	0.054474	0.046120	1.000000	0.000022	0.000039	0.000002	-178.586504	-77.667455	-125.403694
42924	9.570262	0.018682	-2.116299	-0.044555	0.059702	-0.011492	1.000000	0.000017	0.000054	-0.000003	-178.591723	-77.672961	-125.394310
42925	9.608609	0.045861	-2.129096	-0.062587	0.078798	0.028573	1.000000	0.000017	0.000054	-0.000003	-178.639199	-77.681581	-125.341135
42926	9.617263	0.079069	-2.125442	-0.092629	0.093572	0.036077	1.000000	-0.000002	0.000046	0.000016	-178.637043	-77.686109	-125.341438
42927	9.599057	0.095732	-2.055743	-0.141977	0.050203	0.003343	1.000000	-0.000009	0.000044	0.000017	-178.632643	-77.689766	-125.349740
42928	9.617578	0.078525	-2.124034	-0.092500	0.093057	0.036083	1.000000	-0.000033	0.000012	0.000017	-178.633918	-77.690442	-125.350208
42929	9.617306	0.062819	-2.154753	-0.063449	0.108649	0.042446	1.000000	-0.000020	0.000012	0.000039	-178.619379	-77.685162	-125.361471
42930	9.638953	0.037869	-2.142668	-0.052281	0.081558	0.061141	1.000000	-0.000038	0.000023	0.000045	-178.606681	-77.686908	-125.376834
42931	9.630552	0.003844	-2.145165	-0.021388	0.065665	0.053645	1.000000	-0.000040	-0.000002	0.000041	-178.619920	-77.684857	-125.364368
42932	9.643685	-0.054517	-2.136027	0.019966	0.023565	0.064827	1.000000	-0.000042	0.000012	0.000052	-178.604120	-77.685388	-125.383321
42933	9.605580	-0.082511	-2.122054	0.039915	0.002962	0.024766	1.000000	-0.000040	0.000005	0.000050	-178.600960	-77.682677	-125.387596
42934	9.594659	-0.078729	-2.143270	0.049315	0.024446	0.018602	1.000000	-0.000027	0.000010	0.000040	-178.589668	-77.682992	-125.400215
42935	9.605313	-0.099246	-2.152657	0.070035	0.018411	0.031122	1.000000	-0.000011	0.000014	0.000046	-178.590356	-77.681405	-125.395575
42936	9.626921	-0.124205	-2.140639	0.081227	-0.008683	0.049802	1.000000	-0.000014	0.000015	0.000030	-178.582867	-77.682350	-125.402783
42937	9.616040	-0.119975	-2.161701	0.089825	0.012312	0.043648	1.000000	-0.000027	0.000015	0.000008	-178.578166	-77.678317	-125.408992
42938	9.635217	-0.106542	-2.168134	0.080097	0.021942	0.063681	1.000000	0.000009	0.000033	0.000012	-178.577264	-77.681358	-125.406657
42939	9.644151	-0.058180	-2.133828	0.019822	0.019346	0.064837	1.000000	0.000002	0.000031	0.000013	-178.573977	-77.678551	-125.402696
42940	9.622738	-0.034233	-2.144952	0.008879	0.045941	0.046161	1.000000	0.000011	0.000033	0.000020	-178.568795	-77.681454	-125.404495
42941	9.611957	-0.029916	-2.165607	0.018458	0.067102	0.040009	1.000000	-0.000003	0.000040	-0.000001	-178.585261	-77.684411	-125.388365
42942	9.612783	0.000480	-2.102892	-0.040591	0.033606	0.027281	1.000000	0.000008	0.000041	0.000013	-178.583619	-77.688272	-125.386967
42943	9.621120	0.018272	-2.130265	-0.041676	0.063817	0.041170	1.000000	0.000013	0.000051	0.000014	-178.585528	-77.685808	-125.372475
42944	9.618814	0.055952	-2.148201	-0.062491	0.100271	0.042541	1.000000	-0.000029	0.000023	0.000010	-178.590160	-77.687569	-125.368882
42945	9.581073	0.043663	-2.103021	-0.071888	0.062985	-0.003894	1.000000	0.000009	0.000022	0.000034	-178.595966	-77.687156	-125.355882
42946	9.581213	0.043089	-2.102397	-0.071768	0.062720	-0.003891	1.000000	-0.000031	0.000044	0.000030	-178.590018	-77.691230	-125.363294
42947	9.610726	0.021060	-2.149233	-0.031608	0.083859	0.035037	1.000000	-0.000014	0.000022	0.000039	-178.576867	-77.692843	-125.382621
42948	9.621441	0.000577	-2.158368	-0.011159	0.078486	0.047555	1.000000	-0.000023	0.000027	0.000042	-178.563887	-77.695018	-125.396407
42949	9.623955	-0.037979	-2.139422	0.009639	0.041518	0.046180	1.000000	-0.000018	0.000005	0.000037	-178.547021	-77.693796	-125.419730
42950	9.624005	-0.038645	-2.139185	0.009759	0.041259	0.046181	1.000000	-0.000022	0.000020	0.000041	-178.534706	-77.695128	-125.432651
42951	9.664689	-0.050055	-2.133989	0.010936	0.023061	0.084886	1.000000	-0.000013	0.000015	0.000038	-178.534268	-77.690851	-125.424951
42952	9.656581	-0.068833	-2.105459	0.011671	-0.008803	0.070988	1.000000	-0.000036	0.000015	0.000043	-178.522523	-77.691629	-125.438958
42953	9.604807	-0.069360	-2.162294	0.049655	0.045667	0.032520	1.000000	0.000006	0.000023	0.000019	-178.534789	-77.691185	-125.420671
42954	9.645781	-0.065191	-2.126241	0.021430	0.011761	0.064845	1.000000	-0.000020	-0.000001	0.000020	-178.533299	-77.690170	-125.422252
42955	9.615806	-0.074576	-2.140555	0.040694	0.022836	0.038662	1.000000	-0.000009	0.000018	0.000021	-178.539564	-77.688850	-125.412141
42956	9.594364	-0.050477	-2.151959	0.029722	0.049424	0.020011	1.000000	-0.000020	0.000018	0.000007	-178.544831	-77.690000	-125.406782
42957	9.624474	-0.041507	-2.137022	0.010471	0.036881	0.046198	1.000000	-0.000007	0.000030	0.000006	-178.548684	-77.689830	-125.400737
42958	9.622150	-0.003773	-2.155201	-0.010370	0.073312	0.047596	1.000000	-0.000018	0.000017	0.000015	-178.549691	-77.690861	-125.399519
42959	9.624685	-0.041899	-2.136063	0.010702	0.036776	0.046198	1.000000	-0.000007	0.000036	0.000016	-178.541430	-77.696133	-125.417560
42960	9.600876	0.020052	-2.165884	-0.021229	0.100070	0.028949	1.000000	-0.000004	0.000021	0.000013	-178.541841	-77.697714	-125.415290
42961	9.641592	0.008996	-2.160522	-0.019906	0.083181	0.067643	1.000000	-0.000027	0.000029	0.000027	-178.530230	-77.701776	-125.438636
42962	9.612019	0.014726	-2.143497	-0.030260	0.078183	0.035087	1.000000	-0.000002	0.000027	0.000029	-178.521349	-77.704001	-125.445703
42963	9.611817	-0.000996	-2.173990	-0.000668	0.093833	0.041471	1.000000	0.000006	0.000023	0.000019	-178.526724	-77.701975	-125.433875
42964	9.633742	-0.010544	-2.130774	-0.019027	0.050068	0.053741	1.000000	-0.000002	0.000027	0.000029	-178.517879	-77.704184	-125.440881
42965	9.633867	-0.011191	-2.130204	-0.018720	0.049545	0.053745	1.000000	-0.000009	0.000032	0.000040	-178.512606	-77.706275	-125.447135
42966	9.633693	-0.027168	-2.160569	0.010970	0.065925	0.060122	1.000000	-0.000009	0.000032	0.000040	-178.499060	-77.708958	-125.459810
42967	9.595597	-0.055008	-2.146343	0.031084	0.045441	0.020026	1.000000	-0.000022	0.000020	0.000041	-178.501602	-77.708601	-125.455467
42968	9.615115	-0.026671	-2.121736	-0.008225	0.038366	0.033702	1.000000	-0.000022	0.000032	0.000018	-178.501097	-77.711348	-125.456284
42969	9.607030	-0.044943	-2.092965	-0.007357	0.005990	0.019782	1.000000	0.000002	0.000025	0.000004	-178.516460	-77.711221	-125.436948
42970	9.625613	-0.062167	-2.161374	0.042038	0.048857	0.052589	1.000000	-0.000031	0.000018	0.000034	-178.508792	-77.712369	-125.446161
42971	9.645111	-0.033819	-2.136854	0.002134	0.040907	0.066269	1.000000	-0.000018	0.000024	0.000024	-178.505347	-77.708036	-125.443589
42972	9.625785	-0.062918	-2.160586	0.041681	0.047463	0.052597	1.000000	-0.000018	0.000017	0.000015	-178.506357	-77.709058	-125.442391
42973	9.623779	-0.009993	-2.147897	-0.009262	0.066769	0.047644	1.000000	-0.000018	0.000017	0.000015	-178.502976	-77.706147	-125.445397
42974	9.615338	-0.043630	-2.150312	0.021056	0.051570	0.040097	1.000000	-0.000009	0.000018	0.000021	-178.499434	-77.707307	-125.447777
42975	9.643305	0.018013	-2.123255	-0.049046	0.058952	0.061319	1.000000	-0.000009	-0.000000	0.000035	-178.483070	-77.702237	-125.462341
42976	9.613063	-0.006755	-2.168460	-0.000285	0.087276	0.041532	1.000000	0.000004	0.000030	0.000021	-178.478188	-77.704752	-125.464577
42977	9.594350	-0.005460	-2.130198	-0.020536	0.059710	0.015097	1.000000	-0.000024	0.000014	0.000024	-178.473084	-77.699240	-125.465584
42978	9.635000	-0.016675	-2.125039	-0.019181	0.042389	0.053777	1.000000	0.000002	0.000013	0.000026	-178.465690	-77.699661	-125.470583
42979	9.613254	-0.008148	-2.167612	-0.000826	0.085199	0.041550	1.000000	-0.000018	0.000005	0.000037	-178.457657	-77.696448	-125.478816
42980	9.624191	-0.013364	-2.146031	-0.009938	0.063158	0.047667	1.000000	-0.000005	0.000017	0.000037	-178.445540	-77.697329	-125.489494
42981	9.623995	-0.029149	-2.176531	0.019704	0.079267	0.054062	1.000000	-0.000013	0.000033	0.000025	-178.444356	-77.698727	-125.491780
42982	9.635001	-0.034263	-2.154628	0.010594	0.057224	0.060177	1.000000	-0.000014	0.000022	0.000039	-178.431750	-77.700187	-125.504027
42983	9.605404	-0.028578	-2.137685	0.001241	0.051867	0.027618	1.000000	-0.000003	0.000028	0.000022	-178.455511	-77.704080	-125.478937
42984	9.624359	-0.030671	-2.174899	0.021036	0.078069	0.054069	1.000000	-0.000029	0.000036	0.000028	-178.450286	-77.707205	-125.485336
42985	9.635071	-0.050868	-2.183942	0.041521	0.072105	0.066577	1.000000	0.000006	0.000023	0.000019	-178.456401	-77.706175	-125.474059
42986	9.616656	-0.034354	-2.114631	-0.007599	0.028676	0.033735	1.000000	-0.000027	0.000029	0.000027	-178.451963	-77.708446	-125.479432
42987	9.635595	-0.036433	-2.151935	0.012185	0.054419	0.060191	1.000000	-0.000011	0.000026	0.000023	-178.454775	-77.708208	-125.475852
42988	9.606000	-0.030509	-2.134978	0.001826	0.049431	0.027630	1.000000	-0.000013	0.000027	0.000015	-178.454811	-77.710269	-125.474931
42989	9.625519	-0.002044	-2.110377	-0.036778	0.042133	0.041306	1.000000	-0.000002	0.000021	0.000020	-178.469104	-77.713338	-125.461340
42990	9.614427	-0.013002	-2.162377	0.002093	0.080299	0.041591	1.000000	-0.000018	0.000017	0.000015	-178.470238	-77.714307	-125.459961
42991	9.606248	-0.031400	-2.133851	0.003415	0.047747	0.027638	1.000000	0.000007	0.000016	0.000017	-178.490426	-77.713629	-125.432928
42992	9.584868	-0.007415	-2.145262	-0.007610	0.074333	0.009040	1.000000	-0.000025	0.000021	0.000025	-178.486954	-77.715066	-125.437096
42993	9.614639	-0.014020	-2.161427	0.002785	0.078375	0.041606	1.000000	0.000009	0.000008	0.000016	-178.486166	-77.712551	-125.435244
42994	9.625872	-0.003805	-2.108765	-0.035843	0.039635	0.041320	1.000000	-0.000016	0.000023	0.000032	-178.478176	-77.714133	-125.442963
42995	9.612464	0.022913	-2.179362	-0.018475	0.114050	0.043086	1.000000	-0.000014	0.000015	0.000030	-178.466972	-77.711258	-125.454176
42996	9.636597	-0.024572	-2.117705	-0.015736	0.033549	0.053817	1.000000	-0.000016	0.000016	0.000022	-178.463924	-77.712093	-125.456837
42997	9.625807	-0.020533	-2.138715	-0.006126	0.054620	0.047721	1.000000	-0.000014	0.000022	0.000039	-178.464952	-77.712552	-125.456697
42998	9.625609	-0.036374	-2.169272	0.023535	0.071019	0.054117	1.000000	-0.000016	0.000023	0.000032	-178.456970	-77.714122	-125.464400
42999	9.636603	-0.041355	-2.147326	0.014252	0.048585	0.060219	1.000000	-0.000007	0.000036	0.000016	-178.457433	-77.714836	-125.463353
43000	9.617623	-0.055243	-2.139802	0.024241	0.038513	0.040150	1.000000	-0.000029	0.000036	0.000028	-178.452440	-77.717935	-125.469483
43001	9.628327	-0.075289	-2.148831	0.045175	0.032934	0.052641	1.000000	0.000002	0.000025	0.000004	-178.470705	-77.720417	-125.451895
43002	9.626155	-0.037714	-2.166827	0.024267	0.069307	0.054127	1.000000	-0.000020	0.000038	0.000035	-178.461260	-77.723678	-125.461524
43003	9.596577	-0.031949	-2.149783	0.013617	0.064072	0.021569	1.000000	-0.000011	0.000026	0.000023	-178.454826	-77.723398	-125.469180
43004	9.626687	-0.023307	-2.134721	-0.005330	0.051787	0.047737	1.000000	-0.000013	0.000027	0.000015	-178.455060	-77.725452	-125.468062
43005	9.597083	-0.017367	-2.117785	-0.015538	0.047083	0.015174	1.000000	-0.000011	0.000026	0.000023	-178.449970	-77.729172	-125.481308
43006	9.608039	-0.022335	-2.095957	-0.024612	0.025019	0.021270	1.000000	-0.000002	0.000021	0.000020	-178.446416	-77.730549	-125.482827
43007	9.635279	-0.006288	-2.161521	-0.006147	0.082338	0.061724	1.000000	-0.000011	0.000026	0.000023	-178.434740	-77.728293	-125.493748
43008	9.627087	-0.025026	-2.132894	-0.005352	0.050492	0.047743	1.000000	0.000004	0.000018	0.000043	-178.418392	-77.729317	-125.507714
43009	9.614007	0.016953	-2.172599	-0.016849	0.107975	0.043157	1.000000	-0.000016	0.000010	0.000013	-178.436318	-77.727054	-125.485294
43010	9.605797	-0.001610	-2.144046	-0.016049	0.076128	0.029173	1.000000	-0.000024	0.000027	0.000042	-178.423578	-77.729081	-125.498751
43011	9.627283	-0.026666	-2.131992	-0.004797	0.048894	0.047752	1.000000	-0.000002	0.000002	0.000033	-178.413686	-77.727818	-125.511668
43012	9.635608	-0.009123	-2.160044	-0.005366	0.080167	0.061742	1.000000	-0.000022	0.000013	0.000031	-178.406674	-77.728272	-125.519079
43013	9.627368	-0.027749	-2.131595	-0.003850	0.047763	0.047758	1.000000	-0.000022	0.000013	0.000031	-178.424581	-77.728497	-125.500379
43014	9.597445	-0.037213	-2.145822	0.015325	0.059493	0.021595	1.000000	-0.000016	0.000023	0.000032	-178.416661	-77.730064	-125.508064
43015	9.627250	-0.044099	-2.161837	0.026157	0.063216	0.054163	1.000000	-0.000022	0.000020	0.000041	-178.420701	-77.728876	-125.500659
43016	9.616789	-0.024851	-2.151743	0.005923	0.068018	0.041682	1.000000	0.000004	0.000030	0.000021	-178.416281	-77.731340	-125.502390
43017	9.638628	-0.034384	-2.108304	-0.012061	0.023642	0.053851	1.000000	-0.000023	0.000039	0.000020	-178.429127	-77.733274	-125.488520
43018	9.627636	-0.045405	-2.160091	0.026772	0.061844	0.054170	1.000000	-0.000016	0.000023	0.000032	-178.421321	-77.734833	-125.496067
43019	9.608593	-0.059246	-2.152782	0.036579	0.051391	0.034092	1.000000	-0.000007	0.000030	0.000006	-178.427875	-77.734705	-125.488538
43020	9.619826	-0.048961	-2.099873	-0.002005	0.012605	0.033772	1.000000	-0.000009	0.000025	0.000031	-178.419792	-77.736521	-125.495510
43021	9.638847	-0.051144	-2.137019	0.018075	0.038435	0.060257	1.000000	-0.000007	0.000043	0.000025	-178.426290	-77.739796	-125.489273
43022	9.606736	-0.022559	-2.169593	0.016187	0.086818	0.035623	1.000000	-0.000009	0.000018	0.000021	-178.423251	-77.740882	-125.491094
43023	9.628487	-0.032207	-2.126470	-0.002981	0.042603	0.047782	1.000000	-0.000007	0.000018	0.000029	-178.400092	-77.737048	-125.514628
43024	9.607157	-0.008253	-2.137929	-0.014047	0.069193	0.029228	1.000000	0.000007	0.000016	0.000017	-178.397167	-77.737798	-125.514408
43025	9.618086	-0.013237	-2.116114	-0.023277	0.046004	0.035309	1.000000	-0.000027	0.000029	0.000027	-178.406803	-77.734245	-125.495884
43026	9.637074	-0.015306	-2.153457	-0.003512	0.072168	0.061805	1.000000	-0.000009	0.000018	0.000021	-178.403715	-77.735289	-125.497711
43027	9.626330	-0.011161	-2.174449	0.005880	0.093219	0.055740	1.000000	-0.000016	0.000023	0.000032	-178.405529	-77.735043	-125.495439
43028	9.607536	-0.010019	-2.136217	-0.013649	0.066460	0.029247	1.000000	-0.000016	0.000023	0.000032	-178.397743	-77.736551	-125.502923
43029	9.596514	-0.021057	-2.188255	0.025130	0.104124	0.029595	1.000000	-0.000024	0.000014	0.000024	-178.403659	-77.734352	-125.495915
43030	9.637162	-0.032410	-2.182845	0.026567	0.086683	0.068230	1.000000	-0.000018	0.000030	0.000033	-178.395143	-77.736696	-125.504344
43031	9.618347	-0.031258	-2.144685	0.008185	0.059641	0.041734	1.000000	-0.000013	0.000008	0.000029	-178.418937	-77.739047	-125.482070
43032	9.628993	-0.051280	-2.153901	0.028671	0.054259	0.054209	1.000000	-0.000025	0.000033	0.000003	-178.427541	-77.741861	-125.473844
43033	9.618541	-0.031789	-2.143807	0.008715	0.058622	0.041740	1.000000	-0.000005	0.000017	0.000037	-178.429175	-77.741652	-125.470886
43034	9.610058	-0.065595	-2.146051	0.039080	0.043504	0.034121	1.000000	-0.000009	0.000044	0.000017	-178.428041	-77.745612	-125.470692
43035	9.618812	-0.032620	-2.142578	0.008496	0.057593	0.041746	1.000000	-0.000018	0.000024	0.000024	-178.420980	-77.743622	-125.478269
43036	9.608090	-0.028392	-2.163519	0.017773	0.079098	0.035686	1.000000	-0.000018	0.000024	0.000024	-178.417613	-77.745241	-125.481443
43037	9.599846	-0.046829	-2.134863	0.018965	0.047184	0.021655	1.000000	-0.000013	0.000027	0.000015	-178.427048	-77.748058	-125.475994
43038	9.638285	-0.020115	-2.147992	-0.000663	0.066347	0.061846	1.000000	-0.000009	0.000018	0.000021	-178.424191	-77.749106	-125.477600
43039	9.627829	-0.000699	-2.137932	-0.020729	0.070475	0.049384	1.000000	-0.000003	0.000028	0.000022	-178.434670	-77.748774	-125.462546
43040	9.627944	-0.001100	-2.137413	-0.020604	0.070170	0.049386	1.000000	-0.000011	0.000026	0.000023	-178.431114	-77.750659	-125.465062
43041	9.628054	-0.001734	-2.136915	-0.021344	0.069319	0.049390	1.000000	0.000002	0.000026	0.000045	-178.403887	-77.746950	-125.488796
43042	9.619538	-0.035598	-2.139267	0.009022	0.054209	0.041765	1.000000	-0.000020	0.000024	0.000016	-178.404779	-77.748665	-125.487819
43043	9.627999	-0.017778	-2.167005	0.008987	0.084618	0.055815	1.000000	-0.000002	0.000021	0.000020	-178.427804	-77.748027	-125.457649
43044	9.609163	-0.016473	-2.128849	-0.010521	0.057856	0.029305	1.000000	-0.000009	0.000018	0.000021	-178.425047	-77.749043	-125.459110
43045	9.608994	-0.032037	-2.159452	0.018491	0.074040	0.035724	1.000000	-0.000018	0.000024	0.000024	-178.411604	-77.747356	-125.475736
43046	9.598542	-0.012614	-2.149390	-0.001756	0.078811	0.023259	1.000000	-0.000018	0.000024	0.000024	-178.408296	-77.748943	-125.478831
43047	9.619989	-0.037502	-2.137208	0.010102	0.051518	0.041778	1.000000	-0.000007	0.000018	0.000029	-178.414084	-77.751118	-125.476586
43048	9.609542	-0.018085	-2.127123	-0.010142	0.056290	0.029315	1.000000	-0.000022	0.000032	0.000018	-178.414315	-77.753674	-125.476498
43049	9.620208	-0.038290	-2.136210	0.009803	0.050542	0.041784	1.000000	-0.000016	0.000023	0.000032	-178.400240	-77.751581	-125.492254
43050	9.620262	-0.038724	-2.135956	0.009925	0.050235	0.041785	1.000000	-0.000005	0.000004	0.000018	-178.398927	-77.750898	-125.491848
43051	9.609552	-0.034478	-2.156930	0.019368	0.071214	0.035743	1.000000	-0.000014	0.000041	0.000026	-178.406386	-77.752536	-125.483312
43052	9.601311	-0.052947	-2.128121	0.020232	0.039379	0.021687	1.000000	-0.000013	0.000027	0.000015	-178.407098	-77.754496	-125.481662
43053	9.618173	-0.016990	-2.184036	0.018480	0.101897	0.049808	1.000000	-0.000016	0.000016	0.000022	-178.399342	-77.752830	-125.492462
43054	9.631477	-0.044844	-2.112657	0.001067	0.026427	0.047839	1.000000	-0.000002	0.000027	0.000029	-178.391239	-77.754819	-125.498560
43055	9.639711	-0.042359	-2.171388	0.030220	0.073891	0.068324	1.000000	-0.000009	0.000018	0.000021	-178.402280	-77.754391	-125.486648
43056	9.620866	-0.041062	-2.133192	0.010717	0.047135	0.041800	1.000000	-0.000011	0.000026	0.000023	-178.398752	-77.756230	-125.489131
43057	9.639900	-0.043127	-2.170536	0.029954	0.072949	0.068332	1.000000	-0.000009	0.000018	0.000021	-178.389616	-77.753978	-125.499175
43058	9.610498	-0.022091	-2.122761	-0.009920	0.051273	0.029342	1.000000	-0.000016	0.000023	0.000032	-178.382065	-77.755430	-125.506423
43059	9.631946	-0.046934	-2.110473	0.001714	0.023775	0.047845	1.000000	-0.000005	0.000029	0.000014	-178.393208	-77.757203	-125.496001
43060	9.599946	-0.018183	-2.143071	-0.000270	0.072185	0.023310	1.000000	-0.000013	0.000033	0.000025	-178.388910	-77.759878	-125.499490
43061	9.621402	-0.043035	-2.130732	0.011007	0.044712	0.041811	1.000000	-0.000018	0.000024	0.000024	-178.387920	-77.759914	-125.502890
43062	9.608586	-0.000930	-2.170170	-0.000862	0.102821	0.037389	1.000000	0.000006	0.000030	0.000028	-178.379575	-77.762155	-125.508395
43063	9.640810	-0.030494	-2.136510	0.000771	0.053185	0.061926	1.000000	-0.000009	0.000018	0.000021	-178.373026	-77.758276	-125.512731
43064	9.611162	-0.024554	-2.119725	-0.009598	0.048255	0.029358	1.000000	-0.000011	0.000026	0.000023	-178.369449	-77.760088	-125.515272
43065	9.621807	-0.044836	-2.128868	0.010642	0.042432	0.041821	1.000000	-0.000016	0.000023	0.000032	-178.363188	-77.758617	-125.522074
43066	9.630320	-0.027091	-2.156567	0.010003	0.073635	0.055902	1.000000	-0.000020	0.000024	0.000016	-178.364127	-77.760272	-125.521060
43067	9.622249	-0.030444	-2.096926	-0.019382	0.024803	0.035394	1.000000	-0.000009	0.000025	0.000031	-178.343223	-77.758174	-125.544073
43068	9.619993	-0.008141	-2.145993	-0.010899	0.077830	0.043450	1.000000	-0.000011	0.000026	0.000023	-178.339560	-77.759966	-125.546706
43069	9.600903	-0.021944	-2.138746	-0.000895	0.067468	0.023343	1.000000	-0.000013	0.000027	0.000015	-178.345972	-77.760173	-125.540790
43070	9.630978	-0.013489	-2.123656	-0.019793	0.055012	0.049484	1.000000	-0.000007	0.000018	0.000029	-178.338831	-77.761002	-125.546566
43071	9.601052	-0.022758	-2.138069	-0.000506	0.066334	0.023351	1.000000	-0.000015	0.000009	0.000021	-178.348771	-77.758995	-125.535263
43072	9.590347	-0.018475	-2.159145	0.008731	0.087848	0.017329	1.000000	-0.000011	0.000026	0.000023	-178.345158	-77.760780	-125.537844
43073	9.641515	-0.049584	-2.163213	0.030092	0.064639	0.068389	1.000000	-0.000020	0.000024	0.000016	-178.344607	-77.757944	-125.536298
43074	9.609730	-0.005664	-2.165092	-0.001424	0.096303	0.037455	1.000000	-0.000013	0.000008	0.000029	-178.338522	-77.757648	-125.541629
43075	9.612157	-0.028824	-2.115157	-0.009963	0.042130	0.029386	1.000000	-0.000022	0.000032	0.000018	-178.340141	-77.756652	-125.539911
43076	9.631249	-0.030907	-2.152365	0.009752	0.068244	0.055941	1.000000	-0.000009	0.000025	0.000031	-178.332250	-77.758296	-125.546641
43077	9.601610	-0.025045	-2.135533	-0.000097	0.063052	0.023372	1.000000	-0.000011	0.000026	0.000023	-178.344732	-77.760534	-125.536466
43078	9.620946	-0.011972	-2.141698	-0.009872	0.072405	0.043492	1.000000	-0.000013	0.000033	0.000025	-178.340386	-77.763143	-125.539999
43079	9.601633	-0.041021	-2.165397	0.030331	0.078873	0.029815	1.000000	-0.000003	0.000028	0.000022	-178.357183	-77.766150	-125.524481
43080	9.621188	-0.012939	-2.140604	-0.008932	0.071465	0.043500	1.000000	-0.000007	0.000024	0.000038	-178.345170	-77.767695	-125.535238
43081	9.621291	-0.013407	-2.140137	-0.009079	0.070700	0.043505	1.000000	-0.000020	0.000024	0.000016	-178.347364	-77.766313	-125.533832
43082	9.631932	-0.033776	-2.149264	0.011413	0.065304	0.055959	1.000000	0.000002	0.000026	0.000045	-178.330812	-77.767995	-125.548164
43083	9.632040	-0.034410	-2.148767	0.011329	0.064443	0.055965	1.000000	-0.000011	0.000026	0.000023	-178.331485	-77.766526	-125.545437
43084	9.630060	0.003003	-2.166857	-0.009713	0.100697	0.057626	1.000000	-0.000022	0.000020	0.000041	-178.320021	-77.767526	-125.557341
43085	9.621667	-0.015728	-2.138432	-0.008580	0.068520	0.043521	1.000000	-0.000005	0.000010	0.000027	-178.324761	-77.766618	-125.553283
43086	9.591742	-0.025045	-2.152876	0.010532	0.080375	0.017391	1.000000	-0.000015	0.000015	0.000030	-178.318069	-77.767152	-125.559457
43087	9.613334	-0.034899	-2.109706	-0.007309	0.036137	0.029412	1.000000	-0.000024	0.000021	0.000033	-178.320441	-77.768023	-125.561892
43088	9.642939	-0.056938	-2.156672	0.032789	0.057164	0.068426	1.000000	0.000000	0.000020	0.000028	-178.313220	-77.769085	-125.566904
43089	9.621748	-0.032833	-2.168050	0.021574	0.083465	0.049975	1.000000	-0.000020	0.000024	0.000016	-178.317531	-77.769108	-125.565285
43090	9.622085	-0.018076	-2.136530	-0.007797	0.066376	0.043536	1.000000	-0.000002	0.000027	0.000029	-178.309545	-77.771011	-125.571295
43091	9.613489	-0.051910	-2.138963	0.023391	0.050644	0.035861	1.000000	-0.000024	0.000021	0.000033	-178.331375	-77.771638	-125.547146
43092	9.613583	-0.052451	-2.138526	0.023511	0.050320	0.035863	1.000000	-0.000009	0.000025	0.000031	-178.323778	-77.773281	-125.553608
43093	9.622178	-0.034715	-2.166111	0.023255	0.081066	0.049992	1.000000	-0.000022	0.000032	0.000018	-178.340151	-77.775113	-125.538104
43094	9.631216	0.013403	-2.131685	-0.036377	0.078691	0.051240	1.000000	-0.000002	0.000021	0.000020	-178.337349	-77.776292	-125.538810
43095	9.622387	-0.035497	-2.165168	0.022988	0.080517	0.049997	1.000000	-0.000009	0.000025	0.000031	-178.316377	-77.776668	-125.568056
43096	9.622731	-0.020752	-2.133596	-0.006378	0.063423	0.043557	1.000000	-0.000022	0.000032	0.000018	-178.316788	-77.779124	-125.567841
43097	9.603569	-0.034338	-2.126576	0.003141	0.052840	0.023432	1.000000	-0.000024	0.000001	0.000005	-178.323668	-77.773506	-125.559245
43098	9.631344	-0.003014	-2.161142	-0.007418	0.093650	0.057698	1.000000	-0.000002	0.000027	0.000029	-178.315759	-77.775397	-125.565189
43099	9.633487	-0.041528	-2.142145	0.013871	0.056359	0.056011	1.000000	-0.000016	0.000023	0.000032	-178.314713	-77.774869	-125.567442
43100	9.622826	-0.037460	-2.163182	0.023086	0.077880	0.050018	1.000000	-0.000005	0.000017	0.000037	-178.303606	-77.775534	-125.577102
43101	9.642345	-0.009376	-2.138564	-0.016100	0.070038	0.063709	1.000000	-0.000024	0.000014	0.000024	-178.309071	-77.774318	-125.574137
43102	9.612431	-0.018587	-2.152996	0.003002	0.081918	0.037584	1.000000	-0.000015	0.000015	0.000030	-178.302517	-77.774834	-125.580212
43103	9.633776	-0.043468	-2.140807	0.014848	0.054226	0.056022	1.000000	-0.000020	0.000024	0.000016	-178.320573	-77.775824	-125.562921
43104	9.623120	-0.039157	-2.161845	0.024062	0.075747	0.050032	1.000000	-0.000015	0.000015	0.000030	-178.314075	-77.776342	-125.568942
43105	9.623223	-0.039624	-2.161378	0.023528	0.074780	0.050041	1.000000	-0.000013	0.000033	0.000025	-178.305675	-77.773686	-125.574419
43106	9.604352	-0.038444	-2.122968	0.004057	0.048038	0.023456	1.000000	-0.000020	0.000038	0.000035	-178.296851	-77.776717	-125.583429
43107	9.623498	-0.040611	-2.160137	0.023267	0.073835	0.050048	1.000000	-0.000002	0.000021	0.000020	-178.287376	-77.774820	-125.594165
43108	9.623810	-0.025941	-2.128666	-0.006095	0.056724	0.043598	1.000000	-0.000009	0.000025	0.000031	-178.279763	-77.776417	-125.600673
43109	9.632428	-0.008271	-2.156293	-0.006957	0.087327	0.057756	1.000000	-0.000011	0.000026	0.000023	-178.281245	-77.774943	-125.597485
43110	9.634773	-0.031435	-2.106180	-0.015129	0.033657	0.049588	1.000000	-0.000014	0.000034	0.000017	-178.281381	-77.777608	-125.596688
43111	9.613391	-0.022423	-2.148670	0.003657	0.076730	0.037626	1.000000	-0.000004	0.000003	0.000026	-178.291970	-77.776893	-125.587653
43112	9.602742	-0.018335	-2.169734	0.012860	0.098253	0.031647	1.000000	-0.000025	0.000035	0.000044	-178.279189	-77.779533	-125.601373
43113	9.654070	-0.034655	-2.142680	0.005196	0.058276	0.076191	1.000000	-0.000009	0.000018	0.000021	-178.281996	-77.777767	-125.597768
43114	9.624389	-0.028567	-2.126013	-0.005185	0.053393	0.043617	1.000000	-0.000035	0.000020	0.000019	-178.283805	-77.778800	-125.597635
43115	9.632980	-0.010785	-2.153813	-0.006295	0.084042	0.057785	1.000000	0.000002	0.000012	0.000026	-178.276015	-77.775195	-125.603206
43116	9.613790	-0.024747	-2.146859	0.003711	0.074088	0.037646	1.000000	-0.000015	0.000015	0.000030	-178.269502	-77.775664	-125.609242
43117	9.594822	-0.023508	-2.108814	-0.015164	0.046957	0.011051	1.000000	-0.000009	0.000018	0.000021	-178.286484	-77.776662	-125.593311
43118	9.594683	-0.039002	-2.139519	0.014425	0.063410	0.017510	1.000000	-0.000016	0.000016	0.000022	-178.284292	-77.777253	-125.595145
43119	9.633296	-0.012507	-2.152390	-0.005322	0.081929	0.057803	1.000000	-0.000005	0.000035	0.000023	-178.284088	-77.777998	-125.595996
43120	9.633405	-0.012980	-2.151900	-0.005206	0.081591	0.057806	1.000000	-0.000015	0.000015	0.000030	-178.277646	-77.778468	-125.601974
43121	9.614204	-0.026773	-2.144980	0.004462	0.071094	0.037668	1.000000	-0.000016	0.000010	0.000013	-178.281693	-77.774576	-125.596754
43122	9.624999	-0.031849	-2.123201	-0.004500	0.048893	0.043641	1.000000	-0.000002	0.000027	0.000029	-178.273914	-77.776402	-125.602587
43123	9.614400	-0.027623	-2.144089	0.004628	0.069815	0.037677	1.000000	-0.000027	0.000029	0.000027	-178.278724	-77.775329	-125.597647
43124	9.614498	-0.028086	-2.143644	0.004743	0.069475	0.037679	1.000000	-0.000007	0.000018	0.000029	-178.272016	-77.776041	-125.603029
43125	9.614590	-0.028546	-2.143227	0.005011	0.068700	0.037685	1.000000	-0.000011	0.000026	0.000023	-178.279192	-77.776167	-125.596245
43126	9.604186	-0.009183	-2.133149	-0.015265	0.073431	0.025258	1.000000	-0.000016	0.000023	0.000032	-178.272028	-77.777459	-125.603161
43127	9.634014	-0.016171	-2.149147	-0.004236	0.077239	0.057842	1.000000	-0.000011	0.000007	0.000036	-178.277464	-77.776542	-125.599359
43128	9.595541	-0.043553	-2.135582	0.015666	0.057699	0.017543	1.000000	0.000007	0.000015	0.000017	-178.275288	-77.777050	-125.598403
43129	9.644656	-0.036655	-2.158141	0.016338	0.070812	0.070279	1.000000	-0.000023	0.000026	0.000001	-178.294789	-77.775457	-125.576678
43130	9.615016	-0.030428	-2.141289	0.005954	0.065944	0.037703	1.000000	-0.000013	0.000033	0.000025	-178.290907	-77.777963	-125.579794
43131	9.604631	-0.011234	-2.131134	-0.013894	0.070328	0.025283	1.000000	-0.000005	0.000023	0.000046	-178.290090	-77.779104	-125.582124
43132	9.606679	-0.049843	-2.112174	0.007446	0.033451	0.023515	1.000000	-0.000011	0.000026	0.000023	-178.287019	-77.780770	-125.584212
43133	9.623898	-0.013934	-2.167922	0.005558	0.095456	0.051913	1.000000	-0.000002	0.000021	0.000020	-178.285764	-77.777923	-125.582601
43134	9.634685	-0.019027	-2.146116	-0.003390	0.073238	0.057873	1.000000	-0.000009	0.000018	0.000021	-178.283456	-77.778734	-125.583697
43135	9.624089	-0.014860	-2.167064	0.006400	0.094149	0.051925	1.000000	-0.000009	0.000032	0.000040	-178.294709	-77.780159	-125.569750
43136	9.636824	-0.058110	-2.126695	0.018688	0.035400	0.056101	1.000000	0.000007	0.000015	0.000017	-178.292680	-77.780649	-125.568635
43137	9.634972	-0.020582	-2.144811	-0.001995	0.071061	0.057889	1.000000	-0.000016	0.000023	0.000032	-178.303600	-77.780919	-125.557554
43138	9.605123	-0.029770	-2.159042	0.017078	0.083007	0.031780	1.000000	-0.000013	0.000033	0.000025	-178.299896	-77.783417	-125.560488
43139	9.626438	-0.054805	-2.146683	0.028819	0.054991	0.050157	1.000000	-0.000016	0.000023	0.000032	-178.310900	-77.782203	-125.546176
43140	9.624830	-0.002186	-2.133584	-0.021752	0.074351	0.045484	1.000000	-0.000013	0.000033	0.000025	-178.307256	-77.784695	-125.549039
43141	9.616177	-0.036010	-2.135983	0.009069	0.059019	0.037745	1.000000	-0.000007	0.000024	0.000038	-178.310293	-77.785865	-125.548192
43142	9.605568	-0.031819	-2.157029	0.018247	0.080548	0.031799	1.000000	-0.000016	0.000016	0.000022	-178.308509	-77.786411	-125.549608
43143	9.635604	-0.023482	-2.141941	-0.000042	0.067322	0.057915	1.000000	-0.000016	0.000016	0.000022	-178.327783	-77.786066	-125.529655
43144	9.605930	-0.017455	-2.125230	-0.010427	0.062464	0.025340	1.000000	0.000004	0.000030	0.000021	-178.324453	-77.788240	-125.530284
43145	9.606045	-0.017777	-2.124705	-0.010026	0.061816	0.025344	1.000000	-0.000020	0.000024	0.000016	-178.337066	-77.789258	-125.521421
43146	9.635931	-0.024507	-2.140457	0.000615	0.065965	0.057924	1.000000	-0.000027	0.000029	0.000027	-178.334136	-77.791232	-125.525290
43147	9.616924	-0.023350	-2.102395	-0.018241	0.038785	0.031295	1.000000	-0.000004	0.000009	0.000035	-178.344493	-77.790817	-125.515355
43148	9.636070	-0.025553	-2.139822	0.001453	0.064812	0.057932	1.000000	-0.000009	0.000018	0.000021	-178.342591	-77.791629	-125.516049
43149	9.606390	-0.019439	-2.123131	-0.009047	0.059510	0.025360	1.000000	-0.000013	0.000027	0.000015	-178.348806	-77.790866	-125.510445
43150	9.625593	-0.021443	-2.160321	0.010644	0.085535	0.052000	1.000000	-0.000011	0.000026	0.000023	-178.346149	-77.792515	-125.512121
43151	9.625878	-0.006643	-2.128842	-0.018902	0.067642	0.045538	1.000000	-0.000011	0.000019	0.000014	-178.355091	-77.789285	-125.499091
43152	9.625773	-0.022125	-2.159512	0.010676	0.084105	0.052012	1.000000	0.000000	0.000020	0.000028	-178.348672	-77.790224	-125.503332
43153	9.596100	-0.016168	-2.142792	-0.000021	0.078558	0.019442	1.000000	-0.000027	0.000029	0.000027	-178.350154	-77.787820	-125.500413
43154	9.636487	-0.042911	-2.168116	0.031028	0.077625	0.064431	1.000000	-0.000002	0.000027	0.000029	-178.342978	-77.789590	-125.505624
43155	9.626076	-0.023603	-2.158146	0.010645	0.081691	0.052032	1.000000	-0.000005	0.000010	0.000027	-178.345632	-77.786040	-125.499670
43156	9.596374	-0.017624	-2.141550	0.000258	0.076845	0.019456	1.000000	-0.000011	0.000026	0.000023	-178.343019	-77.787656	-125.501273
43157	9.636752	-0.044288	-2.166913	0.031077	0.075377	0.064448	1.000000	-0.000011	0.000026	0.000023	-178.343698	-77.785987	-125.499710
43158	9.626557	-0.009740	-2.125758	-0.018648	0.063251	0.045568	1.000000	-0.000011	0.000026	0.000023	-178.341088	-77.787594	-125.501309
43159	9.617875	-0.043395	-2.128185	0.011688	0.047947	0.037802	1.000000	-0.000020	0.000031	0.000026	-178.341136	-77.787876	-125.504561
43160	9.626810	-0.010473	-2.124608	-0.018489	0.062193	0.045575	1.000000	-0.000022	0.000032	0.000018	-178.342306	-77.790179	-125.503574
43161	9.607484	-0.039328	-2.148356	0.020850	0.068841	0.031882	1.000000	0.000002	0.000038	0.000022	-178.339847	-77.791400	-125.508091
43162	9.637542	-0.031128	-2.133109	0.002047	0.056127	0.057985	1.000000	-0.000013	0.000008	0.000028	-178.334791	-77.790935	-125.512449
43163	9.627122	-0.011648	-2.123189	-0.018406	0.060165	0.045588	1.000000	-0.000020	0.000024	0.000016	-178.343559	-77.788683	-125.501343
43164	9.616547	-0.007202	-2.144220	-0.009250	0.081696	0.039670	1.000000	-0.000009	0.000018	0.000021	-178.341727	-77.789430	-125.501952
43165	9.597317	-0.021048	-2.137288	0.000899	0.071208	0.019498	1.000000	-0.000022	0.000013	0.000031	-178.348573	-77.787185	-125.494687
43166	9.638031	-0.017516	-2.100629	-0.026926	0.036580	0.051517	1.000000	-0.000005	0.000029	0.000014	-178.349985	-77.789148	-125.491531
43167	9.597543	-0.021762	-2.136269	0.001301	0.069956	0.019507	1.000000	-0.000005	0.000035	0.000023	-178.358121	-77.789866	-125.482854
43168	9.627443	-0.028757	-2.151973	0.011943	0.074057	0.052091	1.000000	-0.000022	0.000020	0.000040	-178.347651	-77.790693	-125.493802
43169	9.638183	-0.034038	-2.130163	0.002471	0.051258	0.058011	1.000000	-0.000009	0.000018	0.000021	-178.341497	-77.786970	-125.498405
43170	9.598001	-0.008208	-2.103926	-0.028331	0.051489	0.013031	1.000000	-0.000016	0.000023	0.000032	-178.334976	-77.788161	-125.504662
43171	9.608440	-0.043552	-2.143995	0.021869	0.062565	0.031922	1.000000	-0.000023	0.000039	0.000020	-178.345781	-77.790456	-125.498018
43172	9.627865	-0.030473	-2.150063	0.012098	0.071721	0.052108	1.000000	-0.000009	0.000018	0.000021	-178.344022	-77.791181	-125.498557
43173	9.617284	-0.026082	-2.171176	0.021284	0.093044	0.046203	1.000000	-0.000016	0.000016	0.000022	-178.346566	-77.790758	-125.501698
43174	9.617539	-0.011444	-2.139747	-0.008028	0.075838	0.039718	1.000000	-0.000016	0.000023	0.000032	-178.340077	-77.791949	-125.507947
43175	9.608811	-0.045151	-2.142296	0.022530	0.060196	0.031935	1.000000	-0.000018	0.000024	0.000024	-178.351705	-77.790412	-125.494038
43176	9.628228	-0.032308	-2.148409	0.012760	0.069345	0.052124	1.000000	0.000007	0.000029	0.000036	-178.340138	-77.792261	-125.502691
43177	9.617870	-0.013023	-2.138247	-0.008250	0.073484	0.039735	1.000000	-0.000027	0.000029	0.000027	-178.330144	-77.789081	-125.513080
43178	9.607345	-0.008584	-2.159141	0.000891	0.095019	0.033836	1.000000	-0.000005	0.000029	0.000014	-178.331602	-77.791006	-125.509888
43179	9.598762	-0.027036	-2.130722	0.001608	0.062738	0.019556	1.000000	-0.000015	0.000009	0.000021	-178.332269	-77.787298	-125.509634
43180	9.618149	-0.014089	-2.136987	-0.008169	0.071876	0.039747	1.000000	-0.000002	0.000027	0.000029	-178.325209	-77.788980	-125.514740
43181	9.628703	-0.034385	-2.146250	0.012456	0.065980	0.052148	1.000000	-0.000015	0.000009	0.000021	-178.333780	-77.786684	-125.507364
43182	9.628937	-0.019665	-2.114882	-0.016850	0.048760	0.045653	1.000000	-0.000018	0.000024	0.000024	-178.331578	-77.787958	-125.509430
43183	9.618240	-0.030457	-2.166879	0.021752	0.086692	0.046260	1.000000	0.000006	0.000029	0.000028	-178.332220	-77.787885	-125.507509
43184	9.618501	-0.015919	-2.135389	-0.007555	0.069471	0.039765	1.000000	-0.000015	0.000015	0.000030	-178.326544	-77.788194	-125.512718
43185	9.599278	-0.029767	-2.128361	0.003114	0.059155	0.019578	1.000000	-0.000027	0.000029	0.000027	-178.345388	-77.790157	-125.497013
43186	9.629298	-0.021663	-2.113221	-0.015669	0.046370	0.045667	1.000000	-0.000002	0.000002	0.000033	-178.336761	-77.788926	-125.503770
43187	9.637888	-0.019030	-2.171987	0.012964	0.093652	0.066475	1.000000	-0.000014	0.000034	0.000017	-178.346811	-77.788470	-125.492262
43188	9.618691	-0.032820	-2.164839	0.022987	0.083777	0.046282	1.000000	-0.000016	0.000023	0.000032	-178.340460	-77.789619	-125.498371
43189	9.618932	-0.018188	-2.133427	-0.006926	0.065932	0.039790	1.000000	-0.000024	0.000014	0.000024	-178.335561	-77.784784	-125.502726
43190	9.659446	-0.029883	-2.127789	-0.005290	0.048068	0.078265	1.000000	-0.000002	0.000027	0.000029	-178.328612	-77.786439	-125.507723
43191	9.599798	-0.032574	-2.125975	0.003231	0.055207	0.019601	1.000000	-0.000024	0.000021	0.000033	-178.330350	-77.785088	-125.507917
43192	9.619066	-0.034735	-2.163146	0.022877	0.081172	0.046304	1.000000	0.000004	0.000030	0.000021	-178.327385	-77.787116	-125.508192
43193	9.619343	-0.019983	-2.131559	-0.006581	0.063612	0.039805	1.000000	-0.000020	0.000024	0.000016	-178.331089	-77.786386	-125.508457
43194	9.629925	-0.040148	-2.140659	0.013962	0.058168	0.052195	1.000000	-0.000027	0.000029	0.000027	-178.328515	-77.788212	-125.511982
43195	9.619553	-0.020759	-2.130604	-0.006253	0.062280	0.039814	1.000000	-0.000007	0.000018	0.000029	-178.333657	-77.786329	-125.504738
43196	9.630112	-0.041072	-2.139797	0.014291	0.056835	0.052202	1.000000	-0.000011	0.000026	0.000023	-178.331297	-77.787826	-125.506118
43197	9.619739	-0.021525	-2.129754	-0.006572	0.060932	0.039822	1.000000	-0.000011	0.000019	0.000014	-178.330607	-77.783917	-125.505019
43198	9.619671	-0.036971	-2.160416	0.022969	0.077408	0.046334	1.000000	-0.000016	0.000023	0.000032	-178.324265	-77.785024	-125.511120
43199	9.609314	-0.017512	-2.150310	0.002473	0.081567	0.033956	1.000000	-0.000005	0.000029	0.000014	-178.329771	-77.783753	-125.504339
43200	9.630524	-0.042712	-2.137913	0.014018	0.054198	0.052218	1.000000	-0.000015	0.000029	0.000049	-178.314160	-77.785460	-125.519712
43201	9.609526	-0.018684	-2.149351	0.003010	0.080334	0.033966	1.000000	-0.000024	0.000014	0.000023	-178.327211	-77.784371	-125.508731
43202	9.630678	-0.043687	-2.137196	0.014559	0.052963	0.052224	1.000000	-0.000009	0.000018	0.000021	-178.325643	-77.785003	-125.509096
43203	9.629023	-0.006050	-2.155199	-0.007063	0.088476	0.054182	1.000000	-0.000011	0.000026	0.000023	-178.323034	-77.782436	-125.510386
43204	9.590459	-0.033191	-2.141563	0.012865	0.069150	0.013774	1.000000	-0.000018	0.000024	0.000024	-178.320984	-77.783640	-125.512306
43205	9.609902	-0.020286	-2.147655	0.002849	0.077846	0.033986	1.000000	-0.000002	0.000027	0.000029	-178.314987	-77.782617	-125.519390
43206	9.620475	-0.040696	-2.156764	0.023391	0.072397	0.046372	1.000000	-0.000009	0.000025	0.000031	-178.308386	-77.783958	-125.524905
43207	9.610294	-0.006189	-2.115498	-0.026216	0.059884	0.027477	1.000000	-0.000007	0.000036	0.000016	-178.316815	-77.785461	-125.518815
43208	9.610266	-0.021574	-2.146013	0.003318	0.076360	0.033998	1.000000	-0.000025	0.000021	0.000025	-178.315068	-77.786398	-125.521300
43209	9.610207	-0.037245	-2.176674	0.032836	0.092353	0.040523	1.000000	-0.000013	0.000021	0.000047	-178.307660	-77.784888	-125.529219
43210	9.610461	-0.022734	-2.145125	0.003542	0.075099	0.034007	1.000000	-0.000005	0.000029	0.000014	-178.309308	-77.786718	-125.525866
43211	9.629898	-0.009747	-2.151273	-0.006207	0.083757	0.054224	1.000000	-0.000015	0.000015	0.000030	-178.311146	-77.785105	-125.526464
43212	9.621262	-0.028460	-2.122783	-0.005170	0.051978	0.039874	1.000000	-0.000011	0.000032	0.000032	-178.303827	-77.787279	-125.532940
43213	9.610764	-0.024132	-2.143755	0.003806	0.073121	0.034022	1.000000	-0.000009	0.000018	0.000021	-178.305652	-77.785543	-125.532622
43214	9.621315	-0.044372	-2.152940	0.024351	0.067667	0.046403	1.000000	-0.000011	0.000026	0.000023	-178.303358	-77.786987	-125.533968
43215	9.610988	-0.024925	-2.142742	0.004050	0.071930	0.034031	1.000000	-0.000005	0.000035	0.000023	-178.306626	-77.787591	-125.531712
43216	9.602330	-0.043470	-2.114313	0.005089	0.040154	0.019673	1.000000	-0.000022	0.000007	0.000022	-178.306465	-77.786824	-125.532189
43217	9.611322	-0.010714	-2.110802	-0.025027	0.053834	0.027515	1.000000	-0.000005	0.000042	0.000033	-178.307326	-77.788293	-125.532100
43218	9.621731	-0.046092	-2.151045	0.024930	0.065245	0.046418	1.000000	-0.000006	0.000004	0.000018	-178.307368	-77.787199	-125.530451
43219	9.620127	-0.008452	-2.169015	0.003383	0.100779	0.048416	1.000000	-0.000007	0.000043	0.000025	-178.304468	-77.787033	-125.532557
43220	9.611659	-0.011989	-2.109258	-0.024984	0.052133	0.027524	1.000000	-0.000011	0.000026	0.000023	-178.302207	-77.788461	-125.533880
43221	9.622067	-0.047285	-2.149515	0.025132	0.063189	0.046431	1.000000	-0.000009	0.000018	0.000021	-178.309918	-77.787887	-125.529317
43222	9.620603	0.005336	-2.136440	-0.025508	0.082370	0.041904	1.000000	-0.000009	0.000025	0.000031	-178.303424	-77.789195	-125.534774
43223	9.611821	-0.028366	-2.138959	0.004584	0.066895	0.034066	1.000000	0.000004	0.000030	0.000021	-178.301716	-77.787205	-125.533773
43224	9.641702	-0.035395	-2.154785	0.015225	0.070873	0.066661	1.000000	-0.000018	0.000005	0.000037	-178.293088	-77.786178	-125.542511
43225	9.620754	-0.011106	-2.166218	0.003851	0.097019	0.048454	1.000000	-0.000001	0.000039	0.000007	-178.304393	-77.786850	-125.531097
43226	9.633282	-0.039301	-2.094726	-0.013058	0.021367	0.045757	1.000000	-0.000005	0.000017	0.000037	-178.294423	-77.787181	-125.539699
43227	9.620949	-0.012114	-2.165348	0.003580	0.095671	0.048467	1.000000	-0.000007	0.000018	0.000029	-178.286239	-77.783292	-125.546394
43228	9.621166	0.002483	-2.133907	-0.025709	0.078398	0.041936	1.000000	-0.000002	0.000021	0.000020	-178.284469	-77.784108	-125.546161
43229	9.592991	-0.044471	-2.129986	0.014740	0.053553	0.013869	1.000000	-0.000018	0.000024	0.000024	-178.292799	-77.783081	-125.538578
43230	9.631800	-0.018141	-2.142685	-0.004958	0.072013	0.054317	1.000000	-0.000009	0.000018	0.000021	-178.291348	-77.783633	-125.538879
43231	9.631876	-0.018590	-2.142339	-0.004891	0.071295	0.054323	1.000000	-0.000007	0.000018	0.000029	-178.289496	-77.782369	-125.544301
43232	9.612605	-0.032402	-2.135374	0.005134	0.061468	0.034101	1.000000	-0.000011	0.000026	0.000023	-178.287283	-77.783762	-125.545599
43233	9.632065	-0.019278	-2.141481	-0.004782	0.070087	0.054331	1.000000	-0.000013	0.000020	0.000006	-178.297974	-77.782183	-125.536773
43234	9.572407	-0.021761	-2.139813	0.003692	0.077852	-0.004315	1.000000	0.000002	0.000026	0.000045	-178.282713	-77.783474	-125.549947
43235	9.632114	-0.035401	-2.171737	0.024883	0.085764	0.060881	1.000000	-0.000024	0.000014	0.000023	-178.288800	-77.781702	-125.547418
43236	9.621748	-0.015902	-2.161771	0.004568	0.090431	0.048516	1.000000	-0.000018	0.000024	0.000024	-178.286902	-77.782826	-125.549269
43237	9.623637	-0.039282	-2.111815	-0.003422	0.036364	0.039945	1.000000	-0.000011	0.000026	0.000023	-178.288674	-77.782273	-125.551044
43238	9.613170	-0.034854	-2.132789	0.005667	0.057909	0.034122	1.000000	-0.000011	0.000026	0.000023	-178.286486	-77.783653	-125.552343
43239	9.613277	-0.035325	-2.132302	0.005939	0.056994	0.034128	1.000000	-0.000009	0.000025	0.000031	-178.291749	-77.782999	-125.547356
43240	9.613511	-0.020756	-2.100736	-0.023344	0.039713	0.027586	1.000000	-0.000011	0.000026	0.000023	-178.289591	-77.784375	-125.548627
43241	9.632824	-0.022896	-2.138028	-0.003703	0.065376	0.054364	1.000000	-0.000013	0.000008	0.000028	-178.289129	-77.782690	-125.555469
43242	9.643428	-0.028142	-2.116403	-0.012555	0.043024	0.060187	1.000000	0.000009	0.000008	0.000016	-178.288686	-77.782054	-125.552669
43243	9.622366	-0.018859	-2.158993	0.005059	0.085958	0.048556	1.000000	-0.000027	0.000029	0.000027	-178.285433	-77.779610	-125.556976
43244	9.613675	-0.037502	-2.130470	0.006114	0.054195	0.034143	1.000000	-0.000009	0.000025	0.000031	-178.279019	-77.780856	-125.562408
43245	9.601581	0.004818	-2.169862	-0.005909	0.111900	0.030387	1.000000	-0.000009	0.000025	0.000031	-178.282679	-77.781686	-125.564405
43246	9.603325	-0.033697	-2.150954	0.015576	0.075065	0.028334	1.000000	-0.000003	0.000028	0.000022	-178.280243	-77.783311	-125.565131
43247	9.622928	-0.005787	-2.125939	-0.023390	0.066594	0.042028	1.000000	-0.000024	0.000021	0.000033	-178.289021	-77.781981	-125.556516
43248	9.614074	-0.039527	-2.128628	0.007068	0.051711	0.034156	1.000000	0.000000	0.000020	0.000028	-178.283138	-77.782640	-125.560356
43249	9.644016	-0.046465	-2.144197	0.017153	0.055039	0.066759	1.000000	-0.000023	0.000039	0.000020	-178.281088	-77.780835	-125.561833
43250	9.623162	-0.022097	-2.155412	0.005798	0.081657	0.048592	1.000000	-0.000027	0.000029	0.000027	-178.278800	-77.782509	-125.565186
43251	9.623286	-0.022580	-2.154853	0.005946	0.080742	0.048600	1.000000	0.000006	0.000029	0.000028	-178.280659	-77.781962	-125.561969
43252	9.624999	-0.061093	-2.135999	0.027443	0.043910	0.046529	1.000000	-0.000009	0.000018	0.000021	-178.279331	-77.782463	-125.562214
43253	9.613061	-0.003574	-2.144290	-0.014197	0.084423	0.036252	1.000000	-0.000013	0.000033	0.000024	-178.287041	-77.782140	-125.554003
43254	9.653447	-0.030310	-2.169448	0.016880	0.083261	0.081212	1.000000	-0.000013	0.000027	0.000015	-178.289223	-77.783598	-125.551067
43255	9.604353	-0.037421	-2.146298	0.016286	0.068558	0.028381	1.000000	-0.000011	0.000026	0.000023	-178.294435	-77.781862	-125.544934
43256	9.623909	-0.009490	-2.121482	-0.022900	0.060650	0.042068	1.000000	-0.000011	0.000001	0.000027	-178.290730	-77.780286	-125.547852
43257	9.623878	-0.024892	-2.152184	0.006187	0.076724	0.048631	1.000000	-0.000023	0.000039	0.000020	-178.288580	-77.779827	-125.553677
43258	9.613585	-0.005437	-2.141939	-0.014135	0.081385	0.036278	1.000000	-0.000002	0.000027	0.000029	-178.281962	-77.781291	-125.558477
43259	9.643439	-0.027347	-2.188498	0.025757	0.101701	0.075446	1.000000	-0.000025	0.000040	0.000012	-178.291471	-77.781574	-125.551702
43260	9.613874	-0.006039	-2.140640	-0.014048	0.080091	0.036289	1.000000	-0.000003	0.000028	0.000022	-178.289112	-77.783151	-125.552357
43261	9.575209	-0.033017	-2.127092	0.005489	0.060403	-0.004193	1.000000	-0.000013	0.000027	0.000015	-178.290586	-77.780788	-125.550868
43262	9.615681	-0.044796	-2.121256	0.007174	0.042334	0.034201	1.000000	-0.000016	0.000023	0.000032	-178.284565	-77.781719	-125.556782
43263	9.635160	-0.031846	-2.127363	-0.002492	0.050850	0.054450	1.000000	-0.000011	0.000019	0.000014	-178.297586	-77.780620	-125.545395
43264	9.635255	-0.032152	-2.126930	-0.002378	0.050434	0.054452	1.000000	-0.000011	0.000026	0.000023	-178.295541	-77.781926	-125.546594
43265	9.624839	-0.027708	-2.147844	0.006738	0.071496	0.048670	1.000000	-0.000013	0.000033	0.000024	-178.301603	-77.781936	-125.541577
43266	9.644363	-0.014872	-2.153768	-0.003060	0.080452	0.068921	1.000000	-0.000002	0.000027	0.000029	-178.295027	-77.783378	-125.546349
43267	9.625082	-0.028596	-2.146745	0.006759	0.069993	0.048681	1.000000	-0.000013	0.000027	0.000015	-178.303474	-77.780933	-125.534627
43268	9.614773	-0.009045	-2.136587	-0.013567	0.074649	0.036332	1.000000	-0.000020	0.000031	0.000026	-178.300995	-77.782810	-125.537330
43269	9.614857	-0.009417	-2.136206	-0.013928	0.073811	0.036338	1.000000	-0.000015	0.000009	0.000021	-178.296851	-77.778543	-125.543636
43270	9.625243	-0.044664	-2.176639	0.036007	0.085213	0.055265	1.000000	-0.000009	0.000018	0.000021	-178.295588	-77.778984	-125.543833
43271	9.634327	-0.011867	-2.173016	0.005633	0.098797	0.063173	1.000000	-0.000005	0.000035	0.000023	-178.296373	-77.778844	-125.544754
43272	9.625570	-0.030360	-2.144530	0.006711	0.067046	0.048702	1.000000	-0.000018	0.000017	0.000015	-178.299666	-77.779140	-125.541361
43273	9.615244	-0.010952	-2.134458	-0.013740	0.071167	0.036358	1.000000	-0.000009	0.000032	0.000040	-178.294166	-77.778066	-125.546944
43274	9.636318	-0.036164	-2.122041	-0.002134	0.043700	0.054485	1.000000	-0.000020	0.000024	0.000016	-178.296703	-77.779199	-125.544530
43275	9.625884	-0.031687	-2.143101	0.007289	0.064663	0.048717	1.000000	0.000000	0.000020	0.000028	-178.308566	-77.778232	-125.530540
43276	9.615439	-0.027280	-2.164220	0.016342	0.086214	0.042949	1.000000	-0.000009	0.000018	0.000021	-178.307365	-77.778658	-125.530681
43277	9.596120	-0.041055	-2.157340	0.026486	0.076048	0.022699	1.000000	0.000007	0.000022	0.000027	-178.310112	-77.778014	-125.529156
43278	9.626143	-0.033143	-2.141915	0.007743	0.063006	0.048728	1.000000	-0.000016	0.000023	0.000032	-178.304215	-77.778903	-125.534969
43279	9.626232	-0.033520	-2.141512	0.007608	0.062121	0.048733	1.000000	-0.000011	0.000019	0.000014	-178.309072	-77.776406	-125.531385
43280	9.606896	-0.047199	-2.134692	0.017633	0.052349	0.028478	1.000000	-0.000015	0.000015	0.000030	-178.303941	-77.776445	-125.536213
43281	9.605490	-0.009787	-2.152471	-0.003846	0.088009	0.030631	1.000000	-0.000012	0.000046	0.000043	-178.292169	-77.777871	-125.553437
43282	9.645991	-0.021803	-2.146407	-0.002148	0.069878	0.069002	1.000000	0.000006	0.000023	0.000019	-178.290381	-77.778802	-125.552486
43283	9.626673	-0.035497	-2.139497	0.007381	0.059698	0.048748	1.000000	-0.000025	0.000021	0.000025	-178.284419	-77.775906	-125.562396
43284	9.626761	-0.035874	-2.139094	0.007491	0.059273	0.048751	1.000000	-0.000002	0.000021	0.000020	-178.282913	-77.776569	-125.562022
43285	9.637281	-0.056141	-2.148252	0.028354	0.053165	0.061101	1.000000	-0.000011	0.000026	0.000023	-178.297604	-77.776008	-125.545890
43286	9.606026	-0.011978	-2.150069	-0.003483	0.084875	0.030659	1.000000	-0.000016	0.000023	0.000032	-178.291729	-77.776874	-125.551703
43287	9.627134	-0.022252	-2.106701	-0.021187	0.039873	0.042178	1.000000	-0.000007	0.000018	0.000029	-178.297521	-77.774418	-125.543661
43288	9.627135	-0.037721	-2.137379	0.008302	0.056346	0.048767	1.000000	-0.000011	0.000026	0.000023	-178.295618	-77.775657	-125.544752
43289	9.607930	-0.036425	-2.099240	-0.010925	0.029102	0.021919	1.000000	-0.000013	0.000033	0.000024	-178.305058	-77.775402	-125.534462
43290	9.636379	-0.005263	-2.133131	-0.021710	0.069318	0.056700	1.000000	-0.000020	0.000024	0.000016	-178.307736	-77.776497	-125.531932
43291	9.608052	-0.052214	-2.129367	0.018367	0.044573	0.028515	1.000000	0.000002	0.000019	0.000036	-178.300192	-77.773119	-125.536290
43292	9.627666	-0.024459	-2.104245	-0.020812	0.036566	0.042191	1.000000	-0.000013	0.000033	0.000024	-178.297554	-77.775187	-125.538334
43293	9.636498	-0.036745	-2.194007	0.036990	0.100807	0.069902	1.000000	-0.000013	0.000008	0.000028	-178.298809	-77.771972	-125.539265
43294	9.626232	-0.002373	-2.153013	-0.012720	0.088549	0.050974	1.000000	-0.000016	0.000023	0.000032	-178.293003	-77.772814	-125.545005
43295	9.617311	-0.036088	-2.155758	0.017820	0.073240	0.043051	1.000000	-0.000007	0.000018	0.000029	-178.296776	-77.771037	-125.541998
43296	9.628085	-0.011352	-2.071597	-0.049742	0.017009	0.035607	1.000000	-0.000022	0.000032	0.000018	-178.298719	-77.772957	-125.540431
43297	9.617574	-0.021761	-2.123848	-0.011463	0.055010	0.036464	1.000000	-0.000006	0.000004	0.000018	-178.303583	-77.769010	-125.536327
43298	9.637078	-0.008833	-2.129962	-0.021269	0.063894	0.056738	1.000000	-0.000013	0.000033	0.000024	-178.300983	-77.771063	-125.538346
43299	9.628161	-0.042481	-2.132661	0.009530	0.048589	0.048808	1.000000	0.000002	0.000012	0.000026	-178.310973	-77.769569	-125.528506
43300	9.617727	-0.038116	-2.153868	0.018565	0.070145	0.043072	1.000000	-0.000007	0.000018	0.000029	-178.305693	-77.769815	-125.532658
43301	9.617931	-0.023439	-2.122217	-0.013407	-0.016493	0.036602	1.000000	-0.000025	0.000040	0.000012	-179.334054	-77.432579	-124.788578
43302	9.617974	-0.038683	-2.152755	0.016138	-0.000383	0.043326	1.000000	-0.000009	0.000018	0.000021	-179.335715	-77.432031	-124.786601
43303	9.628559	-0.043952	-2.130835	0.007212	-0.022983	0.048902	1.000000	-0.000011	0.000026	0.000023	-179.336472	-77.432356	-124.785518
43304	9.637673	-0.011238	-2.127254	-0.022988	-0.009135	0.056936	1.000000	0.000000	0.000020	0.000028	-179.333692	-77.431959	-124.787023
43305	9.618256	-0.039911	-2.151470	0.016462	-0.002232	0.043326	1.000000	-0.000020	0.000024	0.000016	-179.339696	-77.432189	-124.781814
43306	9.627397	-0.007137	-2.147787	-0.013739	0.011614	0.051363	1.000000	0.000013	0.000032	0.000027	-179.335649	-77.433152	-124.783099
43307	9.618580	-0.025729	-2.119243	-0.012792	-0.020189	0.036595	1.000000	-0.000029	0.000030	0.000019	-179.340174	-77.433910	-124.780583
43308	9.618703	-0.025975	-2.118683	-0.012691	-0.020809	0.036594	1.000000	-0.000005	0.000029	0.000014	-179.345012	-77.434568	-124.774900
43309	9.617282	-0.003216	-2.167631	-0.004414	0.031764	0.045797	1.000000	-0.000018	0.000024	0.000024	-179.346673	-77.434701	-124.774884
43310	9.618821	-0.041734	-2.148908	0.016973	-0.005310	0.043323	1.000000	-0.000015	0.000015	0.000030	-179.344491	-77.433793	-124.777499
43311	9.599557	-0.040496	-2.110890	-0.002520	-0.031843	0.016248	1.000000	-0.000013	0.000033	0.000024	-179.343784	-77.434914	-124.778056
43312	9.638504	-0.014362	-2.123467	-0.022180	-0.014068	0.056932	1.000000	-0.000011	0.000001	0.000027	-179.342941	-77.432312	-124.778890
43313	9.619032	-0.043061	-2.147939	0.017282	-0.007155	0.043322	1.000000	-0.000009	0.000018	0.000021	-179.345592	-77.431868	-124.775580
43314	9.608626	-0.038689	-2.169102	0.026397	0.014223	0.037759	1.000000	-0.000006	0.000017	0.000037	-179.338970	-77.431111	-124.781677
43315	9.638661	-0.030695	-2.153526	0.007620	0.000801	0.063666	1.000000	-0.000032	0.000038	0.000013	-179.347835	-77.432864	-124.774636
43316	9.619406	-0.029309	-2.115445	-0.011835	-0.025748	0.036584	1.000000	-0.000007	0.000018	0.000029	-179.345355	-77.432212	-124.776695
43317	9.619407	-0.044740	-2.146225	0.017671	-0.009611	0.043319	1.000000	-0.000016	0.000016	0.000022	-179.346327	-77.431385	-124.775375
43318	9.628532	-0.012021	-2.142671	-0.012536	0.004216	0.051371	1.000000	-0.000009	0.000025	0.000031	-179.343178	-77.431579	-124.778325
43319	9.639062	-0.032316	-2.151707	0.007982	-0.001656	0.063665	1.000000	-0.000014	0.000034	0.000017	-179.347313	-77.432836	-124.773331
43320	9.619733	-0.045916	-2.144734	0.017965	-0.011460	0.043316	1.000000	-0.000025	0.000021	0.000025	-179.348907	-77.432622	-124.773349
43321	9.630384	-0.036233	-2.091603	-0.020342	-0.050823	0.042129	1.000000	-0.000013	0.000033	0.000024	-179.349986	-77.433882	-124.773517
43322	9.639457	-0.018511	-2.119106	-0.021114	-0.020260	0.056924	1.000000	0.000002	0.000012	0.000026	-179.347877	-77.432638	-124.774131
43323	9.609629	-0.027261	-2.133769	-0.002132	-0.008045	0.031022	1.000000	-0.000029	0.000030	0.000019	-179.352591	-77.433412	-124.771604
43324	9.639601	-0.034272	-2.149263	0.008515	-0.004748	0.063664	1.000000	-0.000002	0.000027	0.000029	-179.349143	-77.433861	-124.774000
43325	9.620322	-0.033124	-2.111220	-0.010963	-0.031274	0.036569	1.000000	-0.000009	0.000025	0.000031	-179.345156	-77.434023	-124.776146
43326	9.630844	-0.053499	-2.120264	0.009568	-0.037154	0.048857	1.000000	-0.000013	0.000033	0.000024	-179.345481	-77.435168	-124.775947
43327	9.620528	-0.034063	-2.110267	-0.010753	-0.032503	0.036565	1.000000	-0.000013	0.000008	0.000028	-179.343961	-77.433485	-124.778689
43328	9.629623	-0.016341	-2.137736	-0.011531	-0.001946	0.051373	1.000000	-0.000014	0.000041	0.000026	-179.343617	-77.435477	-124.779379
43329	9.629688	-0.031725	-2.168278	0.018004	0.014186	0.058118	1.000000	-0.000009	0.000018	0.000021	-179.345263	-77.434972	-124.776343
43330	9.599980	-0.010509	-2.120743	-0.021872	-0.007088	0.018729	1.000000	0.000006	0.000023	0.000019	-179.346327	-77.434934	-124.773256
43331	9.640327	-0.037403	-2.145950	0.009196	-0.009062	0.063660	1.000000	-0.000025	0.000021	0.000025	-179.347707	-77.434687	-124.769911
43332	9.610497	-0.046130	-2.160651	0.028178	0.003163	0.037764	1.000000	-0.000009	0.000018	0.000021	-179.349372	-77.434137	-124.767930
43333	9.610652	-0.031541	-2.129096	-0.001127	-0.014203	0.031015	1.000000	-0.000003	0.000028	0.000022	-179.350484	-77.434775	-124.766192
43334	9.610681	-0.046970	-2.159812	0.028401	0.001929	0.037763	1.000000	-0.000022	0.000013	0.000031	-179.348609	-77.433610	-124.769355
43335	9.639304	-0.000996	-2.162610	-0.011713	0.024906	0.066195	1.000000	-0.000013	0.000033	0.000024	-179.348334	-77.434792	-124.770178
43336	9.621331	-0.067751	-2.168264	0.049019	-0.004550	0.050048	1.000000	-0.000014	0.000041	0.000026	-179.347991	-77.436783	-124.770867
43337	9.590279	-0.008556	-2.138850	-0.012153	0.010609	0.013194	1.000000	-0.000016	0.000023	0.000032	-179.345708	-77.436784	-124.773145
43338	9.641063	-0.040610	-2.142584	0.009935	-0.013389	0.063654	1.000000	-0.000006	0.000017	0.000037	-179.339088	-77.436025	-124.779242
43339	9.611269	-0.034418	-2.126263	-0.000518	-0.017889	0.031009	1.000000	-0.000025	0.000015	0.000016	-179.345150	-77.435109	-124.775017
43340	9.600927	-0.029720	-2.147306	0.008574	0.003506	0.025479	1.000000	-0.000014	0.000034	0.000017	-179.349620	-77.436357	-124.770775
43341	9.611477	-0.034957	-2.125315	-0.000328	-0.019124	0.031007	1.000000	-0.000016	0.000016	0.000022	-179.351241	-77.435524	-124.767142
43342	9.620589	-0.017141	-2.152836	-0.001124	0.011421	0.045842	1.000000	-0.000011	0.000026	0.000023	-179.352238	-77.435820	-124.766049
43343	9.631174	-0.022409	-2.130679	-0.010011	-0.011206	0.051368	1.000000	-0.000016	0.000041	0.000018	-179.355884	-77.437964	-124.763213
43344	9.631304	-0.022820	-2.130090	-0.009910	-0.011827	0.051367	1.000000	0.000000	0.000020	0.000028	-179.353105	-77.437565	-124.764719
43345	9.601493	-0.031773	-2.144744	0.009036	0.000434	0.025479	1.000000	-0.000024	0.000027	0.000042	-179.345085	-77.437924	-124.771074
43346	9.631497	-0.023981	-2.129203	-0.009733	-0.013064	0.051366	1.000000	-0.000009	0.000018	0.000021	-179.346752	-77.437374	-124.769091
43347	9.621157	-0.019513	-2.150278	-0.000650	0.008350	0.045845	1.000000	-0.000002	0.000027	0.000029	-179.343041	-77.437887	-124.772690
43348	9.631701	-0.024841	-2.128269	-0.009533	-0.014290	0.051365	1.000000	-0.000020	0.000024	0.000016	-179.348485	-77.438033	-124.768108
43349	9.631785	-0.025212	-2.127887	-0.009440	-0.014887	0.051364	1.000000	-0.000015	0.000015	0.000030	-179.345774	-77.437206	-124.773177
43350	9.631809	-0.040695	-2.158688	0.020080	0.001253	0.058124	1.000000	-0.000007	0.000018	0.000029	-179.343298	-77.436552	-124.775234
43351	9.641007	-0.007933	-2.154991	-0.010114	0.015021	0.066216	1.000000	-0.000014	0.000034	0.000017	-179.348458	-77.437869	-124.769774
43352	9.612600	-0.039701	-2.120145	0.000778	-0.025885	0.030991	1.000000	-0.000025	0.000021	0.000025	-179.350063	-77.437654	-124.769781
43353	9.642525	-0.046776	-2.135866	0.011414	-0.022624	0.063636	1.000000	-0.000013	0.000008	0.000028	-179.348028	-77.435893	-124.770858
43354	9.632212	-0.027403	-2.125926	-0.008922	-0.017985	0.051359	1.000000	-0.000002	0.000027	0.000029	-179.344579	-77.436340	-124.773255
43355	9.591990	-0.031250	-2.162052	0.019034	0.016330	0.019967	1.000000	-0.000011	0.000026	0.000023	-179.345663	-77.436734	-124.773624
43356	9.632391	-0.043232	-2.156040	0.020708	-0.002449	0.058123	1.000000	-0.000011	0.000026	0.000023	-179.346662	-77.437030	-124.772531
43357	9.622116	-0.023726	-2.145941	0.000356	0.002200	0.045849	1.000000	-0.000011	0.000026	0.000023	-179.347186	-77.437318	-124.770678
43358	9.611833	-0.004295	-2.135880	-0.019982	0.006841	0.033576	1.000000	0.000007	0.000022	0.000027	-179.344103	-77.437173	-124.771635
43359	9.632721	-0.029750	-2.123586	-0.008384	-0.021057	0.051353	1.000000	-0.000029	0.000017	0.000041	-179.338340	-77.436654	-124.782474
43360	9.632790	-0.045011	-2.154218	0.021131	-0.004912	0.058121	1.000000	-0.000025	0.000033	0.000002	-179.351403	-77.437856	-124.770699
43361	9.622537	-0.025360	-2.144033	0.000816	-0.000263	0.045849	1.000000	-0.000002	0.000027	0.000029	-179.348363	-77.438414	-124.773775
43362	9.633034	-0.045821	-2.153113	0.021357	-0.006146	0.058120	1.000000	-0.000002	0.000027	0.000029	-179.344916	-77.438860	-124.776170
43363	9.622783	-0.011432	-2.111952	-0.028388	-0.018266	0.039078	1.000000	-0.000009	0.000018	0.000021	-179.346675	-77.438352	-124.773727
43364	9.633258	-0.031639	-2.121121	-0.007846	-0.024149	0.051347	1.000000	-0.000013	0.000027	0.000015	-179.351819	-77.438753	-124.768590
43365	9.603465	-0.040250	-2.135754	0.011118	-0.011834	0.025470	1.000000	-0.000011	0.000026	0.000023	-179.352668	-77.439144	-124.769376
43366	9.612618	-0.022500	-2.163313	0.010303	0.018688	0.040353	1.000000	-0.000006	0.000010	0.000027	-179.350867	-77.437642	-124.770540
43367	9.623099	-0.027971	-2.141477	0.001443	-0.003948	0.045848	1.000000	-0.000016	0.000023	0.000032	-179.348037	-77.437685	-124.775684
43368	9.603721	-0.041608	-2.134574	0.011431	-0.013674	0.025467	1.000000	-0.000022	0.000032	0.000018	-179.352819	-77.438678	-124.771985
43369	9.612922	-0.023732	-2.161951	0.010592	0.016858	0.040356	1.000000	0.000006	0.000023	0.000019	-179.353198	-77.438622	-124.768370
43370	9.633833	-0.034108	-2.118470	-0.007244	-0.027829	0.051338	1.000000	-0.000016	0.000023	0.000032	-179.350364	-77.438559	-124.771861
43371	9.623542	-0.029707	-2.139463	0.001832	-0.006412	0.045847	1.000000	-0.000011	0.000032	0.000032	-179.346657	-77.439632	-124.774878
43372	9.632769	0.002966	-2.135749	-0.028397	0.007331	0.053964	1.000000	-0.000009	0.000018	0.000021	-179.348330	-77.439081	-124.772890
43373	9.623740	-0.030637	-2.138560	0.002016	-0.007634	0.045846	1.000000	-0.000009	0.000025	0.000031	-179.344520	-77.439301	-124.776662
43374	9.613482	-0.011209	-2.128421	-0.018326	-0.002990	0.033581	1.000000	-0.000020	0.000031	0.000026	-179.345159	-77.440189	-124.777002
43375	9.613584	-0.026714	-2.158968	0.011201	0.013166	0.040361	1.000000	-0.000016	0.000029	0.000041	-179.337868	-77.440946	-124.785652
43376	9.624078	-0.032218	-2.137014	0.002338	-0.009490	0.045844	1.000000	0.000007	0.000015	0.000018	-179.339600	-77.440059	-124.781677
43377	9.624170	-0.032600	-2.136590	0.002445	-0.010114	0.045843	1.000000	-0.000027	0.000029	0.000027	-179.340731	-77.440695	-124.780724
43378	9.633372	-0.014939	-2.164046	0.001620	0.020395	0.060750	1.000000	-0.000006	0.000017	0.000037	-179.334120	-77.439934	-124.786815
43379	9.634756	-0.038568	-2.114192	-0.006294	-0.033394	0.051321	1.000000	-0.000005	0.000029	0.000014	-179.339393	-77.440647	-124.780513
43380	9.633583	-0.015720	-2.163104	0.001839	0.019152	0.060752	1.000000	-0.000018	0.000024	0.000024	-179.340705	-77.440688	-124.779960
43381	9.614204	-0.014399	-2.125139	-0.017570	-0.007330	0.033580	1.000000	-0.000011	0.000026	0.000023	-179.341827	-77.441006	-124.777675
43382	9.614290	-0.029809	-2.155779	0.011934	0.008828	0.040365	1.000000	-0.000009	0.000025	0.000031	-179.338689	-77.441197	-124.780615
43383	9.644334	-0.007175	-2.108915	-0.036207	-0.021533	0.059444	1.000000	-0.000003	0.000035	0.000031	-179.334731	-77.442503	-124.782575
43384	9.604163	-0.011024	-2.145086	-0.008305	0.012852	0.028106	1.000000	0.000000	0.000020	0.000028	-179.331957	-77.442102	-124.784077
43385	9.604239	-0.026343	-2.175791	0.021208	0.029016	0.034895	1.000000	-0.000020	0.000024	0.000016	-179.337613	-77.442304	-124.779145
43386	9.614739	-0.016913	-2.122699	-0.017047	-0.010428	0.033578	1.000000	-0.000013	0.000021	0.000047	-179.326496	-77.442028	-124.790713
43387	9.625189	-0.052302	-2.162970	0.032908	0.000477	0.052624	1.000000	-0.000013	0.000027	0.000015	-179.331686	-77.442481	-124.785623
43388	9.625314	-0.037759	-2.131346	0.003609	-0.016925	0.045834	1.000000	-0.000009	0.000025	0.000031	-179.328549	-77.442671	-124.788562
43389	9.585140	-0.026634	-2.136514	0.002098	0.000707	0.007715	1.000000	-0.000007	0.000018	0.000029	-179.325764	-77.442059	-124.791023
43390	9.615117	-0.033785	-2.152031	0.012757	0.003896	0.040367	1.000000	-0.000003	0.000028	0.000022	-179.326463	-77.442609	-124.789375
43391	9.604870	-0.014117	-2.141899	-0.007586	0.008539	0.028112	1.000000	-0.000014	0.000027	0.000007	-179.335891	-77.443126	-124.778714
43392	9.625691	-0.054237	-2.160688	0.033413	-0.002608	0.052622	1.000000	-0.000015	0.000015	0.000030	-179.333735	-77.442214	-124.781308
43393	9.615427	-0.020002	-2.119552	-0.016321	-0.014742	0.033574	1.000000	-0.000024	0.000027	0.000042	-179.326561	-77.442706	-124.790725
43394	9.645393	-0.042164	-2.166195	0.023737	0.005223	0.073019	1.000000	-0.000009	0.000018	0.000021	-179.328240	-77.442154	-124.788730
43395	9.625977	-0.040673	-2.128298	0.004355	-0.021245	0.045825	1.000000	-0.000022	0.000025	0.000009	-179.338351	-77.442490	-124.780302
43396	9.615730	-0.021078	-2.118166	-0.015994	-0.016601	0.033571	1.000000	-0.000018	0.000030	0.000033	-179.334855	-77.443271	-124.784675
43397	9.635346	-0.023176	-2.155169	0.003626	0.008644	0.060767	1.000000	-0.000011	0.000019	0.000014	-179.340659	-77.442958	-124.781133
43398	9.586024	-0.029996	-2.132501	0.003055	-0.004827	0.007714	1.000000	-0.000002	0.000021	0.000020	-179.342030	-77.442661	-124.778592
43399	9.645879	-0.028830	-2.132901	-0.005123	-0.014638	0.066221	1.000000	-0.000016	0.000016	0.000022	-179.343708	-77.441889	-124.777410
43400	9.626445	-0.057360	-2.157247	0.034263	-0.007527	0.052616	1.000000	0.000004	0.000030	0.000021	-179.344100	-77.442693	-124.775214
43401	9.616220	-0.008000	-2.084814	-0.044861	-0.036471	0.026767	1.000000	-0.000027	0.000029	0.000027	-179.345559	-77.443309	-124.773692
43402	9.616325	-0.053098	-2.177663	0.043421	0.013277	0.047165	1.000000	-0.000005	0.000029	0.000014	-179.350404	-77.443964	-124.767998
43403	9.615221	-0.000360	-2.164398	-0.007286	0.032248	0.043072	1.000000	0.000000	0.000013	0.000019	-179.352022	-77.442828	-124.764644
43404	9.606115	-0.033921	-2.167388	0.023157	0.017315	0.034918	1.000000	-0.000015	0.000015	0.000030	-179.349870	-77.441916	-124.767234
43405	9.616583	-0.024452	-2.114253	-0.015053	-0.022149	0.033562	1.000000	-0.000013	0.000033	0.000024	-179.350620	-77.443139	-124.767290
43406	9.627035	-0.029903	-2.092302	-0.023890	-0.044825	0.039005	1.000000	-0.000006	0.000010	0.000027	-179.348829	-77.441635	-124.768445
43407	9.636286	-0.027082	-2.150918	0.004683	0.002441	0.060770	1.000000	0.000004	0.000030	0.000021	-179.350037	-77.442522	-124.766047
43408	9.606507	-0.020770	-2.134492	-0.005779	-0.001955	0.028116	1.000000	-0.000025	0.000021	0.000025	-179.351670	-77.442308	-124.766027
43409	9.616966	-0.026229	-2.112490	-0.014610	-0.024623	0.033557	1.000000	-0.000002	0.000027	0.000029	-179.348175	-77.442815	-124.768970
43410	9.626234	-0.008646	-2.139935	-0.015463	0.005855	0.048525	1.000000	-0.000006	0.000017	0.000037	-179.341573	-77.442052	-124.775053
43411	9.606806	-0.037321	-2.164264	0.023910	0.012998	0.034923	1.000000	-0.000013	0.000033	0.000024	-179.341629	-77.443203	-124.774563
43412	9.636805	-0.029505	-2.148559	0.005185	-0.000646	0.060770	1.000000	-0.000009	0.000018	0.000021	-179.343313	-77.442651	-124.772563
43413	9.617364	-0.028177	-2.110651	-0.014206	-0.027078	0.033551	1.000000	-0.000003	0.000028	0.000022	-179.343895	-77.443298	-124.772350
43414	9.616333	-0.005392	-2.159444	-0.006129	0.025458	0.043093	1.000000	-0.000005	0.000035	0.000023	-179.343928	-77.444694	-124.771587
43415	9.617604	-0.043899	-2.140706	0.015349	-0.011515	0.040357	1.000000	-0.000024	0.000014	0.000023	-179.345310	-77.443547	-124.769197
43416	9.637239	-0.030995	-2.146590	0.005559	-0.003105	0.060769	1.000000	-0.000022	0.000032	0.000018	-179.350108	-77.444540	-124.765479
43417	9.626976	-0.026292	-2.167747	0.014611	0.018342	0.055339	1.000000	0.000009	0.000008	0.000016	-179.352914	-77.442895	-124.761163
43418	9.607517	-0.024957	-2.129894	-0.004783	-0.008101	0.028114	1.000000	-0.000013	0.000033	0.000024	-179.353259	-77.444036	-124.760941
43419	9.636349	0.020820	-2.132476	-0.044897	0.014588	0.056703	1.000000	-0.000013	0.000014	0.000038	-179.347589	-77.443071	-124.767017
43420	9.628400	-0.065946	-2.148255	0.036358	-0.019880	0.052592	1.000000	-0.000009	0.000025	0.000031	-179.344461	-77.443259	-124.769947
43421	9.646900	-0.000182	-2.141176	-0.024233	0.008087	0.068945	1.000000	-0.000027	0.000029	0.000027	-179.345413	-77.443959	-124.771565
43422	9.587211	0.012953	-2.108896	-0.045264	-0.000039	0.003635	1.000000	0.000013	0.000018	0.000009	-179.350977	-77.443428	-124.763004
43423	9.658579	-0.103790	-2.225215	0.106013	0.015627	0.098873	1.000000	-0.000026	0.000009	0.000047	-179.341305	-77.441858	-124.775039
43424	9.658615	0.000048	-2.006754	-0.099569	-0.102596	0.051159	1.000000	0.000008	0.000041	0.000014	-179.344857	-77.443867	-124.769147
43425	9.587568	-0.077909	-2.294430	0.131332	0.098930	0.044538	1.000000	-0.000009	0.000018	0.000021	-179.346071	-77.443343	-124.767508
43426	9.618628	-0.033825	-2.104804	-0.012868	-0.035100	0.033527	1.000000	-0.000024	0.000027	0.000042	-179.338757	-77.443764	-124.776453
43427	9.667073	0.010198	-2.144674	-0.033508	0.013397	0.089369	1.000000	-0.000005	0.000035	0.000023	-179.338856	-77.445259	-124.776883
43428	9.608590	-0.059615	-2.187395	0.055032	0.019348	0.041746	1.000000	-0.000020	0.000031	0.000025	-179.339516	-77.446146	-124.777202
43429	9.629358	-0.040235	-2.081407	-0.021476	-0.059016	0.038935	1.000000	-0.000013	0.000033	0.000024	-179.339729	-77.447285	-124.776151
43430	9.658248	-0.009157	-2.115029	-0.032237	-0.019551	0.074363	1.000000	-0.000027	0.000022	0.000017	-179.345517	-77.447178	-124.772078
43431	9.599727	-0.078851	-2.157924	0.056302	-0.013582	0.026736	1.000000	-0.000003	0.000028	0.000022	-179.346270	-77.447715	-124.769228
43432	9.609040	-0.031314	-2.122928	-0.003329	-0.016733	0.028103	1.000000	-0.000018	0.000030	0.000033	-179.342787	-77.448495	-124.773588
43433	9.618368	0.001156	-2.119097	-0.033565	-0.003069	0.036294	1.000000	0.000024	0.000025	0.000032	-179.335128	-77.448864	-124.778884
43434	9.648391	-0.035930	-2.196900	0.035862	0.033653	0.082599	1.000000	-0.000024	0.000014	0.000023	-179.337446	-77.447804	-124.777961
43435	9.618520	0.015149	-2.087172	-0.062755	-0.021105	0.029470	1.000000	-0.000003	0.000028	0.000022	-179.337661	-77.448363	-124.776345
43436	9.629006	-0.035050	-2.158590	0.016564	0.006618	0.055351	1.000000	-0.000024	0.000021	0.000033	-179.335164	-77.448043	-124.780355
43437	9.618739	-0.000759	-2.117413	-0.033161	-0.005538	0.036295	1.000000	-0.000009	0.000025	0.000030	-179.332302	-77.448288	-124.783198
43438	9.601406	-0.060923	-2.011999	-0.039037	-0.121448	-0.003377	1.000000	-0.000006	0.000010	0.000027	-179.330522	-77.446783	-124.784344
43439	9.647645	0.044427	-2.119852	-0.073192	0.016480	0.064922	1.000000	-0.000020	0.000012	0.000039	-179.324821	-77.445586	-124.791742
43440	9.580935	-0.111646	-2.179258	0.096515	-0.011287	0.013121	1.000000	0.000018	0.000009	0.000023	-179.322771	-77.443995	-124.790373
43441	9.658016	0.053145	-2.066843	-0.111282	-0.023632	0.063496	1.000000	-0.000002	0.000002	0.000033	-179.317107	-77.441628	-124.796160
43442	9.648900	-0.055023	-2.225821	0.066052	0.045532	0.089441	1.000000	-0.000028	0.000003	0.000030	-179.316274	-77.439362	-124.798922
43443	9.608731	-0.028779	-2.200034	0.035133	0.046480	0.044558	1.000000	-0.000003	0.000028	0.000022	-179.317062	-77.440032	-124.798750
43444	9.628468	-0.030922	-2.236813	0.054714	0.071656	0.071823	1.000000	-0.000014	0.000041	0.000026	-179.316739	-77.442019	-124.799417
43445	9.678997	0.026294	-2.053378	-0.099295	-0.053457	0.081115	1.000000	-0.000006	0.000010	0.000027	-179.315086	-77.440584	-124.800975
43446	9.610282	-0.142834	-2.335926	0.203760	0.092349	0.075913	1.000000	-0.000020	0.000038	0.000035	-179.310936	-77.442211	-124.806221
43447	9.589560	0.030527	-2.035720	-0.101447	-0.049029	-0.010032	1.000000	-0.000003	0.000035	0.000031	-179.306479	-77.443425	-124.808098
43448	9.640258	-0.046420	-2.132709	0.008902	-0.022858	0.060741	1.000000	0.000003	0.000005	0.000025	-179.305062	-77.441327	-124.807807
43449	9.600108	-0.034987	-2.138099	0.007339	-0.005084	0.022692	1.000000	-0.000020	0.000024	0.000016	-179.310312	-77.441560	-124.804289
43450	9.620850	-0.045460	-2.094402	-0.010371	-0.049871	0.033466	1.000000	-0.000020	0.000038	0.000035	-179.306162	-77.443186	-124.809535
43451	9.619961	-0.037597	-2.174379	0.027020	0.019478	0.049964	1.000000	-0.000002	0.000021	0.000020	-179.307381	-77.442946	-124.807569
43452	9.619986	-0.008337	-2.111725	-0.031621	-0.014770	0.036290	1.000000	-0.000006	0.000017	0.000037	-179.300794	-77.442180	-124.813640
43453	9.600497	-0.036995	-2.136315	0.007738	-0.007534	0.022690	1.000000	0.000002	0.000012	0.000026	-179.298397	-77.440967	-124.814619
43454	9.630386	-0.014393	-2.089720	-0.040327	-0.038085	0.041671	1.000000	0.000002	0.000006	0.000017	-179.301122	-77.438975	-124.810287
43455	9.639759	-0.026402	-2.179647	0.017495	0.026001	0.070406	1.000000	-0.000015	0.000015	0.000030	-179.298084	-77.438079	-124.813439
43456	9.590345	-0.018442	-2.125911	-0.012452	-0.004096	0.010468	1.000000	-0.000018	0.000030	0.000033	-179.294609	-77.438859	-124.817792
43457	9.629643	-0.022267	-2.200383	0.026564	0.046861	0.065030	1.000000	-0.000016	0.000010	0.000013	-179.300557	-77.437273	-124.810900
43458	9.629688	0.007136	-2.137630	-0.032070	0.012604	0.051349	1.000000	-0.000020	0.000038	0.000035	-179.296409	-77.438900	-124.816145
43459	9.609292	-0.013047	-2.242432	0.044580	0.089810	0.054284	1.000000	-0.000011	0.000026	0.000023	-179.297680	-77.439308	-124.816046
43460	9.620752	-0.056549	-2.202093	0.057247	0.030779	0.056814	1.000000	-0.000022	0.000032	0.000018	-179.302486	-77.440302	-124.812320
43461	9.631155	-0.047121	-2.148749	0.019087	-0.008748	0.055344	1.000000	-0.000003	0.000035	0.000031	-179.298421	-77.441605	-124.815324
43462	9.600442	-0.017551	-2.181394	0.016511	0.040087	0.032383	1.000000	-0.000019	0.000056	0.000022	-179.300891	-77.445392	-124.813735
43463	9.622289	-0.066117	-2.118972	0.020314	-0.041037	0.040269	1.000000	-0.000019	0.000056	0.000022	-179.303946	-77.449256	-124.812224
43464	9.621454	-0.028432	-2.136329	-0.001054	-0.005338	0.043126	1.000000	-0.000003	0.000035	0.000031	-179.299837	-77.450542	-124.815502
43465	9.611314	-0.009031	-2.125899	-0.021458	-0.000683	0.030911	1.000000	-0.000001	0.000052	0.000026	-179.297395	-77.453782	-124.814810
43466	9.633052	-0.057711	-2.063830	-0.017668	-0.081807	0.038780	1.000000	0.000006	0.000023	0.000019	-179.298459	-77.453736	-124.811722
43467	9.611598	-0.009801	-2.124612	-0.021271	-0.001919	0.030911	1.000000	-0.000007	0.000036	0.000016	-179.302237	-77.455203	-124.806410
43468	9.632321	-0.035114	-2.112097	-0.009589	-0.029907	0.048489	1.000000	-0.000002	0.000021	0.000020	-179.303618	-77.454903	-124.803860
43469	9.622056	-0.015613	-2.102232	-0.029969	-0.025252	0.036274	1.000000	-0.000013	0.000008	0.000028	-179.301879	-77.453126	-124.805050
43470	9.632441	-0.036064	-2.111530	-0.009395	-0.031144	0.048485	1.000000	-0.000016	0.000023	0.000032	-179.299079	-77.453059	-124.808510
43471	9.611957	-0.026476	-2.154339	0.008479	0.012444	0.037763	1.000000	-0.000006	0.000010	0.000027	-179.297034	-77.451602	-124.810406
43472	9.611991	-0.026887	-2.154180	0.008580	0.011824	0.037763	1.000000	-0.000022	0.000007	0.000022	-179.300043	-77.449697	-124.808574
43473	9.621346	-0.008930	-2.181841	0.007668	0.042258	0.052857	1.000000	-0.000016	0.000010	0.000013	-179.306552	-77.448221	-124.803139
43474	9.622380	-0.032480	-2.132097	-0.000108	-0.011497	0.043121	1.000000	-0.000027	0.000029	0.000026	-179.307540	-77.448855	-124.803984
43475	9.622457	-0.033083	-2.131740	0.000002	-0.012103	0.043120	1.000000	-0.000002	0.000008	0.000043	-179.297454	-77.447230	-124.814303
43476	9.642154	-0.035481	-2.168898	0.019566	0.013038	0.070428	1.000000	-0.000007	0.000017	0.000029	-179.295011	-77.446569	-124.816333
43477	9.652514	-0.040917	-2.146933	0.010783	-0.009674	0.075781	1.000000	-0.000020	0.000024	0.000016	-179.300332	-77.446769	-124.812230
43478	9.612385	-0.014574	-2.121023	-0.020168	-0.008679	0.030910	1.000000	-0.000009	0.000025	0.000030	-179.297216	-77.446956	-124.815151
43479	9.622866	-0.049866	-2.161237	0.029729	0.002261	0.049975	1.000000	-0.000020	0.000031	0.000025	-179.297064	-77.447732	-124.814123
43480	9.582803	-0.038405	-2.166419	0.028132	0.020091	0.011963	1.000000	-0.000011	0.000026	0.000023	-179.298089	-77.448025	-124.813003
43481	9.623038	-0.035853	-2.129071	0.000592	-0.015802	0.043115	1.000000	-0.000016	0.000023	0.000032	-179.295553	-77.448054	-124.817091
43482	9.633400	-0.041302	-2.107054	-0.008186	-0.038526	0.048460	1.000000	-0.000020	0.000024	0.000016	-179.301040	-77.448202	-124.812464
43483	9.613020	-0.046183	-2.180917	0.039036	0.021906	0.044629	1.000000	-0.000013	0.000020	0.000006	-179.311015	-77.447938	-124.803071
43484	9.673824	-0.068332	-2.131608	0.023081	-0.041383	0.093324	1.000000	-0.000013	0.000027	0.000015	-179.316183	-77.448339	-124.797908
43485	9.623441	-0.036764	-2.127234	0.001011	-0.018273	0.043111	1.000000	-0.000013	0.000027	0.000015	-179.321512	-77.448744	-124.792078
43486	9.652439	0.009152	-2.129662	-0.039159	0.004214	0.071824	1.000000	-0.000002	0.000021	0.000020	-179.322892	-77.448444	-124.789530
43487	9.653454	-0.014369	-2.079808	-0.046902	-0.049530	0.062045	1.000000	-0.000007	0.000030	0.000006	-179.331979	-77.449283	-124.780263
43488	9.622730	0.015397	-2.112873	-0.049526	-0.000662	0.039162	1.000000	-0.000000	0.000020	0.000028	-179.329217	-77.448875	-124.781758
43489	9.613417	-0.003160	-2.084890	-0.048435	-0.032282	0.024039	1.000000	0.000002	-0.000001	0.000008	-179.335674	-77.446146	-124.773166
43490	9.622795	0.014719	-2.112582	-0.049357	-0.001882	0.039163	1.000000	0.000002	0.000012	0.000026	-179.333582	-77.444892	-124.773772
43491	9.603296	-0.013797	-2.137265	-0.009999	0.005438	0.025567	1.000000	-0.000022	0.000013	0.000031	-179.331760	-77.443818	-124.777805
43492	9.582701	0.025528	-2.117956	-0.050855	0.015367	0.001166	1.000000	-0.000010	-0.000000	0.000034	-179.326841	-77.441105	-124.782630
43493	9.593044	0.005020	-2.127406	-0.030260	0.009488	0.013368	1.000000	-0.000015	0.000015	0.000030	-179.324881	-77.440308	-124.786297
43494	9.583787	-0.028635	-2.130555	0.000217	-0.005311	0.005104	1.000000	-0.000011	0.000007	0.000036	-179.319294	-77.438441	-124.792009
43495	9.623968	-0.041308	-2.124766	0.002051	-0.024414	0.043097	1.000000	-0.000006	-0.000002	0.000050	-179.306604	-77.435582	-124.804858
43496	9.624070	-0.056836	-2.155701	0.031502	-0.008196	0.049966	1.000000	-0.000011	0.000026	0.000023	-179.307631	-77.435875	-124.803736
43497	9.634389	-0.062356	-2.133811	0.022739	-0.030913	0.055292	1.000000	-0.000013	0.000008	0.000028	-179.306059	-77.434207	-124.806431
43498	9.643805	-0.044730	-2.161373	0.021813	-0.000521	0.070432	1.000000	-0.000006	0.000017	0.000037	-179.299485	-77.433438	-124.812493
43499	9.623398	-0.035103	-2.204102	0.039671	0.043097	0.059782	1.000000	-0.000011	0.000026	0.000023	-179.300816	-77.433847	-124.812057
43500	9.633672	-0.025773	-2.151005	0.001555	0.003523	0.058235	1.000000	0.000002	0.000012	0.000026	-179.298731	-77.432593	-124.812656
43501	9.653463	-0.042807	-2.219285	0.050461	0.045483	0.092452	1.000000	-0.000016	0.000016	0.000022	-179.300782	-77.431846	-124.811529
43502	9.632933	-0.003354	-2.199772	0.009598	0.055415	0.068064	1.000000	-0.000007	0.000017	0.000029	-179.298347	-77.431186	-124.813552
43503	9.613383	-0.016998	-2.193232	0.019636	0.045899	0.047597	1.000000	-0.000015	0.000015	0.000030	-179.297173	-77.430387	-124.816331
43504	9.613528	-0.017412	-2.192595	0.019736	0.045280	0.047599	1.000000	-0.000010	0.000051	0.000019	-179.299998	-77.433581	-124.813310
43505	9.613620	-0.002894	-2.160764	-0.009499	0.027803	0.040725	1.000000	-0.000009	0.000018	0.000021	-179.302216	-77.432993	-124.809920
43506	9.613718	-0.003357	-2.160328	-0.009399	0.027183	0.040727	1.000000	-0.000002	0.000027	0.000029	-179.298788	-77.433431	-124.812298
43507	9.613804	-0.003726	-2.159947	-0.009306	0.026568	0.040729	1.000000	-0.000033	0.000013	0.000017	-179.305363	-77.432226	-124.807767
43508	9.604532	-0.037058	-2.163069	0.021175	0.011788	0.032448	1.000000	-0.000024	0.000014	0.000023	-179.307712	-77.431168	-124.806816
43509	9.584062	-0.012367	-2.174757	0.009664	0.038574	0.014946	1.000000	-0.000016	0.000016	0.000022	-179.309899	-77.430429	-124.805706
43510	9.624292	-0.024803	-2.168683	0.011490	0.019436	0.052925	1.000000	-0.000006	0.000017	0.000037	-179.303332	-77.429660	-124.811762
43511	9.633831	-0.007166	-2.195828	0.010545	0.049813	0.068093	1.000000	-0.000009	0.000050	0.000027	-179.301938	-77.432712	-124.812203
43512	9.634840	-0.030992	-2.145697	0.002827	-0.003929	0.058234	1.000000	-0.000018	0.000030	0.000033	-179.298483	-77.433491	-124.816536
43513	9.635006	-0.031503	-2.144946	0.002927	-0.004535	0.058234	1.000000	-0.000016	0.000048	0.000028	-179.297237	-77.436390	-124.819018
43514	9.635286	-0.046831	-2.175149	0.032370	0.011690	0.065117	1.000000	-0.000001	0.000052	0.000026	-179.295602	-77.439727	-124.819501
43515	9.655076	-0.019421	-2.149179	-0.006782	0.003112	0.078712	1.000000	-0.000023	0.000052	0.000038	-179.289562	-77.443081	-124.827276
43516	9.635672	-0.033179	-2.141924	0.003217	-0.006380	0.058233	1.000000	-0.000009	0.000057	0.000036	-179.283435	-77.446903	-124.833227
43517	9.646193	-0.053695	-2.150487	0.023786	-0.012278	0.070419	1.000000	-0.000009	0.000050	0.000027	-179.281703	-77.449929	-124.833696
43518	9.626701	-0.052439	-2.112103	0.004448	-0.038613	0.043051	1.000000	-0.000018	0.000055	0.000029	-179.280037	-77.453607	-124.836140
43519	9.626982	-0.067674	-2.142344	0.033893	-0.022381	0.049936	1.000000	-0.000016	0.000041	0.000018	-179.283909	-77.455725	-124.832773
43520	9.627145	-0.068024	-2.141601	0.033995	-0.023000	0.049934	1.000000	-0.000029	0.000036	0.000028	-179.284243	-77.457206	-124.834492
43521	9.627189	-0.053499	-2.109849	0.004759	-0.040472	0.043044	1.000000	-0.000020	0.000024	0.000016	-179.289782	-77.457346	-124.829475
43522	9.627277	-0.053798	-2.109439	0.004862	-0.041092	0.043041	1.000000	-0.000009	0.000018	0.000021	-179.291493	-77.456793	-124.827451
43523	9.637640	-0.074114	-2.118701	0.025458	-0.046981	0.055222	1.000000	-0.000016	0.000016	0.000022	-179.293543	-77.456051	-124.826516
43524	9.607001	-0.044307	-2.151940	0.022770	0.001938	0.032452	1.000000	-0.000009	0.000018	0.000021	-179.295254	-77.455498	-124.824492
43525	9.647123	-0.041776	-2.114686	-0.004741	-0.034074	0.063518	1.000000	-0.000007	0.000011	0.000020	-179.297057	-77.454105	-124.821944
43526	9.636867	-0.022158	-2.104926	-0.025127	-0.029417	0.051334	1.000000	-0.000022	0.000007	0.000022	-179.300091	-77.452201	-124.820090
43527	9.607014	-0.030459	-2.120316	-0.006275	-0.016742	0.025558	1.000000	-0.000011	-0.000006	0.000017	-179.304017	-77.448946	-124.816910
43528	9.616518	-0.012519	-2.147795	-0.007228	0.013622	0.040757	1.000000	-0.000007	0.000036	0.000016	-179.308196	-77.450445	-124.812098
43529	9.607253	-0.045958	-2.150780	0.023257	-0.001124	0.032451	1.000000	-0.000013	0.000008	0.000028	-179.306629	-77.448673	-124.813504
43530	9.636330	-0.000151	-2.153246	-0.016932	0.021230	0.061247	1.000000	-0.000020	0.000024	0.000016	-179.312131	-77.448823	-124.808862
43531	9.616754	-0.013618	-2.146731	-0.006930	0.011775	0.040760	1.000000	-0.000006	0.000010	0.000027	-179.310226	-77.447374	-124.810556
43532	9.636562	-0.015792	-2.183766	0.012603	0.036854	0.068147	1.000000	-0.000018	0.000024	0.000024	-179.311588	-77.447415	-124.809956
43533	9.616924	-0.014516	-2.145964	-0.006751	0.010543	0.040761	1.000000	-0.000016	0.000023	0.000031	-179.308208	-77.447311	-124.813342
43534	9.636586	0.012885	-2.120530	-0.045882	0.001906	0.054354	1.000000	-0.000016	0.000023	0.000031	-179.305430	-77.447243	-124.816783
43535	9.627443	-0.035577	-2.154502	0.013926	0.004007	0.052940	1.000000	-0.000005	0.000042	0.000033	-179.300567	-77.449242	-124.819334
43536	9.606268	0.027107	-2.184066	-0.019180	0.067058	0.038526	1.000000	-0.000000	0.000020	0.000028	-179.297810	-77.448832	-124.820824
43537	9.626779	0.016220	-2.140365	-0.036765	0.022176	0.049080	1.000000	0.000006	0.000036	0.000038	-179.288827	-77.450300	-124.828334
43538	9.626902	0.015495	-2.139819	-0.036664	0.021554	0.049082	1.000000	0.000009	0.000021	0.000034	-179.281605	-77.450033	-124.833337
43539	9.608171	-0.036418	-2.114973	-0.005114	-0.024151	0.025543	1.000000	0.000013	0.000031	0.000027	-179.277326	-77.450942	-124.834411
43540	9.607449	0.001211	-2.132722	-0.026571	0.011481	0.028590	1.000000	0.000002	0.000012	0.000026	-179.275246	-77.449685	-124.835007
43541	9.617694	-0.004506	-2.110887	-0.035295	-0.011269	0.033861	1.000000	0.000011	0.000014	0.000033	-179.268770	-77.448656	-124.839878
43542	9.627216	0.013120	-2.138419	-0.036261	0.019079	0.049089	1.000000	-0.000006	0.000010	0.000027	-179.267019	-77.447148	-124.841000
43543	9.607585	-0.000542	-2.132112	-0.026251	0.009639	0.028593	1.000000	0.000005	0.000004	0.000032	-179.261552	-77.444994	-124.845091
43544	9.627367	-0.002938	-2.169333	-0.006725	0.034706	0.055998	1.000000	-0.000004	0.000009	0.000035	-179.255665	-77.443376	-124.850252
43545	9.627278	0.011194	-2.138151	-0.035955	0.017229	0.049093	1.000000	-0.000006	-0.000009	0.000040	-179.247115	-77.439721	-124.858417
43546	9.637626	-0.024368	-2.178984	0.013965	0.028192	0.068174	1.000000	-0.000024	0.000002	0.000046	-179.238081	-77.437238	-124.869193
43547	9.587251	0.006889	-2.175113	-0.008168	0.051454	0.018072	1.000000	-0.000004	0.000009	0.000035	-179.232765	-77.435686	-124.874286
43548	9.637709	-0.025750	-2.178601	0.014190	0.026947	0.068177	1.000000	-0.000022	0.000020	0.000040	-179.226189	-77.435256	-124.882282
43549	9.637877	-0.041338	-2.209410	0.043601	0.043186	0.075089	1.000000	-0.000020	0.000019	0.000048	-179.215284	-77.434641	-124.893497
43550	9.618211	-0.040355	-2.171653	0.024279	0.016885	0.047679	1.000000	-0.000007	0.000024	0.000038	-179.208051	-77.434714	-124.900440
43551	9.619118	-0.079336	-2.152895	0.045953	-0.019955	0.044603	1.000000	-0.000009	0.000038	0.000049	-179.195061	-77.436475	-124.914554
43552	9.599677	-0.108141	-2.177231	0.085279	-0.012517	0.031011	1.000000	-0.000000	0.000033	0.000046	-179.182682	-77.437534	-124.925907
43553	9.609241	-0.075845	-2.173088	0.054969	0.000960	0.039345	1.000000	-0.000005	0.000042	0.000033	-179.177567	-77.439624	-124.929850
43554	9.640054	-0.106634	-2.138592	0.057918	-0.049237	0.062018	1.000000	-0.000001	0.000052	0.000026	-179.175899	-77.442958	-124.930366
43555	9.609650	-0.077108	-2.171231	0.055163	-0.000274	0.039344	1.000000	0.000020	0.000047	0.000045	-179.161638	-77.445597	-124.940901
43556	9.619997	-0.082941	-2.148828	0.046442	-0.023042	0.044594	1.000000	0.000002	0.000037	0.000022	-179.161332	-77.447239	-124.939620
43557	9.590228	-0.076414	-2.132285	0.035947	-0.027182	0.011921	1.000000	-0.000001	0.000046	0.000016	-179.164462	-77.449832	-124.935082
43558	9.639935	-0.055792	-2.122180	0.007423	-0.032347	0.058180	1.000000	0.000010	0.000040	0.000021	-179.163826	-77.451726	-124.933274
43559	9.610911	-0.087365	-2.087469	0.018522	-0.072718	0.022410	1.000000	-0.000010	0.000044	0.000010	-179.171698	-77.454235	-124.925522
43560	9.649799	-0.038243	-2.148357	0.006557	-0.002635	0.073438	1.000000	-0.000003	0.000034	0.000031	-179.167586	-77.455514	-124.928804
43561	9.610364	-0.035215	-2.073048	-0.032183	-0.054606	0.018582	1.000000	-0.000013	0.000033	0.000024	-179.167850	-77.456559	-124.927569
43562	9.620115	-0.032159	-2.131421	-0.003848	-0.007403	0.040765	1.000000	-0.000020	0.000024	0.000016	-179.173364	-77.456712	-124.922914
43563	9.630380	-0.037533	-2.109334	-0.012551	-0.030184	0.046006	1.000000	-0.000013	0.000027	0.000015	-179.178913	-77.457126	-124.917288
43564	9.630495	-0.037777	-2.108802	-0.012449	-0.030804	0.046005	1.000000	-0.000005	0.000029	0.000014	-179.183766	-77.457781	-124.911583
43565	9.600143	-0.022581	-2.173085	0.014097	0.035064	0.030286	1.000000	-0.000020	0.000024	0.000016	-179.188893	-77.458021	-124.908050
43566	9.611013	-0.051378	-2.101709	-0.002344	-0.040813	0.025489	1.000000	-0.000026	0.000021	0.000025	-179.190599	-77.457811	-124.907961
43567	9.630218	-0.015282	-2.156587	-0.004390	0.020464	0.056039	1.000000	-0.000016	0.000041	0.000018	-179.194954	-77.460035	-124.905225
43568	9.611259	-0.052103	-2.100565	-0.002111	-0.042043	0.025484	1.000000	-0.000015	0.000015	0.000030	-179.192870	-77.459120	-124.907756
43569	9.601127	-0.032618	-2.090376	-0.022517	-0.037384	0.013322	1.000000	-0.000016	0.000048	0.000028	-179.191780	-77.461907	-124.908841
43570	9.640745	-0.021638	-2.133280	-0.012907	-0.003562	0.061275	1.000000	-0.000016	0.000010	0.000013	-179.198661	-77.460367	-124.902384
43571	9.621728	-0.058433	-2.077457	-0.010635	-0.066047	0.030707	1.000000	-0.000002	0.000027	0.000029	-179.194692	-77.460834	-124.905460
43572	9.651060	-0.027702	-2.110898	-0.021528	-0.026948	0.066505	1.000000	-0.000007	0.000017	0.000029	-179.192276	-77.460171	-124.907467
43573	9.650442	0.010025	-2.128633	-0.042986	0.008644	0.069635	1.000000	-0.000011	0.000026	0.000023	-179.194195	-77.460548	-124.906170
43574	9.621402	-0.036525	-2.125535	-0.002575	-0.014813	0.040758	1.000000	-0.000007	0.000017	0.000029	-179.191782	-77.459884	-124.908175
43575	9.621346	-0.022223	-2.094065	-0.031779	-0.032307	0.033827	1.000000	0.000002	0.000012	0.000026	-179.189764	-77.458670	-124.908889
43576	9.610650	0.005967	-2.164863	-0.015157	0.042333	0.038670	1.000000	-0.000015	0.000002	0.000011	-179.197327	-77.456285	-124.901533
43577	9.611273	-0.017817	-2.115349	-0.022757	-0.011365	0.028600	1.000000	-0.000006	0.000017	0.000037	-179.190730	-77.455636	-124.908712
43578	9.620865	-0.000093	-2.142929	-0.023752	0.018949	0.043897	1.000000	-0.000020	-0.000001	0.000020	-179.194485	-77.452890	-124.905923
43579	9.620866	-0.000397	-2.142924	-0.023671	0.018327	0.043899	1.000000	-0.000013	0.000001	0.000019	-179.197486	-77.450325	-124.902114
43580	9.610718	0.004304	-2.164567	-0.014766	0.039872	0.038681	1.000000	-0.000001	-0.000006	0.000032	-179.192977	-77.447013	-124.905465
43581	9.591139	-0.024195	-2.189590	0.024571	0.047374	0.025096	1.000000	-0.000004	0.000009	0.000035	-179.187564	-77.445494	-124.910981
43582	9.630463	0.016076	-2.170505	-0.024445	0.047400	0.059208	1.000000	-0.000011	0.000007	0.000036	-179.182032	-77.443622	-124.916645
43583	9.610916	-0.012366	-2.195378	0.014883	0.054914	0.045624	1.000000	0.000002	0.000012	0.000026	-179.180097	-77.442482	-124.918071
43584	9.621118	-0.018207	-2.173487	0.006181	0.032127	0.050842	1.000000	0.000003	0.000018	0.000043	-179.169085	-77.441847	-124.927625
43585	9.631466	-0.038803	-2.182622	0.026788	0.026234	0.062994	1.000000	-0.000027	0.000029	0.000026	-179.169954	-77.442539	-124.928993
43586	9.601038	-0.008945	-2.215849	0.023984	0.075235	0.040422	1.000000	0.000002	0.000012	0.000026	-179.167894	-77.441281	-124.929571
43587	9.611822	-0.038181	-2.144506	0.007623	-0.000643	0.035532	1.000000	-0.000007	0.000031	0.000047	-179.156605	-77.442219	-124.941771
43588	9.611954	-0.038906	-2.143903	0.007725	-0.001262	0.035532	1.000000	-0.000011	0.000032	0.000032	-179.152835	-77.443247	-124.945567
43589	9.602056	-0.049101	-2.196167	0.045915	0.037168	0.037264	1.000000	-0.000016	0.000023	0.000031	-179.149865	-77.443095	-124.948311
43590	9.612184	-0.040009	-2.142849	0.007913	-0.002507	0.035532	1.000000	-0.000011	0.000032	0.000032	-179.146094	-77.444122	-124.952108
