// Start Time: Unknown
// Update Rate: 100.0Hz
// Filter Profile: human (46.1)
// Firmware Version: 4.4.0
PacketCounter	Acc_X	Acc_Y	Acc_Z	FreeAcc_X	FreeAcc_Y	FreeAcc_Z	OriInc_q0	OriInc_q1	OriInc_q2	OriInc_q3	Roll	Pitch	Yaw
23253	9.651413	-0.116492	-2.201041	0.000000	-0.000000	0.087207	1.000000	-0.000010	0.000020	0.000036	-176.979017	-77.134785	170.506170
23254	9.605002	-0.130812	-2.225874	-0.000000	-0.000000	0.047723	1.000000	-0.000019	0.000006	0.000015	-176.639403	-76.930517	170.291967
23255	9.599230	-0.121497	-2.077523	-0.125135	0.015380	0.008727	1.000000	-0.000020	0.000024	0.000029	-176.803796	-77.034406	170.389007
23256	9.606772	-0.137014	-2.248941	0.037916	-0.017871	0.054674	1.000000	-0.000011	0.000017	0.000014	-176.797538	-77.036273	170.381332
23257	9.624359	-0.111105	-2.153125	-0.055837	0.019346	0.050024	1.000000	-0.000019	0.000007	0.000026	-176.782091	-77.035234	170.356564
23258	9.603617	-0.126737	-2.201018	-0.006339	-0.001723	0.040737	1.000000	-0.000010	0.000018	0.000025	-176.770390	-77.037180	170.343358
23259	9.623832	-0.099512	-2.205649	-0.002780	0.025779	0.061130	1.000000	-0.000011	0.000023	0.000019	-176.764944	-77.039909	170.340113
23260	9.630141	-0.141190	-2.170012	-0.042868	-0.011254	0.059827	1.000000	-0.000011	0.000029	0.000024	-176.753699	-77.043082	170.327243
23261	9.601626	-0.109957	-2.229112	0.024759	0.012852	0.044872	1.000000	-0.000020	0.000018	0.000025	-176.738546	-77.044981	170.303960
23262	9.624103	-0.100633	-2.204418	-0.002739	0.025955	0.061129	1.000000	-0.000010	0.000012	0.000020	-176.729322	-77.046272	170.293333
23263	9.600795	-0.117506	-2.151545	-0.050260	0.014402	0.026798	1.000000	-0.000002	0.000029	0.000013	-176.718580	-77.049462	170.276446
23264	9.605820	-0.134289	-2.222135	0.015737	-0.009507	0.047706	1.000000	-0.000012	0.000034	0.000018	-176.710265	-77.053208	170.266491
23265	9.574735	-0.104360	-2.180473	-0.013668	0.023796	0.007708	1.000000	-0.000021	0.000028	0.000023	-176.699939	-77.056554	170.252199
23266	9.624589	-0.101831	-2.202239	-0.002663	0.026099	0.061129	1.000000	-0.000012	0.000034	0.000018	-176.691613	-77.060299	170.242234
23267	9.577255	-0.122972	-2.149907	-0.044655	0.009233	0.003573	1.000000	-0.000020	0.000024	0.000029	-176.679251	-77.063183	170.225763
23268	9.626482	-0.108165	-2.224805	0.019397	0.018091	0.068098	1.000000	-0.000003	0.000041	0.000022	-176.667213	-77.067674	170.213089
23269	9.599312	-0.101743	-2.177369	-0.019016	0.028895	0.030934	1.000000	-0.000011	0.000029	0.000024	-176.655592	-77.071337	170.196587
23270	9.627366	-0.121345	-2.170478	-0.033563	0.011535	0.056994	1.000000	-0.000011	0.000023	0.000019	-176.646792	-77.073852	170.186264
23271	9.623565	-0.098266	-2.175727	-0.024367	0.033953	0.054161	1.000000	-0.000001	0.000024	0.000019	-176.638202	-77.077363	170.174936
23272	9.622035	-0.093145	-2.151489	-0.046365	0.041926	0.047192	1.000000	-0.000011	0.000029	0.000024	-176.626890	-77.080529	170.161998
23273	9.627103	-0.110020	-2.222026	0.019862	0.017971	0.068097	1.000000	-0.000022	0.000039	0.000022	-176.617056	-77.086181	170.142256
23274	9.623948	-0.099315	-2.173983	-0.024133	0.033922	0.054161	1.000000	-0.000021	0.000022	0.000019	-176.609442	-77.088600	170.132011
23275	9.627936	-0.123026	-2.167852	-0.032973	0.011143	0.056997	1.000000	-0.000011	0.000023	0.000019	-176.606941	-77.092615	170.127101
23276	9.601777	-0.109724	-2.197366	0.003572	0.020526	0.037903	1.000000	-0.000012	0.000041	0.000033	-176.590589	-77.097083	170.108916
23277	9.626567	-0.118471	-2.142836	-0.054724	0.018759	0.050031	1.000000	-0.000011	0.000029	0.000024	-176.587377	-77.102019	170.104584
23278	9.624456	-0.100979	-2.171657	-0.023673	0.033278	0.054165	1.000000	-0.000021	0.000034	0.000028	-176.574724	-77.105739	170.089093
23279	9.602765	-0.123423	-2.142398	-0.048899	0.013373	0.026806	1.000000	-0.000021	0.000022	0.000019	-176.572128	-77.110306	170.078861
23280	9.645404	-0.086534	-2.122562	-0.072825	0.054118	0.063463	1.000000	-0.000010	0.000018	0.000025	-176.560323	-77.112240	170.065547
23281	9.602930	-0.124231	-2.141612	-0.048359	0.012785	0.026810	1.000000	-0.000020	0.000024	0.000029	-176.559838	-77.118430	170.064878
23282	9.603010	-0.124561	-2.141235	-0.048358	0.012785	0.026810	1.000000	-0.000020	0.000016	0.000014	-176.554705	-77.120199	170.057221
23283	9.608024	-0.141414	-2.212141	0.018395	-0.011701	0.047699	1.000000	-0.000009	0.000014	0.000031	-176.550732	-77.126462	170.053427
23284	9.625500	-0.115657	-2.116327	-0.075088	0.025340	0.043081	1.000000	-0.000019	0.000006	0.000015	-176.545149	-77.127007	170.045439
23285	9.578530	-0.117376	-2.194398	0.011729	0.013196	0.014677	1.000000	-0.000001	0.000019	0.000025	-176.539947	-77.134005	170.038109
23286	9.625597	-0.116452	-2.115841	-0.074296	0.024899	0.043089	1.000000	-0.000019	0.000007	0.000026	-176.528877	-77.134622	170.024541
23287	9.628913	-0.127732	-2.163234	-0.029474	0.008450	0.057010	1.000000	-0.000009	0.000000	0.000011	-176.533545	-77.139790	170.026653
23288	9.549029	-0.093638	-2.176689	0.005089	0.038049	-0.018341	1.000000	-0.000019	0.000007	0.000026	-176.522476	-77.140392	170.013083
23289	9.649124	-0.100912	-2.167997	-0.025373	0.035524	0.077413	1.000000	0.000001	0.000009	0.000026	-176.520761	-77.144778	170.010404
23290	9.599405	-0.104290	-2.145535	-0.036408	0.033245	0.023996	1.000000	-0.000018	0.000008	0.000037	-176.504207	-77.145443	169.991260
23291	9.628449	-0.117160	-2.215823	0.024955	0.013678	0.068092	1.000000	-0.000029	0.000012	0.000031	-176.507466	-77.152232	169.993829
23292	9.621870	-0.095534	-2.120734	-0.063050	0.045592	0.040280	1.000000	-0.000019	0.000006	0.000015	-176.501880	-77.152764	169.985844
23293	9.600633	-0.098476	-2.221751	0.040259	0.030388	0.042031	1.000000	-0.000031	0.000027	0.000023	-176.506303	-77.160817	169.985481
23294	9.604589	-0.122355	-2.215664	0.031208	0.007891	0.044859	1.000000	0.000000	0.000015	0.000031	-176.490268	-77.162269	169.969068
23295	9.584458	-0.150453	-2.210444	0.028079	-0.020387	0.024453	1.000000	-0.000029	0.000012	0.000031	-176.492759	-77.166622	169.966172
23296	9.603035	-0.117820	-2.191441	0.009648	0.015214	0.037909	1.000000	-0.000000	0.000013	0.000020	-176.482220	-77.167978	169.955336
23297	9.597578	-0.089295	-2.173101	-0.002831	0.045012	0.028136	1.000000	-0.000020	0.000018	0.000025	-176.486948	-77.173199	169.958424
23298	9.627241	-0.114440	-2.189990	0.004636	0.019657	0.061143	1.000000	-0.000021	0.000028	0.000023	-176.476736	-77.176241	169.945483
23299	9.599413	-0.095400	-2.196022	0.019581	0.036343	0.035085	1.000000	-0.000010	0.000011	0.000009	-176.488760	-77.180509	169.955972
23300	9.580989	-0.128600	-2.214320	0.038003	0.000744	0.021622	1.000000	-0.000013	0.000038	0.000012	-176.483277	-77.184795	169.948839
23301	9.625352	-0.097298	-2.217999	0.036664	0.032881	0.065266	1.000000	-0.000010	0.000020	0.000036	-176.478741	-77.190664	169.940253
23302	9.625443	-0.097799	-2.217581	0.036667	0.032881	0.065266	1.000000	-0.000001	0.000024	0.000019	-176.468593	-77.193280	169.929686
23303	9.629400	-0.121646	-2.211443	0.027805	0.009642	0.068090	1.000000	-0.000020	0.000024	0.000029	-176.473612	-77.197599	169.931927
23304	9.625657	-0.098681	-2.216614	0.036858	0.032139	0.065267	1.000000	-0.000002	0.000030	0.000024	-176.460931	-77.200854	169.918726
23305	9.596226	-0.074269	-2.198683	0.029241	0.056630	0.032272	1.000000	-0.000012	0.000034	0.000018	-176.475719	-77.204658	169.936115
23306	9.605732	-0.127057	-2.210437	0.033138	0.003650	0.044855	1.000000	-0.000011	0.000030	0.000034	-176.458779	-77.207864	169.917493
23307	9.600378	-0.098788	-2.191647	0.020551	0.033409	0.035094	1.000000	-0.000012	0.000047	0.000038	-176.456617	-77.215838	169.912920
23308	9.624615	-0.095286	-2.190068	0.015078	0.038522	0.058330	1.000000	-0.000012	0.000041	0.000033	-176.440063	-77.220311	169.894567
23309	9.602932	-0.117701	-2.160537	-0.010803	0.018092	0.030972	1.000000	-0.000024	0.000048	0.000010	-176.458265	-77.224843	169.910270
23310	9.600923	-0.100102	-2.189199	0.020253	0.032607	0.035097	1.000000	-0.000011	0.000030	0.000034	-176.441278	-77.228084	169.891610
23311	9.603197	-0.118680	-2.159308	-0.011050	0.017113	0.030974	1.000000	-0.000010	0.000020	0.000036	-176.450314	-77.229624	169.905639
23312	9.625676	-0.109623	-2.134358	-0.038537	0.030199	0.047269	1.000000	-0.000002	0.000030	0.000024	-176.437708	-77.232846	169.892614
23313	9.632994	-0.144462	-2.175528	-0.004013	-0.009140	0.063965	1.000000	-0.000021	0.000034	0.000028	-176.449665	-77.234882	169.904349
23314	9.603561	-0.120204	-2.157604	-0.011510	0.016229	0.030975	1.000000	-0.000011	0.000030	0.000034	-176.432808	-77.238012	169.885892
23315	9.607481	-0.144092	-2.151526	-0.021080	-0.007046	0.033785	1.000000	-0.000020	0.000012	0.000020	-176.447147	-77.236926	169.899132
23316	9.602029	-0.115653	-2.133175	-0.034067	0.023430	0.024033	1.000000	-0.000010	0.000020	0.000036	-176.429910	-77.238765	169.880424
23317	9.626151	-0.111843	-2.132096	-0.039461	0.027864	0.047272	1.000000	-0.000021	0.000015	0.000003	-176.447178	-77.241661	169.896848
23318	9.605980	-0.139737	-2.126932	-0.043051	0.000254	0.026843	1.000000	0.000001	0.000010	0.000037	-176.428298	-77.242381	169.877747
23319	9.581498	-0.131817	-2.180577	0.015587	0.001039	0.014681	1.000000	-0.000020	0.000016	0.000014	-176.439724	-77.245404	169.888345
23320	9.629685	-0.123731	-2.178713	0.004599	0.011235	0.061156	1.000000	-0.000011	0.000022	0.000008	-176.436543	-77.247687	169.883895
23321	9.601898	-0.104725	-2.184701	0.019316	0.028089	0.035113	1.000000	-0.000011	0.000024	0.000030	-176.435341	-77.251929	169.880114
23322	9.604168	-0.123088	-2.154736	-0.011760	0.013560	0.030978	1.000000	-0.000012	0.000034	0.000018	-176.427044	-77.255514	169.870327
23323	9.624488	-0.095917	-2.159220	-0.008711	0.040489	0.051413	1.000000	-0.000029	0.000012	0.000031	-176.434401	-77.254358	169.877012
23324	9.602174	-0.105924	-2.183430	0.018735	0.027408	0.035116	1.000000	-0.000020	0.000018	0.000025	-176.423978	-77.255964	169.864145
23325	9.604388	-0.124194	-2.153693	-0.012377	0.012393	0.030979	1.000000	-0.000011	0.000017	0.000014	-176.430533	-77.257936	169.864262
23326	9.606139	-0.129867	-2.177109	0.009585	0.004410	0.037920	1.000000	-0.000020	0.000016	0.000014	-176.425605	-77.259459	169.856928
23327	9.628569	-0.120656	-2.152332	-0.017816	0.016917	0.054219	1.000000	-0.000010	0.000014	0.000031	-176.425015	-77.261871	169.855906
23328	9.626481	-0.103115	-2.181498	0.013189	0.031437	0.058358	1.000000	-0.000020	0.000012	0.000020	-176.417112	-77.262813	169.845621
23329	9.606305	-0.130918	-2.176314	0.009663	0.003346	0.037920	1.000000	-0.000011	0.000017	0.000014	-176.423241	-77.265379	169.847541
23330	9.606339	-0.131275	-2.176141	0.009620	0.003343	0.037920	1.000000	-0.000028	0.000001	0.000032	-176.410559	-77.265066	169.831369
23331	9.626627	-0.104183	-2.180801	0.013121	0.030436	0.058361	1.000000	0.000008	0.000025	0.000019	-176.412504	-77.267898	169.833936
23332	9.622899	-0.081142	-2.186065	0.022119	0.052937	0.055562	1.000000	-0.000020	0.000018	0.000025	-176.402028	-77.269469	169.820940
23333	9.604391	-0.114444	-2.204674	0.040554	0.016920	0.042062	1.000000	-0.000019	0.000006	0.000015	-176.407670	-77.270411	169.819021
23334	9.630645	-0.128519	-2.174189	0.003977	0.007491	0.061160	1.000000	-0.000012	0.000028	0.000013	-176.401900	-77.273236	169.811759
23335	9.600747	-0.091519	-2.209584	0.050251	0.038947	0.039263	1.000000	-0.000010	0.000018	0.000025	-176.398887	-77.279709	169.805537
23336	9.629137	-0.123743	-2.149615	-0.017361	0.014999	0.054223	1.000000	-0.000011	0.000023	0.000019	-176.390057	-77.282038	169.795222
23337	9.626293	-0.081032	-2.284644	0.119466	0.042115	0.080525	1.000000	-0.000013	0.000044	0.000016	-176.395569	-77.285549	169.796551
23338	9.603269	-0.110443	-2.178383	0.018802	0.023959	0.035125	1.000000	-0.000002	0.000035	0.000018	-176.385946	-77.289174	169.786408
23339	9.627468	-0.106714	-2.176961	0.012805	0.028475	0.058367	1.000000	-0.000031	0.000033	0.000028	-176.391648	-77.290404	169.790801
23340	9.625486	-0.089222	-2.205762	0.043813	0.042992	0.062512	1.000000	-0.000021	0.000030	0.000034	-176.375967	-77.293296	169.772335
23341	9.605384	-0.117167	-2.200203	0.039501	0.014729	0.042070	1.000000	0.000006	0.000040	0.000012	-176.389128	-77.294166	169.793426
23342	9.600045	-0.088638	-2.181414	0.026488	0.045212	0.032339	1.000000	-0.000012	0.000035	0.000028	-176.375325	-77.297672	169.778007
23343	9.606131	-0.130478	-2.145530	-0.014123	0.007566	0.030982	1.000000	-0.000014	0.000050	0.000021	-176.383167	-77.300920	169.788288
23344	9.602098	-0.094996	-2.203558	0.047912	0.036611	0.039284	1.000000	-0.000011	0.000030	0.000034	-176.366426	-77.303819	169.769992
23345	9.630509	-0.127327	-2.143249	-0.020595	0.012046	0.054220	1.000000	-0.000004	0.000045	0.000016	-176.377011	-77.304127	169.783394
23346	9.602773	-0.108272	-2.149156	-0.006134	0.029462	0.028193	1.000000	-0.000020	0.000012	0.000020	-176.369255	-77.304926	169.773325
23347	9.628650	-0.110006	-2.171566	0.009818	0.026084	0.058377	1.000000	-0.000023	0.000045	0.000027	-176.371912	-77.307107	169.771455
23348	9.632553	-0.133726	-2.165405	0.000703	0.003572	0.061163	1.000000	0.000009	0.000007	0.000005	-176.368629	-77.307431	169.769359
23349	9.582420	-0.124133	-2.196056	0.041585	0.007435	0.018847	1.000000	-0.000031	0.000027	0.000023	-176.377977	-77.304262	169.775731
23350	9.604854	-0.114919	-2.171154	0.013998	0.020490	0.035141	1.000000	-0.000010	0.000012	0.000020	-176.369080	-77.305025	169.765604
23351	9.649238	-0.083596	-2.174953	0.011611	0.052603	0.078839	1.000000	-0.000011	0.000017	0.000014	-176.379141	-77.304948	169.779655
23352	9.608788	-0.138916	-2.164827	0.004429	-0.002577	0.037924	1.000000	-0.000011	0.000023	0.000019	-176.370734	-77.306921	169.769955
23353	9.629153	-0.111810	-2.169242	0.008383	0.024519	0.058383	1.000000	-0.000011	0.000024	0.000030	-176.366950	-77.312413	169.767160
23354	9.584909	-0.143868	-2.164769	0.010251	-0.008153	0.014684	1.000000	-0.000020	0.000018	0.000025	-176.356745	-77.313774	169.754598
23355	9.625538	-0.089218	-2.174097	0.016151	0.046574	0.055606	1.000000	0.000008	0.000025	0.000019	-176.362481	-77.310063	169.760842
23356	9.629458	-0.113031	-2.167825	0.007015	0.024057	0.058385	1.000000	-0.000022	0.000039	0.000022	-176.353191	-77.313798	169.748956
23357	9.605541	-0.117555	-2.167970	0.011857	0.018516	0.035147	1.000000	-0.000021	0.000030	0.000034	-176.352507	-77.313618	169.746971
23358	9.603936	-0.112624	-2.143729	-0.010251	0.026484	0.028198	1.000000	-0.000020	0.000024	0.000029	-176.339836	-77.315506	169.731847
23359	9.631847	-0.132514	-2.136914	-0.024751	0.008533	0.054215	1.000000	-0.000010	0.000014	0.000031	-176.338026	-77.317620	169.733314
23360	9.601995	-0.095592	-2.172521	0.020723	0.040495	0.032373	1.000000	-0.000010	0.000012	0.000020	-176.329297	-77.318328	169.723503
23361	9.583466	-0.128963	-2.191209	0.039377	0.004498	0.018858	1.000000	-0.000009	0.000008	0.000026	-176.327429	-77.320580	169.720679
23362	9.629896	-0.115812	-2.165730	0.006279	0.022605	0.058389	1.000000	-0.000019	0.000007	0.000026	-176.316915	-77.320653	169.708006
23363	9.605871	-0.120238	-2.166360	0.010915	0.017014	0.035151	1.000000	-0.000020	0.000012	0.000020	-176.326416	-77.317388	169.720868
23364	9.605564	-0.108069	-2.219306	0.063852	0.023567	0.046279	1.000000	-0.000009	0.000008	0.000026	-176.314776	-77.317501	169.708235
23365	9.631681	-0.122411	-2.189092	0.025089	0.013557	0.065347	1.000000	-0.000037	-0.000005	0.000027	-176.330354	-77.304412	169.725905
23366	9.603884	-0.103464	-2.195375	0.039496	0.030988	0.039340	1.000000	-0.000011	0.000024	0.000030	-176.316756	-77.306240	169.711148
23367	9.603962	-0.104000	-2.195012	0.038165	0.030540	0.039347	1.000000	-0.000010	0.000014	0.000031	-176.319813	-77.300354	169.715711
23368	9.624306	-0.076937	-2.199609	0.041533	0.058106	0.059819	1.000000	-0.000010	0.000012	0.000020	-176.311432	-77.300801	169.706399
23369	9.600321	-0.081325	-2.200077	0.046598	0.052691	0.036585	1.000000	-0.000011	0.000023	0.000019	-176.313511	-77.301069	169.703544
23370	9.628220	-0.101103	-2.193281	0.031905	0.035230	0.062588	1.000000	-0.000029	0.000012	0.000031	-176.301994	-77.301388	169.688750
23371	9.628296	-0.101536	-2.192929	0.032175	0.034636	0.062590	1.000000	0.000008	0.000025	0.000019	-176.304855	-77.306328	169.703034
23372	9.604345	-0.105951	-2.193241	0.037549	0.029555	0.039352	1.000000	-0.000031	0.000027	0.000023	-176.296797	-77.308507	169.691676
23373	9.600728	-0.082865	-2.198243	0.045771	0.051544	0.036595	1.000000	-0.000003	0.000041	0.000022	-176.302062	-77.308929	169.701918
23374	9.628698	-0.102674	-2.191110	0.031083	0.034070	0.062595	1.000000	-0.000011	0.000029	0.000024	-176.291637	-77.311257	169.690466
23375	9.627109	-0.097657	-2.166767	0.008361	0.041360	0.055639	1.000000	-0.000021	0.000034	0.000028	-176.299726	-77.311601	169.710282
23376	9.601170	-0.084192	-2.196261	0.044753	0.050840	0.036603	1.000000	-0.000022	0.000040	0.000033	-176.285509	-77.315111	169.693845
23377	9.607112	-0.126066	-2.160518	0.003977	0.013251	0.035162	1.000000	-0.000012	0.000034	0.000018	-176.293656	-77.315136	169.703387
23378	9.633067	-0.127833	-2.182672	0.020303	0.010326	0.065362	1.000000	-0.000013	0.000046	0.000027	-176.281247	-77.319292	169.689882
23379	9.603370	-0.090758	-2.217889	0.067385	0.041875	0.043564	1.000000	-0.000030	0.000021	0.000019	-176.279981	-77.330986	169.691278
23380	9.629544	-0.105202	-2.187270	0.030711	0.032337	0.062602	1.000000	0.000009	0.000021	0.000036	-176.261228	-77.332428	169.673953
23381	9.631641	-0.123777	-2.157511	-0.000199	0.017289	0.058401	1.000000	-0.000020	0.000018	0.000025	-176.262383	-77.335425	169.675977
23382	9.609393	-0.133716	-2.181676	0.027205	0.004255	0.042122	1.000000	-0.000011	0.000024	0.000030	-176.249057	-77.337304	169.661878
23383	9.629794	-0.106674	-2.186095	0.028848	0.031183	0.062611	1.000000	-0.000020	0.000018	0.000025	-176.264120	-77.329204	169.686207
23384	9.605830	-0.111215	-2.186467	0.034231	0.026103	0.039374	1.000000	-0.000011	0.000030	0.000034	-176.248390	-77.331627	169.669693
23385	9.609708	-0.135141	-2.180199	0.023937	0.002955	0.042131	1.000000	-0.000002	0.000035	0.000018	-176.261128	-77.328676	169.693706
23386	9.611611	-0.140790	-2.203183	0.045792	-0.005022	0.049096	1.000000	-0.000004	0.000044	0.000006	-176.258837	-77.332807	169.691881
23387	9.606253	-0.112173	-2.184558	0.033080	0.024827	0.039382	1.000000	-0.000029	0.000012	0.000031	-176.261304	-77.336407	169.705857
23388	9.628642	-0.103087	-2.159691	0.005388	0.037772	0.055655	1.000000	0.000009	0.000019	0.000014	-176.254043	-77.337644	169.700551
23389	9.602941	-0.102128	-2.136327	-0.011490	0.040329	0.025454	1.000000	-0.000021	0.000030	0.000034	-176.248726	-77.338824	169.691099
23390	9.632610	-0.127517	-2.152964	-0.004154	0.014867	0.058405	1.000000	-0.000012	0.000035	0.000028	-176.236156	-77.341820	169.677925
23391	9.603191	-0.103145	-2.135151	-0.013354	0.039744	0.025454	1.000000	-0.000020	0.000024	0.000029	-176.245267	-77.334959	169.691507
23392	9.605039	-0.109020	-2.158387	0.008494	0.031769	0.032423	1.000000	-0.000011	0.000029	0.000024	-176.235397	-77.337216	169.681192
23393	9.629200	-0.105408	-2.157091	0.000754	0.036326	0.055662	1.000000	-0.000010	0.000018	0.000025	-176.246497	-77.326947	169.692833
23394	9.610939	-0.151399	-2.122501	-0.033878	-0.005883	0.030935	1.000000	-0.000011	0.000024	0.000030	-176.233761	-77.328497	169.679681
23395	9.638267	-0.146084	-2.222115	0.058093	-0.010544	0.079322	1.000000	-0.000018	-0.000010	0.000022	-176.235538	-77.330546	169.688803
23396	9.633051	-0.130241	-2.150827	-0.008119	0.013206	0.058404	1.000000	-0.000029	0.000018	0.000035	-176.222280	-77.331391	169.672997
23397	9.592179	-0.173039	-2.194114	0.037855	-0.035603	0.028617	1.000000	0.000000	0.000007	0.000016	-176.223721	-77.331580	169.671928
23398	9.607102	-0.116947	-2.180570	0.028098	0.022391	0.039403	1.000000	-0.000001	0.000018	0.000014	-176.217907	-77.332578	169.667074
23399	9.632960	-0.118616	-2.203229	0.043496	0.019190	0.069618	1.000000	-0.000010	0.000006	0.000015	-176.223995	-77.327372	169.668382
23400	9.608934	-0.122960	-2.203888	0.048864	0.014114	0.046383	1.000000	-0.000000	0.000013	0.000020	-176.215218	-77.327740	169.660557
23401	9.625877	-0.085012	-2.160798	0.004820	0.057162	0.052935	1.000000	-0.000011	0.000029	0.000024	-176.230149	-77.311317	169.673364
23402	9.605420	-0.100170	-2.208588	0.054178	0.036225	0.043668	1.000000	-0.000022	0.000027	0.000013	-176.227373	-77.313116	169.669182
23403	9.603803	-0.094934	-2.184279	0.031649	0.043844	0.036688	1.000000	-0.000022	0.000033	0.000017	-176.230525	-77.314085	169.668473
23404	9.602162	-0.089818	-2.160059	0.009424	0.051736	0.029704	1.000000	-0.000020	0.000018	0.000025	-176.221782	-77.314711	169.658339
23405	9.579940	-0.099658	-2.184207	0.037141	0.038436	0.013456	1.000000	-0.000011	0.000029	0.000024	-176.218189	-77.319106	169.654834
23406	9.626419	-0.086570	-2.158322	0.003801	0.056392	0.052940	1.000000	-0.000030	0.000017	0.000025	-176.210646	-77.319676	169.644792
23407	9.602197	-0.078317	-2.212015	0.061615	0.057843	0.040951	1.000000	-0.000010	0.000012	0.000020	-176.209434	-77.316771	169.633104
23408	9.609875	-0.138233	-2.147447	-0.009584	0.006072	0.035165	1.000000	-0.000019	0.000007	0.000026	-176.200214	-77.316177	169.622534
23409	9.585641	-0.129930	-2.201200	0.046322	0.007274	0.023190	1.000000	-0.000020	0.000016	0.000014	-176.219108	-77.303016	169.642009
23410	9.609990	-0.138860	-2.146891	-0.012486	0.005597	0.035162	1.000000	-0.000001	0.000019	0.000025	-176.207984	-77.303693	169.631656
23411	9.613550	-0.149968	-2.194098	0.029818	-0.010605	0.049153	1.000000	-0.000030	0.000010	0.000009	-176.223466	-77.295235	169.642461
23412	9.639632	-0.164259	-2.163594	-0.007002	-0.020216	0.068110	1.000000	-0.000001	0.000019	0.000025	-176.212408	-77.295831	169.632167
23413	9.615258	-0.143389	-2.270220	0.101936	-0.012087	0.067449	1.000000	-0.000002	0.000029	0.000013	-176.221961	-77.284046	169.632148
23414	9.606578	-0.116488	-2.151133	-0.008345	0.027555	0.032436	1.000000	-0.000001	0.000012	0.000010	-176.219066	-77.283795	169.630142
23415	9.634226	-0.123570	-2.197414	0.030335	0.016440	0.069672	1.000000	-0.000011	0.000023	0.000019	-176.215897	-77.288101	169.626339
23416	9.625194	-0.071482	-2.184342	0.026048	0.069408	0.057232	1.000000	-0.000003	0.000039	0.000012	-176.211211	-77.290997	169.622192
23417	9.606570	-0.092151	-2.255656	0.096138	0.039956	0.055029	1.000000	-0.000012	0.000041	0.000033	-176.218635	-77.287607	169.647582
23418	9.625690	-0.084997	-2.129827	-0.028728	0.062039	0.045944	1.000000	0.000008	0.000025	0.000019	-176.209512	-77.288724	169.640381
23419	9.601561	-0.076782	-2.183251	0.027783	0.063349	0.034021	1.000000	-0.000031	0.000033	0.000028	-176.216769	-77.280802	169.645657
23420	9.605389	-0.100523	-2.177043	0.018502	0.040771	0.036735	1.000000	-0.000022	0.000027	0.000013	-176.214383	-77.282136	169.641861
23421	9.601788	-0.077452	-2.182229	0.026298	0.062891	0.034028	1.000000	-0.000010	0.000020	0.000036	-176.213454	-77.277745	169.643965
23422	9.577818	-0.081928	-2.182654	0.031588	0.057828	0.010802	1.000000	-0.000031	0.000027	0.000023	-176.206826	-77.279009	169.634759
23423	9.611325	-0.143350	-2.140609	-0.024266	0.002677	0.035142	1.000000	-0.000021	0.000030	0.000034	-176.209559	-77.275067	169.643376
23424	9.607550	-0.107785	-2.198945	0.037380	0.031876	0.043761	1.000000	-0.000019	0.000013	0.000031	-176.198413	-77.274562	169.630942
23425	9.613242	-0.149900	-2.163591	-0.004396	-0.005694	0.042158	1.000000	-0.000020	0.000025	0.000040	-176.198807	-77.267041	169.632553
23426	9.609515	-0.114382	-2.221756	0.057232	0.023512	0.050793	1.000000	-0.000012	0.000035	0.000028	-176.187331	-77.269007	169.620685
23427	9.611666	-0.145590	-2.138926	-0.028908	0.001584	0.035129	1.000000	-0.000018	0.000002	0.000032	-176.199035	-77.257040	169.644135
23428	9.611551	-0.133537	-2.191828	0.023722	0.008257	0.046482	1.000000	-0.000010	0.000020	0.000036	-176.184362	-77.257099	169.629301
23429	9.635723	-0.130115	-2.190462	0.018322	0.012951	0.069706	1.000000	0.000008	0.000031	0.000024	-176.177623	-77.262014	169.624027
23430	9.635846	-0.130460	-2.189900	0.017983	0.012904	0.069707	1.000000	-0.000012	0.000028	0.000013	-176.174393	-77.263209	169.620715
23431	9.630502	-0.101832	-2.171298	0.004123	0.043060	0.059982	1.000000	-0.000011	0.000023	0.000019	-176.177089	-77.261279	169.622408
23432	9.610108	-0.117012	-2.219055	0.053399	0.022178	0.050817	1.000000	-0.000003	0.000041	0.000022	-176.167518	-77.263835	169.613646
23433	9.608473	-0.111989	-2.194696	0.031670	0.029970	0.043787	1.000000	-0.000001	0.000024	0.000019	-176.158838	-77.268094	169.594116
23434	9.630869	-0.102927	-2.169617	0.003717	0.042854	0.059983	1.000000	-0.000011	0.000023	0.000019	-176.152571	-77.268720	169.587702
23435	9.601491	-0.078313	-2.151745	-0.004650	0.067966	0.027034	1.000000	-0.000013	0.000044	0.000016	-176.157582	-77.268527	169.591840
23436	9.583027	-0.111509	-2.170050	0.013657	0.032448	0.013538	1.000000	-0.000011	0.000029	0.000024	-176.148781	-77.269770	169.582794
23437	9.631285	-0.103820	-2.167728	0.001083	0.042128	0.059987	1.000000	-0.000022	0.000027	0.000013	-176.159285	-77.265471	169.591847
23438	9.583229	-0.112156	-2.169122	0.011982	0.032059	0.013542	1.000000	0.000000	0.000014	0.000031	-176.145941	-77.264945	169.579506
23439	9.635129	-0.128144	-2.161297	-0.010473	0.019174	0.062679	1.000000	-0.000021	0.000028	0.000023	-176.155636	-77.255529	169.588668
23440	9.609273	-0.114478	-2.191065	0.025759	0.028753	0.043808	1.000000	-0.000020	0.000024	0.000029	-176.145246	-77.255960	169.576956
23441	9.603919	-0.086050	-2.172508	0.011113	0.058746	0.034083	1.000000	-0.000030	0.000023	0.000029	-176.153031	-77.249565	169.590126
23442	9.609451	-0.115362	-2.190236	0.023768	0.028243	0.043815	1.000000	-0.000010	0.000018	0.000025	-176.144076	-77.249381	169.581119
23443	9.609638	-0.128476	-2.136733	-0.029274	0.021019	0.032412	1.000000	-0.000020	0.000024	0.000029	-176.143717	-77.251938	169.589612
23444	9.611406	-0.121860	-2.213162	0.045312	0.019811	0.050863	1.000000	-0.000019	0.000020	0.000046	-176.124980	-77.251810	169.569587
23445	9.637432	-0.136471	-2.182543	0.007643	0.009720	0.069724	1.000000	-0.000011	0.000017	0.000014	-176.135278	-77.248002	169.586021
23446	9.611657	-0.135283	-2.159331	-0.009092	0.012564	0.039456	1.000000	-0.000021	0.000022	0.000019	-176.130624	-77.248303	169.580305
23447	9.615296	-0.146397	-2.206485	0.034933	-0.003619	0.053552	1.000000	-0.000010	0.000012	0.000020	-176.131132	-77.250146	169.584869
23448	9.633999	-0.113900	-2.187108	0.015869	0.031781	0.067044	1.000000	-0.000001	0.000024	0.000019	-176.124027	-77.250650	169.578951
23449	9.615479	-0.147105	-2.205640	0.034783	-0.004087	0.053553	1.000000	-0.000021	0.000028	0.000023	-176.123510	-77.255451	169.583118
23450	9.632395	-0.109185	-2.162527	-0.006282	0.039200	0.059997	1.000000	0.000000	0.000007	0.000016	-176.118588	-77.254113	169.579652
23451	9.610215	-0.118703	-2.186704	0.020518	0.025848	0.043829	1.000000	-0.000023	0.000042	0.000005	-176.133205	-77.254574	169.602646
23452	9.603114	-0.084663	-2.144249	-0.014912	0.064127	0.027050	1.000000	-0.000001	0.000019	0.000025	-176.123216	-77.254510	169.593953
23453	9.586395	-0.123228	-2.186477	0.024791	0.020549	0.020613	1.000000	-0.000013	0.000038	0.000012	-176.128711	-77.253286	169.595937
23454	9.629215	-0.086699	-2.165989	0.000055	0.060933	0.057323	1.000000	-0.000020	0.000018	0.000025	-176.121194	-77.253017	169.587476
23455	9.601564	-0.067490	-2.172188	0.014028	0.078153	0.031431	1.000000	-0.000011	0.000017	0.000014	-176.126588	-77.251657	169.594359
23456	9.627568	-0.082016	-2.141572	-0.022953	0.068420	0.050269	1.000000	-0.000020	0.000019	0.000035	-176.113568	-77.251442	169.580310
23457	9.605287	-0.079222	-2.219035	0.057649	0.061954	0.045546	1.000000	-0.000029	0.000012	0.000030	-176.110735	-77.253009	169.576876
23458	9.605303	-0.079695	-2.218951	0.057274	0.061898	0.045549	1.000000	-0.000008	-0.000003	0.000027	-176.101227	-77.250383	169.567798
23459	9.609026	-0.116378	-2.160139	-0.005501	0.032161	0.036782	1.000000	-0.000010	0.000014	0.000031	-176.100595	-77.247038	169.568492
23460	9.605524	-0.106225	-2.112239	-0.049882	0.047871	0.022665	1.000000	-0.000030	0.000030	0.000045	-176.083724	-77.248023	169.549304
23461	9.607359	-0.099491	-2.188626	0.023925	0.046455	0.041175	1.000000	-0.000020	0.000018	0.000025	-176.086863	-77.243647	169.550631
23462	9.612867	-0.128775	-2.206416	0.036602	0.015953	0.050906	1.000000	-0.000010	0.000018	0.000025	-176.078211	-77.243427	169.542186
23463	9.611123	-0.111187	-2.235313	0.065435	0.030300	0.055315	1.000000	-0.000021	0.000030	0.000034	-176.081051	-77.234776	169.542605
23464	9.635367	-0.120438	-2.180725	0.006429	0.028436	0.067065	1.000000	-0.000002	0.000030	0.000024	-176.071623	-77.235800	169.534371
23465	9.609603	-0.119352	-2.157408	-0.010091	0.030820	0.036783	1.000000	-0.000021	0.000022	0.000019	-176.077876	-77.237696	169.549277
23466	9.611508	-0.125184	-2.180650	0.011515	0.022882	0.043850	1.000000	-0.000011	0.000030	0.000034	-176.064203	-77.238705	169.535651
23467	9.615217	-0.136431	-2.227625	0.055756	0.006724	0.057985	1.000000	-0.000011	0.000023	0.000019	-176.064648	-77.243027	169.541536
23468	9.611726	-0.126005	-2.179641	0.011363	0.022413	0.043852	1.000000	-0.000012	0.000029	0.000024	-176.056494	-77.244009	169.533554
23469	9.606413	-0.097407	-2.160971	-0.002273	0.052416	0.034124	1.000000	-0.000022	0.000027	0.000013	-176.065676	-77.244259	169.546878
23470	9.606507	-0.097617	-2.160542	-0.002663	0.052353	0.034125	1.000000	-0.000001	0.000018	0.000014	-176.061460	-77.244036	169.544191
23471	9.604789	-0.092518	-2.136406	-0.025646	0.059734	0.027055	1.000000	-0.000011	0.000023	0.000019	-176.069706	-77.241475	169.561802
23472	9.589836	-0.136485	-2.202568	0.036729	0.008520	0.027713	1.000000	-0.000010	0.000018	0.000025	-176.061265	-77.241204	169.553731
23473	9.606735	-0.085985	-2.212503	0.047406	0.058262	0.045623	1.000000	-0.000020	0.000018	0.000025	-176.067487	-77.234907	169.561900
23474	9.588199	-0.131896	-2.178041	0.012846	0.015944	0.020644	1.000000	-0.000012	0.000029	0.000024	-176.059488	-77.235822	169.554165
23475	9.606933	-0.099644	-2.158554	-0.006706	0.050944	0.034130	1.000000	-0.000019	0.000014	0.000041	-176.054698	-77.233074	169.550169
23476	9.606989	-0.087564	-2.211340	0.045815	0.057725	0.045634	1.000000	-0.000029	0.000018	0.000035	-176.043305	-77.232628	169.536866
23477	9.638353	-0.131105	-2.198951	0.021242	0.017255	0.074156	1.000000	-0.000009	0.000008	0.000026	-176.043763	-77.227642	169.534874
23478	9.614374	-0.135455	-2.199438	0.026527	0.012214	0.050943	1.000000	-0.000013	0.000040	0.000022	-176.036208	-77.229747	169.527477
23479	9.616323	-0.153922	-2.169443	-0.006114	-0.002768	0.046512	1.000000	-0.000021	0.000028	0.000023	-176.041162	-77.223201	169.527877
23480	9.616415	-0.154294	-2.169008	-0.006530	-0.002834	0.046511	1.000000	-0.000020	0.000018	0.000025	-176.034107	-77.222707	169.520086
23481	9.614706	-0.136562	-2.197918	0.022165	0.011575	0.050955	1.000000	-0.000021	0.000028	0.000023	-176.042213	-77.213287	169.524346
23482	9.614837	-0.136883	-2.197327	0.021735	0.011511	0.050956	1.000000	-0.000012	0.000034	0.000018	-176.037316	-77.214621	169.519685
23483	9.590841	-0.153868	-2.144737	-0.025822	-0.000712	0.016206	1.000000	-0.000000	0.000013	0.000020	-176.038667	-77.214417	169.525834
23484	9.631863	-0.099355	-2.153638	-0.019831	0.054312	0.057341	1.000000	-0.000002	0.000029	0.000013	-176.035121	-77.215201	169.523767
23485	9.609695	-0.121664	-2.124709	-0.046275	0.034289	0.029676	1.000000	-0.000031	0.000027	0.000023	-176.040610	-77.211417	169.527719
23486	9.606207	-0.085764	-2.182954	0.015118	0.063654	0.038586	1.000000	0.000009	0.000019	0.000014	-176.035480	-77.211028	169.525301
23487	9.606278	-0.098745	-2.129421	-0.038693	0.056565	0.027032	1.000000	-0.000012	0.000028	0.000013	-176.039750	-77.209170	169.524571
23488	9.606416	-0.086377	-2.182010	0.013780	0.063355	0.038589	1.000000	-0.000011	0.000024	0.000030	-176.029029	-77.209290	169.514114
23489	9.632387	-0.100900	-2.151221	-0.023534	0.053377	0.057338	1.000000	-0.000022	0.000027	0.000013	-176.033516	-77.208577	169.511960
23490	9.604802	-0.081727	-2.157329	-0.009341	0.070915	0.031492	1.000000	-0.000010	0.000020	0.000036	-176.019848	-77.208100	169.498540
23491	9.608505	-0.092952	-2.204521	0.034010	0.054671	0.045699	1.000000	-0.000020	0.000012	0.000020	-176.028520	-77.206232	169.517123
23492	9.606724	-0.088033	-2.180589	0.011570	0.062459	0.038598	1.000000	-0.000019	0.000008	0.000037	-176.015769	-77.204432	169.503687
23493	9.632676	-0.102706	-2.149841	-0.025087	0.052272	0.057340	1.000000	-0.000022	0.000039	0.000022	-176.016986	-77.209054	169.508327
23494	9.582875	-0.092767	-2.180501	0.016825	0.057000	0.015393	1.000000	-0.000001	0.000024	0.000019	-176.010605	-77.209205	169.503478
23495	9.614230	-0.136206	-2.167954	-0.007074	0.016468	0.043867	1.000000	-0.000020	0.000018	0.000025	-176.010393	-77.209325	169.501688
23496	9.638447	-0.120007	-2.219676	0.039668	0.028240	0.078655	1.000000	-0.000011	0.000024	0.000030	-175.999750	-77.209449	169.491370
23497	9.612641	-0.118938	-2.196450	0.022376	0.030677	0.048345	1.000000	-0.000021	0.000022	0.000019	-176.008599	-77.206518	169.505589
23498	9.614515	-0.137414	-2.166613	-0.008967	0.015873	0.043867	1.000000	-0.000002	0.000030	0.000024	-175.999712	-77.207296	169.498158
23499	9.590544	-0.141704	-2.167074	-0.003649	0.010621	0.020659	1.000000	-0.000011	0.000023	0.000019	-176.000212	-77.207744	169.496485
23500	9.635173	-0.110573	-2.170462	-0.006648	0.043051	0.064447	1.000000	-0.000010	0.000005	0.000005	-176.002809	-77.205861	169.499851
23501	9.587088	-0.118740	-2.172052	0.004569	0.032991	0.018033	1.000000	-0.000001	0.000031	0.000035	-175.989285	-77.207857	169.476592
23502	9.611290	-0.115258	-2.170519	-0.001602	0.037882	0.041240	1.000000	-0.000012	0.000028	0.000013	-175.987101	-77.208497	169.474793
23503	9.611386	-0.115572	-2.170078	-0.001954	0.037454	0.041242	1.000000	-0.000010	0.000018	0.000025	-175.987877	-77.208866	169.480417
23504	9.611460	-0.116004	-2.169727	-0.002393	0.037384	0.041242	1.000000	-0.000010	0.000018	0.000025	-175.979837	-77.208339	169.472805
23505	9.609806	-0.098299	-2.198610	0.027073	0.051780	0.045736	1.000000	-0.000012	0.000029	0.000024	-175.983936	-77.203608	169.476500
23506	9.613496	-0.122128	-2.192530	0.017725	0.029129	0.048359	1.000000	-0.000021	0.000022	0.000019	-175.980116	-77.203544	169.471992
23507	9.582268	-0.092291	-2.151149	-0.011761	0.062185	0.008301	1.000000	-0.000010	0.000026	0.000040	-175.967438	-77.205655	169.455777
23508	9.613658	-0.123221	-2.191755	0.017147	0.028799	0.048361	1.000000	-0.000009	0.000008	0.000026	-175.959049	-77.203874	169.447918
23509	9.611873	-0.118356	-2.167767	-0.005941	0.036306	0.041245	1.000000	-0.000030	0.000018	0.000035	-175.958043	-77.199759	169.444128
23510	9.641460	-0.143904	-2.184485	0.000962	0.010763	0.074188	1.000000	-0.000011	0.000030	0.000034	-175.944936	-77.200470	169.431217
23511	9.588021	-0.123360	-2.167672	-0.001010	0.031036	0.018040	1.000000	-0.000022	0.000034	0.000028	-175.940153	-77.202307	169.420060
23512	9.636336	-0.115960	-2.165009	-0.012950	0.040873	0.064450	1.000000	-0.000022	0.000039	0.000022	-175.934147	-77.204106	169.413100
23513	9.621362	-0.172557	-2.177965	-0.004272	-0.017393	0.053599	1.000000	-0.000001	0.000024	0.000019	-175.937788	-77.199766	169.416020
23514	9.614188	-0.138679	-2.135712	-0.039810	0.020808	0.036734	1.000000	-0.000010	0.000012	0.000020	-175.932389	-77.198521	169.411113
23515	9.614371	-0.126323	-2.188449	0.012550	0.027494	0.048372	1.000000	-0.000021	0.000024	0.000029	-175.927035	-77.198157	169.398150
23516	9.586811	-0.107190	-2.194614	0.026753	0.045055	0.022556	1.000000	-0.000001	0.000019	0.000025	-175.917822	-77.197639	169.390402
23517	9.614561	-0.127286	-2.187562	0.011239	0.027159	0.048374	1.000000	0.000008	0.000031	0.000024	-175.914764	-77.196305	169.386725
23518	9.585171	-0.102646	-2.169942	0.003450	0.052566	0.015431	1.000000	-0.000021	0.000016	0.000014	-175.913541	-77.195542	169.384834
23519	9.614740	-0.127948	-2.186734	0.011292	0.026739	0.048375	1.000000	-0.000021	0.000024	0.000029	-175.906838	-77.201311	169.378133
23520	9.611287	-0.104784	-2.191828	0.019743	0.049253	0.045767	1.000000	-0.000012	0.000028	0.000013	-175.904732	-77.201900	169.376356
23521	9.607847	-0.081480	-2.196880	0.028096	0.071481	0.043161	1.000000	-0.000012	0.000028	0.000013	-175.910519	-77.202254	169.384186
23522	9.631894	-0.090684	-2.142368	-0.030999	0.069457	0.054711	1.000000	-0.000010	0.000018	0.000025	-175.902560	-77.201666	169.376583
23523	9.607896	-0.094939	-2.142967	-0.025778	0.064198	0.031509	1.000000	-0.000011	0.000023	0.000019	-175.904179	-77.201402	169.376930
23524	9.613569	-0.111426	-2.213610	0.039750	0.040603	0.052908	1.000000	-0.000032	0.000039	0.000033	-175.893949	-77.203153	169.364496
23525	9.591335	-0.133809	-2.184632	0.014096	0.020565	0.025179	1.000000	-0.000002	0.000029	0.000013	-175.898168	-77.203670	169.369959
23526	9.613666	-0.124906	-2.159436	-0.014111	0.033279	0.041247	1.000000	-0.000010	0.000018	0.000025	-175.890233	-77.203078	169.362377
23527	9.612051	-0.107242	-2.188356	0.016101	0.047675	0.045781	1.000000	-0.000011	0.000024	0.000030	-175.888051	-77.202130	169.360739
23528	9.613824	-0.125896	-2.158674	-0.015238	0.032855	0.041247	1.000000	-0.000019	0.000013	0.000031	-175.878446	-77.200856	169.350390
23529	9.588128	-0.112082	-2.188606	0.020771	0.042136	0.022584	1.000000	-0.000012	0.000029	0.000024	-175.883638	-77.200898	169.365596
23530	9.639925	-0.128162	-2.180638	-0.000113	0.029357	0.071588	1.000000	-0.000030	0.000011	0.000020	-175.880826	-77.199477	169.361076
23531	9.593679	-0.141626	-2.206073	0.032499	0.011248	0.032327	1.000000	-0.000021	0.000024	0.000029	-175.882262	-77.197054	169.364292
23532	9.608743	-0.098578	-2.138999	-0.030825	0.062197	0.031507	1.000000	0.000009	0.000019	0.000014	-175.877447	-77.196554	169.362213
23533	9.610697	-0.104294	-2.162288	-0.010289	0.054058	0.038649	1.000000	-0.000012	0.000029	0.000024	-175.880920	-77.191643	169.363995
23534	9.588566	-0.113936	-2.186591	0.017022	0.041214	0.022595	1.000000	-0.000010	0.000018	0.000025	-175.873129	-77.190990	169.356614
23535	9.607327	-0.081617	-2.167069	-0.001666	0.076301	0.036056	1.000000	-0.000020	0.000018	0.000025	-175.868490	-77.194232	169.347321
23536	9.610963	-0.105434	-2.161051	-0.011011	0.053635	0.038651	1.000000	-0.000002	0.000029	0.000013	-175.865298	-77.194863	169.345615
23537	9.637014	-0.107200	-2.183289	0.005658	0.050249	0.068999	1.000000	-0.000011	0.000023	0.000019	-175.866738	-77.200563	169.354848
23538	9.611202	-0.106055	-2.159955	-0.011008	0.053064	0.038654	1.000000	-0.000013	0.000040	0.000022	-175.859666	-77.202424	169.347968
23539	9.592619	-0.139192	-2.178650	0.006419	0.017302	0.025193	1.000000	-0.000029	0.000012	0.000030	-175.864983	-77.195579	169.354234
23540	9.633783	-0.084844	-2.187473	0.012148	0.072280	0.066414	1.000000	0.000009	0.000019	0.000014	-175.860243	-77.195067	169.352254
23541	9.614977	-0.130714	-2.153246	-0.022565	0.029762	0.041243	1.000000	-0.000020	0.000018	0.000025	-175.858910	-77.192811	169.342589
23542	9.609871	-0.089531	-2.187694	0.016730	0.067046	0.043218	1.000000	-0.000021	0.000030	0.000034	-175.847272	-77.193367	169.330035
23543	9.617051	-0.137003	-2.175996	-0.001764	0.021411	0.048395	1.000000	-0.000021	0.000028	0.000023	-175.852027	-77.192714	169.338345
23544	9.637716	-0.110079	-2.180044	0.000860	0.048859	0.069008	1.000000	-0.000011	0.000024	0.000030	-175.841746	-77.192707	169.328388
23545	9.613739	-0.114375	-2.180565	0.006401	0.043602	0.045811	1.000000	-0.000021	0.000028	0.000023	-175.841030	-77.194664	169.324998
23546	9.613832	-0.114642	-2.180141	0.005941	0.043525	0.045812	1.000000	-0.000021	0.000016	0.000014	-175.840059	-77.193881	169.323445
23547	9.617466	-0.138611	-2.174059	-0.004605	0.020513	0.048396	1.000000	-0.000002	0.000037	0.000039	-175.838004	-77.188675	169.325573
23548	9.614054	-0.115670	-2.179108	0.003803	0.043031	0.045815	1.000000	-0.000020	0.000018	0.000025	-175.831594	-77.187908	169.318494
23549	9.619565	-0.144929	-2.196730	0.016344	0.012210	0.055557	1.000000	-0.000003	0.000040	0.000023	-175.832394	-77.189500	169.322908
23550	9.610767	-0.092946	-2.183616	0.011630	0.065144	0.043238	1.000000	-0.000010	0.000012	0.000020	-175.827330	-77.188175	169.318406
23551	9.612723	-0.098642	-2.206976	0.033148	0.056842	0.050405	1.000000	-0.000021	0.000028	0.000023	-175.831923	-77.189085	169.329242
23552	9.612605	-0.111816	-2.153412	-0.020174	0.049788	0.038656	1.000000	-0.000002	0.000024	0.000019	-175.826008	-77.189078	169.324912
23553	9.588615	-0.115999	-2.153997	-0.014932	0.044513	0.015460	1.000000	-0.000011	0.000023	0.000019	-175.828815	-77.188706	169.326880
23554	9.614707	-0.117842	-2.176109	0.000784	0.041541	0.045822	1.000000	-0.000013	0.000040	0.000022	-175.821954	-77.190482	169.320264
23555	9.588872	-0.116639	-2.152815	-0.015352	0.043990	0.015462	1.000000	-0.000031	0.000022	0.000018	-175.826537	-77.193580	169.327079
23556	9.611386	-0.095016	-2.180800	0.009231	0.063620	0.043251	1.000000	0.000010	0.000009	0.000026	-175.816115	-77.191855	169.319493
23557	9.639083	-0.115205	-2.173727	-0.006107	0.045468	0.069022	1.000000	-0.000032	0.000039	0.000033	-175.817150	-77.192845	169.324313
23558	9.587530	-0.099779	-2.180779	0.013914	0.058153	0.020059	1.000000	-0.000011	0.000023	0.000019	-175.812542	-77.192761	169.320217
23559	9.591112	-0.123720	-2.174863	0.003781	0.035054	0.022633	1.000000	-0.000010	0.000014	0.000031	-175.816672	-77.187318	169.331438
23560	9.609863	-0.091451	-2.155398	-0.015646	0.070292	0.036089	1.000000	-0.000020	0.000012	0.000020	-175.813008	-77.185895	169.327321
23561	9.615319	-0.120608	-2.173251	-0.002482	0.039520	0.045830	1.000000	-0.000011	0.000023	0.000019	-175.813249	-77.188936	169.327475
23562	9.615440	-0.120930	-2.172699	-0.002950	0.039434	0.045830	1.000000	-0.000003	0.000035	0.000018	-175.807808	-77.190161	169.323565
23563	9.615535	-0.121324	-2.172254	-0.002779	0.038906	0.045832	1.000000	-0.000029	0.000012	0.000030	-175.808182	-77.192896	169.330565
23564	9.619097	-0.145223	-2.166397	-0.012093	0.016210	0.048397	1.000000	0.000009	0.000019	0.000014	-175.803725	-77.192357	169.329010
23565	9.612171	-0.098549	-2.177178	0.003725	0.061097	0.043270	1.000000	-0.000020	0.000018	0.000025	-175.810693	-77.183719	169.332005
23566	9.623056	-0.156632	-2.213001	0.029541	0.000200	0.062749	1.000000	-0.000013	0.000040	0.000022	-175.803997	-77.185478	169.325644
23567	9.588324	-0.103162	-2.177126	0.007945	0.055836	0.020079	1.000000	-0.000011	0.000018	0.000025	-175.804423	-77.181104	169.319221
23568	9.614371	-0.104973	-2.199492	0.023631	0.052861	0.050454	1.000000	-0.000021	0.000016	0.000014	-175.803765	-77.180243	169.318104
23569	9.640152	-0.119669	-2.168741	-0.014101	0.042429	0.069028	1.000000	-0.000011	0.000024	0.000030	-175.807943	-77.177352	169.330719
23570	9.616147	-0.123952	-2.169395	-0.008744	0.037433	0.045834	1.000000	-0.000020	0.000018	0.000025	-175.801850	-77.176528	169.324096
23571	9.590585	-0.109839	-2.199172	0.028342	0.046979	0.027269	1.000000	-0.000004	0.000044	0.000006	-175.805251	-77.184276	169.329171
23572	9.614788	-0.106336	-2.197604	0.022031	0.051795	0.050464	1.000000	0.000010	0.000009	0.000026	-175.795047	-77.182507	169.321885
23573	9.612951	-0.101469	-2.173599	-0.000823	0.059208	0.043283	1.000000	-0.000020	0.000018	0.000025	-175.798288	-77.179808	169.324603
23574	9.640626	-0.121659	-2.166522	-0.015984	0.041409	0.069029	1.000000	-0.000011	0.000030	0.000034	-175.785831	-77.180368	169.312506
23575	9.613149	-0.102489	-2.172676	-0.003129	0.058843	0.043284	1.000000	-0.000011	0.000018	0.000025	-175.789927	-77.172051	169.311486
23576	9.615127	-0.108276	-2.196025	0.018380	0.050962	0.050475	1.000000	-0.000021	0.000024	0.000029	-175.781322	-77.171845	169.302220
23577	9.616803	-0.126912	-2.166318	-0.012992	0.035804	0.045836	1.000000	-0.000011	0.000018	0.000025	-175.780660	-77.171036	169.299187
23578	9.637484	-0.100009	-2.170462	-0.010479	0.063228	0.066478	1.000000	-0.000011	0.000018	0.000025	-175.773382	-77.170272	169.292460
23579	9.613455	-0.104271	-2.171237	-0.004417	0.058033	0.043289	1.000000	-0.000029	0.000012	0.000030	-175.767545	-77.172939	169.279505
23580	9.616992	-0.128210	-2.165400	-0.013742	0.035330	0.045837	1.000000	-0.000020	0.000018	0.000025	-175.761502	-77.172109	169.272885
23581	9.641202	-0.124799	-2.163777	-0.019929	0.039868	0.069028	1.000000	-0.000003	0.000040	0.000023	-175.759966	-77.175017	169.271728
23582	9.591562	-0.114561	-2.194666	0.022128	0.044802	0.027295	1.000000	-0.000011	0.000017	0.000014	-175.758168	-77.174225	169.270561
23583	9.637930	-0.101873	-2.168395	-0.012115	0.062043	0.066483	1.000000	-0.000011	0.000023	0.000019	-175.760754	-77.173946	169.271102
23584	9.591732	-0.115199	-2.193888	0.021103	0.044366	0.027299	1.000000	-0.000011	0.000018	0.000025	-175.753482	-77.173204	169.264352
23585	9.636530	-0.084535	-2.196893	0.017726	0.076364	0.071140	1.000000	-0.000011	0.000024	0.000030	-175.752052	-77.173286	169.263777
23586	9.617604	-0.130561	-2.162538	-0.016572	0.033935	0.045837	1.000000	-0.000012	0.000035	0.000028	-175.742584	-77.174414	169.254606
23587	9.617699	-0.130955	-2.162093	-0.016768	0.033504	0.045838	1.000000	-0.000020	0.000012	0.000020	-175.746481	-77.174946	169.259748
23588	9.612411	-0.102458	-2.143510	-0.030398	0.063813	0.036099	1.000000	-0.000012	0.000029	0.000024	-175.739594	-77.175443	169.253276
23589	9.616337	-0.113434	-2.190457	0.012238	0.047897	0.050500	1.000000	-0.000002	0.000029	0.000013	-175.747670	-77.171257	169.259441
23590	9.633230	-0.075806	-2.147086	-0.029249	0.090886	0.056747	1.000000	-0.000009	0.000008	0.000026	-175.740115	-77.169269	169.252526
23591	9.614568	-0.108821	-2.166075	-0.011470	0.055111	0.043300	1.000000	-0.000021	0.000022	0.000019	-175.750688	-77.165141	169.266959
23592	9.616580	-0.114481	-2.189335	0.010033	0.047235	0.050506	1.000000	-0.000012	0.000029	0.000024	-175.743880	-77.165594	169.260572
23593	9.614796	-0.109559	-2.165030	-0.013937	0.054581	0.043299	1.000000	-0.000012	0.000029	0.000024	-175.753171	-77.157849	169.271848
23594	9.614890	-0.109930	-2.164593	-0.014431	0.054487	0.043299	1.000000	-0.000030	0.000017	0.000024	-175.748574	-77.156860	169.265576
23595	9.618434	-0.133824	-2.158647	-0.023740	0.031470	0.045831	1.000000	0.000008	0.000025	0.000019	-175.749589	-77.157230	169.268530
23596	9.616970	-0.116102	-2.187539	0.006588	0.046214	0.050514	1.000000	-0.000030	0.000018	0.000035	-175.739531	-77.156292	169.256692
23597	9.615181	-0.111263	-2.163230	-0.015846	0.053604	0.043302	1.000000	-0.000003	0.000040	0.000023	-175.739246	-77.158606	169.256199
23598	9.615278	-0.111680	-2.162777	-0.016340	0.053508	0.043302	1.000000	-0.000019	0.000007	0.000026	-175.733080	-77.156474	169.249582
23599	9.619172	-0.122709	-2.209943	0.027076	0.037660	0.057734	1.000000	-0.000021	0.000028	0.000023	-175.732924	-77.156599	169.241160
23600	9.611993	-0.089018	-2.167542	-0.008559	0.075745	0.040777	1.000000	-0.000020	0.000019	0.000035	-175.721635	-77.155744	169.229175
23601	9.617430	-0.118374	-2.185390	0.003763	0.045078	0.050520	1.000000	-0.000011	0.000018	0.000025	-175.720665	-77.153132	169.220238
23602	9.616006	-0.100550	-2.214181	0.034087	0.059820	0.055217	1.000000	-0.000003	0.000035	0.000018	-175.715613	-77.154206	169.216665
23603	9.614212	-0.095506	-2.189895	0.011654	0.067118	0.048001	1.000000	-0.000031	0.000022	0.000018	-175.723744	-77.154528	169.226841
23604	9.614297	-0.095773	-2.189510	0.011158	0.067022	0.048003	1.000000	0.000009	0.000019	0.000014	-175.719684	-77.153819	169.225612
23605	9.593724	-0.123435	-2.184713	0.007220	0.039081	0.027341	1.000000	-0.000020	0.000018	0.000025	-175.725166	-77.150416	169.231172
23606	9.612552	-0.091199	-2.164967	-0.012323	0.074265	0.040784	1.000000	-0.000012	0.000029	0.000024	-175.718516	-77.150805	169.224915
23607	9.616498	-0.102272	-2.211966	0.031408	0.058356	0.055235	1.000000	-0.000021	0.000024	0.000029	-175.715514	-77.152257	169.216848
23608	9.618119	-0.120979	-2.182214	0.000095	0.043416	0.050529	1.000000	-0.000011	0.000024	0.000030	-175.705956	-77.152062	169.207676
23609	9.612847	-0.092613	-2.163599	-0.013718	0.073290	0.040789	1.000000	-0.000011	0.000018	0.000025	-175.710686	-77.150812	169.218454
23610	9.614803	-0.098363	-2.187171	0.007769	0.065417	0.048017	1.000000	-0.000038	0.000001	0.000031	-175.704235	-77.147899	169.209312
23611	9.616394	-0.117088	-2.157524	-0.023281	0.050030	0.043306	1.000000	0.000007	0.000037	0.000029	-175.702470	-77.151096	169.216012
23612	9.620373	-0.128130	-2.204400	0.020196	0.034388	0.057762	1.000000	-0.000002	0.000029	0.000013	-175.700104	-77.151531	169.215281
23613	9.615113	-0.099682	-2.185746	0.007545	0.064326	0.048024	1.000000	-0.000030	0.000018	0.000035	-175.694462	-77.156770	169.209022
23614	9.589167	-0.098528	-2.162766	-0.009036	0.067121	0.017613	1.000000	-0.000011	0.000017	0.000014	-175.693007	-77.155917	169.208213
23615	9.618713	-0.123907	-2.179429	-0.002272	0.041238	0.050538	1.000000	-0.000012	0.000029	0.000024	-175.693191	-77.156542	169.204444
23616	9.593200	-0.109940	-2.209422	0.033945	0.051122	0.032075	1.000000	-0.000010	0.000014	0.000031	-175.683361	-77.155147	169.195149
23617	9.639542	-0.097618	-2.183089	-0.000118	0.068269	0.071215	1.000000	-0.000011	0.000024	0.000030	-175.679591	-77.156505	169.187460
23618	9.594875	-0.129083	-2.179325	0.002376	0.035799	0.027356	1.000000	-0.000021	0.000022	0.000019	-175.676840	-77.156212	169.184108
23619	9.613740	-0.096899	-2.159438	-0.017597	0.070529	0.040803	1.000000	0.000007	0.000036	0.000029	-175.678335	-77.155604	169.193434
23620	9.619203	-0.126305	-2.177128	-0.004921	0.040031	0.050542	1.000000	-0.000030	0.000018	0.000035	-175.668497	-77.154676	169.181802
23621	9.614384	-0.084948	-2.211511	0.034529	0.077124	0.052770	1.000000	-0.000002	0.000029	0.000013	-175.672171	-77.157293	169.184114
23622	9.619373	-0.127049	-2.176336	-0.005583	0.039531	0.050543	1.000000	-0.000010	0.000008	0.000026	-175.664965	-77.155262	169.177550
23623	9.616025	-0.103927	-2.181532	0.003047	0.061579	0.048044	1.000000	-0.000021	0.000028	0.000023	-175.670437	-77.157929	169.189953
23624	9.619551	-0.127873	-2.175501	-0.006256	0.038844	0.050546	1.000000	-0.000021	0.000024	0.000029	-175.662288	-77.157693	169.181132
23625	9.618173	-0.110064	-2.204295	0.023977	0.053248	0.055285	1.000000	-0.000021	0.000028	0.000023	-175.666696	-77.158015	169.185517
23626	9.618243	-0.110424	-2.203970	0.023486	0.053144	0.055286	1.000000	-0.000029	0.000006	0.000026	-175.662055	-77.155824	169.179325
23627	9.616370	-0.105458	-2.179941	0.001028	0.060432	0.048052	1.000000	-0.000011	0.000023	0.000019	-175.667463	-77.156152	169.186283
23628	9.597753	-0.138500	-2.198670	0.019635	0.025074	0.034606	1.000000	-0.000012	0.000041	0.000033	-175.655877	-77.157869	169.174914
23629	9.640722	-0.102551	-2.177647	-0.006091	0.064677	0.071237	1.000000	-0.000011	0.000017	0.000014	-175.665906	-77.156243	169.188521
23630	9.620155	-0.130140	-2.172695	-0.009468	0.037077	0.050550	1.000000	-0.000013	0.000040	0.000022	-175.659827	-77.157908	169.182774
23631	9.592805	-0.110794	-2.178640	0.004345	0.054374	0.024877	1.000000	-0.000012	0.000035	0.000028	-175.662524	-77.156973	169.187235
23632	9.622370	-0.136279	-2.195176	0.011112	0.028733	0.057795	1.000000	-0.000011	0.000023	0.000019	-175.658706	-77.156759	169.183984
23633	9.615190	-0.102475	-2.152714	-0.023730	0.066432	0.040819	1.000000	-0.000021	0.000028	0.000023	-175.658122	-77.162189	169.182105
23634	9.595104	-0.117046	-2.200770	0.025682	0.045963	0.032126	1.000000	-0.000013	0.000033	0.000007	-175.660122	-77.163178	169.184658
23635	9.619296	-0.113479	-2.199216	0.018615	0.050304	0.055312	1.000000	-0.000020	0.000012	0.000020	-175.670823	-77.158405	169.197973
23636	9.614038	-0.085200	-2.180582	0.004933	0.080582	0.045579	1.000000	-0.000011	0.000032	0.000045	-175.653527	-77.158933	169.180929
23637	9.615595	-0.104038	-2.150831	-0.026456	0.065239	0.040820	1.000000	-0.000020	0.000018	0.000025	-175.657528	-77.157797	169.184062
23638	9.595459	-0.118710	-2.199135	0.022958	0.044779	0.032138	1.000000	-0.000001	0.000018	0.000014	-175.655085	-77.157032	169.183417
23639	9.597017	-0.137177	-2.169377	-0.008514	0.029435	0.027374	1.000000	-0.000032	0.000032	0.000017	-175.664009	-77.157130	169.189934
23640	9.619770	-0.115503	-2.197037	0.015840	0.049063	0.055323	1.000000	-0.000011	0.000018	0.000025	-175.657373	-77.156325	169.183877
23641	9.614513	-0.087041	-2.178415	0.001878	0.079136	0.045592	1.000000	-0.000011	0.000023	0.000019	-175.660221	-77.154677	169.177856
23642	9.619929	-0.116201	-2.196302	0.014569	0.048637	0.055327	1.000000	-0.000010	0.000012	0.000020	-175.656162	-77.153226	169.174463
23643	9.618078	-0.111403	-2.172093	-0.007201	0.055889	0.048076	1.000000	-0.000022	0.000035	0.000039	-175.649488	-77.158754	169.168577
23644	9.599454	-0.144424	-2.190852	0.011437	0.020543	0.034629	1.000000	-0.000002	0.000029	0.000013	-175.647426	-77.159225	169.168174
23645	9.616335	-0.106906	-2.147380	-0.030069	0.062976	0.040824	1.000000	-0.000010	0.000008	0.000026	-175.651059	-77.158294	169.176466
23646	9.598175	-0.126981	-2.219386	0.041342	0.034783	0.039411	1.000000	-0.000022	0.000034	0.000028	-175.643496	-77.159289	169.168136
23647	9.618500	-0.113055	-2.170137	-0.009478	0.054686	0.048081	1.000000	-0.000021	0.000028	0.000023	-175.648662	-77.157618	169.170320
23648	9.593089	-0.098924	-2.200016	0.026752	0.064626	0.029687	1.000000	-0.000012	0.000029	0.000024	-175.642436	-77.158049	169.164542
23649	9.622110	-0.137309	-2.163576	-0.019164	0.031532	0.050555	1.000000	-0.000021	0.000022	0.000019	-175.646887	-77.158588	169.163914
23650	9.644849	-0.115503	-2.191390	0.005172	0.051153	0.078521	1.000000	-0.000020	0.000010	0.000009	-175.649636	-77.157020	169.166325
23651	9.596698	-0.123287	-2.193468	0.016397	0.041103	0.032167	1.000000	-0.000010	0.000014	0.000031	-175.647633	-77.154849	169.158661
23652	9.620909	-0.120120	-2.191792	0.009952	0.045827	0.055346	1.000000	-0.000012	0.000041	0.000033	-175.636293	-77.156555	169.147517
23653	9.621012	-0.120688	-2.191310	0.009636	-0.009062	0.055449	1.000000	0.000010	0.000009	0.000027	-177.043037	-77.212104	170.513221
23654	9.615753	-0.092312	-2.172719	-0.004045	0.021038	0.045886	1.000000	-0.000021	0.000028	0.000023	-177.043970	-77.212702	170.513264
23655	9.615860	-0.092647	-2.172228	-0.004535	0.020697	0.045887	1.000000	-0.000011	0.000023	0.000019	-177.046135	-77.212756	170.516291
23656	9.619333	-0.116605	-2.166255	-0.013822	-0.002301	0.048227	1.000000	-0.000011	0.000024	0.000030	-177.042837	-77.212863	170.513217
23657	9.619430	-0.117103	-2.165798	-0.014299	-0.002645	0.048226	1.000000	-0.000021	0.000024	0.000029	-177.040767	-77.212985	170.509970
23658	9.592066	-0.097723	-2.171977	-0.000042	0.014963	0.022684	1.000000	-0.000012	0.000029	0.000024	-177.040449	-77.213668	170.509873
23659	9.641761	-0.109009	-2.139971	-0.043204	0.009155	0.064203	1.000000	-0.000010	0.000014	0.000031	-177.036682	-77.212686	170.507207
23660	9.619706	-0.118367	-2.164501	-0.015754	-0.003676	0.048224	1.000000	-0.000022	0.000027	0.000013	-177.043108	-77.213208	170.512849
23661	9.621785	-0.123881	-2.187736	0.005731	-0.011802	0.055449	1.000000	-0.000031	0.000028	0.000023	-177.045302	-77.213697	170.512388
23662	9.623869	-0.129521	-2.210951	0.027221	-0.019927	0.062675	1.000000	-0.000012	0.000029	0.000024	-177.044985	-77.214380	170.512291
23663	9.614703	-0.090542	-2.144751	-0.030433	0.025739	0.038662	1.000000	-0.000011	0.000018	0.000025	-177.044180	-77.213828	170.510153
23664	9.622096	-0.125047	-2.186299	0.004250	-0.012827	0.055448	1.000000	-0.000021	0.000028	0.000023	-177.045115	-77.214426	170.510197
23665	9.596687	-0.110953	-2.216339	0.040482	-0.002990	0.037146	1.000000	-0.000010	0.000014	0.000031	-177.041346	-77.213233	170.505897
23666	9.620274	-0.120684	-2.161849	-0.018731	-0.005727	0.048217	1.000000	-0.000020	0.000018	0.000025	-177.041813	-77.212604	170.505586
23667	9.622326	-0.126315	-2.185216	0.002768	-0.013852	0.055447	1.000000	-0.000011	0.000023	0.000019	-177.043999	-77.212690	170.508366
23668	9.592958	-0.101667	-2.167851	-0.004950	0.011550	0.022688	1.000000	-0.000019	0.000008	0.000037	-177.038508	-77.210909	170.502103
23669	9.600351	-0.136245	-2.209400	0.029725	-0.027009	0.039477	1.000000	-0.000022	0.000039	0.000022	-177.039892	-77.212670	170.501259
23670	9.622578	-0.127649	-2.184026	0.001277	-0.014875	0.055446	1.000000	-0.000010	0.000008	0.000026	-177.038639	-77.210895	170.500453
23671	9.593191	-0.103035	-2.166756	-0.006423	0.010529	0.022688	1.000000	-0.000010	0.000014	0.000031	-177.034833	-77.209865	170.497524
23672	9.622704	-0.128629	-2.183416	0.000307	-0.015561	0.055445	1.000000	-0.000012	0.000029	0.000024	-177.034516	-77.210547	170.497425
23673	9.640215	-0.078269	-2.192755	0.011389	0.034115	0.074008	1.000000	-0.000021	0.000024	0.000029	-177.032431	-77.210506	170.494887
23674	9.621533	-0.111191	-2.211734	0.030073	-0.001356	0.060363	1.000000	-0.000011	0.000023	0.000019	-177.034625	-77.210535	170.497411
23675	9.595575	-0.109891	-2.188625	0.013593	0.001389	0.029926	1.000000	-0.000022	0.000033	0.000017	-177.038517	-77.211798	170.500582
23676	9.645259	-0.121279	-2.156491	-0.029624	-0.004464	0.071405	1.000000	-0.000020	0.000020	0.000046	-177.028007	-77.211322	170.489078
23677	9.599103	-0.134467	-2.182260	0.003832	-0.021955	0.032241	1.000000	-0.000011	0.000017	0.000014	-177.032684	-77.210710	170.494790
23678	9.621946	-0.112803	-2.209856	0.028115	-0.002721	0.060369	1.000000	-0.000032	0.000033	0.000028	-177.032363	-77.211879	170.492356
23679	9.623440	-0.131479	-2.179998	-0.003133	-0.017952	0.055441	1.000000	-0.000012	0.000029	0.000024	-177.032012	-77.212580	170.494006
23680	9.594127	-0.106814	-2.162426	-0.010845	0.007460	0.022687	1.000000	-0.000011	0.000024	0.000030	-177.028717	-77.212686	170.490933
23681	9.620296	-0.108843	-2.184593	0.004676	0.004028	0.053130	1.000000	-0.000020	0.000018	0.000025	-177.029124	-77.212174	170.490285
23682	9.620403	-0.109177	-2.184103	0.004182	0.003686	0.053130	1.000000	-0.000012	0.000034	0.000018	-177.031786	-77.213433	170.493163
23683	9.596373	-0.113277	-2.184952	0.009675	-0.001334	0.029930	1.000000	-0.000019	0.000002	0.000032	-177.028777	-77.210967	170.487622
23684	9.621890	-0.128251	-2.154208	-0.027564	-0.011890	0.048191	1.000000	-0.000002	0.000029	0.000013	-177.032695	-77.211656	170.492978
23685	9.621984	-0.128646	-2.153763	-0.028074	-0.012228	0.048189	1.000000	-0.000030	0.000018	0.000035	-177.028882	-77.210919	170.485695
23686	9.599958	-0.138078	-2.178267	-0.000591	-0.025019	0.032235	1.000000	-0.000012	0.000029	0.000024	-177.028566	-77.211601	170.485597
23687	9.597392	-0.102016	-2.236216	0.060432	0.004437	0.042125	1.000000	-0.000011	0.000030	0.000034	-177.022685	-77.212419	170.480574
23688	9.594885	-0.110246	-2.158888	-0.014774	0.004737	0.022684	1.000000	-0.000021	0.000028	0.000023	-177.023624	-77.213018	170.480620
23689	9.622434	-0.130492	-2.151642	-0.030040	-0.013595	0.048182	1.000000	-0.000012	0.000029	0.000024	-177.023233	-77.213669	170.481373
23690	9.597752	-0.103307	-2.234609	0.058947	0.003423	0.042134	1.000000	-0.000021	0.000024	0.000029	-177.021196	-77.213692	170.478444
23691	9.600494	-0.140264	-2.175766	-0.003040	-0.026719	0.032230	1.000000	-0.000020	0.000012	0.000020	-177.024132	-77.212422	170.482388
23692	9.619369	-0.108112	-2.155918	-0.022749	0.008047	0.045880	1.000000	-0.000012	0.000029	0.000024	-177.023816	-77.213104	170.482290
23693	9.616190	-0.084924	-2.160765	-0.014487	0.030379	0.043584	1.000000	-0.000023	0.000039	0.000022	-177.025143	-77.214864	170.481812
23694	9.624931	-0.137758	-2.173016	-0.010532	-0.023069	0.055425	1.000000	-0.000000	0.000014	0.000031	-177.020130	-77.213824	170.478243
23695	9.621675	-0.114694	-2.178208	-0.002251	-0.000739	0.053131	1.000000	-0.000020	0.000018	0.000025	-177.020526	-77.213241	170.476588
23696	9.597657	-0.118846	-2.179009	0.003264	-0.005748	0.029933	1.000000	-0.000001	0.000025	0.000030	-177.015977	-77.213430	170.473369
23697	9.623854	-0.120849	-2.201104	0.018712	-0.009179	0.060387	1.000000	-0.000021	0.000022	0.000019	-177.019354	-77.213200	170.475773
23698	9.619946	-0.110650	-2.153211	-0.025741	0.006006	0.045874	1.000000	-0.000020	0.000018	0.000025	-177.019831	-77.212570	170.475469
23699	9.597919	-0.119932	-2.177792	0.001754	-0.006759	0.029933	1.000000	-0.000011	0.000023	0.000019	-177.021942	-77.212575	170.477059
23700	9.647553	-0.131243	-2.145617	-0.041508	-0.012684	0.071355	1.000000	-0.000012	0.000029	0.000024	-177.021627	-77.213257	170.476960
23701	9.594814	-0.097044	-2.182349	0.009515	0.015238	0.027648	1.000000	-0.000011	0.000017	0.000014	-177.026245	-77.212535	170.482225
23702	9.623634	-0.135518	-2.145957	-0.036495	-0.018027	0.048153	1.000000	-0.000021	0.000028	0.000023	-177.027188	-77.213134	170.482272
23703	9.598312	-0.121258	-2.175988	-0.000194	-0.008120	0.029932	1.000000	-0.000020	0.000018	0.000025	-177.027580	-77.212718	170.481444
23704	9.641302	-0.085537	-2.154895	-0.025945	0.031291	0.066783	1.000000	-0.000021	0.000024	0.000029	-177.025546	-77.212740	170.478517
23705	9.598491	-0.122078	-2.175154	-0.001193	-0.008797	0.029931	1.000000	-0.000011	0.000023	0.000019	-177.027671	-77.212679	170.481551
23706	9.600590	-0.127670	-2.198463	0.020294	-0.016897	0.037194	1.000000	-0.000002	0.000024	0.000019	-177.028611	-77.212791	170.483929
23707	9.624798	-0.124469	-2.196772	0.013797	-0.012582	0.060391	1.000000	-0.000001	0.000025	0.000030	-177.023984	-77.213083	170.481450
23708	9.619606	-0.096220	-2.177984	0.000080	0.017510	0.050850	1.000000	-0.000021	0.000030	0.000034	-177.019439	-77.213758	170.475900
23709	9.619702	-0.096613	-2.177538	-0.000396	0.017169	0.050851	1.000000	-0.000011	0.000017	0.000014	-177.024052	-77.213240	170.479574
23710	9.598976	-0.124157	-2.172894	-0.003617	-0.010502	0.029929	1.000000	-0.000031	0.000023	0.000029	-177.023279	-77.213180	170.476795
23711	9.599069	-0.124525	-2.172459	-0.004093	-0.010844	0.029928	1.000000	-0.000011	0.000023	0.000019	-177.025427	-77.213301	170.481205
23712	9.621997	-0.102918	-2.199979	0.020116	0.008388	0.058121	1.000000	-0.000012	0.000029	0.000024	-177.025114	-77.213983	170.481106
23713	9.599296	-0.125260	-2.171416	-0.005062	-0.011527	0.029927	1.000000	-0.000021	0.000028	0.000023	-177.025990	-77.214666	170.481240
23714	9.625519	-0.127190	-2.193454	0.010392	-0.014973	0.060392	1.000000	-0.000011	0.000023	0.000019	-177.028189	-77.214695	170.483766
23715	9.627600	-0.132744	-2.216881	0.031886	-0.023066	0.067663	1.000000	-0.000020	0.000012	0.000020	-177.031113	-77.213459	170.487014
23716	9.623638	-0.122581	-2.169089	-0.012565	-0.007903	0.053120	1.000000	-0.000020	0.000018	0.000025	-177.031596	-77.212829	170.486713
23717	9.599604	-0.126664	-2.169972	-0.007008	-0.012889	0.029924	1.000000	-0.000001	0.000019	0.000025	-177.029444	-77.212443	170.485063
23718	9.620545	-0.099854	-2.173667	-0.004790	0.014094	0.050855	1.000000	-0.000023	0.000039	0.000022	-177.030854	-77.214271	170.485463
23719	9.620679	-0.100382	-2.173050	-0.005283	0.013756	0.050855	1.000000	-0.000011	0.000026	0.000040	-177.021980	-77.214457	170.477178
23720	9.598672	-0.109834	-2.197635	0.022242	0.001022	0.034935	1.000000	-0.000020	0.000018	0.000025	-177.022465	-77.213827	170.476879
23721	9.594737	-0.099707	-2.149682	-0.022190	0.016180	0.020385	1.000000	-0.000021	0.000028	0.000023	-177.023335	-77.214526	170.477269
23722	9.624241	-0.125312	-2.166258	-0.015492	-0.009952	0.053114	1.000000	0.000009	0.000020	0.000025	-177.020040	-77.214143	170.476525
23723	9.598932	-0.111049	-2.196438	0.020780	0.000004	0.034938	1.000000	-0.000020	0.000012	0.000020	-177.022951	-77.212852	170.478903
23724	9.622390	-0.120867	-2.141712	-0.038458	-0.002886	0.045834	1.000000	-0.000032	0.000039	0.000033	-177.020134	-77.214675	170.473853
23725	9.595906	-0.088236	-2.200785	0.028536	0.022010	0.032685	1.000000	-0.000002	0.000029	0.000013	-177.023954	-77.215348	170.479004
23726	9.621358	-0.103205	-2.169909	-0.008726	0.011369	0.050855	1.000000	-0.000010	0.000012	0.000020	-177.025693	-77.214148	170.481182
23727	9.597323	-0.107276	-2.170805	-0.003147	0.006391	0.027661	1.000000	-0.000011	0.000024	0.000030	-177.022317	-77.214385	170.476679
23728	9.623540	-0.109356	-2.192909	0.012287	0.002938	0.058137	1.000000	-0.000011	0.000018	0.000025	-177.021544	-77.213838	170.476232
23729	9.621593	-0.104624	-2.168796	-0.010187	0.010346	0.050855	1.000000	-0.000020	0.000019	0.000035	-177.016457	-77.213264	170.469130
23730	9.653127	-0.135502	-2.209074	0.018480	-0.023539	0.090864	1.000000	-0.000003	0.000034	0.000018	-177.017859	-77.214604	170.471855
23731	9.599735	-0.114237	-2.192759	0.016858	-0.002712	0.034945	1.000000	-0.000031	0.000022	0.000018	-177.022527	-77.214469	170.475022
23732	9.623954	-0.110960	-2.191009	0.010309	0.001577	0.058139	1.000000	0.000008	0.000030	0.000024	-177.019693	-77.215315	170.474625
23733	9.622007	-0.106277	-2.166880	-0.012132	0.008975	0.050854	1.000000	-0.000019	0.000008	0.000037	-177.014194	-77.213713	170.468708
23734	9.594718	-0.086794	-2.173212	0.002170	0.026691	0.025416	1.000000	-0.000012	0.000034	0.000018	-177.016858	-77.214972	170.471583
23735	9.598078	-0.110672	-2.167295	-0.007063	0.003665	0.027661	1.000000	-0.000010	0.000012	0.000020	-177.018556	-77.213748	170.473908
23736	9.623471	-0.125792	-2.136564	-0.044329	-0.006996	0.045807	1.000000	-0.000020	0.000013	0.000031	-177.016072	-77.212542	170.470639
23737	9.598212	-0.111544	-2.166657	-0.008043	0.002985	0.027660	1.000000	-0.000012	0.000029	0.000024	-177.015684	-77.213250	170.469246
23738	9.627757	-0.137160	-2.183008	-0.001356	-0.023161	0.060382	1.000000	0.000007	0.000041	0.000023	-177.013310	-77.215325	170.469195
23739	9.600476	-0.117716	-2.189328	0.012951	-0.005435	0.034950	1.000000	-0.000019	0.000002	0.000032	-177.010293	-77.212894	170.465029
23740	9.598505	-0.112895	-2.165289	-0.009519	0.001964	0.027659	1.000000	-0.000031	0.000028	0.000023	-177.012507	-77.213413	170.465232
23741	9.624717	-0.114813	-2.187456	0.005881	-0.001491	0.058143	1.000000	-0.000000	0.000007	0.000016	-177.015455	-77.211545	170.470921
23742	9.622746	-0.109857	-2.163415	-0.016589	0.005905	0.050850	1.000000	-0.000021	0.000022	0.000019	-177.018920	-77.211492	170.473598
23743	9.619576	-0.086613	-2.168507	-0.008344	0.028255	0.048616	1.000000	-0.000020	0.000018	0.000025	-177.019325	-77.210909	170.472017
23744	9.598800	-0.114231	-2.163909	-0.011496	0.000604	0.027657	1.000000	-0.000021	0.000024	0.000029	-177.017305	-77.210932	170.469098
23745	9.598895	-0.114623	-2.163465	-0.011983	0.000266	0.027657	1.000000	-0.000011	0.000023	0.000019	-177.019409	-77.210987	170.469472
23746	9.623910	-0.098226	-2.214808	0.034131	0.011758	0.063210	1.000000	-0.000030	0.000017	0.000024	-177.021164	-77.210277	170.469328
23747	9.604362	-0.144037	-2.180905	0.000296	-0.030846	0.037181	1.000000	-0.000022	0.000033	0.000017	-177.025061	-77.211552	170.472131
23748	9.595946	-0.092146	-2.167565	-0.004716	0.021932	0.025427	1.000000	0.000009	0.000021	0.000036	-177.016278	-77.211243	170.465785
23749	9.627453	-0.123126	-2.207975	0.023945	-0.011959	0.065443	1.000000	-0.000020	0.000018	0.000025	-177.016736	-77.210657	170.465457
23750	9.599338	-0.116577	-2.161397	-0.014421	-0.001443	0.027653	1.000000	-0.000011	0.000017	0.000014	-177.021452	-77.210034	170.470607
23751	9.625571	-0.118464	-2.183500	0.000981	-0.004906	0.058144	1.000000	-0.000011	0.000023	0.000019	-177.023600	-77.210059	170.472828
23752	9.620399	-0.089995	-2.164717	-0.012763	0.025179	0.048620	1.000000	-0.000022	0.000028	0.000023	-177.024554	-77.210660	170.472882
23753	9.625763	-0.119250	-2.182610	-0.000014	-0.005587	0.058143	1.000000	-0.000010	0.000014	0.000031	-177.020780	-77.209488	170.469807
23754	9.604986	-0.146847	-2.177969	-0.003145	-0.033231	0.037173	1.000000	-0.000012	0.000034	0.000018	-177.023443	-77.210747	170.472681
23755	9.619484	-0.072889	-2.192650	0.016437	0.039122	0.053705	1.000000	-0.000030	0.000012	0.000030	-177.022156	-77.209416	170.469121
23756	9.623993	-0.115110	-2.157588	-0.023477	0.001122	0.050838	1.000000	-0.000022	0.000027	0.000013	-177.028596	-77.209941	170.474771
23757	9.602019	-0.124253	-2.182188	0.004096	-0.011554	0.034952	1.000000	-0.000001	0.000019	0.000025	-177.026485	-77.209485	170.472717
23758	9.620930	-0.092279	-2.162260	-0.015741	0.023136	0.048620	1.000000	-0.000020	0.000018	0.000025	-177.026980	-77.208857	170.472423
23759	9.596915	-0.096378	-2.163086	-0.010146	0.018193	0.025431	1.000000	-0.000012	0.000030	0.000034	-177.021123	-77.209596	170.465746
23760	9.623159	-0.098454	-2.185163	0.005243	0.014724	0.055928	1.000000	-0.000020	0.000012	0.000020	-177.024131	-77.208315	170.468076
23761	9.626471	-0.122377	-2.179313	-0.003962	-0.008316	0.058141	1.000000	-0.000012	0.000029	0.000024	-177.023842	-77.209043	170.468874
23762	9.599229	-0.102816	-2.185608	0.010358	0.009439	0.032741	1.000000	-0.000011	0.000018	0.000025	-177.023073	-77.208495	170.468428
23763	9.621380	-0.094447	-2.160160	-0.018196	0.021424	0.048620	1.000000	-0.000021	0.000024	0.000029	-177.021025	-77.208583	170.464602
23764	9.600595	-0.122010	-2.155503	-0.021308	-0.006213	0.027639	1.000000	-0.000031	0.000028	0.000023	-177.023246	-77.209102	170.464808
23765	9.621579	-0.095104	-2.159247	-0.019189	0.020740	0.048619	1.000000	-0.000011	0.000017	0.000014	-177.027965	-77.208449	170.470517
23766	9.602845	-0.127853	-2.178343	-0.000323	-0.014623	0.034949	1.000000	-0.000012	0.000035	0.000028	-177.025145	-77.209783	170.467793
23767	9.627056	-0.124676	-2.176598	-0.006921	-0.010368	0.058137	1.000000	-0.000010	0.000012	0.000020	-177.026875	-77.208564	170.469929
23768	9.601848	-0.110236	-2.206772	0.029377	-0.000330	0.040060	1.000000	-0.000011	0.000023	0.000019	-177.029079	-77.208594	170.472454
23769	9.601924	-0.110665	-2.206422	0.028866	-0.000665	0.040061	1.000000	-0.000010	0.000014	0.000031	-177.025287	-77.207357	170.468406
23770	9.599947	-0.105899	-2.182304	0.006399	0.006719	0.032746	1.000000	-0.000002	0.000024	0.000019	-177.026225	-77.207467	170.470777
23771	9.596853	-0.082698	-2.187213	0.014626	0.029078	0.030547	1.000000	-0.000032	0.000034	0.000028	-177.025900	-77.208685	170.467262
23772	9.627481	-0.126744	-2.174596	-0.009399	-0.012074	0.058133	1.000000	0.000010	0.000009	0.000027	-177.022141	-77.207070	170.466161
23773	9.600232	-0.107228	-2.180985	0.004946	0.005694	0.032748	1.000000	-0.000012	0.000029	0.000024	-177.021804	-77.207849	170.464774
23774	9.603551	-0.131244	-2.175028	-0.004257	-0.017348	0.034944	1.000000	-0.000021	0.000024	0.000029	-177.019791	-77.207873	170.461858
23775	9.603613	-0.131732	-2.174724	-0.004746	-0.017693	0.034943	1.000000	0.000000	0.000008	0.000026	-177.017378	-77.206199	170.462954
23776	9.626652	-0.110218	-2.202288	0.019329	0.001533	0.063257	1.000000	-0.000022	0.000028	0.000023	-177.018337	-77.206800	170.463009
23777	9.626772	-0.110572	-2.201748	0.018842	0.001191	0.063258	1.000000	-0.000022	0.000028	0.000023	-177.019265	-77.207441	170.462268
23778	9.630048	-0.134535	-2.195960	0.009641	-0.021854	0.065450	1.000000	-0.000019	0.000007	0.000026	-177.019308	-77.205584	170.461631
23779	9.600776	-0.109731	-2.178464	0.002006	0.003644	0.032750	1.000000	-0.000023	0.000045	0.000027	-177.018209	-77.208103	170.459460
23780	9.625000	-0.106511	-2.176658	-0.004607	0.007885	0.055936	1.000000	-0.000000	0.000007	0.000016	-177.021200	-77.206332	170.464109
23781	9.582132	-0.142817	-2.197129	0.020427	-0.032043	0.019077	1.000000	-0.000003	0.000040	0.000023	-177.020047	-77.208427	170.463168
23782	9.625235	-0.107262	-2.175584	-0.005577	0.007199	0.055936	1.000000	-0.000002	0.000024	0.000019	-177.020985	-77.208537	170.465538
23783	9.575024	-0.109567	-2.154049	-0.015789	0.005416	0.002237	1.000000	-0.000020	0.000018	0.000025	-177.021494	-77.207953	170.465605
23784	9.599223	-0.106342	-2.152350	-0.022405	0.009653	0.025423	1.000000	-0.000011	0.000023	0.000019	-177.023700	-77.207983	170.468130
23785	9.625477	-0.108308	-2.174460	-0.007057	0.006172	0.055936	1.000000	-0.000010	0.000012	0.000020	-177.025445	-77.206751	170.470767
23786	9.577306	-0.115810	-2.176804	0.004705	-0.003320	0.009565	1.000000	-0.000020	0.000018	0.000025	-177.025948	-77.206123	170.470477
23787	9.601505	-0.112667	-2.175099	-0.001906	0.000911	0.032750	1.000000	-0.000021	0.000024	0.000029	-177.023966	-77.206204	170.468139
23788	9.625733	-0.109584	-2.173265	-0.008529	0.005143	0.055936	1.000000	0.000008	0.000030	0.000024	-177.021124	-77.207047	170.467728
23789	9.601716	-0.113591	-2.174122	-0.002887	0.000227	0.032750	1.000000	-0.000021	0.000018	0.000025	-177.021653	-77.206443	170.468086
23790	9.627998	-0.115627	-2.196120	0.012460	-0.003256	0.063268	1.000000	-0.000012	0.000029	0.000024	-177.021347	-77.207124	170.467988
23791	9.601898	-0.114457	-2.173271	-0.003873	-0.000456	0.032750	1.000000	-0.000010	0.000014	0.000031	-177.017630	-77.205998	170.465206
23792	9.631370	-0.140127	-2.189804	0.002776	-0.026649	0.065443	1.000000	-0.000003	0.000034	0.000018	-177.019026	-77.207337	170.467922
23793	9.604203	-0.120551	-2.195961	0.017122	-0.008851	0.040085	1.000000	-0.000021	0.000030	0.000034	-177.014523	-77.208054	170.463090
23794	9.600167	-0.110699	-2.147917	-0.027316	0.006228	0.025413	1.000000	-0.000001	0.000025	0.000030	-177.009980	-77.208239	170.459865
23795	9.626478	-0.112830	-2.169794	-0.011987	0.002744	0.055933	1.000000	-0.000032	0.000034	0.000028	-177.009706	-77.209344	170.458268
23796	9.601471	-0.130070	-2.117757	-0.058976	-0.009457	0.020242	1.000000	-0.000019	0.000008	0.000037	-177.004276	-77.207560	170.452044
23797	9.604619	-0.122621	-2.194025	0.015154	-0.010215	0.040087	1.000000	-0.000003	0.000040	0.000023	-177.003159	-77.209632	170.452379
23798	9.623583	-0.090714	-2.173917	-0.004764	0.024426	0.053765	1.000000	-0.000010	0.000008	0.000026	-177.001943	-77.207855	170.451594
23799	9.597438	-0.089402	-2.151249	-0.021079	0.027234	0.023242	1.000000	-0.000011	0.000017	0.000014	-177.006543	-77.207265	170.454716
23800	9.602762	-0.118600	-2.169226	-0.008290	-0.003527	0.032747	1.000000	-0.000020	0.000019	0.000035	-177.001571	-77.206711	170.448836
23801	9.625860	-0.097152	-2.196753	0.015745	0.015694	0.061108	1.000000	-0.000021	0.000018	0.000025	-177.002104	-77.206166	170.449024
23802	9.629091	-0.121181	-2.191021	0.006562	-0.007361	0.063271	1.000000	-0.000020	0.000013	0.000031	-176.999647	-77.204960	170.445771
23803	9.602969	-0.119981	-2.168235	-0.009751	-0.004555	0.032745	1.000000	0.000008	0.000024	0.000019	-176.999306	-77.205162	170.448062
23804	9.627195	-0.116791	-2.166402	-0.016395	-0.000340	0.055927	1.000000	-0.000031	0.000028	0.000023	-177.001541	-77.205683	170.448279
23805	9.620955	-0.069879	-2.176857	0.000492	0.044747	0.051610	1.000000	-0.000011	0.000017	0.000014	-177.006195	-77.205106	170.452563
23806	9.605347	-0.126114	-2.190636	0.010751	-0.013282	0.040089	1.000000	-0.000012	0.000029	0.000024	-177.005890	-77.205788	170.452464
23807	9.622231	-0.088973	-2.146766	-0.031143	0.029052	0.046422	1.000000	-0.000021	0.000018	0.000025	-177.006362	-77.205223	170.451209
23808	9.581408	-0.130474	-2.191142	0.015934	-0.018517	0.016907	1.000000	-0.000021	0.000024	0.000029	-177.004361	-77.205247	170.448299
23809	9.602475	-0.103778	-2.194739	0.017986	0.008407	0.037936	1.000000	-0.000012	0.000029	0.000024	-177.004062	-77.206029	170.447907
23810	9.624601	-0.095304	-2.169207	-0.010638	0.020319	0.053770	1.000000	-0.000030	0.000016	0.000014	-177.011325	-77.205248	170.453376
23811	9.605815	-0.128106	-2.188470	0.008305	-0.014990	0.040089	1.000000	0.000008	0.000027	0.000041	-177.000085	-77.205511	170.445455
23812	9.624801	-0.096345	-2.168277	-0.011640	0.019634	0.053770	1.000000	-0.000031	0.000028	0.000023	-177.002324	-77.206033	170.445674
23813	9.606019	-0.128933	-2.187526	0.007324	-0.015673	0.040088	1.000000	-0.000011	0.000017	0.000014	-177.007052	-77.205435	170.450675
23814	9.600895	-0.100444	-2.168655	-0.006459	0.014403	0.030589	1.000000	-0.000013	0.000040	0.000022	-177.007203	-77.207346	170.450919
23815	9.630377	-0.126074	-2.185087	0.000191	-0.011815	0.063269	1.000000	-0.000021	0.000018	0.000025	-177.007740	-77.206826	170.450557
23816	9.630496	-0.126453	-2.184539	-0.000302	-0.012157	0.063269	1.000000	-0.000013	0.000040	0.000022	-177.007891	-77.208737	170.450801
23817	9.623268	-0.092831	-2.141947	-0.036044	0.025611	0.046415	1.000000	-0.000010	0.000012	0.000020	-177.009678	-77.207626	170.453031
23818	9.606568	-0.130688	-2.185007	0.004896	-0.017387	0.040087	1.000000	-0.000022	0.000028	0.000023	-177.010647	-77.208228	170.453092
23819	9.604580	-0.125829	-2.160754	-0.017552	-0.010035	0.032730	1.000000	-0.000011	0.000023	0.000019	-177.012870	-77.208345	170.455410
23820	9.630903	-0.127849	-2.182664	-0.002247	-0.013532	0.063267	1.000000	-0.000012	0.000029	0.000024	-177.012568	-77.209027	170.455312
23821	9.604782	-0.126498	-2.159817	-0.018524	-0.010724	0.032727	1.000000	-0.000011	0.000017	0.000014	-177.017392	-77.208480	170.461941
23822	9.631082	-0.128589	-2.181831	-0.003221	-0.014223	0.063265	1.000000	-0.000030	0.000024	0.000040	-177.011187	-77.208499	170.453600
23823	9.603903	-0.109027	-2.188226	0.011160	0.003617	0.037949	1.000000	-0.000021	0.000018	0.000025	-177.011665	-77.208020	170.452459
23824	9.607127	-0.132968	-2.182410	0.001995	-0.019446	0.040084	1.000000	-0.000011	0.000023	0.000019	-177.013875	-77.208050	170.454987
23825	9.628206	-0.106267	-2.186024	0.004014	0.007469	0.061130	1.000000	-0.000011	0.000024	0.000030	-177.010545	-77.208264	170.451088
23826	9.623055	-0.077959	-2.167280	-0.009779	0.037542	0.051636	1.000000	-0.000011	0.000018	0.000025	-177.009788	-77.207717	170.450648
23827	9.630505	-0.112390	-2.208870	0.025004	-0.000908	0.068494	1.000000	-0.000012	0.000035	0.000028	-177.006949	-77.209100	170.447497
23828	9.580272	-0.114677	-2.187336	0.014906	-0.002621	0.014772	1.000000	-0.000021	0.000018	0.000025	-177.007466	-77.208474	170.447217
23829	9.607619	-0.135019	-2.180118	-0.000440	-0.021155	0.040081	1.000000	-0.000022	0.000027	0.000013	-177.013955	-77.208990	170.453518
23830	9.628689	-0.108149	-2.183800	0.001550	0.005757	0.061132	1.000000	-0.000010	0.000012	0.000020	-177.015711	-77.207791	170.455704
23831	9.604640	-0.111966	-2.184839	0.007244	0.000883	0.037953	1.000000	-0.000021	0.000022	0.000019	-177.019300	-77.207753	170.459980
23832	9.605759	-0.130667	-2.155217	-0.023884	-0.014495	0.032711	1.000000	-0.000011	0.000023	0.000019	-177.021512	-77.207783	170.462509
23833	9.626835	-0.103928	-2.158875	-0.021914	0.012419	0.053764	1.000000	-0.000011	0.000018	0.000025	-177.020707	-77.207154	170.461834
23834	9.607024	-0.118198	-2.207331	0.027721	-0.007824	0.045323	1.000000	-0.000022	0.000028	0.000023	-177.021681	-77.207756	170.461899
23835	9.629149	-0.110045	-2.181680	-0.000932	0.004048	0.061133	1.000000	-0.000011	0.000025	0.000040	-177.012887	-77.207938	170.452666
23836	9.580993	-0.117539	-2.184023	0.010962	-0.005340	0.014776	1.000000	-0.000011	0.000017	0.000014	-177.017611	-77.207316	170.457821
23837	9.608311	-0.138057	-2.176876	-0.004378	-0.023888	0.040074	1.000000	-0.000011	0.000020	0.000036	-177.011423	-77.206898	170.452353
23838	9.602131	-0.091348	-2.187415	0.012453	0.021225	0.035837	1.000000	-0.000010	0.000012	0.000020	-177.013181	-77.205699	170.454540
23839	9.608432	-0.138827	-2.176292	-0.005359	-0.024570	0.040071	1.000000	-0.000011	0.000017	0.000014	-177.017854	-77.205093	170.459088
23840	9.605408	-0.115539	-2.181272	0.002809	-0.002183	0.037955	1.000000	-0.000012	0.000029	0.000024	-177.017554	-77.205774	170.458991
23841	9.606536	-0.134384	-2.151525	-0.028316	-0.017570	0.032694	1.000000	-0.000002	0.000030	0.000024	-177.016005	-77.206504	170.459382
23842	9.602516	-0.092907	-2.185659	0.010477	0.019864	0.035842	1.000000	-0.000011	0.000020	0.000036	-177.009773	-77.206029	170.453349
23843	9.631929	-0.118569	-2.202328	0.017088	-0.006371	0.068509	1.000000	-0.000011	0.000011	0.000009	-177.016961	-77.204737	170.460641
23844	9.605777	-0.117238	-2.179559	0.000830	-0.003546	0.037955	1.000000	-0.000021	0.000030	0.000034	-177.012459	-77.205413	170.455113
23845	9.605876	-0.117757	-2.179095	0.000342	-0.003888	0.037955	1.000000	-0.000001	0.000019	0.000025	-177.010425	-77.204966	170.454618
23846	9.606953	-0.136527	-2.149525	-0.030775	-0.019279	0.032684	1.000000	-0.000031	0.000022	0.000018	-177.015189	-77.204838	170.457472
23847	9.627053	-0.091304	-2.182367	0.001802	0.022675	0.059024	1.000000	-0.000021	0.000018	0.000025	-177.015655	-77.204206	170.456840
23848	9.613455	-0.152760	-2.220109	0.034145	-0.043000	0.054821	1.000000	-0.000011	0.000018	0.000025	-177.014903	-77.203658	170.456401
23849	9.628201	-0.110589	-2.152442	-0.029809	0.006942	0.053749	1.000000	-0.000021	0.000024	0.000029	-177.012816	-77.203674	170.452634
23850	9.606269	-0.119663	-2.177255	-0.002123	-0.005588	0.037954	1.000000	-0.000010	0.000012	0.000020	-177.014575	-77.202475	170.454821
23851	9.603260	-0.096348	-2.182237	0.006048	0.016803	0.035852	1.000000	-0.000022	0.000033	0.000017	-177.018476	-77.203720	170.457618
23852	9.628450	-0.111634	-2.151277	-0.031279	0.005913	0.053745	1.000000	-0.000010	0.000008	0.000026	-177.017270	-77.201943	170.456837
23853	9.630619	-0.117308	-2.174799	-0.007675	-0.003637	0.061130	1.000000	-0.000030	0.000018	0.000035	-177.043878	-77.214998	170.509715
23854	9.601325	-0.092545	-2.157589	-0.015283	0.021924	0.028476	1.000000	-0.000000	0.000008	0.000026	-177.041476	-77.213338	170.508911
23855	9.628598	-0.113106	-2.150535	-0.030613	0.003337	0.053748	1.000000	-0.000021	0.000018	0.000025	-177.042007	-77.212807	170.508350
23856	9.630813	-0.118542	-2.173874	-0.009127	-0.004676	0.061128	1.000000	-0.000022	0.000027	0.000013	-177.048550	-77.213375	170.514158
23857	9.584783	-0.130968	-2.200002	0.024788	-0.021674	0.022156	1.000000	-0.000011	0.000018	0.000025	-177.047838	-77.212818	170.514993
23858	9.633138	-0.124333	-2.196716	0.011863	-0.013031	0.068510	1.000000	-0.000022	0.000033	0.000017	-177.051870	-77.214038	170.518175
23859	9.585009	-0.131571	-2.198980	0.023814	-0.022358	0.022157	1.000000	-0.000011	0.000023	0.000019	-177.054071	-77.214076	170.520400
23860	9.604943	-0.118218	-2.149752	-0.026839	-0.002885	0.030564	1.000000	-0.000019	0.000008	0.000036	-177.048743	-77.212333	170.514327
23861	9.604048	-0.100161	-2.178592	0.003278	0.011852	0.035860	1.000000	-0.000022	0.000027	0.000013	-177.055179	-77.212888	170.519626
23862	9.602018	-0.095307	-2.154385	-0.019182	0.019168	0.028475	1.000000	-0.000001	0.000019	0.000025	-177.053233	-77.212456	170.519164
23863	9.628369	-0.097434	-2.176287	-0.003933	0.015654	0.059037	1.000000	-0.000012	0.000029	0.000024	-177.052936	-77.213114	170.519277
23864	9.611687	-0.135240	-2.219373	0.037122	-0.027244	0.052722	1.000000	-0.000021	0.000018	0.000025	-177.053544	-77.212527	170.519144
23865	9.600167	-0.091424	-2.129315	-0.042618	0.025798	0.021085	1.000000	-0.000011	0.000024	0.000030	-177.050246	-77.212698	170.514743
23866	9.607598	-0.125835	-2.171035	-0.007790	-0.012611	0.037945	1.000000	-0.000011	0.000018	0.000025	-177.049578	-77.212189	170.514446
23867	9.628725	-0.099125	-2.174637	-0.005882	0.014275	0.059039	1.000000	-0.000011	0.000023	0.000019	-177.051782	-77.212239	170.516646
23868	9.602552	-0.097701	-2.151896	-0.022109	0.017103	0.028472	1.000000	-0.000011	0.000017	0.000014	-177.056593	-77.211656	170.521945
23869	9.604737	-0.103331	-2.175408	-0.000621	0.009101	0.035864	1.000000	0.000000	0.000010	0.000037	-177.048644	-77.210083	170.515456
23870	9.605770	-0.122355	-2.145818	-0.031705	-0.006332	0.030548	1.000000	-0.000022	0.000034	0.000028	-177.047198	-77.211377	170.513042
23871	9.607082	-0.109576	-2.198190	0.020381	0.000754	0.043258	1.000000	-0.000002	0.000025	0.000030	-177.042686	-77.211619	170.510280
23872	9.630123	-0.119855	-2.143329	-0.038912	-0.002545	0.053719	1.000000	-0.000022	0.000028	0.000023	-177.043752	-77.212261	170.510492
23873	9.605178	-0.105252	-2.173367	-0.002564	0.007723	0.035865	1.000000	-0.000012	0.000029	0.000024	-177.043442	-77.212976	170.509849
23874	9.605262	-0.105598	-2.172979	-0.003051	0.007377	0.035865	1.000000	-0.000020	0.000012	0.000020	-177.046567	-77.211736	170.512346
23875	9.608473	-0.129444	-2.166948	-0.012162	-0.015711	0.037936	1.000000	-0.000024	0.000054	0.000015	-177.051416	-77.215400	170.515367
23876	9.632728	-0.126301	-2.164935	-0.018892	-0.011582	0.061109	1.000000	-0.000010	0.000008	0.000026	-177.050294	-77.213661	170.514727
23877	9.605560	-0.106530	-2.171616	-0.004519	0.006347	0.035865	1.000000	-0.000000	0.000007	0.000016	-177.053304	-77.211889	170.519764
23878	9.632838	-0.127051	-2.164398	-0.019872	-0.012273	0.061106	1.000000	-0.000022	0.000034	0.000028	-177.051860	-77.213182	170.517352
23879	9.605752	-0.107233	-2.170731	-0.005489	0.005658	0.035865	1.000000	-0.000011	0.000017	0.000014	-177.056600	-77.212618	170.522590
23880	9.605848	-0.107544	-2.170290	-0.005976	0.005312	0.035865	1.000000	-0.000012	0.000029	0.000024	-177.056389	-77.213338	170.522638
23881	9.632239	-0.109645	-2.192076	0.009244	0.001790	0.066440	1.000000	-0.000012	0.000029	0.000024	-177.056107	-77.213972	170.522815
23882	9.603897	-0.103195	-2.145627	-0.028934	0.012276	0.028462	1.000000	-0.000020	0.000007	0.000026	-177.056266	-77.212154	170.522342
23883	9.633338	-0.128969	-2.162058	-0.022318	-0.014001	0.061098	1.000000	-0.000004	0.000046	0.000027	-177.052651	-77.214837	170.519709
23884	9.606284	-0.109258	-2.168273	-0.007935	0.003936	0.035864	1.000000	-0.000021	0.000018	0.000025	-177.053266	-77.214249	170.519581
23885	9.606424	-0.109494	-2.167643	-0.008419	0.003593	0.035864	1.000000	-0.000024	0.000048	0.000010	-177.060622	-77.217288	170.525202
23886	9.629762	-0.087960	-2.194826	0.015421	0.022814	0.064384	1.000000	-0.000010	0.000009	0.000037	-177.054021	-77.215622	170.518965
23887	9.606595	-0.110418	-2.166837	-0.009386	0.002901	0.035863	1.000000	-0.000011	0.000018	0.000025	-177.053317	-77.215152	170.519013
23888	9.611883	-0.139531	-2.184822	0.003485	-0.027844	0.045325	1.000000	-0.000021	0.000022	0.000019	-177.056901	-77.215143	170.521855
23889	9.606771	-0.111029	-2.166025	-0.010374	0.002213	0.035862	1.000000	-0.000021	0.000022	0.000019	-177.060445	-77.215044	170.525870
23890	9.585815	-0.138467	-2.161522	-0.013209	-0.025346	0.014742	1.000000	-0.000012	0.000035	0.000028	-177.057724	-77.216415	170.523292
23891	9.633291	-0.113513	-2.187251	0.004359	-0.001661	0.066443	1.000000	-0.000011	0.000023	0.000019	-177.059923	-77.216477	170.525342
23892	9.607118	-0.112164	-2.164426	-0.011834	0.001179	0.035861	1.000000	-0.000012	0.000029	0.000024	-177.059714	-77.217196	170.525390
23893	9.609350	-0.117871	-2.187824	0.009664	-0.006810	0.043272	1.000000	0.000000	0.000010	0.000037	-177.051725	-77.215694	170.517768
23894	9.631408	-0.109755	-2.162208	-0.019059	0.004944	0.059031	1.000000	-0.000022	0.000033	0.000017	-177.055764	-77.216914	170.520955
23895	9.609543	-0.118573	-2.186940	0.008695	-0.007499	0.043272	1.000000	-0.000011	0.000017	0.000014	-177.060492	-77.216352	170.525789
23896	9.582468	-0.098707	-2.193336	0.023085	0.010457	0.018056	1.000000	-0.000012	0.000029	0.000024	-177.060284	-77.217072	170.525837
23897	9.608841	-0.100785	-2.215262	0.038292	0.006926	0.048644	1.000000	-0.000010	0.000012	0.000020	-177.062081	-77.215877	170.528642
23898	9.609796	-0.119555	-2.185774	0.007230	-0.008533	0.043273	1.000000	-0.000021	0.000022	0.000019	-177.065667	-77.215868	170.531486
23899	9.612028	-0.125106	-2.209200	0.028715	-0.016517	0.050689	1.000000	-0.000010	0.000014	0.000031	-177.061960	-77.214786	170.527974
23900	9.607819	-0.115379	-2.161144	-0.015711	-0.001581	0.035855	1.000000	-0.000013	0.000041	0.000033	-177.056727	-77.216809	170.522768
23901	9.632089	-0.112229	-2.159047	-0.022484	0.002524	0.059025	1.000000	-0.000012	0.000027	0.000002	-177.067445	-77.217318	170.535248
23902	9.607179	-0.097349	-2.189241	0.013877	0.012848	0.041235	1.000000	-0.000030	0.000017	0.000024	-177.069348	-77.216653	170.535291
23903	9.634401	-0.117871	-2.182122	-0.001480	-0.005809	0.066442	1.000000	-0.000010	0.000012	0.000020	-177.071142	-77.215551	170.537494
23904	9.608183	-0.116589	-2.159458	-0.017656	-0.002964	0.035852	1.000000	-0.000011	0.000024	0.000030	-177.067968	-77.215693	170.534572
23906	9.596902	-0.112346	-2.186017	0.022550	-0.003575	9.874028	1.000000	-0.000032	0.000042	0.000054	-177.054250	-77.217753	170.517815
23907	9.607561	-0.099417	-2.187472	0.011946	0.011469	0.041239	1.000000	-0.000020	0.000012	0.000020	-177.057385	-77.216514	170.520318
23908	9.631774	-0.096338	-2.185626	0.005190	0.015565	0.064409	1.000000	-0.000012	0.000029	0.000024	-177.057111	-77.217321	170.520191
23909	9.610793	-0.123864	-2.181142	0.002390	-0.011982	0.043271	1.000000	-0.000022	0.000030	0.000034	-177.052708	-77.218037	170.514810
23910	9.607865	-0.100634	-2.186081	0.010494	0.010436	0.041242	1.000000	-0.000011	0.000017	0.000014	-177.057448	-77.217418	170.519748
23911	9.632056	-0.097597	-2.184326	0.003719	0.014530	0.064411	1.000000	-0.000010	0.000014	0.000031	-177.053821	-77.216329	170.516484
23912	9.638173	-0.145140	-2.173231	-0.013968	-0.031337	0.068466	1.000000	-0.000021	0.000021	0.000008	-177.062860	-77.216188	170.525440
23913	9.610253	-0.106699	-2.208850	0.030992	0.001769	0.048671	1.000000	-0.000011	0.000018	0.000025	-177.062199	-77.215678	170.525146
23914	9.587013	-0.129103	-2.180964	0.006230	-0.018137	0.020101	1.000000	-0.000009	0.000003	0.000032	-177.058030	-77.213322	170.520970
23915	9.606028	-0.097459	-2.160750	-0.013925	0.016348	0.033817	1.000000	-0.000012	0.000035	0.000028	-177.055311	-77.214693	170.518390
23916	9.606158	-0.097858	-2.160153	-0.014417	0.016004	0.033817	1.000000	-0.000031	0.000028	0.000023	-177.057630	-77.215229	170.519169
23917	9.613639	-0.132024	-2.201776	0.020442	-0.022367	0.050698	1.000000	-0.000002	0.000028	0.000013	-177.061617	-77.215952	170.524643
23918	9.608548	-0.103602	-2.182938	0.006587	0.007682	0.041248	1.000000	-0.000011	0.000018	0.000025	-177.060883	-77.215498	170.523872
23919	9.634929	-0.105856	-2.204874	0.021769	0.004138	0.071848	1.000000	-0.000011	0.000020	0.000036	-177.054746	-77.215061	170.517980
23920	9.638042	-0.130024	-2.199023	0.012693	-0.018971	0.073866	1.000000	-0.000002	0.000030	0.000024	-177.053207	-77.215862	170.518018
23921	9.635154	-0.106802	-2.203845	0.020793	0.003447	0.071850	1.000000	-0.000022	0.000028	0.000023	-177.054285	-77.216505	170.518237
23922	9.587809	-0.132536	-2.177257	0.002355	-0.020889	0.020097	1.000000	-0.000020	0.000013	0.000030	-177.051896	-77.215330	170.515156
23923	9.636144	-0.126174	-2.173949	-0.010739	-0.012381	0.066431	1.000000	0.000008	0.000024	0.000019	-177.051632	-77.215551	170.517489
23924	9.609116	-0.106313	-2.180304	0.003665	0.005613	0.041251	1.000000	-0.000031	0.000028	0.000023	-177.053967	-77.216121	170.518435
23925	9.611368	-0.111825	-2.203738	0.025146	-0.002359	0.048688	1.000000	-0.000010	0.000008	0.000026	-177.052857	-77.214381	170.517800
23926	9.614457	-0.135820	-2.197968	0.016088	-0.025470	0.050699	1.000000	-0.000013	0.000034	0.000018	-177.055547	-77.215749	170.520482
23927	9.607200	-0.102290	-2.155307	-0.019751	0.012201	0.033813	1.000000	-0.000011	0.000018	0.000025	-177.054889	-77.215239	170.520189
23928	9.611650	-0.113000	-2.202447	0.023698	-0.003392	0.048691	1.000000	-0.000021	0.000024	0.000029	-177.052961	-77.215303	170.517777
23929	9.611736	-0.113449	-2.202048	0.023211	-0.003737	0.048692	1.000000	-0.000011	0.000018	0.000025	-177.052304	-77.214793	170.517484
23930	9.609637	-0.108666	-2.177891	0.000761	0.003543	0.041252	1.000000	-0.000021	0.000022	0.000019	-177.055807	-77.214811	170.519704
23931	9.611917	-0.114160	-2.201223	0.022242	-0.004425	0.048694	1.000000	-0.000021	0.000024	0.000029	-177.053924	-77.214875	170.516955
23932	9.609819	-0.109427	-2.177051	-0.000218	0.002855	0.041252	1.000000	0.000008	0.000018	0.000015	-177.056095	-77.214410	170.521731
23933	9.607709	-0.104857	-2.152913	-0.022672	0.010130	0.033809	1.000000	-0.000020	0.000020	0.000046	-177.045772	-77.213968	170.510418
23934	9.615184	-0.139278	-2.194568	0.012191	-0.028223	0.050697	1.000000	-0.000013	0.000034	0.000018	-177.048449	-77.215221	170.513258
23935	9.610127	-0.110845	-2.175619	-0.001686	0.001822	0.041253	1.000000	-0.000002	0.000024	0.000019	-177.049470	-77.215366	170.515761
23936	9.610224	-0.111181	-2.175170	-0.002191	0.001482	0.041253	1.000000	-0.000012	0.000023	0.000019	-177.051696	-77.215321	170.518333
23937	9.586177	-0.114918	-2.176275	0.003645	-0.003276	0.018088	1.000000	-0.000021	0.000018	0.000024	-177.052327	-77.214734	170.518214
23938	9.636752	-0.113664	-2.196503	0.012488	-0.002417	0.071865	1.000000	-0.000003	0.000040	0.000023	-177.051228	-77.216818	170.518483
23939	9.610518	-0.112450	-2.173806	-0.003641	0.000444	0.041252	1.000000	0.000000	0.000004	0.000032	-177.045871	-77.214575	170.514708
23940	9.612772	-0.118038	-2.197279	0.017833	-0.007517	0.048701	1.000000	-0.000031	0.000028	0.000023	-177.048233	-77.215107	170.516048
23941	9.637023	-0.114925	-2.195246	0.011018	-0.003455	0.071866	1.000000	-0.000002	0.000028	0.000013	-177.052218	-77.215830	170.521520
23942	9.610806	-0.113464	-2.172480	-0.005101	-0.000591	0.041252	1.000000	-0.000012	0.000023	0.000019	-177.054450	-77.215933	170.523768
23943	9.612302	-0.100530	-2.224988	0.046915	0.006606	0.054166	1.000000	-0.000021	0.000019	0.000035	-177.049606	-77.215419	170.518053
23944	9.613967	-0.138063	-2.166251	-0.014649	-0.024056	0.043239	1.000000	-0.000002	0.000030	0.000024	-177.048090	-77.216177	170.518471
23945	9.613297	-0.119936	-2.194882	0.015399	-0.009241	0.048704	1.000000	-0.000012	0.000023	0.000019	-177.050400	-77.216246	170.521148
23946	9.611170	-0.115115	-2.170782	-0.007064	-0.001971	0.041250	1.000000	-0.000020	0.000012	0.000020	-177.053508	-77.214949	170.524191
23947	9.611288	-0.115468	-2.170243	-0.007550	-0.002317	0.041250	1.000000	-0.000023	0.000045	0.000027	-177.052531	-77.217473	170.522126
23948	9.586516	-0.100702	-2.200276	0.028823	0.008105	0.023559	1.000000	0.000008	0.000018	0.000015	-177.054714	-77.216984	170.527058
23949	9.611519	-0.116274	-2.169175	-0.008533	-0.003005	0.041249	1.000000	-0.000022	0.000030	0.000034	-177.050323	-77.217700	170.521684
23950	9.611641	-0.116779	-2.168609	-0.009033	-0.003347	0.041248	1.000000	-0.000002	0.000030	0.000024	-177.048774	-77.218415	170.521898
23951	9.611773	-0.117146	-2.168001	-0.009520	-0.003694	0.041248	1.000000	-0.000013	0.000034	0.000018	-177.051536	-77.219713	170.524916
23952	9.611894	-0.117547	-2.167446	-0.010005	-0.004038	0.041247	1.000000	-0.000011	0.000024	0.000030	-177.048324	-77.219856	170.522267
23953	9.606807	-0.089247	-2.148642	-0.023897	0.026002	0.031809	1.000000	-0.000021	0.000018	0.000024	-177.048961	-77.219270	170.522152
23954	9.614294	-0.123575	-2.190308	0.011003	-0.012338	0.048706	1.000000	-0.000003	0.000036	0.000029	-177.044847	-77.220804	170.518692
23955	9.611429	-0.100357	-2.195219	0.019076	0.010095	0.046732	1.000000	-0.000020	0.000012	0.000020	-177.047999	-77.219567	170.521208
23956	9.612289	-0.119181	-2.165604	-0.011939	-0.005419	0.041244	1.000000	-0.000023	0.000039	0.000022	-177.049466	-77.221421	170.521548
23957	9.590507	-0.128107	-2.190240	0.015890	-0.017763	0.025545	1.000000	-0.000022	0.000030	0.000034	-177.045076	-77.222137	170.516174
23958	9.631456	-0.087975	-2.144726	-0.032680	0.028667	0.054969	1.000000	-0.000009	0.000002	0.000021	-177.046433	-77.219686	170.518318
23959	9.612551	-0.120449	-2.164370	-0.013408	-0.006455	0.041242	1.000000	-0.000022	0.000028	0.000023	-177.047522	-77.220329	170.518543
23960	9.611904	-0.102423	-2.193043	0.016631	0.008376	0.046738	1.000000	-0.000011	0.000019	0.000036	-177.041352	-77.219915	170.512959
23961	9.633911	-0.094398	-2.167351	-0.012176	0.020020	0.062434	1.000000	-0.000021	0.000022	0.000018	-177.044955	-77.219908	170.515814
23962	9.615038	-0.126793	-2.186853	0.007084	-0.015092	0.048706	1.000000	-0.000012	0.000023	0.000019	-177.047215	-77.219866	170.518708
23963	9.612186	-0.103518	-2.191755	0.015151	0.007344	0.046741	1.000000	0.000008	0.000024	0.000019	-177.046948	-77.220085	170.521034
23964	9.610058	-0.098800	-2.167582	-0.007302	0.014605	0.039273	1.000000	-0.000021	0.000018	0.000024	-177.047471	-77.219488	170.520114
23965	9.613104	-0.122827	-2.161780	-0.016342	-0.008524	0.041236	1.000000	-0.000012	0.000029	0.000024	-177.047270	-77.220206	170.520162
23966	9.634385	-0.096226	-2.165163	-0.014635	0.018295	0.062434	1.000000	-0.000021	0.000018	0.000024	-177.047862	-77.219637	170.520159
23967	9.589125	-0.127037	-2.162569	-0.010949	-0.013596	0.018073	1.000000	-0.000010	0.000014	0.000031	-177.044249	-77.218547	170.516901
23968	9.612630	-0.105674	-2.189702	0.012713	0.005624	0.046746	1.000000	-0.000012	0.000035	0.000028	-177.041492	-77.219894	170.514294
23969	9.615707	-0.129757	-2.183735	0.003677	-0.017506	0.048704	1.000000	-0.000012	0.000029	0.000024	-177.041292	-77.220613	170.514343
23970	9.613574	-0.125043	-2.159562	-0.018769	-0.010253	0.041230	1.000000	-0.000001	0.000013	0.000020	-177.041825	-77.219552	170.516615
23971	9.612949	-0.106905	-2.188242	0.011256	0.004588	0.046748	1.000000	-0.000032	0.000034	0.000028	-177.041694	-77.220771	170.514388
23972	9.634996	-0.098894	-2.162323	-0.017569	0.016219	0.062432	1.000000	0.000008	0.000030	0.000024	-177.038804	-77.221611	170.513494
23973	9.586847	-0.105991	-2.164843	-0.005317	0.007124	0.016114	1.000000	-0.000032	0.000028	0.000023	-177.041188	-77.222179	170.513899
23974	9.611087	-0.103032	-2.162818	-0.012174	0.011151	0.039273	1.000000	-0.000021	0.000024	0.000029	-177.039320	-77.222245	170.511993
23975	9.613408	-0.108529	-2.186144	0.009303	0.003209	0.046751	1.000000	-0.000012	0.000023	0.000019	-177.041635	-77.222313	170.514673
23976	9.613508	-0.108968	-2.185684	0.008814	0.002866	0.046751	1.000000	-0.000002	0.000025	0.000030	-177.037124	-77.222514	170.511373
23977	9.615820	-0.114522	-2.209055	0.030291	-0.005075	0.054232	1.000000	-0.000030	0.000017	0.000024	-177.039062	-77.221852	170.511441
23978	9.614343	-0.128323	-2.155940	-0.022671	-0.013016	0.041218	1.000000	-0.000020	0.000007	0.000026	-177.039183	-77.220004	170.510756
23979	9.613726	-0.110077	-2.184669	0.007348	0.001832	0.046753	1.000000	0.000007	0.000034	0.000007	-177.044838	-77.221381	170.519015
23980	9.589747	-0.113744	-2.185513	0.013234	-0.002878	0.023595	1.000000	-0.000032	0.000040	0.000033	-177.042173	-77.223213	170.514496
23981	9.614025	-0.110768	-2.183316	0.006367	0.001142	0.046754	1.000000	-0.000002	0.000028	0.000013	-177.046160	-77.223935	170.519966
23982	9.589988	-0.114440	-2.184417	0.012261	-0.003564	0.023597	1.000000	-0.000011	0.000018	0.000025	-177.045396	-77.223414	170.518747
23983	9.611285	-0.087912	-2.187816	0.013930	0.023244	0.044814	1.000000	-0.000021	0.000024	0.000029	-177.043528	-77.223478	170.516006
23984	9.590193	-0.115264	-2.183473	0.011292	-0.004253	0.023597	1.000000	-0.000013	0.000034	0.000018	-177.046275	-77.224788	170.519332
23985	9.615134	-0.130848	-2.152256	-0.026080	-0.015438	0.041206	1.000000	-0.000021	0.000024	0.000029	-177.044407	-77.224852	170.516591
23986	9.590396	-0.116063	-2.182537	0.010318	-0.004941	0.023598	1.000000	-0.000021	0.000018	0.000024	-177.045014	-77.224250	170.516756
23987	9.615279	-0.131787	-2.151554	-0.027055	-0.016131	0.041203	1.000000	0.000009	0.000015	0.000031	-177.038819	-77.223309	170.513139
23988	9.614661	-0.113596	-2.180367	0.002941	-0.001269	0.046755	1.000000	-0.000001	0.000017	0.000004	-177.047794	-77.222638	170.524042
23989	9.590622	-0.117236	-2.181484	0.008846	-0.005972	0.023599	1.000000	-0.000022	0.000030	0.000034	-177.043414	-77.223354	170.518671
23990	9.614865	-0.114398	-2.179428	0.001966	-0.001962	0.046755	1.000000	-0.000031	0.000023	0.000029	-177.042844	-77.223334	170.516742
23991	9.590811	-0.118045	-2.180608	0.007873	-0.006662	0.023599	1.000000	-0.000011	0.000017	0.000014	-177.047676	-77.222751	170.522053
23992	9.617283	-0.120127	-2.202378	0.022940	-0.010236	0.054248	1.000000	-0.000012	0.000029	0.000024	-177.047477	-77.223383	170.522648
23993	9.615823	-0.133959	-2.148988	-0.030003	-0.018207	0.041190	1.000000	-0.000002	0.000024	0.000019	-177.048500	-77.223525	170.525148
23994	9.610100	-0.087087	-2.159221	-0.013427	0.027036	0.037335	1.000000	-0.000021	0.000024	0.000029	-177.046577	-77.223615	170.522357
23995	9.618257	-0.139910	-2.171847	-0.009007	-0.026484	0.048681	1.000000	0.000008	0.000024	0.000019	-177.046306	-77.223832	170.524677
23996	9.615458	-0.116542	-2.176696	-0.000961	-0.004031	0.046755	1.000000	-0.000022	0.000027	0.000013	-177.052765	-77.224430	170.529892
23997	9.612649	-0.093367	-2.181589	0.007078	0.018418	0.044832	1.000000	-0.000020	0.000020	0.000046	-177.042462	-77.223986	170.518584
23998	9.615639	-0.117462	-2.175848	-0.001937	-0.004721	0.046754	1.000000	-0.000012	0.000022	0.000008	-177.050186	-77.223970	170.526790
23999	9.617968	-0.122821	-2.199236	0.019539	-0.012648	0.054252	1.000000	-0.000011	0.000018	0.000025	-177.049542	-77.223458	170.526502
24000	9.612919	-0.094497	-2.180352	0.005604	0.017389	0.044834	1.000000	-0.000012	0.000029	0.000024	-177.049250	-77.224115	170.526134
24001	9.618830	-0.142273	-2.169156	-0.011931	-0.028552	0.048672	1.000000	-0.000002	0.000025	0.000030	-177.044797	-77.224328	170.523033
24002	9.615355	-0.100502	-2.203257	0.026590	0.009118	0.052336	1.000000	-0.000020	0.000012	0.000020	-177.047956	-77.223089	170.526035
24003	9.589044	-0.099072	-2.180714	0.010550	0.012010	0.021683	1.000000	0.000008	0.000024	0.000019	-177.047684	-77.223305	170.528353
24004	9.591381	-0.104635	-2.204079	0.032020	0.004090	0.029186	1.000000	-0.000030	0.000018	0.000035	-177.044093	-77.222680	170.522755
24005	9.619178	-0.144007	-2.167498	-0.013881	-0.029935	0.048665	1.000000	-0.000003	0.000040	0.000023	-177.043048	-77.224702	170.522959
24006	9.591648	-0.105371	-2.202884	0.031036	0.003406	0.029189	1.000000	-0.000032	0.000026	0.000012	-177.050834	-77.225126	170.528720
24007	9.592393	-0.124156	-2.173298	0.000069	-0.012161	0.023597	1.000000	-0.000002	0.000024	0.000019	-177.051858	-77.225267	170.531219
24008	9.643029	-0.122882	-2.193422	0.008699	-0.011409	0.077409	1.000000	-0.000022	0.000027	0.000013	-177.058463	-77.225763	170.537874
24009	9.616717	-0.121318	-2.170863	-0.007333	-0.008516	0.046749	1.000000	-0.000020	0.000012	0.000020	-177.061632	-77.224526	170.540400
24010	9.613897	-0.097922	-2.175882	0.000697	0.013939	0.044841	1.000000	-0.000031	0.000022	0.000018	-177.066538	-77.224450	170.544050
24011	9.592160	-0.106675	-2.200588	0.028592	0.001686	0.029197	1.000000	-0.000004	0.000046	0.000027	-177.062982	-77.227123	170.541625
24012	9.617041	-0.122467	-2.169366	-0.008794	-0.009551	0.046747	1.000000	0.000010	0.000009	0.000027	-177.059199	-77.225515	170.540211
24013	9.597497	-0.136497	-2.218128	0.041065	-0.029374	0.038613	1.000000	-0.000022	0.000030	0.000034	-177.054826	-77.226230	170.534843
24014	9.593112	-0.126873	-2.169964	-0.003348	-0.014570	0.023593	1.000000	-0.000003	0.000036	0.000029	-177.050732	-77.227643	170.531654
24015	9.619025	-0.110540	-2.220639	0.042176	-0.002927	0.059866	1.000000	-0.000022	0.000028	0.000023	-177.051837	-77.228287	170.531887
24016	9.616884	-0.105831	-2.196320	0.019736	0.004300	0.052356	1.000000	-0.000012	0.000029	0.000024	-177.051563	-77.229058	170.531699
24017	9.619873	-0.129862	-2.190482	0.010738	-0.018849	0.054256	1.000000	-0.000002	0.000024	0.000019	-177.052588	-77.229200	170.534199
24018	9.612518	-0.096383	-2.148036	-0.025188	0.018752	0.037331	1.000000	-0.000019	0.000001	0.000021	-177.055334	-77.226573	170.537213
24019	9.595854	-0.133770	-2.191519	0.016169	-0.023863	0.031104	1.000000	-0.000022	0.000033	0.000017	-177.059402	-77.227797	170.540417
24020	9.617859	-0.125760	-2.165544	-0.012720	-0.012315	0.046740	1.000000	0.000007	0.000030	0.000024	-177.056641	-77.228601	170.541210
24021	9.617351	-0.107631	-2.194187	0.017261	0.002576	0.052361	1.000000	-0.000021	0.000018	0.000024	-177.057301	-77.228015	170.541107
24022	9.593309	-0.111287	-2.195348	0.023202	-0.002086	0.029211	1.000000	-0.000022	0.000028	0.000023	-177.058303	-77.228617	170.540908
24023	9.615297	-0.103268	-2.169437	-0.005681	0.009456	0.044845	1.000000	-0.000022	0.000028	0.000023	-177.059410	-77.229261	170.541143
24024	9.615406	-0.103703	-2.168935	-0.006168	0.009115	0.044845	1.000000	-0.000011	0.000024	0.000030	-177.056110	-77.229399	170.537287
24025	9.641913	-0.105990	-2.190647	0.008866	0.005521	0.075515	1.000000	-0.000021	0.000024	0.000029	-177.054255	-77.229464	170.534552
24026	9.593734	-0.112898	-2.193407	0.021263	-0.003458	0.029215	1.000000	0.000008	0.000023	0.000009	-177.059380	-77.229630	170.542368
24027	9.591538	-0.108271	-2.169279	-0.001184	0.003761	0.021695	1.000000	-0.000020	0.000014	0.000041	-177.051601	-77.228536	170.533695
24028	9.620898	-0.134271	-2.185708	0.005338	-0.022636	0.054252	1.000000	-0.000012	0.000029	0.000024	-177.051302	-77.229204	170.533320
24029	9.593994	-0.114210	-2.192201	0.019797	-0.004487	0.029218	1.000000	-0.000011	0.000017	0.000014	-177.056141	-77.228620	170.538636
24030	9.618217	-0.111274	-2.190205	0.012864	-0.000517	0.052368	1.000000	-0.000021	0.000024	0.000029	-177.054237	-77.228677	170.535992
24031	9.616040	-0.106691	-2.165977	-0.009584	0.006699	0.044844	1.000000	-0.000011	0.000024	0.000030	-177.051085	-77.228816	170.533073
24032	9.620691	-0.117362	-2.213057	0.033832	-0.008764	0.059894	1.000000	-0.000011	0.000024	0.000030	-177.047841	-77.228847	170.529729
24033	9.592098	-0.111005	-2.166663	-0.004126	0.001702	0.021695	1.000000	-0.000011	0.000024	0.000030	-177.044689	-77.228985	170.526810
24034	9.591643	-0.092825	-2.195204	0.025842	0.016610	0.027343	1.000000	-0.000013	0.000034	0.000018	-177.047398	-77.230266	170.529894
24035	9.640616	-0.105153	-2.162336	-0.018005	0.009629	0.067992	1.000000	-0.000012	0.000023	0.000019	-177.049723	-77.230333	170.532578
24036	9.592448	-0.112185	-2.165051	-0.005592	0.000670	0.021694	1.000000	-0.000002	0.000031	0.000035	-177.042720	-77.231163	170.526945
24037	9.618967	-0.114504	-2.186743	0.009427	-0.002928	0.052371	1.000000	-0.000021	0.000018	0.000024	-177.043385	-77.230577	170.526846
24038	9.592643	-0.113116	-2.164138	-0.006576	-0.000016	0.021694	1.000000	-0.000002	0.000030	0.000024	-177.041824	-77.231288	170.526604
24039	9.616879	-0.110157	-2.162078	-0.013520	0.003941	0.044841	1.000000	-0.000021	0.000016	0.000014	-177.047967	-77.230631	170.532108
24040	9.592811	-0.113751	-2.163361	-0.007558	-0.000704	0.021693	1.000000	-0.000001	0.000019	0.000025	-177.045971	-77.230133	170.531550
24041	9.616500	-0.092278	-2.190327	0.015947	0.018509	0.050503	1.000000	-0.000013	0.000034	0.000018	-177.048742	-77.231430	170.534569
24042	9.619453	-0.116370	-2.184504	0.006961	-0.004645	0.052373	1.000000	-0.000021	0.000019	0.000035	-177.043806	-77.230870	170.528251
24043	9.614411	-0.088091	-2.165653	-0.006995	0.025378	0.042972	1.000000	-0.000012	0.000023	0.000019	-177.046132	-77.230937	170.530935
24044	9.593223	-0.115496	-2.161443	-0.009522	-0.002078	0.021691	1.000000	-0.000002	0.000031	0.000035	-177.039138	-77.231715	170.525586
24045	9.619727	-0.117860	-2.183220	0.005486	-0.005680	0.052373	1.000000	-0.000010	0.000008	0.000026	-177.038060	-77.229972	170.524967
24046	9.616975	-0.094572	-2.188143	0.013481	0.016792	0.050510	1.000000	-0.000013	0.000034	0.000018	-177.040756	-77.231236	170.527576
24047	9.617642	-0.113537	-2.158505	-0.017452	0.001183	0.044836	1.000000	-0.000021	0.000024	0.000029	-177.038908	-77.231301	170.524844
24048	9.614903	-0.090269	-2.163378	-0.009467	0.023655	0.042974	1.000000	-0.000012	0.000023	0.000019	-177.041224	-77.231292	170.527924
24049	9.595983	-0.122644	-2.183020	0.009990	-0.011352	0.029227	1.000000	-0.000021	0.000024	0.000029	-177.039376	-77.231357	170.525192
24050	9.623028	-0.143450	-2.175729	-0.005452	-0.030221	0.054232	1.000000	-0.000011	0.000012	0.000020	-177.041212	-77.230191	170.527607
24051	9.593326	-0.099929	-2.187525	0.017502	0.010776	0.027370	1.000000	-0.000003	0.000037	0.000039	-177.031728	-77.231702	170.519231
24052	9.593972	-0.119004	-2.157922	-0.013427	-0.004834	0.021685	1.000000	-0.000011	0.000017	0.000014	-177.036493	-77.231112	170.524157
24053	9.617679	-0.097597	-2.184914	0.010052	0.014378	0.050518	1.000000	-0.000002	0.000031	0.000035	-177.029525	-77.231973	170.518415
24054	9.618321	-0.116675	-2.155309	-0.023274	-0.001043	0.044824	1.000000	-0.000012	0.000023	0.000019	-177.037389	-77.218084	170.507474
24055	9.620691	-0.122170	-2.178731	-0.001812	-0.008945	0.052372	1.000000	-0.000010	0.000014	0.000031	-177.033811	-77.216961	170.504204
24056	9.617917	-0.098927	-2.183807	0.006189	0.013527	0.050522	1.000000	-0.000020	0.000012	0.000020	-177.036930	-77.215729	170.506432
24057	9.615690	-0.094138	-2.159711	-0.016257	0.020736	0.042972	1.000000	-0.000021	0.000022	0.000018	-177.040568	-77.215694	170.509281
24058	9.596763	-0.126501	-2.179367	0.003215	-0.014267	0.029228	1.000000	-0.000012	0.000024	0.000030	-177.037391	-77.215865	170.506397
24059	9.618703	-0.118606	-2.153500	-0.025717	-0.002774	0.044817	1.000000	-0.000012	0.000023	0.000019	-177.039727	-77.215902	170.509058
24060	9.618293	-0.100363	-2.182086	0.004229	0.012147	0.050525	1.000000	-0.000012	0.000029	0.000024	-177.039490	-77.216592	170.508969
24061	9.621228	-0.124298	-2.176238	-0.004747	-0.011017	0.052369	1.000000	-0.000022	0.000027	0.000012	-177.046087	-77.217137	170.514784
24062	9.592077	-0.099172	-2.158927	-0.012223	0.014729	0.019828	1.000000	-0.000002	0.000025	0.000030	-177.041572	-77.217285	170.511157
24063	9.597280	-0.128369	-2.176983	0.000756	-0.015986	0.029226	1.000000	-0.000021	0.000018	0.000024	-177.042255	-77.216670	170.511042
24064	9.620971	-0.106860	-2.204139	0.024214	0.003219	0.058084	1.000000	-0.000020	0.000012	0.000020	-177.045391	-77.215451	170.513242
24065	9.618727	-0.102134	-2.180088	0.001768	0.010423	0.050528	1.000000	-0.000021	0.000018	0.000024	-177.046075	-77.214836	170.513127
24066	9.596999	-0.110865	-2.205010	0.029720	-0.001747	0.034945	1.000000	-0.000013	0.000035	0.000028	-177.043356	-77.216143	170.510635
24067	9.616605	-0.098018	-2.155459	-0.021175	0.017282	0.042969	1.000000	-0.000019	0.000002	0.000032	-177.040642	-77.213718	170.507222
24068	9.597159	-0.111793	-2.204266	0.028731	-0.002433	0.034948	1.000000	-0.000023	0.000039	0.000022	-177.042173	-77.215526	170.507717
24069	9.619117	-0.103902	-2.178284	-0.000215	0.009045	0.050529	1.000000	-0.000001	0.000019	0.000025	-177.040250	-77.215056	170.507223
24070	9.619204	-0.104376	-2.177877	-0.000694	0.008698	0.050530	1.000000	-0.000021	0.000024	0.000029	-177.038391	-77.215173	170.504578
24071	9.622091	-0.128490	-2.172172	-0.009662	-0.014470	0.052361	1.000000	-0.000011	0.000018	0.000025	-177.037773	-77.214630	170.504274
24072	9.626783	-0.139109	-2.219365	0.033738	-0.029905	0.067488	1.000000	-0.000021	0.000019	0.000035	-177.032988	-77.214011	170.498960
24073	9.619438	-0.105840	-2.176770	-0.002185	0.007662	0.050530	1.000000	-0.000011	0.000018	0.000025	-177.032370	-77.213469	170.498657
24074	9.617689	-0.119826	-2.123571	-0.055049	-0.000415	0.037227	1.000000	-0.000011	0.000018	0.000025	-177.031671	-77.212960	170.497732
24075	9.595480	-0.110032	-2.177569	0.003345	0.002705	0.027390	1.000000	-0.000022	0.000035	0.000039	-177.024818	-77.214295	170.489723
24076	9.622047	-0.112424	-2.199160	0.018293	-0.000915	0.058098	1.000000	-0.000001	0.000019	0.000025	-177.022878	-77.213809	170.489479
24077	9.619855	-0.107772	-2.174831	-0.004152	0.006282	0.050531	1.000000	-0.000023	0.000039	0.000022	-177.024447	-77.215655	170.490029
24078	9.598134	-0.116376	-2.199780	0.023825	-0.005868	0.034960	1.000000	-0.000011	0.000012	0.000020	-177.026228	-77.214490	170.491382
24079	9.595905	-0.111772	-2.175609	0.001383	0.001330	0.027391	1.000000	-0.000022	0.000030	0.000034	-177.021889	-77.215175	170.486005
24080	9.620145	-0.109046	-2.173485	-0.005634	0.005251	0.050530	1.000000	-0.000011	0.000018	0.000025	-177.021239	-77.214572	170.485579
24081	9.622548	-0.114467	-2.196862	0.015824	-0.002636	0.058102	1.000000	-0.000012	0.000023	0.000019	-177.023577	-77.214610	170.488240
24082	9.623090	-0.133513	-2.167440	-0.015082	-0.018266	0.052348	1.000000	-0.000011	0.000014	0.000031	-177.019953	-77.213516	170.484773
24083	9.622722	-0.115413	-2.196049	0.014844	-0.003326	0.058103	1.000000	-0.000013	0.000035	0.000028	-177.017263	-77.214853	170.482168
24084	9.622856	-0.115859	-2.195437	0.014360	-0.003670	0.058104	1.000000	-0.000012	0.000029	0.000024	-177.017011	-77.215591	170.481631
24085	9.622976	-0.116131	-2.194900	0.013867	-0.004015	0.058104	1.000000	-0.000022	0.000027	0.000012	-177.023610	-77.216138	170.487446
24086	9.620752	-0.111497	-2.170675	-0.008579	0.003179	0.050529	1.000000	-0.000001	0.000020	0.000036	-177.016198	-77.215719	170.481497
24087	9.620839	-0.111995	-2.170261	-0.009072	0.002833	0.050529	1.000000	-0.000012	0.000023	0.000019	-177.018538	-77.215757	170.484158
24088	9.596793	-0.115618	-2.171487	-0.003041	-0.001766	0.027391	1.000000	-0.000012	0.000024	0.000030	-177.015379	-77.215843	170.481307
24089	9.621046	-0.112870	-2.169299	-0.010060	0.002142	0.050528	1.000000	-0.000012	0.000029	0.000024	-177.015204	-77.216530	170.481335
24090	9.597010	-0.116510	-2.170478	-0.004021	-0.002454	0.027390	1.000000	-0.000021	0.000024	0.000029	-177.013297	-77.216582	170.477977
24091	9.621250	-0.113775	-2.168348	-0.011042	0.001453	0.050527	1.000000	-0.000021	0.000024	0.000029	-177.011476	-77.216618	170.475234
24092	9.596770	-0.098707	-2.198602	0.025412	0.012152	0.033164	1.000000	-0.000002	0.000028	0.000013	-177.015422	-77.217335	170.480639
24093	9.621459	-0.114699	-2.167372	-0.012022	0.000761	0.050526	1.000000	-0.000001	0.000021	0.000047	-177.002565	-77.217002	170.468952
24094	9.597389	-0.118431	-2.168697	-0.005991	-0.003830	0.027389	1.000000	-0.000021	0.000016	0.000014	-177.008674	-77.216254	170.474199
24095	9.602567	-0.147467	-2.186797	0.007009	-0.034539	0.036773	1.000000	-0.000021	0.000024	0.000029	-177.006854	-77.216290	170.471457
24096	9.616617	-0.087330	-2.147693	-0.026996	0.030092	0.041140	1.000000	-0.000012	0.000024	0.000030	-177.003657	-77.216429	170.468085
24097	9.594914	-0.096029	-2.172647	0.000998	0.017968	0.025588	1.000000	-0.000012	0.000029	0.000024	-177.003483	-77.217117	170.468112
24098	9.621500	-0.098310	-2.194228	0.015920	0.014339	0.056310	1.000000	-0.000021	0.000024	0.000029	-177.001551	-77.217169	170.464422
24099	9.599786	-0.106935	-2.219248	0.043917	0.002219	0.040762	1.000000	-0.000012	0.000023	0.000019	-177.003892	-77.217207	170.467083
24100	9.595604	-0.115660	-2.142367	-0.030876	0.001638	0.019798	1.000000	-0.000010	0.000005	0.000004	-177.013704	-77.215302	170.477076
24101	9.621705	-0.099164	-2.193290	0.014442	0.013306	0.056314	1.000000	-0.000031	0.000018	0.000035	-177.010242	-77.214685	170.471566
24102	9.600403	-0.126477	-2.189296	0.012050	-0.014112	0.034973	1.000000	-0.000002	0.000024	0.000019	-177.011191	-77.214854	170.473336
24103	9.621889	-0.099923	-2.192449	0.013466	0.012616	0.056316	1.000000	-0.000021	0.000022	0.000018	-177.014840	-77.214820	170.476190
24104	9.598260	-0.122162	-2.164631	-0.010892	-0.007270	0.027383	1.000000	-0.000002	0.000025	0.000030	-177.010376	-77.214932	170.472994
24105	9.619751	-0.095817	-2.167758	-0.009480	0.019456	0.048727	1.000000	-0.000021	0.000024	0.000029	-177.008559	-77.214967	170.470253
24106	9.598015	-0.104419	-2.192896	0.018532	0.007346	0.033185	1.000000	-0.000020	0.000012	0.000020	-177.011751	-77.213746	170.472816
24107	9.624980	-0.125160	-2.185593	0.003040	-0.011599	0.058107	1.000000	-0.000031	0.000022	0.000018	-177.016709	-77.213641	170.475865
24108	9.598169	-0.105091	-2.192188	0.017549	0.006660	0.033187	1.000000	-0.000011	0.000019	0.000036	-177.010570	-77.213166	170.469508
24109	9.601014	-0.129156	-2.186460	0.008608	-0.016521	0.034973	1.000000	-0.000022	0.000027	0.000012	-177.017171	-77.213713	170.475324
24110	9.598769	-0.124432	-2.162246	-0.013821	-0.009340	0.027377	1.000000	-0.000001	0.000019	0.000025	-177.015222	-77.213296	170.474754
24111	9.601211	-0.130032	-2.185543	0.007636	-0.017211	0.034972	1.000000	-0.000002	0.000031	0.000035	-177.008273	-77.214123	170.468991
24112	9.620369	-0.098660	-2.164883	-0.012923	0.017037	0.048727	1.000000	-0.000021	0.000018	0.000024	-177.008964	-77.213461	170.469096
24113	9.599036	-0.125894	-2.160973	-0.015302	-0.010375	0.027374	1.000000	-0.000021	0.000018	0.000024	-177.009664	-77.212847	170.468990
24114	9.622894	-0.104507	-2.187820	0.008033	0.008824	0.056326	1.000000	-0.000013	0.000035	0.000028	-177.006924	-77.214151	170.466059
24115	9.623016	-0.104908	-2.187264	0.007540	0.008479	0.056327	1.000000	-0.000012	0.000023	0.000019	-177.009266	-77.214189	170.468719
24116	9.598935	-0.108592	-2.188664	0.013597	0.003909	0.033195	1.000000	-0.000000	0.000009	0.000037	-177.001467	-77.212481	170.462751
24117	9.601334	-0.114089	-2.212185	0.035053	-0.003957	0.040797	1.000000	-0.000011	0.000017	0.000014	-177.006323	-77.211870	170.468045
24118	9.599457	-0.128025	-2.158976	-0.017760	-0.012099	0.027368	1.000000	-0.000031	0.000023	0.000029	-177.005773	-77.211922	170.465192
24119	9.623312	-0.106650	-2.185875	0.005571	0.007097	0.056329	1.000000	-0.000021	0.000024	0.000029	-177.003960	-77.211957	170.462453
24120	9.602005	-0.133828	-2.181821	0.003211	-0.020310	0.034969	1.000000	-0.000012	0.000028	0.000013	-177.009236	-77.212607	170.468135
24121	9.599369	-0.110434	-2.186667	0.011159	0.002185	0.033198	1.000000	-0.000021	0.000018	0.000024	-177.009938	-77.211993	170.468031
24122	9.599832	-0.129431	-2.157228	-0.019726	-0.013477	0.027362	1.000000	-0.000012	0.000023	0.000019	-177.012200	-77.211983	170.469985
24123	9.621367	-0.102858	-2.160250	-0.018351	0.013236	0.048725	1.000000	-0.000022	0.000033	0.000017	-177.016289	-77.213180	170.473168
24125	9.651265	-0.058181	-2.141245	-0.075977	0.121992	9.959016	1.000000	-0.000041	0.000026	0.000061	-177.000669	-77.213316	170.453920
24127	9.580857	-0.189727	-2.295318	0.223829	-0.177567	9.892835	1.000000	-0.000044	0.000057	0.000046	-176.991853	-77.217038	170.441359
24128	9.533868	0.153048	-1.745016	-0.371177	0.310702	-0.131322	1.000000	0.000018	0.000026	0.000031	-176.984730	-77.217394	170.437393
24129	9.609010	-0.187352	-2.517600	0.322042	-0.109319	0.116604	1.000000	0.000076	0.000034	0.000016	-176.978215	-77.218650	170.441242
24130	9.662530	-0.245138	-2.123542	-0.077980	-0.121340	0.082423	1.000000	-0.000041	0.000028	0.000033	-176.976494	-77.219210	170.436133
24131	9.685318	-0.167684	-2.237655	0.036468	-0.056165	0.128948	1.000000	-0.000040	0.000010	0.000019	-176.982342	-77.217806	170.439064
24132	9.500026	-0.245457	-2.264294	0.093706	-0.143398	-0.044964	1.000000	-0.000062	0.000037	0.000021	-176.989179	-77.219379	170.440858
24133	9.695629	0.062900	-2.108781	-0.063856	0.186912	0.107853	1.000000	-0.000042	0.000038	0.000021	-176.993379	-77.221086	170.441801
24134	9.623240	-0.144614	-2.096706	-0.083522	-0.020540	0.037005	1.000000	0.000047	0.000027	0.000021	-176.987773	-77.221544	170.442783
24135	9.551859	-0.084950	-2.241432	0.079191	0.020306	-0.001339	1.000000	-0.000011	0.000018	0.000025	-176.987168	-77.221001	170.442484
24136	9.663907	-0.086744	-2.079229	-0.102766	0.040380	0.072130	1.000000	-0.000021	0.000017	0.000014	-176.993332	-77.220306	170.447986
24137	9.604059	-0.158990	-2.144829	-0.034518	-0.040813	0.029094	1.000000	-0.000002	0.000025	0.000030	-176.988897	-77.220483	170.444852
24138	9.564636	-0.148344	-2.301056	0.126689	-0.048940	0.025030	1.000000	-0.000022	0.000021	0.000008	-176.998036	-77.220328	170.453627
24139	9.605753	-0.036676	-2.044311	-0.118119	0.091638	0.007124	1.000000	-0.000022	0.000035	0.000039	-176.991195	-77.221662	170.445617
24140	9.633212	-0.167105	-2.189336	0.001297	-0.052668	0.067450	1.000000	0.000030	-0.000002	0.000018	-176.989940	-77.218838	170.449601
24141	9.581568	-0.112959	-2.256013	0.083157	-0.007892	0.031185	1.000000	-0.000040	0.000019	0.000045	-176.982345	-77.218219	170.438705
24142	9.650349	-0.150009	-2.115773	-0.072104	-0.026630	0.067714	1.000000	-0.000031	0.000017	0.000024	-176.984226	-77.217602	170.437502
24143	9.600784	-0.082052	-2.235138	0.062070	0.025981	0.044954	1.000000	-0.000011	0.000014	0.000031	-176.980674	-77.216478	170.434244
24144	9.625999	-0.135374	-2.145913	-0.036121	-0.016185	0.050454	1.000000	-0.000002	0.000024	0.000019	-176.981691	-77.216605	170.436734
24145	9.606332	-0.130095	-2.223923	0.044242	-0.020403	0.048449	1.000000	-0.000021	0.000011	0.000009	-176.990383	-77.215275	170.444867
24146	9.630917	-0.145983	-2.192639	0.006780	-0.031893	0.065697	1.000000	-0.000003	0.000041	0.000034	-176.983881	-77.217302	170.439858
24147	9.608626	-0.117210	-2.275638	0.095564	-0.013252	0.061960	1.000000	-0.000031	0.000022	0.000018	-176.988856	-77.217200	170.442918
24148	9.621318	-0.107940	-2.125588	-0.051628	0.012782	0.041079	1.000000	0.000008	0.000018	0.000015	-176.991110	-77.216673	170.448287
24149	9.604044	-0.107792	-2.227359	0.050681	0.001074	0.046716	1.000000	-0.000021	0.000018	0.000024	-176.991822	-77.216059	170.448188
24150	9.623836	-0.113708	-2.148676	-0.030667	0.004585	0.048702	1.000000	-0.000011	0.000018	0.000025	-176.991178	-77.215521	170.447754
