// Start Time: Unknown
// Update Rate: 100.0Hz
// Filter Profile: human (46.1)
// Firmware Version: 4.4.0
PacketCounter	Acc_X	Acc_Y	Acc_Z	FreeAcc_X	FreeAcc_Y	FreeAcc_Z	OriInc_q0	OriInc_q1	OriInc_q2	OriInc_q3	Roll	Pitch	Yaw
47050	1.150652	-0.162222	9.709204	0.000000	0.000000	-0.034192	1.000000	-0.000045	0.000018	0.000028	-0.954451	-6.758814	48.697363
47051	1.165822	-0.173960	9.760435	0.000000	-0.000000	0.018665	1.000000	-0.000045	0.000021	0.000020	-1.018341	-6.811498	48.665709
47052	1.160449	-0.145955	9.721518	-0.013689	0.017023	-0.021090	1.000000	-0.000053	0.000031	0.000031	-0.990259	-6.782734	48.661122
47053	1.149319	-0.165208	9.709312	-0.005937	-0.002061	-0.034194	1.000000	-0.000048	0.000014	0.000007	-0.995908	-6.781118	48.661904
47054	1.168473	-0.158798	9.681678	0.003784	0.019245	-0.059480	1.000000	-0.000029	0.000009	0.000027	-0.999951	-6.780653	48.665152
47055	1.161742	-0.163340	9.741086	-0.003100	0.007672	-0.001214	1.000000	-0.000073	0.000038	0.000002	-1.008338	-6.776276	48.665353
47056	1.156494	-0.135456	9.702165	-0.024498	0.026269	-0.040966	1.000000	-0.000043	0.000002	0.000023	-1.013575	-6.776022	48.667957
47057	1.182929	-0.172613	9.732958	0.017430	0.019719	-0.006624	1.000000	-0.000035	0.000021	0.000012	-1.017709	-6.773576	48.669278
47058	1.180090	-0.158904	9.713521	0.006734	0.028996	-0.026499	1.000000	-0.000045	0.000021	0.000020	-1.023060	-6.771237	48.671487
47059	1.177228	-0.145299	9.694089	-0.003965	0.038298	-0.046375	1.000000	-0.000046	0.000024	0.000011	-1.028462	-6.768489	48.672709
47060	1.138091	-0.160618	9.749396	-0.023625	-0.004479	0.004196	1.000000	-0.000041	0.000012	0.000027	-1.033223	-6.767351	48.675728
47061	1.168227	-0.179909	9.701358	0.014488	0.009847	-0.039604	1.000000	-0.000057	0.000026	0.000010	-1.039894	-6.764300	48.676851
47062	1.165283	-0.166448	9.681934	0.003798	0.019083	-0.059480	1.000000	-0.000050	0.000027	0.000021	-1.045573	-6.761405	48.679208
47063	1.156167	-0.156395	9.721866	-0.013786	0.016810	-0.021090	1.000000	-0.000041	0.000015	0.000018	-1.050528	-6.759682	48.681256
47064	1.145148	-0.175599	9.709622	-0.006016	-0.002371	-0.034195	1.000000	-0.000056	0.000018	0.000036	-1.056935	-6.757918	48.685323
47065	1.166210	-0.140204	9.734179	-0.021521	0.035797	-0.007984	1.000000	-0.000041	0.000015	0.000018	-1.061889	-6.756194	48.687370
47066	1.155163	-0.159287	9.721938	-0.013724	0.016584	-0.021089	1.000000	-0.000045	0.000021	0.000020	-1.066656	-6.754147	48.689506
47067	1.187416	-0.149423	9.726056	-0.000946	0.047723	-0.013393	1.000000	-0.000054	0.000005	0.000022	-1.073190	-6.753560	48.692012
47068	1.163428	-0.172300	9.682055	0.003919	0.018659	-0.059479	1.000000	-0.000049	0.000014	0.000007	-1.077797	-6.752583	48.692666
47069	1.156787	-0.176831	9.741440	-0.002964	0.007082	-0.001214	1.000000	-0.000045	0.000021	0.000020	-1.083263	-6.750142	48.694883
47070	1.164476	-0.145152	9.734314	-0.021358	0.035248	-0.007982	1.000000	-0.000058	0.000040	0.000024	-1.089147	-6.746295	48.697482
47071	1.177467	-0.186335	9.733367	0.017623	0.018916	-0.006622	1.000000	-0.000052	0.000015	0.000026	-1.095434	-6.744575	48.700427
47072	1.150489	-0.150915	9.702651	-0.024252	0.025177	-0.040962	1.000000	-0.000045	0.000021	0.000020	-1.099530	-6.743210	48.702474
47073	1.154849	-0.180889	9.741595	-0.002853	0.006569	-0.001213	1.000000	-0.000039	0.000025	0.000022	-1.104238	-6.740355	48.704959
47074	1.165130	-0.163635	9.753915	-0.010507	0.025327	0.011895	1.000000	-0.000052	0.000017	0.000017	-1.108769	-6.739373	48.706710
47075	1.173467	-0.175567	9.714037	0.007074	0.027604	-0.026496	1.000000	-0.000045	0.000021	0.000020	-1.114235	-6.736931	48.708925
47076	1.151309	-0.169311	9.722226	-0.013338	0.015170	-0.021086	1.000000	-0.000059	0.000014	0.000015	-1.119221	-6.736526	48.710397
47077	1.161662	-0.152189	9.734543	-0.021089	0.034252	-0.007978	1.000000	-0.000045	0.000021	0.000020	-1.124685	-6.734079	48.712611
47078	1.150612	-0.171253	9.722275	-0.013163	0.014688	-0.021085	1.000000	-0.000041	0.000015	0.000018	-1.126983	-6.733803	48.714422
47079	1.182833	-0.161458	9.726422	-0.000384	0.045823	-0.013384	1.000000	-0.000063	0.000014	0.000034	-1.134590	-6.732085	48.718264
47080	1.152389	-0.187894	9.741754	-0.002319	0.004858	-0.001212	1.000000	-0.000034	0.000018	0.000020	-1.136135	-6.731688	48.720232
47081	1.179699	-0.148709	9.707040	-0.010941	0.054608	-0.033254	1.000000	-0.000046	0.000024	0.000011	-1.141528	-6.728937	48.721445
47082	1.179321	-0.149588	9.707072	-0.010767	0.053974	-0.033250	1.000000	-0.000041	0.000015	0.000018	-1.143240	-6.729332	48.723152
47083	1.181325	-0.164984	9.726546	-0.000065	0.044663	-0.013379	1.000000	-0.000039	0.000025	0.000022	-1.147938	-6.726478	48.725635
47084	1.159088	-0.158541	9.734748	-0.020455	0.031793	-0.007968	1.000000	-0.000045	0.000018	0.000028	-1.149685	-6.727399	48.728361
47085	1.169815	-0.184957	9.714303	0.007824	0.024766	-0.026489	1.000000	-0.000045	0.000021	0.000020	-1.155134	-6.724980	48.730576
47086	1.167023	-0.171251	9.694899	-0.002727	0.033193	-0.046356	1.000000	-0.000042	0.000020	0.000001	-1.155846	-6.725973	48.730117
47087	1.177255	-0.153890	9.707255	-0.010480	0.052262	-0.033241	1.000000	-0.000039	0.000027	0.000013	-1.160467	-6.722853	48.731606
47088	1.168172	-0.143882	9.747200	-0.027762	0.049251	0.005155	1.000000	-0.000048	0.000008	0.000024	-1.162145	-6.723829	48.734134
47089	1.168392	-0.188497	9.714406	0.008269	0.023150	-0.026485	1.000000	-0.000048	0.000011	0.000016	-1.167832	-6.722536	48.735907
47090	1.176390	-0.156586	9.707317	-0.009953	0.050532	-0.033231	1.000000	-0.000035	0.000021	0.000012	-1.167007	-6.723643	48.736767
47091	1.156543	-0.164676	9.734949	-0.019777	0.029150	-0.007959	1.000000	-0.000045	0.000021	0.000020	-1.172439	-6.721226	48.738981
47092	1.178040	-0.172941	9.726806	0.001049	0.040220	-0.013359	1.000000	-0.000048	0.000011	0.000016	-1.172976	-6.723114	48.740288
47093	1.147171	-0.155815	9.774910	-0.037052	0.025847	0.030437	1.000000	-0.000056	0.000021	0.000027	-1.179719	-6.720708	48.743402
47094	1.153054	-0.153070	9.715604	-0.029935	0.036610	-0.027817	1.000000	-0.000039	0.000027	0.000013	-1.179943	-6.720370	48.744139
47095	1.174456	-0.161199	9.707476	-0.009403	0.048659	-0.033221	1.000000	-0.000041	0.000015	0.000018	-1.184843	-6.718677	48.746184
47096	1.163499	-0.180368	9.695157	-0.001271	0.028532	-0.046341	1.000000	-0.000059	0.000011	0.000023	-1.186076	-6.720525	48.748393
47097	1.165081	-0.152348	9.747441	-0.026588	0.045282	0.005177	1.000000	-0.000039	0.000027	0.000013	-1.190662	-6.717384	48.749877
47098	1.175745	-0.178676	9.726980	0.002166	0.037342	-0.013348	1.000000	-0.000045	0.000018	0.000028	-1.190480	-6.717457	48.752852
47099	1.172899	-0.165046	9.707600	-0.008532	0.046660	-0.033210	1.000000	-0.000050	0.000030	0.000013	-1.196340	-6.713976	48.754228
47100	1.152875	-0.173628	9.735229	-0.018229	0.024218	-0.007942	1.000000	-0.000079	0.000029	0.000017	-1.200991	-6.714793	48.755035
47101	1.149668	-0.160764	9.715881	-0.028933	0.033542	-0.027803	1.000000	-0.000097	0.000057	0.000015	-1.212228	-6.708254	48.756615
47102	1.203249	-0.158728	9.711971	0.004609	0.075618	-0.025468	1.000000	-0.000053	0.000020	0.000009	-1.213015	-6.709946	48.756413
47103	1.159862	-0.188560	9.695437	-0.000423	0.025416	-0.046333	1.000000	-0.000032	-0.000003	0.000032	-1.217052	-6.710293	48.760112
47104	1.139817	-0.153085	9.755886	-0.045578	0.028962	0.010601	1.000000	-0.000045	0.000021	0.000020	-1.215027	-6.710141	48.762564
47105	1.159442	-0.190106	9.695457	0.000272	0.024280	-0.046330	1.000000	-0.000025	0.000003	0.000026	-1.218201	-6.709735	48.765530
47106	1.161326	-0.161579	9.747740	-0.024875	0.039614	0.005206	1.000000	-0.000015	0.000003	0.000018	-1.213930	-6.714899	48.766382
47107	1.182996	-0.169543	9.739584	-0.004344	0.051664	-0.000193	1.000000	-0.000048	0.000011	0.000016	-1.219574	-6.713624	48.768152
47108	1.145466	-0.151960	9.696592	-0.038152	0.038398	-0.047640	1.000000	-0.000034	0.000018	0.000020	-1.218914	-6.713510	48.769651
47109	1.158262	-0.149072	9.728382	-0.035183	0.048115	-0.014644	1.000000	-0.000026	0.000009	0.000009	-1.221958	-6.712514	48.770621
47110	1.168613	-0.131830	9.740772	-0.042292	0.066197	-0.001495	1.000000	-0.000060	0.000027	0.000029	-1.222642	-6.711169	48.773676
47111	1.190371	-0.183861	9.699759	0.014263	0.052197	-0.038579	1.000000	-0.000053	0.000020	0.000009	-1.228727	-6.708815	48.774607
47112	1.122172	-0.148334	9.704870	-0.057425	0.024002	-0.042226	1.000000	-0.000053	0.000020	0.000009	-1.226986	-6.710045	48.775287
47113	1.178483	-0.160347	9.720348	-0.013392	0.057843	-0.020028	1.000000	-0.000034	0.000018	0.000020	-1.231085	-6.707885	48.777589
47114	1.145514	-0.172021	9.716179	-0.025273	0.025558	-0.027769	1.000000	-0.000050	0.000027	0.000021	-1.228522	-6.706317	48.780275
47115	1.164132	-0.122180	9.721559	-0.051452	0.073005	-0.021321	1.000000	-0.000052	0.000017	0.000017	-1.234608	-6.704232	48.782199
47116	1.166520	-0.181422	9.708076	-0.004629	0.036468	-0.033164	1.000000	-0.000053	0.000020	0.000008	-1.235929	-6.706613	48.781129
47117	1.176679	-0.164035	9.720505	-0.012358	0.055514	-0.020013	1.000000	-0.000018	0.000035	0.000029	-1.238258	-6.702493	48.784414
47118	1.154196	-0.157652	9.728730	-0.032183	0.042254	-0.014607	1.000000	-0.000072	0.000033	0.000019	-1.239001	-6.701267	48.786009
47119	1.153783	-0.158695	9.728762	-0.032163	0.042240	-0.014607	1.000000	-0.000030	0.000009	0.000027	-1.242608	-6.700129	48.789141
47120	1.188320	-0.163433	9.752404	-0.008154	0.061872	0.013009	1.000000	-0.000057	0.000024	0.000019	-1.238728	-6.704898	48.790337
47121	1.161725	-0.171336	9.688892	-0.014083	0.042438	-0.052995	1.000000	-0.000039	0.000027	0.000013	-1.243163	-6.701795	48.791823
47122	1.174174	-0.168817	9.720726	-0.010190	0.051250	-0.019987	1.000000	-0.000054	0.000033	0.000023	-1.242107	-6.698218	48.794781
47123	1.151786	-0.162455	9.728936	-0.030686	0.039153	-0.014589	1.000000	-0.000039	0.000025	0.000022	-1.246588	-6.695367	48.797257
47124	1.173031	-0.170609	9.720833	-0.009665	0.049973	-0.019980	1.000000	-0.000043	0.000034	0.000015	-1.244665	-6.695079	48.797755
47125	1.172565	-0.171641	9.720871	-0.009636	0.049941	-0.019980	1.000000	-0.000059	0.000014	0.000015	-1.251396	-6.693487	48.799418
47126	1.172037	-0.172717	9.720916	-0.009005	0.048299	-0.019971	1.000000	-0.000048	0.000040	0.000017	-1.247859	-6.693694	48.801117
47127	1.152015	-0.180963	9.748505	-0.018776	0.026830	0.005263	1.000000	-0.000041	0.000015	0.000018	-1.252530	-6.692013	48.803158
47128	1.147086	-0.152495	9.709753	-0.039142	0.043364	-0.034397	1.000000	-0.000041	0.000012	0.000027	-1.244175	-6.696083	48.807293
47129	1.183855	-0.171961	9.752800	-0.004871	0.055699	0.013048	1.000000	-0.000050	0.000030	0.000013	-1.249691	-6.692696	48.808681
47130	1.148588	-0.169014	9.729203	-0.028021	0.032155	-0.014556	1.000000	-0.000041	0.000012	0.000027	-1.246154	-6.697840	48.810556
47131	1.145995	-0.155197	9.709839	-0.038707	0.041453	-0.034387	1.000000	-0.000041	0.000015	0.000018	-1.250675	-6.696259	48.812615
47132	1.180588	-0.160104	9.733486	-0.014373	0.061248	-0.006760	1.000000	-0.000059	0.000011	0.000023	-1.246420	-6.700384	48.815801
47133	1.147798	-0.171731	9.729248	-0.027112	0.030053	-0.014547	1.000000	-0.000023	0.000016	0.000021	-1.248840	-6.698734	48.818243
47134	1.158257	-0.154434	9.741677	-0.033686	0.048075	-0.001356	1.000000	-0.000051	0.000009	0.000043	-1.246147	-6.697519	48.825455
47135	1.169075	-0.180912	9.721123	-0.005374	0.041042	-0.019936	1.000000	-0.000053	0.000020	0.000008	-1.251772	-6.695299	48.826409
47136	1.166409	-0.167183	9.701773	-0.014863	0.048866	-0.039752	1.000000	-0.000041	0.000015	0.000018	-1.245112	-6.695565	48.830640
47137	1.166118	-0.168138	9.701792	-0.014796	0.048784	-0.039752	1.000000	-0.000052	0.000015	0.000026	-1.250787	-6.693941	48.833589
47138	1.163508	-0.154415	9.682439	-0.025085	0.056872	-0.059567	1.000000	-0.000041	0.000015	0.000018	-1.248736	-6.696205	48.834614
47139	1.167860	-0.184671	9.721199	-0.003550	0.038030	-0.019923	1.000000	-0.000049	0.000014	0.000007	-1.253746	-6.694705	48.835400
47140	1.173652	-0.138128	9.694904	-0.032251	0.073708	-0.046356	1.000000	-0.000041	0.000015	0.000018	-1.248219	-6.700394	48.837174
47141	1.154318	-0.189883	9.689431	-0.005977	0.026168	-0.052930	1.000000	-0.000048	0.000008	0.000024	-1.253300	-6.699582	48.839970
47142	1.175264	-0.154695	9.714328	-0.020652	0.062651	-0.026524	1.000000	-0.000048	0.000040	0.000017	-1.249250	-6.698845	48.841870
47143	1.155223	-0.163081	9.741896	-0.030357	0.041067	-0.001313	1.000000	-0.000052	0.000015	0.000026	-1.254768	-6.697338	48.844840
47144	1.176713	-0.171293	9.733765	-0.009391	0.051910	-0.006700	1.000000	-0.000034	0.000018	0.000020	-1.252140	-6.698949	48.845958
47145	1.141460	-0.168177	9.710157	-0.032835	0.030067	-0.034324	1.000000	-0.000046	0.000024	0.000011	-1.256739	-6.696435	48.847206
47146	1.141020	-0.169100	9.710193	-0.032022	0.028747	-0.034318	1.000000	-0.000046	0.000021	0.000019	-1.253422	-6.696663	48.849897
47147	1.155956	-0.181236	9.761384	-0.018194	0.028861	0.018515	1.000000	-0.000034	0.000018	0.000020	-1.256767	-6.694765	48.852249
47148	1.150860	-0.152763	9.722707	-0.039191	0.045897	-0.021099	1.000000	-0.000054	0.000031	0.000031	-1.254371	-6.697058	48.855274
47149	1.161579	-0.179085	9.702141	-0.010862	0.038827	-0.039702	1.000000	-0.000037	0.000009	0.000016	-1.257916	-6.696341	48.857192
47150	1.163133	-0.151103	9.754570	-0.035395	0.053496	0.011936	1.000000	-0.000039	0.000027	0.000013	-1.252071	-6.698785	48.858610
47151	1.147404	-0.140699	9.703446	-0.049063	0.053120	-0.040893	1.000000	-0.000052	0.000015	0.000026	-1.257385	-6.697405	48.861601
47152	1.151739	-0.170951	9.742174	-0.027393	0.032167	-0.001271	1.000000	-0.000030	0.000012	0.000019	-1.251866	-6.704865	48.862103
47153	1.168666	-0.149706	9.695334	-0.028286	0.062889	-0.046268	1.000000	-0.000052	0.000017	0.000017	-1.257068	-6.703274	48.864112
47154	1.148795	-0.158091	9.722866	-0.037014	0.039083	-0.021061	1.000000	-0.000045	0.000018	0.000028	-1.248878	-6.707377	48.867490
47155	1.170259	-0.166296	9.714740	-0.016411	0.050978	-0.026448	1.000000	-0.000042	0.000018	0.000009	-1.252609	-6.705851	48.868617
47156	1.150365	-0.174626	9.742271	-0.025843	0.028353	-0.001255	1.000000	-0.000053	0.000020	0.000008	-1.252938	-6.707195	48.868495
47157	1.117479	-0.186138	9.737992	-0.038537	-0.002947	-0.009096	1.000000	-0.000023	0.000016	0.000021	-1.254702	-6.705893	48.871001
47158	1.179823	-0.150711	9.727297	-0.022785	0.067757	-0.013203	1.000000	-0.000050	0.000027	0.000021	-1.252993	-6.703072	48.874723
47159	1.146879	-0.162490	9.723019	-0.035471	0.036458	-0.021045	1.000000	-0.000052	0.000015	0.000026	-1.258092	-6.701852	48.877742
47160	1.157274	-0.145388	9.735506	-0.041486	0.055474	-0.007806	1.000000	-0.000042	0.000018	0.000009	-1.255390	-6.693002	48.882896
47161	1.157405	-0.189604	9.702439	-0.005403	0.029376	-0.039665	1.000000	-0.000037	0.000009	0.000016	-1.258614	-6.692367	48.884831
47162	1.146062	-0.165087	9.723072	-0.032506	0.035566	-0.021032	1.000000	-0.000045	0.000015	0.000037	-1.256350	-6.689264	48.890671
47163	1.167553	-0.173300	9.714943	-0.011874	0.047480	-0.026424	1.000000	-0.000042	0.000018	0.000009	-1.259984	-6.687554	48.891769
47164	1.147641	-0.181584	9.742465	-0.021932	0.024088	-0.001234	1.000000	-0.000046	0.000021	0.000019	-1.259529	-6.694684	48.890006
47165	1.177596	-0.157092	9.727466	-0.019794	0.064403	-0.013174	1.000000	-0.000048	0.000008	0.000024	-1.264037	-6.694115	48.892845
47166	1.166649	-0.176049	9.715003	-0.010300	0.043003	-0.026402	1.000000	-0.000041	0.000015	0.000018	-1.251671	-6.696174	48.898032
47167	1.144486	-0.169673	9.723179	-0.030675	0.030680	-0.021009	1.000000	-0.000053	0.000020	0.000008	-1.256395	-6.694293	48.899050
47168	1.174263	-0.145083	9.708214	-0.027664	0.070335	-0.032930	1.000000	-0.000032	0.000028	0.000024	-1.252543	-6.690962	48.902740
47169	1.151997	-0.138627	9.716406	-0.048030	0.058010	-0.027536	1.000000	-0.000052	0.000017	0.000017	-1.257292	-6.689365	48.904752
47170	1.162816	-0.164999	9.695789	-0.017113	0.049196	-0.046164	1.000000	-0.000048	0.000011	0.000015	-1.243378	-6.686099	48.912340
47171	1.164871	-0.180705	9.715131	-0.006172	0.039534	-0.026384	1.000000	-0.000048	0.000011	0.000015	-1.247420	-6.685170	48.914179
47172	1.153417	-0.156350	9.735794	-0.033691	0.044261	-0.007719	1.000000	-0.000049	0.000024	0.000030	-1.241916	-6.689127	48.918164
47173	1.172632	-0.149824	9.708339	-0.023790	0.065547	-0.032887	1.000000	-0.000037	0.000009	0.000016	-1.244619	-6.688562	48.920119
47174	1.172281	-0.150824	9.708366	-0.023467	0.062960	-0.032869	1.000000	-0.000061	0.000027	0.000029	-1.240388	-6.695696	48.920660
47175	1.184735	-0.148556	9.740236	-0.020245	0.072230	0.000173	1.000000	-0.000039	0.000027	0.000013	-1.243201	-6.693083	48.922247
47176	1.138648	-0.163557	9.704119	-0.034883	0.030426	-0.040735	1.000000	-0.000061	0.000030	0.000020	-1.240589	-6.690125	48.926805
47177	1.159879	-0.171995	9.696020	-0.014203	0.042259	-0.046127	1.000000	-0.000050	0.000030	0.000012	-1.244617	-6.687184	48.928284
47178	1.172362	-0.169687	9.727887	-0.010903	0.049607	-0.013074	1.000000	-0.000046	0.000021	0.000019	-1.240473	-6.693542	48.929223
47179	1.161229	-0.188641	9.715416	-0.003003	0.030334	-0.026349	1.000000	-0.000046	0.000021	0.000019	-1.244010	-6.691714	48.931545
47180	1.149592	-0.164316	9.736115	-0.031205	0.035231	-0.007674	1.000000	-0.000054	0.000033	0.000023	-1.242788	-6.696496	48.931532
47181	1.168802	-0.157941	9.708672	-0.021312	0.056483	-0.032825	1.000000	-0.000051	0.000001	0.000011	-1.246790	-6.697010	48.932979
47182	1.151276	-0.180935	9.755468	-0.018128	0.024773	0.012097	1.000000	-0.000027	0.000022	0.000023	-1.238019	-6.689284	48.939561
47183	1.170035	-0.130962	9.761213	-0.044159	0.071853	0.018909	1.000000	-0.000053	0.000020	0.000008	-1.242117	-6.687556	48.940611
47184	1.135152	-0.171281	9.704395	-0.031421	0.021161	-0.040699	1.000000	-0.000050	0.000027	0.000021	-1.233885	-6.697395	48.940533
47185	1.167337	-0.161587	9.708789	-0.018451	0.051907	-0.032793	1.000000	-0.000048	0.000008	0.000024	-1.237493	-6.697143	48.943434
47186	1.123443	-0.147964	9.725098	-0.058527	0.025775	-0.022005	1.000000	-0.000052	0.000017	0.000017	-1.232262	-6.699933	48.947724
47187	1.168930	-0.178363	9.728144	-0.006549	0.040208	-0.013027	1.000000	-0.000046	0.000024	0.000011	-1.235430	-6.697957	48.949078
47188	1.164170	-0.149791	9.689540	-0.027640	0.056202	-0.052514	1.000000	-0.000051	0.000001	0.000011	-1.227789	-6.708936	48.950446
47189	1.181483	-0.177194	9.759989	-0.002793	0.046389	0.020040	1.000000	-0.000055	0.000015	0.000044	-1.232402	-6.708004	48.955705
47190	1.148573	-0.188764	9.755639	-0.014777	0.014257	0.012124	1.000000	-0.000027	0.000022	0.000023	-1.228275	-6.707019	48.959132
47191	1.176193	-0.149352	9.721444	-0.023384	0.063899	-0.019445	1.000000	-0.000053	0.000020	0.000008	-1.232085	-6.705556	48.960228
47192	1.165067	-0.168456	9.708944	-0.014022	0.043176	-0.032744	1.000000	-0.000056	0.000021	0.000027	-1.224622	-6.704568	48.966588
47193	1.129953	-0.165360	9.685278	-0.037377	0.021177	-0.060411	1.000000	-0.000041	0.000012	0.000026	-1.227186	-6.704030	48.969788
47194	1.177471	-0.167099	9.740816	-0.009933	0.051231	0.000321	1.000000	-0.000041	0.000012	0.000026	-1.224651	-6.704121	48.973269
47195	1.155413	-0.160633	9.748978	-0.030203	0.038707	0.005711	1.000000	-0.000041	0.000012	0.000026	-1.227184	-6.703580	48.976469
47196	1.142206	-0.164700	9.717155	-0.032815	0.028968	-0.027344	1.000000	-0.000041	0.000012	0.000026	-1.229123	-6.701487	48.978763
47197	1.150799	-0.176251	9.677182	-0.015188	0.031239	-0.065788	1.000000	-0.000059	0.000014	0.000014	-1.233637	-6.700710	48.980577
47198	1.154629	-0.163418	9.749025	-0.029525	0.035569	0.005725	1.000000	-0.000031	0.000015	0.000010	-1.227706	-6.710087	48.979474
47199	1.171670	-0.141894	9.702310	-0.030421	0.066259	-0.039129	1.000000	-0.000041	0.000015	0.000018	-1.230147	-6.709308	48.981687
47200	1.162895	-0.175517	9.709080	-0.012387	0.034800	-0.032708	1.000000	-0.000041	0.000015	0.000018	-1.225483	-6.722994	48.979020
47201	1.149209	-0.136298	9.710510	-0.051189	0.050669	-0.033726	1.000000	-0.000046	0.000021	0.000019	-1.228390	-6.721645	48.981425
47202	1.162222	-0.177354	9.709127	-0.010971	0.032602	-0.032699	1.000000	-0.000048	0.000011	0.000015	-1.221782	-6.723489	48.984988
47203	1.159788	-0.163533	9.689843	-0.021561	0.041656	-0.052426	1.000000	-0.000048	0.000008	0.000024	-1.224923	-6.723597	48.987950
47204	1.185890	-0.201489	9.720276	0.020940	0.032168	-0.018341	1.000000	-0.000056	0.000011	0.000004	-1.219270	-6.732546	48.987124
47205	1.150539	-0.154865	9.729851	-0.038343	0.035866	-0.013965	1.000000	-0.000022	0.000010	0.000038	-1.219616	-6.732541	48.991757
47206	1.172110	-0.162986	9.721719	-0.017875	0.047845	-0.019342	1.000000	-0.000052	0.000015	0.000025	-1.225449	-6.731592	48.992401
47207	1.162906	-0.153547	9.761736	-0.035065	0.044687	0.019107	1.000000	-0.000053	0.000020	0.000008	-1.228942	-6.730435	48.993548
47208	1.149655	-0.157679	9.729910	-0.037898	0.033198	-0.013954	1.000000	-0.000040	0.000009	0.000035	-1.224914	-6.737460	48.997891
47209	1.171295	-0.165930	9.721767	-0.017204	0.044873	-0.019327	1.000000	-0.000048	0.000008	0.000024	-1.227996	-6.737708	49.000875
47210	1.168773	-0.152077	9.702505	-0.028195	0.052264	-0.039037	1.000000	-0.000046	0.000021	0.000019	-1.226089	-6.745417	49.000241
47211	1.138260	-0.178512	9.717374	-0.029967	0.011209	-0.027298	1.000000	-0.000050	-0.000001	0.000020	-1.229398	-6.746878	49.002792
47212	1.166311	-0.139193	9.683225	-0.037509	0.060172	-0.058740	1.000000	-0.000044	0.000005	0.000014	-1.224406	-6.746228	49.007091
47213	1.170437	-0.169601	9.721807	-0.015682	0.040666	-0.019306	1.000000	-0.000032	0.000028	0.000024	-1.225579	-6.744279	49.010085
47214	1.148145	-0.163250	9.729996	-0.034975	0.027383	-0.013925	1.000000	-0.000064	0.000020	0.000016	-1.223333	-6.742337	49.015513
47215	1.169547	-0.171621	9.721879	-0.014274	0.039045	-0.019297	1.000000	-0.000038	0.000022	0.000030	-1.225288	-6.741093	49.019226
47216	1.169123	-0.172380	9.721916	-0.013908	0.036125	-0.019286	1.000000	-0.000035	0.000021	0.000012	-1.216439	-6.750229	49.017420
47217	1.146891	-0.165871	9.730100	-0.034177	0.023471	-0.013912	1.000000	-0.000046	0.000021	0.000019	-1.219000	-6.749184	49.019877
47218	1.176839	-0.141408	9.715291	-0.029449	0.062811	-0.025604	1.000000	-0.000052	0.000017	0.000017	-1.207942	-6.741884	49.030144
47219	1.135399	-0.185822	9.717572	-0.023448	0.002799	-0.027275	1.000000	-0.000046	0.000021	0.000019	-1.210378	-6.740769	49.032592
47220	1.167497	-0.176170	9.722044	-0.010508	0.031536	-0.019265	1.000000	-0.000049	0.000024	0.000030	-1.206649	-6.747618	49.033936
47221	1.164833	-0.162320	9.702813	-0.021094	0.040540	-0.038963	1.000000	-0.000046	0.000021	0.000019	-1.209040	-6.746579	49.036396
47222	1.168906	-0.192870	9.741372	0.001882	0.020382	0.000439	1.000000	-0.000041	0.000015	0.000018	-1.203809	-6.744570	49.040948
47223	1.152925	-0.138730	9.723622	-0.047713	0.045665	-0.020193	1.000000	-0.000040	0.000033	-0.000004	-1.205185	-6.742162	49.040692
47224	1.146026	-0.187360	9.749609	-0.017833	0.007131	0.005815	1.000000	-0.000061	0.000027	0.000029	-1.208053	-6.739483	49.044670
47225	1.151887	-0.140717	9.723717	-0.046952	0.044574	-0.020184	1.000000	-0.000034	0.000018	0.000020	-1.209128	-6.738718	49.047232
47226	1.162498	-0.166853	9.703016	-0.017525	0.036700	-0.038941	1.000000	-0.000050	0.000030	0.000012	-1.205103	-6.735433	49.051648
47227	1.153211	-0.157409	9.743054	-0.034623	0.033374	-0.000478	1.000000	-0.000048	0.000011	0.000015	-1.207650	-6.735472	49.053655
47228	1.163951	-0.183629	9.722331	-0.004204	0.024186	-0.019240	1.000000	-0.000046	0.000024	0.000011	-1.193516	-6.734942	49.060337
47229	1.161358	-0.169721	9.703103	-0.014771	0.033181	-0.038924	1.000000	-0.000045	0.000015	0.000037	-1.195810	-6.734484	49.064788
47230	1.152122	-0.160298	9.743135	-0.031390	0.027604	-0.000449	1.000000	-0.000053	0.000020	0.000008	-1.188026	-6.741634	49.065116
47231	1.169191	-0.138988	9.696506	-0.032325	0.058300	-0.045184	1.000000	-0.000052	0.000015	0.000025	-1.190930	-6.741344	49.068305
47232	1.129930	-0.198122	9.717966	-0.015373	-0.011033	-0.027264	1.000000	-0.000035	0.000024	0.000003	-1.192440	-6.738580	49.066808
47233	1.161744	-0.145075	9.755835	-0.038215	0.045075	0.012969	1.000000	-0.000041	0.000015	0.000018	-1.194025	-6.738269	49.069104
47234	1.148486	-0.149054	9.723995	-0.040473	0.033263	-0.020110	1.000000	-0.000045	0.000018	0.000028	-1.186047	-6.743714	49.074594
47235	1.161380	-0.190109	9.722514	-0.001174	0.016420	-0.019223	1.000000	-0.000046	0.000021	0.000019	-1.188072	-6.742733	49.077069
47236	1.149941	-0.165850	9.743300	-0.028398	0.021271	-0.000424	1.000000	-0.000052	0.000015	0.000025	-1.182919	-6.745595	49.081480
47237	1.145145	-0.137121	9.704839	-0.049812	0.039803	-0.039766	1.000000	-0.000046	0.000027	0.000002	-1.184751	-6.744011	49.081965
47238	1.190689	-0.167424	9.707818	0.002473	0.054134	-0.030838	1.000000	-0.000033	0.000002	0.000015	-1.184716	-6.743803	49.085003
47239	1.148951	-0.168364	9.743374	-0.027331	0.019645	-0.000418	1.000000	-0.000039	0.000027	0.000013	-1.185870	-6.742106	49.086760
47240	1.165884	-0.146931	9.696787	-0.028358	0.049755	-0.045125	1.000000	-0.000057	0.000024	0.000018	-1.187112	-6.743848	49.084586
47241	1.167608	-0.162943	9.716067	-0.017226	0.039607	-0.025453	1.000000	-0.000057	0.000024	0.000018	-1.190354	-6.742592	49.086957
47242	1.180027	-0.160971	9.747981	-0.012974	0.047345	0.007654	1.000000	-0.000050	0.000027	0.000021	-1.185320	-6.742127	49.093175
47243	1.146909	-0.172583	9.743540	-0.025450	0.015701	-0.000406	1.000000	-0.000050	0.000030	0.000012	-1.187688	-6.740152	49.094829
47244	1.163828	-0.151127	9.696970	-0.025204	0.044128	-0.045089	1.000000	-0.000046	0.000024	0.000011	-1.175170	-6.744466	49.100743
47245	1.135324	-0.192307	9.730970	-0.015950	-0.006675	-0.013840	1.000000	-0.000037	0.000009	0.000016	-1.175964	-6.745004	49.102892
47246	1.143696	-0.160438	9.724378	-0.033931	0.020172	-0.020049	1.000000	-0.000051	0.000009	0.000043	-1.173643	-6.748745	49.108331
47247	1.165154	-0.168708	9.716263	-0.013172	0.031742	-0.025418	1.000000	-0.000039	0.000027	0.000013	-1.174603	-6.747146	49.110106
47248	1.166743	-0.184708	9.735546	-0.002361	0.022228	-0.005763	1.000000	-0.000072	0.000033	0.000019	-1.183660	-6.743258	49.110000
47249	1.161858	-0.156135	9.697127	-0.023792	0.040777	-0.045071	1.000000	-0.000046	0.000021	0.000019	-1.185495	-6.742367	49.112488
47250	1.165858	-0.186790	9.735613	-0.000976	0.020646	-0.005759	1.000000	-0.000041	0.000015	0.000018	-1.181825	-6.740732	49.118225
47251	1.141542	-0.165417	9.724548	-0.032004	0.017431	-0.020038	1.000000	-0.000042	0.000018	0.000009	-1.183053	-6.740229	49.119545
47252	1.186588	-0.152633	9.760976	-0.015713	0.055814	0.021161	1.000000	-0.000039	0.000025	0.000022	-1.178643	-6.744579	49.120884
47253	1.142917	-0.182006	9.743838	-0.020473	0.005290	-0.000383	1.000000	-0.000049	0.000014	0.000007	-1.180597	-6.744528	49.121933
47254	1.151193	-0.150114	9.737288	-0.037210	0.031154	-0.006556	1.000000	-0.000041	0.000015	0.000018	-1.167378	-6.747165	49.128985
47255	1.183872	-0.183417	9.708363	0.011716	0.036056	-0.030762	1.000000	-0.000034	0.000008	-0.000003	-1.167374	-6.747847	49.128981
47256	1.150803	-0.151677	9.737310	-0.035919	0.028184	-0.006543	1.000000	-0.000048	0.000008	0.000024	-1.159744	-6.753433	49.132543
47257	1.172426	-0.159983	9.729177	-0.015148	0.039735	-0.011909	1.000000	-0.000048	0.000011	0.000015	-1.161590	-6.753757	49.134600
47258	1.139647	-0.171532	9.724664	-0.026561	0.007580	-0.020009	1.000000	-0.000048	0.000011	0.000015	-1.157013	-6.752170	49.141344
47259	1.159075	-0.164930	9.697314	-0.016666	0.028731	-0.045013	1.000000	-0.000048	0.000011	0.000015	-1.158820	-6.752475	49.143399
47260	1.180480	-0.173185	9.689207	0.006424	0.038815	-0.050377	1.000000	-0.000043	0.000031	0.000023	-1.143933	-6.748118	49.154793
47261	1.149423	-0.156492	9.737397	-0.030949	0.022986	-0.006512	1.000000	-0.000051	0.000002	0.000011	-1.145866	-6.749528	49.156398
47262	1.171134	-0.164760	9.729253	-0.008881	0.035463	-0.011885	1.000000	-0.000040	0.000009	0.000035	-1.144792	-6.740949	49.165610
47263	1.158008	-0.168605	9.697378	-0.011727	0.025578	-0.044997	1.000000	-0.000045	0.000014	-0.000012	-1.145750	-6.740928	49.164494
47264	1.157731	-0.169565	9.697395	-0.010967	0.023899	-0.044992	1.000000	-0.000052	0.000015	0.000025	-1.142146	-6.743753	49.168513
47265	1.168142	-0.152681	9.710094	-0.018316	0.042079	-0.031497	1.000000	-0.000045	0.000018	0.000028	-1.143605	-6.743171	49.172005
47266	1.169950	-0.168595	9.729329	-0.007217	0.031259	-0.011870	1.000000	-0.000053	0.000018	0.000017	-1.144267	-6.745750	49.172342
47267	1.169534	-0.169528	9.729363	-0.006867	0.030600	-0.011867	1.000000	-0.000039	0.000025	0.000022	-1.144895	-6.744465	49.175121
47268	1.179718	-0.152433	9.742100	-0.013477	0.048009	0.001639	1.000000	-0.000036	0.000031	0.000034	-1.139090	-6.742906	49.180958
47269	1.166253	-0.156354	9.710263	-0.016326	0.038130	-0.031477	1.000000	-0.000057	0.000027	0.000010	-1.141639	-6.741404	49.182352
47270	1.144095	-0.150145	9.718426	-0.035110	0.024525	-0.026091	1.000000	-0.000055	0.000008	0.000013	-1.135307	-6.740252	49.188017
47271	1.167654	-0.173440	9.729520	-0.003398	0.026460	-0.011853	1.000000	-0.000047	0.000034	0.000034	-1.136926	-6.737831	49.192132
47272	1.153965	-0.134234	9.731191	-0.042272	0.041477	-0.012574	1.000000	-0.000041	0.000012	0.000026	-1.136574	-6.741121	49.193430
47273	1.164772	-0.160230	9.710377	-0.013773	0.034203	-0.031458	1.000000	-0.000034	0.000015	0.000029	-1.136657	-6.740876	49.197036
47274	1.166682	-0.176014	9.729590	-0.002038	0.023939	-0.011847	1.000000	-0.000048	0.000008	0.000024	-1.136281	-6.739543	49.200214
47275	1.177225	-0.159122	9.742295	-0.009368	0.042088	0.001671	1.000000	-0.000048	0.000011	0.000015	-1.137805	-6.739782	49.202261
47277	1.154089	-0.167365	9.724091	-0.031896	0.045542	9.774769	1.000000	-0.000097	0.000030	0.000062	-1.146590	-6.727231	49.216119
47278	1.161335	-0.149835	9.691263	-0.021729	0.042655	-0.051056	1.000000	-0.000020	0.000015	0.000002	-1.144693	-6.726967	49.216661
47279	1.176193	-0.162598	9.742362	-0.006859	0.040470	0.001680	1.000000	-0.000054	0.000002	0.000030	-1.141235	-6.731690	49.220377
47280	1.130523	-0.177149	9.705905	-0.022449	-0.000425	-0.039584	1.000000	-0.000053	0.000020	0.000008	-1.143183	-6.730833	49.221589
47281	1.153898	-0.157329	9.750526	-0.026511	0.026119	0.007069	1.000000	-0.000044	0.000005	0.000014	-1.140961	-6.735147	49.222777
47282	1.162635	-0.168445	9.710495	-0.008926	0.028491	-0.031434	1.000000	-0.000041	0.000015	0.000018	-1.141692	-6.734939	49.225098
47283	1.175224	-0.166373	9.742415	-0.005652	0.036562	0.001696	1.000000	-0.000041	0.000015	0.000018	-1.142184	-6.737959	49.227010
47284	1.174965	-0.167285	9.742431	-0.005280	0.035891	0.001699	1.000000	-0.000048	0.000011	0.000015	-1.143683	-6.738178	49.229053
47285	1.139754	-0.163778	9.718716	-0.027992	0.014146	-0.026048	1.000000	-0.000040	0.000041	0.000027	-1.143125	-6.731300	49.235563
47286	1.182794	-0.179499	9.702488	0.013249	0.037941	-0.036805	1.000000	-0.000064	0.000020	0.000016	-1.146405	-6.730459	49.237660
47287	1.151685	-0.162770	9.750698	-0.024604	0.022716	0.007082	1.000000	-0.000020	0.000015	0.000002	-1.149949	-6.729264	49.236436
47288	1.162527	-0.188642	9.729851	0.003893	0.015479	-0.011830	1.000000	-0.000048	0.000008	0.000024	-1.151562	-6.729759	49.239466
47289	1.160101	-0.174646	9.710688	-0.005978	0.023123	-0.031418	1.000000	-0.000046	0.000021	0.000019	-1.144623	-6.732121	49.243019
47290	1.149037	-0.193448	9.697982	0.002088	0.003654	-0.044958	1.000000	-0.000048	0.000011	0.000015	-1.146117	-6.732319	49.245057
47291	1.137676	-0.169171	9.718867	-0.025391	0.009080	-0.026035	1.000000	-0.000042	0.000018	0.000009	-1.143729	-6.732868	49.247657
47292	1.181062	-0.184796	9.702599	0.015846	0.032881	-0.036791	1.000000	-0.000055	0.000008	0.000013	-1.145969	-6.733477	49.249414
47293	1.158889	-0.178355	9.710765	-0.002745	0.019552	-0.031409	1.000000	-0.000032	0.000028	0.000024	-1.137445	-6.727990	49.257017
47294	1.149409	-0.169109	9.750859	-0.019543	0.015795	0.007107	1.000000	-0.000065	0.000026	-0.000001	-1.140519	-6.726498	49.257120
47295	1.164383	-0.132462	9.685244	-0.030477	0.055153	-0.057006	1.000000	-0.000028	0.000022	0.000023	-1.130442	-6.726430	49.264013
47296	1.172456	-0.193089	9.761967	0.013676	0.015890	0.021310	1.000000	-0.000046	0.000021	0.000019	-1.131566	-6.725480	49.266500
47297	1.157145	-0.181948	9.710907	0.000201	0.015720	-0.031402	1.000000	-0.000048	0.000011	0.000015	-1.131507	-6.724388	49.268668
47298	1.145750	-0.157733	9.731809	-0.027519	0.021589	-0.012457	1.000000	-0.000046	0.000021	0.000019	-1.132626	-6.723427	49.271153
47299	1.153959	-0.125856	9.725422	-0.044251	0.048279	-0.018454	1.000000	-0.000046	0.000021	0.000019	-1.122836	-6.721398	49.280274
47300	1.142706	-0.144716	9.712721	-0.036157	0.028812	-0.032016	1.000000	-0.000054	0.000031	0.000031	-1.124980	-6.719306	49.284095
47301	1.166255	-0.167959	9.723779	-0.004956	0.029945	-0.017826	1.000000	-0.000037	0.000009	0.000016	-1.124592	-6.725464	49.282602
47302	1.166022	-0.168761	9.723793	-0.004556	0.029258	-0.017824	1.000000	-0.000041	0.000015	0.000018	-1.125137	-6.725245	49.284921
47303	1.139557	-0.132290	9.693642	-0.045771	0.034812	-0.051566	1.000000	-0.000039	0.000027	0.000013	-1.118980	-6.724531	49.289492
47304	1.156079	-0.160417	9.763932	-0.020195	0.023919	0.020707	1.000000	-0.000061	0.000030	0.000020	-1.121783	-6.722566	49.292042
47305	1.175459	-0.153661	9.736660	-0.010443	0.044522	-0.004234	1.000000	-0.000025	0.000003	0.000025	-1.118736	-6.726906	49.295048
47306	1.153399	-0.147076	9.744814	-0.030458	0.031572	0.001151	1.000000	-0.000046	0.000021	0.000019	-1.119752	-6.725989	49.297541
47307	1.174865	-0.155411	9.736704	-0.009399	0.042265	-0.004223	1.000000	-0.000052	0.000015	0.000025	-1.117191	-6.728746	49.300738
47308	1.153113	-0.192195	9.711189	0.006381	0.004022	-0.031392	1.000000	-0.000059	0.000011	0.000023	-1.119771	-6.728979	49.303665
47309	1.163540	-0.175326	9.723974	0.000077	0.022024	-0.017804	1.000000	-0.000035	0.000021	0.000012	-1.114753	-6.724622	49.309437
47310	1.173810	-0.158369	9.736783	-0.007199	0.040094	-0.004212	1.000000	-0.000050	0.000027	0.000021	-1.116231	-6.722978	49.312099
47311	1.138722	-0.154796	9.713033	-0.029793	0.017239	-0.031967	1.000000	-0.000041	0.000015	0.000018	-1.110513	-6.723691	49.317112
47312	1.149116	-0.137867	9.725832	-0.037065	0.035302	-0.018369	1.000000	-0.000046	0.000021	0.000019	-1.111446	-6.722768	49.319604
47313	1.161848	-0.179051	9.724108	0.002290	0.018258	-0.017796	1.000000	-0.000057	0.000024	0.000018	-1.113585	-6.722757	49.320733
47314	1.159340	-0.165155	9.704989	-0.008263	0.027232	-0.037343	1.000000	-0.000053	0.000018	0.000017	-1.115281	-6.722246	49.322943
47315	1.193715	-0.170635	9.728796	0.016260	0.048247	-0.009578	1.000000	-0.000041	0.000012	0.000026	-1.115333	-6.719126	49.328519
47316	1.124027	-0.162475	9.681246	-0.030718	0.004851	-0.065103	1.000000	-0.000046	0.000024	0.000011	-1.116203	-6.717867	49.330012
47317	1.181845	-0.147316	9.749780	-0.009613	0.053307	0.009417	1.000000	-0.000046	0.000021	0.000019	-1.110764	-6.711728	49.338620
47318	1.179651	-0.176356	9.696968	0.015614	0.037039	-0.042721	1.000000	-0.000060	0.000021	0.000046	-1.113657	-6.710678	49.344146
47319	1.170382	-0.167417	9.737044	-0.000583	0.033316	-0.004184	1.000000	-0.000055	0.000008	0.000013	-1.113990	-6.708589	49.349832
47320	1.179039	-0.178493	9.697003	0.016957	0.035815	-0.042719	1.000000	-0.000039	0.000025	0.000022	-1.114129	-6.707186	49.352595
47321	1.128122	-0.169549	9.772507	-0.029275	-0.002439	0.026136	1.000000	-0.000041	0.000015	0.000018	-1.112754	-6.706419	49.356831
47322	1.177882	-0.137253	9.730795	-0.017684	0.059526	-0.010098	1.000000	-0.000043	0.000031	0.000023	-1.113399	-6.704290	49.359763
47323	1.166655	-0.156029	9.718043	-0.010018	0.040541	-0.023712	1.000000	-0.000053	0.000018	0.000017	-1.118865	-6.703344	49.360518
47324	1.168394	-0.171996	9.737203	0.001393	0.030164	-0.004173	1.000000	-0.000042	0.000018	0.000009	-1.119205	-6.702735	49.361829
47325	1.168012	-0.172994	9.737232	0.001870	0.027765	-0.004166	1.000000	-0.000056	0.000021	0.000027	-1.114677	-6.709156	49.361100
47326	1.135086	-0.184460	9.732589	-0.010425	-0.003961	-0.012401	1.000000	-0.000041	0.000015	0.000018	-1.115048	-6.708910	49.363413
47327	1.165349	-0.159950	9.718136	-0.007189	0.035306	-0.023689	1.000000	-0.000055	0.000008	0.000013	-1.109229	-6.708669	49.369528
47328	1.165090	-0.160859	9.718152	-0.006756	0.034600	-0.023686	1.000000	-0.000034	0.000018	0.000020	-1.108799	-6.708008	49.372122
47329	1.186583	-0.169086	9.710042	0.014862	0.046093	-0.029072	1.000000	-0.000052	0.000015	0.000025	-1.106614	-6.705106	49.379121
47330	1.142650	-0.155381	9.726330	-0.025500	0.020825	-0.018291	1.000000	-0.000041	0.000015	0.000018	-1.106924	-6.704832	49.381430
47331	1.174868	-0.145818	9.731034	-0.011787	0.051623	-0.010045	1.000000	-0.000046	0.000021	0.000019	-1.107090	-6.699524	49.389999
47332	1.163605	-0.164628	9.718267	-0.003663	0.032183	-0.023676	1.000000	-0.000054	0.000031	0.000031	-1.109006	-6.697383	49.393810
47333	1.154047	-0.155565	9.758389	-0.020203	0.027795	0.014876	1.000000	-0.000047	0.000027	0.000002	-1.107564	-6.697311	49.393101
47334	1.162753	-0.166432	9.718338	-0.002684	0.030340	-0.023670	1.000000	-0.000033	0.000002	0.000014	-1.106843	-6.698453	49.395064
47335	1.160400	-0.152354	9.699236	-0.012065	0.039732	-0.043184	1.000000	-0.000065	0.000026	-0.000001	-1.105745	-6.690567	49.401716
47336	1.153068	-0.158318	9.758460	-0.017678	0.026077	0.014885	1.000000	-0.000034	0.000015	0.000029	-1.105338	-6.690143	49.405292
47337	1.163834	-0.184216	9.737526	0.010893	0.018059	-0.004150	1.000000	-0.000041	0.000015	0.000018	-1.102047	-6.693524	49.406298
47338	1.174196	-0.167268	9.750382	0.003663	0.036083	0.009500	1.000000	-0.000039	0.000025	0.000022	-1.102067	-6.692081	49.409053
47339	1.139199	-0.163554	9.726601	-0.018892	0.013475	-0.018263	1.000000	-0.000048	0.000011	0.000015	-1.097606	-6.692033	49.413481
47340	1.169454	-0.139148	9.712196	-0.016739	0.053495	-0.029508	1.000000	-0.000060	0.000014	0.000014	-1.099877	-6.691804	49.415386
47341	1.171105	-0.155131	9.731344	-0.005312	0.042289	-0.009994	1.000000	-0.000032	0.000028	0.000024	-1.096242	-6.693628	49.417464
47342	1.170750	-0.156022	9.731372	-0.004859	0.041578	-0.009991	1.000000	-0.000055	0.000008	0.000013	-1.097988	-6.694136	49.419200
47343	1.137882	-0.167417	9.726689	-0.016574	0.009009	-0.018253	1.000000	-0.000038	0.000022	0.000030	-1.092360	-6.694696	49.422943
47344	1.170095	-0.157815	9.731422	-0.003406	0.039312	-0.009981	1.000000	-0.000041	0.000015	0.000018	-1.092558	-6.694398	49.425247
47345	1.157020	-0.161432	9.699493	-0.005678	0.029103	-0.043141	1.000000	-0.000048	0.000011	0.000015	-1.088839	-6.694344	49.429987
47346	1.156640	-0.162427	9.699522	-0.005220	0.028388	-0.043139	1.000000	-0.000050	0.000027	0.000021	-1.090037	-6.692604	49.432632
47347	1.169039	-0.160773	9.731501	-0.000638	0.036888	-0.009971	1.000000	-0.000052	0.000015	0.000025	-1.088897	-6.688343	49.441552
47348	1.168651	-0.161828	9.731530	-0.000174	0.036173	-0.009968	1.000000	-0.000050	0.000024	0.000029	-1.090153	-6.686898	49.445188
47349	1.157205	-0.137851	9.752538	-0.028596	0.042137	0.009101	1.000000	-0.000060	0.000014	0.000014	-1.097107	-6.688611	49.444847
47350	1.155241	-0.166661	9.699616	-0.003426	0.026026	-0.043131	1.000000	-0.000044	0.000008	0.000005	-1.097480	-6.689095	49.445698
47351	1.157000	-0.182461	9.718737	0.008303	0.015427	-0.023638	1.000000	-0.000028	0.000022	0.000023	-1.094425	-6.687774	49.448577
47352	1.145477	-0.158071	9.739764	-0.019295	0.021118	-0.004564	1.000000	-0.000039	0.000025	0.000022	-1.094364	-6.686325	49.451330
47353	1.186617	-0.158535	9.704444	0.009733	0.054081	-0.034834	1.000000	-0.000046	0.000021	0.000019	-1.097808	-6.692745	49.447854
47354	1.177502	-0.192349	9.710714	0.028888	0.024931	-0.029026	1.000000	-0.000053	0.000021	0.000008	-1.099216	-6.691826	49.449049
47355	1.142152	-0.145792	9.720775	-0.029760	0.028176	-0.024043	1.000000	-0.000038	0.000022	0.000030	-1.098100	-6.688695	49.455631
47356	1.167610	-0.184205	9.750868	0.013142	0.020308	0.009537	1.000000	-0.000050	0.000024	0.000029	-1.099397	-6.687279	49.459266
47357	1.160971	-0.140166	9.693635	-0.019147	0.048914	-0.048913	1.000000	-0.000068	0.000027	0.000017	-1.101543	-6.683711	49.464290
47358	1.142762	-0.163971	9.739986	-0.017003	0.016427	-0.004550	1.000000	-0.000028	0.000022	0.000023	-1.100225	-6.682588	49.467156
47359	1.153408	-0.189866	9.719022	0.011145	0.008402	-0.023632	1.000000	-0.000053	0.000021	0.000008	-1.099730	-6.687160	49.463423
47360	1.174574	-0.155335	9.744787	-0.003743	0.045084	0.003757	1.000000	-0.000041	0.000015	0.000018	-1.099923	-6.686875	49.465723
47361	1.154436	-0.163981	9.772030	-0.012723	0.021232	0.028632	1.000000	-0.000046	0.000021	0.000019	-1.096897	-6.691038	49.464261
47362	1.141162	-0.167609	9.740111	-0.015632	0.011554	-0.004541	1.000000	-0.000050	0.000027	0.000021	-1.098096	-6.689340	49.466906
47363	1.140745	-0.168543	9.740144	-0.014691	0.010906	-0.004539	1.000000	-0.000041	0.000015	0.000018	-1.096382	-6.686889	49.470769
47364	1.162203	-0.176710	9.732043	0.006148	0.022498	-0.009929	1.000000	-0.000038	0.000022	0.000030	-1.096372	-6.685813	49.474519
47365	1.183669	-0.184935	9.723941	0.027330	0.034608	-0.015323	1.000000	-0.000049	0.000014	0.000006	-1.097659	-6.681995	49.478502
47366	1.159595	-0.163538	9.712998	-0.003632	0.031321	-0.029399	1.000000	-0.000055	0.000008	0.000012	-1.099352	-6.682510	49.480229
47367	1.161457	-0.179623	9.732079	0.007523	0.019566	-0.009924	1.000000	-0.000041	0.000009	0.000035	-1.096286	-6.689954	49.479584
47368	1.150094	-0.155464	9.753114	-0.020065	0.025213	0.009180	1.000000	-0.000046	0.000021	0.000019	-1.096956	-6.688975	49.482056
47369	1.182525	-0.188730	9.724007	0.029218	0.030550	-0.015315	1.000000	-0.000039	0.000025	0.000022	-1.095499	-6.685542	49.487182
47370	1.158225	-0.167161	9.713100	-0.001747	0.027264	-0.029386	1.000000	-0.000046	0.000021	0.000019	-1.096165	-6.684550	49.489652
47371	1.146836	-0.142999	9.734144	-0.029418	0.032580	-0.010274	1.000000	-0.000041	0.000012	0.000026	-1.095529	-6.686391	49.492783
47372	1.157760	-0.168879	9.713126	-0.000916	0.025493	-0.029381	1.000000	-0.000040	0.000002	0.000003	-1.095348	-6.687647	49.493463
47373	1.157534	-0.169853	9.713135	0.000832	0.023736	-0.029377	1.000000	-0.000057	0.000021	0.000027	-1.087557	-6.686358	49.501170
47374	1.157111	-0.170727	9.713170	0.001297	0.023009	-0.029375	1.000000	-0.000028	0.000022	0.000023	-1.086143	-6.685278	49.504040
47375	1.154728	-0.156559	9.694129	-0.008975	0.032605	-0.048830	1.000000	-0.000063	0.000014	0.000033	-1.089656	-6.681274	49.511192
47376	1.178339	-0.180038	9.705078	0.022921	0.034447	-0.034768	1.000000	-0.000037	0.000009	0.000016	-1.089255	-6.681700	49.513317
47377	1.156041	-0.173564	9.713248	0.003623	0.020938	-0.029371	1.000000	-0.000048	0.000040	0.000016	-1.085571	-6.678261	49.516922
47378	1.146488	-0.164546	9.753390	-0.012879	0.016792	0.009210	1.000000	-0.000041	0.000012	0.000026	-1.085732	-6.678287	49.520211
47379	1.174857	-0.167669	9.686142	0.014631	0.041332	-0.054213	1.000000	-0.000055	0.000037	0.000014	-1.082874	-6.673715	49.524661
47380	1.167263	-0.173880	9.745352	0.009205	0.027412	0.003818	1.000000	-0.000046	0.000021	0.000019	-1.083457	-6.672688	49.527126
47381	1.140998	-0.137345	9.715391	-0.033326	0.033495	-0.029675	1.000000	-0.000057	0.000021	0.000027	-1.086144	-6.675374	49.527175
47382	1.146680	-0.183726	9.772592	0.000346	0.003453	0.028663	1.000000	-0.000041	0.000015	0.000017	-1.086220	-6.675082	49.529470
47383	1.131547	-0.172239	9.721583	-0.013175	0.003552	-0.023967	1.000000	-0.000064	0.000020	0.000016	-1.086510	-6.672543	49.534517
47384	1.141995	-0.155551	9.734521	-0.020362	0.021489	-0.010220	1.000000	-0.000038	0.000012	0.000007	-1.085996	-6.672637	49.535646
47385	1.174229	-0.146023	9.739343	-0.005794	0.051338	-0.001863	1.000000	-0.000046	0.000024	0.000011	-1.078630	-6.667862	49.542123
47386	1.161104	-0.149479	9.707397	-0.008727	0.041722	-0.035047	1.000000	-0.000041	0.000012	0.000026	-1.078730	-6.667862	49.545407
47387	1.162851	-0.165524	9.726465	0.003755	0.031172	-0.015608	1.000000	-0.000049	0.000014	0.000006	-1.075111	-6.664287	49.549780
47388	1.162658	-0.166336	9.726474	0.004242	0.030443	-0.015606	1.000000	-0.000033	0.000005	0.000006	-1.074028	-6.665062	49.550733
47389	1.162397	-0.167133	9.726492	0.005631	0.030023	-0.015606	1.000000	-0.000046	0.000021	0.000019	-1.071665	-6.659169	49.556843
47390	1.183986	-0.175386	9.718377	0.026482	0.041640	-0.021007	1.000000	-0.000044	0.000002	0.000022	-1.071981	-6.660249	49.559662
47391	1.162062	-0.169053	9.726499	0.006181	0.028431	-0.015601	1.000000	-0.000055	0.000008	0.000012	-1.074932	-6.662959	49.559611
47392	1.163749	-0.185210	9.745563	0.017757	0.017922	0.003828	1.000000	-0.000046	0.000024	0.000011	-1.075381	-6.661558	49.561073
47393	1.161330	-0.170886	9.726554	0.007800	0.026395	-0.015597	1.000000	-0.000035	0.000018	0.000020	-1.069515	-6.660957	49.562219
47394	1.160974	-0.171777	9.726581	0.008293	0.025665	-0.015595	1.000000	-0.000053	0.000018	0.000017	-1.070770	-6.660282	49.564387
47395	1.147570	-0.132671	9.728630	-0.030152	0.040759	-0.015841	1.000000	-0.000053	0.000018	0.000017	-1.070245	-6.660152	49.567700
47396	1.192829	-0.163492	9.731447	0.022147	0.054935	-0.007223	1.000000	-0.000046	0.000021	0.000019	-1.070733	-6.659073	49.570154
47397	1.159882	-0.174899	9.726656	0.011014	0.022604	-0.015590	1.000000	-0.000056	0.000015	0.000044	-1.065542	-6.657257	49.579153
47398	1.179409	-0.168097	9.699510	0.020769	0.044015	-0.040411	1.000000	-0.000041	0.000015	0.000017	-1.065486	-6.656887	49.581436
47399	1.159234	-0.176979	9.726695	0.011854	0.020052	-0.015586	1.000000	-0.000064	0.000020	0.000016	-1.064529	-6.661356	49.579837
47400	1.137063	-0.170592	9.734846	-0.008001	0.006962	-0.010181	1.000000	-0.000031	0.000015	0.000010	-1.063116	-6.661002	49.581245
47401	1.191148	-0.168317	9.731571	0.025220	0.048632	-0.007197	1.000000	-0.000042	0.000018	0.000009	-1.060892	-6.665790	49.577940
47402	1.158178	-0.179539	9.726774	0.013015	0.016899	-0.015581	1.000000	-0.000046	0.000021	0.000019	-1.061325	-6.664748	49.580399
47403	1.179360	-0.145260	9.752710	-0.001619	0.053586	0.011999	1.000000	-0.000060	0.000014	0.000014	-1.063095	-6.663166	49.584057
47404	1.177220	-0.173814	9.699675	0.023431	0.037731	-0.040391	1.000000	-0.000043	0.000031	0.000023	-1.063281	-6.660992	49.586972
47405	1.154887	-0.167390	9.707846	0.003366	0.024345	-0.034985	1.000000	-0.000046	0.000021	0.000019	-1.063538	-6.662054	49.588263
47406	1.167228	-0.165885	9.739867	0.007317	0.032431	-0.001783	1.000000	-0.000053	0.000021	0.000008	-1.064663	-6.661091	49.589440
47407	1.154306	-0.169253	9.707883	0.004441	0.023052	-0.034983	1.000000	-0.000032	-0.000004	0.000031	-1.064042	-6.661698	49.595862
47408	1.175890	-0.177561	9.699769	0.025288	0.034672	-0.040384	1.000000	-0.000061	0.000027	0.000028	-1.066335	-6.659936	49.599364
47409	1.186214	-0.160940	9.712772	0.017667	0.052820	-0.026582	1.000000	-0.000042	0.000018	0.000009	-1.069287	-6.659914	49.599766
47410	1.144195	-0.162335	9.748072	-0.011429	0.017554	0.003626	1.000000	-0.000045	0.000018	0.000028	-1.069812	-6.659187	49.603212
47411	1.161671	-0.140255	9.701939	-0.012958	0.048784	-0.040573	1.000000	-0.000046	0.000021	0.000019	-1.070901	-6.658789	49.607584
47412	1.152343	-0.173998	9.708032	0.006296	0.019608	-0.034976	1.000000	-0.000044	0.000034	0.000015	-1.071042	-6.656291	49.609502
47413	1.162749	-0.157288	9.721036	-0.001668	0.036623	-0.021165	1.000000	-0.000047	0.000002	0.000041	-1.072268	-6.664340	49.610196
47414	1.164546	-0.173403	9.740057	0.009934	0.026064	-0.001767	1.000000	-0.000041	0.000015	0.000017	-1.072220	-6.664038	49.612481
47415	1.160062	-0.144052	9.702076	-0.012162	0.045554	-0.040556	1.000000	-0.000059	0.000040	0.000024	-1.078136	-6.659594	49.614134
47416	1.163404	-0.175379	9.740158	0.010552	0.025177	-0.001765	1.000000	-0.000035	0.000021	0.000011	-1.077276	-6.658557	49.615711
47417	1.161017	-0.161010	9.721182	0.000018	0.034421	-0.021156	1.000000	-0.000046	0.000021	0.000019	-1.077967	-6.656459	49.620884
47418	1.149954	-0.179617	9.708213	0.008155	0.015065	-0.034969	1.000000	-0.000048	0.000008	0.000023	-1.078772	-6.656870	49.623869
47419	1.180224	-0.155006	9.694097	0.009867	0.053953	-0.045935	1.000000	-0.000039	0.000028	0.000013	-1.075517	-6.661802	49.622688
47420	1.138061	-0.156328	9.729396	-0.019224	0.018656	-0.015747	1.000000	-0.000038	0.000022	0.000030	-1.075303	-6.660714	49.626422
47421	1.159528	-0.164558	9.721300	0.001967	0.029890	-0.021142	1.000000	-0.000049	0.000014	0.000006	-1.072849	-6.660894	49.628996
47422	1.159186	-0.165679	9.721322	0.002457	0.029148	-0.021140	1.000000	-0.000064	0.000020	0.000015	-1.075344	-6.659972	49.631045
47423	1.146161	-0.169077	9.689340	-0.000419	0.019492	-0.054348	1.000000	-0.000030	0.000009	0.000027	-1.073084	-6.660506	49.632865
47424	1.136824	-0.159987	9.729481	-0.016797	0.015160	-0.015736	1.000000	-0.000034	0.000015	0.000029	-1.072342	-6.660137	49.636427
47425	1.156325	-0.152955	9.702386	-0.006672	0.036895	-0.040514	1.000000	-0.000046	0.000021	0.000019	-1.071981	-6.656317	49.640107
47426	1.147062	-0.186663	9.708423	0.012589	0.007712	-0.034966	1.000000	-0.000039	0.000025	0.000022	-1.071678	-6.654889	49.642845
47427	1.179299	-0.177259	9.713330	0.025417	0.037448	-0.026528	1.000000	-0.000048	0.000011	0.000015	-1.072107	-6.658627	49.642509
47428	1.157149	-0.170816	9.721476	0.005564	0.024335	-0.021128	1.000000	-0.000038	0.000022	0.000030	-1.071875	-6.657537	49.646240
47429	1.145865	-0.146650	9.742620	-0.021739	0.028932	-0.001885	1.000000	-0.000040	0.000002	0.000003	-1.067218	-6.662042	49.642921
47430	1.191297	-0.177591	9.745373	0.030568	0.043084	0.006693	1.000000	-0.000063	0.000014	0.000033	-1.069833	-6.661780	49.646953
47431	1.123930	-0.183927	9.716610	-0.005145	-0.009766	-0.029567	1.000000	-0.000034	0.000008	-0.000003	-1.067118	-6.661040	49.649214
47432	1.186811	-0.149031	9.707426	0.009619	0.061285	-0.032043	1.000000	-0.000054	0.000028	0.000039	-1.068719	-6.659245	49.653991
47433	1.188340	-0.165240	9.726453	0.021509	0.050426	-0.012670	1.000000	-0.000041	0.000015	0.000017	-1.066435	-6.659148	49.655570
47434	1.153469	-0.161198	9.702592	-0.001833	0.028556	-0.040484	1.000000	-0.000045	0.000018	0.000028	-1.066933	-6.658466	49.659012
47435	1.163950	-0.144652	9.715630	-0.008343	0.046825	-0.026631	1.000000	-0.000059	0.000011	0.000022	-1.067678	-6.654284	49.666485
47436	1.187391	-0.168229	9.726518	0.023631	0.048609	-0.012666	1.000000	-0.000038	0.000022	0.000030	-1.067411	-6.653178	49.670212
47437	1.165336	-0.161692	9.734655	0.002937	0.035706	-0.007262	1.000000	-0.000040	0.000002	0.000003	-1.071689	-6.656650	49.668699
47438	1.152629	-0.164938	9.702629	-0.000070	0.026223	-0.040477	1.000000	-0.000043	-0.000004	0.000039	-1.072083	-6.658447	49.673490
47439	1.150517	-0.150808	9.683648	-0.010122	0.034445	-0.059832	1.000000	-0.000064	0.000020	0.000015	-1.068439	-6.659248	49.676309
47440	1.173844	-0.174478	9.694540	0.021851	0.036227	-0.045872	1.000000	-0.000046	0.000024	0.000010	-1.068787	-6.657907	49.677764
47441	1.182325	-0.142524	9.688620	0.003431	0.062979	-0.051356	1.000000	-0.000041	0.000012	0.000026	-1.065738	-6.662736	49.678588
47442	1.140262	-0.143906	9.723876	-0.025602	0.027603	-0.021199	1.000000	-0.000039	0.000025	0.000022	-1.065386	-6.661336	49.681326
47443	1.172705	-0.177073	9.694631	0.023678	0.033597	-0.045867	1.000000	-0.000045	0.000018	0.000028	-1.065842	-6.656321	49.688499
47444	1.183148	-0.160306	9.707694	0.016540	0.051436	-0.031995	1.000000	-0.000034	0.000015	0.000028	-1.065050	-6.655946	49.692053
47445	1.128435	-0.164183	9.710919	-0.015605	0.006965	-0.035061	1.000000	-0.000060	0.000014	0.000014	-1.063805	-6.655907	49.694572
47446	1.184391	-0.177617	9.726717	0.029078	0.039708	-0.012640	1.000000	-0.000054	0.000027	-0.000009	-1.064749	-6.654313	49.693753
47447	1.147455	-0.158309	9.683892	-0.005631	0.027817	-0.059807	1.000000	-0.000038	0.000022	0.000030	-1.065734	-6.653602	49.696712
47448	1.159708	-0.156765	9.715949	-0.001613	0.035782	-0.026581	1.000000	-0.000039	0.000025	0.000022	-1.065378	-6.652180	49.699443
47449	1.161220	-0.172833	9.734955	0.010081	0.024403	-0.007232	1.000000	-0.000042	0.000018	0.000009	-1.062107	-6.654813	49.698965
47450	1.156918	-0.143264	9.697055	-0.011729	0.043399	-0.045915	1.000000	-0.000050	0.000027	0.000021	-1.063012	-6.653085	49.701580
47451	1.160295	-0.174742	9.735031	0.007363	-0.007506	-0.007202	1.000000	-0.000046	0.000021	0.000019	-0.963873	-6.801195	48.691118
47452	1.159693	-0.175695	9.735086	0.007832	-0.008391	-0.007203	1.000000	-0.000048	0.000040	0.000016	-0.964055	-6.798640	48.690761
47453	1.159281	-0.176574	9.735119	0.008317	-0.009243	-0.007204	1.000000	-0.000040	0.000002	0.000003	-0.963255	-6.800277	48.684224
47454	1.137238	-0.170268	9.743247	-0.011761	-0.022177	-0.001850	1.000000	-0.000064	0.000020	0.000015	-0.965277	-6.799974	48.683816
47455	1.136821	-0.171318	9.743277	-0.011319	-0.023086	-0.001852	1.000000	-0.000039	0.000022	0.000030	-0.964620	-6.799731	48.688274
47456	1.190879	-0.169251	9.740128	0.022938	0.018786	0.001387	1.000000	-0.000042	0.000015	0.000017	-0.964098	-6.800064	48.688101
47457	1.147206	-0.197927	9.722140	0.017458	-0.031457	-0.021162	1.000000	-0.000042	0.000015	0.000017	-0.963648	-6.800430	48.687512
47458	1.170199	-0.178889	9.767270	0.014298	-0.005174	0.026047	1.000000	-0.000044	0.000034	0.000015	-0.963318	-6.798594	48.686982
47459	1.157058	-0.182138	9.735281	0.011093	-0.014584	-0.007213	1.000000	-0.000048	0.000011	0.000015	-0.963505	-6.799388	48.688111
47460	1.133093	-0.160506	9.724454	-0.019965	-0.017374	-0.021162	1.000000	-0.000048	0.000011	0.000015	-0.963743	-6.800122	48.687647
47461	1.178385	-0.191313	9.727186	0.032613	-0.004305	-0.012572	1.000000	-0.000034	0.000015	0.000028	-0.962377	-6.800253	48.688138
47462	1.165126	-0.151913	9.729448	-0.005745	0.011560	-0.012555	1.000000	-0.000042	0.000015	0.000017	-0.961855	-6.800586	48.687964
47463	1.153998	-0.170553	9.716397	0.002002	-0.007953	-0.026519	1.000000	-0.000064	0.000020	0.000015	-0.964048	-6.800269	48.685430
47464	1.166306	-0.169367	9.748451	0.006158	-0.000342	0.006743	1.000000	-0.000045	0.000018	0.000027	-0.964113	-6.800210	48.686419
47465	1.175015	-0.179885	9.708339	0.023519	0.002330	-0.031875	1.000000	-0.000039	0.000025	0.000022	-0.963202	-6.799300	48.685954
47466	1.163521	-0.155841	9.729578	-0.003853	0.008044	-0.012551	1.000000	-0.000046	0.000021	0.000019	-0.963194	-6.798913	48.685951
47467	1.172302	-0.166366	9.689458	0.013492	0.010724	-0.051168	1.000000	-0.000042	0.000015	0.000017	-0.962579	-6.799170	48.685329
47468	1.160904	-0.142344	9.710690	-0.013878	0.016438	-0.031839	1.000000	-0.000046	0.000021	0.000019	-0.962571	-6.798783	48.685326
47469	1.149709	-0.160843	9.697637	-0.006151	-0.003051	-0.045814	1.000000	-0.000046	0.000021	0.000019	-0.962840	-6.798362	48.681411
47470	1.160135	-0.144282	9.710753	-0.012971	0.014710	-0.031835	1.000000	-0.000052	0.000015	0.000025	-0.963666	-6.798705	48.682108
47471	1.139921	-0.153187	9.737832	-0.022075	-0.008443	-0.007194	1.000000	-0.000042	0.000015	0.000017	-0.962992	-6.799309	48.688622
47472	1.174100	-0.159101	9.761772	0.002643	0.011192	0.020719	1.000000	-0.000042	0.000018	0.000009	-0.962397	-6.799313	48.687454
47473	1.159144	-0.147140	9.710828	-0.011600	0.012040	-0.031830	1.000000	-0.000064	0.000020	0.000015	-0.964640	-6.798972	48.683765
47474	1.149770	-0.181306	9.716703	0.007142	-0.017654	-0.026534	1.000000	-0.000069	0.000030	0.000008	-0.967103	-6.797619	48.682532
47475	1.146845	-0.124929	9.732157	-0.038520	0.016892	-0.012485	1.000000	-0.000071	0.000049	0.000006	-0.969983	-6.794092	48.678109
47476	1.148072	-0.184523	9.716844	0.008050	-0.019395	-0.026538	1.000000	-0.000118	0.000047	0.000006	-0.978051	-6.790745	48.676571
47477	1.171620	-0.098257	9.849699	-0.054282	0.047062	0.106676	1.000000	-0.000194	0.000080	0.000043	-0.995318	-6.783578	48.680525
47478	1.110380	-0.232331	9.658745	0.019830	-0.066889	-0.087802	1.000000	-0.000554	0.000146	0.000099	-1.054604	-6.768711	48.689454
47479	1.118919	-0.264452	9.637595	0.048123	-0.074365	-0.107158	1.000000	-0.000187	0.000112	-0.000001	-1.070394	-6.758051	48.688740
47480	1.160468	-0.102365	9.831688	-0.063848	0.054552	0.087423	1.000000	-0.000297	0.000346	-0.000221	-1.095822	-6.720935	48.660394
47481	0.960980	-0.505119	9.362678	0.153069	-0.331599	-0.394357	0.999999	0.000859	-0.000601	0.000092	-0.993109	-6.791611	48.671768
47482	1.216778	-0.107018	9.727293	-0.001390	0.053389	-0.009165	0.999995	0.002655	-0.001910	0.000417	-0.689484	-7.011810	48.721018
47483	1.475421	0.308844	10.233477	-0.181990	0.447959	0.519907	1.000000	-0.000038	0.000084	-0.000033	-0.687802	-7.004225	48.715186
47484	1.588154	0.135109	9.678253	0.072351	0.468842	-0.015545	1.000000	-0.000400	0.000370	-0.000104	-0.726598	-6.964067	48.700447
47485	0.821105	-0.680699	9.331876	0.209906	-0.598212	-0.441481	0.999999	-0.001059	0.000711	-0.000113	-0.840787	-6.885091	48.685912
47486	1.078141	-0.016889	9.942081	-0.176823	-0.006280	0.186130	1.000000	0.000037	-0.000008	0.000033	-0.831433	-6.887984	48.687546
47487	1.160190	-0.128106	9.749901	-0.021861	-0.003982	0.006810	1.000000	-0.000042	0.000015	0.000017	-0.830799	-6.888291	48.687926
47488	1.214347	-0.126008	9.746726	0.012438	0.037853	0.010123	1.000000	-0.000030	0.000012	0.000018	-0.829003	-6.888940	48.687869
47489	1.201197	-0.086613	9.748999	-0.025907	0.053755	0.010235	1.000000	-0.000048	0.000011	0.000015	-0.829299	-6.889630	48.685694
47490	1.188369	-0.132460	9.682731	0.005914	0.019265	-0.056426	1.000000	-0.000057	0.000021	0.000027	-0.830637	-6.889252	48.686567
47491	1.222477	-0.138703	9.706653	0.030693	0.038828	-0.028498	1.000000	-0.000057	0.000021	0.000027	-0.831798	-6.888844	48.688140
47492	1.187538	-0.134723	9.682801	0.006878	0.017489	-0.056423	1.000000	-0.000049	0.000021	0.000038	-0.832453	-6.888396	48.690294
47493	1.176313	-0.153154	9.669762	0.014630	-0.002015	-0.070447	1.000000	-0.000035	0.000021	0.000011	-0.830978	-6.887948	48.688933
47494	1.179550	-0.142021	9.741972	0.002030	0.001860	0.001462	1.000000	-0.000038	0.000016	0.000047	-0.830436	-6.888150	48.692194
47495	1.179190	-0.143086	9.742000	0.002493	0.000971	0.001462	1.000000	-0.000064	0.000020	0.000015	-0.832482	-6.887889	48.691863
47496	1.178841	-0.144152	9.742027	0.002964	0.000086	0.001462	1.000000	-0.000042	0.000015	0.000017	-0.831959	-6.888219	48.691688
47497	1.187841	-0.154668	9.701869	0.020268	0.002849	-0.037171	1.000000	-0.000047	-0.000005	0.000009	-0.831767	-6.890713	48.689911
47498	1.165894	-0.148241	9.710004	0.000188	-0.010081	-0.031821	1.000000	-0.000045	0.000018	0.000027	-0.831833	-6.890654	48.690900
47499	1.198155	-0.138950	9.714991	0.013917	0.019691	-0.023135	1.000000	-0.000042	0.000018	0.000009	-0.831371	-6.890797	48.690806
47500	1.210479	-0.137644	9.747050	0.018139	0.027190	0.010149	1.000000	-0.000053	0.000021	0.000008	-0.832045	-6.890477	48.689523
47501	1.199262	-0.156299	9.733990	0.025868	0.007686	-0.003891	1.000000	-0.000057	0.000021	0.000026	-0.833334	-6.890130	48.690740
47502	1.186151	-0.159650	9.701995	0.022584	-0.001575	-0.037175	1.000000	-0.000053	0.000021	0.000008	-0.834008	-6.889809	48.689456
47503	1.185729	-0.118181	9.736338	-0.011986	0.022737	-0.003735	1.000000	-0.000044	0.000002	0.000022	-0.833873	-6.891419	48.684575
47504	1.187520	-0.176776	9.720956	0.034542	-0.013548	-0.017940	1.000000	-0.000039	0.000028	0.000013	-0.833028	-6.890297	48.683875
47505	1.174150	-0.137548	9.723306	-0.003800	0.002353	-0.017780	1.000000	-0.000057	0.000021	0.000026	-0.834347	-6.889981	48.685304
47506	1.193752	-0.130676	9.696272	0.006211	0.023756	-0.042364	1.000000	-0.000048	0.000011	0.000015	-0.834584	-6.890710	48.684834
47507	1.162700	-0.157109	9.710247	0.004399	-0.017994	-0.031833	1.000000	-0.000046	0.000021	0.000019	-0.834600	-6.890167	48.680164
47508	1.214722	-0.097464	9.722546	-0.007320	0.059218	-0.014249	1.000000	-0.000041	0.000012	0.000026	-0.834154	-6.890828	48.680976
47509	1.170969	-0.126059	9.704487	-0.012897	0.009071	-0.037009	1.000000	-0.000046	0.000021	0.000019	-0.833992	-6.890441	48.681319
47510	1.172430	-0.142250	9.723446	-0.001415	-0.002059	-0.017779	1.000000	-0.000039	0.000022	0.000030	-0.833300	-6.889982	48.682597
47511	1.172001	-0.143069	9.723486	-0.000948	-0.002912	-0.017779	1.000000	-0.000039	0.000022	0.000030	-0.832737	-6.889399	48.678673
47512	1.160803	-0.161536	9.710402	0.006759	-0.022393	-0.031843	1.000000	-0.000053	0.000018	0.000016	-0.833488	-6.889408	48.678376
47513	1.171257	-0.144903	9.723548	0.000023	-0.004674	-0.017780	1.000000	-0.000035	0.000018	0.000020	-0.832092	-6.889197	48.675251
47514	1.179990	-0.155298	9.683416	0.017266	-0.001854	-0.056421	1.000000	-0.000046	0.000021	0.000019	-0.832083	-6.888806	48.675247
47515	1.150576	-0.154579	9.750657	-0.008600	-0.028761	0.006790	1.000000	-0.000042	0.000015	0.000017	-0.831597	-6.889304	48.677393
47516	1.179402	-0.156988	9.683461	0.018179	-0.003632	-0.056423	1.000000	-0.000037	0.000009	0.000016	-0.830563	-6.890353	48.677040
47517	1.179108	-0.157834	9.683483	0.018658	-0.004517	-0.056424	1.000000	-0.000046	0.000021	0.000019	-0.830493	-6.889940	48.676105
47518	1.160632	-0.182114	9.729467	0.020604	-0.037971	-0.012642	1.000000	-0.000053	0.000021	0.000008	-0.831168	-6.889617	48.674818
47519	1.169164	-0.150206	9.723720	0.002836	-0.010022	-0.017784	1.000000	-0.000042	0.000021	0.000000	-0.830369	-6.889370	48.674905
47520	1.199480	-0.125657	9.709853	0.005614	0.029996	-0.028268	1.000000	-0.000054	0.000024	-0.000001	-0.830967	-6.888714	48.672627
47521	1.179039	-0.134656	9.736937	-0.003435	0.006812	-0.003705	1.000000	-0.000050	0.000027	0.000021	-0.831457	-6.887489	48.669261
47522	1.156819	-0.170630	9.710721	0.011484	-0.031248	-0.031872	1.000000	-0.000044	0.000034	0.000015	-0.831126	-6.885647	48.668732
47523	1.176003	-0.121176	9.718150	-0.013535	0.015284	-0.022913	1.000000	-0.000046	0.000024	0.000010	-0.831002	-6.885154	48.672533
47524	1.164871	-0.139525	9.705037	-0.005841	-0.004183	-0.036999	1.000000	-0.000037	0.000009	0.000016	-0.829969	-6.886202	48.672178
47525	1.167988	-0.128649	9.777291	-0.018315	-0.000514	0.034943	1.000000	-0.000044	0.000034	0.000015	-0.829532	-6.884377	48.672110
47526	1.144151	-0.149327	9.732130	-0.014422	-0.028285	-0.012446	1.000000	-0.000055	0.000002	0.000029	-0.830684	-6.886168	48.673322
47527	1.174672	-0.124706	9.718266	-0.011634	0.011753	-0.022906	1.000000	-0.000028	0.000022	0.000022	-0.828665	-6.885613	48.670668
47528	1.176130	-0.140649	9.737204	-0.000142	0.000584	-0.003702	1.000000	-0.000027	0.000019	0.000031	-0.826702	-6.885475	48.672061
47529	1.161263	-0.128124	9.686293	-0.014532	0.001674	-0.056202	1.000000	-0.000034	0.000015	0.000028	-0.825555	-6.885951	48.676870
47530	1.173688	-0.126660	9.718359	-0.010256	0.009082	-0.022901	1.000000	-0.000030	0.000009	0.000027	-0.823838	-6.886932	48.677796
47531	1.162665	-0.144910	9.705222	-0.002569	-0.010349	-0.037003	1.000000	-0.000041	0.000012	0.000026	-0.823495	-6.887460	48.673705
47532	1.173145	-0.128253	9.718404	-0.009313	0.007346	-0.022899	1.000000	-0.000039	0.000022	0.000030	-0.822805	-6.887001	48.674980
47533	1.162087	-0.146436	9.705268	-0.001647	-0.012094	-0.037004	1.000000	-0.000026	0.000003	0.000025	-0.820719	-6.888683	48.673278
47534	1.192627	-0.121876	9.691422	0.001141	0.027938	-0.047438	1.000000	-0.000064	0.000021	0.000015	-0.822744	-6.888369	48.672858
47535	1.161617	-0.148327	9.705296	-0.000695	-0.013877	-0.037007	1.000000	-0.000029	0.000003	0.000044	-0.821040	-6.890048	48.676914
47536	1.159530	-0.133829	9.686423	-0.011253	-0.004456	-0.056199	1.000000	-0.000053	0.000021	0.000008	-0.821716	-6.889722	48.675623
47537	1.193594	-0.140176	9.710380	0.013571	0.014982	-0.028242	1.000000	-0.000057	0.000021	0.000026	-0.823197	-6.889370	48.675203
47538	1.171340	-0.133849	9.718546	-0.006514	0.002059	-0.022894	1.000000	-0.000046	0.000024	0.000010	-0.823113	-6.888645	48.674205
47539	1.149181	-0.127543	9.726701	-0.026621	-0.010889	-0.017547	1.000000	-0.000059	0.000011	0.000022	-0.824709	-6.889577	48.678510
47540	1.179582	-0.103294	9.712891	-0.023831	0.029147	-0.027958	1.000000	-0.000061	0.000027	0.000028	-0.826565	-6.888476	48.679545
47541	1.172041	-0.152504	9.737518	0.005944	-0.010964	-0.003710	1.000000	-0.000038	0.000015	-0.000001	-0.825055	-6.888870	48.679248
47542	1.189823	-0.130143	9.691659	0.004905	0.020821	-0.047421	1.000000	-0.000064	0.000021	0.000015	-0.827082	-6.888555	48.678825
47543	1.158634	-0.156786	9.705520	0.003034	-0.021004	-0.037020	1.000000	-0.000053	0.000021	0.000008	-0.827768	-6.888412	48.681187
47544	1.169133	-0.140324	9.718721	-0.003699	-0.003324	-0.022893	1.000000	-0.000049	0.000011	0.000015	-0.828008	-6.889138	48.680708
47545	1.158030	-0.158818	9.705559	0.003965	-0.022800	-0.037024	1.000000	-0.000053	0.000018	0.000016	-0.828672	-6.889318	48.684570
47546	1.211971	-0.114898	9.737003	0.003385	0.044042	0.000026	1.000000	-0.000060	0.000014	0.000014	-0.830186	-6.889723	48.683972
47547	1.157359	-0.160949	9.705604	0.004932	-0.024532	-0.037029	1.000000	-0.000039	0.000022	0.000030	-0.829475	-6.888995	48.677769
47548	1.191329	-0.167094	9.729579	0.029796	-0.005141	-0.009067	1.000000	-0.000043	0.000028	0.000032	-0.829299	-6.887817	48.679216
47549	1.179849	-0.143067	9.750941	0.002497	0.000502	0.010416	1.000000	-0.000035	0.000021	0.000011	-0.828084	-6.887443	48.677468
47550	1.166833	-0.145925	9.718915	-0.000876	-0.008610	-0.022896	1.000000	-0.000038	0.000016	0.000047	-0.827550	-6.887651	48.680718
47551	1.142834	-0.124230	9.708202	-0.032004	-0.011183	-0.036720	1.000000	-0.000064	0.000021	0.000015	-0.829664	-6.887278	48.677660
47552	1.189695	-0.170799	9.729715	0.031652	-0.008654	-0.009075	1.000000	-0.000039	0.000022	0.000030	-0.828976	-6.886820	48.678931
47553	1.165757	-0.148943	9.718998	0.000536	-0.011204	-0.022898	1.000000	-0.000048	0.000008	0.000023	-0.829402	-6.887676	48.673161
47554	1.176482	-0.174742	9.697689	0.028748	-0.018603	-0.042393	1.000000	-0.000046	0.000018	0.000027	-0.829474	-6.887616	48.674138
47555	1.176010	-0.133362	9.732239	-0.005684	0.005553	-0.008750	1.000000	-0.000041	0.000012	0.000026	-0.828810	-6.888307	48.676539
47556	1.188372	-0.174572	9.729809	0.033566	-0.012189	-0.009085	1.000000	-0.000054	0.000034	0.000022	-0.829831	-6.886474	48.676875
47557	1.173616	-0.162306	9.678904	0.019123	-0.010902	-0.061563	1.000000	-0.000050	-0.000004	0.000027	-0.830661	-6.888902	48.673805
47558	1.175270	-0.178751	9.697763	0.030631	-0.022131	-0.042406	1.000000	-0.000053	0.000021	0.000008	-0.831339	-6.888572	48.672509
47559	1.203667	-0.138763	9.665194	0.022403	0.028300	-0.071910	1.000000	-0.000037	0.000040	0.000009	-0.830271	-6.885851	48.666112
47560	1.174134	-0.180552	9.697867	0.031570	-0.023868	-0.042413	1.000000	-0.000052	0.000015	0.000025	-0.831103	-6.886188	48.666792
47561	1.182692	-0.148627	9.692266	0.013789	0.004170	-0.047409	1.000000	-0.000040	0.000031	0.000004	-0.830400	-6.884775	48.664325
47562	1.182219	-0.149434	9.692312	0.014258	0.003289	-0.047409	1.000000	-0.000042	0.000018	0.000009	-0.829805	-6.884767	48.663149
47563	1.183715	-0.165741	9.711186	0.025731	-0.007981	-0.028258	1.000000	-0.000049	0.000015	0.000006	-0.830022	-6.885443	48.667915
47564	1.172253	-0.141794	9.732573	-0.001530	-0.002357	-0.008747	1.000000	-0.000040	0.000034	-0.000004	-0.829025	-6.883649	48.665230
47565	1.169784	-0.127322	9.713791	-0.012108	0.007124	-0.027896	1.000000	-0.000054	0.000034	0.000022	-0.830072	-6.881818	48.664836
47566	1.160231	-0.161140	9.719465	0.006578	-0.022664	-0.022920	1.000000	-0.000039	0.000022	0.000030	-0.829386	-6.881360	48.666104
47567	1.157886	-0.104312	9.735226	-0.038922	0.011853	-0.008375	1.000000	-0.000042	0.000015	0.000017	-0.828946	-6.881824	48.668314
47568	1.179483	-0.154755	9.692561	0.017003	-0.002034	-0.047413	1.000000	-0.000039	0.000025	0.000021	-0.828182	-6.881032	48.668593
47569	1.180758	-0.128825	9.746016	-0.006420	0.011760	0.005430	1.000000	-0.000049	0.000011	0.000015	-0.828656	-6.881891	48.669775
47570	1.147927	-0.139759	9.740918	-0.019338	-0.019698	-0.003406	1.000000	-0.000037	0.000009	0.000016	-0.827627	-6.882936	48.669411
47571	1.169533	-0.147943	9.732809	0.001715	-0.008546	-0.008750	1.000000	-0.000041	0.000012	0.000026	-0.827069	-6.883497	48.667489
47572	1.169299	-0.148864	9.732823	0.002186	-0.009431	-0.008751	1.000000	-0.000049	0.000011	0.000015	-0.827313	-6.884220	48.667004
47573	1.179918	-0.132306	9.746071	-0.004498	0.008211	0.005435	1.000000	-0.000037	0.000009	0.000016	-0.826219	-6.885259	48.666143
47574	1.168920	-0.150554	9.732842	0.003135	-0.011206	-0.008753	1.000000	-0.000041	0.000009	0.000034	-0.825858	-6.886253	48.667929
47575	1.177825	-0.118475	9.727250	-0.014628	0.016795	-0.013697	1.000000	-0.000033	0.000002	0.000014	-0.824302	-6.888216	48.671765
47576	1.201207	-0.142257	9.737976	0.017453	0.017565	0.000095	1.000000	-0.000064	0.000021	0.000015	-0.826332	-6.887896	48.671332
47577	1.175541	-0.105050	9.708452	-0.024738	0.025411	-0.032824	1.000000	-0.000037	0.000006	0.000024	-0.825360	-6.889289	48.671418
47578	1.199100	-0.128645	9.719156	0.007344	0.026177	-0.019034	1.000000	-0.000040	-0.000001	0.000011	-0.824577	-6.891452	48.670583
47579	1.178857	-0.137572	9.746127	-0.001696	0.002849	0.005439	1.000000	-0.000046	0.000024	0.000010	-0.824456	-6.890826	48.671523
47580	1.187760	-0.147948	9.705945	0.015434	0.005868	-0.033231	1.000000	-0.000055	0.000005	0.000021	-0.825538	-6.892281	48.671729
47581	1.198568	-0.131500	9.719184	0.008740	0.023502	-0.019028	1.000000	-0.000040	-0.000004	0.000020	-0.824844	-6.894842	48.672864
47582	1.198581	-0.132361	9.719171	0.009210	0.022619	-0.019026	1.000000	-0.000044	0.000002	0.000022	-0.824653	-6.896619	48.673191
47583	1.187530	-0.150867	9.705929	0.016833	0.003217	-0.033232	1.000000	-0.000064	0.000021	0.000015	-0.826704	-6.896287	48.671556
47584	1.208962	-0.159296	9.697833	0.037861	0.014372	-0.038575	1.000000	-0.000042	0.000018	0.000009	-0.826110	-6.896277	48.670376
47585	1.195862	-0.119909	9.700423	-0.000444	0.030375	-0.038142	1.000000	-0.000042	0.000015	0.000017	-0.825633	-6.896624	48.669195
47586	1.199120	-0.151764	9.738089	0.022144	0.008684	0.000097	1.000000	-0.000053	0.000018	0.000016	-0.826391	-6.896626	48.668882
47587	1.196914	-0.137367	9.719306	0.011515	0.018194	-0.019020	1.000000	-0.000050	0.000024	0.000029	-0.827113	-6.896052	48.673840
47588	1.216450	-0.130267	9.692411	0.021482	0.039756	-0.043475	1.000000	-0.000043	0.000025	0.000040	-0.827021	-6.895209	48.676268
47589	1.185146	-0.156680	9.706128	0.019626	-0.002101	-0.033237	1.000000	-0.000046	0.000021	0.000019	-0.826868	-6.894778	48.674428
47590	1.175464	-0.148227	9.746380	0.003454	-0.006919	0.005436	1.000000	-0.000039	0.000028	0.000013	-0.826027	-6.893651	48.673718
47591	1.216884	-0.148454	9.711356	0.033985	0.026693	-0.024357	1.000000	-0.000052	0.000015	0.000025	-0.826890	-6.893920	48.671286
47592	1.196593	-0.157455	9.738310	0.024959	0.003357	0.000094	1.000000	-0.000038	0.000012	0.000007	-0.825783	-6.894630	48.669930
47593	1.152743	-0.143575	9.754572	-0.015706	-0.021601	0.010774	1.000000	-0.000049	0.000012	0.000015	-0.826110	-6.895427	48.669792
47594	1.194384	-0.143845	9.719524	0.014818	0.012005	-0.019015	1.000000	-0.000048	0.000008	0.000023	-0.826433	-6.896483	48.670290
47595	1.173901	-0.152924	9.746496	0.005799	-0.011349	0.005431	1.000000	-0.000048	0.000037	0.000025	-0.826631	-6.894285	48.670718
47596	1.171462	-0.138571	9.727753	-0.004795	-0.001810	-0.013674	1.000000	-0.000061	0.000030	0.000019	-0.828416	-6.892846	48.670750
47597	1.171012	-0.139673	9.727791	-0.004358	-0.002706	-0.013674	1.000000	-0.000045	0.000015	0.000036	-0.828675	-6.893299	48.675923
47598	1.180046	-0.149897	9.687587	0.012740	0.000371	-0.052352	1.000000	-0.000044	0.000002	0.000021	-0.828486	-6.895076	48.676245
47599	1.192473	-0.148859	9.719683	0.017146	0.007559	-0.019014	1.000000	-0.000042	0.000015	0.000017	-0.827935	-6.895401	48.674967
47600	1.170402	-0.142399	9.727825	-0.002942	-0.005361	-0.013674	1.000000	-0.000049	0.000012	0.000015	-0.828181	-6.896123	48.674476
47601	1.191888	-0.150732	9.719726	0.018077	0.005810	-0.019014	1.000000	-0.000046	0.000021	0.000019	-0.828301	-6.895679	48.671475
47602	1.155295	-0.130604	9.677000	-0.017020	-0.004736	-0.066109	1.000000	-0.000035	0.000021	0.000011	-0.826948	-6.895271	48.670589
47603	1.189345	-0.136853	9.701000	0.007930	0.014487	-0.038108	1.000000	-0.000042	0.000015	0.000017	-0.826541	-6.895638	48.670158
47604	1.178040	-0.112943	9.722448	-0.019288	0.020069	-0.018518	1.000000	-0.000042	0.000018	0.000009	-0.825948	-6.895627	48.668974
47605	1.166703	-0.131064	9.709202	-0.011694	0.000684	-0.032767	1.000000	-0.000033	0.000034	0.000007	-0.824264	-6.893798	48.667084
47606	1.178748	-0.129909	9.741351	-0.007278	0.007853	0.000576	1.000000	-0.000039	0.000022	0.000030	-0.823582	-6.893341	48.668347
47607	1.165740	-0.132735	9.709295	-0.010749	-0.001075	-0.032766	1.000000	-0.000053	0.000021	0.000008	-0.824258	-6.892964	48.664537
47608	1.167179	-0.149180	9.728111	0.000792	-0.012407	-0.013680	1.000000	-0.000041	0.000012	0.000026	-0.823823	-6.893623	48.665328
47609	1.165091	-0.134590	9.709347	-0.009806	-0.002852	-0.032765	1.000000	-0.000046	0.000021	0.000019	-0.823751	-6.893268	48.665405
47610	1.186423	-0.142829	9.701272	0.011224	0.008299	-0.038104	1.000000	-0.000039	0.000028	0.000013	-0.822912	-6.892139	48.664692
47611	1.174990	-0.118959	9.722745	-0.016018	0.013880	-0.018502	1.000000	-0.000046	0.000018	0.000027	-0.823153	-6.892176	48.666823
47612	1.163774	-0.137383	9.709466	-0.008430	-0.005493	-0.032765	1.000000	-0.000057	0.000021	0.000026	-0.824506	-6.891791	48.667665
47613	1.186854	-0.161176	9.720174	0.023673	-0.004813	-0.019026	1.000000	-0.000032	0.000028	0.000024	-0.822947	-6.890664	48.668657
47614	1.197070	-0.144652	9.733552	0.017028	0.012791	-0.004758	1.000000	-0.000047	0.000034	0.000033	-0.823292	-6.888766	48.670267
47615	1.151158	-0.115426	9.731060	-0.034737	-0.001685	-0.013156	1.000000	-0.000053	0.000021	0.000008	-0.824197	-6.888513	48.669544
47616	1.163509	-0.156723	9.728432	0.004485	-0.019484	-0.013693	1.000000	-0.000053	0.000018	0.000016	-0.824958	-6.888512	48.669222
47617	1.139566	-0.134845	9.717802	-0.026693	-0.021937	-0.027429	1.000000	-0.000046	0.000021	0.000019	-0.824992	-6.888159	48.669419
47618	1.171699	-0.125838	9.723056	-0.012774	0.007698	-0.018490	1.000000	-0.000051	0.000031	0.000012	-0.825427	-6.886705	48.668581
47619	1.194870	-0.149608	9.733747	0.019344	0.008387	-0.004757	1.000000	-0.000037	0.000009	0.000016	-0.824409	-6.887676	48.665286
47620	1.149274	-0.120214	9.731225	-0.032387	-0.006090	-0.013150	1.000000	-0.000049	0.000015	0.000006	-0.824578	-6.888059	48.663802
47621	1.192604	-0.136044	9.715009	0.009237	0.017090	-0.023824	1.000000	-0.000056	0.000015	0.000043	-0.825952	-6.888234	48.662538
47622	1.168687	-0.114048	9.704389	-0.021936	0.014654	-0.037551	1.000000	-0.000028	0.000022	0.000022	-0.823919	-6.887765	48.662933
47623	1.171805	-0.145911	9.741962	0.000711	-0.007184	0.000579	1.000000	-0.000053	0.000015	0.000025	-0.824707	-6.888024	48.660403
47624	1.167945	-0.115996	9.704455	-0.020981	0.012897	-0.037546	1.000000	-0.000057	0.000024	0.000018	-0.825982	-6.887301	48.660253
47625	1.158564	-0.149994	9.709903	-0.002324	-0.016953	-0.032775	1.000000	-0.000055	0.000005	0.000020	-0.827014	-6.888756	48.659578
47626	1.169134	-0.133679	9.723260	-0.008953	0.000640	-0.018483	1.000000	-0.000046	0.000021	0.000019	-0.827016	-6.888358	48.659552
47627	1.167106	-0.119121	9.704518	-0.019571	0.010261	-0.037540	1.000000	-0.000048	0.000008	0.000023	-0.827425	-6.889376	48.658254
47628	1.157785	-0.153019	9.709948	-0.000924	-0.019586	-0.032780	1.000000	-0.000056	0.000014	-0.000005	-0.828274	-6.889816	48.655483
47629	1.168203	-0.136561	9.723332	-0.007540	-0.001966	-0.018482	1.000000	-0.000032	0.000028	0.000024	-0.826828	-6.888462	48.651156
47630	1.167770	-0.137325	9.723373	-0.007070	-0.002849	-0.018482	1.000000	-0.000038	0.000015	0.000047	-0.826307	-6.888677	48.654388
47631	1.156643	-0.155623	9.710043	0.000491	-0.022225	-0.032785	1.000000	-0.000056	0.000014	-0.000005	-0.827075	-6.889213	48.653199
47632	1.167130	-0.139414	9.723420	-0.006130	-0.004638	-0.018482	1.000000	-0.000057	0.000021	0.000026	-0.828430	-6.888826	48.654035
47633	1.144935	-0.133153	9.731568	-0.026226	-0.017572	-0.013145	1.000000	-0.000053	0.000018	0.000016	-0.829108	-6.888931	48.655847
47634	1.188234	-0.148865	9.715357	0.015373	0.005600	-0.023819	1.000000	-0.000042	0.000015	0.000017	-0.828597	-6.889252	48.655645
47635	1.155356	-0.159736	9.710129	0.002349	-0.025800	-0.032794	1.000000	-0.000048	0.000008	0.000023	-0.828911	-6.890476	48.659999
47636	1.164076	-0.127814	9.704771	-0.015357	0.002289	-0.037527	1.000000	-0.000043	0.000031	0.000023	-0.828666	-6.888961	48.660444
47637	1.177909	-0.142617	9.755674	0.000205	-0.001158	0.014875	1.000000	-0.000060	0.000014	0.000013	-0.830145	-6.889398	48.659966
47638	1.177742	-0.143671	9.755679	0.000677	-0.002045	0.014875	1.000000	-0.000044	0.000002	0.000021	-0.829960	-6.891173	48.660278
47639	1.153992	-0.163719	9.710225	0.004206	-0.029346	-0.032805	1.000000	-0.000047	0.000034	0.000033	-0.830377	-6.889376	48.663834
47640	1.195235	-0.121771	9.710150	-0.000019	0.029236	-0.028538	1.000000	-0.000035	0.000018	0.000020	-0.829105	-6.889302	48.663929
47641	1.162262	-0.132495	9.704926	-0.013040	-0.002158	-0.037524	1.000000	-0.000042	0.000015	0.000017	-0.828548	-6.889755	48.666590
47642	1.163593	-0.148931	9.723703	-0.001477	-0.013558	-0.018488	1.000000	-0.000046	0.000024	0.000010	-0.828471	-6.889019	48.665574
47643	1.163146	-0.149861	9.723742	-0.001000	-0.014451	-0.018489	1.000000	-0.000046	0.000021	0.000019	-0.828400	-6.888635	48.665057
47644	1.184458	-0.116247	9.750525	-0.014688	0.021575	0.010169	1.000000	-0.000053	0.000015	0.000025	-0.829243	-6.888969	48.665716
47645	1.162555	-0.151791	9.723783	-0.000096	-0.016240	-0.018492	1.000000	-0.000037	0.000009	0.000015	-0.828301	-6.890254	48.671306
47646	1.173099	-0.135390	9.737185	-0.006705	0.001328	-0.004160	1.000000	-0.000053	0.000021	0.000008	-0.828985	-6.889913	48.669990
47647	1.171037	-0.120784	9.718478	-0.017326	0.010952	-0.023187	1.000000	-0.000042	0.000015	0.000017	-0.828372	-6.890294	48.670459
47648	1.181747	-0.146439	9.696995	0.010783	0.003652	-0.042858	1.000000	-0.000052	0.000012	0.000033	-0.829296	-6.890965	48.672104
47649	1.161378	-0.155593	9.723863	0.001784	-0.019790	-0.018499	1.000000	-0.000042	0.000015	0.000017	-0.828821	-6.891286	48.671219
47650	1.170089	-0.123664	9.718556	-0.015919	0.008308	-0.023182	1.000000	-0.000050	0.000028	0.000020	-0.829338	-6.890166	48.671363
47651	1.191454	-0.131973	9.710481	0.005113	0.019441	-0.028515	1.000000	-0.000042	0.000018	0.000009	-0.828683	-6.890227	48.671241
47652	1.189489	-0.117319	9.691772	-0.005518	0.029095	-0.047535	1.000000	-0.000048	0.000008	0.000023	-0.829014	-6.891281	48.671724
47653	1.205140	-0.147811	9.761373	0.021193	0.015029	0.023873	1.000000	-0.000057	0.000021	0.000026	-0.830293	-6.890916	48.672338
47654	1.170310	-0.143142	9.737410	-0.002930	-0.005793	-0.004159	1.000000	-0.000039	0.000028	0.000013	-0.829457	-6.889784	48.671619
47655	1.190125	-0.135798	9.710591	0.007019	0.015905	-0.028510	1.000000	-0.000044	0.000002	0.000021	-0.829225	-6.891458	48.668997
47656	1.178965	-0.153934	9.697218	0.014556	-0.003419	-0.042863	1.000000	-0.000040	0.000031	0.000004	-0.828309	-6.889988	48.667291
47657	1.169274	-0.145720	9.737496	-0.001500	-0.008451	-0.004161	1.000000	-0.000049	0.000012	0.000014	-0.828517	-6.890750	48.666877
47658	1.190822	-0.154015	9.729397	0.019534	0.002696	-0.009496	1.000000	-0.000042	0.000015	0.000017	-0.828007	-6.891071	48.666671
47659	1.168682	-0.147539	9.737540	-0.000561	-0.010246	-0.004163	1.000000	-0.000046	0.000018	0.000027	-0.828003	-6.891134	48.669668
47660	1.188503	-0.140301	9.710726	0.009367	0.011454	-0.028506	1.000000	-0.000049	0.000012	0.000014	-0.828254	-6.891850	48.669162
47661	1.167995	-0.149451	9.737593	0.000380	-0.012025	-0.004165	1.000000	-0.000043	0.000028	0.000031	-0.828053	-6.890713	48.670384
47662	1.166005	-0.134889	9.718898	-0.010256	-0.002353	-0.023171	1.000000	-0.000055	0.000002	0.000029	-0.829225	-6.892500	48.671551
47663	1.153183	-0.137660	9.686789	-0.013830	-0.011099	-0.056544	1.000000	-0.000050	0.000028	0.000020	-0.829752	-6.891317	48.668592
47664	1.188825	-0.159824	9.729548	0.022361	-0.002641	-0.009502	1.000000	-0.000038	0.000012	0.000007	-0.828648	-6.892021	48.667224
47665	1.185120	-0.129429	9.692153	0.000607	0.017616	-0.047506	1.000000	-0.000039	0.000022	0.000030	-0.828062	-6.891537	48.666956
47666	1.166354	-0.154134	9.737716	0.002729	-0.016428	-0.004171	1.000000	-0.000049	0.000012	0.000014	-0.828313	-6.892252	48.666448
47667	1.164345	-0.139499	9.719032	-0.007896	-0.006756	-0.023171	1.000000	-0.000046	0.000021	0.000019	-0.828209	-6.891852	48.665277
47668	1.165606	-0.156090	9.737775	0.003684	-0.018210	-0.004175	1.000000	-0.000050	0.000021	0.000037	-0.828888	-6.891408	48.667390
47669	1.196215	-0.131382	9.724411	0.006575	0.021930	-0.014125	1.000000	-0.000027	0.000015	-0.000009	-0.826264	-6.891718	48.662029
47670	1.185141	-0.149459	9.711000	0.014094	0.002619	-0.028505	1.000000	-0.000052	0.000009	0.000042	-0.827270	-6.892728	48.664654
47671	1.186459	-0.166012	9.729733	0.025689	-0.008857	-0.009514	1.000000	-0.000039	0.000028	0.000013	-0.826312	-6.891607	48.662389
47672	1.171684	-0.111091	9.713915	-0.023675	0.017813	-0.027778	1.000000	-0.000053	0.000018	0.000016	-0.827077	-6.891602	48.662055
47673	1.149647	-0.146513	9.687079	-0.009107	-0.019906	-0.056552	1.000000	-0.000035	0.000018	0.000020	-0.825795	-6.891448	48.659578
47674	1.183556	-0.153057	9.711138	0.015997	-0.000921	-0.028508	1.000000	-0.000046	0.000024	0.000010	-0.825719	-6.890709	48.658556
47675	1.170403	-0.113781	9.714038	-0.022273	0.015174	-0.027770	1.000000	-0.000050	0.000028	0.000020	-0.826320	-6.889667	48.659996
47676	1.193634	-0.179559	9.689663	0.044523	-0.009081	-0.048236	1.000000	-0.000038	0.000012	0.000007	-0.825217	-6.890370	48.658626
47677	1.171300	-0.131109	9.732807	-0.010231	0.002828	-0.008783	1.000000	-0.000043	0.000028	0.000031	-0.825145	-6.889203	48.660535
47678	1.149188	-0.124522	9.740946	-0.030326	-0.010083	-0.003450	1.000000	-0.000033	0.000002	0.000014	-0.823609	-6.890966	48.659976
47679	1.179940	-0.141877	9.692611	0.007193	0.005240	-0.047494	1.000000	-0.000058	0.000034	0.000040	-0.825241	-6.889204	48.664086
47680	1.159252	-0.151077	9.719467	-0.001787	-0.018265	-0.023183	1.000000	-0.000035	0.000021	0.000011	-0.823891	-6.888792	48.663190
47681	1.180644	-0.159281	9.711392	0.019216	-0.007140	-0.028516	1.000000	-0.000046	0.000021	0.000019	-0.823962	-6.888610	48.667644
47682	1.169226	-0.135580	9.732995	-0.007915	-0.001640	-0.008780	1.000000	-0.000046	0.000024	0.000010	-0.823887	-6.887871	48.666621
47683	1.157932	-0.153703	9.719583	-0.000430	-0.020937	-0.023188	1.000000	-0.000039	0.000022	0.000030	-0.823300	-6.887502	48.669708
47684	1.168383	-0.137401	9.733071	-0.006994	-0.003410	-0.008780	1.000000	-0.000053	0.000018	0.000016	-0.824067	-6.887496	48.669371
47685	1.189743	-0.145657	9.725001	0.014050	0.007736	-0.014111	1.000000	-0.000032	0.000028	0.000024	-0.822518	-6.886269	48.668853
47686	1.165907	-0.123543	9.714460	-0.017166	0.005429	-0.027750	1.000000	-0.000052	0.000009	0.000041	-0.823527	-6.887279	48.671472
47687	1.134683	-0.150124	9.727805	-0.019115	-0.036530	-0.017866	1.000000	-0.000056	0.000014	-0.000005	-0.824285	-6.887871	48.670980
47688	1.166832	-0.141299	9.733201	-0.005110	-0.006978	-0.008781	1.000000	-0.000048	0.000037	0.000024	-0.824558	-6.885635	48.671592
47689	1.164726	-0.126656	9.714561	-0.015767	0.002733	-0.027746	1.000000	-0.000048	0.000009	0.000023	-0.824842	-6.886772	48.673131
47690	1.166114	-0.143262	9.733258	-0.004172	-0.008764	-0.008782	1.000000	-0.000046	0.000018	0.000027	-0.824930	-6.886711	48.674078
47691	1.175074	-0.153254	9.693029	0.012775	-0.005422	-0.047499	1.000000	-0.000053	0.000018	0.000016	-0.825572	-6.886740	48.673191
47692	1.183919	-0.121504	9.687850	-0.004907	0.022715	-0.052035	1.000000	-0.000060	0.000018	0.000005	-0.827019	-6.886788	48.671565
47693	1.174470	-0.155461	9.693066	0.013716	-0.007182	-0.047502	1.000000	-0.000048	0.000009	0.000023	-0.827353	-6.887815	48.671198
47694	1.144755	-0.155786	9.760121	-0.011714	-0.034969	0.015503	1.000000	-0.000053	0.000015	0.000024	-0.828201	-6.888148	48.671844
47695	1.184598	-0.140304	9.706599	0.007645	0.009435	-0.033072	1.000000	-0.000047	0.000034	0.000033	-0.828434	-6.886277	48.672517
47696	1.173241	-0.116640	9.728224	-0.019470	0.014919	-0.013308	1.000000	-0.000044	0.000005	0.000013	-0.828174	-6.887712	48.671828
47697	1.183946	-0.142163	9.706651	0.008561	0.007663	-0.033072	1.000000	-0.000046	0.000021	0.000019	-0.828254	-6.887434	48.674709
47698	1.150873	-0.152940	9.701314	-0.004517	-0.023644	-0.042180	1.000000	-0.000046	0.000021	0.000019	-0.828261	-6.887033	48.674669
47699	1.141095	-0.144858	9.741616	-0.020491	-0.028826	-0.003462	1.000000	-0.000039	0.000025	0.000021	-0.827352	-6.886342	48.675340
47700	1.173356	-0.177820	9.711953	0.028125	-0.024042	-0.028565	1.000000	-0.000054	0.000028	0.000039	-0.828548	-6.885178	48.677619
47701	1.171300	-0.121427	9.728400	-0.017142	0.010469	-0.013297	1.000000	-0.000051	0.000002	0.000010	-0.829124	-6.887011	48.676694
47702	1.140056	-0.147954	9.741691	-0.019090	-0.031472	-0.003467	1.000000	-0.000053	0.000021	0.000007	-0.829811	-6.886664	48.675367
47703	1.192534	-0.130802	9.720334	0.004351	0.020710	-0.018623	1.000000	-0.000042	0.000015	0.000017	-0.829274	-6.887127	48.677674
47704	1.161246	-0.157150	9.733626	0.002404	-0.021233	-0.008800	1.000000	-0.000041	0.000012	0.000025	-0.828849	-6.887788	48.678445
47705	1.182636	-0.123638	9.760645	-0.011156	0.014623	0.020103	1.000000	-0.000046	0.000018	0.000027	-0.828859	-6.887886	48.681744
47706	1.169915	-0.167940	9.693409	0.019776	-0.018739	-0.047528	1.000000	-0.000046	0.000018	0.000027	-0.828948	-6.887826	48.682688
47707	1.158470	-0.144328	9.715063	-0.007330	-0.013255	-0.027745	1.000000	-0.000051	0.000031	0.000012	-0.829446	-6.886302	48.680561
47708	1.192183	-0.151136	9.739165	0.017833	0.005626	0.000321	1.000000	-0.000043	0.000028	0.000031	-0.829288	-6.885127	48.681980
47709	1.157478	-0.146340	9.715151	-0.006393	-0.015036	-0.027747	1.000000	-0.000060	0.000014	0.000013	-0.830767	-6.885583	48.681740
47710	1.189778	-0.137417	9.720580	0.007636	0.014492	-0.018614	1.000000	-0.000028	0.000022	0.000022	-0.828740	-6.885117	48.682127
47711	1.169173	-0.146645	9.747375	-0.001319	-0.009081	0.005648	1.000000	-0.000064	0.000021	0.000015	-0.830769	-6.884791	48.681767
47712	1.156386	-0.149245	9.715237	-0.004984	-0.017687	-0.027751	1.000000	-0.000045	0.000012	-0.000004	-0.830347	-6.885546	48.679104
47713	1.190414	-0.156025	9.739304	0.020181	0.001188	0.000318	1.000000	-0.000049	0.000015	0.000006	-0.830594	-6.885905	48.677081
47714	1.168276	-0.149603	9.747437	0.000087	-0.011729	0.005645	1.000000	-0.000046	0.000018	0.000027	-0.830684	-6.885845	48.678023
47715	1.188109	-0.142318	9.720714	0.009996	0.010106	-0.018611	1.000000	-0.000053	0.000018	0.000016	-0.831503	-6.885661	48.673931
47716	1.186131	-0.127530	9.702104	-0.000676	0.019888	-0.037535	1.000000	-0.000035	0.000018	0.000020	-0.830238	-6.885588	48.674016
47717	1.176393	-0.119354	9.742413	-0.016628	0.014671	0.001194	1.000000	-0.000035	0.000021	0.000011	-0.828862	-6.885224	48.673716
47718	1.152782	-0.138957	9.696750	-0.013309	-0.012287	-0.046682	1.000000	-0.000052	0.000009	0.000041	-0.829876	-6.886237	48.676326
47719	1.186708	-0.146022	9.720830	0.011882	0.006544	-0.018610	1.000000	-0.000065	0.000027	-0.000002	-0.831665	-6.885258	48.672893
47720	1.177033	-0.179887	9.725975	0.030489	-0.023383	-0.014173	1.000000	-0.000035	0.000018	0.000020	-0.830399	-6.885185	48.672977
47721	1.182645	-0.116459	9.683637	-0.009483	0.026121	-0.056445	1.000000	-0.000046	0.000021	0.000019	-0.830456	-6.884877	48.675027
47722	1.163735	-0.141303	9.729039	-0.007289	-0.008144	-0.013283	1.000000	-0.000038	0.000012	0.000007	-0.829355	-6.885577	48.673649
47723	1.171180	-0.135331	9.670157	-0.001540	0.005991	-0.070928	1.000000	-0.000046	0.000018	0.000027	-0.829357	-6.885476	48.672901
47724	1.185012	-0.150405	9.720970	0.014233	0.002112	-0.018611	1.000000	-0.000037	0.000006	0.000024	-0.828420	-6.886858	48.673493
47725	1.161444	-0.128093	9.710455	-0.017003	-0.000121	-0.032196	1.000000	-0.000037	0.000009	0.000015	-0.827351	-6.887888	48.672375
47726	1.195234	-0.134983	9.734560	0.008196	0.018701	-0.004118	1.000000	-0.000059	0.000040	0.000023	-0.828902	-6.885323	48.672852
47727	1.204057	-0.103163	9.729513	-0.009463	0.046863	-0.008529	1.000000	-0.000044	0.000002	0.000021	-0.828713	-6.887097	48.672558
47728	1.182065	-0.138362	9.702452	0.004974	0.009259	-0.037521	1.000000	-0.000039	0.000028	0.000013	-0.827880	-6.885962	48.671831
47729	1.172348	-0.130404	9.742759	-0.010990	0.004014	0.001212	1.000000	-0.000048	0.000009	0.000023	-0.828372	-6.887146	48.675030
47730	1.171990	-0.131301	9.742790	-0.010519	0.003129	0.001213	1.000000	-0.000039	0.000028	0.000013	-0.827539	-6.886011	48.674302
47731	1.191813	-0.123868	9.716097	-0.000649	0.024994	-0.023015	1.000000	-0.000049	0.000012	0.000014	-0.827970	-6.886676	48.673800
47732	1.138711	-0.142956	9.737394	-0.023181	-0.029000	-0.007966	1.000000	-0.000049	0.000012	0.000014	-0.828227	-6.887388	48.673277
47733	1.191384	-0.125836	9.716125	0.000256	0.023209	-0.023011	1.000000	-0.000048	0.000009	0.000023	-0.828652	-6.888650	48.677831
47734	1.212963	-0.134260	9.708032	0.021292	0.034356	-0.028335	1.000000	-0.000053	0.000015	0.000024	-0.829506	-6.888982	48.678466
47735	1.168987	-0.120558	9.724276	-0.019375	0.009410	-0.017681	1.000000	-0.000053	0.000021	0.000007	-0.830213	-6.888663	48.677832
47736	1.170227	-0.137171	9.742921	-0.007749	-0.002178	0.001216	1.000000	-0.000034	0.000015	0.000028	-0.829031	-6.888931	48.678899
47737	1.179320	-0.146798	9.702662	0.009080	0.001313	-0.037519	1.000000	-0.000041	0.000012	0.000025	-0.828678	-6.889746	48.682867
47738	1.202382	-0.129127	9.748413	0.006758	0.026417	0.010409	1.000000	-0.000049	0.000012	0.000014	-0.828936	-6.890458	48.682343
47739	1.180278	-0.122770	9.756543	-0.013357	0.013533	0.015736	1.000000	-0.000053	0.000018	0.000016	-0.829936	-6.890383	48.682632
47740	1.158285	-0.158104	9.729431	0.001059	-0.024044	-0.013306	1.000000	-0.000049	0.000012	0.000014	-0.830194	-6.891094	48.682107
47741	1.189089	-0.133586	9.716302	0.003952	0.016161	-0.022997	1.000000	-0.000045	0.000015	0.000036	-0.830423	-6.891422	48.685127
47742	1.188666	-0.134467	9.716342	0.004422	0.015277	-0.022996	1.000000	-0.000039	0.000028	0.000013	-0.829592	-6.890286	48.684398
47743	1.166600	-0.169601	9.689229	0.018816	-0.022296	-0.052051	1.000000	-0.000041	0.000009	0.000034	-0.829295	-6.891380	48.688032
47744	1.187945	-0.136374	9.716404	0.005347	0.013503	-0.022994	1.000000	-0.000061	0.000027	0.000028	-0.831179	-6.890268	48.689013
47745	1.167330	-0.145782	9.743144	-0.003582	-0.010137	0.001213	1.000000	-0.000041	0.000012	0.000025	-0.830734	-6.890928	48.689164
47746	1.188839	-0.153965	9.735061	0.017453	0.001010	-0.004112	1.000000	-0.000035	0.000018	0.000020	-0.829471	-6.890855	48.689245
47747	1.185377	-0.123345	9.697888	-0.004406	0.021575	-0.041870	1.000000	-0.000049	0.000012	0.000014	-0.829749	-6.891588	48.688935
47748	1.188311	-0.155801	9.735096	0.018391	-0.000762	-0.004114	1.000000	-0.000049	0.000012	0.000014	-0.830008	-6.892298	48.688408
47749	1.186340	-0.141124	9.716532	0.007719	0.009121	-0.022990	1.000000	-0.000054	0.000028	0.000039	-0.831271	-6.890883	48.686916
47750	1.187316	-0.157937	9.735183	0.019353	-0.002495	-0.004116	1.000000	-0.000051	0.000034	0.000003	-0.831633	-6.889074	48.685071
47751	1.196219	-0.167756	9.694937	0.036196	0.001067	-0.042858	1.000000	-0.000053	0.000015	0.000024	-0.832507	-6.889283	48.683737
47752	1.194089	-0.111346	9.711674	-0.008981	0.035556	-0.027315	1.000000	-0.000043	0.000031	0.000023	-0.832273	-6.887766	48.684165
47753	1.151631	-0.154885	9.711234	-0.004014	-0.024747	-0.032213	1.000000	-0.000046	0.000021	0.000019	-0.832389	-6.887374	48.684457
47754	1.175969	-0.153045	9.775647	0.004878	-0.010450	0.034620	1.000000	-0.000043	0.000031	0.000023	-0.832156	-6.885857	48.684885
47755	1.150632	-0.156725	9.711323	-0.003087	-0.026489	-0.032217	1.000000	-0.000046	0.000018	0.000027	-0.832389	-6.885733	48.685896
47756	1.182879	-0.147927	9.716853	0.010996	0.002986	-0.022990	1.000000	-0.000046	0.000024	0.000010	-0.832320	-6.884987	48.684860
47757	1.159051	-0.125715	9.706413	-0.020273	0.000834	-0.036530	1.000000	-0.000046	0.000021	0.000019	-0.832411	-6.884535	48.684188
47758	1.171173	-0.125258	9.738624	-0.015585	0.007530	-0.003109	1.000000	-0.000041	0.000009	0.000034	-0.832076	-6.885537	48.685931
47759	1.149102	-0.160452	9.711443	-0.001220	-0.030005	-0.032227	1.000000	-0.000050	0.000028	0.000020	-0.832612	-6.884432	48.686018
47760	1.157883	-0.128548	9.706516	-0.018869	-0.001812	-0.036527	1.000000	-0.000046	0.000024	0.000010	-0.832544	-6.883685	48.684982
47761	1.169791	-0.128168	9.738752	-0.014162	0.004864	-0.003105	1.000000	-0.000050	0.000028	0.000020	-0.832972	-6.882553	48.684757
47762	1.135140	-0.123012	9.714705	-0.038484	-0.015614	-0.031203	1.000000	-0.000035	0.000015	0.000028	-0.831794	-6.882820	48.685819
47763	1.158150	-0.147004	9.725209	-0.006266	-0.015238	-0.017671	1.000000	-0.000046	0.000021	0.000018	-0.831711	-6.882435	48.684501
47764	1.168618	-0.130781	9.738858	-0.012738	0.002197	-0.003102	1.000000	-0.000042	0.000018	0.000008	-0.831129	-6.882409	48.683290
47765	1.157309	-0.148652	9.725284	-0.005371	-0.016987	-0.017673	1.000000	-0.000032	0.000028	0.000024	-0.829898	-6.881316	48.687711
47766	1.164630	-0.100883	9.701797	-0.034191	0.021973	-0.040801	1.000000	-0.000053	0.000015	0.000024	-0.830756	-6.881645	48.688337
47767	1.189322	-0.140798	9.730853	0.009190	0.011571	-0.008423	1.000000	-0.000045	0.000008	0.000004	-0.830366	-6.882839	48.687976
47768	1.154899	-0.135728	9.706773	-0.015142	-0.008890	-0.036525	1.000000	-0.000052	0.000012	0.000033	-0.831307	-6.883510	48.689586
47769	1.165489	-0.119596	9.720417	-0.021602	0.008561	-0.021945	1.000000	-0.000042	0.000015	0.000017	-0.830849	-6.883707	48.687589
47770	1.176178	-0.144948	9.698709	0.006372	0.001396	-0.041847	1.000000	-0.000041	0.000012	0.000025	-0.830433	-6.884366	48.688345
47771	1.144663	-0.129696	9.747130	-0.030026	-0.015977	0.002223	1.000000	-0.000042	0.000018	0.000008	-0.829840	-6.884109	48.683816
47772	1.166116	-0.137984	9.739058	-0.008987	-0.004834	-0.003099	1.000000	-0.000046	0.000018	0.000027	-0.829938	-6.884046	48.684746
47773	1.165792	-0.139061	9.739082	-0.008529	-0.005735	-0.003099	1.000000	-0.000060	0.000015	0.000013	-0.831471	-6.884545	48.686212
47774	1.187245	-0.147349	9.731010	0.012510	0.005409	-0.008422	1.000000	-0.000028	0.000022	0.000022	-0.829451	-6.884079	48.686593
47775	1.163526	-0.125011	9.720584	-0.018765	0.003255	-0.021936	1.000000	-0.000053	0.000015	0.000024	-0.830219	-6.884498	48.688176
47776	1.153793	-0.158946	9.725539	-0.000186	-0.026716	-0.017694	1.000000	-0.000050	0.000028	0.000020	-0.830749	-6.883370	48.688295
47777	1.184473	-0.134504	9.712559	0.002736	0.013517	-0.027256	1.000000	-0.000053	0.000018	0.000016	-0.831545	-6.883386	48.688915
47778	1.151355	-0.145134	9.707058	-0.010434	-0.017698	-0.036531	1.000000	-0.000039	0.000028	0.000013	-0.830717	-6.882247	48.688181
47779	1.196003	-0.135082	9.744837	0.007931	0.019268	0.006176	1.000000	-0.000053	0.000015	0.000024	-0.831604	-6.882559	48.689009
47780	1.161466	-0.130002	9.720765	-0.016423	-0.001156	-0.021932	1.000000	-0.000046	0.000018	0.000027	-0.831703	-6.882496	48.689937
47781	1.170560	-0.139754	9.680488	0.000350	0.002511	-0.060683	1.000000	-0.000060	0.000015	0.000013	-0.833367	-6.882780	48.688890
47782	1.182540	-0.139465	9.712724	0.005080	0.009133	-0.027252	1.000000	-0.000039	0.000028	0.000013	-0.832540	-6.881639	48.688155
47783	1.149383	-0.149964	9.707219	-0.008087	-0.022100	-0.036537	1.000000	-0.000039	0.000022	0.000030	-0.831738	-6.881259	48.689552
47784	1.184662	-0.172815	9.749906	0.028400	-0.014257	0.010395	1.000000	-0.000050	0.000024	0.000029	-0.832352	-6.880474	48.690653
47785	1.160865	-0.150611	9.739499	-0.002894	-0.016388	-0.003108	1.000000	-0.000046	0.000021	0.000018	-0.832355	-6.880186	48.692204
47786	1.170054	-0.160197	9.699210	0.013876	-0.012733	-0.041863	1.000000	-0.000044	0.000002	0.000021	-0.832188	-6.881958	48.692477
47787	1.150997	-0.143811	9.779826	-0.018263	-0.022716	0.035643	1.000000	-0.000046	0.000018	0.000027	-0.832286	-6.882012	48.695212
47788	1.158562	-0.137505	9.721008	-0.012683	-0.008251	-0.021929	1.000000	-0.000035	0.000015	0.000028	-0.831111	-6.882281	48.696270
47789	1.201890	-0.153259	9.704830	0.028930	0.014953	-0.032571	1.000000	-0.000060	0.000015	0.000013	-0.832720	-6.882502	48.694785
47790	1.159440	-0.155412	9.739593	-0.000545	-0.020800	-0.003116	1.000000	-0.000053	0.000021	0.000007	-0.833415	-6.882142	48.693438
47791	1.159078	-0.156366	9.739621	-0.000076	-0.021703	-0.003118	1.000000	-0.000038	0.000015	0.000047	-0.832854	-6.882460	48.696710
47792	1.168207	-0.124359	9.734767	-0.017708	0.006513	-0.007306	1.000000	-0.000044	0.000005	0.000013	-0.832605	-6.883887	48.695998
47793	1.180602	-0.165595	9.731525	0.021424	-0.011424	-0.008442	1.000000	-0.000051	0.000002	0.000010	-0.833235	-6.885653	48.695150
47794	1.169421	-0.142123	9.753311	-0.005583	-0.006054	0.011505	1.000000	-0.000046	0.000021	0.000018	-0.833253	-6.885246	48.695091
47795	1.201669	-0.133342	9.758925	0.008552	0.023368	0.020816	1.000000	-0.000039	0.000022	0.000030	-0.832562	-6.884791	48.696008
47796	1.176458	-0.136804	9.694552	0.000452	0.007564	-0.046058	1.000000	-0.000057	0.000024	0.000017	-0.833855	-6.884052	48.695817
47797	1.177650	-0.153704	9.713103	0.012075	-0.004145	-0.027254	1.000000	-0.000048	0.000009	0.000023	-0.834372	-6.885273	48.699714
47798	1.178777	-0.128824	9.767118	-0.010639	0.008673	0.026140	1.000000	-0.000028	0.000022	0.000022	-0.832353	-6.884807	48.700093
47799	1.176928	-0.155323	9.713165	0.013025	-0.005873	-0.027256	1.000000	-0.000053	0.000021	0.000007	-0.833153	-6.884235	48.696778
47800	1.187313	-0.139312	9.726893	0.006592	0.011521	-0.012617	1.000000	-0.000050	0.000028	0.000020	-0.833686	-6.883105	48.696892
47801	1.186894	-0.140369	9.726929	0.007065	0.010643	-0.012616	1.000000	-0.000053	0.000015	0.000024	-0.834565	-6.883395	48.696769
47802	1.175612	-0.158473	9.713274	0.014436	-0.008515	-0.027260	1.000000	-0.000050	0.000028	0.000020	-0.835098	-6.882265	48.696883
47803	1.196918	-0.125321	9.740695	0.001131	0.027128	0.002032	1.000000	-0.000042	0.000015	0.000017	-0.834419	-6.882582	48.695046
47804	1.207509	-0.150659	9.718934	0.029069	0.019998	-0.017934	1.000000	-0.000046	0.000021	0.000018	-0.834438	-6.882174	48.694985
47805	1.161959	-0.120969	9.716652	-0.022833	0.005919	-0.026087	1.000000	-0.000046	0.000021	0.000018	-0.834702	-6.881809	48.697373
47806	1.195780	-0.128062	9.740799	0.002510	0.024494	0.002039	1.000000	-0.000042	0.000015	0.000017	-0.834207	-6.882123	48.697138
47807	1.186065	-0.162017	9.745641	0.021071	-0.005489	0.006174	1.000000	-0.000064	0.000021	0.000015	-0.836349	-6.881723	48.697018
47808	1.184176	-0.147178	9.727159	0.010342	0.004471	-0.012614	1.000000	-0.000035	0.000018	0.000020	-0.835093	-6.881647	48.697089
47809	1.161972	-0.140731	9.735291	-0.009755	-0.008436	-0.007296	1.000000	-0.000057	0.000021	0.000026	-0.836488	-6.881219	48.697491
47810	1.183394	-0.149190	9.727224	0.011285	0.002709	-0.012615	1.000000	-0.000046	0.000018	0.000027	-0.836592	-6.881155	48.698412
47811	1.172149	-0.125732	9.749052	-0.015716	0.008054	0.007366	1.000000	-0.000049	0.000012	0.000014	-0.836890	-6.881930	48.698417
47812	1.181305	-0.135275	9.708760	0.001010	0.011789	-0.031396	1.000000	-0.000046	0.000018	0.000027	-0.836994	-6.881866	48.699338
47813	1.181037	-0.136134	9.708780	0.001492	0.010898	-0.031395	1.000000	-0.000038	0.000009	0.000015	-0.835896	-6.882894	48.698067
47814	1.169938	-0.154084	9.695082	0.008849	-0.008246	-0.046063	1.000000	-0.000053	0.000015	0.000024	-0.836762	-6.883220	48.698681
47815	1.202131	-0.145495	9.700742	0.022995	0.021160	-0.036711	1.000000	-0.000047	0.000034	0.000033	-0.837154	-6.881353	48.701123
47816	1.179901	-0.139153	9.708876	0.002896	0.008249	-0.031393	1.000000	-0.000056	0.000008	0.000011	-0.838183	-6.882446	48.700273
47817	1.179638	-0.140185	9.708893	0.003385	0.007362	-0.031392	1.000000	-0.000046	0.000018	0.000027	-0.838184	-6.882327	48.700376
47818	1.179219	-0.141124	9.708930	0.003855	0.006480	-0.031392	1.000000	-0.000046	0.000024	0.000010	-0.838120	-6.881573	48.699329
47819	1.158505	-0.150483	9.735558	-0.005021	-0.017282	-0.007304	1.000000	-0.000042	0.000015	0.000017	-0.837619	-6.881751	48.697445
47820	1.167729	-0.159838	9.695255	0.011690	-0.013523	-0.046072	1.000000	-0.000038	0.000009	0.000015	-0.836611	-6.882786	48.697033
47821	1.178176	-0.143761	9.709018	0.005307	0.003881	-0.031391	1.000000	-0.000055	0.000034	0.000022	-0.837670	-6.880689	48.694403
47822	1.177631	-0.144846	9.709068	0.005777	0.002999	-0.031391	1.000000	-0.000050	0.000021	0.000037	-0.838373	-6.880246	48.696479
47823	1.166403	-0.162810	9.695365	0.013123	-0.016093	-0.046077	1.000000	-0.000042	0.000015	0.000017	-0.838032	-6.880366	48.695288
47824	1.155103	-0.139470	9.717221	-0.013852	-0.010750	-0.026074	1.000000	-0.000064	0.000021	0.000015	-0.840090	-6.880012	48.694783
47825	1.177946	-0.163908	9.727648	0.018381	-0.010501	-0.012631	1.000000	-0.000050	0.000024	0.000028	-0.840736	-6.879357	48.697186
47826	1.165010	-0.124662	9.731044	-0.019801	0.005719	-0.011383	1.000000	-0.000050	0.000028	0.000020	-0.841272	-6.878224	48.697295
47827	1.176949	-0.165929	9.727735	0.019330	-0.012269	-0.012635	1.000000	-0.000046	0.000021	0.000018	-0.841258	-6.877775	48.696233
47828	1.162603	-0.110641	9.712649	-0.030063	0.014840	-0.030136	1.000000	-0.000039	0.000025	0.000021	-0.840518	-6.876975	48.696475
47829	1.174446	-0.151885	9.709346	0.009081	-0.003174	-0.031394	1.000000	-0.000055	0.000034	0.000022	-0.841371	-6.875138	48.695216
47830	1.174087	-0.152781	9.709376	0.009550	-0.004056	-0.031394	1.000000	-0.000033	0.000003	0.000014	-0.839850	-6.876894	48.694628
47831	1.161375	-0.113350	9.712764	-0.028621	0.012173	-0.030128	1.000000	-0.000050	0.000028	0.000020	-0.840355	-6.875725	48.694096
47832	1.184207	-0.137570	9.723190	0.003635	0.012421	-0.016692	1.000000	-0.000042	0.000018	0.000008	-0.839777	-6.875691	48.692872
47833	1.172980	-0.155346	9.709469	0.010964	-0.006725	-0.031397	1.000000	-0.000035	0.000018	0.000019	-0.838448	-6.875723	48.693058
47834	1.174066	-0.130651	9.763572	-0.011642	0.005946	0.022081	1.000000	-0.000042	0.000012	0.000025	-0.838040	-6.876379	48.693799
47835	1.170946	-0.141106	9.691037	0.000669	0.002385	-0.050145	1.000000	-0.000042	0.000015	0.000017	-0.837526	-6.876876	48.695322
47836	1.184473	-0.156882	9.741759	0.016714	-0.002065	0.002055	1.000000	-0.000053	0.000012	0.000033	-0.838478	-6.877545	48.696912
47837	1.150000	-0.151594	9.717645	-0.007754	-0.022286	-0.026087	1.000000	-0.000046	0.000021	0.000018	-0.838608	-6.877071	48.696410
47838	1.169993	-0.143989	9.691110	0.002069	-0.000236	-0.050145	1.000000	-0.000042	0.000015	0.000017	-0.838116	-6.877382	48.696169
47839	1.147761	-0.137413	9.699242	-0.018057	-0.013146	-0.044830	1.000000	-0.000039	0.000028	0.000013	-0.837382	-6.876343	48.697128
47840	1.169141	-0.104458	9.726804	-0.031297	0.022437	-0.015390	1.000000	-0.000060	0.000008	0.000030	-0.839096	-6.877401	48.698409
47841	1.168954	-0.146966	9.691191	0.003471	-0.002865	-0.050146	1.000000	-0.000053	0.000018	0.000016	-0.839861	-6.877231	48.696069
47842	1.180892	-0.146897	9.723456	0.008309	0.003569	-0.016688	1.000000	-0.000046	0.000021	0.000018	-0.839883	-6.876819	48.696001
47843	1.169467	-0.123506	9.745367	-0.018641	0.008894	0.003353	1.000000	-0.000050	0.000028	0.000020	-0.840436	-6.875662	48.695852
47844	1.167642	-0.149938	9.691303	0.004878	-0.005502	-0.050148	1.000000	-0.000049	0.000018	-0.000003	-0.840537	-6.875670	48.693336
47845	1.156248	-0.126381	9.713215	-0.022066	-0.000198	-0.030104	1.000000	-0.000032	0.000028	0.000024	-0.838937	-6.874531	48.693600
47846	1.157218	-0.143278	9.731717	-0.010373	-0.012003	-0.011374	1.000000	-0.000064	0.000021	0.000015	-0.840997	-6.874174	48.693088
47847	1.144358	-0.145476	9.699527	-0.014290	-0.020165	-0.044836	1.000000	-0.000048	0.000034	0.000033	-0.841486	-6.872215	48.694643
47848	1.190318	-0.151699	9.755955	0.015512	0.005570	0.016771	1.000000	-0.000042	0.000015	0.000017	-0.840995	-6.872526	48.694399
47849	1.155768	-0.146291	9.731844	-0.008967	-0.014652	-0.011376	1.000000	-0.000050	0.000028	0.000020	-0.841449	-6.871458	48.695042
47850	1.166249	-0.130332	9.745664	-0.015338	0.002685	0.003363	1.000000	-0.000049	0.000012	0.000014	-0.841720	-6.872157	48.694490
47851	1.164480	-0.115373	9.727240	-0.026599	0.008138	-0.015354	1.000000	-0.000046	0.000021	0.000018	-0.826020	-6.894061	48.638772
47852	1.154728	-0.149337	9.731922	-0.008091	-0.021926	-0.011389	1.000000	-0.000060	0.000012	0.000021	-0.827619	-6.894817	48.639012
47853	1.187208	-0.140882	9.737631	0.006148	0.007387	-0.001944	1.000000	-0.000049	0.000009	0.000022	-0.827844	-6.895948	48.639361
47854	1.186784	-0.141768	9.737670	0.006617	0.006492	-0.001944	1.000000	-0.000037	0.000034	0.000025	-0.826826	-6.894081	48.640027
47855	1.153737	-0.152166	9.731995	-0.006666	-0.024616	-0.011394	1.000000	-0.000044	0.000002	0.000021	-0.826608	-6.895811	48.638333
47856	1.173849	-0.144667	9.705476	0.003169	-0.002541	-0.035412	1.000000	-0.000057	0.000024	0.000017	-0.827875	-6.895109	48.638072
47857	1.173401	-0.145714	9.705515	0.003635	-0.003433	-0.035413	1.000000	-0.000046	0.000021	0.000018	-0.827876	-6.894752	48.638334
47858	1.183946	-0.129724	9.719344	-0.002713	0.013886	-0.020650	1.000000	-0.000049	0.000012	0.000014	-0.828114	-6.895495	48.637725
47859	1.163344	-0.180587	9.710191	0.022600	-0.034408	-0.031476	1.000000	-0.000053	0.000018	0.000016	-0.828838	-6.895600	48.639444
47860	1.150672	-0.141267	9.713672	-0.015552	-0.018129	-0.030108	1.000000	-0.000042	0.000012	0.000025	-0.828401	-6.896302	48.640126
47861	1.159919	-0.150587	9.673353	0.001101	-0.014234	-0.068887	1.000000	-0.000049	0.000015	0.000006	-0.828566	-6.896593	48.636787
47862	1.171927	-0.150608	9.705618	0.005978	-0.007891	-0.035417	1.000000	-0.000053	0.000015	0.000024	-0.829405	-6.896960	48.637333
47863	1.170267	-0.135644	9.687199	-0.004784	0.002208	-0.054116	1.000000	-0.000045	0.000009	0.000004	-0.829131	-6.898041	48.635688
47864	1.172697	-0.127210	9.759813	-0.016073	0.003762	0.018136	1.000000	-0.000051	0.000028	0.000020	-0.829637	-6.896950	48.635734
47865	1.181758	-0.136479	9.719518	0.000564	0.007662	-0.020642	1.000000	-0.000035	0.000018	0.000019	-0.828415	-6.896874	48.635737
47866	1.181399	-0.137377	9.719549	0.001032	0.006769	-0.020642	1.000000	-0.000053	0.000018	0.000016	-0.829168	-6.896894	48.635300
47867	1.168716	-0.139365	9.687333	-0.002937	-0.001330	-0.054115	1.000000	-0.000046	0.000021	0.000018	-0.829279	-6.896553	48.637484
47868	1.180526	-0.139310	9.719627	0.001952	0.004993	-0.020641	1.000000	-0.000043	0.000028	0.000031	-0.829110	-6.895421	48.638821
47869	1.178685	-0.124295	9.701241	-0.008813	0.015086	-0.039330	1.000000	-0.000049	0.000015	0.000006	-0.829288	-6.895850	48.638971
47870	1.181355	-0.157148	9.738094	0.014109	-0.007785	-0.001953	1.000000	-0.000044	0.000002	0.000021	-0.829098	-6.897661	48.639167
47871	1.178284	-0.126214	9.701265	-0.007872	0.013306	-0.039326	1.000000	-0.000053	0.000021	0.000007	-0.829757	-6.897304	48.637177
47872	1.179376	-0.143136	9.719711	0.003824	0.001421	-0.020640	1.000000	-0.000042	0.000012	0.000025	-0.829321	-6.898006	48.637856
47873	1.155972	-0.120655	9.709393	-0.027523	-0.000505	-0.034018	1.000000	-0.000045	0.000005	0.000012	-0.828971	-6.899571	48.638457
47874	1.177612	-0.128935	9.701311	-0.006470	0.010611	-0.039322	1.000000	-0.000042	0.000012	0.000025	-0.828535	-6.900273	48.639135
47875	1.189666	-0.129018	9.733577	-0.001582	0.016914	-0.005843	1.000000	-0.000060	0.000012	0.000021	-0.830205	-6.901060	48.640804
47876	1.167523	-0.122525	9.741697	-0.021696	0.004012	-0.000537	1.000000	-0.000028	0.000022	0.000022	-0.828160	-6.900639	48.641120
47877	1.176691	-0.131773	9.701385	-0.005067	0.007934	-0.039319	1.000000	-0.000060	0.000015	0.000013	-0.829599	-6.901029	48.639696
47878	1.187331	-0.115895	9.715241	-0.011393	0.025230	-0.024514	1.000000	-0.000041	0.000009	0.000034	-0.829250	-6.902078	48.641356
47879	1.177695	-0.149782	9.719815	0.007076	-0.004862	-0.020643	1.000000	-0.000056	0.000008	0.000011	-0.830339	-6.903335	48.644159
47880	1.144617	-0.119030	9.749870	-0.040416	-0.011588	0.004773	1.000000	-0.000039	0.000025	0.000021	-0.829571	-6.902579	48.644339
47881	1.187883	-0.134730	9.733718	0.001237	0.011528	-0.005835	1.000000	-0.000049	0.000012	0.000014	-0.829723	-6.903293	48.642246
47882	1.176772	-0.152567	9.719883	0.008496	-0.007548	-0.020646	1.000000	-0.000042	0.000012	0.000025	-0.829288	-6.903995	48.642923
47883	1.184629	-0.145776	9.661151	0.013866	0.007441	-0.078100	1.000000	-0.000042	0.000015	0.000017	-0.828870	-6.904233	48.641496
47884	1.196642	-0.145708	9.693427	0.018781	0.013715	-0.044618	1.000000	-0.000042	0.000012	0.000025	-0.828435	-6.904935	48.642173
47885	1.175902	-0.155079	9.719949	0.009894	-0.010183	-0.020650	1.000000	-0.000035	0.000022	0.000011	-0.827174	-6.904496	48.641979
47886	1.183549	-0.106973	9.697045	-0.018897	0.029143	-0.043158	1.000000	-0.000039	0.000022	0.000029	-0.826493	-6.904088	48.643140
47887	1.165520	-0.148588	9.760371	-0.005295	-0.016795	0.018134	1.000000	-0.000064	0.000021	0.000014	-0.828614	-6.903622	48.641344
47888	1.184026	-0.125166	9.715530	-0.006716	0.016366	-0.024491	1.000000	-0.000051	0.000031	0.000011	-0.829038	-6.902182	48.640405
47889	1.152282	-0.151647	9.728194	-0.008837	-0.025728	-0.015352	1.000000	-0.000046	0.000015	0.000035	-0.829339	-6.902575	48.645115
47890	1.205056	-0.134524	9.707509	0.014781	0.026595	-0.029791	1.000000	-0.000046	0.000018	0.000027	-0.829421	-6.902554	48.645964
47891	1.170613	-0.128920	9.683372	-0.009787	0.006549	-0.057970	1.000000	-0.000042	0.000018	0.000008	-0.828753	-6.902546	48.643598
47892	1.151106	-0.154492	9.728289	-0.007424	-0.028413	-0.015359	1.000000	-0.000055	0.000031	0.000030	-0.829864	-6.901078	48.644795
47893	1.194216	-0.170217	9.712155	0.034216	-0.005289	-0.025967	1.000000	-0.000035	0.000022	0.000011	-0.828509	-6.900678	48.643758
47894	1.182919	-0.146823	9.734147	0.007323	-0.000021	-0.005831	1.000000	-0.000053	0.000015	0.000024	-0.829352	-6.901043	48.644296
47895	1.170233	-0.148768	9.701920	0.003314	-0.008043	-0.039318	1.000000	-0.000051	0.000028	0.000020	-0.829908	-6.899989	48.646037
47896	1.169810	-0.149650	9.701957	0.003781	-0.008934	-0.039319	1.000000	-0.000035	0.000015	0.000028	-0.828714	-6.900303	48.647022
47897	1.181710	-0.149609	9.734252	0.008738	-0.002715	-0.005833	1.000000	-0.000046	0.000021	0.000018	-0.828595	-6.899911	48.645677
47898	1.147242	-0.143918	9.710111	-0.015853	-0.022734	-0.034018	1.000000	-0.000035	0.000018	0.000019	-0.827314	-6.899877	48.645681
47899	1.168692	-0.152160	9.702053	0.005196	-0.011586	-0.039322	1.000000	-0.000046	0.000018	0.000027	-0.827543	-6.899725	48.646109
47900	1.179179	-0.136227	9.715970	-0.001104	0.005683	-0.024477	1.000000	-0.000046	0.000021	0.000018	-0.827539	-6.899355	48.645975
47901	1.189630	-0.161552	9.694039	0.026725	-0.001355	-0.044627	1.000000	-0.000054	0.000028	0.000038	-0.828734	-6.898169	48.647178
47902	1.167342	-0.113989	9.738028	-0.027510	0.010059	-0.004323	1.000000	-0.000045	0.000015	-0.000013	-0.828203	-6.898586	48.643441
47903	1.188855	-0.163271	9.694105	0.027647	-0.003142	-0.044630	1.000000	-0.000028	0.000022	0.000022	-0.826198	-6.898240	48.645832
47904	1.166708	-0.156714	9.702219	0.007528	-0.016040	-0.039330	1.000000	-0.000053	0.000012	0.000032	-0.827129	-6.898953	48.647348
47905	1.164914	-0.141751	9.683880	-0.003228	-0.005872	-0.057966	1.000000	-0.000051	0.000031	0.000011	-0.827446	-6.897406	48.643330
47906	1.156309	-0.150513	9.742642	-0.007610	-0.022735	-0.000541	1.000000	-0.000049	0.000012	0.000014	-0.827689	-6.898145	48.642709
47907	1.175050	-0.126837	9.697839	-0.009038	0.010500	-0.043106	1.000000	-0.000046	0.000021	0.000018	-0.827611	-6.897725	48.641183
47908	1.174602	-0.127885	9.697880	-0.008571	0.009610	-0.043104	1.000000	-0.000058	0.000024	0.000017	-0.828884	-6.897017	48.640910
47909	1.161906	-0.129771	9.665650	-0.012618	0.001631	-0.076595	1.000000	-0.000046	0.000021	0.000018	-0.828955	-6.896741	48.643691
47910	1.187286	-0.144993	9.748604	0.008092	0.003835	0.009016	1.000000	-0.000040	0.000028	0.000013	-0.828103	-6.895635	48.642886
47911	1.163805	-0.122417	9.738349	-0.023265	0.002026	-0.004307	1.000000	-0.000044	0.000002	0.000021	-0.827952	-6.897308	48.640943
47912	1.163504	-0.123215	9.738375	-0.022796	0.001133	-0.004305	1.000000	-0.000032	0.000028	0.000024	-0.826425	-6.896164	48.641429
47913	1.152233	-0.140908	9.724501	-0.015553	-0.017884	-0.019177	1.000000	-0.000049	0.000012	0.000014	-0.826656	-6.896716	48.637841
47914	1.185991	-0.148459	9.748709	0.010007	0.000294	0.009015	1.000000	-0.000046	0.000018	0.000027	-0.826739	-6.896694	48.638685
47915	1.162456	-0.126036	9.738464	-0.021360	-0.001496	-0.004302	1.000000	-0.000053	0.000018	0.000015	-0.827590	-6.896558	48.637189
47916	1.182489	-0.118462	9.712058	-0.011556	0.020695	-0.028219	1.000000	-0.000050	0.000025	0.000028	-0.828189	-6.895812	48.638206
47917	1.139947	-0.161703	9.710690	-0.006932	-0.039564	-0.034062	1.000000	-0.000038	0.000009	0.000015	-0.827180	-6.896880	48.638473
47918	1.161528	-0.128828	9.738539	-0.019954	-0.004175	-0.004300	1.000000	-0.000041	0.000009	0.000034	-0.826837	-6.897930	48.640123
47919	1.150473	-0.146559	9.724626	-0.012735	-0.023192	-0.019184	1.000000	-0.000045	0.000009	0.000004	-0.826508	-6.898944	48.637053
47920	1.182933	-0.138102	9.730476	0.001580	0.006056	-0.009600	1.000000	-0.000053	0.000015	0.000024	-0.827354	-6.899307	48.637584
47921	1.192152	-0.147320	9.690143	0.018148	0.010147	-0.048397	1.000000	-0.000046	0.000021	0.000018	-0.827347	-6.898708	48.634095
47922	1.149550	-0.149461	9.724691	-0.011306	-0.025841	-0.019189	1.000000	-0.000042	0.000012	0.000025	-0.826917	-6.899408	48.634763
47923	1.180682	-0.124852	9.712198	-0.008224	0.014510	-0.028204	1.000000	-0.000041	0.000009	0.000034	-0.826531	-6.900336	48.633781
47924	1.181701	-0.141867	9.730572	0.003503	0.002519	-0.009599	1.000000	-0.000050	0.000025	0.000028	-0.827131	-6.899589	48.634797
47925	1.192366	-0.167031	9.708571	0.031286	-0.004521	-0.029795	1.000000	-0.000041	0.000002	0.000002	-0.826250	-6.901518	48.634468
47926	1.159450	-0.136322	9.738684	-0.016159	-0.011283	-0.004299	1.000000	-0.000053	0.000015	0.000024	-0.827097	-6.901881	48.634997
47927	1.157748	-0.121453	9.720368	-0.026951	-0.001082	-0.022899	1.000000	-0.000065	0.000021	0.000014	-0.829105	-6.901605	48.635117
47928	1.158739	-0.138583	9.738737	-0.015222	-0.013081	-0.004299	1.000000	-0.000042	0.000015	0.000017	-0.828589	-6.901955	48.634803
47929	1.191137	-0.130131	9.744613	-0.000908	0.016170	0.005305	1.000000	-0.000053	0.000015	0.000024	-0.829565	-6.902299	48.636989
47930	1.178550	-0.131913	9.712363	-0.004970	0.008259	-0.028195	1.000000	-0.000046	0.000021	0.000018	-0.829564	-6.901926	48.636849
47931	1.199975	-0.140326	9.704310	0.016061	0.019375	-0.033493	1.000000	-0.000053	0.000018	0.000015	-0.830468	-6.902008	48.639525
47932	1.179271	-0.149969	9.730745	0.007204	-0.004633	-0.009601	1.000000	-0.000045	0.000006	0.000012	-0.830199	-6.903467	48.638725
47933	1.189823	-0.133937	9.744722	0.000922	0.012587	0.005310	1.000000	-0.000032	0.000028	0.000024	-0.828742	-6.902452	48.642484
47934	1.199045	-0.142767	9.704390	0.017442	0.016691	-0.033491	1.000000	-0.000030	0.000009	0.000026	-0.827037	-6.903490	48.643289
47935	1.165941	-0.111973	9.734546	-0.029985	0.009929	-0.007977	1.000000	-0.000051	0.000028	0.000020	-0.827583	-6.902297	48.642502
47936	1.177752	-0.153150	9.730879	0.009063	-0.008202	-0.009605	1.000000	-0.000035	0.000018	0.000019	-0.826306	-6.902262	48.642500
47937	1.152939	-0.114501	9.702336	-0.033590	0.001137	-0.041476	1.000000	-0.000053	0.000015	0.000024	-0.827107	-6.902664	48.642756
47938	1.198874	-0.162480	9.722847	0.030592	0.002001	-0.014906	1.000000	-0.000046	0.000021	0.000018	-0.827107	-6.902291	48.642615
47939	1.175459	-0.139858	9.712627	-0.000798	0.000213	-0.028190	1.000000	-0.000037	0.000006	0.000023	-0.826097	-6.903802	48.644153
47940	1.207950	-0.131388	9.718514	0.013540	0.029438	-0.018563	1.000000	-0.000053	0.000015	0.000024	-0.826946	-6.904164	48.644678
47941	1.176347	-0.157914	9.730973	0.011407	-0.012721	-0.009612	1.000000	-0.000049	0.000009	0.000022	-0.827210	-6.905335	48.645869
47942	1.163790	-0.118413	9.734728	-0.026700	0.003626	-0.007963	1.000000	-0.000028	0.000022	0.000022	-0.825171	-6.904914	48.646179
47943	1.196228	-0.150777	9.704616	0.021678	0.008655	-0.033489	1.000000	-0.000045	0.000009	0.000004	-0.824861	-6.905846	48.642565
47944	1.174079	-0.103319	9.748747	-0.032461	0.019977	0.006974	1.000000	-0.000050	0.000021	0.000037	-0.825551	-6.905449	48.644557
47945	1.173789	-0.145359	9.712748	0.002017	-0.005118	-0.028192	1.000000	-0.000049	0.000012	0.000014	-0.825886	-6.906148	48.644570
47946	1.161213	-0.106022	9.716517	-0.036088	0.011236	-0.026527	1.000000	-0.000046	0.000021	0.000018	-0.825886	-6.905774	48.644427
47947	1.205740	-0.137873	9.718699	0.016864	0.023233	-0.018551	1.000000	-0.000046	0.000021	0.000018	-0.825866	-6.905158	48.640790
47948	1.183727	-0.131513	9.726795	-0.003257	0.010339	-0.013252	1.000000	-0.000059	-0.000001	0.000007	-0.827122	-6.907385	48.639359
47949	1.150887	-0.142080	9.720903	-0.016670	-0.020665	-0.022897	1.000000	-0.000057	0.000015	0.000042	-0.828635	-6.907742	48.642293
47950	1.181787	-0.117815	9.708530	-0.013591	0.019696	-0.031814	1.000000	-0.000062	0.000034	0.000010	-0.830340	-6.905955	48.641205
47951	1.171861	-0.151661	9.712885	0.004871	-0.010422	-0.028197	1.000000	-0.000033	0.000003	0.000013	-0.828839	-6.907576	48.638872
47952	1.181254	-0.119595	9.708573	-0.012639	0.017941	-0.031810	1.000000	-0.000046	0.000015	0.000035	-0.829016	-6.907902	48.640688
47953	1.182365	-0.136747	9.726888	-0.000901	0.005922	-0.013248	1.000000	-0.000056	0.000005	0.000020	-0.830254	-6.909266	48.641174
47954	1.192925	-0.120984	9.740903	-0.007132	0.023127	0.001706	1.000000	-0.000043	0.000028	0.000031	-0.830097	-6.908134	48.642497
47955	1.170599	-0.155529	9.712976	0.006731	-0.013956	-0.028202	1.000000	-0.000051	0.000028	0.000020	-0.830661	-6.907030	48.643316
47956	1.190710	-0.147837	9.686621	0.016513	0.008313	-0.052056	1.000000	-0.000049	0.000012	0.000014	-0.830909	-6.907763	48.642684
47957	1.179333	-0.124580	9.708744	-0.010299	0.013509	-0.031800	1.000000	-0.000040	0.000034	0.000044	-0.830519	-6.905875	48.644655
47959	1.185937	-0.162330	9.725225	0.041462	-0.014357	9.784488	1.000000	-0.000104	0.000049	0.000027	-0.837262	-6.902324	48.645452
47960	1.166998	-0.144312	9.694879	-0.002663	-0.006358	-0.046760	1.000000	-0.000042	0.000015	0.000017	-0.836763	-6.902615	48.644645
47961	1.189627	-0.127756	9.741220	-0.004302	0.017765	0.001718	1.000000	-0.000044	0.000031	0.000023	-0.836518	-6.901131	48.644987
47962	1.157743	-0.154109	9.753636	-0.006446	-0.024406	0.010596	1.000000	-0.000042	0.000018	0.000008	-0.835838	-6.901175	48.643552
47963	1.165672	-0.146944	9.694999	-0.001257	-0.009044	-0.046761	1.000000	-0.000046	0.000021	0.000018	-0.835839	-6.900799	48.643406
47964	1.188270	-0.130453	9.741350	-0.002882	0.015073	0.001723	1.000000	-0.000047	0.000028	0.000001	-0.835675	-6.899667	48.640699
47965	1.164771	-0.148810	9.695079	-0.000318	-0.010817	-0.046763	1.000000	-0.000046	0.000015	0.000035	-0.835853	-6.899993	48.642512
47966	1.176534	-0.149168	9.727413	0.004756	-0.004805	-0.013249	1.000000	-0.000051	0.000028	0.000020	-0.836316	-6.898864	48.641910
47967	1.174818	-0.134100	9.709164	-0.006059	0.005484	-0.031788	1.000000	-0.000053	0.000015	0.000024	-0.837168	-6.899224	48.642429
47968	1.153969	-0.143723	9.735556	-0.014888	-0.018594	-0.007955	1.000000	-0.000035	0.000018	0.000019	-0.835830	-6.899157	48.641466
47969	1.163297	-0.152679	9.695196	0.001572	-0.014385	-0.046768	1.000000	-0.000053	0.000012	0.000032	-0.836771	-6.899868	48.642963
47970	1.186102	-0.136270	9.741534	-0.000022	0.009706	0.001731	1.000000	-0.000042	0.000015	0.000017	-0.836215	-6.900109	48.641051
47971	1.165247	-0.145784	9.767924	-0.008860	-0.014376	0.025560	1.000000	-0.000035	0.000018	0.000019	-0.834940	-6.900071	48.641044
47972	1.174638	-0.154690	9.727556	0.007590	-0.010172	-0.013255	1.000000	-0.000048	0.000005	0.000031	-0.835361	-6.901579	48.643500
47973	1.163636	-0.131429	9.749660	-0.019212	-0.004986	0.007028	1.000000	-0.000041	0.000002	0.000002	-0.834492	-6.903406	48.641537
