// Start Time: Unknown
// Update Rate: 100.0Hz
// Filter Profile: human (46.1)
// Firmware Version: 4.4.0
PacketCounter	Acc_X	Acc_Y	Acc_Z	FreeAcc_X	FreeAcc_Y	FreeAcc_Z	OriInc_q0	OriInc_q1	OriInc_q2	OriInc_q3	Roll	Pitch	Yaw
01233	9.609764	-0.017964	2.195223	0.000000	-0.000000	0.044640	1.000000	0.000025	0.000019	0.000013	-0.466947	-77.132997	-7.104156
01234	9.624720	-0.035538	2.187442	0.000000	-0.000000	0.057541	1.000000	0.000025	0.000019	0.000013	-0.928867	-77.195154	-6.915638
01235	9.599362	-0.038962	2.221568	-0.034968	-0.007796	0.040401	1.000000	0.000033	0.000021	0.000006	-0.694741	-77.162819	-7.007750
01236	9.619746	0.002591	2.170716	0.024570	0.026143	0.048867	1.000000	0.000034	0.000014	0.000011	-0.696486	-77.161141	-7.001923
01237	9.591733	-0.034835	2.199344	-0.014026	-0.006454	0.028015	1.000000	0.000021	0.000015	0.000008	-0.696877	-77.159711	-6.998454
01238	9.609303	-0.009369	2.250761	-0.056087	0.025099	0.056504	1.000000	0.000039	0.000018	0.000017	-0.700735	-77.157568	-6.989957
01239	9.591552	-0.035085	2.200128	-0.014010	-0.006458	0.028015	1.000000	0.000027	0.000030	0.000013	-0.703962	-77.154056	-6.983435
01240	9.616610	-0.022898	2.220845	-0.026227	0.007739	0.057020	1.000000	0.000032	0.000034	0.000018	-0.709372	-77.150179	-6.974176
01241	9.626719	-0.002253	2.195811	0.003575	0.024704	0.061253	1.000000	0.000037	0.000025	0.000011	-0.710584	-77.147059	-6.968602
01242	9.613684	-0.057081	2.216525	-0.026120	-0.026593	0.053303	1.000000	0.000037	0.000025	0.000011	-0.711826	-77.144132	-6.963000
01243	9.608767	-0.018968	2.199577	-0.005156	0.009116	0.044634	1.000000	0.000027	0.000030	0.000013	-0.715156	-77.140456	-6.956377
01244	9.616119	-0.023264	2.222967	-0.026149	0.007729	0.057020	1.000000	0.000023	0.000026	0.000008	-0.716334	-77.137510	-6.952462
01245	9.616002	-0.023445	2.223472	-0.026081	0.007713	0.057020	1.000000	0.000033	0.000027	0.000024	-0.724119	-77.134014	-6.940541
01246	9.575662	-0.018515	2.211944	-0.022714	0.012258	0.015114	1.000000	0.000033	0.000021	0.000006	-0.723245	-77.131554	-6.937611
01247	9.633546	-0.006998	2.221496	-0.017194	0.023262	0.073639	1.000000	0.000030	0.000010	0.000006	-0.722333	-77.129684	-6.934983
01248	9.582949	-0.022743	2.235599	-0.043597	0.010838	0.027501	1.000000	0.000044	0.000040	0.000016	-0.725174	-77.125043	-6.926945
01249	9.630649	-0.041153	2.217043	-0.016950	-0.011132	0.069922	1.000000	0.000032	0.000004	0.000012	-0.726164	-77.123588	-6.922118
01250	9.608112	-0.019556	2.202431	-0.004808	0.008997	0.044634	1.000000	0.000044	0.000010	0.000010	-0.725844	-77.122397	-6.917287
01251	9.597757	-0.040415	2.228467	-0.034387	-0.008037	0.040403	1.000000	0.000032	0.000034	0.000018	-0.730156	-77.117380	-6.909093
01252	9.615489	-0.033006	2.172306	0.025225	-0.008423	0.045148	1.000000	0.000030	0.000010	0.000006	-0.729775	-77.116170	-6.905946
01253	9.615293	-0.024011	2.226528	-0.025414	0.007506	0.057022	1.000000	0.000027	0.000030	0.000013	-0.732624	-77.111600	-6.899799
01254	9.600151	-0.006579	2.235087	-0.034265	0.026249	0.044122	1.000000	0.000028	0.000017	0.000001	-0.729640	-77.109607	-6.899534
01255	9.607621	-0.019841	2.204568	-0.004155	0.008807	0.044635	1.000000	0.000041	0.000029	0.000016	-0.731570	-77.104615	-6.892640
01256	9.622567	-0.037476	2.196863	0.004696	-0.009936	0.057535	1.000000	0.000027	0.000012	0.000019	-0.737933	-77.103237	-6.882980
01257	9.615041	-0.033358	2.174279	0.025945	-0.008627	0.045146	1.000000	0.000028	0.000017	0.000001	-0.733741	-77.099705	-6.883910
01258	9.599940	-0.015984	2.182659	0.017094	0.010116	0.032246	1.000000	0.000040	0.000012	0.000022	-0.740158	-77.098347	-6.872570
01259	9.582173	-0.032622	2.185585	0.008477	-0.005548	0.015628	1.000000	0.000040	0.000006	0.000004	-0.736119	-77.096637	-6.871945
01260	9.614898	-0.033590	2.174910	0.026106	-0.008708	0.045145	1.000000	0.000027	0.000012	0.000019	-0.742473	-77.095264	-6.862293
01261	9.592193	-0.003068	2.214364	-0.012480	0.027332	0.031736	1.000000	0.000041	0.000029	0.000016	-0.744605	-77.091209	-6.855149
01262	9.614604	-0.024846	2.229495	-0.024620	0.007201	0.057025	1.000000	0.000036	0.000008	0.000017	-0.748908	-77.090323	-6.846478
01263	9.607098	-0.020786	2.206838	-0.003453	0.008486	0.044635	1.000000	0.000048	0.000014	0.000015	-0.748583	-77.087577	-6.841062
01264	9.632302	-0.017646	2.173588	0.035168	0.006713	0.061763	1.000000	0.000004	0.000034	0.000012	-0.753808	-77.083667	-6.835229
01265	9.624591	-0.004503	2.205118	0.005488	0.023961	0.061254	1.000000	0.000037	0.000025	0.000011	-0.752759	-77.079718	-6.832030
01266	9.621834	-0.038449	2.200056	0.005563	-0.010364	0.057534	1.000000	0.000035	0.000002	-0.000001	-0.748243	-77.079455	-6.832511
01267	9.631918	-0.008685	2.228536	-0.015397	0.022461	0.073644	1.000000	0.000020	0.000027	0.000021	-0.753543	-77.075657	-6.824918
01268	9.629237	-0.051981	2.169889	0.035512	-0.027833	0.058042	1.000000	0.000037	0.000025	0.000011	-0.754772	-77.072723	-6.819336
01269	9.606519	-0.021346	2.209350	-0.003149	0.008146	0.044636	1.000000	0.000025	0.000019	0.000013	-0.755500	-77.070280	-6.815503
01270	9.606436	-0.021494	2.209710	-0.003147	0.008147	0.044636	1.000000	0.000025	0.000019	0.000013	-0.759266	-77.068111	-6.808730
01271	9.606335	-0.021724	2.210147	-0.003098	0.008027	0.044636	1.000000	0.000033	0.000027	0.000024	-0.764250	-77.064651	-6.799765
01272	9.606409	-0.031046	2.156613	0.047737	-0.007940	0.032753	1.000000	0.000046	0.000003	0.000015	-0.766546	-77.064237	-6.792054
01273	9.606152	-0.022105	2.210940	-0.003174	0.007886	0.044636	1.000000	0.000011	0.000049	0.000017	-0.769429	-77.058969	-6.787435
01274	9.616263	-0.001636	2.186098	0.026595	0.024856	0.048865	1.000000	0.000045	0.000033	0.000022	-0.774825	-77.055115	-6.776569
01275	9.616164	-0.001869	2.186532	0.026509	0.024680	0.048865	1.000000	0.000027	0.000012	0.000019	-0.776344	-77.054117	-6.771564
01276	9.603095	-0.056786	2.207151	-0.003188	-0.026614	0.040914	1.000000	0.000025	0.000019	0.000013	-0.780092	-77.051962	-6.764808
01277	9.623432	-0.006372	2.210166	0.005347	0.023152	0.061256	1.000000	0.000027	0.000030	0.000013	-0.779174	-77.049456	-6.762520
01278	9.598147	-0.018897	2.190510	0.017556	0.008961	0.032247	1.000000	0.000039	0.000018	0.000017	-0.782978	-77.047334	-6.754086
01279	9.623220	-0.006656	2.211089	0.005317	0.022969	0.061256	1.000000	0.000041	0.000029	0.000016	-0.781435	-77.043958	-6.750738
01280	9.620402	-0.040936	2.206265	0.005390	-0.011355	0.057533	1.000000	0.000008	0.000020	0.000023	-0.791854	-77.041609	-6.739174
01281	9.612912	-0.037025	2.183616	0.026204	-0.010120	0.045144	1.000000	0.000032	0.000004	0.000012	-0.789584	-77.042107	-6.738201
01282	9.597798	-0.019709	2.192031	0.017351	0.008628	0.032247	1.000000	0.000045	0.000033	0.000022	-0.794995	-77.038261	-6.727338
01283	9.612569	-0.028122	2.238214	-0.024755	0.005678	0.057025	1.000000	0.000030	0.000010	0.000006	-0.789794	-77.037639	-6.728979
01284	9.587336	-0.040535	2.218336	-0.012542	-0.008510	0.028016	1.000000	0.000034	0.000014	0.000012	-0.791544	-77.035965	-6.723174
01285	9.612456	-0.028175	2.238697	-0.024934	0.005543	0.057025	1.000000	0.000030	0.000010	0.000006	-0.787050	-77.035709	-6.724312
01286	9.615272	-0.003400	2.190450	0.025826	0.023903	0.048869	1.000000	0.000039	0.000018	0.000017	-0.790891	-77.033578	-6.715862
01287	9.612498	-0.037701	2.185428	0.025790	-0.010570	0.045144	1.000000	0.000019	0.000009	0.000026	-0.797720	-77.033022	-6.707078
01288	9.602124	-0.058547	2.211328	-0.003981	-0.027534	0.040911	1.000000	0.000042	0.000017	0.000004	-0.794873	-77.031063	-6.705100
01289	9.637521	-0.025444	2.206212	0.013436	0.003530	0.074154	1.000000	0.000037	0.000025	0.000011	-0.793223	-77.028883	-6.702653
01290	9.601945	-0.058667	2.212102	-0.004122	-0.027624	0.040911	1.000000	0.000013	0.000012	0.000016	-0.799579	-77.027495	-6.694681
01291	9.614896	-0.004120	2.192096	0.025350	0.023650	0.048871	1.000000	0.000023	0.000026	0.000008	-0.799555	-77.025861	-6.692823
01292	9.619494	-0.042328	2.210194	0.004426	-0.012058	0.057533	1.000000	0.000023	0.000026	0.000008	-0.800801	-77.022943	-6.688909
01293	9.629727	-0.021708	2.184933	0.033857	0.004914	0.061768	1.000000	0.000021	0.000015	0.000008	-0.801594	-77.023234	-6.687132
01294	9.596884	-0.020834	2.196019	0.016223	0.008089	0.032250	1.000000	0.000034	0.000014	0.000012	-0.803440	-77.021610	-6.681296
01295	9.611830	-0.038245	2.188352	0.024855	-0.010722	0.045147	1.000000	0.000040	0.000024	-0.000001	-0.795615	-77.020068	-6.684938
01296	9.596723	-0.020657	2.196722	0.015999	0.008033	0.032250	1.000000	0.000030	0.000010	0.000006	-0.795391	-77.018912	-6.681738
01297	9.621846	-0.008380	2.217055	0.003436	0.022266	0.061259	1.000000	0.000041	0.000012	0.000022	-0.801850	-77.019610	-6.672663
01298	9.614342	-0.004392	2.194526	0.024419	0.023663	0.048873	1.000000	0.000009	0.000026	0.000005	-0.803151	-77.016712	-6.670389
01299	9.621640	-0.008620	2.217945	0.003138	0.022088	0.061259	1.000000	0.000041	0.000029	0.000016	-0.800648	-77.014859	-6.666470
01300	9.588940	-0.016934	2.175421	0.036338	0.009293	0.019866	1.000000	0.000033	0.000021	0.000006	-0.799929	-77.012475	-6.663498
01301	9.596080	-0.012001	2.252477	-0.035497	0.023650	0.044124	1.000000	0.000017	0.000016	0.000021	-0.802331	-77.010453	-6.657310
01302	9.596193	-0.021366	2.199029	0.015333	0.007685	0.032251	1.000000	0.000033	0.000021	0.000006	-0.801579	-77.008036	-6.654346
01303	9.636318	-0.026562	2.211446	0.011508	0.002996	0.074157	1.000000	0.000027	0.000012	0.000019	-0.803137	-77.009215	-6.649979
01304	9.598746	0.012439	2.205026	0.014800	0.041887	0.035980	1.000000	0.000035	0.000032	0.000006	-0.801878	-77.005577	-6.647250
01305	9.610989	-0.039134	2.192026	0.023360	-0.011422	0.045150	1.000000	0.000048	-0.000004	0.000021	-0.799535	-77.007870	-6.642866
01306	9.613632	-0.005270	2.197634	0.023277	0.022910	0.048878	1.000000	0.000030	0.000040	0.000013	-0.802350	-77.003292	-6.636558
01307	9.595786	-0.021987	2.200800	0.014403	0.007148	0.032253	1.000000	0.000024	0.000001	0.000019	-0.804113	-77.003588	-6.632000
01308	9.588143	-0.008748	2.231820	-0.015447	0.024514	0.031739	1.000000	0.000030	0.000010	0.000006	-0.803858	-77.002443	-6.628816
01309	9.613443	-0.005696	2.198458	0.022566	0.022612	0.048880	1.000000	0.000029	0.000023	0.000019	-0.804805	-77.003261	-6.625805
01310	9.618048	-0.044075	2.216440	0.001624	-0.013092	0.057532	1.000000	0.000027	0.000012	0.000019	-0.811270	-77.001984	-6.616156
01311	9.628329	-0.023628	2.191067	0.031492	0.003714	0.061777	1.000000	0.000039	0.000018	0.000017	-0.811291	-76.999147	-6.612593
01312	9.620641	-0.010453	2.222269	0.001642	0.021084	0.061262	1.000000	-0.000001	0.000012	0.000012	-0.817685	-76.997790	-6.606282
01313	9.595410	-0.022922	2.202430	0.012963	0.006691	0.032256	1.000000	0.000028	0.000017	0.000001	-0.806704	-77.000939	-6.613209
01314	9.595328	-0.023073	2.202785	0.012940	0.006701	0.032256	1.000000	0.000049	0.000020	0.000033	-0.817368	-76.998788	-6.596619
01315	9.620414	-0.011039	2.223249	0.000344	0.020834	0.061262	1.000000	0.000031	0.000016	0.000024	-0.823281	-76.999077	-6.589862
01316	9.595191	-0.023601	2.203377	0.012543	0.006658	0.032256	1.000000	0.000030	0.000010	0.000006	-0.823113	-76.998021	-6.586659
01317	9.595120	-0.023580	2.203683	0.011985	0.006619	0.032257	1.000000	0.000033	0.000021	0.000006	-0.819631	-76.998806	-6.589714
01318	9.617674	-0.054566	2.165205	0.050633	-0.029480	0.045675	1.000000	0.000029	0.000023	0.000019	-0.825701	-76.996363	-6.580264
01319	9.620085	-0.011503	2.224669	-0.000637	0.020786	0.061262	1.000000	0.000015	0.000023	0.000015	-0.829412	-76.995832	-6.577413
01320	9.609860	-0.041470	2.196931	0.020395	-0.012136	0.045155	1.000000	0.000042	0.000017	0.000004	-0.826823	-76.994063	-6.575356
01321	9.602379	-0.037513	2.174386	0.041102	-0.010799	0.032780	1.000000	0.000049	0.000019	0.000033	-0.835317	-76.993428	-6.563373
01322	9.609662	-0.041806	2.197788	0.020071	-0.012163	0.045156	1.000000	0.000021	0.000032	0.000002	-0.834227	-76.989905	-6.562259
01323	9.594524	-0.024354	2.206271	0.010794	0.006666	0.032258	1.000000	0.000039	0.000018	0.000017	-0.838793	-76.990385	-6.557663
01324	9.619822	-0.021339	2.173024	0.049369	0.004892	0.049412	1.000000	0.000037	0.000025	0.000011	-0.840430	-76.987683	-6.551964
01325	9.609340	-0.042012	2.199193	0.019434	-0.012077	0.045157	1.000000	0.000023	0.000026	0.000008	-0.840741	-76.985640	-6.551795
01326	9.579194	-0.006970	2.215578	0.001736	0.025452	0.019359	1.000000	0.000042	0.000017	0.000004	-0.838341	-76.983877	-6.549652
01327	9.611891	-0.007932	2.205228	0.019155	0.021967	0.048889	1.000000	0.000009	0.000026	0.000005	-0.830891	-76.981784	-6.551677
01328	9.609053	-0.042053	2.200445	0.019186	-0.012336	0.045157	1.000000	0.000039	0.000018	0.000017	-0.835088	-76.979834	-6.543118
01329	9.619104	-0.012151	2.228901	-0.002432	0.020772	0.061262	1.000000	0.000028	0.000017	0.000001	-0.834779	-76.981207	-6.546544
01330	9.611636	-0.008073	2.206338	0.018536	0.022178	0.048890	1.000000	0.000053	0.000018	0.000020	-0.839138	-76.979304	-6.536260
01331	9.611554	-0.008224	2.206692	0.018122	0.022064	0.048891	1.000000	0.000025	0.000019	0.000013	-0.838674	-76.979475	-6.533971
01332	9.593698	-0.024795	2.209855	0.009313	0.006518	0.032260	1.000000	0.000033	0.000021	0.000006	-0.838315	-76.977247	-6.530873
01333	9.586214	-0.020801	2.187370	0.030338	0.007826	0.019888	1.000000	0.000029	0.000023	0.000019	-0.842361	-76.974416	-6.525415
01334	9.608519	-0.042548	2.202768	0.018135	-0.012279	0.045160	1.000000	0.000023	0.000026	0.000008	-0.844060	-76.971671	-6.521345
01335	9.596127	0.009068	2.216409	0.008508	0.040734	0.035992	1.000000	0.000040	0.000024	-0.000001	-0.834674	-76.973224	-6.526738
01336	9.611059	-0.008418	2.208846	0.017299	0.022009	0.048892	1.000000	0.000039	0.000018	0.000017	-0.839013	-76.971326	-6.518128
01337	9.595968	0.008897	2.217101	0.007740	0.040744	0.035992	1.000000	0.000041	0.000011	0.000022	-0.842762	-76.974235	-6.511979
01338	9.593139	-0.025275	2.212272	0.007749	0.006450	0.032261	1.000000	0.000009	0.000026	0.000005	-0.844433	-76.971553	-6.509598
01339	9.643610	-0.009877	2.199172	0.032339	0.018935	0.078433	1.000000	0.000039	0.000018	0.000017	-0.845548	-76.979882	-6.508062
01340	9.595706	0.008501	2.218234	0.005856	0.040907	0.035993	1.000000	0.000039	0.000018	0.000017	-0.849948	-76.978159	-6.499460
01341	9.625698	-0.026696	2.202560	0.023074	0.003332	0.061800	1.000000	0.000036	0.000007	0.000017	-0.851313	-76.979700	-6.496539
01342	9.610601	-0.009287	2.210836	0.014184	0.022122	0.048897	1.000000	0.000037	0.000025	0.000011	-0.853156	-76.977210	-6.490794
01343	9.592739	-0.025852	2.214001	0.004493	0.006600	0.032263	1.000000	0.000034	0.000014	0.000012	-0.853428	-76.980947	-6.491295
01344	9.625431	-0.027011	2.203723	0.022003	0.003452	0.061803	1.000000	0.000032	0.000034	0.000018	-0.859414	-76.977558	-6.481960
01345	9.625334	-0.027113	2.204146	0.022100	0.003287	0.061802	1.000000	0.000044	0.000010	0.000010	-0.855132	-76.975680	-6.481988
01346	9.617893	-0.023237	2.181523	0.043036	0.004697	0.049441	1.000000	0.000022	0.000020	0.000026	-0.866262	-76.973796	-6.468585
01347	9.640198	-0.045029	2.196885	0.030623	-0.015479	0.074707	1.000000	0.000033	0.000021	0.000006	-0.863525	-76.972579	-6.470632
01348	9.602692	-0.005963	2.190254	0.033929	0.023444	0.036538	1.000000	0.000025	0.000019	0.000013	-0.868019	-76.970865	-6.463657
01349	9.614855	-0.057658	2.177607	0.041864	-0.029556	0.045716	1.000000	0.000027	0.000030	0.000013	-0.870706	-76.972886	-6.462851
01350	9.574294	-0.043317	2.219663	-0.005624	-0.008934	0.015627	1.000000	0.000039	0.000018	0.000017	-0.875311	-76.971245	-6.454177
01351	9.599327	-0.030939	2.240282	-0.018114	0.005471	0.044621	1.000000	0.000035	0.000032	0.000006	-0.878432	-76.969137	-6.455503
01352	9.602307	-0.006370	2.191939	0.032603	0.023814	0.036542	1.000000	0.000034	-0.000003	0.000017	-0.884207	-76.969987	-6.446289
01353	9.624648	-0.028088	2.207128	0.019953	0.003505	0.061807	1.000000	0.000037	0.000025	0.000011	-0.879212	-76.969539	-6.445103
01354	9.617185	-0.024123	2.184633	0.040884	0.004916	0.049450	1.000000	0.000025	0.000019	0.000013	-0.883843	-76.967883	-6.438081
01355	9.609473	-0.010685	2.215729	0.009760	0.022579	0.048901	1.000000	0.000040	0.000006	0.000004	-0.884658	-76.974970	-6.441103
01356	9.591646	-0.027169	2.218717	0.000893	0.007066	0.032264	1.000000	0.000021	0.000015	0.000008	-0.887313	-76.973861	-6.436684
01357	9.624369	-0.028225	2.208341	0.018005	0.003790	0.061810	1.000000	0.000033	0.000021	0.000006	-0.882961	-76.974049	-6.437970
01358	9.591462	-0.027196	2.219513	0.000334	0.007037	0.032264	1.000000	0.000023	0.000026	0.000008	-0.885089	-76.971706	-6.433798
01359	9.599019	-0.040681	2.189111	0.029215	-0.010323	0.032823	1.000000	0.000033	0.000021	0.000006	-0.882496	-76.974739	-6.435755
01360	9.624092	-0.028226	2.209550	0.016866	0.003936	0.061812	1.000000	0.000030	0.000010	0.000006	-0.883161	-76.974180	-6.432281
01361	9.616686	-0.024158	2.186828	0.037287	0.005597	0.049464	1.000000	0.000044	0.000010	0.000010	-0.889127	-76.976673	-6.431286
01362	9.634373	-0.007766	2.184461	0.045951	0.021220	0.066103	1.000000	0.000018	0.000034	0.000015	-0.895479	-76.973448	-6.423495
01363	9.619237	0.009588	2.192884	0.036373	0.039934	0.053195	1.000000	0.000053	0.000018	0.000020	-0.895809	-76.975861	-6.417544
01364	9.616371	-0.024588	2.188211	0.036280	0.005669	0.049468	1.000000	0.000028	0.000029	0.000013	-0.900140	-76.973160	-6.410707
01365	9.593551	0.006309	2.227543	-0.003678	0.042149	0.035989	1.000000	0.000028	0.000029	0.000013	-0.907434	-76.977893	-6.409768
01366	9.623488	-0.028914	2.212166	0.013772	0.004689	0.061817	1.000000	0.000039	0.000018	0.000017	-0.912447	-76.976538	-6.400969
01367	9.601032	-0.007471	2.197514	0.026787	0.024663	0.036557	1.000000	0.000025	0.000019	0.000013	-0.914856	-76.969693	-6.397415
01368	9.605506	-0.045604	2.215805	0.005668	-0.010947	0.045176	1.000000	0.000035	0.000032	0.000006	-0.914701	-76.966700	-6.394342
01369	9.593462	-0.003398	2.175549	0.046838	0.026326	0.024215	1.000000	0.000028	0.000017	0.000001	-0.915938	-76.969901	-6.399674
01370	9.600734	-0.007467	2.198816	0.025698	0.025049	0.036559	1.000000	0.000053	0.000018	0.000020	-0.921130	-76.968527	-6.389126
01371	9.600644	-0.007659	2.199208	0.026244	0.024685	0.036559	1.000000	0.000029	0.000023	0.000019	-0.919001	-76.962435	-6.383296
01372	9.597804	-0.041802	2.194411	0.026145	-0.009574	0.032832	1.000000	0.000030	0.000010	0.000006	-0.919950	-76.961909	-6.379703
01373	9.605095	-0.045873	2.217580	0.005267	-0.010634	0.045177	1.000000	0.000035	0.000014	0.000012	-0.929522	-76.959566	-6.377853
01374	9.600430	-0.007859	2.200143	0.026182	0.025103	0.036558	1.000000	0.000037	0.000025	0.000011	-0.932141	-76.957296	-6.371818
01375	9.600300	-0.007992	2.200707	0.025689	0.024912	0.036559	1.000000	0.000032	0.000033	0.000018	-0.930957	-76.956154	-6.367101
01376	9.622567	-0.029680	2.216160	0.013344	0.004873	0.061817	1.000000	0.000030	0.000010	0.000006	-0.932006	-76.955608	-6.363460
01377	9.622488	-0.029700	2.216505	0.012795	0.005074	0.061818	1.000000	0.000037	0.000025	0.000011	-0.936794	-76.956014	-6.362344
01378	9.625177	0.004184	2.221960	0.012689	0.039472	0.065543	1.000000	0.000041	0.000011	0.000022	-0.944647	-76.955328	-6.350546
01379	9.604531	-0.046484	2.220012	0.003474	-0.010503	0.045178	1.000000	0.000037	0.000025	0.000011	-0.942204	-76.954867	-6.349741
01380	9.614872	-0.026021	2.194772	0.033167	0.006465	0.049478	1.000000	0.000023	0.000025	0.000008	-0.944797	-76.952607	-6.345390
01381	9.581952	-0.025088	2.205922	0.014817	0.009899	0.019922	1.000000	0.000029	0.000023	0.000019	-0.954125	-76.954779	-6.340910
01382	9.606985	-0.012736	2.226482	0.002459	0.024198	0.048902	1.000000	0.000033	0.000021	0.000006	-0.954786	-76.953042	-6.337469
01383	9.614610	-0.026423	2.195910	0.031445	0.006983	0.049484	1.000000	0.000029	0.000005	0.000025	-0.967140	-76.957298	-6.329691
01384	9.606844	-0.013042	2.227088	0.001533	0.024502	0.048901	1.000000	0.000035	0.000032	0.000006	-0.967333	-76.954348	-6.326482
01385	9.629452	-0.044235	2.188805	0.038711	-0.011691	0.062409	1.000000	0.000041	0.000011	0.000022	-0.970123	-76.961041	-6.319520
01386	9.607051	-0.022775	2.173961	0.050843	0.008486	0.037155	1.000000	0.000044	0.000010	0.000010	-0.971443	-76.960676	-6.314126
01387	9.606973	-0.022797	2.174304	0.049927	0.008347	0.037160	1.000000	0.000023	0.000025	0.000008	-0.966237	-76.962982	-6.314503
01388	9.614199	-0.026959	2.197705	0.028760	0.007096	0.049492	1.000000	0.000029	0.000023	0.000019	-0.973583	-76.961205	-6.304648
01389	9.614103	-0.027062	2.198125	0.028253	0.007349	0.049493	1.000000	0.000047	0.000021	0.000009	-0.977915	-76.961895	-6.304068
01390	9.629043	-0.044648	2.190593	0.036873	-0.011339	0.062416	1.000000	0.000035	0.000014	0.000012	-0.981281	-76.961089	-6.297733
01391	9.624446	-0.006714	2.172937	0.055894	0.024166	0.053820	1.000000	0.000036	0.000007	0.000017	-0.975833	-76.971900	-6.292562
01392	9.621230	-0.031329	2.221936	0.004898	0.006036	0.061825	1.000000	0.000023	0.000025	0.000008	-0.978514	-76.969930	-6.288236
01393	9.598803	-0.009898	2.207223	0.016892	0.026719	0.036574	1.000000	0.000041	0.000011	0.000022	-0.999379	-76.970623	-6.280711
01394	9.606461	-0.023622	2.176558	0.046521	0.009355	0.037176	1.000000	0.000032	0.000003	0.000012	-1.003392	-76.971168	-6.274091
01395	9.642006	0.009161	2.171202	0.063663	0.040411	0.070470	1.000000	0.000029	0.000023	0.000019	-1.006638	-76.970898	-6.268998
01396	9.595830	-0.044365	2.202977	0.016139	-0.007481	0.032856	1.000000	0.000033	0.000021	0.000006	-1.007497	-76.969422	-6.265526
01397	9.613544	-0.027956	2.200555	0.024555	0.008026	0.049502	1.000000	0.000039	0.000018	0.000017	-1.009009	-76.969348	-6.261633
01398	9.638578	-0.015685	2.221088	0.012140	0.022350	0.078471	1.000000	0.000029	0.000023	0.000019	-1.016539	-76.967690	-6.251723
01399	9.613353	-0.028378	2.201386	0.023632	0.008373	0.049504	1.000000	0.000029	0.000023	0.000019	-1.026906	-76.969688	-6.247469
01400	9.616083	0.005503	2.206688	0.023507	0.042790	0.053222	1.000000	0.000046	0.000003	0.000015	-1.031056	-76.970283	-6.239127
01401	9.631021	-0.012092	2.199173	0.031687	0.024303	0.066152	1.000000	0.000021	0.000032	0.000002	-1.035438	-76.970037	-6.242326
01402	9.605804	-0.024529	2.179444	0.043781	0.010154	0.037188	1.000000	0.000044	0.000010	0.000010	-1.037066	-76.969868	-6.236835
01403	9.598001	-0.011096	2.210703	0.013919	0.028027	0.036575	1.000000	0.000022	0.000038	0.000020	-1.054568	-76.966284	-6.231009
01404	9.583239	-0.003228	2.165376	0.055837	0.030730	0.011939	1.000000	0.000033	0.000021	0.000006	-1.055713	-76.964833	-6.227419
01405	9.630614	-0.012359	2.200954	0.030742	0.025163	0.066153	1.000000	0.000035	0.000014	0.000012	-1.062773	-76.966457	-6.226263
01406	9.579893	-0.027899	2.214813	0.004279	0.012946	0.019929	1.000000	0.000020	0.000027	0.000021	-1.072661	-76.964342	-6.215280
01407	9.612624	-0.029203	2.204556	0.020850	0.009708	0.049509	1.000000	0.000035	0.000014	0.000012	-1.071432	-76.968155	-6.214275
01408	9.630377	-0.012769	2.201986	0.029468	0.025360	0.066157	1.000000	0.000030	0.000010	0.000006	-1.073203	-76.967993	-6.210396
01409	9.605164	-0.025208	2.182257	0.041221	0.011215	0.037197	1.000000	0.000021	0.000032	0.000002	-1.073135	-76.967275	-6.214000
01410	9.604705	-0.015682	2.236274	-0.009754	0.027514	0.048889	1.000000	0.000048	-0.000004	0.000021	-1.080236	-76.968698	-6.202627
01411	9.605055	-0.025621	2.182730	0.040539	0.011745	0.037200	1.000000	0.000026	0.000024	0.000031	-1.102443	-76.969154	-6.191491
01412	9.612246	-0.029922	2.206195	0.019326	0.010569	0.049512	1.000000	0.000028	0.000029	0.000013	-1.107869	-76.966806	-6.184274
01413	9.619837	-0.043698	2.175910	0.048168	-0.006726	0.050142	1.000000	0.000029	0.000023	0.000019	-1.116302	-76.969637	-6.177329
01414	9.586930	-0.042724	2.186911	0.030490	-0.003378	0.020557	1.000000	0.000035	0.000014	0.000012	-1.120340	-76.969058	-6.170749
01415	9.612379	-0.039978	2.153632	0.068777	-0.005357	0.037835	1.000000	0.000039	0.000018	0.000017	-1.122696	-76.968404	-6.165400
01416	9.604607	-0.026448	2.184693	0.038846	0.012254	0.037206	1.000000	0.000030	0.000010	0.000006	-1.124683	-76.968288	-6.161437
01417	9.619117	-0.034518	2.231019	-0.003950	0.009718	0.061822	1.000000	0.000046	0.000033	0.000022	-1.128630	-76.968541	-6.153974
01418	9.596689	-0.012997	2.216379	0.008210	0.029894	0.036576	1.000000	0.000029	0.000017	0.000001	-1.128004	-76.967667	-6.152908
01419	9.622110	-0.010293	2.183246	0.045099	0.028261	0.053864	1.000000	0.000038	0.000031	0.000029	-1.141760	-76.973962	-6.144475
01420	9.611456	-0.030901	2.209617	0.015072	0.011557	0.049518	1.000000	0.000035	0.000032	0.000006	-1.142680	-76.971444	-6.141059
01421	9.604065	-0.026895	2.187070	0.036049	0.013434	0.037215	1.000000	0.000030	0.000010	0.000006	-1.157935	-76.971061	-6.142186
01422	9.600770	-0.051411	2.236114	-0.015031	-0.004520	0.045171	1.000000	0.000029	0.000023	0.000019	-1.166247	-76.969589	-6.131984
01423	9.621689	-0.010645	2.185101	0.044877	0.029222	0.053862	1.000000	0.000035	0.000032	0.000006	-1.168661	-76.964707	-6.132508
01424	9.608284	-0.065138	2.206214	0.014746	-0.021786	0.045814	1.000000	0.000018	0.000004	0.000009	-1.173476	-76.965388	-6.127238
01425	9.613892	0.002819	2.216218	0.013353	0.047258	0.053221	1.000000	0.000048	-0.000004	0.000021	-1.184023	-76.975360	-6.120294
01426	9.626035	-0.048894	2.203682	0.021738	-0.005729	0.062466	1.000000	0.000022	0.000032	0.000002	-1.185146	-76.972843	-6.118471
01427	9.614161	-0.006876	2.163174	0.063003	0.031672	0.041575	1.000000	0.000030	0.000010	0.000006	-1.196849	-76.977570	-6.117157
01428	9.595843	-0.013778	2.220034	0.003219	0.032548	0.036570	1.000000	0.000029	0.000023	0.000019	-1.205398	-76.976167	-6.106866
01429	9.618470	-0.045148	2.181917	0.040648	-0.003804	0.050177	1.000000	0.000037	0.000025	0.000011	-1.203047	-76.978962	-6.105790
01430	9.628450	-0.015029	2.210382	0.019509	0.029404	0.066170	1.000000	0.000031	0.000028	0.000000	-1.202281	-76.977003	-6.104857
01431	9.588197	-0.009825	2.198621	0.021413	0.034319	0.024279	1.000000	0.000035	0.000032	0.000006	-1.206852	-76.983383	-6.105154
01432	9.610415	-0.031541	2.214132	0.008814	0.014418	0.049522	1.000000	0.000042	0.000005	0.000028	-1.218718	-76.984121	-6.089966
01433	9.613158	0.002308	2.219402	-0.012924	0.026490	0.053299	1.000000	0.000037	0.000025	0.000011	-0.575609	-77.094974	-7.130128
01434	9.620802	-0.011483	2.188998	0.016278	0.008677	0.053990	1.000000	0.000013	0.000012	0.000016	-0.579282	-77.095847	-7.128603
01435	9.612993	0.002012	2.220116	-0.013699	0.026346	0.053298	1.000000	0.000037	0.000025	0.000011	-0.576961	-77.095044	-7.119362
01436	9.620606	-0.011814	2.189856	0.015504	0.008534	0.053992	1.000000	0.000020	0.000027	0.000021	-0.582223	-77.094209	-7.115398
01437	9.580390	-0.006927	2.177938	0.018782	0.013038	0.012119	1.000000	0.000039	0.000018	0.000017	-0.583027	-77.094619	-7.110345
01438	9.609882	-0.032597	2.216429	-0.015307	-0.008137	0.049521	1.000000	0.000025	0.000019	0.000013	-0.584167	-77.094739	-7.109993
01439	9.590777	0.013298	2.152847	0.047903	0.029491	0.016594	1.000000	0.000042	0.000017	0.000004	-0.578744	-77.095395	-7.119161
01440	9.602441	-0.028811	2.194164	0.004935	-0.007113	0.037286	1.000000	0.000008	0.000020	0.000023	-0.586538	-77.095314	-7.114023
01441	9.620184	-0.012516	2.191705	0.013410	0.008252	0.053995	1.000000	0.000029	0.000017	0.000001	-0.580567	-77.095588	-7.121739
01442	9.627368	-0.016440	2.215080	-0.008088	0.007087	0.066227	1.000000	0.000037	0.000025	0.000011	-0.579175	-77.094955	-7.122560
01443	9.609460	-0.033032	2.218253	-0.017401	-0.008398	0.049517	1.000000	0.000041	0.000011	0.000022	-0.582793	-77.096111	-7.123025
01444	9.612219	0.000862	2.223467	-0.017412	0.025868	0.053294	1.000000	0.000021	0.000015	0.000008	-0.581830	-77.096694	-7.125338
01445	9.609303	-0.033290	2.218927	-0.018259	-0.008480	0.049516	1.000000	0.000042	0.000029	0.000017	-0.582774	-77.095944	-7.134637
01446	9.627020	-0.016902	2.216591	-0.009780	0.006895	0.066226	1.000000	0.000033	0.000021	0.000006	-0.579279	-77.095774	-7.138123
01447	9.604659	0.004637	2.201741	0.002454	0.026811	0.041065	1.000000	0.000035	0.000014	0.000012	-0.577836	-77.096325	-7.139009
01448	9.609039	-0.033470	2.220070	-0.019450	-0.008656	0.049513	1.000000	0.000039	0.000018	0.000017	-0.579063	-77.096475	-7.136936
01449	9.586662	-0.012013	2.205292	-0.007200	0.011232	0.024353	1.000000	0.000037	0.000025	0.000011	-0.576476	-77.095681	-7.127161
01450	9.619402	-0.013424	2.195131	0.009756	0.007714	0.054000	1.000000	0.000022	0.000020	0.000026	-0.584354	-77.095628	-7.120303
01451	9.619293	-0.013694	2.195606	0.009325	0.007664	0.054000	1.000000	0.000028	0.000029	0.000013	-0.584979	-77.094704	-7.126911
01452	9.608655	-0.034177	2.221718	-0.021059	-0.008906	0.049510	1.000000	0.000032	0.000003	0.000012	-0.584620	-77.096561	-7.127273
01453	9.594064	-0.026461	2.176024	0.020735	-0.006778	0.025065	1.000000	0.000029	0.000023	0.000019	-0.587658	-77.096322	-7.128688
01454	9.598437	-0.064651	2.194347	-0.001186	-0.042238	0.033508	1.000000	0.000023	0.000008	0.000014	-0.589315	-77.097687	-7.128105
01455	9.619033	-0.014234	2.196740	0.007713	0.007439	0.054002	1.000000	0.000047	0.000021	0.000009	-0.585740	-77.097545	-7.134515
01456	9.616116	-0.048479	2.192198	0.006891	-0.026930	0.050222	1.000000	0.000008	0.000020	0.000023	-0.593532	-77.097463	-7.129378
01457	9.601025	-0.031003	2.200320	-0.001950	-0.008098	0.037287	1.000000	0.000029	0.000017	0.000001	-0.587631	-77.097646	-7.135622
01458	9.600995	-0.031043	2.200451	-0.002349	-0.008150	0.037286	1.000000	0.000048	-0.000004	0.000021	-0.589983	-77.100314	-7.131362
01459	9.615938	-0.048739	2.192969	0.005711	-0.027111	0.050223	1.000000	0.000022	0.000032	0.000002	-0.585638	-77.098845	-7.135112
01460	9.625925	-0.018623	2.221325	-0.015369	0.006072	0.066219	1.000000	0.000035	0.000014	0.000012	-0.584763	-77.099458	-7.135701
01461	9.611333	-0.010876	2.175689	0.026479	0.008152	0.041789	1.000000	0.000025	0.000019	0.000013	-0.585149	-77.099400	-7.124611
01462	9.600658	-0.031332	2.201916	-0.003912	-0.008401	0.037286	1.000000	0.000023	0.000025	0.000008	-0.583667	-77.098740	-7.127153
01463	9.585549	-0.013715	2.210114	-0.012817	0.010460	0.024348	1.000000	0.000047	0.000021	0.000009	-0.580387	-77.098923	-7.130514
01464	9.618325	-0.014898	2.199836	0.004119	0.006922	0.054004	1.000000	0.000030	0.000010	0.000006	-0.577409	-77.100000	-7.133769
01465	9.600374	-0.031373	2.203156	-0.005141	-0.008556	0.037285	1.000000	0.000002	0.000041	0.000006	-0.577108	-77.097438	-7.136348
01466	9.615298	-0.049152	2.195766	0.002907	-0.027511	0.050223	1.000000	0.000048	-0.000004	0.000021	-0.579463	-77.100107	-7.132084
01467	9.618095	-0.015046	2.200840	0.002950	0.006738	0.054005	1.000000	0.000036	0.000020	-0.000007	-0.568856	-77.100068	-7.135646
01468	9.618020	-0.014938	2.201168	0.002552	0.006686	0.054005	1.000000	0.000035	0.000014	0.000012	-0.567981	-77.100683	-7.136233
01469	9.628508	0.005174	2.175792	0.032148	0.023124	0.058518	1.000000	0.000024	0.000031	0.000026	-0.575510	-77.099426	-7.135537
01470	9.602806	0.002195	2.209814	-0.006690	0.025493	0.041066	1.000000	0.000039	0.000018	0.000017	-0.576740	-77.099578	-7.133456
01471	9.602704	0.002182	2.210255	-0.007101	0.025434	0.041066	1.000000	0.000045	0.000028	0.000004	-0.570492	-77.098740	-7.137791
01472	9.592536	-0.027895	2.182733	0.013169	-0.007864	0.025077	1.000000	0.000030	0.000010	0.000006	-0.567514	-77.099818	-7.141044
01473	9.587501	0.019840	2.218845	-0.016361	0.044240	0.028126	1.000000	0.000002	0.000041	0.000006	-0.567356	-77.097584	-7.146613
01474	9.599559	-0.031905	2.206696	-0.008779	-0.009035	0.037282	1.000000	0.000044	0.000010	0.000010	-0.564469	-77.098691	-7.148139
01475	9.617324	-0.015505	2.204204	-0.000312	0.006320	0.054006	1.000000	0.000037	0.000025	0.000011	-0.562987	-77.098189	-7.154758
01476	9.606628	-0.035936	2.230439	-0.030719	-0.010199	0.049483	1.000000	0.000039	0.000018	0.000017	-0.564217	-77.098342	-7.152675
01477	9.602155	0.001832	2.212638	-0.009550	0.025110	0.041065	1.000000	0.000027	0.000012	0.000019	-0.567539	-77.099324	-7.146613
01478	9.602065	0.001644	2.213032	-0.009947	0.025059	0.041065	1.000000	0.000028	0.000029	0.000013	-0.568160	-77.098203	-7.146486
01479	9.609700	-0.012225	2.182883	0.019187	0.007140	0.041806	1.000000	0.000042	0.000029	0.000017	-0.568484	-77.097174	-7.144875
01480	9.609614	-0.012288	2.183262	0.018788	0.007086	0.041807	1.000000	0.000030	0.000010	0.000006	-0.565507	-77.098253	-7.148125
01481	9.591668	-0.028935	2.186531	0.009497	-0.008389	0.025081	1.000000	0.000015	0.000035	0.000028	-0.574357	-77.096473	-7.139396
01482	9.598772	-0.033096	2.210098	-0.012024	-0.009496	0.037278	1.000000	0.000037	0.000025	0.000011	-0.572966	-77.095845	-7.140208
01483	9.616556	-0.016751	2.207540	-0.003524	0.005842	0.054005	1.000000	0.000032	0.000003	0.000012	-0.572324	-77.097649	-7.144542
01484	9.623734	-0.020808	2.230779	-0.025047	0.004740	0.066200	1.000000	0.000029	0.000023	0.000019	-0.575567	-77.097310	-7.141517
01485	9.606329	-0.047265	2.180315	0.016320	-0.027541	0.038025	1.000000	0.000039	0.000018	0.000017	-0.576477	-77.097458	-7.141016
01486	9.576224	-0.012070	2.196160	-0.000896	0.010239	0.012140	1.000000	0.000023	0.000025	0.000008	-0.574993	-77.096801	-7.143556
01487	9.623441	-0.021107	2.232040	-0.026251	0.004564	0.066197	1.000000	0.000047	0.000021	0.000009	-0.571260	-77.096695	-7.145349
01488	9.616140	-0.017194	2.209349	-0.005524	0.005558	0.054005	1.000000	0.000030	0.000010	0.000006	-0.568286	-77.097774	-7.148596
01489	9.613245	-0.051377	2.204688	-0.006423	-0.028824	0.050217	1.000000	0.000041	0.000011	0.000022	-0.571726	-77.098761	-7.140215
01490	9.623239	-0.021353	2.232907	-0.027460	0.004396	0.066194	1.000000	0.000009	0.000026	0.000005	-0.570147	-77.098074	-7.144486
01491	9.623677	-0.031363	2.179683	0.022809	-0.012497	0.054759	1.000000	0.000029	0.000023	0.000019	-0.573333	-77.097652	-7.147865
01492	9.615772	-0.017731	2.210945	-0.007116	0.005332	0.054004	1.000000	0.000026	0.000036	0.000008	-0.571326	-77.095752	-7.150637
01493	9.630655	-0.035476	2.203770	0.000913	-0.013667	0.066948	1.000000	0.000039	0.000018	0.000017	-0.571983	-77.095712	-7.142686
01494	9.615579	-0.017931	2.211786	-0.007883	0.005202	0.054003	1.000000	0.000021	0.000015	0.000008	-0.571019	-77.096299	-7.144994
01495	9.590421	-0.030473	2.191971	0.003952	-0.009206	0.025084	1.000000	0.000033	0.000021	0.000006	-0.567531	-77.096138	-7.154397
01496	9.622669	-0.021865	2.235359	-0.029811	0.004067	0.066187	1.000000	0.000046	0.000003	0.000015	-0.567277	-77.098030	-7.153012
01497	9.612496	-0.052144	2.207931	-0.009600	-0.029276	0.050213	1.000000	0.000003	0.000041	0.000006	-0.566904	-77.095675	-7.153212
01498	9.612383	-0.052193	2.208421	-0.010001	-0.029328	0.050213	1.000000	0.000044	0.000010	0.000010	-0.564026	-77.096786	-7.154725
01499	9.625814	0.001997	2.187687	0.020126	0.021360	0.058554	1.000000	0.000031	0.000016	0.000024	-0.570004	-77.097318	-7.151576
01500	9.597264	-0.034853	2.216611	-0.019201	-0.010498	0.037266	1.000000	0.000030	0.000010	0.000006	-0.567031	-77.098398	-7.154819
01501	9.615066	-0.018477	2.214009	-0.010689	0.004832	0.054001	1.000000	0.000035	0.000014	0.000012	-0.566047	-77.098943	-7.153868
01502	9.632869	-0.002104	2.211402	-0.002189	0.020168	0.070736	1.000000	0.000044	0.000010	0.000010	-0.563168	-77.100054	-7.155379
01503	9.615501	-0.028444	2.160900	0.039183	-0.012158	0.042589	1.000000	0.000037	0.000025	0.000011	-0.561661	-77.099291	-7.157040
01504	9.607621	-0.014759	2.191999	0.009273	0.005693	0.041822	1.000000	0.000039	0.000018	0.000017	-0.562896	-77.099447	-7.154947
01505	9.596878	-0.035261	2.218276	-0.021143	-0.010779	0.037262	1.000000	0.000006	0.000027	0.000017	-0.567785	-77.098477	-7.149953
01506	9.607407	-0.015167	2.192936	0.008494	0.005575	0.041822	1.000000	0.000037	0.000025	0.000011	-0.566393	-77.097853	-7.150760
01507	9.622330	-0.032854	2.185600	0.016465	-0.013405	0.054770	1.000000	0.000030	0.000010	0.000006	-0.563502	-77.098941	-7.158834
01508	9.607270	-0.015130	2.193537	0.007697	0.005473	0.041823	1.000000	0.000043	0.000017	0.000004	-0.557998	-77.099274	-7.163244
01509	9.632258	-0.002529	2.214061	-0.004919	0.019782	0.070736	1.000000	0.000033	0.000021	0.000006	-0.554420	-77.099006	-7.168029
01510	9.574246	-0.013816	2.204757	-0.010347	0.008913	0.012136	1.000000	0.000035	0.000014	0.000012	-0.553551	-77.099625	-7.168603
01511	9.624884	0.001253	2.191777	0.015415	0.020690	0.058564	1.000000	0.000037	0.000025	0.000011	-0.552165	-77.099059	-7.172813
01512	9.639790	-0.016521	2.184526	0.023376	0.001702	0.071513	1.000000	0.000039	0.000018	0.000017	-0.553400	-77.099216	-7.170718
01513	9.584607	0.006231	2.180184	0.018488	0.025146	0.016705	1.000000	0.000022	0.000032	0.000002	-0.549241	-77.097850	-7.179610
01514	9.613859	-0.019321	2.219238	-0.015836	0.004147	0.053994	1.000000	0.000027	0.000042	0.000025	-0.556071	-77.095315	-7.173211
01515	9.591547	0.002070	2.204352	-0.003439	0.024027	0.028876	1.000000	0.000040	0.000006	0.000005	-0.550873	-77.096847	-7.177034
01516	9.599258	-0.011806	2.174066	0.025658	0.006040	0.029658	1.000000	0.000018	0.000034	0.000015	-0.553495	-77.095237	-7.175972
01517	9.588491	-0.032200	2.200374	-0.004795	-0.010400	0.025083	1.000000	0.000049	0.000014	0.000015	-0.552444	-77.095911	-7.174669
01518	9.598452	-0.002127	2.228648	-0.025777	0.022862	0.041041	1.000000	0.000032	0.000033	0.000018	-0.555162	-77.094333	-7.171872
01519	9.613337	-0.019982	2.221491	-0.017820	0.003860	0.053991	1.000000	0.000025	0.000018	0.000014	-0.556018	-77.094406	-7.171815
01520	9.598828	-0.012328	2.175960	0.024070	0.005803	0.029662	1.000000	0.000036	0.000032	0.000006	-0.552000	-77.093004	-7.175519
01521	9.615992	0.013808	2.227212	-0.018062	0.038061	0.057783	1.000000	0.000037	0.000013	0.000035	-0.562314	-77.093815	-7.163295
01522	9.595220	-0.036952	2.225410	-0.027935	-0.011675	0.037244	1.000000	0.000032	0.000003	0.000012	-0.561973	-77.095679	-7.163629
01523	9.605795	-0.016813	2.199973	0.001738	0.004625	0.041826	1.000000	0.000030	0.000040	0.000013	-0.561728	-77.093212	-7.165162
01524	9.638540	-0.018325	2.190018	0.018585	0.001000	0.071524	1.000000	0.000031	0.000016	0.000024	-0.567598	-77.093658	-7.159229
01525	9.620580	-0.034905	2.193261	0.009274	-0.014432	0.054778	1.000000	0.000023	0.000025	0.000008	-0.565867	-77.093008	-7.164194
01526	9.612701	-0.021177	2.224232	-0.020606	0.003471	0.053986	1.000000	0.000037	0.000007	0.000017	-0.567631	-77.094410	-7.161859
01527	9.605418	-0.017524	2.201611	0.000139	0.004398	0.041827	1.000000	0.000032	0.000033	0.000018	-0.570086	-77.092855	-7.161497
01528	9.605322	-0.017625	2.202031	-0.000260	0.004346	0.041827	1.000000	0.000030	0.000010	0.000006	-0.567119	-77.093939	-7.164730
01529	9.602355	-0.051666	2.197651	-0.001234	-0.030034	0.038031	1.000000	0.000022	0.000032	0.000002	-0.562647	-77.092437	-7.168761
01530	9.620111	-0.035458	2.195305	0.007278	-0.014720	0.054779	1.000000	0.000022	0.000020	0.000026	-0.570521	-77.092388	-7.161898
01531	9.602159	-0.052215	2.198495	-0.002048	-0.030142	0.038030	1.000000	0.000045	0.000015	0.000028	-0.576341	-77.092943	-7.154519
01532	9.622834	-0.002000	2.200756	0.007056	0.019483	0.058576	1.000000	0.000025	0.000018	0.000014	-0.577481	-77.093071	-7.154154
01533	9.612054	-0.022411	2.227012	-0.023400	0.003077	0.053979	1.000000	0.000043	0.000022	0.000022	-0.580559	-77.092722	-7.148707
01534	9.619776	-0.036459	2.196758	0.005671	-0.014945	0.054780	1.000000	0.000039	0.000018	0.000017	-0.581798	-77.092883	-7.146604
01535	9.579628	-0.031287	2.184625	0.009188	-0.010435	0.012924	1.000000	0.000027	0.000024	-0.000005	-0.573537	-77.092439	-7.159638
01536	9.619638	-0.036420	2.197364	0.004864	-0.015051	0.054780	1.000000	0.000034	-0.000004	0.000018	-0.575833	-77.095084	-7.157061
01537	9.586734	-0.035147	2.207972	-0.012744	-0.011522	0.025074	1.000000	0.000029	0.000017	0.000001	-0.570044	-77.095277	-7.164153
01538	9.604503	-0.018686	2.205594	-0.004227	0.003787	0.041826	1.000000	0.000022	0.000032	0.000002	-0.565921	-77.093845	-7.169596
01539	9.604409	-0.018656	2.206000	-0.004628	0.003735	0.041826	1.000000	0.000044	0.000010	0.000010	-0.563034	-77.094979	-7.174046
01540	9.597162	-0.014812	2.183279	0.016130	0.004649	0.029679	1.000000	0.000033	0.000021	0.000006	-0.559539	-77.094822	-7.177513
01541	9.619250	-0.036395	2.199060	0.002887	-0.015329	0.054781	1.000000	0.000039	0.000018	0.000017	-0.560652	-77.094927	-7.176225
01542	9.604176	-0.018720	2.207015	-0.005814	0.003574	0.041825	1.000000	0.000029	0.000017	0.000001	-0.555055	-77.095232	-7.182360
01543	9.589079	-0.000901	2.215064	-0.014510	0.022477	0.028869	1.000000	0.000017	0.000028	-0.000003	-0.548770	-77.094265	-7.192483
01544	9.596799	-0.014787	2.184877	0.014547	0.004428	0.029681	1.000000	0.000039	0.000018	0.000017	-0.550010	-77.094427	-7.190377
01545	9.621805	-0.002351	2.205251	0.001912	0.018765	0.058580	1.000000	0.000032	0.000003	0.000012	-0.549534	-77.096285	-7.191163
01546	9.603896	-0.018769	2.208234	-0.007407	0.003360	0.041824	1.000000	0.000044	0.000010	0.000010	-0.546669	-77.097404	-7.192653
01547	9.613851	0.011480	2.236450	-0.028328	0.036655	0.057764	1.000000	0.000026	0.000036	0.000008	-0.544448	-77.095466	-7.194701
01548	9.596502	-0.015056	2.186177	0.012963	0.004203	0.029683	1.000000	0.000039	0.000018	0.000017	-0.545688	-77.095628	-7.192594
01549	9.621489	-0.002696	2.206631	0.000332	0.018535	0.058580	1.000000	0.000027	0.000012	0.000019	-0.549142	-77.096489	-7.186285
01550	9.606397	0.014906	2.214651	-0.008352	0.037443	0.045623	1.000000	0.000036	0.000032	0.000006	-0.545119	-77.095091	-7.189987
01551	9.578357	-0.031743	2.190185	0.002857	-0.011328	0.012927	1.000000	0.000021	0.000014	0.000008	-0.543894	-77.095666	-7.192958
01552	9.603305	-0.019190	2.210799	-0.009782	0.003019	0.041822	1.000000	0.000036	0.000032	0.000006	-0.539872	-77.094269	-7.196658
01553	9.603890	-0.029298	2.157491	0.040427	-0.014107	0.030508	1.000000	0.000032	0.000003	0.000012	-0.539274	-77.096123	-7.196889
01554	9.595979	-0.015550	2.188468	0.010586	0.003853	0.029686	1.000000	0.000018	0.000034	0.000015	-0.541884	-77.094516	-7.195832
01555	9.605942	0.014532	2.216623	-0.010326	0.037152	0.045622	1.000000	0.000037	0.000007	0.000017	-0.543331	-77.095878	-7.191329
01556	9.620866	-0.003287	2.209342	-0.002446	0.018137	0.058581	1.000000	0.000037	0.000025	0.000011	-0.541940	-77.095261	-7.192125
01557	9.595728	-0.016042	2.189567	0.009404	0.003670	0.029688	1.000000	0.000017	0.000016	0.000021	-0.547401	-77.095633	-7.189658
01558	9.609984	-0.023847	2.235912	-0.033325	0.001733	0.053951	1.000000	0.000035	0.000014	0.000012	-0.546539	-77.096258	-7.190217
01559	9.588453	-0.012560	2.167035	0.029793	0.004487	0.017558	1.000000	0.000037	0.000007	0.000017	-0.547813	-77.097535	-7.182805
01560	9.613412	-0.000186	2.187594	0.017153	0.018836	0.046451	1.000000	0.000032	0.000033	0.000018	-0.550524	-77.095962	-7.180007
01561	9.620457	-0.004167	2.211121	-0.004416	0.017831	0.058581	1.000000	0.000025	0.000018	0.000014	-0.551344	-77.096109	-7.180423
01562	9.610324	-0.034601	2.183720	0.015696	-0.015593	0.042649	1.000000	0.000053	0.000018	0.000020	-0.552691	-77.096307	-7.176567
01563	9.602397	-0.020875	2.214722	-0.014139	0.002371	0.041817	1.000000	0.000016	0.000023	0.000015	-0.555482	-77.095947	-7.175218
01564	9.620178	-0.004779	2.212334	-0.005613	0.017662	0.058580	1.000000	0.000034	0.000026	0.000024	-0.560826	-77.095154	-7.169513
01565	9.627899	-0.019011	2.182239	0.023420	-0.000436	0.059415	1.000000	0.000020	0.000027	0.000021	-0.565798	-77.094320	-7.170450
01566	9.591983	-0.051997	2.188539	0.005167	-0.031169	0.025887	1.000000	0.000032	0.000033	0.000018	-0.568505	-77.092747	-7.167653
01567	9.601911	-0.021931	2.216821	-0.015731	0.002146	0.041815	1.000000	0.000030	0.000022	0.000019	-0.571428	-77.092401	-7.164921
01568	9.601834	-0.022169	2.217149	-0.016130	0.002095	0.041814	1.000000	0.000027	0.000012	0.000019	-0.575201	-77.093312	-7.161644
01569	9.616710	-0.040069	2.210078	-0.008275	-0.016939	0.054775	1.000000	0.000030	0.000040	0.000013	-0.575001	-77.090945	-7.163715
01570	9.601608	-0.022399	2.218129	-0.016925	0.001983	0.041813	1.000000	0.000044	0.000010	0.000010	-0.572147	-77.092068	-7.165189
01571	9.609379	-0.036443	2.187843	0.012100	-0.016128	0.042654	1.000000	0.000016	0.000023	0.000015	-0.575055	-77.091672	-7.167830
01572	9.583547	-0.039055	2.221699	-0.026648	-0.013462	0.025044	1.000000	0.000039	0.000018	0.000017	-0.576300	-77.091837	-7.165714
01573	9.601370	-0.022805	2.219151	-0.018114	0.001816	0.041811	1.000000	0.000021	0.000014	0.000008	-0.575150	-77.092414	-7.170596
01574	9.634194	-0.024241	2.209004	-0.001341	-0.001879	0.071541	1.000000	0.000035	0.000014	0.000012	-0.574293	-77.093041	-7.171146
01575	9.619859	-0.016796	2.163138	0.040614	-0.000107	0.047307	1.000000	0.000037	0.000007	0.000017	-0.575875	-77.094417	-7.170389
01576	9.619069	-0.006697	2.217148	-0.010373	0.016987	0.058578	1.000000	0.000036	0.000032	0.000006	-0.571846	-77.093025	-7.174090
01577	9.616049	-0.040830	2.212941	-0.011474	-0.017382	0.054771	1.000000	0.000025	0.000018	0.000014	-0.572755	-77.093183	-7.172192
01578	9.596745	0.014612	2.202502	0.001768	0.036768	0.033499	1.000000	0.000025	0.000018	0.000014	-0.573893	-77.093314	-7.171821
01579	9.611658	-0.003140	2.195284	0.009615	0.017724	0.046463	1.000000	0.000057	0.000016	0.000008	-0.568234	-77.093619	-7.174962
01580	9.611567	-0.003114	2.195684	0.009218	0.017671	0.046464	1.000000	0.000024	0.000025	0.000008	-0.566735	-77.092972	-7.177501
01581	9.593547	-0.019556	2.199075	-0.000105	0.002278	0.029693	1.000000	0.000028	0.000029	0.000013	-0.567053	-77.091802	-7.180727
01582	9.636373	0.009325	2.216868	-0.003811	0.031974	0.075347	1.000000	0.000033	0.000021	0.000006	-0.563560	-77.091651	-7.184185
01583	9.611217	-0.003346	2.197214	0.008038	0.017490	0.046465	1.000000	0.000032	0.000033	0.000018	-0.566012	-77.090062	-7.185342
01584	9.615339	-0.041432	2.216011	-0.014256	-0.017772	0.054767	1.000000	0.000027	0.000012	0.000019	-0.569787	-77.090973	-7.182061
01585	9.618185	-0.007546	2.220977	-0.013932	0.016469	0.058574	1.000000	0.000025	0.000018	0.000014	-0.570542	-77.091060	-7.179484
01586	9.608057	-0.038009	2.193616	0.006131	-0.016991	0.042658	1.000000	0.000025	0.000018	0.000014	-0.571681	-77.091192	-7.179112
01587	9.600161	-0.024124	2.224365	-0.023658	0.001033	0.041799	1.000000	0.000056	-0.000001	0.000014	-0.569192	-77.093535	-7.182200
01588	9.618739	-0.018011	2.168104	0.035460	-0.000890	0.047327	1.000000	0.000024	0.000025	0.000008	-0.567692	-77.092888	-7.184738
01589	9.592898	-0.020407	2.201894	-0.003268	0.001812	0.029692	1.000000	0.000030	0.000010	0.000006	-0.564359	-77.093948	-7.183686
01590	9.603612	-0.000368	2.176252	0.026455	0.017976	0.034363	1.000000	0.000039	0.000018	0.000017	-0.565606	-77.094116	-7.181564
01591	9.625674	-0.021899	2.192002	0.013086	-0.001972	0.059434	1.000000	0.000012	0.000007	-0.000002	-0.560107	-77.095609	-7.189404
01592	9.643525	-0.005581	2.189370	0.021626	0.013295	0.076211	1.000000	0.000039	0.000018	0.000017	-0.561354	-77.095776	-7.187281
01593	9.610555	-0.004209	2.200108	0.004076	0.016900	0.046468	1.000000	0.000029	0.000017	0.000001	-0.555436	-77.096111	-7.191970
01594	9.632622	-0.025832	2.215831	-0.009303	-0.003032	0.071536	1.000000	0.000057	0.000004	0.000032	-0.562071	-77.097872	-7.182273
01595	9.610428	-0.004486	2.200659	0.003280	0.016787	0.046469	1.000000	0.000022	0.000032	0.000002	-0.557722	-77.096458	-7.194607
01596	9.600274	-0.034869	2.173444	0.023326	-0.016688	0.030559	1.000000	0.000039	0.000018	0.000017	-0.558969	-77.096626	-7.192483
01597	9.599461	-0.024745	2.227374	-0.027645	0.000467	0.041789	1.000000	0.000035	0.000014	0.000012	-0.557715	-77.097244	-7.188914
01598	9.599355	-0.024884	2.227830	-0.028043	0.000416	0.041788	1.000000	0.000032	0.000033	0.000018	-0.560418	-77.095676	-7.186115
01599	9.624987	-0.022834	2.195009	0.009884	-0.002442	0.059438	1.000000	0.000010	0.000031	0.000022	-0.567318	-77.094336	-7.180980
01600	9.592034	-0.021591	2.205644	-0.007650	0.001185	0.029690	1.000000	0.000065	-0.000006	0.000012	-0.563129	-77.097236	-7.181360
01601	9.602749	-0.001523	2.180057	0.022078	0.017317	0.034375	1.000000	0.000003	0.000041	0.000006	-0.562730	-77.094846	-7.186522
01602	9.606813	-0.039490	2.199032	-0.000263	-0.017921	0.042658	1.000000	0.000053	0.000018	0.000020	-0.564089	-77.095051	-7.182643
01603	9.624659	-0.023354	2.196442	0.008281	-0.002675	0.059439	1.000000	0.000027	0.000012	0.000019	-0.567499	-77.095947	-7.175381
01604	9.591698	-0.022013	2.207100	-0.009247	0.000956	0.029688	1.000000	0.000043	0.000017	0.000004	-0.562013	-77.096296	-7.179752
01605	9.606601	-0.039697	2.199955	-0.001461	-0.018103	0.042658	1.000000	0.000033	0.000021	0.000006	-0.558209	-77.096149	-7.181681
01606	9.624436	-0.023381	2.197419	0.007081	-0.002845	0.059440	1.000000	0.000035	0.000014	0.000012	-0.557355	-77.096780	-7.182223
01607	9.624364	-0.023492	2.197733	0.006690	-0.002913	0.059440	1.000000	0.000025	0.000018	0.000014	-0.558075	-77.096860	-7.174894
01608	9.614194	-0.053970	2.170621	0.026724	-0.036398	0.043538	1.000000	0.000017	0.000040	0.000009	-0.558023	-77.094478	-7.176762
01609	9.631998	-0.037688	2.168231	0.035267	-0.021153	0.060323	1.000000	0.000044	0.000010	0.000010	-0.554877	-77.095591	-7.175599
01610	9.609089	-0.006035	2.206495	-0.002687	0.015915	0.046471	1.000000	0.000013	0.000012	0.000016	-0.558543	-77.096468	-7.174067
01611	9.623969	-0.023931	2.199456	0.005086	-0.003142	0.059441	1.000000	0.000040	0.000036	0.000011	-0.556406	-77.094655	-7.174485
01612	9.598055	-0.026333	2.233408	-0.033627	-0.000375	0.041770	1.000000	0.000025	0.000018	0.000014	-0.557543	-77.094789	-7.174110
01613	9.620821	-0.058212	2.195784	0.003514	-0.037559	0.055627	1.000000	0.000024	0.000025	0.000008	-0.555895	-77.094163	-7.179016
01614	9.608663	-0.006504	2.208350	-0.004288	0.015695	0.046470	1.000000	0.000044	0.000022	0.000022	-0.559246	-77.093872	-7.174217
01615	9.597744	-0.026709	2.234738	-0.034831	-0.000537	0.041766	1.000000	0.000038	0.000025	0.000011	-0.557644	-77.093287	-7.171821
01616	9.616363	-0.020700	2.178593	0.024278	-0.002552	0.047360	1.000000	0.000031	0.000010	0.000006	-0.554690	-77.094380	-7.175029
01617	9.605464	-0.040906	2.204888	-0.006260	-0.018783	0.042654	1.000000	0.000006	0.000027	0.000017	-0.559600	-77.093496	-7.173370
01618	9.623250	-0.024836	2.202588	0.002285	-0.003530	0.059442	1.000000	0.000046	0.000033	0.000022	-0.562412	-77.091966	-7.168814
01619	9.612349	-0.045043	2.228877	-0.028252	-0.019754	0.054733	1.000000	0.000032	0.000003	0.000012	-0.561930	-77.093795	-7.169463
01620	9.593926	0.000155	2.164575	0.035729	0.017081	0.022313	1.000000	0.000024	0.000025	0.000008	-0.560424	-77.093152	-7.172001
01621	9.623010	-0.025159	2.203633	0.001095	-0.003701	0.059442	1.000000	0.000039	0.000018	0.000017	-0.561520	-77.093303	-7.170349
01622	9.636126	-0.036231	2.017239	0.182520	-0.039468	0.030616	1.000000	0.000039	0.000018	0.000017	-0.562770	-77.093475	-7.168215
01623	9.588312	-0.003222	2.322086	-0.117924	0.034495	0.052034	1.000000	0.000034	0.000039	0.000000	-0.556024	-77.091328	-7.178979
01624	9.581032	0.000395	2.299795	-0.097119	0.035303	0.039955	1.000000	0.000013	0.000042	0.000022	-0.562696	-77.088767	-7.174356
01625	9.593297	-0.000375	2.167363	0.033744	0.016793	0.022321	1.000000	0.000022	0.000032	0.000002	-0.558407	-77.087360	-7.180100
01626	9.629437	-0.029477	2.229584	-0.022112	-0.004819	0.071515	1.000000	0.000022	0.000020	0.000026	-0.566274	-77.087315	-7.173230
01627	9.612226	-0.056325	2.179259	0.019086	-0.037481	0.043552	1.000000	0.000033	0.000021	0.000006	-0.562640	-77.087231	-7.173205
01628	9.592204	0.009531	2.222225	-0.018013	0.033941	0.033493	1.000000	0.000039	0.000018	0.000017	-0.563892	-77.087403	-7.171069
01629	9.622083	-0.026073	2.207668	-0.002122	-0.004135	0.059442	1.000000	0.000033	0.000021	0.000006	-0.560236	-77.087278	-7.172643
01630	9.621972	-0.026123	2.208153	-0.002522	-0.004187	0.059442	1.000000	0.000028	0.000029	0.000013	-0.560832	-77.086175	-7.172511
01631	9.592709	-0.000980	2.169961	0.031350	0.016455	0.022329	1.000000	0.000047	0.000021	0.000010	-0.557203	-77.086038	-7.168226
01632	9.610949	-0.046188	2.234879	-0.033470	-0.020443	0.054715	1.000000	0.000031	0.000010	0.000006	-0.554255	-77.087133	-7.171426
01633	9.606727	-0.008530	2.216748	-0.012402	0.014650	0.046465	1.000000	0.000006	0.000027	0.000017	-0.557471	-77.089409	-7.158130
01634	9.604530	-0.053315	2.158878	0.036955	-0.037020	0.031492	1.000000	0.000057	0.000004	0.000032	-0.564120	-77.091188	-7.148379
01635	9.603621	-0.043147	2.212860	-0.014009	-0.019760	0.042645	1.000000	0.000026	0.000036	0.000008	-0.561988	-77.089334	-7.152992
01636	9.607271	-0.019511	2.164362	0.036951	-0.002828	0.035314	1.000000	0.000039	0.000018	0.000017	-0.563234	-77.089521	-7.150829
01637	9.574256	-0.018190	2.175153	0.019468	0.000833	0.005541	1.000000	0.000014	0.000030	0.000010	-0.563651	-77.088404	-7.155404
01638	9.621217	-0.027196	2.211424	-0.006272	-0.004622	0.059440	1.000000	0.000025	0.000018	0.000014	-0.564781	-77.088554	-7.155001
01639	9.591158	0.008264	2.226737	-0.022939	0.033354	0.033485	1.000000	0.000038	0.000025	0.000011	-0.563362	-77.087986	-7.159394
01640	9.610197	-0.047511	2.238085	-0.037239	-0.020853	0.054701	1.000000	0.000015	0.000005	0.000021	-0.569665	-77.089655	-7.154920
01641	9.613912	-0.023994	2.189350	0.013724	-0.003944	0.047380	1.000000	0.000038	0.000025	0.000011	-0.568172	-77.089097	-7.151857
01642	9.616766	0.009871	2.194342	0.014144	0.030308	0.051202	1.000000	0.000022	0.000020	0.000026	-0.576032	-77.089065	-7.144962
01643	9.627867	-0.031811	2.236321	-0.029507	-0.005723	0.071495	1.000000	0.000033	0.000021	0.000006	-0.572423	-77.088950	-7.147749
01644	9.613646	-0.024438	2.190513	0.012517	-0.004107	0.047382	1.000000	0.000035	0.000014	0.000012	-0.571571	-77.089599	-7.148251
01645	9.597765	0.003672	2.251809	-0.046552	0.032204	0.045535	1.000000	0.000035	0.000014	0.000012	-0.570581	-77.090231	-7.147357
01646	9.591458	-0.003053	2.175485	0.024811	0.015630	0.022349	1.000000	0.000033	0.000021	0.000006	-0.567083	-77.090101	-7.150776
01647	9.587589	-0.026859	2.224831	-0.026962	-0.001371	0.029656	1.000000	0.000027	0.000012	0.000019	-0.570773	-77.091005	-7.151700
01648	9.616297	0.009353	2.196402	0.011753	0.029976	0.051206	1.000000	0.000036	0.000032	0.000006	-0.566729	-77.089637	-7.155367
01649	9.606164	-0.021112	2.169255	0.031737	-0.003562	0.035332	1.000000	0.000053	0.000018	0.000020	-0.567960	-77.089835	-7.152645
01650	9.587300	-0.027160	2.226072	-0.028159	-0.001527	0.029652	1.000000	0.000025	0.000018	0.000014	-0.569090	-77.089986	-7.152240
01651	9.645995	-0.026546	2.182683	0.026777	-0.008236	0.077168	1.000000	0.000021	0.000014	0.000008	-0.567946	-77.090601	-7.152061
01652	9.627133	-0.032542	2.239469	-0.033120	-0.006195	0.071484	1.000000	0.000025	0.000018	0.000014	-0.569077	-77.090752	-7.151656
01653	9.580008	-0.023837	2.203977	-0.008148	-0.000867	0.017600	1.000000	0.000039	0.000018	0.000017	-0.570239	-77.090965	-7.150083
01654	9.637855	-0.012813	2.214167	-0.003759	0.009802	0.076238	1.000000	0.000035	0.000014	0.000012	-0.569387	-77.091614	-7.150583
01655	9.579838	-0.023831	2.204713	-0.008945	-0.000978	0.017600	1.000000	0.000039	0.000030	-0.000007	-0.558427	-77.090411	-7.157758
01656	9.612628	-0.025449	2.194967	0.007708	-0.004773	0.047386	1.000000	0.000017	0.000028	0.000033	-0.570370	-77.089420	-7.147286
01657	9.597596	-0.008035	2.202618	-0.000794	0.014196	0.034405	1.000000	0.000048	-0.000004	0.000021	-0.572758	-77.092131	-7.144328
01658	9.619583	-0.029629	2.218491	-0.014317	-0.005695	0.059431	1.000000	0.000010	0.000026	0.000004	-0.571120	-77.091467	-7.148606
01659	9.608345	0.011768	2.177238	0.028592	0.030175	0.039169	1.000000	0.000035	0.000014	0.000012	-0.570143	-77.092060	-7.152919
01660	9.612365	-0.026120	2.196107	0.006110	-0.004992	0.047387	1.000000	0.000025	0.000018	0.000014	-0.571273	-77.092212	-7.152513
01661	9.615227	0.007841	2.201087	0.006576	0.029253	0.051213	1.000000	0.000028	0.000029	0.000013	-0.571744	-77.091112	-7.155674
01662	9.623046	-0.006427	2.171049	0.035488	0.010978	0.052155	1.000000	0.000039	0.000018	0.000017	-0.572995	-77.091302	-7.153502
01663	9.594116	-0.042804	2.200326	-0.004051	-0.020433	0.030579	1.000000	0.000038	0.000025	0.000011	-0.571487	-77.090715	-7.158362
01664	9.614930	0.007369	2.202386	0.005379	0.029091	0.051214	1.000000	0.000008	0.000020	0.000023	-0.579226	-77.090646	-7.153229
01665	9.604843	-0.023262	2.175075	0.025330	-0.004472	0.035350	1.000000	0.000045	0.000010	0.000010	-0.576224	-77.091782	-7.157430
01666	9.629760	-0.010788	2.195617	0.012663	0.009948	0.064199	1.000000	0.000034	0.000026	0.000024	-0.581556	-77.091012	-7.151685
01667	9.589705	-0.005894	2.183189	0.016450	0.014447	0.022368	1.000000	0.000027	0.000012	0.000019	-0.585187	-77.091947	-7.151440
01668	9.604609	-0.023811	2.176101	0.024125	-0.004639	0.035353	1.000000	0.000033	0.000021	0.000006	-0.581688	-77.091822	-7.154856
01669	9.578624	-0.026018	2.209956	-0.014534	-0.001728	0.017593	1.000000	0.000042	0.000029	0.000017	-0.582183	-77.090758	-7.153418
01670	9.614417	0.006431	2.204625	0.002988	0.028756	0.051216	1.000000	0.000025	0.000018	0.000014	-0.583314	-77.090910	-7.153010
01671	9.629325	-0.011574	2.197522	0.010661	0.009659	0.064201	1.000000	0.000013	0.000012	0.000016	-0.586728	-77.091771	-7.150133
01672	9.611294	-0.028019	2.200766	0.001299	-0.005661	0.047389	1.000000	0.000052	0.000024	0.000015	-0.585451	-77.091223	-7.149111
01673	9.622059	-0.008146	2.175414	0.031087	0.010333	0.052171	1.000000	0.000003	0.000041	0.000006	-0.585040	-77.088826	-7.154516
01674	9.610988	-0.028257	2.202103	0.000494	-0.005772	0.047389	1.000000	0.000046	0.000033	0.000022	-0.587842	-77.087318	-7.149923
01675	9.610869	-0.028350	2.202621	0.000088	-0.005832	0.047389	1.000000	0.000033	0.000021	0.000006	-0.584127	-77.087217	-7.149893
01676	9.602855	-0.014215	2.233433	-0.029605	0.012369	0.046432	1.000000	0.000035	0.000014	0.000012	-0.583281	-77.087869	-7.150384
01677	9.603658	-0.024818	2.180285	0.020513	-0.005160	0.035361	1.000000	0.000028	0.000029	0.000013	-0.583678	-77.086796	-7.151995
01678	9.602643	-0.014491	2.234345	-0.030408	0.012264	0.046429	1.000000	0.000030	0.000022	0.000019	-0.586908	-77.086488	-7.148917
01679	9.595535	-0.010947	2.211565	-0.009574	0.012983	0.034402	1.000000	0.000031	0.000010	0.000007	-0.583704	-77.087581	-7.149854
01680	9.602521	-0.014717	2.234865	-0.031207	0.012152	0.046427	1.000000	0.000027	0.000012	0.000019	-0.587486	-77.088512	-7.146522
01681	9.559480	-0.043739	2.217980	-0.028298	-0.017651	0.000768	1.000000	0.000022	0.000032	0.000002	-0.583077	-77.087086	-7.151335
01682	9.588295	-0.007586	2.189369	0.010464	0.013596	0.022378	1.000000	0.000048	-0.000004	0.000021	-0.585558	-77.089793	-7.146879
01683	9.609336	-0.018690	2.258891	-0.053637	0.011218	0.058446	1.000000	0.000028	0.000029	0.000013	-0.586021	-77.088701	-7.153283
01684	9.603103	-0.025619	2.182720	0.017713	-0.005558	0.035366	1.000000	0.000033	0.000021	0.000006	-0.582524	-77.088578	-7.156694
01685	9.625019	-0.047145	2.198823	0.004121	-0.025434	0.060375	1.000000	0.000025	0.000018	0.000014	-0.583451	-77.088715	-7.156530
01686	9.594972	-0.011515	2.214002	-0.012365	0.012603	0.034400	1.000000	0.000046	0.000027	0.000004	-0.577426	-77.087853	-7.161091
01687	9.620783	-0.009381	2.181045	0.025481	0.009523	0.052188	1.000000	0.000021	0.000014	0.000008	-0.576293	-77.088452	-7.165186
01688	9.576850	-0.027878	2.217612	-0.022130	-0.002760	0.017579	1.000000	0.000039	0.000018	0.000017	-0.577549	-77.088645	-7.163004
01689	9.587687	-0.008058	2.192030	0.007679	0.013199	0.022381	1.000000	0.000038	0.000025	0.000011	-0.575894	-77.088036	-7.159909
01690	9.627518	-0.013237	2.205415	0.003044	0.008589	0.064207	1.000000	0.000022	0.000032	0.000002	-0.571721	-77.086636	-7.165342
01691	9.594500	-0.011756	2.216047	-0.014361	0.012324	0.034397	1.000000	0.000051	0.000007	0.000021	-0.573469	-77.088114	-7.160013
01692	9.627386	-0.013424	2.205992	0.002239	0.008477	0.064208	1.000000	0.000035	0.000014	0.000012	-0.572625	-77.088768	-7.160499
01693	9.612370	0.004410	2.213538	-0.006193	0.027466	0.051218	1.000000	0.000040	0.000006	0.000005	-0.567509	-77.090383	-7.164405
01694	10.773241	-1.636194	-12.444434	14.158980	-3.518490	-2.018785	0.999986	0.002164	-0.004776	0.000636	-0.668278	-77.639157	-6.810719
01695	7.958931	-1.909314	15.880473	-13.931002	-0.120402	1.371739	0.999996	0.002245	0.000715	-0.001400	0.321789	-77.561821	-7.561500
01696	10.398149	5.377629	-3.229147	6.135798	4.618788	-0.406239	0.999935	-0.000712	0.011311	-0.000768	0.577764	-76.267238	-7.911789
01697	10.415746	-0.132513	5.793796	-3.269720	0.303706	1.645225	0.999931	-0.003851	-0.010941	0.001978	-0.845867	-77.523829	-6.902797
01698	8.982583	-3.425224	3.109021	-1.497101	-3.222853	-0.354559	0.999989	0.000079	0.004753	0.000046	-0.822205	-76.981392	-6.921476
01699	9.117614	1.909582	2.011189	0.325384	1.901990	-0.480027	0.999994	0.002501	-0.002460	-0.000686	-0.201071	-77.266575	-7.269109
01700	9.365735	-0.572904	5.160734	-2.993883	-0.162668	0.467797	0.999995	-0.001970	0.002250	0.000484	-0.658823	-77.010601	-7.034921
01701	10.528437	0.352277	1.464789	0.980326	0.248831	0.774793	1.000000	0.000254	-0.000066	-0.000155	-0.550598	-77.020542	-7.124901
01702	9.687866	0.129484	1.754377	0.475919	0.086307	0.021711	1.000000	0.000493	-0.000614	-0.000089	-0.449959	-77.093220	-7.173980
01703	9.331271	-0.001960	2.481290	-0.329273	0.059856	-0.162951	1.000000	-0.000207	0.000010	0.000026	-0.483600	-77.094418	-7.167242
01704	9.458433	0.100110	2.405490	-0.216363	0.148978	-0.056185	1.000000	0.000038	-0.000198	0.000051	-0.503125	-77.119344	-7.146426
01705	9.431679	-0.014698	2.628375	-0.452848	0.066018	-0.032314	1.000000	-0.000063	0.000226	0.000067	-0.540023	-77.095729	-7.121989
01706	9.701275	-0.231066	2.075785	0.112934	-0.226284	0.107648	1.000000	-0.000112	-0.000100	0.000074	-0.587462	-77.109381	-7.090186
01707	9.689337	0.314476	1.776218	0.470746	0.276388	0.027999	1.000000	0.000145	-0.000030	-0.000003	-0.566761	-77.115140	-7.098386
01708	9.518758	-0.117612	1.992984	0.165623	-0.119052	-0.088955	1.000000	0.000095	0.000029	0.000043	-0.574715	-77.114077	-7.082842
01709	9.464196	0.037538	2.317721	-0.139560	0.078564	-0.070070	1.000000	0.000073	0.000009	0.000017	-0.571723	-77.115378	-7.080539
01710	9.636437	-0.050683	2.071877	0.124672	-0.045942	0.043200	1.000000	0.000102	0.000068	0.000000	-0.557093	-77.109883	-7.087310
01711	9.580821	0.054367	2.518486	-0.304683	0.117552	0.088384	1.000000	0.000054	0.000023	0.000038	-0.566911	-77.109508	-7.073967
01712	9.644010	-0.004568	1.975162	0.226808	-0.012659	0.028888	1.000000	0.000019	0.000051	0.000045	-0.584456	-77.105857	-7.057521
01713	9.681226	-0.034137	2.449896	-0.227309	0.019086	0.171163	1.000000	0.000029	0.000005	0.000025	-0.590517	-77.107668	-7.052430
01714	9.756888	-0.073304	2.292211	-0.063551	-0.042123	0.209820	1.000000	-0.000003	0.000019	0.000007	-0.591377	-77.107744	-7.055581
01715	9.683939	-0.005531	2.221874	-0.002913	0.017918	0.122860	1.000000	0.000004	0.000004	0.000005	-0.590371	-77.109522	-7.063853
01716	9.551295	0.011373	2.316104	-0.121657	0.050784	0.014537	1.000000	-0.000021	-0.000027	0.000016	-0.598117	-77.114821	-7.062129
01717	9.603120	-0.051311	2.083828	0.104860	-0.042618	0.013404	1.000000	-0.000000	-0.000042	0.000018	-0.604054	-77.121861	-7.060261
01718	9.641305	-0.035440	2.203182	-0.000818	-0.012005	0.077201	1.000000	0.000024	-0.000017	0.000026	-0.611641	-77.126046	-7.053448
01719	9.591407	-0.000186	2.094474	0.097072	0.010614	0.004255	1.000000	-0.000001	-0.000030	0.000030	-0.623928	-77.131692	-7.043191
01720	9.534509	-0.022571	2.030590	0.142483	-0.017742	-0.065378	1.000000	0.000006	-0.000015	0.000035	-0.638142	-77.135648	-7.031638
01721	9.621368	-0.036964	2.079617	0.112222	-0.027653	0.030256	1.000000	0.000047	0.000033	0.000022	-0.640497	-77.134170	-7.027400
01722	9.632164	-0.078564	2.122342	0.068304	-0.063452	0.050395	1.000000	0.000048	0.000056	0.000034	-0.648898	-77.130010	-7.016830
01723	9.585018	-0.070178	2.087243	0.093454	-0.058255	-0.003408	1.000000	0.000065	0.000036	0.000031	-0.653536	-77.128090	-7.011703
01724	9.621730	-0.109744	2.096655	0.087734	-0.097167	0.034574	1.000000	0.000066	0.000054	0.000025	-0.655318	-77.124159	-7.005862
01725	9.630601	-0.068563	2.178604	0.016576	-0.046013	0.061375	1.000000	0.000057	0.000046	0.000014	-0.652620	-77.121253	-7.007809
01726	9.641396	-0.048733	2.153404	0.046410	-0.030127	0.066229	1.000000	0.000039	0.000042	0.000005	-0.647962	-77.118666	-7.011767
01727	9.667131	-0.107751	2.188800	0.010422	-0.084979	0.099353	1.000000	0.000062	0.000038	0.000007	-0.641275	-77.116701	-7.013592
01728	9.666963	-0.107605	2.189548	0.010013	-0.085033	0.099353	1.000000	0.000020	0.000039	-0.000003	-0.634386	-77.114534	-7.022001
01729	9.640005	-0.037573	2.208827	-0.005313	-0.012649	0.077198	1.000000	0.000036	0.000002	-0.000000	-0.627253	-77.116709	-7.030862
01730	9.650895	-0.017555	2.183231	0.024527	0.003230	0.082058	1.000000	-0.000009	0.000046	-0.000016	-0.617429	-77.113683	-7.045776
01731	9.617832	-0.016000	2.193983	0.007166	0.007018	0.052220	1.000000	0.000005	0.000009	0.000023	-0.625477	-77.114952	-7.040303
01732	9.580833	0.023093	2.185854	0.012117	0.045816	0.014245	1.000000	-0.000016	0.000037	-0.000003	-0.622959	-77.112975	-7.048450
01733	9.628550	0.003489	2.169164	0.036582	0.022831	0.057084	1.000000	-0.000007	0.000045	0.000008	-0.624398	-77.110233	-7.051152
01734	9.566495	0.029976	2.141218	0.053821	0.047107	-0.009707	1.000000	0.000017	0.000040	0.000009	-0.624252	-77.107878	-7.053056
01735	9.555294	0.010081	2.168148	0.023152	0.031125	-0.014570	1.000000	0.000020	0.000051	0.000009	-0.623349	-77.104436	-7.056132
01736	9.576041	-0.000688	2.238382	-0.041037	0.028975	0.021355	1.000000	0.000045	0.000040	0.000016	-0.623472	-77.102165	-7.054467
01737	9.612811	0.020881	2.179903	0.026990	0.041672	0.044091	1.000000	0.000052	0.000054	0.000021	-0.624796	-77.098302	-7.050408
01738	9.618584	0.027955	2.257431	-0.045148	0.058607	0.067012	1.000000	0.000059	0.000039	0.000020	-0.625053	-77.096073	-7.046958
01739	9.641348	-0.004462	2.220520	-0.008425	0.021083	0.081038	1.000000	0.000051	0.000037	0.000027	-0.629515	-77.094266	-7.037519
01740	9.615214	-0.006532	2.254523	-0.047019	0.024196	0.063165	1.000000	0.000069	0.000035	0.000018	-0.627807	-77.092541	-7.034953
01741	9.625119	0.023989	2.282424	-0.067665	0.057737	0.078977	1.000000	0.000063	0.000013	0.000019	-0.626889	-77.093414	-7.029792
01742	9.560146	0.016431	2.249652	-0.051438	0.047719	0.008345	1.000000	0.000038	0.000025	0.000011	-0.625480	-77.092842	-7.030528
01743	9.585055	0.028969	2.270089	-0.064144	0.062182	0.037157	1.000000	0.000010	0.000001	0.000016	-0.629322	-77.095114	-7.027799
01744	9.538153	0.037404	2.234073	-0.038924	0.067378	-0.016628	1.000000	0.000015	0.000005	0.000021	-0.635645	-77.096785	-7.023295
01745	9.604049	0.033829	2.213724	-0.005488	0.059584	0.043067	1.000000	0.000020	-0.000003	0.000014	-0.637530	-77.099453	-7.022978
01746	9.560066	0.015454	2.250002	-0.053059	0.047497	0.008338	1.000000	-0.000027	0.000006	0.000011	-0.643449	-77.100998	-7.023831
01747	9.586028	0.017046	2.216770	-0.015300	0.044251	0.026220	1.000000	-0.000018	0.000002	0.000009	-0.646967	-77.103196	-7.021824
01748	9.600954	-0.001181	2.209634	-0.007769	0.025117	0.039222	1.000000	0.000005	0.000009	0.000023	-0.655258	-77.104363	-7.016432
01749	9.643886	0.027225	2.227043	-0.011475	0.054788	0.084881	1.000000	0.000011	0.000007	0.000034	-0.667839	-77.105876	-7.005746
01750	9.658812	0.008855	2.219906	-0.003950	0.035653	0.097884	1.000000	0.000029	0.000005	0.000025	-0.674309	-77.107588	-6.999446
01751	9.647755	-0.011398	2.246074	-0.034627	0.019686	0.092996	1.000000	0.000039	0.000006	0.000041	-0.687113	-77.109232	-6.983129
01752	9.637690	-0.042545	2.218817	-0.014820	-0.013978	0.077187	1.000000	0.000052	0.000012	0.000039	-0.697921	-77.110064	-6.969697
01753	9.615784	-0.021700	2.202891	-0.001876	0.005721	0.052224	1.000000	0.000048	-0.000016	0.000045	-0.712175	-77.114153	-6.952401
01754	9.575957	-0.017071	2.189548	0.002091	0.010223	0.010411	1.000000	0.000067	-0.000025	0.000042	-0.722910	-77.119237	-6.937217
01755	9.612905	-0.056947	2.197775	-0.003759	-0.028697	0.048376	1.000000	0.000044	-0.000020	0.000040	-0.734989	-77.123820	-6.922982
01756	9.614015	-0.068373	2.143793	0.046303	-0.046483	0.037465	1.000000	0.000041	-0.000031	0.000040	-0.748148	-77.129593	-6.908405
01757	9.625181	-0.049224	2.117124	0.076136	-0.030666	0.042363	1.000000	0.000027	-0.000031	0.000037	-0.760684	-77.135474	-6.891864
01758	9.630183	-0.098263	2.081960	0.103847	-0.083431	0.039566	1.000000	0.000011	-0.000023	0.000028	-0.770897	-77.140389	-6.883804
01759	9.648263	-0.082524	2.078666	0.112418	-0.068304	0.056423	1.000000	-0.000000	-0.000012	0.000024	-0.779847	-77.144066	-6.878266
01760	9.649230	-0.093933	2.025264	0.162474	-0.086107	0.045525	1.000000	0.000004	0.000022	0.000035	-0.794326	-77.143802	-6.866621
01761	9.655106	-0.086974	2.102346	0.090312	-0.069109	0.068384	1.000000	0.000010	0.000026	0.000004	-0.792351	-77.143216	-6.873320
01762	9.647999	-0.083524	2.079850	0.111182	-0.068499	0.056435	1.000000	0.000031	0.000040	0.000013	-0.792295	-77.140909	-6.873477
01763	9.606896	-0.067421	2.121261	0.064685	-0.046262	0.025525	1.000000	0.000023	0.000050	-0.000004	-0.784392	-77.137596	-6.882439
01764	9.642668	-0.034805	2.116524	0.082260	-0.015914	0.059238	1.000000	0.000029	0.000071	-0.000005	-0.775688	-77.131733	-6.891748
01765	9.583403	-0.034718	2.161480	0.026776	-0.008867	0.011468	1.000000	0.000031	0.000082	-0.000005	-0.766103	-77.124757	-6.899670
01766	9.574301	0.051823	2.178657	0.020658	0.078759	0.006164	1.000000	0.000056	0.000065	-0.000016	-0.748864	-77.119633	-6.914543
01767	9.584364	-0.110944	2.358176	-0.171266	-0.059893	0.056477	1.000000	0.000029	0.000077	0.000013	-0.748728	-77.113245	-6.915225
01768	9.643403	0.077720	2.344739	-0.119039	0.123504	0.110499	1.000000	0.000047	0.000075	0.000004	-0.742294	-77.106964	-6.920038
01769	9.584236	0.011006	2.224540	-0.024237	0.042965	0.026208	1.000000	0.000034	0.000038	0.000000	-0.735231	-77.104990	-6.925889
01770	9.591853	-0.064278	2.262826	-0.069398	-0.026992	0.042393	1.000000	0.000054	0.000017	0.000021	-0.736637	-77.105240	-6.921884
01771	9.600732	-0.022975	2.344095	-0.140452	0.024368	0.069066	1.000000	0.000044	0.000022	0.000022	-0.739767	-77.105056	-6.917611
01772	9.608642	-0.037518	2.314100	-0.111682	0.005886	0.070124	1.000000	0.000021	0.000014	0.000008	-0.738795	-77.105683	-6.919858
01773	9.583646	-0.050378	2.294047	-0.099803	-0.008709	0.041318	1.000000	0.000039	0.000000	0.000023	-0.743092	-77.107962	-6.914671
01774	9.579797	-0.012926	2.275097	-0.077813	0.026192	0.033226	1.000000	0.000016	-0.000007	0.000009	-0.743290	-77.111061	-6.916355
01775	9.559053	-0.002607	2.205302	-0.014368	0.028094	-0.002598	1.000000	0.000016	-0.000032	0.000021	-0.749207	-77.116999	-6.912553
01776	9.595938	-0.042032	2.213757	-0.020291	-0.010804	0.035357	1.000000	0.000022	0.000002	-0.000004	-0.742082	-77.119054	-6.921018
01777	9.607065	-0.022213	2.187434	0.009581	0.004975	0.040279	1.000000	0.000018	-0.000026	0.000003	-0.738471	-77.124372	-6.927592
01778	9.600203	-0.018708	2.163926	0.030466	0.005569	0.028342	1.000000	0.000039	-0.000012	0.000011	-0.736852	-77.128017	-6.928360
01779	9.603323	0.015430	2.168007	0.031162	0.039801	0.032197	1.000000	0.000038	-0.000005	0.000005	-0.732283	-77.131010	-6.930789
01780	9.629302	0.017394	2.134847	0.068919	0.036483	0.050135	1.000000	0.000037	0.000019	-0.000007	-0.722018	-77.131100	-6.940706
01781	9.651119	-0.004016	2.151087	0.055093	0.016669	0.075082	1.000000	0.000027	0.000011	0.000019	-0.725536	-77.132082	-6.937698
01782	9.636106	0.013747	2.158626	0.046822	0.035714	0.062075	1.000000	0.000052	0.000024	0.000015	-0.724261	-77.131561	-6.936640
01783	9.627999	0.028070	2.189469	0.017249	0.054105	0.061000	1.000000	0.000042	0.000029	0.000017	-0.724528	-77.130608	-6.933577
01784	9.616849	0.008123	2.215884	-0.013435	0.038221	0.056069	1.000000	0.000043	0.000004	0.000028	-0.731168	-77.132366	-6.925450
01785	9.609827	0.011335	2.193093	0.007446	0.038795	0.044137	1.000000	0.000047	0.000033	0.000022	-0.733577	-77.130924	-6.920536
01786	9.616669	0.007609	2.216664	-0.014244	0.038103	0.056068	1.000000	0.000013	0.000012	0.000016	-0.737241	-77.131822	-6.918958
01787	9.616600	0.007282	2.216965	-0.014666	0.038036	0.056068	1.000000	0.000036	0.000019	0.000030	-0.744821	-77.131941	-6.906159
01788	9.598528	-0.009386	2.220130	-0.024061	0.022796	0.039201	1.000000	0.000021	0.000002	0.000032	-0.755964	-77.133924	-6.895991
01789	9.599573	-0.020858	2.166700	0.025977	0.004894	0.028355	1.000000	0.000021	0.000002	0.000032	-0.766648	-77.135923	-6.885097
01790	9.629417	-0.057159	2.152408	0.041291	-0.033372	0.054378	1.000000	0.000015	0.000005	0.000021	-0.773006	-77.137594	-6.880555
01791	9.629408	-0.057561	2.152438	0.040888	-0.033445	0.054380	1.000000	0.000031	-0.000002	0.000031	-0.781786	-77.140051	-6.873393
01792	9.640504	-0.038326	2.126299	0.070774	-0.017685	0.059324	1.000000	0.000003	-0.000001	0.000024	-0.790693	-77.142452	-6.867685
01793	9.629393	-0.058232	2.152488	0.040070	-0.033569	0.054383	1.000000	0.000045	0.000010	0.000010	-0.787564	-77.143672	-6.869115
01794	9.615472	-0.051377	2.106404	0.082256	-0.032368	0.030537	1.000000	0.000013	0.000012	0.000016	-0.791232	-77.144570	-6.867531
01795	9.648312	-0.053344	2.096804	0.098674	-0.036360	0.060423	1.000000	0.000035	0.000044	0.000018	-0.792908	-77.141941	-6.863544
01796	9.607181	-0.037304	2.138071	0.052282	-0.014011	0.029453	1.000000	0.000031	0.000040	0.000013	-0.792842	-77.139640	-6.863703
01797	9.625019	-0.021217	2.135981	0.060852	0.001103	0.046326	1.000000	0.000034	0.000051	0.000012	-0.791751	-77.136240	-6.861983
01798	9.588731	-0.053600	2.142901	0.042455	-0.029316	0.012586	1.000000	0.000042	0.000053	0.000005	-0.786448	-77.132437	-6.866263
01799	9.620385	-0.044422	2.187279	0.008430	-0.015449	0.053297	1.000000	0.000038	0.000055	0.000018	-0.787531	-77.128578	-6.862229
01800	9.602061	-0.060755	2.191505	-0.000971	-0.030682	0.036425	1.000000	0.000016	0.000077	0.000010	-0.787489	-77.122025	-6.864184
01801	9.614954	0.003984	2.224103	-0.020374	0.037214	0.056061	1.000000	0.000050	0.000031	0.000009	-0.783213	-77.120826	-6.864572
01802	9.593587	-0.046419	2.223833	-0.030931	-0.012307	0.035328	1.000000	0.000017	0.000070	0.000015	-0.785861	-77.115047	-6.863566
01803	9.600296	-0.050120	2.247876	-0.052652	-0.012986	0.047241	1.000000	0.000030	0.000022	0.000019	-0.788793	-77.114853	-6.861033
01804	9.592144	-0.035908	2.278758	-0.082190	0.005459	0.046140	1.000000	0.000023	0.000037	0.000020	-0.793367	-77.112822	-6.857361
01805	9.592007	-0.036161	2.279332	-0.082604	0.005401	0.046136	1.000000	0.000030	0.000022	0.000019	-0.796237	-77.112590	-6.855011
01806	9.606853	-0.054253	2.272532	-0.075175	-0.013761	0.059147	1.000000	0.000035	0.000014	0.000012	-0.795413	-77.113266	-6.855452
01807	9.602998	-0.016678	2.253794	-0.053128	0.021087	0.051093	1.000000	0.000045	0.000009	0.000010	-0.792358	-77.114569	-6.857010
01808	9.599861	-0.050717	2.249717	-0.054702	-0.013253	0.047230	1.000000	0.000022	0.000002	-0.000004	-0.785246	-77.116630	-6.865457
01809	9.596016	-0.013102	2.230944	-0.032646	0.021590	0.039179	1.000000	0.000026	0.000018	0.000014	-0.786066	-77.116906	-6.866380
01810	9.589078	-0.009675	2.207908	-0.011743	0.022149	0.027269	1.000000	0.000052	-0.000006	0.000009	-0.781941	-77.119828	-6.868266
01811	9.589078	-0.009602	2.207907	-0.012153	0.022090	0.027268	1.000000	0.000040	0.000006	0.000005	-0.776838	-77.121531	-6.873969
01812	9.600190	0.010041	2.181871	0.017753	0.037815	0.032238	1.000000	0.000032	0.000003	0.000012	-0.776607	-77.123442	-6.874121
01813	9.615075	-0.007902	2.174923	0.025167	0.018627	0.045255	1.000000	0.000029	0.000017	0.000001	-0.770588	-77.123815	-6.881159
01814	9.625029	0.022784	2.202551	0.004648	0.052258	0.061024	1.000000	0.000035	0.000014	0.000012	-0.769763	-77.124492	-6.881601
01815	9.614924	-0.007949	2.175588	0.024355	0.018506	0.045257	1.000000	0.000038	0.000025	0.000011	-0.768046	-77.123991	-6.884100
01816	9.588785	-0.009658	2.209177	-0.014167	0.021805	0.027266	1.000000	0.000031	0.000010	0.000007	-0.765122	-77.125130	-6.887213
01817	9.588739	-0.009780	2.209379	-0.014581	0.021741	0.027266	1.000000	0.000041	0.000011	0.000023	-0.768740	-77.126192	-6.882315
01818	9.614740	-0.008166	2.176398	0.023137	0.018331	0.045261	1.000000	0.000001	0.000018	-0.000006	-0.762822	-77.126469	-6.891997
01819	9.621582	-0.011690	2.199834	0.001422	0.017670	0.057163	1.000000	0.000041	0.000011	0.000023	-0.766485	-77.127484	-6.888020
01820	9.606606	0.006013	2.207179	-0.006782	0.036740	0.044146	1.000000	0.000027	0.000011	0.000019	-0.770301	-77.128428	-6.884632
01821	9.639553	0.004101	2.197187	0.009599	0.032721	0.074045	1.000000	0.000028	-0.000001	0.000007	-0.767722	-77.130939	-6.886525
01822	9.607683	-0.005171	2.153917	0.042813	0.018687	0.033366	1.000000	0.000031	0.000010	0.000007	-0.764796	-77.132078	-6.889638
01823	9.632595	0.007464	2.174271	0.030111	0.033188	0.062148	1.000000	0.000051	0.000007	0.000021	-0.766424	-77.133544	-6.886660
01824	9.607641	-0.005450	2.154104	0.042015	0.018559	0.033370	1.000000	0.000034	-0.000004	0.000018	-0.768889	-77.136229	-6.883846
01825	9.640596	-0.007467	2.144083	0.058408	0.014524	0.063274	1.000000	0.000041	0.000011	0.000023	-0.772423	-77.137247	-6.877454
01826	9.630522	-0.038408	2.116992	0.078104	-0.019235	0.047516	1.000000	0.000013	0.000012	0.000016	-0.776089	-77.138147	-6.875870
01827	9.615497	-0.020589	2.124567	0.069903	-0.000178	0.034500	1.000000	0.000041	0.000035	0.000011	-0.773761	-77.136386	-6.878440
01828	9.651461	0.011578	2.119224	0.087516	0.030083	0.068273	1.000000	0.000020	0.000027	0.000021	-0.778929	-77.135590	-6.874475
01829	9.622134	-0.024468	2.148904	0.047772	-0.000887	0.046398	1.000000	0.000033	0.000033	0.000018	-0.781217	-77.134140	-6.872122
01830	9.625736	-0.062245	2.168672	0.024832	-0.035812	0.054425	1.000000	0.000021	0.000044	0.000014	-0.783090	-77.131338	-6.871415
01831	9.628694	-0.028309	2.173558	0.025644	-0.001593	0.058293	1.000000	0.000033	0.000033	0.000018	-0.785353	-77.129849	-6.871231
01832	9.595571	-0.026850	2.184286	0.008452	0.002327	0.028387	1.000000	0.000029	0.000035	0.000031	-0.794715	-77.128130	-6.861925
01833	9.595375	-0.027166	2.185146	0.008029	0.002264	0.028387	1.000000	0.000024	0.000055	0.000014	-0.795647	-77.124214	-6.860191
01834	9.608921	-0.034255	2.232478	-0.035006	0.001060	0.052163	1.000000	0.000012	0.000049	0.000016	-0.799459	-77.120906	-6.858625
01835	9.608732	-0.034397	2.233291	-0.035427	0.000991	0.052162	1.000000	0.000027	0.000036	0.000007	-0.796780	-77.119170	-6.859912
01836	9.608578	-0.034516	2.233950	-0.035830	0.000941	0.052160	1.000000	0.000047	0.000033	0.000022	-0.799554	-77.117694	-6.855298
01837	9.590378	-0.050757	2.237537	-0.045268	-0.014278	0.035269	1.000000	0.000022	0.000032	0.000002	-0.794853	-77.116469	-6.859730
01838	9.618320	-0.003889	2.262416	-0.056741	0.034542	0.067910	1.000000	0.000038	0.000025	0.000011	-0.793435	-77.115916	-6.860454
01839	9.601307	-0.031246	2.212461	-0.015753	0.001332	0.040272	1.000000	0.000028	0.000029	0.000013	-0.793606	-77.114895	-6.861939
01840	9.593142	-0.016790	2.243246	-0.045242	0.019848	0.039133	1.000000	0.000024	0.000025	0.000008	-0.792035	-77.114297	-6.864471
01841	9.626055	-0.018801	2.233475	-0.028872	0.015803	0.069044	1.000000	0.000029	0.000005	0.000025	-0.798264	-77.116038	-6.860089
01842	9.586163	-0.013857	2.220508	-0.024727	0.020304	0.027248	1.000000	0.000041	0.000011	0.000023	-0.802238	-77.117029	-6.854885
01843	9.615915	-0.049999	2.206724	-0.009623	-0.018033	0.053292	1.000000	0.000014	0.000029	0.000010	-0.802283	-77.116012	-6.856915
01844	9.585967	-0.014181	2.221350	-0.025544	0.020191	0.027247	1.000000	0.000040	0.000018	0.000017	-0.803562	-77.116232	-6.854674
01845	9.600817	-0.032269	2.214575	-0.018191	0.000986	0.040268	1.000000	0.000021	0.000014	0.000008	-0.802185	-77.116877	-6.857602
01846	9.618814	-0.016180	2.211879	-0.009580	0.016081	0.057161	1.000000	0.000035	0.000014	0.000012	-0.801369	-77.117559	-6.858029
01847	9.582631	-0.048566	2.218084	-0.028011	-0.014279	0.023373	1.000000	0.000035	0.000014	0.000012	-0.800123	-77.118242	-6.859695
01848	9.618670	-0.016182	2.212506	-0.010386	0.015961	0.057160	1.000000	0.000027	0.000024	-0.000005	-0.791816	-77.117842	-6.868721
01849	9.603690	0.001859	2.219840	-0.018552	0.035037	0.044137	1.000000	0.000033	0.000003	0.000012	-0.791228	-77.119833	-6.868583
01850	9.593681	-0.029004	2.192547	0.001106	0.001253	0.028391	1.000000	0.000048	-0.000004	0.000021	-0.793866	-77.122566	-6.863939
01851	9.626626	-0.030916	2.182666	0.017455	-0.002814	0.058310	1.000000	0.000020	0.000021	0.000003	-0.789766	-77.122483	-6.868579
01852	9.629700	0.003242	2.187066	0.018322	0.031417	0.062183	1.000000	0.000031	0.000010	0.000007	-0.786851	-77.123627	-6.871677
01853	9.618481	-0.016240	2.213326	-0.012432	0.015659	0.057158	1.000000	0.000036	0.000002	-0.000000	-0.779524	-77.125796	-6.878371
01854	9.611593	-0.012827	2.190235	0.008493	0.016154	0.045288	1.000000	0.000023	0.000007	0.000014	-0.781247	-77.127205	-6.877645
01855	9.611536	-0.012986	2.190483	0.008085	0.016089	0.045288	1.000000	0.000026	0.000018	0.000014	-0.782035	-77.127410	-6.876772
01856	9.648820	0.008111	2.131234	0.076109	0.028261	0.068373	1.000000	0.000038	-0.000005	0.000005	-0.777778	-77.130295	-6.880436
01857	9.615809	0.009899	2.141399	0.058946	0.032197	0.038453	1.000000	0.000026	0.000018	0.000014	-0.778579	-77.130518	-6.880926
01858	9.622630	0.006366	2.164783	0.037217	0.031598	0.050322	1.000000	0.000033	0.000003	0.000012	-0.778362	-77.132434	-6.881059
01859	9.612537	-0.024649	2.137877	0.056841	-0.002212	0.034584	1.000000	0.000029	0.000034	0.000031	-0.787325	-77.130828	-6.869784
01860	9.637335	-0.012296	2.158670	0.044125	0.012328	0.063351	1.000000	0.000020	0.000027	0.000021	-0.792486	-77.130035	-6.865821
01861	9.619162	-0.028715	2.162117	0.034688	-0.002877	0.046453	1.000000	0.000030	0.000022	0.000019	-0.795320	-77.129840	-6.863088
01862	9.629071	0.001879	2.189835	0.014244	0.030814	0.062192	1.000000	0.000024	0.000025	0.000008	-0.793742	-77.129245	-6.865624
01863	9.618943	-0.028949	2.163090	0.033866	-0.002999	0.046455	1.000000	0.000042	0.000029	0.000017	-0.794031	-77.128322	-6.861308
01864	9.618805	-0.029253	2.163698	0.033463	-0.003055	0.046457	1.000000	0.000029	0.000034	0.000031	-0.803386	-77.126607	-6.852003
01865	9.628669	0.001141	2.191603	0.013005	0.030623	0.062194	1.000000	0.000047	0.000032	0.000022	-0.805682	-77.125226	-6.847195
01866	9.611679	-0.026337	2.141712	0.053974	-0.002647	0.034600	1.000000	0.000038	0.000025	0.000011	-0.804263	-77.124678	-6.847914
01867	9.610330	-0.015216	2.195752	0.003170	0.015367	0.045292	1.000000	0.000017	0.000040	0.000009	-0.803583	-77.122411	-6.849218
01868	9.625080	-0.033278	2.189438	0.010486	-0.003837	0.058320	1.000000	0.000027	0.000036	0.000007	-0.801401	-77.120584	-6.852049
01869	9.624928	-0.033397	2.190102	0.010070	-0.003904	0.058320	1.000000	0.000033	0.000033	0.000018	-0.803640	-77.119136	-6.849599
01870	9.598642	-0.035143	2.223940	-0.028402	-0.000464	0.040244	1.000000	0.000033	0.000033	0.000018	-0.806254	-77.117620	-6.846791
01871	9.624645	-0.033774	2.191340	0.009252	-0.004023	0.058321	1.000000	0.000014	0.000029	0.000010	-0.806283	-77.116571	-6.849082
01872	9.590291	-0.020864	2.255366	-0.058264	0.018050	0.039068	1.000000	0.000033	0.000033	0.000018	-0.808897	-77.115054	-6.846274
01873	9.606272	-0.050240	2.195617	-0.000592	-0.019272	0.041415	1.000000	0.000031	0.000040	0.000013	-0.808396	-77.112864	-6.845822
01874	9.601249	-0.001538	2.230373	-0.028727	0.033590	0.044117	1.000000	0.000045	0.000009	0.000010	-0.805650	-77.114058	-6.847092
01875	9.624120	-0.034245	2.193636	0.007601	-0.004266	0.058322	1.000000	0.000022	0.000044	0.000014	-0.807018	-77.111366	-6.845973
01876	9.604654	-0.039271	2.250683	-0.052204	-0.001333	0.052087	1.000000	0.000038	0.000025	0.000011	-0.805603	-77.110820	-6.846686
01877	9.572794	-0.048774	2.207727	-0.018956	-0.015487	0.011478	1.000000	0.000030	0.000022	0.000019	-0.808328	-77.110569	-6.843499
01878	9.589526	-0.021540	2.258611	-0.060717	0.017707	0.039054	1.000000	0.000038	0.000025	0.000011	-0.806912	-77.110024	-6.844212
01879	9.597508	-0.036260	2.228807	-0.032088	-0.000995	0.040233	1.000000	0.000026	0.000018	0.000014	-0.807665	-77.110237	-6.844285
01880	9.612360	-0.054336	2.222057	-0.024794	-0.020204	0.053261	1.000000	0.000031	0.000010	0.000007	-0.804762	-77.111385	-6.847368
01881	9.597398	-0.036450	2.229281	-0.032901	-0.001109	0.040230	1.000000	0.000041	0.000011	0.000023	-0.808381	-77.112421	-6.844126
01882	9.608548	-0.017036	2.203523	-0.002939	0.014475	0.045294	1.000000	0.000022	0.000032	0.000002	-0.804104	-77.111058	-6.849623
01883	9.631486	-0.049619	2.166552	0.033378	-0.023400	0.059510	1.000000	0.000038	-0.000005	0.000005	-0.799525	-77.113958	-6.853998
01884	9.597241	-0.036409	2.229957	-0.034112	-0.001273	0.040226	1.000000	0.000026	0.000006	0.000001	-0.794525	-77.115568	-6.859752
01885	9.616536	-0.031487	2.173729	0.024867	-0.004363	0.046482	1.000000	0.000031	0.000010	0.000007	-0.791188	-77.116793	-6.861743
01886	9.626515	-0.000720	2.201044	0.004459	0.029357	0.062206	1.000000	0.000028	-0.000001	0.000007	-0.788888	-77.119174	-6.864530
01887	9.601550	-0.013512	2.181057	0.016368	0.014679	0.033453	1.000000	0.000038	0.000025	0.000011	-0.787143	-77.118681	-6.864684
01888	9.616356	-0.031576	2.174524	0.023648	-0.004538	0.046485	1.000000	0.000024	0.000025	0.000008	-0.785565	-77.118090	-6.867215
01889	9.634377	-0.015517	2.171815	0.032265	0.010515	0.063399	1.000000	0.000033	0.000003	0.000012	-0.785081	-77.120029	-6.868086
01890	9.601330	-0.013884	2.182024	0.015160	0.014507	0.033455	1.000000	0.000022	0.000020	0.000026	-0.792938	-77.120009	-6.861156
01891	9.626169	-0.001367	2.202557	0.002422	0.029056	0.062207	1.000000	0.000049	0.000013	0.000015	-0.791921	-77.120817	-6.858957
01892	9.627359	-0.012770	2.149459	0.052390	0.010837	0.051567	1.000000	0.000040	0.000018	0.000017	-0.793207	-77.121044	-6.856698
01893	9.612375	0.005000	2.156779	0.044308	0.029932	0.038537	1.000000	0.000032	0.000015	0.000025	-0.798742	-77.121564	-6.851522
01894	9.648961	-0.034607	2.166258	0.037901	-0.008954	0.076438	1.000000	0.000035	0.000014	0.000012	-0.797933	-77.122253	-6.851934
01895	9.609063	-0.029375	2.153375	0.042133	-0.004475	0.034657	1.000000	0.000034	0.000021	0.000006	-0.793969	-77.122259	-6.854723
01896	9.600889	-0.014910	2.183956	0.012714	0.014142	0.033459	1.000000	0.000036	0.000019	0.000030	-0.801990	-77.122287	-6.845970
01897	9.626969	-0.013684	2.151199	0.050340	0.010514	0.051578	1.000000	0.000038	0.000025	0.000011	-0.800223	-77.121820	-6.847169
01898	9.600703	-0.015116	2.184774	0.011897	0.014023	0.033460	1.000000	0.000029	0.000017	0.000001	-0.794612	-77.122200	-6.853223
01899	9.626764	-0.013749	2.152116	0.049518	0.010389	0.051582	1.000000	0.000023	0.000037	0.000020	-0.798793	-77.120275	-6.849828
01900	9.608521	-0.030117	2.155782	0.040088	-0.004777	0.034666	1.000000	0.000019	0.000033	0.000015	-0.801239	-77.118715	-6.848840
01901	9.622020	-0.036993	2.202786	-0.003035	-0.005820	0.058324	1.000000	0.000028	0.000029	0.000013	-0.801401	-77.117752	-6.848386
01902	9.618248	0.000337	2.184181	0.019285	0.028894	0.050382	1.000000	0.000033	0.000033	0.000018	-0.804010	-77.116240	-6.845576
01903	9.591933	-0.001237	2.217908	-0.019185	0.032405	0.032255	1.000000	0.000024	0.000025	0.000008	-0.801999	-77.115827	-6.845907
01904	9.606715	-0.019391	2.211483	-0.011931	0.013181	0.045289	1.000000	0.000033	0.000033	0.000018	-0.804608	-77.114316	-6.843097
01905	9.599777	-0.016172	2.188831	0.009012	0.013599	0.033464	1.000000	0.000038	0.000025	0.000011	-0.802819	-77.113817	-6.845044
01906	9.606509	-0.019675	2.212378	-0.012743	0.013064	0.045288	1.000000	0.000041	0.000011	0.000023	-0.806813	-77.114817	-6.839807
01907	9.606376	-0.019931	2.212950	-0.013155	0.012999	0.045287	1.000000	0.000012	0.000049	0.000016	-0.810200	-77.111563	-6.838778
01908	9.627921	-0.041504	2.229924	-0.027266	-0.006707	0.070144	1.000000	0.000043	0.000028	0.000017	-0.810878	-77.110561	-6.836814
01909	9.612898	-0.023652	2.237385	-0.035328	0.012401	0.057108	1.000000	0.000030	0.000022	0.000019	-0.813619	-77.110349	-6.834435
01910	9.602815	-0.054643	2.210582	-0.015762	-0.021453	0.041398	1.000000	0.000026	0.000018	0.000014	-0.814744	-77.110531	-6.833992
01911	9.587810	-0.036706	2.217967	-0.023818	-0.002343	0.028362	1.000000	0.000024	0.000025	0.000008	-0.812760	-77.109999	-6.836765
01912	9.613947	-0.035488	2.185089	0.013807	-0.005996	0.046502	1.000000	0.000043	0.000004	0.000029	-0.819463	-77.111771	-6.828554
01913	9.580858	-0.033845	2.195401	-0.003280	-0.001988	0.016542	1.000000	0.000019	0.000033	0.000015	-0.821457	-77.110294	-6.828124
01914	9.605694	-0.021140	2.215898	-0.016009	0.012589	0.045284	1.000000	0.000024	-0.000005	0.000002	-0.817080	-77.113140	-6.833561
01915	9.598855	-0.017882	2.192856	0.004933	0.012993	0.033467	1.000000	0.000030	0.000022	0.000019	-0.819895	-77.112938	-6.829731
01916	9.627267	-0.042694	2.232726	-0.030556	-0.007176	0.070134	1.000000	0.000034	0.000021	0.000006	-0.816386	-77.112860	-6.833105
01917	9.623574	-0.005268	2.213863	-0.008197	0.027506	0.062208	1.000000	0.000026	0.000018	0.000014	-0.817181	-77.113033	-6.834994
01918	9.580505	-0.034262	2.196934	-0.005304	-0.002277	0.016541	1.000000	0.000035	0.000014	0.000012	-0.816379	-77.113726	-6.835394
01919	9.620263	-0.039651	2.210403	-0.010422	-0.006887	0.058318	1.000000	0.000037	0.000007	0.000018	-0.817976	-77.115259	-6.833271
01920	9.598522	-0.018362	2.194310	0.002913	0.012704	0.033468	1.000000	0.000031	0.000010	0.000007	-0.815079	-77.116413	-6.836341
01921	9.631466	-0.020503	2.184644	0.019155	0.008552	0.063435	1.000000	0.000050	0.000019	0.000033	-0.822911	-77.116549	-6.825229
01922	9.598410	-0.018824	2.194796	0.002098	0.012586	0.033469	1.000000	0.000033	0.000003	0.000012	-0.822724	-77.118474	-6.825323
01923	9.616451	-0.002789	2.192075	0.010717	0.027614	0.050398	1.000000	0.000024	0.000025	0.000008	-0.820750	-77.117952	-6.825879
01924	9.621269	-0.051756	2.158374	0.037880	-0.025444	0.047738	1.000000	0.000026	0.000018	0.000014	-0.821874	-77.118136	-6.825435
01925	9.637992	-0.024329	2.209027	-0.003849	0.007853	0.075245	1.000000	0.000031	0.000010	0.000007	-0.818611	-77.119367	-6.827872
01926	9.606228	-0.033808	2.165923	0.029443	-0.006381	0.034702	1.000000	0.000038	0.000024	0.000011	-0.817194	-77.118829	-6.828575
01927	9.591245	-0.015914	2.173212	0.021420	0.012735	0.021664	1.000000	0.000027	0.000011	0.000019	-0.820625	-77.119819	-6.825222
01928	9.630985	-0.021256	2.186759	0.016298	0.008133	0.063440	1.000000	0.000043	0.000016	0.000005	-0.815186	-77.120253	-6.829438
01929	9.616009	-0.003101	2.194014	0.008275	0.027254	0.050402	1.000000	0.000029	0.000017	0.000001	-0.809254	-77.120695	-6.835763
01930	9.602353	0.003386	2.147933	0.050608	0.028100	0.026797	1.000000	0.000022	0.000020	0.000026	-0.817110	-77.120678	-6.828828
01931	9.630706	-0.021428	2.187984	0.015068	0.007945	0.063443	1.000000	0.000035	0.000038	0.000000	-0.809879	-77.118651	-6.836429
01932	9.630563	-0.021288	2.188616	0.014665	0.007891	0.063443	1.000000	0.000032	0.000027	0.000001	-0.803657	-77.117805	-6.842777
01933	9.630454	-0.021339	2.189094	0.014245	0.007822	0.063444	1.000000	0.000030	0.000022	0.000019	-0.806432	-77.117614	-6.840150
01934	9.608637	-0.000232	2.173379	0.027612	0.027402	0.038605	1.000000	0.000023	0.000037	0.000020	-0.810961	-77.115597	-6.836496
01935	9.630159	-0.021883	2.190386	0.013419	0.007704	0.063445	1.000000	0.000023	0.000037	0.000020	-0.815165	-77.113688	-6.831745
01936	9.623274	-0.018848	2.167628	0.034386	0.008092	0.051649	1.000000	0.000056	0.000010	0.000026	-0.819340	-77.114741	-6.824662
01937	9.608260	-0.000973	2.175044	0.026393	0.027212	0.038609	1.000000	0.000003	0.000041	0.000006	-0.818528	-77.112338	-6.831474
01938	9.614881	-0.004308	2.198950	0.004621	0.026719	0.050406	1.000000	0.000051	0.000031	0.000009	-0.814574	-77.111082	-6.833317
01939	9.596625	-0.020616	2.202570	-0.004829	0.011568	0.033469	1.000000	0.000029	0.000034	0.000031	-0.823458	-77.109423	-6.825633
01940	9.607825	-0.001514	2.176966	0.025181	0.027032	0.038613	1.000000	0.000029	0.000029	0.000013	-0.823966	-77.108378	-6.825492
01941	9.621248	-0.008343	2.223938	-0.017983	0.026097	0.062199	1.000000	0.000035	0.000026	0.000024	-0.828874	-77.107738	-6.819930
01942	9.596256	-0.021402	2.204172	-0.006052	0.011397	0.033469	1.000000	0.000030	0.000022	0.000019	-0.832092	-77.107463	-6.816812
01943	9.635934	-0.026941	2.217959	-0.011213	0.006782	0.075240	1.000000	0.000021	0.000027	0.000021	-0.836794	-77.106715	-6.813665
01944	9.596000	-0.021871	2.205280	-0.006864	0.011277	0.033468	1.000000	0.000017	0.000040	0.000009	-0.836511	-77.104390	-6.815662
01945	9.635705	-0.027296	2.218949	-0.012040	0.006670	0.075239	1.000000	0.000048	-0.000004	0.000022	-0.838938	-77.107238	-6.811187
01946	9.602607	-0.025474	2.229191	-0.029061	0.010737	0.045256	1.000000	0.000031	0.000040	0.000013	-0.838826	-77.104964	-6.811353
01947	9.610648	-0.040341	2.199472	-0.000522	-0.008099	0.046511	1.000000	0.000033	0.000003	0.000012	-0.838306	-77.106933	-6.811910
01948	9.588945	-0.019063	2.183313	0.012878	0.011471	0.021681	1.000000	0.000035	0.000014	0.000012	-0.837511	-77.107631	-6.812296
01949	9.617293	-0.043871	2.223208	-0.022714	-0.008641	0.058296	1.000000	0.000030	0.000022	0.000019	-0.840325	-77.107394	-6.809649
01950	9.602312	-0.025954	2.230455	-0.030687	0.010507	0.045251	1.000000	0.000035	0.000014	0.000012	-0.839531	-77.108091	-6.810035
01951	9.610371	-0.040884	2.200672	-0.002162	-0.008335	0.046510	1.000000	0.000044	0.000022	0.000022	-0.842589	-77.107963	-6.804962
01952	9.602210	-0.026239	2.230893	-0.031510	0.010395	0.045249	1.000000	0.000025	-0.000012	0.000008	-0.840944	-77.111582	-6.807398
01953	9.628405	-0.024998	2.198052	0.006052	0.006621	0.063453	1.000000	0.000003	0.000041	0.000006	-0.840116	-77.109326	-6.809922
01954	9.616944	-0.044601	2.224704	-0.024774	-0.008921	0.058291	1.000000	0.000057	0.000004	0.000032	-0.847015	-77.111151	-6.799846
01955	9.595256	-0.023419	2.208499	-0.011372	0.010631	0.033465	1.000000	0.000031	0.000010	0.000007	-0.843718	-77.112376	-6.803286
01956	9.628238	-0.025490	2.198777	0.004829	0.006447	0.063454	1.000000	0.000023	0.000007	0.000014	-0.845465	-77.113793	-6.802526
01957	9.595170	-0.023620	2.208869	-0.012205	0.010516	0.033464	1.000000	0.000035	0.000014	0.000012	-0.844311	-77.114657	-6.802015
01958	9.646253	-0.009603	2.196252	0.013037	0.021400	0.080400	1.000000	0.000021	0.000014	0.000008	-0.843342	-77.115306	-6.804234
01959	9.628066	-0.025751	2.199526	0.003574	0.006265	0.063455	1.000000	0.000021	0.000014	0.000008	-0.842015	-77.116035	-6.807265
01960	9.609871	-0.041942	2.202834	-0.005875	-0.008857	0.046508	1.000000	0.000040	0.000018	0.000017	-0.843314	-77.116273	-6.804979
01961	9.629351	-0.037561	2.146620	0.053071	-0.012243	0.052951	1.000000	0.000048	-0.000004	0.000022	-0.845733	-77.119078	-6.800186
01962	9.614428	-0.019534	2.153623	0.045119	0.006906	0.039907	1.000000	0.000029	0.000017	0.000001	-0.840128	-77.119469	-6.806223
01963	9.621096	-0.022651	2.177239	0.023326	0.006433	0.051682	1.000000	0.000028	0.000023	-0.000005	-0.831452	-77.119123	-6.816004
01964	9.612853	-0.007858	2.207788	-0.006006	0.025183	0.050409	1.000000	0.000030	0.000022	0.000019	-0.834672	-77.118850	-6.812882
01965	9.614160	-0.019449	2.154818	0.043897	0.006710	0.039913	1.000000	0.000029	0.000017	0.000001	-0.828619	-77.119276	-6.818721
01966	9.614085	-0.019471	2.155153	0.043495	0.006654	0.039915	1.000000	0.000026	0.000018	0.000014	-0.829743	-77.119465	-6.818270
01967	9.630730	0.007951	2.205878	0.001819	0.040059	0.067358	1.000000	0.000030	0.000022	0.000019	-0.832608	-77.119236	-6.815004
01968	9.620694	-0.023102	2.179012	0.021294	0.006132	0.051687	1.000000	0.000047	0.000002	0.000016	-0.832613	-77.121216	-6.813239
01969	9.623816	0.010874	2.183370	0.022395	0.040338	0.055591	1.000000	0.000012	0.000048	0.000016	-0.835998	-77.117962	-6.812216
01970	9.587401	-0.021299	2.190062	0.003899	0.010161	0.021690	1.000000	0.000042	0.000023	-0.000001	-0.827854	-77.117636	-6.819393
01971	9.612181	-0.008375	2.210711	-0.008851	0.024763	0.050408	1.000000	0.000034	0.000020	0.000006	-0.824007	-77.117608	-6.823232
01972	9.605343	-0.005210	2.187885	0.012136	0.025103	0.038642	1.000000	0.000030	0.000022	0.000019	-0.827227	-77.117336	-6.820108
01973	9.605254	-0.005400	2.188272	0.011708	0.025040	0.038643	1.000000	0.000026	0.000018	0.000014	-0.828029	-77.117671	-6.818328
01974	9.611912	-0.008723	2.211880	-0.010083	0.024596	0.050407	1.000000	0.000034	0.000020	0.000006	-0.824519	-77.117603	-6.821690
01975	9.605078	-0.005565	2.189047	0.010900	0.024925	0.038644	1.000000	0.000044	0.000022	0.000022	-0.827710	-77.117413	-6.817122
01976	9.611749	-0.008940	2.212587	-0.010892	0.024484	0.050406	1.000000	0.000031	0.000010	0.000007	-0.824824	-77.118575	-6.820173
01977	9.626514	-0.027152	2.206291	-0.003785	0.005205	0.063455	1.000000	0.000012	0.000048	0.000016	-0.828174	-77.115345	-6.818418
01978	9.593358	-0.025259	2.216707	-0.020758	0.009311	0.033451	1.000000	0.000045	0.000009	0.000010	-0.825466	-77.116558	-6.819628
01979	9.604686	-0.006048	2.190765	0.009262	0.024686	0.038647	1.000000	0.000030	0.000022	0.000019	-0.828291	-77.116395	-6.816803
01980	9.619482	-0.024370	2.184339	0.016377	0.005416	0.051697	1.000000	0.000030	0.000022	0.000019	-0.831510	-77.116124	-6.813678
01981	9.611241	-0.009813	2.214789	-0.012947	0.024185	0.050405	1.000000	0.000032	0.000015	0.000025	-0.837072	-77.116690	-6.808255
01982	9.593030	-0.026118	2.218117	-0.022400	0.009080	0.033447	1.000000	0.000026	0.000018	0.000014	-0.838198	-77.116881	-6.807800
01983	9.625956	-0.028288	2.208713	-0.006253	0.004850	0.063454	1.000000	0.000043	0.000028	0.000017	-0.838497	-77.115958	-6.806761
01984	9.625871	-0.028351	2.209082	-0.006656	0.004797	0.063454	1.000000	0.000031	0.000010	0.000007	-0.835614	-77.117121	-6.809807
01985	9.592759	-0.026463	2.219285	-0.023631	0.008894	0.033445	1.000000	0.000007	0.000027	0.000017	-0.840031	-77.116344	-6.808372
01986	9.618961	-0.025479	2.186621	0.013920	0.005046	0.051701	1.000000	0.000054	0.000017	0.000021	-0.841515	-77.116638	-6.804233
01987	9.607466	-0.044851	2.213240	-0.016937	-0.010439	0.046494	1.000000	0.000020	0.000021	0.000003	-0.837553	-77.116542	-6.809810
01988	9.618782	-0.025641	2.187404	0.013109	0.004929	0.051702	1.000000	0.000030	0.000022	0.000019	-0.840773	-77.116273	-6.806683
01989	9.593828	-0.038652	2.167552	0.025032	-0.009817	0.022992	1.000000	0.000040	0.000018	0.000017	-0.841669	-77.116606	-6.804049
01990	9.592309	-0.027189	2.221219	-0.025663	0.008614	0.033440	1.000000	0.000026	0.000018	0.000014	-0.842795	-77.116797	-6.803593
01991	9.625241	-0.029457	2.211809	-0.009519	0.004372	0.063452	1.000000	0.000021	0.000027	0.000021	-0.847530	-77.116024	-6.800513
01992	9.618437	-0.026365	2.188914	0.011476	0.004685	0.051704	1.000000	0.000031	0.000010	0.000007	-0.844650	-77.117188	-6.803556
01993	9.633296	-0.044649	2.182216	0.018551	-0.014604	0.064757	1.000000	0.000057	0.000004	0.000032	-0.851251	-77.119089	-6.793824
01994	9.600199	-0.042806	2.192334	0.001601	-0.010478	0.034743	1.000000	0.000010	0.000025	0.000004	-0.849474	-77.118460	-6.798198
01995	9.624969	-0.030084	2.212986	-0.011152	0.004138	0.063450	1.000000	0.000040	0.000018	0.000017	-0.850426	-77.118719	-6.796259
01996	9.611449	-0.023766	2.166837	0.031247	0.004805	0.039962	1.000000	0.000026	0.000018	0.000014	-0.851552	-77.118911	-6.795802
01997	9.596483	-0.005814	2.174004	0.023348	0.023960	0.026910	1.000000	0.000040	0.000018	0.000017	-0.852385	-77.119206	-6.793202
01998	9.618002	-0.027347	2.190813	0.009028	0.004322	0.051707	1.000000	0.000030	0.000022	0.000019	-0.855604	-77.118938	-6.790073
01999	9.609736	-0.012568	2.221295	-0.020273	0.023126	0.050395	1.000000	0.000020	0.000021	0.000003	-0.851529	-77.118895	-6.795126
02000	9.629224	-0.008121	2.165471	0.038667	0.019596	0.056932	1.000000	0.000037	0.000031	0.000006	-0.847392	-77.117603	-6.798797
02001	9.617670	-0.027406	2.192268	0.007787	0.004131	0.051708	1.000000	0.000038	0.000024	0.000012	-0.845474	-77.117165	-6.799410
02002	9.635740	-0.011511	2.189596	0.016441	0.019116	0.068674	1.000000	0.000042	0.000011	0.000023	-0.849504	-77.118178	-6.794120
02003	9.595905	-0.006418	2.176552	0.020888	0.023595	0.026917	1.000000	0.000029	0.000029	0.000013	-0.849696	-77.117266	-6.792982
02004	9.613951	0.009492	2.173990	0.029545	0.038579	0.043885	1.000000	0.000026	0.000018	0.000014	-0.850822	-77.117459	-6.792524
02005	9.642171	-0.015258	2.214072	-0.006210	0.018582	0.080412	1.000000	0.000030	0.000022	0.000019	-0.853639	-77.117262	-6.789749
02006	9.595604	-0.006927	2.177877	0.019672	0.023419	0.026920	1.000000	0.000029	0.000029	0.000013	-0.854135	-77.116226	-6.789606
02007	9.635195	-0.012248	2.191989	0.014374	0.018808	0.068678	1.000000	0.000054	0.000041	0.000009	-0.849115	-77.113833	-6.791633
02008	9.602075	-0.010247	2.202166	-0.002552	0.022951	0.038655	1.000000	0.000034	-0.000004	0.000018	-0.851684	-77.116536	-6.788696
02009	9.601999	-0.010269	2.202494	-0.002979	0.022886	0.038655	1.000000	0.000035	0.000038	0.000000	-0.844421	-77.114613	-6.794744
02010	9.616776	-0.028432	2.196176	0.004081	0.003600	0.051710	1.000000	0.000013	0.000012	0.000016	-0.848087	-77.115522	-6.793145
02011	9.634839	-0.012577	2.193549	0.012719	0.018563	0.068681	1.000000	0.000043	0.000028	0.000017	-0.848280	-77.114632	-6.790893
02012	9.623262	-0.031966	2.220370	-0.018153	0.003137	0.063440	1.000000	0.000029	0.000029	0.000013	-0.848776	-77.113597	-6.790749
02013	9.588171	-0.004351	2.157843	0.038198	0.023323	0.015198	1.000000	0.000040	0.000018	0.000017	-0.849702	-77.113938	-6.788396
02014	9.604929	-0.048392	2.224153	-0.028038	-0.012010	0.046467	1.000000	0.000032	0.000015	0.000025	-0.855645	-77.114439	-6.782277
02015	9.601434	-0.011217	2.204954	-0.005434	0.022528	0.038655	1.000000	0.000021	0.000014	0.000008	-0.854331	-77.115140	-6.784267
02016	9.626217	0.001505	2.225500	-0.018186	0.037171	0.067353	1.000000	0.000040	0.000018	0.000017	-0.855642	-77.115387	-6.781958
02017	9.607963	-0.014767	2.228936	-0.027674	0.022075	0.050379	1.000000	0.000035	0.000026	0.000024	-0.860511	-77.114793	-6.775599
02018	9.624291	-0.044727	2.169057	0.029644	-0.015787	0.053044	1.000000	0.000024	-0.000005	0.000002	-0.856175	-77.117650	-6.780986
02019	9.594487	-0.008559	2.182787	0.014329	0.022621	0.026931	1.000000	0.000030	0.000022	0.000019	-0.858977	-77.117481	-6.777413
02020	9.615985	-0.030037	2.199613	-0.000041	0.002999	0.051711	1.000000	0.000021	0.000014	0.000008	-0.858010	-77.118137	-6.779624
02021	9.594322	-0.008765	2.183510	0.013519	0.022498	0.026932	1.000000	0.000024	0.000025	0.000008	-0.855988	-77.117594	-6.782426
02022	9.600935	-0.012115	2.207117	-0.008296	0.022117	0.038653	1.000000	0.000028	0.000011	0.000019	-0.859840	-77.118557	-6.778975
02023	9.623957	-0.045422	2.170523	0.027574	-0.016106	0.053050	1.000000	0.000028	0.000011	0.000019	-0.863211	-77.119633	-6.776002
02024	9.618951	0.003570	2.204725	-0.000059	0.037021	0.055630	1.000000	0.000037	0.000031	0.000006	-0.859070	-77.118346	-6.779670
02025	9.615568	-0.030515	2.201429	-0.002093	0.002691	0.051711	1.000000	0.000029	0.000016	0.000001	-0.853144	-77.118773	-6.786532
02026	9.620254	-0.008318	2.152313	0.049399	0.018303	0.045255	1.000000	0.000031	0.000028	0.000037	-0.865184	-77.117841	-6.774243
02027	9.590542	-0.043957	2.181946	0.009449	-0.012131	0.023017	1.000000	0.000037	0.000007	0.000018	-0.866749	-77.119333	-6.772028
02028	9.601977	-0.024945	2.155840	0.039527	0.003155	0.028281	1.000000	0.000028	0.000011	0.000019	-0.870604	-77.120296	-6.768574
02029	9.630161	-0.049578	2.195905	0.003714	-0.016796	0.064770	1.000000	0.000034	0.000020	0.000006	-0.866644	-77.120240	-6.772926
02030	9.608486	-0.028302	2.179884	0.017301	0.002711	0.039997	1.000000	0.000029	0.000029	0.000013	-0.867135	-77.119208	-6.772783
02031	9.593513	-0.010268	2.187056	0.009471	0.021890	0.026938	1.000000	0.000036	0.000014	0.000012	-0.866034	-77.119927	-6.773088
02032	9.608295	-0.028417	2.180726	0.016492	0.002591	0.039999	1.000000	0.000037	0.000031	0.000006	-0.861891	-77.118641	-6.776756
02033	9.600036	-0.013539	2.211017	-0.012774	0.021462	0.038650	1.000000	0.000020	-0.000003	0.000015	-0.863969	-77.121416	-6.775269
02034	9.637913	-0.064914	2.167828	0.030501	-0.036020	0.066120	1.000000	0.000032	0.000040	0.000013	-0.863825	-77.119156	-6.775446
02035	9.593176	-0.010514	2.188531	0.007843	0.021650	0.026940	1.000000	0.000041	0.000005	0.000005	-0.858623	-77.120831	-6.780045
02036	9.594640	-0.022233	2.135492	0.057700	0.002964	0.016585	1.000000	0.000034	0.000020	0.000006	-0.855115	-77.120773	-6.783393
02037	9.626054	-0.012533	2.179498	0.023497	0.017296	0.056985	1.000000	0.000037	0.000031	0.000006	-0.850551	-77.119610	-6.786687
02038	9.622645	-0.046704	2.176307	0.021440	-0.017022	0.053063	1.000000	0.000038	0.000024	0.000012	-0.849137	-77.119093	-6.787361
02039	9.610946	0.005550	2.187250	0.015267	0.036420	0.043926	1.000000	0.000038	0.000024	0.000012	-0.847255	-77.118648	-6.788200
02040	9.610889	0.005608	2.187501	0.014867	0.036366	0.043926	1.000000	0.000022	0.000002	-0.000004	-0.840193	-77.120740	-6.796575
02041	9.599305	-0.013561	2.214190	-0.016030	0.020985	0.038646	1.000000	0.000032	0.000040	0.000013	-0.839680	-77.118496	-6.797505
02042	9.614023	-0.031857	2.208147	-0.009027	0.001682	0.051708	1.000000	0.000019	0.000033	0.000015	-0.842077	-77.116951	-6.796540
02043	9.625456	-0.012863	2.182133	0.021046	0.016926	0.056991	1.000000	0.000048	-0.000004	0.000022	-0.844482	-77.119794	-6.791675
02044	9.607223	-0.029095	2.185432	0.011575	0.001862	0.040006	1.000000	0.000033	0.000033	0.000018	-0.847067	-77.118303	-6.788856
02045	9.610405	0.004890	2.189629	0.012829	0.036057	0.043930	1.000000	0.000040	0.000018	0.000017	-0.848007	-77.118621	-6.787386
02046	9.592140	-0.011233	2.193062	0.003359	0.020995	0.026944	1.000000	0.000024	0.000025	0.000008	-0.846404	-77.118051	-6.789914
02047	9.592046	-0.011330	2.193474	0.002938	0.020924	0.026945	1.000000	0.000026	0.000018	0.000014	-0.847003	-77.118348	-6.789113
02048	9.598587	-0.014627	2.217294	-0.018890	0.020579	0.038642	1.000000	0.000046	0.000039	0.000016	-0.847048	-77.116145	-6.787430
02049	9.624876	-0.013825	2.184685	0.018578	0.016554	0.056996	1.000000	0.000029	0.000005	0.000025	-0.853174	-77.117977	-6.780795
02050	9.605089	-0.018224	2.241264	-0.041142	0.020171	0.050336	1.000000	0.000038	0.000024	0.000012	-0.851761	-77.117462	-6.781466
02051	9.613198	-0.033349	2.211716	-0.012743	0.001138	0.051703	1.000000	0.000016	0.000023	0.000015	-0.854379	-77.117227	-6.780005
02052	9.591568	-0.012220	2.195558	0.000897	0.020629	0.026946	1.000000	0.000026	0.000018	0.000014	-0.855505	-77.117426	-6.779539
02053	9.606366	-0.030525	2.189178	0.007868	0.001308	0.040010	1.000000	0.000040	0.000018	0.000017	-0.856494	-77.117738	-6.777333
02054	9.624455	-0.014704	2.186532	0.016535	0.016257	0.057000	1.000000	0.000030	0.000022	0.000019	-0.859714	-77.117477	-6.774194
02055	9.624351	-0.014980	2.186990	0.016123	0.016189	0.057001	1.000000	0.000049	0.000025	0.000028	-0.864830	-77.116853	-6.766477
02056	9.624254	-0.015211	2.187415	0.015720	0.016135	0.057002	1.000000	0.000012	0.000019	0.000010	-0.865765	-77.116998	-6.767868
02057	9.612667	-0.034580	2.214003	-0.015211	0.000784	0.051700	1.000000	0.000042	0.000011	0.000023	-0.869327	-77.118153	-6.762434
02058	9.605946	-0.031629	2.191006	0.005817	0.001011	0.040011	1.000000	0.000026	0.000018	0.000014	-0.870453	-77.118352	-6.761967
02059	9.607429	-0.043631	2.138088	0.055635	-0.017760	0.029701	1.000000	0.000026	0.000018	0.000014	-0.871193	-77.118650	-6.761493
02060	9.597591	-0.016932	2.221583	-0.023814	0.019876	0.038633	1.000000	0.000037	0.000007	0.000018	-0.873152	-77.120131	-6.758843
02061	9.627282	-0.053415	2.208405	-0.009492	-0.018708	0.064763	1.000000	0.000026	0.000018	0.000014	-0.873985	-77.120422	-6.758037
02062	9.599022	-0.029104	2.168907	0.025603	0.001049	0.028327	1.000000	0.000026	0.000018	0.000014	-0.875111	-77.120622	-6.757569
02063	9.615580	-0.001390	2.219385	-0.015968	0.034697	0.055625	1.000000	0.000023	0.000007	0.000014	-0.876546	-77.122062	-6.757340
02064	9.620388	-0.050718	2.186173	0.010723	-0.018607	0.053078	1.000000	0.000046	0.000039	0.000016	-0.876584	-77.119862	-6.755659
02065	9.595428	-0.063711	2.166477	0.022654	-0.033401	0.024401	1.000000	0.000026	0.000018	0.000014	-0.877240	-77.120207	-6.754635
02066	9.623527	-0.016802	2.190599	0.011598	0.015530	0.057009	1.000000	0.000033	0.000003	0.000012	-0.877108	-77.122149	-6.754655
02067	9.616794	-0.013720	2.167690	0.032616	0.015730	0.045329	1.000000	0.000027	0.000036	0.000007	-0.874465	-77.120439	-6.757370
02068	9.598488	-0.029725	2.171260	0.023139	0.000682	0.028333	1.000000	0.000034	0.000020	0.000006	-0.870958	-77.120388	-6.760710
02069	9.623221	-0.016874	2.191940	0.010353	0.015343	0.057010	1.000000	0.000038	0.000024	0.000012	-0.869175	-77.119981	-6.761234
02070	9.598293	-0.029753	2.172122	0.022314	0.000561	0.028335	1.000000	0.000034	0.000020	0.000006	-0.865668	-77.119930	-6.764573
02071	9.589973	-0.014827	2.202500	-0.006893	0.019497	0.026946	1.000000	0.000045	0.000021	0.000023	-0.868662	-77.119783	-6.759738
02072	9.598057	-0.029852	2.173163	0.021496	0.000437	0.028337	1.000000	0.000034	0.000045	-0.000006	-0.859048	-77.116972	-6.769393
02073	9.622752	-0.016802	2.194001	0.008706	0.015102	0.057012	1.000000	0.000029	0.000016	0.000001	-0.853089	-77.117500	-6.774765
02074	9.629312	-0.020084	2.217634	-0.013137	0.014790	0.068687	1.000000	0.000022	0.000020	0.000026	-0.860940	-77.117493	-6.767815
02075	9.589540	-0.015026	2.204384	-0.008533	0.019262	0.026945	1.000000	0.000050	0.000013	0.000016	-0.859979	-77.118322	-6.766563
02076	9.604312	-0.033210	2.198131	-0.001591	-0.000061	0.040013	1.000000	0.000023	0.000032	0.000002	-0.855637	-77.116990	-6.772086
02077	9.595945	-0.018203	2.228673	-0.030792	0.018889	0.038616	1.000000	0.000043	0.000028	0.000017	-0.855919	-77.116091	-6.770442
02078	9.607387	0.000743	2.202836	-0.000675	0.034078	0.043946	1.000000	0.000030	0.000022	0.000019	-0.859138	-77.115832	-6.767298
02079	9.622133	-0.017563	2.196708	0.006247	0.014742	0.057015	1.000000	0.000041	0.000035	0.000011	-0.856763	-77.114174	-6.768402
02080	9.622031	-0.017705	2.197154	0.005844	0.014689	0.057015	1.000000	0.000028	0.000011	0.000019	-0.860624	-77.115143	-6.764934
02081	9.615334	-0.014783	2.174150	0.026857	0.014871	0.045348	1.000000	0.000026	0.000018	0.000014	-0.861319	-77.115492	-6.763986
02082	9.621872	-0.018007	2.197846	0.005010	0.014569	0.057016	1.000000	0.000038	0.000024	0.000012	-0.859908	-77.114983	-6.764648
02083	9.588701	-0.015873	2.208024	-0.011819	0.018795	0.026942	1.000000	0.000024	0.000025	0.000008	-0.857981	-77.114509	-6.766975
02084	9.621660	-0.018195	2.198771	0.004187	0.014451	0.057016	1.000000	0.000030	0.000022	0.000019	-0.861201	-77.114251	-6.763830
02085	9.613320	-0.003363	2.229150	-0.025013	0.033417	0.055611	1.000000	0.000030	0.000022	0.000019	-0.864054	-77.114115	-6.760078
02086	9.621461	-0.018567	2.199642	0.003358	0.014333	0.057017	1.000000	0.000038	0.000024	0.000012	-0.862644	-77.113607	-6.760739
02087	9.599856	0.002548	2.183496	0.017062	0.033785	0.032284	1.000000	0.000035	0.000026	0.000024	-0.867587	-77.112966	-6.755054
02088	9.603075	-0.034894	2.203506	-0.006542	-0.000766	0.040011	1.000000	0.000031	0.000010	0.000007	-0.864727	-77.114144	-6.758061
02089	9.603013	-0.034964	2.203774	-0.006966	-0.000828	0.040010	1.000000	0.000026	0.000018	0.000014	-0.865555	-77.114455	-6.757391
02090	9.621149	-0.019048	2.200999	0.001710	0.014098	0.057017	1.000000	0.000045	0.000009	0.000010	-0.862893	-77.115689	-6.758532
02091	9.596275	-0.032091	2.180985	0.013655	-0.000710	0.028351	1.000000	0.000018	0.000016	0.000021	-0.868220	-77.116256	-6.754246
02092	9.602812	-0.035478	2.204641	-0.008198	-0.000999	0.040009	1.000000	0.000030	0.000022	0.000019	-0.871440	-77.116000	-6.751100
02093	9.617644	0.017640	2.182266	0.023685	0.048403	0.049298	1.000000	0.000036	0.000014	0.000012	-0.870358	-77.116769	-6.751762
02094	9.596035	-0.032676	2.182035	0.012436	-0.000883	0.028353	1.000000	0.000030	0.000022	0.000019	-0.873578	-77.116512	-6.748615
02095	9.620764	-0.019984	2.202675	-0.000354	0.013794	0.057018	1.000000	0.000026	0.000018	0.000014	-0.874302	-77.116798	-6.748124
02096	9.614068	-0.017033	2.179724	0.020695	0.013970	0.045364	1.000000	0.000040	0.000017	0.000017	-0.875629	-77.117058	-6.745782
02097	9.602371	-0.036300	2.206547	-0.010257	-0.001299	0.040007	1.000000	0.000019	0.000033	0.000015	-0.877637	-77.115600	-6.744889
02098	9.635356	-0.038793	2.197219	0.005725	-0.005660	0.070090	1.000000	0.000058	0.000003	0.000032	-0.884640	-77.117448	-6.734677
02099	9.595587	-0.033677	2.183987	0.010361	-0.001192	0.028355	1.000000	0.000013	0.000036	0.000004	-0.881729	-77.115757	-6.739229
02100	9.613680	-0.017737	2.181429	0.019039	0.013726	0.045368	1.000000	0.000021	0.000014	0.000008	-0.880765	-77.116421	-6.741427
02101	9.635053	-0.039168	2.198539	0.004457	-0.005847	0.070091	1.000000	0.000033	0.000033	0.000018	-0.882935	-77.115073	-6.738527
02102	9.608482	-0.040234	2.231999	-0.033783	-0.001809	0.051654	1.000000	0.000040	0.000017	0.000017	-0.884263	-77.115334	-6.736182
02103	9.613390	-0.018213	2.182706	0.017787	0.013533	0.045370	1.000000	0.000026	0.000018	0.000014	-0.884868	-77.115637	-6.735649
02104	9.595090	-0.034291	2.186160	0.008301	-0.001490	0.028357	1.000000	0.000024	0.000025	0.000008	-0.883256	-77.115076	-6.738174
02105	9.637983	-0.005557	2.203925	0.004588	0.028165	0.074032	1.000000	0.000047	0.000032	0.000022	-0.885702	-77.113753	-6.733412
02106	9.594887	-0.034579	2.187047	0.007475	-0.001607	0.028358	1.000000	0.000033	0.000003	0.000013	-0.885587	-77.115701	-6.733410
02107	9.604751	-0.003552	2.214301	-0.012595	0.032360	0.043944	1.000000	0.000027	0.000036	0.000007	-0.882859	-77.113931	-6.736608
02108	9.621138	-0.033809	2.155031	0.044492	-0.005839	0.046805	1.000000	0.000024	0.000025	0.000008	-0.881247	-77.113371	-6.739133
02109	9.601178	-0.037863	2.211706	-0.015203	-0.002012	0.040001	1.000000	0.000040	0.000017	0.000017	-0.882206	-77.113652	-6.737290
02110	9.630892	-0.002966	2.182766	0.024021	0.028077	0.062392	1.000000	0.000029	0.000029	0.000013	-0.882686	-77.112632	-6.737142
02111	9.594344	-0.034960	2.189422	0.005430	-0.001919	0.028359	1.000000	0.000051	0.000030	0.000009	-0.878331	-77.111519	-6.738899
02112	9.627276	-0.037265	2.180381	0.021391	-0.006299	0.058452	1.000000	0.000005	0.000034	0.000011	-0.880500	-77.109926	-6.739819
02113	9.585842	-0.020011	2.220371	-0.024126	0.017046	0.026923	1.000000	0.000045	0.000009	0.000010	-0.877511	-77.111223	-6.741123
02114	9.600644	-0.038289	2.214018	-0.017252	-0.002296	0.039997	1.000000	0.000026	0.000018	0.000014	-0.878639	-77.111430	-6.740645
02115	9.612189	-0.019348	2.187976	0.012885	0.012804	0.045379	1.000000	0.000036	0.000014	0.000012	-0.877511	-77.112181	-6.741334
02116	9.630327	-0.003400	2.185259	0.021568	0.027711	0.062399	1.000000	0.000034	0.000020	0.000006	-0.874010	-77.112138	-6.744658
02117	9.618615	-0.022550	2.212015	-0.009393	0.012479	0.057015	1.000000	0.000030	0.000022	0.000019	-0.876806	-77.111930	-6.741841
02118	9.611940	-0.019756	2.189069	0.011666	0.012627	0.045380	1.000000	0.000032	0.000015	0.000025	-0.882766	-77.112442	-6.735688
02119	9.611865	-0.019993	2.189394	0.011248	0.012562	0.045381	1.000000	0.000012	0.000019	0.000010	-0.883338	-77.112668	-6.737201
02120	9.611786	-0.020143	2.189741	0.010845	0.012508	0.045382	1.000000	0.000040	0.000017	0.000017	-0.884670	-77.112932	-6.734849
02121	9.596850	-0.001956	2.196670	0.003177	0.031735	0.032305	1.000000	0.000030	0.000016	0.000001	-0.878718	-77.113351	-6.741381
02122	9.651287	-0.025453	2.204121	0.004922	0.007852	0.087113	1.000000	0.000039	0.000024	0.000012	-0.877309	-77.112850	-6.742032
02123	9.611535	-0.020333	2.190840	0.009626	0.012317	0.045383	1.000000	0.000032	0.000015	0.000025	-0.882823	-77.113399	-6.736136
02124	9.614818	0.013605	2.194710	0.011053	0.046515	0.049330	1.000000	0.000026	0.000018	0.000014	-0.883951	-77.113606	-6.735656
02125	9.604821	-0.017672	2.168091	0.030285	0.012386	0.033756	1.000000	0.000037	0.000007	0.000018	-0.885553	-77.115089	-6.733436
02126	9.636150	-0.007914	2.211922	-0.003962	0.026905	0.074036	1.000000	0.000034	0.000020	0.000006	-0.882051	-77.115048	-6.736759
02127	9.619542	-0.036115	2.162108	0.036717	-0.007038	0.046836	1.000000	0.000018	0.000016	0.000021	-0.887368	-77.115580	-6.732601
02128	9.626056	-0.039292	2.185723	0.014845	-0.007280	0.058463	1.000000	0.000044	0.000016	0.000005	-0.881979	-77.116057	-6.736723
02129	9.611139	-0.021155	2.192569	0.007190	0.011951	0.045386	1.000000	0.000042	0.000011	0.000023	-0.885694	-77.117086	-6.731947
02130	9.625947	-0.039625	2.186199	0.014033	-0.007402	0.058464	1.000000	0.000013	0.000012	0.000016	-0.889361	-77.118001	-6.730337
02131	9.617580	-0.024652	2.216487	-0.015091	0.011643	0.057009	1.000000	0.000029	0.000029	0.000013	-0.889346	-77.117003	-6.730682
02132	9.610887	-0.021772	2.193665	0.005975	0.011772	0.045387	1.000000	0.000030	0.000022	0.000019	-0.892566	-77.116751	-6.727527
02133	9.607412	-0.056135	2.190616	0.003703	-0.022539	0.041438	1.000000	0.000043	0.000028	0.000017	-0.892986	-77.115893	-6.725341
02134	9.610670	-0.022008	2.194615	0.005150	0.011657	0.045387	1.000000	0.000034	0.000020	0.000006	-0.889484	-77.115853	-6.728662
02135	9.595729	-0.003846	2.201562	-0.002506	0.030892	0.032308	1.000000	0.000026	0.000018	0.000014	-0.890182	-77.116139	-6.728301
02136	9.625369	-0.040197	2.188732	0.011564	-0.007768	0.058467	1.000000	0.000044	0.000016	-0.000007	-0.878657	-77.116669	-6.738649
02137	9.603813	-0.019042	2.172537	0.025379	0.011640	0.033770	1.000000	0.000016	0.000041	0.000033	-0.890168	-77.114322	-6.728217
02138	9.618557	-0.037560	2.166460	0.032209	-0.007719	0.046851	1.000000	0.000029	0.000011	0.000007	-0.887807	-77.115374	-6.730999
02139	9.610174	-0.022404	2.196782	0.003082	0.011347	0.045388	1.000000	0.000043	0.000034	0.000011	-0.885171	-77.113812	-6.732075
02140	9.603472	-0.019403	2.174042	0.024152	0.011464	0.033774	1.000000	0.000036	0.000025	0.000012	-0.884179	-77.113199	-6.732545
02141	9.624796	-0.040822	2.191239	0.009504	-0.008081	0.058469	1.000000	0.000032	0.000021	0.000019	-0.886744	-77.113003	-6.730132
02142	9.588413	-0.001467	2.181501	0.016123	0.030647	0.020695	1.000000	0.000036	0.000025	0.000012	-0.885755	-77.112390	-6.730600
02143	9.624577	-0.040933	2.192199	0.008686	-0.008201	0.058470	1.000000	0.000018	0.000028	-0.000003	-0.878935	-77.111561	-6.739159
02144	9.621280	-0.003951	2.172839	0.031630	0.026159	0.050811	1.000000	0.000025	0.000019	0.000038	-0.892397	-77.111650	-6.726195
02145	9.609495	-0.023067	2.199744	0.000651	0.010986	0.045389	1.000000	0.000050	0.000037	-0.000008	-0.879251	-77.109747	-6.737585
02146	9.609390	-0.022883	2.200205	0.000248	0.010933	0.045389	1.000000	0.000029	0.000011	0.000007	-0.876896	-77.110799	-6.740362
02147	9.602778	-0.019874	2.177102	0.021317	0.011027	0.033781	1.000000	0.000040	0.000012	0.000011	-0.874919	-77.111767	-6.741462
02148	9.609249	-0.023004	2.200818	-0.000563	0.010813	0.045390	1.000000	0.000027	0.000030	0.000014	-0.875817	-77.110636	-6.741132
02149	9.609128	-0.023110	2.201347	-0.000988	0.010750	0.045390	1.000000	0.000036	0.000025	0.000012	-0.874525	-77.110141	-6.741470
02150	9.609016	-0.023180	2.201833	-0.001391	0.010697	0.045390	1.000000	0.000036	0.000025	0.000012	-0.873542	-77.109528	-6.741933
02151	9.602370	-0.020115	2.178897	0.019661	0.010790	0.033785	1.000000	0.000033	0.000015	0.000000	-0.866930	-77.110272	-6.748092
02152	9.620528	-0.004411	2.176165	0.028354	0.025671	0.050822	1.000000	0.000025	0.000019	0.000038	-0.880397	-77.110359	-6.735126
02153	9.641864	-0.025936	2.193271	0.013668	0.006135	0.075509	1.000000	0.000044	0.000015	0.000005	-0.874454	-77.110917	-6.739672
02154	9.583885	-0.036724	2.183058	0.009346	-0.004322	0.016750	1.000000	0.000035	0.000032	0.000030	-0.882708	-77.109514	-6.730808
02155	9.595441	-0.017986	2.157222	0.039498	0.010697	0.022186	1.000000	0.000025	0.000024	0.000008	-0.880590	-77.109126	-6.733294
02156	9.590212	-0.040113	2.207363	-0.012965	-0.004589	0.028351	1.000000	0.000032	0.000021	0.000019	-0.883544	-77.108950	-6.730247
02157	9.626590	-0.008317	2.201651	0.004806	0.025209	0.062428	1.000000	0.000035	0.000020	0.000006	-0.879519	-77.109061	-6.733609
02158	9.608282	-0.024392	2.205023	-0.004695	0.010225	0.045389	1.000000	0.000037	0.000013	0.000024	-0.884527	-77.109841	-6.727847
02159	9.601669	-0.021562	2.181970	0.016368	0.010306	0.033791	1.000000	0.000019	0.000015	0.000009	-0.883719	-77.110462	-6.729915
02160	9.626380	-0.008996	2.202566	0.003580	0.025037	0.062429	1.000000	0.000025	0.000019	0.000038	-0.897193	-77.110548	-6.716944
02161	9.614584	-0.028228	2.229408	-0.027411	0.009901	0.056985	1.000000	0.000041	0.000029	0.000005	-0.891960	-77.109521	-6.721279
02162	9.619666	-0.006235	2.179969	0.024253	0.025060	0.050834	1.000000	0.000055	-0.000001	0.000015	-0.890566	-77.111950	-6.720001
