// Start Time: Unknown
// Update Rate: 100.0Hz
// Filter Profile: human (46.1)
// Firmware Version: 4.4.0
PacketCounter	Acc_X	Acc_Y	Acc_Z	FreeAcc_X	FreeAcc_Y	FreeAcc_Z	OriInc_q0	OriInc_q1	OriInc_q2	OriInc_q3	Roll	Pitch	Yaw
33093	9.586040	0.007504	2.282999	-0.000000	0.000000	0.041465	1.000000	0.000034	0.000017	0.000013	0.189575	-76.604977	-11.923585
33094	9.549363	-0.039937	2.284424	0.000000	0.000000	0.006198	1.000000	0.000023	0.000015	0.000017	-0.998742	-76.545262	-10.010935
33095	9.575634	-0.010320	2.270099	0.015720	0.002693	0.028348	1.000000	0.000031	0.000013	0.000004	-0.401740	-76.575377	-10.964714
33096	9.559490	-0.022528	2.298491	-0.017083	-0.003087	0.019256	1.000000	0.000037	0.000022	0.000023	-0.408401	-76.572889	-10.953549
33097	9.559377	-0.022831	2.298956	-0.016999	-0.003149	0.019256	1.000000	0.000025	0.000027	0.000024	-0.415710	-76.569232	-10.942415
33098	9.575344	-0.010945	2.271320	0.015804	0.002631	0.028347	1.000000	0.000034	0.000017	0.000013	-0.418091	-76.567243	-10.935956
33099	9.564056	0.010749	2.295914	-0.005581	0.029214	0.023045	1.000000	0.000030	0.000018	0.000020	-0.424271	-76.565150	-10.926088
33100	9.602041	-0.031943	2.278594	0.011690	-0.017577	0.056039	1.000000	0.000040	0.000029	0.000012	-0.425590	-76.561848	-10.920044
33101	9.580481	-0.027831	2.289722	-0.002657	-0.010368	0.037647	1.000000	0.000024	0.000007	0.000021	-0.432690	-76.561077	-10.909898
33102	9.574611	-0.022619	2.331518	-0.042500	0.003221	0.041645	1.000000	0.000037	0.000022	0.000023	-0.439332	-76.558587	-10.898753
33103	9.574920	-0.011861	2.273101	0.015826	0.002626	0.028347	1.000000	0.000019	0.000018	0.000005	-0.439326	-76.556338	-10.896483
33104	9.611981	-0.015081	2.293442	0.004672	0.001787	0.069127	1.000000	0.000037	0.000022	0.000023	-0.445961	-76.553847	-10.885343
33105	9.574748	-0.012169	2.273824	0.015835	0.002622	0.028347	1.000000	0.000027	0.000014	0.000011	-0.447804	-76.552203	-10.880236
33106	9.564004	-0.040714	2.319430	-0.035426	-0.016152	0.028556	1.000000	0.000027	0.000014	0.000011	-0.449697	-76.550610	-10.875080
33107	9.579994	-0.028685	2.291745	-0.002598	-0.010363	0.037647	1.000000	0.000033	0.000025	0.000010	-0.450858	-76.547567	-10.870018
33108	9.595951	-0.016725	2.264211	0.030205	-0.004583	0.046739	1.000000	0.000036	0.000030	0.000019	-0.455948	-76.544160	-10.860591
33109	9.568537	-0.007110	2.317012	-0.023986	0.016243	0.032345	1.000000	0.000022	0.000023	0.000014	-0.460656	-76.541595	-10.853194
33110	9.579652	-0.029080	2.293169	-0.002601	-0.010339	0.037647	1.000000	0.000019	0.000018	0.000005	-0.460537	-76.539485	-10.851034
33111	9.574195	-0.012782	2.276149	0.015885	0.002671	0.028347	1.000000	0.000035	0.000009	0.000017	-0.464951	-76.538268	-10.842385
33112	9.579506	-0.029330	2.293776	-0.002573	-0.010323	0.037647	1.000000	0.000029	0.000026	0.000017	-0.469558	-76.535259	-10.834256
33113	9.573994	-0.013145	2.276990	0.015895	0.002696	0.028347	1.000000	0.000029	0.000026	0.000017	-0.474834	-76.532218	-10.825480
33114	9.579301	-0.029767	2.294627	-0.002563	-0.010298	0.037647	1.000000	0.000031	0.000010	0.000024	-0.482505	-76.531037	-10.813951
33115	9.562635	0.008223	2.301836	-0.005500	0.029315	0.023044	1.000000	0.000030	0.000018	0.000020	-0.489471	-76.529041	-10.803332
33116	9.595202	-0.018178	2.267373	0.030229	-0.004482	0.046739	1.000000	0.000035	0.000038	0.000016	-0.492999	-76.524718	-10.795635
33117	9.583881	0.003617	2.292058	0.008792	0.022100	0.041436	1.000000	0.000020	0.000010	0.000008	-0.494141	-76.523827	-10.792055
33118	9.573552	-0.014120	2.278843	0.015832	0.002731	0.028347	1.000000	0.000023	0.000015	0.000017	-0.499799	-76.522132	-10.783525
33119	9.594961	-0.018795	2.268389	0.030108	-0.004520	0.046739	1.000000	0.000040	0.000018	0.000036	-0.510954	-76.520396	-10.767277
33120	9.594870	-0.019056	2.268771	0.030108	-0.004519	0.046739	1.000000	0.000026	0.000022	0.000007	-0.511294	-76.517887	-10.763845
33121	9.573297	-0.014802	2.279912	0.015600	0.002674	0.028348	1.000000	0.000034	0.000017	0.000013	-0.512361	-76.516805	-10.758703
33122	9.562945	-0.032495	2.266792	0.022641	-0.016695	0.015259	1.000000	0.000034	0.000017	0.000013	-0.514706	-76.514812	-10.752282
33123	9.573126	-0.015033	2.280627	0.015403	0.002679	0.028348	1.000000	0.000022	0.000023	0.000014	-0.518038	-76.513329	-10.746308
33124	9.578386	-0.031510	2.298421	-0.003055	-0.010314	0.037647	1.000000	0.000040	0.000029	0.000012	-0.519318	-76.510017	-10.740307
33125	9.588567	-0.013970	2.312248	-0.010301	0.009057	0.050735	1.000000	0.000020	0.000010	0.000008	-0.519817	-76.509988	-10.737179
33126	9.572841	-0.015518	2.281818	0.015201	0.002682	0.028348	1.000000	0.000028	0.000023	0.000037	-0.533960	-76.507272	-10.719313
33127	9.567380	0.000443	2.264878	0.033435	0.015677	0.019050	1.000000	0.000023	0.000015	0.000017	-0.538579	-76.506864	-10.711927
33128	9.582951	0.001439	2.295946	0.007935	0.022053	0.041437	1.000000	0.000030	0.000018	0.000020	-0.544700	-76.504756	-10.702121
33129	9.572615	-0.016361	2.282761	0.014665	0.002616	0.028349	1.000000	0.000035	0.000009	0.000017	-0.545455	-76.505393	-10.697055
33130	9.577912	-0.032884	2.300375	-0.003794	-0.010378	0.037647	1.000000	0.000022	0.000023	0.000014	-0.549569	-76.502774	-10.690241
33131	9.609577	-0.019820	2.303460	0.003232	0.001729	0.069128	1.000000	0.000030	0.000018	0.000020	-0.553227	-76.502184	-10.682892
33132	9.572376	-0.016821	2.283758	0.014393	0.002569	0.028350	1.000000	0.000031	0.000013	0.000004	-0.551327	-76.500688	-10.681147
33133	9.593798	-0.021429	2.273277	0.028478	-0.004719	0.046744	1.000000	0.000029	0.000015	0.000040	-0.563957	-76.500279	-10.664203
33134	9.599135	-0.038126	2.290709	0.010019	-0.017714	0.056040	1.000000	0.000034	-0.000003	0.000010	-0.565117	-76.500608	-10.659052
33135	9.577140	0.016475	2.280491	0.025197	0.034839	0.032142	1.000000	0.000033	0.000025	0.000010	-0.563777	-76.499728	-10.656319
33136	9.572125	-0.017557	2.284804	0.013781	0.002476	0.028351	1.000000	0.000041	0.000021	0.000016	-0.566551	-76.497330	-10.648645
33137	9.572046	-0.017654	2.285136	0.013417	0.002402	0.028351	1.000000	0.000027	0.000014	0.000011	-0.564929	-76.497737	-10.646908
33138	9.555846	-0.029834	2.313508	-0.019383	-0.003378	0.019252	1.000000	0.000030	0.000018	0.000020	-0.571013	-76.495633	-10.637131
33139	9.603653	-0.004724	2.288477	0.020460	0.014506	0.059834	1.000000	0.000034	0.000017	0.000013	-0.570934	-76.495022	-10.633358
33140	9.571837	-0.018108	2.286006	0.013166	0.002351	0.028351	1.000000	0.000028	0.000006	0.000014	-0.574337	-76.494329	-10.626526
33141	9.560529	0.003627	2.310580	-0.008572	0.028831	0.023044	1.000000	0.000024	0.000035	0.000020	-0.576941	-76.492212	-10.620529
33142	9.603368	-0.005211	2.289671	0.020108	0.014402	0.059835	1.000000	0.000033	0.000025	0.000010	-0.577707	-76.489292	-10.615846
33143	9.587147	-0.017198	2.318104	-0.013084	0.008441	0.050733	1.000000	0.000031	0.000013	0.000004	-0.569521	-76.489845	-10.619524
33144	9.581730	-0.000977	2.301035	0.005378	0.021434	0.041440	1.000000	0.000038	0.000014	0.000026	-0.577570	-76.488253	-10.606783
33145	9.603136	-0.005569	2.290643	0.019216	0.014042	0.059837	1.000000	0.000022	0.000023	0.000014	-0.575019	-76.488328	-10.606431
33146	9.571274	-0.018897	2.288357	0.011920	0.001888	0.028353	1.000000	0.000045	0.000020	0.000009	-0.573963	-76.486060	-10.602183
33147	9.549686	-0.014616	2.299503	-0.002732	0.008888	0.009957	1.000000	0.000022	0.000023	0.000014	-0.571283	-76.485021	-10.601362
33148	9.576441	-0.035506	2.306454	-0.006862	-0.011325	0.037644	1.000000	0.000023	0.000015	0.000017	-0.576822	-76.483342	-10.592920
33149	9.592507	-0.023674	2.278696	0.025710	-0.005691	0.046751	1.000000	0.000034	0.000017	0.000013	-0.574532	-76.482482	-10.591360
33150	9.587089	-0.007345	2.261656	0.044168	0.007302	0.037461	1.000000	0.000031	0.000013	0.000004	-0.572540	-76.481014	-10.589675
33151	9.554719	-0.031573	2.318138	-0.021726	-0.004365	0.019246	1.000000	0.000028	0.000023	0.000037	-0.582629	-76.479879	-10.576559
33152	9.565414	-0.003462	2.273163	0.029532	0.014409	0.019065	1.000000	0.000030	0.000021	0.000000	-0.579125	-76.477494	-10.576567
33153	9.580944	-0.002248	2.304303	0.003537	0.020650	0.041442	1.000000	0.000030	0.000018	0.000020	-0.579793	-76.478048	-10.572412
33154	9.570591	-0.019955	2.291205	0.010577	0.001283	0.028355	1.000000	0.000038	0.000016	0.000006	-0.578287	-76.476200	-10.569444
33155	9.565168	-0.003714	2.274200	0.028723	0.014102	0.019068	1.000000	0.000030	0.000018	0.000020	-0.578567	-76.475724	-10.565072
33156	9.559175	0.001884	2.316179	-0.011131	0.027690	0.023044	1.000000	0.000036	0.000032	-0.000001	-0.573968	-76.472051	-10.565528
33157	9.591790	-0.024387	2.281708	0.024260	-0.006348	0.046754	1.000000	0.000020	0.000010	0.000008	-0.568016	-76.472466	-10.568134
33158	9.570238	-0.020171	2.292675	0.009917	0.000867	0.028355	1.000000	0.000023	0.000015	0.000017	-0.573549	-76.470813	-10.559708
33159	9.596607	0.009070	2.278281	0.035133	0.025843	0.050558	1.000000	0.000027	0.000011	0.000030	-0.578319	-76.472407	-10.551363
33160	9.570104	-0.020677	2.293230	0.009371	0.000696	0.028356	1.000000	0.000030	0.000021	0.000000	-0.574756	-76.470081	-10.551422
33161	9.564140	-0.015002	2.335057	-0.030651	0.014084	0.032330	1.000000	0.000027	0.000014	0.000011	-0.570901	-76.469253	-10.551688
33162	9.585562	-0.019451	2.324634	-0.016329	0.006865	0.050729	1.000000	0.000034	0.000017	0.000013	-0.573110	-76.467316	-10.545377
33163	9.554245	-0.022087	2.263503	0.034382	-0.006017	0.005984	1.000000	0.000033	0.000025	0.000010	-0.568974	-76.466086	-10.546534
33164	9.601498	-0.007597	2.297495	0.016136	0.012501	0.059845	1.000000	0.000040	0.000029	0.000012	-0.570120	-76.462847	-10.540651
33165	9.548143	-0.016534	2.305887	-0.005922	0.007559	0.009956	1.000000	0.000020	0.000010	0.000008	-0.569238	-76.464206	-10.542312
33166	9.569577	-0.021028	2.295425	0.008393	0.000344	0.028357	1.000000	0.000049	0.000016	0.000022	-0.574003	-76.462417	-10.531704
33167	9.569501	-0.021391	2.295739	0.007918	0.000229	0.028357	1.000000	0.000015	0.000016	0.000031	-0.582180	-76.463114	-10.522357
33168	9.574359	0.012229	2.292162	0.019316	0.032595	0.032163	1.000000	0.000041	0.000021	0.000016	-0.584960	-76.460832	-10.514731
33169	9.574663	-0.038135	2.313783	-0.011209	-0.012819	0.037638	1.000000	0.000027	0.000014	0.000011	-0.582506	-76.462875	-10.516223
33170	9.585432	-0.009949	2.268659	0.040028	0.005957	0.037479	1.000000	0.000034	0.000017	0.000013	-0.584869	-76.461036	-10.509864
33171	9.585361	-0.010037	2.268958	0.039837	0.005877	0.037480	1.000000	0.000027	0.000014	0.000011	-0.583958	-76.460442	-10.509292
33172	9.575020	-0.027888	2.255824	0.046861	-0.013479	0.024393	1.000000	0.000019	0.000016	0.000024	-0.593442	-76.458782	-10.497431
33173	9.569037	-0.022333	2.297661	0.007027	-0.000110	0.028358	1.000000	0.000030	0.000021	0.000000	-0.584499	-76.456042	-10.501467
33174	9.590473	-0.026839	2.287208	0.021335	-0.007323	0.046760	1.000000	0.000039	0.000006	0.000030	-0.594197	-76.455480	-10.487016
33175	9.579178	-0.005048	2.311630	-0.000688	0.019251	0.041446	1.000000	0.000033	0.000025	0.000010	-0.591708	-76.456286	-10.487458
33176	9.558520	-0.040443	2.285253	0.013387	-0.019472	0.015271	1.000000	0.000037	0.000022	0.000023	-0.598346	-76.453932	-10.476424
33177	9.573658	0.010863	2.295098	0.017730	0.032158	0.032168	1.000000	0.000030	0.000018	0.000020	-0.601921	-76.451844	-10.469664
33178	9.590116	-0.027711	2.288693	0.020616	-0.007413	0.046762	1.000000	0.000030	0.000018	0.000020	-0.608128	-76.449858	-10.459883
33179	9.563219	-0.007180	2.282373	0.023984	0.012614	0.019082	1.000000	0.000034	0.000017	0.000013	-0.602214	-76.452150	-10.459844
33180	9.606119	-0.016025	2.261375	0.052605	-0.001821	0.055891	1.000000	0.000033	0.000025	0.000010	-0.603046	-76.449401	-10.455196
33181	9.578613	-0.006001	2.313969	-0.001723	0.018884	0.041446	1.000000	0.000034	0.000017	0.000013	-0.601901	-76.448173	-10.452531
33182	9.574139	-0.029432	2.259540	0.045149	-0.014067	0.024400	1.000000	0.000021	0.000031	0.000011	-0.604508	-76.444788	-10.447483
33183	9.562814	-0.007431	2.284069	0.023025	0.012429	0.019085	1.000000	0.000032	0.000013	0.000004	-0.596915	-76.447532	-10.451404
33184	9.573373	-0.040254	2.319077	-0.013949	-0.013550	0.037634	1.000000	0.000034	0.000015	0.000033	-0.608799	-76.446017	-10.435336
33185	9.584160	-0.012286	2.274016	0.036937	0.005253	0.037492	1.000000	0.000033	0.000025	0.000010	-0.608808	-76.445319	-10.434179
33186	9.556615	-0.002295	2.326718	-0.017261	0.026084	0.023040	1.000000	0.000036	0.000030	0.000019	-0.613897	-76.442091	-10.424880
33187	9.599504	-0.011392	2.305794	0.010583	0.011563	0.059853	1.000000	0.000026	0.000019	0.000027	-0.618253	-76.444397	-10.417519
33188	9.567652	-0.024859	2.303399	0.003276	-0.000568	0.028360	1.000000	0.000027	0.000014	0.000011	-0.620196	-76.443037	-10.412445
33189	9.567571	-0.024829	2.303734	0.002809	-0.000698	0.028360	1.000000	0.000030	0.000021	0.000000	-0.611402	-76.443180	-10.417144
33190	9.583699	-0.012936	2.275954	0.035559	0.005084	0.037497	1.000000	0.000035	0.000009	0.000017	-0.615323	-76.442345	-10.409103
33191	9.567436	-0.024914	2.304293	0.002645	-0.000912	0.028360	1.000000	0.000019	0.000018	0.000004	-0.609028	-76.440676	-10.410716
33192	9.567370	-0.025191	2.304566	0.002606	-0.000902	0.028360	1.000000	0.000041	0.000010	0.000039	-0.622872	-76.439722	-10.391707
33193	9.567314	-0.025508	2.304796	0.002539	-0.000952	0.028360	1.000000	0.000027	0.000014	0.000011	-0.623205	-76.438429	-10.389135
33194	9.583436	-0.013709	2.277056	0.035295	0.004829	0.037498	1.000000	0.000041	0.000021	0.000016	-0.626021	-76.436241	-10.381534
33195	9.588653	-0.030182	2.294783	0.016224	-0.008396	0.046769	1.000000	0.000023	0.000015	0.000017	-0.623180	-76.437728	-10.378198
33196	9.561772	-0.009569	2.288417	0.020340	0.011831	0.019091	1.000000	0.000045	0.000020	0.000009	-0.622155	-76.435673	-10.374017
33197	9.577258	-0.008263	2.319561	-0.005456	0.018084	0.041447	1.000000	0.000034	0.000017	0.000013	-0.620346	-76.435067	-10.371041
33198	9.572854	-0.031772	2.264948	0.041407	-0.014867	0.024415	1.000000	0.000035	0.000009	0.000017	-0.624155	-76.434216	-10.363058
33199	9.577771	0.002081	2.261221	0.052247	0.017636	0.028236	1.000000	0.000019	0.000018	0.000004	-0.625038	-76.435595	-10.364281
33200	9.566763	-0.026228	2.307071	0.000937	-0.001116	0.028360	1.000000	0.000037	0.000022	0.000023	-0.631577	-76.433349	-10.353349
33201	9.582882	-0.014606	2.279380	0.033286	0.004719	0.037505	1.000000	0.000030	0.000018	0.000020	-0.637288	-76.433852	-10.346886
33202	9.561294	-0.010436	2.290410	0.018925	0.011957	0.019094	1.000000	0.000030	0.000018	0.000020	-0.643418	-76.432020	-10.337206
33203	9.561184	-0.010662	2.290869	0.017747	0.011864	0.019096	1.000000	0.000036	0.000030	0.000019	-0.640752	-76.435326	-10.334467
33204	9.587867	-0.031476	2.298049	0.013522	-0.008340	0.046773	1.000000	0.000019	0.000018	0.000004	-0.640613	-76.433565	-10.332458
33205	9.576554	-0.009462	2.322462	-0.009077	0.018514	0.041443	1.000000	0.000034	0.000017	0.000013	-0.643859	-76.438957	-10.331404
33206	9.582436	-0.015358	2.281252	0.030697	0.004930	0.037513	1.000000	0.000035	0.000009	0.000017	-0.647787	-76.438298	-10.323417
33207	9.576436	-0.009777	2.322950	-0.009452	0.018679	0.041442	1.000000	0.000023	0.000015	0.000017	-0.655628	-76.438482	-10.317586
33208	9.577315	-0.049642	2.285803	0.018895	-0.027262	0.033694	1.000000	0.000034	0.000017	0.000013	-0.658089	-76.436913	-10.311273
33209	9.560728	-0.011374	2.292765	0.015517	0.012222	0.019100	1.000000	0.000027	0.000014	0.000011	-0.655226	-76.438067	-10.310027
33210	9.582187	-0.015985	2.282290	0.029748	0.005016	0.037516	1.000000	0.000024	0.000007	0.000021	-0.662517	-76.437720	-10.299918
33211	9.570908	0.005826	2.306557	0.007914	0.031842	0.032181	1.000000	0.000023	0.000015	0.000017	-0.671722	-76.438985	-10.294211
33212	9.571813	-0.034068	2.269308	0.036251	-0.014098	0.024437	1.000000	0.000028	0.000006	0.000014	-0.675351	-76.438766	-10.287424
33213	9.570791	0.005510	2.307042	0.007933	0.032159	0.032180	1.000000	0.000048	0.000024	0.000018	-0.686216	-76.435713	-10.279292
33214	9.608721	-0.037311	2.290084	0.025033	-0.014622	0.065195	1.000000	0.000032	0.000013	0.000004	-0.684686	-76.434665	-10.277504
33215	9.560336	-0.012292	2.294397	0.014089	0.012906	0.019101	1.000000	0.000025	0.000027	0.000024	-0.691371	-76.436387	-10.270662
33216	9.586740	0.016904	2.280139	0.039746	0.038062	0.041341	1.000000	0.000030	0.000018	0.000020	-0.697821	-76.434760	-10.260879
33217	9.565422	-0.029110	2.312592	-0.004550	-0.000004	0.028359	1.000000	0.000030	0.000018	0.000020	-0.704514	-76.433078	-10.253769
33218	9.581553	-0.017485	2.284942	0.028163	0.005781	0.037520	1.000000	0.000029	0.000026	0.000017	-0.709463	-76.430521	-10.245677
33219	9.581461	-0.017617	2.285327	0.027824	0.005721	0.037521	1.000000	0.000027	0.000014	0.000011	-0.708306	-76.430801	-10.244258
33220	9.565123	-0.029595	2.313823	-0.005041	0.000006	0.028359	1.000000	0.000036	0.000030	0.000019	-0.713702	-76.427844	-10.234905
33221	9.591546	-0.000245	2.299513	0.020717	0.025167	0.050600	1.000000	0.000020	0.000010	0.000008	-0.716180	-76.426546	-10.233224
33222	9.570933	-0.035680	2.272992	0.034746	-0.013541	0.024443	1.000000	0.000023	0.000015	0.000017	-0.722289	-76.425281	-10.224644
33223	9.570853	-0.035776	2.273327	0.034667	-0.013600	0.024443	1.000000	0.000045	0.000020	0.000009	-0.719468	-76.423354	-10.223082
33224	9.581043	-0.018236	2.287074	0.027547	0.005809	0.037522	1.000000	0.000030	0.000018	0.000020	-0.726037	-76.421671	-10.213229
33225	9.585956	0.015620	2.283442	0.039421	0.038491	0.041341	1.000000	0.000037	0.000024	0.000003	-0.733211	-76.416717	-10.211371
33226	9.602359	-0.022740	2.277231	0.042213	-0.001051	0.055941	1.000000	0.000034	0.000017	0.000013	-0.736192	-76.415096	-10.204781
33227	9.575487	-0.002086	2.270873	0.045696	0.019389	0.028266	1.000000	0.000033	0.000025	0.000010	-0.739543	-76.416538	-10.203754
33228	9.580676	-0.018519	2.288606	0.027137	0.006461	0.037523	1.000000	0.000024	0.000007	0.000021	-0.747456	-76.416150	-10.193316
33229	9.559060	-0.014233	2.299695	0.011011	0.013914	0.019104	1.000000	0.000020	0.000039	0.000007	-0.745628	-76.422537	-10.196795
33230	9.580433	-0.018842	2.289624	0.025220	0.006727	0.037528	1.000000	0.000037	0.000022	0.000023	-0.752879	-76.420543	-10.185585
33231	9.548548	-0.032153	2.287299	0.017524	-0.005347	0.006029	1.000000	0.000045	0.000020	0.000009	-0.751493	-76.420913	-10.184243
33232	9.590542	-0.001517	2.303697	0.017637	0.026221	0.050604	1.000000	0.000027	0.000011	0.000030	-0.763640	-76.420134	-10.169199
33233	9.553654	-0.048990	2.305345	-0.001819	-0.018427	0.015282	1.000000	0.000037	0.000022	0.000023	-0.762756	-76.421834	-10.163502
33234	9.606622	0.009708	2.276360	0.049571	0.031845	0.059780	1.000000	0.000022	0.000023	0.000014	-0.767535	-76.419772	-10.156568
33235	9.580012	-0.019910	2.291375	0.023554	0.006659	0.037532	1.000000	0.000035	0.000009	0.000017	-0.768300	-76.420178	-10.152230
33236	9.548141	-0.033196	2.288983	0.016224	-0.005432	0.006031	1.000000	0.000033	0.000025	0.000010	-0.769768	-76.417820	-10.147398
33237	9.590110	-0.002417	2.305490	0.015615	0.026267	0.050607	1.000000	0.000034	0.000017	0.000013	-0.772983	-76.420626	-10.144973
33238	9.584993	-0.036513	2.309934	0.004066	-0.006027	0.046783	1.000000	0.000037	0.000022	0.000023	-0.780247	-76.418701	-10.133782
33239	9.601185	-0.024930	2.282155	0.036407	-0.000453	0.055964	1.000000	0.000035	0.000009	0.000017	-0.778200	-76.419993	-10.129844
33240	9.558102	-0.016111	2.303659	0.007742	0.014072	0.019107	1.000000	0.000027	0.000014	0.000011	-0.780789	-76.418989	-10.124557
33241	9.579526	-0.020635	2.293397	0.021035	0.007090	0.037537	1.000000	0.000033	0.000025	0.000010	-0.783455	-76.422055	-10.123918
33242	9.579407	-0.020745	2.293893	0.020931	0.007144	0.037538	1.000000	0.000029	0.000026	0.000017	-0.788729	-76.419675	-10.115726
33243	9.579305	-0.020961	2.294320	0.020196	0.007479	0.037539	1.000000	0.000030	0.000018	0.000020	-0.799814	-76.422145	-10.109331
33244	9.579230	-0.021123	2.294629	0.020087	0.007537	0.037539	1.000000	0.000027	0.000014	0.000011	-0.802543	-76.421220	-10.103994
33245	9.579154	-0.021360	2.294947	0.019671	0.007544	0.037540	1.000000	0.000026	0.000019	0.000027	-0.810633	-76.421378	-10.094363
33246	9.595322	-0.009951	2.267311	0.052347	0.013325	0.046729	1.000000	0.000025	0.000027	0.000024	-0.819748	-76.418922	-10.082779
33247	9.568675	-0.039518	2.282414	0.025437	-0.011888	0.024474	1.000000	0.000032	0.000013	0.000004	-0.809897	-76.424074	-10.087108
33248	9.567624	0.000224	2.320148	-0.003053	0.034171	0.032176	1.000000	0.000029	0.000026	0.000017	-0.815201	-76.421782	-10.078930
33249	9.557227	-0.017544	2.307280	0.002862	0.014848	0.019108	1.000000	0.000033	0.000025	0.000010	-0.812319	-76.425473	-10.079700
33250	9.578663	-0.022119	2.296985	0.017006	0.007667	0.037545	1.000000	0.000035	0.000009	0.000017	-0.816990	-76.425167	-10.071440
33251	9.578607	-0.022311	2.297218	0.017133	0.007713	0.037545	1.000000	0.000023	0.000015	0.000017	-0.824261	-76.422744	-10.064371
33252	9.573293	-0.006451	2.280098	0.035522	0.020734	0.028305	1.000000	0.000021	0.000020	0.000034	-0.838661	-76.421163	-10.047737
33253	9.589670	-0.045053	2.273961	0.037309	-0.018384	0.042919	1.000000	0.000031	0.000021	0.000000	-0.842301	-76.425099	-10.051040
33254	9.556842	-0.018429	2.308864	0.001595	0.015551	0.019107	1.000000	0.000035	0.000009	0.000017	-0.847122	-76.424815	-10.042709
33255	9.610073	-0.009987	2.301324	0.023501	0.020578	0.069049	1.000000	0.000025	0.000027	0.000023	-0.860323	-76.419406	-10.032186
33256	9.578183	-0.023418	2.298975	0.016152	0.008506	0.037546	1.000000	0.000042	0.000013	0.000019	-0.865660	-76.418676	-10.022549
33257	9.578102	-0.023512	2.299310	0.015344	0.008835	0.037547	1.000000	0.000026	0.000022	0.000007	-0.870500	-76.421156	-10.021889
33258	9.572772	-0.007360	2.282278	0.033735	0.021858	0.028309	1.000000	0.000022	0.000023	0.000014	-0.875640	-76.419331	-10.014852
33259	9.577904	-0.023809	2.300133	0.014684	0.009137	0.037547	1.000000	0.000030	0.000018	0.000020	-0.885025	-76.420499	-10.008105
33260	9.594091	-0.012212	2.272505	0.047339	0.014914	0.046752	1.000000	0.000040	0.000029	0.000012	-0.887350	-76.417996	-10.001890
33261	9.572473	-0.007907	2.283531	0.033396	0.023031	0.028307	1.000000	0.000038	0.000014	0.000026	-0.918457	-76.415450	-9.987821
33262	9.545817	-0.037628	2.298585	0.007516	-0.001966	0.006043	1.000000	0.000011	0.000020	0.000018	-0.927221	-76.413901	-9.978521
33263	9.593824	-0.012851	2.273628	0.047345	0.015816	0.046750	1.000000	0.000045	0.000020	0.000009	-0.924078	-76.412609	-9.975829
33264	9.561934	-0.026199	2.271265	0.039994	0.003759	0.015248	1.000000	0.000026	0.000019	0.000027	-0.935288	-76.411157	-9.962282
33265	9.582583	-0.041284	2.319830	-0.003283	-0.001964	0.046785	1.000000	0.000035	0.000009	0.000017	-0.961405	-76.406133	-9.951626
33266	9.572074	-0.009097	2.285198	0.033665	0.023996	0.028304	1.000000	0.000033	0.000023	0.000030	-0.973287	-76.404220	-9.936692
33267	9.577193	-0.025740	2.303070	0.014223	0.011464	0.037545	1.000000	0.000026	0.000019	0.000027	-0.988975	-76.407650	-9.927493
33268	9.571868	-0.009730	2.286059	0.032639	0.024490	0.028306	1.000000	0.000040	0.000029	0.000012	-0.991865	-76.405092	-9.920982
33269	9.583020	-0.031963	2.262480	0.052361	-0.001880	0.033701	1.000000	0.000020	0.000010	0.000008	-0.993540	-76.413157	-9.922168
33270	9.561396	-0.027671	2.273515	0.037979	0.005475	0.015255	1.000000	0.000038	0.000034	0.000029	-1.004377	-76.410036	-9.907707
33271	9.593118	-0.015027	2.276590	0.043918	0.017459	0.046763	1.000000	0.000017	0.000001	0.000038	-1.011041	-76.417169	-9.895781
33272	9.587842	0.000976	2.259397	0.062317	0.030484	0.037530	1.000000	0.000030	0.000029	-0.000003	-1.007679	-76.414746	-9.896942
33273	9.571419	-0.010767	2.287933	0.028530	0.025252	0.028317	1.000000	0.000030	0.000018	0.000020	-1.020264	-76.418852	-9.890924
33274	9.571348	-0.010978	2.288232	0.028385	0.025354	0.028317	1.000000	0.000042	0.000013	0.000019	-1.026342	-76.418275	-9.880954
33275	9.592781	-0.015676	2.278006	0.041452	0.018193	0.046773	1.000000	0.000029	0.000026	0.000017	-1.028045	-76.422124	-9.877718
33276	9.565132	-0.005393	2.330394	-0.012753	0.039291	0.032149	1.000000	0.000016	0.000011	0.000015	-1.034982	-76.421778	-9.869910
33277	9.549553	-0.007042	2.299961	0.012307	0.033002	0.009868	1.000000	0.000036	0.000030	0.000019	-1.042305	-76.421462	-9.864506
33278	9.576163	-0.027871	2.307324	0.007848	0.012929	0.037551	1.000000	0.000045	0.000020	0.000009	-1.043090	-76.420147	-9.859639
33279	9.559623	0.010437	2.314177	0.004162	0.052344	0.022919	1.000000	0.000037	0.000022	0.000023	-1.041216	-76.423026	-9.854589
33280	9.586258	-0.010413	2.321435	-0.000305	0.032270	0.050602	1.000000	0.000038	0.000017	0.000006	-1.041510	-76.422146	-9.851013
33281	9.592224	-0.016484	2.280346	0.039150	0.018197	0.046782	1.000000	0.000030	0.000018	0.000020	-1.037694	-76.421691	-9.845411
33282	9.587073	-0.050533	2.284774	0.027468	-0.014024	0.042959	1.000000	0.000020	0.000010	0.000008	-1.040802	-76.421502	-9.841017
33283	9.570540	-0.012240	2.291601	0.023240	0.025943	0.028329	1.000000	0.000036	0.000030	0.000019	-1.048722	-76.427193	-9.838360
33284	9.565315	-0.046340	2.296327	0.011543	-0.006272	0.024505	1.000000	0.000036	0.000030	0.000019	-1.055338	-76.424829	-9.828604
33285	9.570294	-0.012593	2.292625	0.021554	0.025847	0.028333	1.000000	0.000034	0.000017	0.000013	-1.046059	-76.431352	-9.830906
33286	9.565041	0.003499	2.275387	0.039924	0.038869	0.019113	1.000000	0.000035	0.000009	0.000017	-1.051583	-76.431385	-9.822312
33287	9.575322	-0.028950	2.310799	0.002257	0.013667	0.037553	1.000000	0.000017	0.000034	-0.000002	-1.061371	-76.431344	-9.825923
33288	9.554559	-0.014411	2.262897	0.046208	0.020196	0.006069	1.000000	0.000041	0.000010	0.000039	-1.076988	-76.431260	-9.806291
33289	9.569955	-0.013235	2.294038	0.021354	0.026446	0.028332	1.000000	0.000026	0.000022	0.000007	-1.074230	-76.424278	-9.804944
33290	9.575049	-0.029579	2.311923	0.002625	0.013641	0.037553	1.000000	0.000030	0.000018	0.000020	-1.082043	-76.423246	-9.794676
33291	9.569761	-0.013504	2.294842	0.019212	0.026498	0.028336	1.000000	0.000033	0.000025	0.000010	-1.072853	-76.431627	-9.797867
33292	9.580924	-0.035970	2.271280	0.040273	-0.000063	0.033758	1.000000	0.000027	0.000011	0.000030	-1.085942	-76.431467	-9.782539
33293	9.585912	-0.002179	2.267572	0.027822	0.008987	0.037731	1.000000	0.000029	0.000037	-0.000007	-0.404339	-76.542499	-10.963722
33294	9.580708	-0.036021	2.272191	0.015614	-0.023302	0.033800	1.000000	0.000035	0.000009	0.000017	-0.404268	-76.543552	-10.963256
33295	9.579676	0.003809	2.309699	-0.012650	0.022953	0.041460	1.000000	0.000019	0.000018	0.000004	-0.400786	-76.543625	-10.969909
33296	9.575389	-0.020051	2.255264	0.033523	-0.010686	0.024663	1.000000	0.000038	0.000014	0.000026	-0.404961	-76.544168	-10.964773
33297	9.590776	-0.018865	2.286409	0.007557	-0.004065	0.046873	1.000000	0.000030	0.000018	0.000020	-0.407848	-76.544207	-10.965881
33298	9.580410	-0.036795	2.273434	0.014039	-0.023590	0.033802	1.000000	0.000030	0.000018	0.000020	-0.409997	-76.544237	-10.963752
33299	9.579360	0.002950	2.311007	-0.014199	0.022651	0.041459	1.000000	0.000034	0.000017	0.000013	-0.408526	-76.544327	-10.960211
33300	9.575060	-0.020893	2.256654	0.031968	-0.010999	0.024668	1.000000	0.000022	0.000023	0.000014	-0.408651	-76.543844	-10.961089
33301	9.568893	-0.014994	2.298451	-0.008090	0.003060	0.028387	1.000000	0.000034	0.000017	0.000013	-0.407533	-76.543910	-10.962905
33302	9.611876	-0.024411	2.277636	0.019721	-0.011912	0.065361	1.000000	0.000015	0.000017	0.000031	-0.416785	-76.544124	-10.955278
33303	9.568745	-0.015532	2.299062	-0.008868	0.002916	0.028386	1.000000	0.000032	0.000013	0.000004	-0.411514	-76.544772	-10.962033
33304	9.585026	-0.003979	2.271312	0.023549	0.008136	0.037743	1.000000	0.000037	0.000022	0.000023	-0.414124	-76.544401	-10.958625
33305	9.568554	-0.015850	2.299858	-0.009668	0.002769	0.028386	1.000000	0.000029	0.000026	0.000017	-0.415129	-76.543635	-10.958496
33306	9.574537	-0.021958	2.258861	0.029619	-0.011459	0.024675	1.000000	0.000038	0.000017	0.000006	-0.409711	-76.543881	-10.963148
33307	9.600188	-0.002879	2.303360	-0.003192	0.014602	0.059945	1.000000	0.000030	0.000018	0.000020	-0.412217	-76.543734	-10.959698
33308	9.589817	-0.020965	2.290408	0.003284	-0.004926	0.046875	1.000000	0.000021	0.000020	0.000034	-0.421928	-76.543546	-10.950793
33309	9.557907	-0.034297	2.288046	-0.004353	-0.016993	0.015314	1.000000	0.000031	0.000021	0.000000	-0.414655	-76.543405	-10.955608
33310	9.574238	-0.022886	2.260118	0.028063	-0.011785	0.024679	1.000000	0.000029	-0.000005	0.000037	-0.425277	-76.546067	-10.944908
33311	9.562917	-0.000844	2.284299	0.006700	0.015044	0.019257	1.000000	0.000043	0.000036	0.000002	-0.417549	-76.544182	-10.951750
33312	9.594656	-0.037833	2.309276	-0.017039	-0.017981	0.056000	1.000000	0.000023	0.000015	0.000017	-0.419233	-76.544612	-10.950904
33313	9.584269	-0.005596	2.274501	0.019961	0.007443	0.037751	1.000000	0.000027	0.000014	0.000010	-0.417531	-76.545446	-10.952646
33314	9.579045	-0.039621	2.279131	0.007712	-0.024828	0.033806	1.000000	0.000036	0.000030	0.000019	-0.418572	-76.544159	-10.950971
33315	9.584061	-0.005887	2.275374	0.019174	0.007294	0.037753	1.000000	0.000034	0.000017	0.000013	-0.417479	-76.544346	-10.952934
33316	9.578841	-0.039977	2.279983	0.006920	-0.024976	0.033806	1.000000	0.000018	0.000024	0.000021	-0.421379	-76.543753	-10.950430
33317	9.589012	-0.022510	2.293762	-0.000332	-0.005610	0.046875	1.000000	0.000048	0.000024	0.000018	-0.420781	-76.543080	-10.943382
33318	9.562225	-0.001811	2.287194	0.003918	0.014502	0.019260	1.000000	0.000019	0.000018	0.000004	-0.416655	-76.543107	-10.948935
33319	9.572442	-0.034166	2.322631	-0.033966	-0.011033	0.037498	1.000000	0.000045	0.000020	0.000009	-0.412043	-76.543212	-10.950309
33320	9.562068	-0.001924	2.287853	0.003096	0.014355	0.019260	1.000000	0.000031	0.000010	0.000023	-0.415751	-76.544154	-10.946456
33321	9.598928	-0.005142	2.308604	-0.008823	0.013541	0.059943	1.000000	0.000039	0.000037	0.000009	-0.411868	-76.542186	-10.950165
33322	9.578235	-0.040650	2.282512	0.004505	-0.025439	0.033806	1.000000	0.000030	0.000018	0.000020	-0.414009	-76.542214	-10.948043
33323	9.561757	-0.002427	2.289150	0.001900	0.014140	0.019261	1.000000	0.000023	0.000015	0.000017	-0.416126	-76.542706	-10.947121
33324	9.598616	-0.005568	2.309898	-0.010006	0.013307	0.059942	1.000000	0.000051	0.000032	0.000008	-0.410059	-76.541235	-10.950948
33325	9.556405	-0.036652	2.294278	-0.010759	-0.018205	0.015307	1.000000	0.000029	0.000016	0.000040	-0.421852	-76.541579	-10.934164
33326	9.583010	-0.007786	2.279793	0.014798	0.006422	0.037761	1.000000	0.000023	0.000015	0.000017	-0.423532	-76.542008	-10.933321
33327	9.588084	-0.024194	2.297622	-0.004334	-0.006361	0.046874	1.000000	0.000023	0.000015	0.000017	-0.425934	-76.542495	-10.938064
33328	9.582850	-0.008145	2.280464	0.014011	0.006279	0.037762	1.000000	0.000033	0.000025	0.000010	-0.422724	-76.541717	-10.941063
33329	9.566343	-0.019758	2.309005	-0.019221	0.000966	0.028372	1.000000	0.000026	0.000022	0.000007	-0.419467	-76.541553	-10.947271
33330	9.582642	-0.008309	2.281339	0.013195	0.006130	0.037763	1.000000	0.000037	0.000022	0.000023	-0.422065	-76.541178	-10.943873
33331	9.550720	-0.021557	2.278991	0.005565	-0.005914	0.006195	1.000000	0.000026	0.000022	0.000007	-0.418735	-76.540963	-10.948898
33332	9.604014	-0.013194	2.271498	0.026452	-0.001499	0.056267	1.000000	0.000024	0.000007	0.000021	-0.421982	-76.542304	-10.946326
33333	9.582391	-0.008847	2.282387	0.012008	0.005901	0.037765	1.000000	0.000036	0.000030	0.000019	-0.423313	-76.540955	-10.944754
33334	9.550463	-0.022152	2.280062	0.004404	-0.006158	0.006195	1.000000	0.000049	0.000016	0.000022	-0.424157	-76.541201	-10.941735
33335	9.587338	-0.025315	2.300720	-0.007522	-0.006980	0.046871	1.000000	0.000019	0.000018	0.000004	-0.420165	-76.541234	-10.944194
33336	9.550308	-0.022407	2.280707	0.003622	-0.006322	0.006195	1.000000	0.000038	0.000014	0.000026	-0.424329	-76.541771	-10.939066
33337	9.598428	-0.047957	2.277578	0.012566	-0.034067	0.052310	1.000000	0.000033	0.000025	0.000010	-0.421356	-76.541195	-10.941172
33338	9.560421	-0.004977	2.294718	-0.004040	0.012978	0.019262	1.000000	0.000035	0.000009	0.000017	-0.421281	-76.542244	-10.940710
33339	9.586997	-0.025877	2.302133	-0.009122	-0.007291	0.046870	1.000000	0.000021	0.000031	0.000010	-0.420095	-76.540839	-10.941044
33340	9.571457	-0.027481	2.271816	0.016083	-0.014118	0.024703	1.000000	0.000033	0.000025	0.000010	-0.416882	-76.540061	-10.944047
33341	9.581638	-0.009992	2.285543	0.008835	0.005268	0.037769	1.000000	0.000026	0.000019	0.000027	-0.423170	-76.540053	-10.939350
33342	9.576384	-0.044195	2.290203	-0.003467	-0.026981	0.033803	1.000000	0.000037	0.000022	0.000023	-0.425763	-76.539676	-10.935956
33343	9.571188	-0.028240	2.272942	0.014858	-0.014335	0.024704	1.000000	0.000035	0.000009	0.000017	-0.426076	-76.540960	-10.935647
33344	9.581407	-0.010610	2.286506	0.007623	0.005035	0.037770	1.000000	0.000020	0.000018	0.000004	-0.421943	-76.540986	-10.941206
33345	9.581323	-0.010731	2.286860	0.007204	0.004967	0.037770	1.000000	0.000030	0.000018	0.000020	-0.424361	-76.541187	-10.936029
33346	9.559717	-0.006320	2.297648	-0.007235	0.012372	0.019261	1.000000	0.000035	0.000009	0.000017	-0.424285	-76.542235	-10.935567
33347	9.586295	-0.027264	2.305039	-0.012329	-0.007902	0.046866	1.000000	0.000029	0.000026	0.000017	-0.425036	-76.541293	-10.930773
33348	9.570774	-0.028919	2.274675	0.012880	-0.014739	0.024706	1.000000	0.000033	0.000025	0.000010	-0.421819	-76.540514	-10.933779
33349	9.559408	-0.006543	2.298932	-0.008402	0.012140	0.019260	1.000000	0.000031	0.000021	0.000000	-0.414733	-76.540294	-10.940368
33350	9.580869	-0.011203	2.288759	0.005250	0.004563	0.037772	1.000000	0.000023	0.000015	0.000017	-0.416407	-76.540721	-10.939532
33351	9.596190	-0.010013	2.319941	-0.020749	0.011254	0.059928	1.000000	0.000040	0.000018	0.000036	-0.425241	-76.540791	-10.931258
33352	9.570426	-0.029445	2.276130	0.011300	-0.015047	0.024708	1.000000	0.000024	0.000018	-0.000002	-0.417325	-76.540926	-10.940206
33353	9.580646	-0.011811	2.289689	0.004084	0.004333	0.037772	1.000000	0.000031	0.000010	0.000023	-0.421264	-76.541793	-10.933612
33354	9.580572	-0.011971	2.289999	0.003692	0.004248	0.037773	1.000000	0.000026	0.000022	0.000007	-0.417585	-76.541416	-10.937897
33355	9.570197	-0.029737	2.277089	0.010129	-0.015280	0.024709	1.000000	0.000034	0.000017	0.000013	-0.416281	-76.541615	-10.939138
33356	9.590646	0.005579	2.304163	-0.003935	0.023553	0.050837	1.000000	0.000028	0.000034	0.000013	-0.415269	-76.539812	-10.940495
33357	9.575172	0.003849	2.273639	0.021304	0.016701	0.028687	1.000000	0.000036	0.000001	0.000020	-0.416828	-76.541627	-10.933567
33358	9.585324	-0.028580	2.309059	-0.016630	-0.008772	0.046859	1.000000	0.000033	0.000025	0.000010	-0.413606	-76.540847	-10.936577
33359	9.548287	-0.025528	2.289121	-0.005470	-0.008104	0.006193	1.000000	0.000020	0.000018	0.000004	-0.409768	-76.541018	-10.942634
33360	9.590235	-0.044795	2.327445	-0.036212	-0.021614	0.055941	1.000000	0.000041	0.000021	0.000016	-0.408576	-76.540749	-10.942632
33361	9.579962	-0.012696	2.292545	0.000945	0.003693	0.037773	1.000000	0.000024	0.000007	0.000021	-0.412069	-76.542094	-10.938164
33362	9.590192	0.004904	2.306054	-0.006280	0.023069	0.050837	1.000000	0.000038	0.000017	0.000006	-0.406637	-76.542338	-10.942826
33363	9.569544	-0.030622	2.279824	0.006981	-0.015919	0.024710	1.000000	0.000030	0.000018	0.000020	-0.409165	-76.542447	-10.943489
33364	9.568461	0.009231	2.317319	-0.021098	0.030426	0.032318	1.000000	0.000029	0.000026	0.000017	-0.409720	-76.541556	-10.943115
33365	9.579652	-0.013205	2.293837	-0.000636	0.003384	0.037774	1.000000	0.000033	0.000005	0.000007	-0.405668	-76.543145	-10.948245
33366	9.579593	-0.013346	2.294081	-0.001028	0.003299	0.037774	1.000000	0.000011	0.000020	0.000018	-0.409086	-76.542948	-10.947039
33367	9.574440	0.002606	2.276724	0.017363	0.015910	0.028696	1.000000	0.000047	0.000004	0.000016	-0.407609	-76.544642	-10.950145
33368	9.579475	-0.013662	2.294574	-0.001813	0.003144	0.037774	1.000000	0.000022	0.000023	0.000014	-0.407703	-76.544153	-10.951049
33369	9.569089	-0.031520	2.281717	0.004632	-0.016401	0.024711	1.000000	0.000041	0.000021	0.000016	-0.406645	-76.543820	-10.950297
33370	9.563905	-0.015559	2.264500	0.023027	-0.003809	0.015636	1.000000	0.000030	0.000018	0.000020	-0.408770	-76.543842	-10.948189
33371	9.579188	-0.014184	2.295769	-0.002969	0.002901	0.037773	1.000000	0.000022	0.000023	0.000014	-0.409090	-76.543319	-10.949952
33372	9.589332	0.003384	2.309628	-0.010183	0.022282	0.050835	1.000000	0.000035	0.000038	0.000016	-0.408525	-76.541111	-10.950041
33373	9.563571	-0.016134	2.265907	0.021865	-0.004058	0.015638	1.000000	0.000024	0.000007	0.000021	-0.411821	-76.542419	-10.945376
33374	9.573797	0.001445	2.279425	0.014653	0.015322	0.028701	1.000000	0.000020	0.000018	0.000004	-0.407677	-76.542443	-10.950944
33375	9.600347	-0.019317	2.286905	0.009470	-0.004954	0.056297	1.000000	0.000045	0.000020	0.000009	-0.402706	-76.542348	-10.951544
33376	9.578725	-0.014879	2.297696	-0.004934	0.002482	0.037773	1.000000	0.000027	0.000011	0.000030	-0.410183	-76.543172	-10.944316
33377	9.578656	-0.015230	2.297982	-0.005323	0.002401	0.037772	1.000000	0.000030	0.000018	0.000020	-0.412416	-76.543182	-10.942531
33378	9.563183	-0.017034	2.267535	0.019900	-0.004481	0.015642	1.000000	0.000029	0.000026	0.000016	-0.412964	-76.542290	-10.942163
33379	9.583531	-0.031791	2.316447	-0.024938	-0.010420	0.046840	1.000000	0.000030	0.000018	0.000020	-0.415283	-76.542513	-10.942164
33380	9.573286	0.000380	2.281570	0.012268	0.014828	0.028705	1.000000	0.000038	0.000017	0.000006	-0.409846	-76.542756	-10.946830
33381	9.578301	-0.015902	2.299455	-0.006931	0.002077	0.037772	1.000000	0.000012	0.000012	0.000022	-0.414797	-76.543516	-10.940346
33382	9.599749	-0.020773	2.289402	0.006681	-0.005534	0.056299	1.000000	0.000047	0.000032	0.000015	-0.412477	-76.541929	-10.940813
33383	9.541186	-0.013165	2.279890	0.003893	0.002633	-0.002882	1.000000	0.000035	0.000009	0.000017	-0.412364	-76.543016	-10.936804
33384	9.578038	-0.016352	2.300547	-0.008114	0.001824	0.037771	1.000000	0.000034	0.000017	0.000013	-0.410705	-76.543147	-10.938086
33385	9.551193	-0.045712	2.315717	-0.034499	-0.022857	0.015243	1.000000	0.000030	0.000018	0.000020	-0.412910	-76.543193	-10.936098
33386	9.599424	-0.021353	2.290758	0.005098	-0.005871	0.056300	1.000000	0.000034	0.000017	0.000013	-0.411250	-76.543324	-10.937380
33387	9.588056	0.000901	2.314923	-0.016126	0.021062	0.050830	1.000000	0.000029	0.000026	0.000016	-0.412098	-76.542565	-10.941620
33388	9.567401	-0.034724	2.288738	-0.002894	-0.017962	0.024709	1.000000	0.000035	0.000009	0.000017	-0.412015	-76.543609	-10.941164
33389	9.567319	-0.034768	2.289084	-0.003289	-0.018036	0.024709	1.000000	0.000019	0.000026	0.000001	-0.406548	-76.542733	-10.952155
33390	9.577505	-0.017101	2.302760	-0.010490	0.001351	0.037769	1.000000	0.000049	0.000016	0.000022	-0.407377	-76.542971	-10.949147
33391	9.572355	-0.001073	2.285476	0.007910	0.013929	0.028711	1.000000	0.000020	0.000018	0.000004	-0.403369	-76.543124	-10.953566
33392	9.567063	-0.035084	2.290146	-0.004487	-0.018279	0.024708	1.000000	0.000038	0.000014	0.000026	-0.407520	-76.543653	-10.948450
33393	9.577249	-0.017540	2.303820	-0.011695	0.001114	0.037767	1.000000	0.000040	0.000029	0.000012	-0.404839	-76.542523	-10.948569
33394	9.577147	-0.017678	2.304241	-0.012087	0.001030	0.037767	1.000000	0.000023	0.000015	0.000017	-0.406500	-76.542945	-10.947744
33395	9.593561	-0.006471	2.276468	0.020324	0.006055	0.047247	1.000000	0.000030	0.000018	0.000020	-0.408657	-76.542974	-10.942153
33396	9.598555	-0.022940	2.294380	0.001114	-0.006680	0.056301	1.000000	0.000027	0.000011	0.000030	-0.416130	-76.543795	-10.934928
33397	9.571847	-0.002326	2.287598	0.005558	0.013428	0.028713	1.000000	0.000044	0.000028	0.000005	-0.409622	-76.542701	-10.937155
33398	9.561471	-0.020239	2.274718	0.011972	-0.006130	0.015654	1.000000	0.000027	0.000011	0.000030	-0.417094	-76.543522	-10.929931
33399	9.576740	-0.018979	2.305924	-0.014041	0.000618	0.037764	1.000000	0.000037	0.000022	0.000023	-0.419839	-76.543124	-10.927736
33400	9.593126	-0.007646	2.278295	0.018371	0.005632	0.047251	1.000000	0.000019	0.000026	0.000001	-0.414106	-76.542233	-10.935054
33401	9.561197	-0.020893	2.275864	0.010790	-0.006372	0.015655	1.000000	0.000027	0.000011	0.000030	-0.421746	-76.543124	-10.929170
33402	9.556083	-0.005049	2.258474	0.029224	0.006184	0.006608	1.000000	0.000027	0.000014	0.000010	-0.419627	-76.543657	-10.931730
33403	9.597964	-0.024305	2.296838	-0.001652	-0.007254	0.056300	1.000000	0.000034	0.000017	0.000013	-0.418020	-76.543852	-10.931372
33404	9.576287	-0.019725	2.307796	-0.016022	0.000212	0.037761	1.000000	0.000028	0.000034	0.000013	-0.416975	-76.542043	-10.932757
33405	9.582386	-0.026149	2.266948	0.023200	-0.014257	0.034196	1.000000	0.000034	0.000017	0.000013	-0.415456	-76.542112	-10.935240
33406	9.602897	0.009200	2.293712	0.009211	0.024608	0.060314	1.000000	0.000035	0.000010	0.000017	-0.415371	-76.543155	-10.934785
33407	9.577166	-0.010318	2.250025	0.041236	-0.001789	0.025154	1.000000	0.000035	0.000038	0.000016	-0.414905	-76.541003	-10.936105
33408	9.592384	-0.008794	2.281414	0.015216	0.004967	0.047257	1.000000	0.000027	0.000014	0.000010	-0.412784	-76.541535	-10.938666
33409	9.565696	0.011959	2.274571	0.019668	0.025081	0.019674	1.000000	0.000026	0.000022	0.000007	-0.409291	-76.541289	-10.947335
33410	9.597255	-0.025072	2.299791	-0.004425	-0.007824	0.056299	1.000000	0.000030	0.000018	0.000020	-0.411403	-76.541307	-10.945239
33411	9.592151	-0.009236	2.282392	0.014014	0.004720	0.047259	1.000000	0.000024	0.000007	0.000021	-0.414588	-76.542665	-10.939800
33412	9.575588	-0.020823	2.310688	-0.019182	-0.000434	0.037756	1.000000	0.000027	0.000014	0.000010	-0.412466	-76.543197	-10.942362
33413	9.608510	0.001961	2.254955	0.046016	0.009620	0.056765	1.000000	0.000032	0.000033	0.000006	-0.407686	-76.541609	-10.947233
33414	9.591883	-0.009540	2.283514	0.012820	0.004468	0.047260	1.000000	0.000023	0.000015	0.000017	-0.409342	-76.542029	-10.946413
33415	9.591799	-0.009785	2.283868	0.012416	0.004385	0.047261	1.000000	0.000037	0.000022	0.000023	-0.411916	-76.541715	-10.943447
33416	9.570154	-0.005328	2.294667	-0.001937	0.011864	0.028717	1.000000	0.000023	0.000015	0.000017	-0.413571	-76.542135	-10.942627
33417	9.596659	-0.026258	2.302261	-0.007226	-0.008404	0.056297	1.000000	0.000033	0.000025	0.000010	-0.410379	-76.541431	-10.948737
33418	9.554665	-0.007187	2.264460	0.022901	0.004839	0.006626	1.000000	0.000028	0.000006	0.000014	-0.409837	-76.542875	-10.949558
33419	9.591495	-0.010361	2.285140	0.010826	0.004048	0.047263	1.000000	0.000034	0.000018	0.000013	-0.408189	-76.543054	-10.952795
33420	9.569828	-0.005726	2.296027	-0.003521	0.011533	0.028717	1.000000	0.000040	0.000029	0.000012	-0.405393	-76.541866	-10.954554
33421	9.586264	0.005606	2.268311	0.028885	0.016494	0.038232	1.000000	0.000021	0.000011	0.000008	-0.402800	-76.542842	-10.959592
33422	9.591232	-0.010764	2.286244	0.009643	0.003792	0.047264	1.000000	0.000040	0.000018	0.000036	-0.411177	-76.542852	-10.949824
33423	9.580831	-0.028809	2.273477	0.016025	-0.015778	0.034208	1.000000	0.000021	0.000031	0.000010	-0.409571	-76.541486	-10.952239
33424	9.602293	-0.033535	2.263464	0.029582	-0.023439	0.052757	1.000000	0.000032	0.000013	0.000004	-0.403668	-76.542130	-10.958187
33425	9.574394	-0.022505	2.315615	-0.024361	-0.001497	0.037744	1.000000	0.000029	0.000026	0.000016	-0.404213	-76.541327	-10.960076
33426	9.569272	-0.006544	2.298342	-0.005897	0.011029	0.028716	1.000000	0.000027	0.000014	0.000010	-0.402087	-76.541858	-10.962641
33427	9.558894	-0.024344	2.285482	0.000488	-0.008545	0.015660	1.000000	0.000033	0.000026	0.000010	-0.398685	-76.541084	-10.962421
33428	9.565019	-0.030839	2.244682	0.039678	-0.023085	0.012129	1.000000	0.000036	0.000030	0.000019	-0.399663	-76.539783	-10.960799
33429	9.595539	-0.027778	2.306907	-0.012018	-0.009412	0.056291	1.000000	0.000038	0.000014	0.000026	-0.403774	-76.540483	-10.954326
33430	9.563830	0.009050	2.282418	0.011366	0.023297	0.019692	1.000000	0.000030	0.000029	-0.000003	-0.394707	-76.539299	-10.963761
33431	9.573765	-0.023014	2.318207	-0.026757	-0.001987	0.037738	1.000000	0.000020	0.000019	0.000004	-0.390685	-76.539391	-10.976491
33432	9.590241	-0.011802	2.290391	0.005654	0.002946	0.047268	1.000000	0.000031	0.000010	0.000023	-0.394372	-76.540318	-10.972657
33433	9.553285	-0.008992	2.270267	0.016956	0.003558	0.006638	1.000000	0.000029	0.000026	0.000016	-0.394788	-76.539448	-10.969731
33434	9.584803	-0.046124	2.295537	-0.007229	-0.029314	0.043233	1.000000	0.000031	0.000010	0.000023	-0.398475	-76.540375	-10.965897
33435	9.579700	-0.030289	2.278222	0.011229	-0.016793	0.034213	1.000000	0.000029	0.000026	0.000016	-0.399124	-76.539561	-10.970973
33436	9.584893	0.003307	2.274102	0.022937	0.015206	0.038250	1.000000	0.000024	0.000007	0.000021	-0.402357	-76.540892	-10.968414
33437	9.557984	-0.026005	2.289268	-0.003503	-0.009373	0.015658	1.000000	0.000048	0.000025	0.000018	-0.401530	-76.540286	-10.965136
33438	9.574437	-0.014720	2.261586	0.028909	-0.004455	0.025197	1.000000	0.000020	0.000019	0.000004	-0.397364	-76.540306	-10.970722
33439	9.594662	-0.029098	2.310539	-0.016016	-0.010229	0.056285	1.000000	0.000045	0.000020	0.000009	-0.392469	-76.540261	-10.977906
33440	9.568012	-0.008422	2.303575	-0.011463	0.009873	0.028712	1.000000	0.000031	0.000010	0.000023	-0.396155	-76.541188	-10.974074
33441	9.589522	-0.013346	2.293392	0.002056	0.002196	0.047269	1.000000	0.000027	0.000014	0.000010	-0.394025	-76.541822	-10.975717
33442	9.557583	-0.026486	2.290936	-0.005499	-0.009782	0.015657	1.000000	0.000022	0.000023	0.000014	-0.394088	-76.541326	-10.976649
33443	9.605900	-0.002333	2.266049	0.034044	0.007024	0.056815	1.000000	0.000030	0.000018	0.000020	-0.396248	-76.541525	-10.974610
33444	9.567689	-0.009176	2.304914	-0.013076	0.009549	0.028711	1.000000	0.000030	0.000018	0.000020	-0.398349	-76.541538	-10.972524
33445	9.583916	-0.048008	2.299202	-0.011674	-0.030209	0.043226	1.000000	0.000024	0.000007	0.000021	-0.401571	-76.542936	-10.969946
33446	9.567513	-0.009688	2.305640	-0.013869	0.009383	0.028710	1.000000	0.000023	0.000043	0.000016	-0.402692	-76.540097	-10.969717
33447	9.588988	-0.014557	2.295617	-0.000352	0.001698	0.047269	1.000000	0.000034	-0.000003	0.000011	-0.399919	-76.542632	-10.969561
33448	9.567355	-0.010014	2.306296	-0.014663	0.009216	0.028709	1.000000	0.000032	0.000031	0.000026	-0.404662	-76.541215	-10.964567
33449	9.583828	0.001057	2.278587	0.017740	0.014112	0.038262	1.000000	0.000035	0.000010	0.000017	-0.404607	-76.542313	-10.965274
33450	9.572188	-0.026415	2.324675	-0.034341	-0.003527	0.037714	1.000000	0.000026	0.000022	0.000007	-0.400890	-76.541929	-10.969591
33451	9.583672	0.000853	2.279244	0.016945	0.013945	0.038264	1.000000	0.000023	0.000015	0.000017	-0.402622	-76.542426	-10.972332
33452	9.588584	-0.015408	2.297298	-0.002335	0.001284	0.047269	1.000000	0.000022	0.000023	0.000014	-0.402681	-76.541929	-10.973268
33453	9.583502	0.000413	2.279961	0.016157	0.013775	0.038266	1.000000	0.000038	0.000014	0.000026	-0.406848	-76.542493	-10.970602
33454	9.578119	-0.033590	2.284813	0.003626	-0.018378	0.034216	1.000000	0.000033	0.000026	0.000010	-0.403582	-76.541705	-10.973647
33455	9.566756	-0.011170	2.308772	-0.017440	0.008647	0.028705	1.000000	0.000035	0.000010	0.000017	-0.403493	-76.542809	-10.973927
33456	9.572969	-0.017782	2.267769	0.021724	-0.005976	0.025215	1.000000	0.000022	0.000023	0.000014	-0.403550	-76.542312	-10.974865
33457	9.588137	-0.016254	2.299158	-0.004319	0.000864	0.047269	1.000000	0.000029	0.000026	0.000016	-0.403997	-76.541432	-10.973312
33458	9.609619	-0.021331	2.289123	0.009194	-0.006835	0.065834	1.000000	0.000027	0.000011	0.000030	-0.411456	-76.542243	-10.966100
33459	9.566403	-0.012100	2.310232	-0.019022	0.008307	0.028702	1.000000	0.000041	0.000021	0.000016	-0.410109	-76.542036	-10.960343
33460	9.604437	-0.005666	2.272237	0.027293	0.005559	0.056837	1.000000	0.000021	0.000031	0.000010	-0.408576	-76.540625	-10.963031
33461	9.587741	-0.017061	2.300800	-0.005911	0.000524	0.047268	1.000000	0.000034	0.000018	0.000013	-0.406864	-76.540804	-10.964190
33462	9.572400	-0.019044	2.270161	0.019347	-0.006492	0.025220	1.000000	0.000027	0.000011	0.000030	-0.414322	-76.541614	-10.956979
33463	9.592589	-0.033617	2.319070	-0.025606	-0.012204	0.056262	1.000000	0.000020	0.000019	0.000004	-0.410190	-76.541681	-10.966083
33464	9.567253	-0.003419	2.253142	0.037459	0.005899	0.016227	1.000000	0.000033	0.000023	0.000029	-0.416511	-76.541174	-10.959350
33465	9.592396	-0.034072	2.319860	-0.026402	-0.012371	0.056260	1.000000	0.000034	0.000018	0.000013	-0.414786	-76.541349	-10.959711
33466	9.555456	-0.031002	2.299737	-0.015040	-0.011770	0.015645	1.000000	0.000038	0.000025	0.000003	-0.407739	-76.540674	-10.966141
33467	9.582230	-0.002022	2.285298	0.010612	0.012584	0.038275	1.000000	0.000037	0.000022	0.000023	-0.410337	-76.540366	-10.964338
33468	9.571856	-0.020033	2.272442	0.016964	-0.007001	0.025224	1.000000	0.000023	0.000015	0.000017	-0.411977	-76.540780	-10.963531
33469	9.571770	-0.020228	2.272806	0.016565	-0.007086	0.025224	1.000000	0.000022	0.000023	0.000014	-0.412004	-76.540323	-10.963546
33470	9.560403	0.002268	2.296747	-0.004460	0.019956	0.019705	1.000000	0.000032	0.000013	0.000004	-0.406094	-76.540964	-10.969499
33471	9.571631	-0.020463	2.273388	0.015775	-0.007256	0.025225	1.000000	0.000027	0.000011	0.000030	-0.413546	-76.541810	-10.963205
33472	9.576530	-0.036671	2.291415	-0.003531	-0.019894	0.034213	1.000000	0.000031	0.000021	0.000000	-0.406045	-76.541539	-10.970909
33473	9.581755	-0.002907	2.287288	0.008246	0.012076	0.038278	1.000000	0.000030	0.000018	0.000020	-0.408159	-76.541586	-10.970237
33474	9.586660	-0.019228	2.305282	-0.011062	-0.000559	0.047263	1.000000	0.000031	0.000010	0.000023	-0.411840	-76.542509	-10.966408
33475	9.581614	-0.003342	2.287878	0.007443	0.011908	0.038279	1.000000	0.000026	0.000022	0.000007	-0.408089	-76.542240	-10.967889
33476	9.571250	-0.021272	2.274985	0.013789	-0.007679	0.025228	1.000000	0.000031	0.000011	0.000023	-0.411769	-76.543162	-10.964060
33477	9.571141	-0.021294	2.275441	0.013390	-0.007765	0.025229	1.000000	0.000029	0.000037	-0.000007	-0.401006	-76.541110	-10.971881
33478	9.602884	-0.008269	2.278784	0.020142	0.004016	0.056855	1.000000	0.000049	0.000017	0.000022	-0.401813	-76.541337	-10.968890
33479	9.586194	-0.019620	2.307219	-0.013062	-0.000980	0.047261	1.000000	0.000020	0.000019	0.000004	-0.397576	-76.541412	-10.972056
33480	9.570869	-0.021578	2.276582	0.012204	-0.008022	0.025230	1.000000	0.000027	0.000011	0.000030	-0.405031	-76.542219	-10.964849
33481	9.592387	-0.026630	2.266453	0.025682	-0.015744	0.043808	1.000000	0.000027	0.000014	0.000010	-0.402873	-76.542796	-10.966623
33482	9.565777	-0.005815	2.259396	0.030336	0.004351	0.016252	1.000000	0.000039	0.000017	0.000006	-0.397410	-76.543033	-10.971307
33483	9.570660	-0.021946	2.277459	0.011003	-0.008270	0.025231	1.000000	0.000030	0.000018	0.000020	-0.399613	-76.543140	-10.974909
33484	9.585838	-0.020417	2.308690	-0.015048	-0.001389	0.047258	1.000000	0.000042	0.000013	0.000019	-0.399967	-76.543771	-10.973190
33485	9.570504	-0.022325	2.278109	0.010199	-0.008437	0.025232	1.000000	0.000022	0.000023	0.000014	-0.399986	-76.543392	-10.971271
33486	9.575380	-0.038402	2.296186	-0.009123	-0.021060	0.034207	1.000000	0.000032	0.000013	0.000004	-0.394070	-76.544033	-10.977228
33487	9.602224	-0.009459	2.281555	0.016547	0.003253	0.056862	1.000000	0.000023	0.000015	0.000017	-0.395686	-76.544486	-10.974691
33488	9.548684	-0.017852	2.289491	-0.004853	-0.001047	0.006652	1.000000	0.000029	0.000026	0.000016	-0.396181	-76.543582	-10.974369
33489	9.575106	-0.038775	2.297323	-0.010323	-0.021309	0.034205	1.000000	0.000026	0.000022	0.000007	-0.392456	-76.543282	-10.977276
33490	9.558795	-0.000319	2.303428	-0.012378	0.018294	0.019701	1.000000	0.000024	0.000007	0.000021	-0.395682	-76.544607	-10.974722
33491	9.580294	-0.005425	2.293395	0.001090	0.010565	0.038283	1.000000	0.000025	0.000027	0.000023	-0.399996	-76.543635	-10.971951
33492	9.564944	-0.007538	2.262913	0.026362	0.003504	0.016264	1.000000	0.000026	0.000019	0.000027	-0.405856	-76.543529	-10.966498
33493	9.606614	-0.026881	2.301644	-0.005400	-0.009000	0.065835	1.000000	0.000048	0.000025	0.000018	-0.421368	-76.547331	-10.945512
33494	9.558419	-0.001274	2.304988	-0.014580	0.018747	0.019697	1.000000	0.000032	0.000013	0.000004	-0.415517	-76.547990	-10.951387
33495	9.579934	-0.006151	2.294898	-0.001121	0.011015	0.038282	1.000000	0.000023	0.000015	0.000017	-0.417162	-76.548465	-10.949411
33496	9.574503	-0.040150	2.299812	-0.013729	-0.021102	0.034202	1.000000	0.000022	0.000023	0.000014	-0.417268	-76.547983	-10.950280
33497	9.569457	-0.024186	2.282485	0.004809	-0.008657	0.025236	1.000000	0.000045	0.000020	0.000009	-0.412267	-76.547879	-10.952401
33498	9.596284	0.004750	2.267990	0.030488	0.015642	0.047905	1.000000	0.000022	0.000023	0.000014	-0.412373	-76.547397	-10.953271
33499	9.569252	-0.024411	2.283340	0.004011	-0.008821	0.025236	1.000000	0.000022	0.000023	0.000014	-0.412423	-76.546962	-10.953040
33500	9.569153	-0.024472	2.283754	0.003616	-0.008903	0.025236	1.000000	0.000045	0.000020	0.000009	-0.407472	-76.546811	-10.956374
33501	9.569067	-0.024499	2.284117	0.003213	-0.008984	0.025236	1.000000	0.000034	0.000018	0.000013	-0.405838	-76.547004	-10.958622
33502	9.579294	-0.006838	2.297565	-0.003905	0.010445	0.038282	1.000000	0.000035	0.000010	0.000017	-0.405807	-76.548056	-10.958093
33503	9.563992	-0.008813	2.266933	0.021354	0.003376	0.016276	1.000000	0.000037	0.000022	0.000023	-0.408458	-76.547787	-10.957832
33504	9.590411	-0.029783	2.274758	0.015858	-0.016883	0.043826	1.000000	0.000026	0.000022	0.000007	-0.404785	-76.547418	-10.962084
33505	9.583986	-0.023206	2.316338	-0.024064	-0.002308	0.047240	1.000000	0.000040	0.000009	0.000010	-0.400959	-76.548634	-10.964914
33506	9.574032	0.008733	2.281169	0.013446	0.022641	0.029325	1.000000	0.000029	0.000027	0.000016	-0.401511	-76.547746	-10.964516
33507	9.547000	-0.020453	2.296483	-0.013040	-0.001803	0.006645	1.000000	0.000023	0.000015	0.000017	-0.403159	-76.548245	-10.962275
33508	9.600396	-0.012570	2.289222	0.007537	0.002300	0.056874	1.000000	0.000031	0.000011	0.000023	-0.406902	-76.549182	-10.958366
33509	9.563484	-0.009812	2.269068	0.018962	0.002882	0.016281	1.000000	0.000024	0.000035	0.000020	-0.409575	-76.547320	-10.954338
33510	9.600150	-0.013009	2.290251	0.006736	0.002135	0.056874	1.000000	0.000033	0.000026	0.000010	-0.406350	-76.546546	-10.957322
33511	9.551972	0.012557	2.293510	-0.002390	0.029897	0.010734	1.000000	0.000035	0.000010	0.000017	-0.406280	-76.547649	-10.956849
33512	9.589748	-0.031103	2.277536	0.012652	-0.017542	0.043830	1.000000	0.000017	0.000004	0.000018	-0.409123	-76.549395	-10.955482
33513	9.558257	0.005485	2.252565	0.036331	0.015058	0.007333	1.000000	0.000030	0.000019	0.000020	-0.411147	-76.549451	-10.948847
33514	9.568011	-0.026670	2.288511	-0.001982	-0.010041	0.025235	1.000000	0.000033	0.000026	0.000010	-0.407919	-76.548677	-10.951833
33515	9.599787	-0.013770	2.291767	0.004735	0.001719	0.056875	1.000000	0.000034	0.000018	0.000013	-0.406188	-76.548864	-10.950389
33516	9.567826	-0.026974	2.289282	-0.002780	-0.010206	0.025235	1.000000	0.000026	0.000019	0.000027	-0.412108	-76.548772	-10.944859
33517	9.579026	-0.049724	2.266161	0.017362	-0.037473	0.030787	1.000000	0.000031	0.000021	0.000000	-0.404627	-76.548579	-10.952289
33518	9.584324	-0.015937	2.261867	0.029217	-0.005537	0.034885	1.000000	0.000035	0.000010	0.000017	-0.404594	-76.549629	-10.951761
33519	9.556302	-0.004556	2.313745	-0.024531	0.016740	0.019681	1.000000	0.000020	0.000019	0.000004	-0.400427	-76.549740	-10.956969
33520	9.567498	-0.027460	2.290646	-0.004383	-0.010530	0.025234	1.000000	0.000028	0.000024	0.000036	-0.410571	-76.549128	-10.946790
33521	9.587956	0.007744	2.317512	-0.018213	0.028420	0.051322	1.000000	0.000036	0.000030	0.000019	-0.411507	-76.547907	-10.942479
33522	9.567279	-0.028093	2.291555	-0.005185	-0.010692	0.025234	1.000000	0.000031	0.000011	0.000023	-0.415249	-76.548842	-10.938572
33523	9.594147	0.000608	2.277017	0.020500	0.013564	0.047934	1.000000	0.000036	0.000030	0.000019	-0.416210	-76.547584	-10.937286
33524	9.583796	-0.017453	2.264091	0.026815	-0.006036	0.034892	1.000000	0.000018	-0.000004	0.000022	-0.420653	-76.550241	-10.934158
33525	9.555747	-0.006140	2.316035	-0.026919	0.016259	0.019676	1.000000	0.000046	0.000041	0.000011	-0.416637	-76.547804	-10.934964
33526	9.561993	-0.012778	2.275330	0.012192	0.001477	0.016293	1.000000	0.000020	0.000019	0.000004	-0.412506	-76.547839	-10.940493
33527	9.577107	-0.010955	2.306648	-0.013890	0.008417	0.038275	1.000000	0.000045	0.000020	0.000009	-0.407494	-76.547726	-10.944117
33528	9.577026	-0.011046	2.306985	-0.014284	0.008336	0.038275	1.000000	0.000023	0.000015	0.000017	-0.409186	-76.548153	-10.943240
33529	9.572041	0.004791	2.289518	0.004290	0.020749	0.029337	1.000000	0.000034	0.000018	0.000013	-0.407537	-76.548346	-10.947542
33530	9.583265	-0.017938	2.266334	0.024418	-0.006538	0.034897	1.000000	0.000027	0.000014	0.000010	-0.405453	-76.548888	-10.950044
33531	9.583191	-0.018098	2.266648	0.024010	-0.006620	0.034898	1.000000	0.000030	0.000019	0.000020	-0.407567	-76.548987	-10.949497
33532	9.583096	-0.018302	2.267047	0.023615	-0.006703	0.034899	1.000000	0.000022	0.000023	0.000014	-0.407658	-76.548501	-10.950380
33533	9.566311	-0.029453	2.295572	-0.009593	-0.011579	0.025229	1.000000	0.000031	0.000021	0.000000	-0.400208	-76.548349	-10.960851
33534	9.593205	-0.000559	2.280983	0.016108	0.012654	0.047944	1.000000	0.000023	0.000015	0.000017	-0.401898	-76.548775	-10.959976
33535	9.561239	-0.013748	2.278489	0.008596	0.000741	0.016296	1.000000	0.000037	0.000022	0.000022	-0.404436	-76.548428	-10.958222
33536	9.597904	-0.016946	2.299618	-0.003674	0.000006	0.056876	1.000000	0.000040	0.000029	0.000012	-0.401647	-76.547247	-10.959946
33537	9.576212	-0.012225	2.310354	-0.017891	0.007619	0.038269	1.000000	0.000023	0.000015	0.000017	-0.403264	-76.547756	-10.957587
33538	9.566345	0.019523	2.275062	0.019693	0.032496	0.020410	1.000000	0.000023	0.000015	0.000017	-0.404952	-76.548182	-10.956712
33539	9.560867	-0.014507	2.280046	0.006994	0.000413	0.016298	1.000000	0.000037	0.000022	0.000022	-0.407494	-76.547871	-10.955638
33540	9.587242	-0.035574	2.287997	0.001411	-0.019842	0.043833	1.000000	0.000029	0.000027	0.000016	-0.408029	-76.546979	-10.955255
33541	9.570962	0.002957	2.294028	-0.000498	0.019774	0.029340	1.000000	0.000021	0.000011	0.000008	-0.405458	-76.547992	-10.960910
33542	9.560572	-0.014907	2.281281	0.005801	0.000168	0.016298	1.000000	0.000047	0.000033	0.000015	-0.403115	-76.546405	-10.961366
33543	9.560458	-0.015203	2.281756	0.005399	0.000084	0.016299	1.000000	0.000015	0.000017	0.000031	-0.412242	-76.546642	-10.952157
33544	9.613874	-0.007398	2.274553	0.025911	0.004122	0.066560	1.000000	0.000040	0.000009	0.000010	-0.408431	-76.547806	-10.955008
33545	9.565218	-0.031580	2.300096	-0.014401	-0.012548	0.025222	1.000000	0.000037	0.000022	0.000022	-0.410966	-76.547501	-10.952643
33546	9.560243	-0.015843	2.282653	0.004204	-0.000161	0.016299	1.000000	0.000023	0.000015	0.000017	-0.412653	-76.547926	-10.951770
33547	9.592034	-0.003036	2.285898	0.010903	0.011578	0.047952	1.000000	0.000033	0.000026	0.000009	-0.409353	-76.547227	-10.955681
33548	9.581617	-0.020881	2.273268	0.017196	-0.008031	0.034912	1.000000	0.000040	0.000029	0.000012	-0.406558	-76.546044	-10.957410
33549	9.570225	0.001747	2.297101	-0.003682	0.019120	0.029341	1.000000	0.000021	0.000011	0.000008	-0.403966	-76.547024	-10.964207
33550	9.559870	-0.016350	2.284211	0.002610	-0.000489	0.016300	1.000000	0.000015	0.000017	0.000031	-0.413199	-76.547216	-10.956580
33551	9.574967	-0.014876	2.315492	-0.023487	0.006494	0.038258	1.000000	0.000049	0.000017	0.000022	-0.413959	-76.547519	-10.951406
33552	9.586165	-0.037695	2.292468	-0.003409	-0.020825	0.043831	1.000000	0.000014	0.000028	0.000008	-0.411989	-76.546525	-10.955328
33553	9.566008	-0.023644	2.244135	0.040879	-0.015515	0.012958	1.000000	0.000034	0.000018	0.000013	-0.410223	-76.546748	-10.952733
33554	9.559512	-0.017088	2.285702	0.001007	-0.000818	0.016300	1.000000	0.000023	0.000015	0.000017	-0.411908	-76.547172	-10.951861
33555	9.591340	-0.004300	2.288807	0.007703	0.010913	0.047956	1.000000	0.000021	0.000011	0.000008	-0.409272	-76.548180	-10.954667
33556	9.569661	0.000464	2.299454	-0.006474	0.018545	0.029340	1.000000	0.000029	0.000027	0.000016	-0.409799	-76.547286	-10.954291
33557	9.580861	-0.022364	2.276437	0.013584	-0.008782	0.034917	1.000000	0.000034	0.000018	0.000013	-0.408053	-76.547489	-10.954806
33558	9.559186	-0.017789	2.287058	-0.000592	-0.001148	0.016300	1.000000	0.000015	0.000017	0.000031	-0.417284	-76.547680	-10.947181
33559	9.580712	-0.022899	2.277059	0.012785	-0.008948	0.034917	1.000000	0.000032	0.000013	0.000004	-0.411325	-76.548390	-10.952257
33560	9.563908	-0.034072	2.305499	-0.020404	-0.013766	0.025210	1.000000	0.000037	0.000022	0.000022	-0.413902	-76.548002	-10.948850
33561	9.590821	-0.005393	2.290980	0.005303	0.010417	0.047958	1.000000	0.000022	0.000023	0.000014	-0.413941	-76.547583	-10.951013
33562	9.580432	-0.023407	2.278232	0.011587	-0.009195	0.034919	1.000000	0.000030	0.000019	0.000020	-0.416070	-76.547600	-10.948875
33563	9.569028	-0.000841	2.302086	-0.009270	0.017974	0.029339	1.000000	0.000033	0.000026	0.000009	-0.412748	-76.546877	-10.951875
33564	9.569941	-0.041342	2.265918	0.017464	-0.028892	0.021880	1.000000	0.000039	0.000017	0.000006	-0.407331	-76.547127	-10.956490
33565	9.590468	-0.005982	2.292455	0.003709	0.010085	0.047959	1.000000	0.000016	0.000009	0.000035	-0.418057	-76.548268	-10.945061
33566	9.580099	-0.023954	2.279625	0.009990	-0.009528	0.034920	1.000000	0.000042	0.000024	-0.000004	-0.407259	-76.547723	-10.954818
33567	9.548120	-0.036849	2.277132	0.002494	-0.021419	0.003260	1.000000	0.000023	0.000015	0.000017	-0.408840	-76.548185	-10.951577
33568	9.595124	-0.022448	2.311143	-0.016506	-0.002608	0.056863	1.000000	0.000028	0.000004	0.000034	-0.417954	-76.549910	-10.942534
33569	9.568615	-0.001896	2.303801	-0.011656	0.017483	0.029337	1.000000	0.000034	0.000018	0.000013	-0.416276	-76.550109	-10.942856
33570	9.594990	-0.022920	2.311697	-0.017308	-0.002769	0.056861	1.000000	0.000030	0.000019	0.000020	-0.418403	-76.550125	-10.940721
33571	9.553291	-0.004162	2.273536	0.013248	0.010231	0.007398	1.000000	0.000030	0.000019	0.000020	-0.420487	-76.550204	-10.938133
33572	9.573208	-0.018460	2.322730	-0.031874	0.004800	0.038236	1.000000	0.000022	0.000023	0.000014	-0.420560	-76.549714	-10.939031
33573	9.594703	-0.023373	2.312881	-0.018515	-0.003007	0.056859	1.000000	0.000031	0.000021	0.000000	-0.413099	-76.549513	-10.950472
33574	9.574620	-0.009438	2.264397	0.025822	0.002252	0.026025	1.000000	0.000027	0.000012	0.000030	-0.420606	-76.550324	-10.943194
33575	9.572958	-0.018847	2.323757	-0.033076	0.004565	0.038232	1.000000	0.000020	0.000019	0.000004	-0.416396	-76.550417	-10.949061
33576	9.589592	-0.007819	2.296113	-0.000678	0.009185	0.047960	1.000000	0.000040	0.000029	0.000012	-0.413586	-76.549232	-10.950801
33577	9.574345	-0.009746	2.265557	0.024621	0.002001	0.026028	1.000000	0.000027	0.000014	0.000010	-0.411395	-76.549815	-10.950384
33578	9.567799	-0.003096	2.307185	-0.015232	0.016756	0.029334	1.000000	0.000029	0.000027	0.000016	-0.411912	-76.548919	-10.950017
33579	9.604468	-0.006294	2.328204	-0.027583	0.016039	0.069891	1.000000	0.000028	0.000006	0.000014	-0.411348	-76.550422	-10.949768
33580	9.552500	-0.005139	2.276855	0.009676	0.009489	0.007403	1.000000	0.000045	0.000028	0.000005	-0.404764	-76.549354	-10.954887
33581	9.578869	-0.026091	2.284767	0.003990	-0.010762	0.034923	1.000000	0.000024	0.000007	0.000021	-0.408030	-76.550726	-10.955860
33582	9.578822	-0.026196	2.284962	0.003594	-0.010844	0.034923	1.000000	0.000032	0.000013	0.000004	-0.402160	-76.551381	-10.961748
33583	9.589010	-0.008536	2.298537	-0.003467	0.008608	0.047960	1.000000	0.000013	0.000033	0.000024	-0.408081	-76.549763	-10.957779
33584	9.588914	-0.008738	2.298937	-0.003862	0.008527	0.047960	1.000000	0.000040	0.000009	0.000010	-0.404266	-76.550924	-10.960633
33585	9.583972	0.007222	2.281500	0.014782	0.020868	0.039072	1.000000	0.000032	0.000034	0.000006	-0.399347	-76.549268	-10.966851
33586	9.556801	-0.021730	2.296972	-0.011743	-0.003429	0.016293	1.000000	0.000030	0.000019	0.000020	-0.401469	-76.549283	-10.964720
33587	9.567001	-0.004031	2.310492	-0.018803	0.016029	0.029329	1.000000	0.000027	0.000022	0.000007	-0.397718	-76.548954	-10.969945
33588	9.568520	0.005163	2.251862	0.039302	0.013500	0.017152	1.000000	0.000038	0.000025	0.000003	-0.390686	-76.548291	-10.976332
33589	9.583569	0.006929	2.283193	0.013191	0.020535	0.039075	1.000000	0.000012	0.000013	0.000022	-0.395579	-76.549058	-10.973247
33590	9.588342	-0.009285	2.301322	-0.006253	0.008035	0.047960	1.000000	0.000049	0.000017	0.000022	-0.396428	-76.549289	-10.970190
33591	9.588256	-0.009527	2.301679	-0.006653	0.007951	0.047959	1.000000	0.000011	0.000021	0.000018	-0.399732	-76.549115	-10.969920
33592	9.583321	0.006133	2.284238	0.012006	0.020285	0.039077	1.000000	0.000037	0.000022	0.000022	-0.402298	-76.548723	-10.966522
33593	9.577758	-0.027841	2.289396	-0.000791	-0.011756	0.034923	1.000000	0.000022	0.000023	0.000014	-0.402239	-76.548247	-10.968072
33594	9.577652	-0.028002	2.289839	-0.001186	-0.011838	0.034923	1.000000	0.000022	0.000023	0.000014	-0.402304	-76.547755	-10.968977
33595	9.577558	-0.028128	2.290231	-0.001587	-0.011923	0.034923	1.000000	0.000034	0.000018	0.000013	-0.400529	-76.547915	-10.970212
33596	9.555862	-0.023373	2.300860	-0.015715	-0.004247	0.016287	1.000000	0.000037	0.000022	0.000022	-0.403094	-76.547522	-10.966816
33597	9.599011	-0.033376	2.280615	0.011347	-0.019846	0.053558	1.000000	0.000007	0.000004	0.000003	-0.399587	-76.549316	-10.973850
33598	9.555718	-0.023552	2.301454	-0.016510	-0.004409	0.016285	1.000000	0.000047	0.000033	0.000015	-0.397214	-76.547722	-10.974330
33599	9.587499	-0.010684	2.304825	-0.009832	0.007291	0.047957	1.000000	0.000020	0.000019	0.000004	-0.392988	-76.547794	-10.978123
33600	9.577111	-0.028639	2.292093	-0.003577	-0.012333	0.034921	1.000000	0.000037	0.000022	0.000022	-0.395551	-76.547401	-10.974728
33601	9.593796	-0.017898	2.264384	0.028809	-0.007774	0.044685	1.000000	0.000030	0.000019	0.000020	-0.397577	-76.547462	-10.971289
33602	9.581744	-0.045021	2.310748	-0.023441	-0.024901	0.043794	1.000000	0.000022	0.000023	0.000014	-0.397639	-76.546970	-10.972197
33603	9.582284	0.004507	2.288588	0.007639	0.019365	0.039083	1.000000	0.000022	0.000023	0.000014	-0.397613	-76.546521	-10.971667
33604	9.576674	-0.029324	2.293908	-0.005175	-0.012662	0.034920	1.000000	0.000039	0.000037	0.000009	-0.393182	-76.544421	-10.975184
33605	9.571752	-0.013533	2.276469	0.013493	-0.000346	0.026049	1.000000	0.000024	0.000007	0.000021	-0.396375	-76.545777	-10.971670
33606	9.597099	0.006066	2.320819	-0.019261	0.026261	0.060989	1.000000	0.000020	0.000019	0.000004	-0.392219	-76.545808	-10.977220
33607	9.576467	-0.029753	2.294768	-0.006371	-0.012910	0.034919	1.000000	0.000051	0.000001	0.000029	-0.396221	-76.547891	-10.972338
33608	9.571596	-0.013993	2.277121	0.012305	-0.000595	0.026051	1.000000	0.000027	0.000022	0.000007	-0.392509	-76.547515	-10.976622
33609	9.586624	-0.012123	2.308454	-0.013811	0.006473	0.047953	1.000000	0.000027	0.000014	0.000010	-0.390355	-76.548093	-10.980732
33610	9.597861	-0.035062	2.285422	0.006151	-0.020925	0.053561	1.000000	0.000030	0.000019	0.000020	-0.392469	-76.548106	-10.978607
33611	9.586456	-0.012673	2.309145	-0.014608	0.006310	0.047952	1.000000	0.000022	0.000021	0.000034	-0.402056	-76.547925	-10.969905
33612	9.581573	0.002899	2.291564	0.004074	0.018621	0.039087	1.000000	0.000035	0.000010	0.000017	-0.402011	-76.548967	-10.969384
33613	9.564710	-0.008341	2.319946	-0.029116	0.013920	0.029307	1.000000	0.000026	0.000020	0.000027	-0.407780	-76.548897	-10.962717
33614	9.592716	-0.020375	2.268938	0.023629	-0.008869	0.044698	1.000000	0.000033	0.000026	0.000009	-0.404509	-76.548115	-10.965738
33615	9.549410	-0.010441	2.289762	-0.004188	0.006602	0.007409	1.000000	0.000032	0.000013	0.000004	-0.398641	-76.548794	-10.974897
33616	9.586020	-0.013612	2.310950	-0.016592	0.005905	0.047949	1.000000	0.000032	0.000031	0.000026	-0.403356	-76.547369	-10.969905
33617	9.570803	-0.015827	2.280438	0.008729	-0.001344	0.026055	1.000000	0.000030	0.000019	0.000020	-0.405332	-76.547392	-10.968096
33618	9.553897	-0.026918	2.308965	-0.024454	-0.006029	0.016268	1.000000	0.000033	0.000026	0.000009	-0.402059	-76.546609	-10.971118
33619	9.602515	-0.003136	2.284134	0.015001	0.010259	0.057736	1.000000	0.000027	0.000014	0.000010	-0.399885	-76.547193	-10.970919
33620	9.575302	-0.032021	2.299594	-0.011549	-0.013973	0.034913	1.000000	0.000028	0.000035	0.000013	-0.398770	-76.545381	-10.972339
33621	9.575205	-0.032221	2.299995	-0.011946	-0.014054	0.034913	1.000000	0.000024	0.000007	0.000021	-0.402024	-76.546716	-10.972460
33622	9.585457	-0.014335	2.313280	-0.018972	0.005416	0.047945	1.000000	0.000040	0.000011	-0.000010	-0.388607	-76.547605	-10.985099
33623	9.591891	-0.021320	2.272411	0.020048	-0.009625	0.044705	1.000000	0.000028	0.000024	0.000036	-0.398670	-76.546993	-10.975608
33624	9.597320	0.012154	2.267913	0.032115	0.022219	0.048885	1.000000	0.000033	0.000005	0.000007	-0.394408	-76.548559	-10.979728
33625	9.564663	-0.050417	2.287911	-0.006906	-0.033931	0.021877	1.000000	0.000034	0.000018	0.000013	-0.392674	-76.548708	-10.980972
33626	9.591670	-0.021772	2.273340	0.018858	-0.009876	0.044707	1.000000	0.000029	0.000027	0.000016	-0.393169	-76.547807	-10.980623
33627	9.580252	0.000905	2.297082	-0.001864	0.017383	0.039090	1.000000	0.000034	0.000018	0.000013	-0.391452	-76.547963	-10.980424
33628	9.574650	-0.032977	2.302295	-0.014726	-0.014623	0.034908	1.000000	0.000029	0.000027	0.000016	-0.391946	-76.547061	-10.980076
33629	9.591366	-0.022180	2.274619	0.017662	-0.010126	0.044709	1.000000	0.000034	0.000018	0.000013	-0.390199	-76.547217	-10.977854
33630	9.569691	-0.017330	2.285091	0.003576	-0.002417	0.026058	1.000000	0.000035	0.000010	0.000017	-0.390150	-76.548258	-10.977336
33631	9.548000	-0.012713	2.295623	-0.010509	0.005294	0.007405	1.000000	0.000028	0.000024	0.000036	-0.400206	-76.547639	-10.968293
33632	9.584593	-0.015955	2.316847	-0.022940	0.004604	0.047937	1.000000	0.000031	0.000021	-0.000000	-0.392713	-76.547381	-10.975959
33633	9.543016	0.002929	2.278540	0.007801	0.017499	-0.001442	1.000000	0.000030	0.000019	0.000020	-0.394784	-76.547411	-10.972153
33634	9.574120	-0.034014	2.304480	-0.017109	-0.015111	0.034903	1.000000	0.000034	0.000018	0.000013	-0.393119	-76.547539	-10.973408
33635	9.612487	-0.028159	2.266481	0.028963	-0.018425	0.063367	1.000000	0.000027	0.000014	0.000010	-0.390942	-76.548090	-10.976983
33636	9.574688	0.015380	2.282431	0.013684	0.029007	0.030246	1.000000	0.000037	0.000022	0.000022	-0.393491	-76.547692	-10.973600
33637	9.584144	-0.016506	2.318701	-0.024926	0.004202	0.047932	1.000000	0.000019	0.000027	0.000001	-0.387683	-76.546843	-10.983925
33638	9.568965	-0.018517	2.288119	0.000406	-0.003074	0.026058	1.000000	0.000049	0.000017	0.000022	-0.388519	-76.547068	-10.980878
33639	9.579158	-0.000928	2.301640	-0.006611	0.016401	0.039089	1.000000	0.000025	0.000028	0.000023	-0.392761	-76.546075	-10.978994
33640	9.568758	-0.018986	2.288979	-0.000387	-0.003236	0.026058	1.000000	0.000034	0.000018	0.000013	-0.391095	-76.546202	-10.980251
33641	9.585519	-0.008240	2.261192	0.031999	0.001233	0.035876	1.000000	0.000023	0.000015	0.000017	-0.392705	-76.546651	-10.977764
33642	9.590212	-0.024249	2.279457	0.012493	-0.011206	0.044716	1.000000	0.000027	0.000022	0.000007	-0.388979	-76.546274	-10.982060
33643	9.573282	-0.035199	2.307943	-0.020696	-0.015836	0.034895	1.000000	0.000034	0.000018	0.000013	-0.387275	-76.546442	-10.981843
33644	9.573179	-0.035333	2.308369	-0.021092	-0.015916	0.034894	1.000000	0.000029	0.000027	0.000016	-0.387761	-76.545539	-10.981502
33645	9.589934	-0.024553	2.280625	0.011295	-0.011453	0.044717	1.000000	0.000021	0.000011	0.000008	-0.385181	-76.546506	-10.984031
33646	9.568242	-0.019717	2.291131	-0.002771	-0.003726	0.026058	1.000000	0.000037	0.000022	0.000022	-0.387726	-76.546107	-10.980651
33647	9.573627	0.013826	2.286886	0.009330	0.028102	0.030254	1.000000	0.000035	0.000038	0.000015	-0.387019	-76.543937	-10.980315
33648	9.589619	-0.025094	2.281941	0.010099	-0.011699	0.044718	1.000000	0.000043	0.000005	0.000023	-0.389027	-76.545480	-10.976761
33649	9.552892	-0.022220	2.261310	0.021765	-0.011181	0.004195	1.000000	0.000027	0.000014	0.000010	-0.386848	-76.546036	-10.978088
33650	9.584723	-0.009408	2.264560	0.028424	0.000482	0.035887	1.000000	0.000027	0.000022	0.000007	-0.383119	-76.545658	-10.982386
33651	9.589389	-0.025426	2.282904	0.008903	-0.011948	0.044719	1.000000	0.000037	0.000022	0.000022	-0.385630	-76.545282	-10.980490
33652	9.584511	-0.009765	2.265455	0.027631	0.000314	0.035890	1.000000	0.000029	0.000027	0.000016	-0.386112	-76.544378	-10.980152
33653	9.582670	-0.018847	2.324768	-0.031290	0.002922	0.047915	1.000000	0.000023	-0.000005	0.000015	-0.386780	-76.547189	-10.979754
33654	9.578868	-0.043806	2.270760	0.014317	-0.031754	0.031690	1.000000	0.000047	0.000033	0.000015	-0.384376	-76.545588	-10.980260
33655	9.562673	-0.005209	2.276561	0.012774	0.007886	0.017229	1.000000	0.000023	0.000015	0.000017	-0.386065	-76.546051	-10.981793
33656	9.588968	-0.026211	2.284664	0.006909	-0.012355	0.044720	1.000000	0.000027	0.000022	0.000007	-0.382334	-76.545672	-10.986093
33657	9.562466	-0.005504	2.277428	0.011981	0.007722	0.017230	1.000000	0.000032	0.000031	0.000026	-0.386999	-76.544279	-10.980274
33658	9.588712	-0.026653	2.285733	0.006111	-0.012519	0.044721	1.000000	0.000029	0.000027	0.000016	-0.387478	-76.543374	-10.979939
33659	9.566988	-0.021851	2.296344	-0.007943	-0.004777	0.026054	1.000000	0.000030	0.000019	0.000020	-0.389571	-76.543416	-10.977416
33660	9.588541	-0.027062	2.286444	0.005314	-0.012682	0.044721	1.000000	0.000035	0.000010	0.000017	-0.389518	-76.544453	-10.976901
33661	9.577142	-0.004345	2.310012	-0.015341	0.014626	0.039083	1.000000	0.000022	0.000023	0.000014	-0.389570	-76.543994	-10.977535
33662	9.572247	0.011382	2.292668	0.003401	0.026878	0.030261	1.000000	0.000035	0.000038	0.000015	-0.388870	-76.541769	-10.977713
33663	9.577913	-0.045521	2.274751	0.010716	-0.032489	0.031692	1.000000	0.000027	0.000012	0.000030	-0.396326	-76.542603	-10.970305
33664	9.566510	-0.022875	2.298323	-0.009928	-0.005179	0.026052	1.000000	0.000027	0.000022	0.000007	-0.392593	-76.542224	-10.974607
33665	9.583296	-0.012140	2.270579	0.022454	-0.000760	0.035903	1.000000	0.000023	0.000015	0.000017	-0.394239	-76.542685	-10.973437
33666	9.566345	-0.023222	2.299006	-0.010725	-0.005339	0.026051	1.000000	0.000030	0.000019	0.000020	-0.396334	-76.542691	-10.971329
33667	9.587880	-0.028485	2.289200	0.002520	-0.013250	0.044721	1.000000	0.000030	0.000019	0.000020	-0.398459	-76.542714	-10.971516
33668	9.566189	-0.023734	2.299648	-0.011517	-0.005499	0.026050	1.000000	0.000031	0.000011	0.000023	-0.402174	-76.543631	-10.967631
33669	9.556635	0.007801	2.264043	0.026369	0.019069	0.008420	1.000000	0.000034	0.000018	0.000013	-0.400499	-76.543803	-10.968475
33670	9.577312	-0.046815	2.277255	0.007920	-0.033060	0.031693	1.000000	0.000032	0.000042	0.000002	-0.393962	-76.541193	-10.975070
33671	9.571410	0.009742	2.296167	-0.000164	0.026148	0.030264	1.000000	0.000023	0.000015	0.000017	-0.395585	-76.541648	-10.972891
33672	9.582663	-0.013358	2.273240	0.019674	-0.001337	0.035909	1.000000	0.000049	0.000017	0.000022	-0.396412	-76.541869	-10.969850
33673	9.560977	-0.008576	2.283663	0.005637	0.006419	0.017236	1.000000	0.000031	0.000011	0.000023	-0.400109	-76.542825	-10.965057
33674	9.587289	-0.029775	2.291657	-0.000271	-0.013820	0.044721	1.000000	0.000031	0.000011	0.000023	-0.403823	-76.543741	-10.961173
33675	9.565579	-0.024982	2.302173	-0.014307	-0.006061	0.026046	1.000000	0.000029	0.000027	0.000016	-0.404251	-76.542873	-10.960856
33676	9.565474	-0.025190	2.302608	-0.014701	-0.006142	0.026046	1.000000	0.000030	0.000019	0.000020	-0.406342	-76.542878	-10.958751
33677	9.586976	-0.030328	2.292957	-0.001473	-0.014063	0.044720	1.000000	0.000033	0.000034	0.000006	-0.401422	-76.541227	-10.963250
33678	9.592428	0.003303	2.288546	0.010695	0.017737	0.048940	1.000000	0.000023	0.000015	0.000017	-0.403073	-76.541639	-10.962408
33679	9.565173	-0.025455	2.303852	-0.015899	-0.006379	0.026044	1.000000	0.000032	0.000013	0.000004	-0.397220	-76.542331	-10.967373
33680	9.581985	-0.014729	2.276090	0.016489	-0.001994	0.035915	1.000000	0.000037	0.000022	0.000022	-0.399750	-76.541927	-10.964007
33681	9.560274	-0.009930	2.286598	0.002466	0.005770	0.017238	1.000000	0.000023	0.000015	0.000017	-0.401385	-76.542352	-10.964014
33682	9.564925	-0.026015	2.304877	-0.017085	-0.006620	0.026042	1.000000	0.000030	0.000019	0.000020	-0.403474	-76.542356	-10.961911
33683	9.560092	-0.010370	2.287357	0.001676	0.005608	0.017238	1.000000	0.000029	0.000027	0.000016	-0.403942	-76.541469	-10.960607
33684	9.575020	-0.008552	2.318778	-0.024463	0.012790	0.039067	1.000000	0.000023	0.000015	0.000017	-0.405592	-76.541880	-10.959767
33685	9.592866	-0.038573	2.254753	0.034706	-0.029825	0.041570	1.000000	0.000031	0.000021	-0.000000	-0.398085	-76.541671	-10.968230
33686	9.591754	0.002173	2.291373	0.007523	0.017084	0.048944	1.000000	0.000023	0.000015	0.000017	-0.399734	-76.542082	-10.967390
33687	9.549474	-0.028710	2.275629	0.006668	-0.014287	0.004212	1.000000	0.000035	0.000010	0.000017	-0.399643	-76.543171	-10.967071
33688	9.559673	-0.010897	2.289107	-0.000309	0.005203	0.017239	1.000000	0.000033	0.000034	0.000006	-0.394716	-76.541472	-10.971897
33689	9.585892	-0.031905	2.297465	-0.006258	-0.015035	0.044717	1.000000	0.000037	0.000022	0.000022	-0.397191	-76.541092	-10.967291
33690	9.581095	-0.016342	2.279820	0.012514	-0.002817	0.035920	1.000000	0.000031	0.000011	0.000023	-0.400902	-76.542007	-10.963409
33691	9.576294	-0.000663	2.262205	0.031277	0.009401	0.027125	1.000000	0.000033	0.000026	0.000009	-0.397588	-76.541281	-10.964936
33692	9.548995	-0.029377	2.277630	0.004682	-0.014695	0.004213	1.000000	0.000028	0.000014	0.000010	-0.395468	-76.541812	-10.967466
33693	9.563928	-0.027310	2.308994	-0.022960	-0.006544	0.026030	1.000000	0.000031	0.000021	-0.000000	-0.404357	-76.551203	-10.958224
33694	9.580789	-0.016612	2.281104	0.009420	-0.002184	0.035924	1.000000	0.000051	0.000001	0.000029	-0.408479	-76.553271	-10.951566
33695	9.585425	-0.032811	2.299401	-0.010155	-0.014556	0.044714	1.000000	0.000013	0.000033	0.000024	-0.414463	-76.551654	-10.949373
33696	9.580596	-0.017139	2.281910	0.008621	-0.002343	0.035924	1.000000	0.000039	0.000017	0.000006	-0.409055	-76.551924	-10.953959
33697	9.580518	-0.017155	2.282241	0.008223	-0.002424	0.035925	1.000000	0.000034	0.000018	0.000013	-0.407406	-76.552069	-10.956371
33698	9.580434	-0.017321	2.282591	0.007824	-0.002503	0.035925	1.000000	0.000030	0.000019	0.000020	-0.409536	-76.552098	-10.954217
33699	9.548405	-0.030268	2.280093	0.000398	-0.014296	0.004215	1.000000	0.000033	0.000026	0.000009	-0.406250	-76.551355	-10.956427
33700	9.563269	-0.028153	2.311715	-0.025756	-0.007084	0.026022	1.000000	0.000044	0.000036	0.000002	-0.398026	-76.549394	-10.963317
33701	9.569788	-0.035472	2.270997	0.013195	-0.022318	0.022904	1.000000	0.000016	0.000009	0.000034	-0.408881	-76.550521	-10.953245
33702	9.584723	-0.033700	2.302310	-0.012962	-0.015105	0.044710	1.000000	0.000046	0.000020	0.000009	-0.403912	-76.550383	-10.956570
33703	9.590222	-0.000112	2.297775	-0.000750	0.016677	0.048948	1.000000	0.000011	0.000021	0.000018	-0.407292	-76.550194	-10.956150
33704	9.590124	-0.000262	2.298185	-0.001149	0.016598	0.048948	1.000000	0.000027	0.000022	0.000007	-0.403584	-76.549840	-10.960414
33705	9.547795	-0.031084	2.282633	-0.002001	-0.014767	0.004214	1.000000	0.000037	0.000022	0.000022	-0.406154	-76.549486	-10.957407
33706	9.579648	-0.018432	2.285878	0.004621	-0.003137	0.035927	1.000000	0.000021	0.000011	0.000008	-0.403635	-76.550452	-10.961150
33707	9.611512	-0.005697	2.289080	0.011239	0.008491	0.067641	1.000000	0.000034	0.000018	0.000013	-0.401985	-76.550612	-10.959810
33708	9.579481	-0.018639	2.286578	0.003821	-0.003296	0.035927	1.000000	0.000029	0.000027	0.000016	-0.402483	-76.549729	-10.959443
33709	9.562451	-0.029639	2.315074	-0.029356	-0.007775	0.026012	1.000000	0.000038	0.000014	0.000026	-0.406712	-76.550260	-10.956982
33710	9.589653	-0.001343	2.300148	-0.003544	0.016127	0.048948	1.000000	0.000025	-0.000001	0.000024	-0.411659	-76.552519	-10.952523
33711	9.574618	-0.003571	2.269287	0.021810	0.008742	0.027151	1.000000	0.000020	0.000019	0.000004	-0.407463	-76.552612	-10.955525
33712	9.596193	-0.008716	2.259410	0.034996	0.000785	0.045847	1.000000	0.000028	0.000006	0.000014	-0.407011	-76.554080	-10.956222
33713	9.579200	-0.019573	2.287744	0.001813	-0.003690	0.035928	1.000000	0.000034	0.000018	0.000013	-0.405363	-76.554263	-10.958164
33714	9.562179	-0.030403	2.316188	-0.031363	-0.008160	0.026005	1.000000	0.000034	0.000018	0.000013	-0.403719	-76.554411	-10.959385
33715	9.589324	-0.001903	2.301520	-0.005546	0.015732	0.048948	1.000000	0.000022	0.000023	0.000014	-0.403761	-76.553920	-10.960305
33716	9.600561	-0.025073	2.278770	0.014197	-0.011809	0.054625	1.000000	0.000030	0.000019	0.000020	-0.405886	-76.553947	-10.958156
33717	9.557174	-0.015003	2.299492	-0.013362	0.003873	0.017230	1.000000	0.000033	0.000034	0.000006	-0.400938	-76.552301	-10.960270
33718	9.593682	-0.018114	2.320889	-0.025948	0.003229	0.057718	1.000000	0.000023	0.000015	0.000017	-0.402623	-76.552736	-10.959384
33719	9.578580	-0.020475	2.290333	-0.000586	-0.004166	0.035928	1.000000	0.000039	0.000035	0.000028	-0.407754	-76.550927	-10.953032
33720	9.578448	-0.020661	2.290880	-0.000985	-0.004245	0.035928	1.000000	0.000027	0.000022	0.000007	-0.404040	-76.550572	-10.957301
33721	9.578357	-0.020710	2.291264	-0.001384	-0.004324	0.035927	1.000000	0.000034	0.000018	0.000013	-0.402385	-76.550718	-10.958114
33722	9.595233	-0.010143	2.263478	0.030993	-0.000028	0.045861	1.000000	0.000023	0.000015	0.000017	-0.404069	-76.551153	-10.957228
33723	9.582883	-0.036912	2.309908	-0.021387	-0.016743	0.044693	1.000000	0.000030	0.000019	0.000020	-0.406174	-76.551170	-10.954865
33724	9.566763	0.001754	2.315471	-0.022706	0.022911	0.030246	1.000000	0.000033	0.000026	0.000009	-0.402896	-76.550406	-10.957874
33725	9.588298	-0.003399	2.305788	-0.009539	0.014945	0.048946	1.000000	0.000034	0.000018	0.000013	-0.401272	-76.550572	-10.959203
33726	9.562923	-0.023425	2.262129	0.022386	-0.012046	0.014145	1.000000	0.000033	0.000026	0.000009	-0.397994	-76.549808	-10.962212
33727	9.577810	-0.021319	2.293543	-0.003784	-0.004795	0.035927	1.000000	0.000032	0.000013	0.000003	-0.392162	-76.550510	-10.969139
33728	9.551424	-0.000491	2.285939	0.001467	0.015273	0.008462	1.000000	0.000030	0.000019	0.000020	-0.394282	-76.550536	-10.966994
33729	9.594611	-0.010934	2.266109	0.028191	-0.000592	0.045869	1.000000	0.000030	0.000019	0.000020	-0.396407	-76.550572	-10.963219
33730	9.587851	-0.003947	2.307646	-0.011537	0.014555	0.048945	1.000000	0.000022	0.000023	0.000014	-0.396457	-76.550095	-10.964122
33731	9.572786	-0.006157	2.276997	0.013834	0.007141	0.027167	1.000000	0.000034	0.000018	0.000013	-0.394777	-76.550237	-10.964901
33732	9.572700	-0.006398	2.277356	0.013436	0.007061	0.027168	1.000000	0.000026	0.000020	0.000027	-0.400664	-76.550141	-10.959389
33733	9.562308	-0.024417	2.264718	0.019594	-0.012605	0.014150	1.000000	0.000031	0.000021	-0.000000	-0.393243	-76.549884	-10.968223
33734	9.587474	-0.004491	2.309209	-0.013125	0.014243	0.048943	1.000000	0.000037	0.000022	0.000022	-0.395799	-76.549500	-10.964818
33735	9.572426	-0.006672	2.278505	0.012246	0.006821	0.027169	1.000000	0.000032	0.000013	0.000003	-0.389884	-76.550179	-10.969295
33736	9.577009	-0.022639	2.296871	-0.007374	-0.005504	0.035924	1.000000	0.000033	0.000023	0.000029	-0.396206	-76.549673	-10.962523
33737	9.572239	-0.007047	2.279291	0.011447	0.006661	0.027170	1.000000	0.000027	0.000022	0.000007	-0.392473	-76.549332	-10.967956
33738	9.576836	-0.022994	2.297591	-0.008175	-0.005661	0.035923	1.000000	0.000024	0.000007	0.000021	-0.395785	-76.550676	-10.965287
33739	9.576772	-0.023333	2.297851	-0.008576	-0.005740	0.035923	1.000000	0.000026	0.000020	0.000027	-0.401650	-76.550589	-10.958706
33740	9.576638	-0.023593	2.298408	-0.008975	-0.005818	0.035923	1.000000	0.000035	0.000038	0.000015	-0.400936	-76.548382	-10.958881
33741	9.576516	-0.023819	2.298914	-0.009378	-0.005896	0.035922	1.000000	0.000038	0.000014	0.000026	-0.405121	-76.548932	-10.954684
33742	9.582093	0.009754	2.294180	0.002907	0.025853	0.040190	1.000000	0.000032	0.000013	0.000003	-0.399266	-76.549608	-10.960538
33743	9.561460	-0.026329	2.268272	0.015596	-0.013406	0.014156	1.000000	0.000017	0.000001	0.000038	-0.411749	-76.551630	-10.949619
33744	9.597981	-0.029720	2.289554	0.002965	-0.014040	0.054631	1.000000	0.000021	0.000031	0.000010	-0.410157	-76.550240	-10.952319
33745	9.554616	-0.019591	2.310067	-0.024516	0.001700	0.017209	1.000000	0.000028	0.000006	0.000014	-0.409665	-76.551693	-10.953907
33746	9.582882	-0.032131	2.259107	0.027941	-0.021559	0.032869	1.000000	0.000030	0.000019	0.000020	-0.411780	-76.551716	-10.951767
33747	9.571441	-0.009241	2.282631	0.007460	0.005867	0.027175	1.000000	0.000034	0.000026	0.000009	-0.408553	-76.550963	-10.955516
33748	9.561018	-0.027101	2.270128	0.013601	-0.013804	0.014158	1.000000	0.000045	0.000028	0.000005	-0.401934	-76.549910	-10.960640
33749	9.592865	-0.014452	2.273469	0.020200	-0.002207	0.045888	1.000000	0.000012	0.000013	0.000021	-0.406932	-76.550630	-10.958514
33750	9.571165	-0.009463	2.283789	0.006266	0.005629	0.027176	1.000000	0.000032	0.000013	0.000003	-0.401075	-76.551306	-10.964369
33751	9.571107	-0.009651	2.284029	0.005866	0.005550	0.027176	1.000000	0.000027	0.000012	0.000030	-0.408606	-76.552132	-10.958540
33752	9.592699	-0.015087	2.274167	0.018999	-0.002448	0.045891	1.000000	0.000035	0.000010	0.000016	-0.408587	-76.553188	-10.957978
33753	9.580296	-0.041642	2.320536	-0.033419	-0.019054	0.044655	1.000000	0.000028	0.000014	0.000010	-0.406485	-76.553761	-10.960366
33754	9.570927	-0.010225	2.284783	0.004668	0.005313	0.027177	1.000000	0.000030	0.000019	0.000020	-0.408597	-76.553783	-10.958228
33755	9.582188	-0.033495	2.262027	0.024333	-0.022284	0.032877	1.000000	0.000023	0.000015	0.000017	-0.410273	-76.554203	-10.958096
33756	9.568709	-0.019224	2.344624	-0.054677	0.008234	0.038950	1.000000	0.000037	0.000022	0.000022	-0.412821	-76.553816	-10.954699
33757	9.592292	-0.015926	2.275874	0.017001	-0.002850	0.045894	1.000000	0.000019	0.000027	0.000001	-0.407012	-76.552957	-10.962249
33758	9.592188	-0.016135	2.276312	0.016602	-0.002930	0.045895	1.000000	0.000041	0.000019	0.000035	-0.415399	-76.552949	-10.952434
33759	9.553456	-0.021878	2.314837	-0.030094	0.000627	0.017194	1.000000	0.000020	0.000019	0.000004	-0.411220	-76.553010	-10.957406
33760	9.580696	0.006597	2.300019	-0.004249	0.024433	0.040193	1.000000	0.000035	0.000010	0.000016	-0.411201	-76.554065	-10.956845
33761	9.591971	-0.016648	2.277222	0.015401	-0.003172	0.045897	1.000000	0.000030	0.000019	0.000020	-0.413263	-76.554088	-10.954512
33762	9.527984	-0.042498	2.271723	0.001019	-0.026588	-0.017572	1.000000	0.000033	0.000023	0.000029	-0.419575	-76.553578	-10.947750
33763	9.570143	-0.012145	2.288056	0.001086	0.004599	0.027178	1.000000	0.000023	0.000015	0.000017	-0.421267	-76.554004	-10.948051
33764	9.574706	-0.028144	2.306394	-0.018568	-0.007689	0.035908	1.000000	0.000023	0.000015	0.000017	-0.422941	-76.554435	-10.947175
33765	9.565349	0.003235	2.270685	0.019543	0.016648	0.018450	1.000000	0.000048	0.000025	0.000018	-0.422102	-76.553771	-10.943626
33766	9.564203	-0.046431	2.294210	-0.012844	-0.027445	0.022892	1.000000	0.000011	0.000021	0.000018	-0.425466	-76.553577	-10.942437
33767	9.563094	-0.005686	2.330571	-0.039807	0.019607	0.030198	1.000000	0.000035	0.000010	0.000016	-0.425420	-76.554644	-10.941596
33768	9.597066	0.015588	2.274610	0.025338	0.028071	0.050189	1.000000	0.000043	0.000016	-0.000001	-0.416226	-76.555033	-10.949563
33769	9.606222	-0.016014	2.311131	-0.013586	0.003582	0.067641	1.000000	0.000025	0.000028	0.000023	-0.420441	-76.554049	-10.945364
33770	9.574147	-0.029020	2.308700	-0.020973	-0.008159	0.035903	1.000000	0.000029	0.000027	0.000016	-0.420908	-76.553159	-10.945025
33771	9.569409	-0.013340	2.291116	-0.002106	0.003965	0.027178	1.000000	0.000027	0.000022	0.000007	-0.417177	-76.552784	-10.950028
33772	9.595605	-0.034564	2.299427	-0.008263	-0.016253	0.054625	1.000000	0.000016	0.000009	0.000034	-0.428021	-76.553878	-10.940626
33773	9.554347	-0.016118	2.260618	0.022883	-0.003593	0.005442	1.000000	0.000034	0.000018	0.000013	-0.426393	-76.554015	-10.942509
33774	9.590783	-0.019128	2.282204	0.010204	-0.004212	0.045903	1.000000	0.000032	0.000042	0.000002	-0.419810	-76.551426	-10.949128
33775	9.569006	-0.014027	2.292794	-0.003699	0.003649	0.027178	1.000000	0.000023	0.000015	0.000017	-0.421432	-76.551859	-10.945726
33776	9.579204	0.003678	2.306232	-0.010615	0.023172	0.040192	1.000000	0.000036	0.000030	0.000019	-0.422330	-76.550559	-10.944130
33777	9.562074	-0.007104	2.334752	-0.043784	0.018844	0.030183	1.000000	0.000042	0.000013	0.000019	-0.422759	-76.551212	-10.942560
33778	9.594981	-0.035433	2.302015	-0.010667	-0.016724	0.054622	1.000000	0.000027	0.000022	0.000007	-0.419022	-76.550854	-10.946848
33779	9.568635	-0.014544	2.294340	-0.005299	0.003336	0.027177	1.000000	0.000028	0.000014	0.000010	-0.416902	-76.551439	-10.948066
33780	9.590231	-0.020015	2.284511	0.007799	-0.004690	0.045905	1.000000	0.000035	0.000007	0.000036	-0.426487	-76.552747	-10.937720
33781	9.568482	-0.014979	2.294976	-0.006097	0.003181	0.027177	1.000000	0.000029	0.000037	-0.000007	-0.415732	-76.550699	-10.949260
33782	9.600325	-0.002174	2.298388	0.000485	0.014756	0.058919	1.000000	0.000035	0.000010	0.000016	-0.415710	-76.551752	-10.948700
33783	9.568331	-0.015340	2.295601	-0.006893	0.003025	0.027176	1.000000	0.000030	0.000008	0.000043	-0.429097	-76.552938	-10.934963
33784	9.589916	-0.020851	2.285829	0.006199	-0.005005	0.045906	1.000000	0.000020	0.000019	0.000004	-0.424922	-76.552989	-10.940512
33785	9.557877	-0.033708	2.283226	-0.001179	-0.016736	0.014163	1.000000	0.000030	0.000019	0.000020	-0.427018	-76.553013	-10.936841
33786	9.557811	-0.033904	2.283501	-0.001578	-0.016815	0.014163	1.000000	0.000035	0.000010	0.000016	-0.426996	-76.554066	-10.936281
33787	9.563425	-0.000396	2.278774	0.010796	0.014894	0.018466	1.000000	0.000029	0.000027	0.000016	-0.427440	-76.553158	-10.936278
33788	9.567881	-0.016303	2.297471	-0.008883	0.002632	0.027175	1.000000	0.000035	0.000038	0.000015	-0.426687	-76.550946	-10.936486
33789	9.572414	-0.032327	2.315830	-0.028562	-0.009627	0.035882	1.000000	0.000026	-0.000009	0.000028	-0.433273	-76.554086	-10.932728
33790	9.595067	0.011592	2.283050	0.016585	0.026301	0.050213	1.000000	0.000037	0.000051	0.000021	-0.435072	-76.550429	-10.930114
33791	9.563003	-0.001286	2.280545	0.009210	0.014572	0.018468	1.000000	0.000034	-0.000003	0.000011	-0.432440	-76.552929	-10.931983
33792	9.567563	-0.017256	2.298787	-0.010474	0.002316	0.027174	1.000000	0.000026	0.000020	0.000027	-0.438303	-76.552823	-10.926491
33793	9.584509	-0.006899	2.271122	0.021897	0.006451	0.037203	1.000000	0.000034	0.000026	0.000009	-0.434983	-76.552040	-10.929447
33794	9.562758	-0.001846	2.281571	0.008021	0.014333	0.018469	1.000000	0.000030	0.000019	0.000020	-0.437081	-76.552058	-10.927321
33795	9.599223	-0.005101	2.302981	-0.004693	0.013723	0.058919	1.000000	0.000030	0.000019	0.000020	-0.439141	-76.552071	-10.927360
33796	9.567169	-0.017814	2.300421	-0.012065	0.002001	0.027172	1.000000	0.000042	0.000024	-0.000004	-0.428299	-76.551550	-10.937127
33797	9.567097	-0.017818	2.300719	-0.012465	0.001924	0.027171	1.000000	0.000024	0.000007	0.000021	-0.431606	-76.552899	-10.934979
33798	9.567032	-0.018105	2.300987	-0.012864	0.001845	0.027171	1.000000	0.000011	0.000021	0.000018	-0.434956	-76.552701	-10.933803
33799	9.572656	0.015172	2.296267	-0.000467	0.033543	0.031483	1.000000	0.000041	0.000019	0.000035	-0.443308	-76.552696	-10.925929
33800	9.566820	-0.018643	2.301864	-0.013663	0.001689	0.027170	1.000000	0.000037	0.000033	-0.000001	-0.434583	-76.551140	-10.934132
33801	9.583783	-0.008153	2.274180	0.018704	0.005805	0.037210	1.000000	0.000031	0.000011	0.000023	-0.438280	-76.552075	-10.928864
33802	9.566635	-0.018862	2.302634	-0.014461	0.001532	0.027169	1.000000	0.000034	0.000026	0.000009	-0.434965	-76.551306	-10.931904
33803	9.566550	-0.019025	2.302985	-0.014860	0.001454	0.027168	1.000000	0.000031	0.000011	0.000023	-0.438703	-76.552235	-10.928174
33804	9.566475	-0.019229	2.303295	-0.015258	0.001376	0.027167	1.000000	0.000041	0.000021	0.000015	-0.437465	-76.551966	-10.928158
33805	9.588048	-0.024660	2.293614	-0.002193	-0.006676	0.045907	1.000000	0.000012	0.000013	0.000021	-0.442457	-76.552679	-10.925440
33806	9.551437	-0.021919	2.272833	0.009742	-0.006232	0.005463	1.000000	0.000049	0.000017	0.000022	-0.443297	-76.552909	-10.922368
33807	9.573016	-0.027329	2.263136	0.022807	-0.014289	0.024204	1.000000	0.000023	0.000015	0.000017	-0.444928	-76.553328	-10.920006
33808	9.576447	-0.002020	2.317655	-0.023344	0.020675	0.040175	1.000000	0.000037	0.000033	-0.000001	-0.436197	-76.551772	-10.928213
33809	9.566027	-0.020037	2.305147	-0.017248	0.000983	0.027164	1.000000	0.000019	0.000016	0.000024	-0.441593	-76.552064	-10.923687
33810	9.587601	-0.025475	2.295472	-0.004189	-0.007073	0.045906	1.000000	0.000034	0.000018	0.000013	-0.439921	-76.552205	-10.924929
33811	9.582932	-0.009916	2.277758	0.014721	0.005001	0.037217	1.000000	0.000037	0.000022	0.000022	-0.442434	-76.551803	-10.920789
33812	9.555425	-0.038590	2.293391	-0.011953	-0.018864	0.014152	1.000000	0.000036	0.000030	0.000019	-0.443309	-76.550497	-10.919214
33813	9.572410	-0.028195	2.265684	0.020413	-0.014772	0.024209	1.000000	0.000021	0.000011	0.000008	-0.440774	-76.551461	-10.922045
33814	9.560967	-0.005126	2.289059	0.000073	0.012744	0.018475	1.000000	0.000021	0.000031	0.000010	-0.439137	-76.550066	-10.924784
33815	9.565444	-0.020977	2.307556	-0.019638	0.000514	0.027160	1.000000	0.000035	0.000010	0.000016	-0.439049	-76.551109	-10.924129
33816	9.601911	-0.024108	2.328906	-0.032388	-0.000083	0.067598	1.000000	0.000034	0.000018	0.000013	-0.437375	-76.551249	-10.925373
33817	9.582371	-0.010709	2.280114	0.012334	0.004519	0.037221	1.000000	0.000022	0.000023	0.000014	-0.437408	-76.550744	-10.928549
33818	9.586844	-0.026557	2.298617	-0.007383	-0.007706	0.045904	1.000000	0.000034	0.000018	0.000013	-0.435734	-76.550884	-10.929793
33819	9.592512	0.007095	2.293777	0.005053	0.023975	0.050231	1.000000	0.000032	0.000013	0.000003	-0.429872	-76.551557	-10.935834
33820	9.550191	-0.023589	2.278050	0.004177	-0.007346	0.005466	1.000000	0.000035	0.000010	0.000016	-0.429846	-76.552607	-10.935277
33821	9.588890	-0.018412	2.240154	0.049981	-0.011267	0.034282	1.000000	0.000021	0.000011	0.000008	-0.427234	-76.553591	-10.938159
33822	9.560367	-0.005797	2.291565	-0.003106	0.012110	0.018475	1.000000	0.000034	0.000026	0.000009	-0.423909	-76.552820	-10.941207
33823	9.567075	-0.013338	2.250819	0.035739	-0.003442	0.015537	1.000000	0.000009	0.000008	0.000012	-0.424601	-76.554079	-10.942555
33824	9.564804	-0.021723	2.310201	-0.023228	-0.000188	0.027152	1.000000	0.000047	0.000012	0.000012	-0.421240	-76.554842	-10.944107
33825	9.581855	-0.011307	2.282278	0.009142	0.003876	0.037225	1.000000	0.000028	0.000006	0.000014	-0.420807	-76.556277	-10.947265
33826	9.596665	-0.009276	2.313602	-0.017062	0.011280	0.058909	1.000000	0.000030	0.000019	0.000020	-0.422894	-76.556291	-10.945148
33827	9.586270	-0.027451	2.300999	-0.010986	-0.008419	0.045900	1.000000	0.000030	0.000019	0.000020	-0.424902	-76.556311	-10.944083
33828	9.571322	-0.029761	2.270260	0.014420	-0.015984	0.024217	1.000000	0.000039	0.000017	0.000006	-0.419458	-76.556574	-10.948695
33829	9.576987	0.003725	2.265455	0.026879	0.015683	0.028554	1.000000	0.000026	0.000020	0.000027	-0.425275	-76.556444	-10.943011
33830	9.596341	-0.010036	2.314945	-0.018657	0.010963	0.058906	1.000000	0.000035	0.000010	0.000016	-0.425246	-76.557492	-10.942455
33831	9.571067	-0.030206	2.271326	0.013220	-0.016226	0.024219	1.000000	0.000018	0.000035	-0.000003	-0.417710	-76.555751	-10.950971
33832	9.564161	-0.022760	2.312852	-0.026416	-0.000811	0.027144	1.000000	0.000042	0.000013	0.000019	-0.418112	-76.556389	-10.949160
33833	9.581209	-0.012521	2.284983	0.005948	0.003234	0.037227	1.000000	0.000031	0.000011	0.000023	-0.421850	-76.557315	-10.944885
33834	9.602783	-0.017922	2.275358	0.018975	-0.004849	0.055982	1.000000	0.000034	0.000026	0.000009	-0.418519	-76.556542	-10.947938
33835	9.595899	-0.010617	2.316773	-0.020654	0.010571	0.058903	1.000000	0.000031	0.000011	0.000023	-0.422224	-76.557440	-10.944017
33836	9.559337	-0.007764	2.295852	-0.008668	0.011001	0.018473	1.000000	0.000040	0.000009	0.000010	-0.418429	-76.558613	-10.946827
33837	9.580897	-0.012985	2.286286	0.004354	0.002915	0.037228	1.000000	0.000033	0.000034	0.000006	-0.413436	-76.556945	-10.949008
33838	9.580785	-0.013075	2.286756	0.003956	0.002836	0.037228	1.000000	0.000023	0.000015	0.000017	-0.415087	-76.557368	-10.948151
33839	9.563577	-0.023659	2.315254	-0.029203	-0.001356	0.027136	1.000000	0.000034	0.000026	0.000009	-0.411709	-76.556582	-10.951355
33840	9.580582	-0.013263	2.287604	0.003160	0.002675	0.037229	1.000000	0.000041	0.000021	0.000015	-0.410457	-76.556309	-10.951349
33841	9.580492	-0.013361	2.287981	0.002758	0.002597	0.037229	1.000000	0.000034	0.000018	0.000013	-0.408777	-76.556467	-10.953863
33842	9.580398	-0.013484	2.288375	0.002359	0.002517	0.037229	1.000000	0.000022	0.000023	0.000014	-0.408775	-76.555979	-10.954811
33843	9.548344	-0.026295	2.285750	-0.004991	-0.009173	0.005464	1.000000	0.000028	0.000014	0.000010	-0.406615	-76.556538	-10.957498
33844	9.580238	-0.013677	2.289044	0.001560	0.002358	0.037229	1.000000	0.000034	0.000018	0.000013	-0.404931	-76.556675	-10.958750
33845	9.601780	-0.018951	2.279575	0.014580	-0.005739	0.055989	1.000000	0.000033	0.000034	0.000006	-0.399927	-76.554947	-10.964024
33846	9.558316	-0.008591	2.300093	-0.012641	0.010214	0.018470	1.000000	0.000025	0.000028	0.000023	-0.404119	-76.553922	-10.960354
33847	9.601545	-0.019217	2.280564	0.013783	-0.005901	0.055990	1.000000	0.000032	0.000013	0.000003	-0.398235	-76.554581	-10.968118
33848	9.585599	0.019565	2.285564	0.012867	0.033771	0.041580	1.000000	0.000031	0.000011	0.000023	-0.401966	-76.555502	-10.964204
33849	9.569462	-0.032213	2.278051	0.006035	-0.017668	0.024223	1.000000	0.000028	0.000014	0.000010	-0.399809	-76.556049	-10.969219
33850	9.596839	-0.004015	2.263138	0.031938	0.005961	0.047337	1.000000	0.000031	0.000011	0.000023	-0.403539	-76.556970	-10.965305
33851	9.552216	-0.043023	2.306640	-0.027523	-0.021911	0.014115	1.000000	0.000028	0.000014	0.000010	-0.401336	-76.557503	-10.967788
33852	9.596733	-0.004385	2.263587	0.031142	0.005795	0.047340	1.000000	0.000024	0.000007	0.000021	-0.404636	-76.558835	-10.965129
33853	9.573744	-0.048546	2.297236	-0.014921	-0.030090	0.032875	1.000000	0.000045	0.000028	0.000005	-0.397961	-76.557780	-10.969395
33854	9.574854	0.000792	2.274456	0.016943	0.013659	0.028579	1.000000	0.000021	0.000031	0.000010	-0.396303	-76.556381	-10.972153
33855	9.568958	-0.032871	2.280157	0.003641	-0.018147	0.024224	1.000000	0.000046	0.000020	0.000009	-0.391302	-76.556216	-10.976649
33856	9.574666	0.000637	2.275250	0.016151	0.013499	0.028580	1.000000	0.000031	0.000011	0.000023	-0.395031	-76.557137	-10.972736
33857	9.589440	0.002641	2.306596	-0.010065	0.020950	0.050234	1.000000	0.000023	0.000015	0.000017	-0.396640	-76.557565	-10.972271
33858	9.568733	-0.033312	2.281097	0.002441	-0.018385	0.024224	1.000000	0.000038	0.000025	0.000002	-0.389534	-76.556915	-10.978695
33859	9.596080	-0.004998	2.266354	0.028345	0.005228	0.047348	1.000000	0.000030	0.000019	0.000020	-0.391613	-76.556955	-10.976280
33860	9.542316	-0.012525	2.273848	0.007613	0.001582	-0.003188	1.000000	0.000040	0.000037	0.000008	-0.387048	-76.554858	-10.979891
33861	9.578700	-0.015535	2.295459	-0.005214	0.001009	0.037228	1.000000	0.000021	0.000011	0.000008	-0.384516	-76.555829	-10.984311
33862	9.583156	-0.031336	2.313885	-0.024982	-0.011159	0.045871	1.000000	0.000049	0.000017	0.000022	-0.385340	-76.556052	-10.981250
33863	9.585364	-0.023344	2.255148	0.033192	-0.014728	0.034348	1.000000	0.000022	0.000031	0.000010	-0.383610	-76.554672	-10.984445
33864	9.568104	-0.033841	2.283723	0.000033	-0.018859	0.024223	1.000000	0.000035	0.000018	0.000013	-0.381919	-76.554807	-10.985702
33865	9.573807	-0.000446	2.278861	0.012563	0.012777	0.028586	1.000000	0.000026	0.000020	0.000027	-0.387739	-76.554679	-10.982627
33866	9.589577	-0.039562	2.274587	0.012619	-0.027058	0.042992	1.000000	0.000034	0.000026	0.000009	-0.384395	-76.553903	-10.985690
33867	9.588422	0.001499	2.310827	-0.014054	0.020166	0.050231	1.000000	0.000030	0.000019	0.000020	-0.386438	-76.553920	-10.984518
33868	9.589421	-0.039949	2.275238	0.011815	-0.027218	0.042992	1.000000	0.000017	0.000004	0.000018	-0.389304	-76.555661	-10.983118
33869	9.588303	0.001051	2.311321	-0.014847	0.020011	0.050230	1.000000	0.000048	0.000025	0.000018	-0.388501	-76.554962	-10.983052
33870	9.573348	-0.001226	2.280791	0.010576	0.012378	0.028589	1.000000	0.000018	0.000035	-0.000003	-0.380988	-76.553187	-10.992239
33871	9.577727	-0.016955	2.299507	-0.009199	0.000220	0.037225	1.000000	0.000037	0.000022	0.000022	-0.383480	-76.552762	-10.989456
33872	9.555960	-0.011993	2.309846	-0.022974	0.008188	0.018453	1.000000	0.000026	0.000020	0.000027	-0.389313	-76.552645	-10.983992
33873	9.573013	-0.001888	2.282192	0.009384	0.012137	0.028591	1.000000	0.000029	0.000027	0.000016	-0.389692	-76.551756	-10.981728
33874	9.545441	-0.030363	2.297791	-0.017333	-0.011602	0.005448	1.000000	0.000035	0.000018	0.000013	-0.388000	-76.551890	-10.982987
33875	9.577331	-0.017850	2.301146	-0.010799	-0.000094	0.037224	1.000000	0.000030	0.000019	0.000020	-0.390055	-76.551907	-10.981334
33876	9.572762	-0.002379	2.283248	0.008189	0.011899	0.028592	1.000000	0.000035	0.000010	0.000016	-0.390017	-76.552951	-10.980786
33877	9.566892	-0.036128	2.288762	-0.005165	-0.019887	0.024220	1.000000	0.000035	0.000018	0.000013	-0.388274	-76.553110	-10.981445
33878	9.572635	-0.002621	2.283780	0.007389	0.011739	0.028593	1.000000	0.000035	0.000010	0.000016	-0.388235	-76.554154	-10.980898
33879	9.588421	-0.041746	2.279418	0.007402	-0.028097	0.042994	1.000000	0.000037	0.000022	0.000022	-0.390742	-76.553755	-10.977744
33880	9.587273	-0.000646	2.315590	-0.019232	0.019150	0.050224	1.000000	0.000020	0.000019	0.000004	-0.386533	-76.553801	-10.983321
33881	9.576875	-0.018798	2.303035	-0.013200	-0.000565	0.037221	1.000000	0.000026	0.000020	0.000027	-0.392324	-76.553699	-10.977475
33882	9.566461	-0.036968	2.290550	-0.007167	-0.020280	0.024218	1.000000	0.000034	0.000026	0.000009	-0.388972	-76.552922	-10.980544
33883	9.576656	-0.019092	2.303946	-0.013995	-0.000723	0.037220	1.000000	0.000022	0.000023	0.000013	-0.388926	-76.552410	-10.981801
33884	9.598230	-0.024512	2.294424	-0.001033	-0.008859	0.055997	1.000000	0.000035	0.000018	0.000013	-0.387230	-76.552543	-10.983062
33885	9.571985	-0.003642	2.286500	0.004602	0.011182	0.028595	1.000000	0.000035	0.000018	0.000013	-0.385543	-76.552691	-10.982623
33886	9.593592	-0.009064	2.276850	0.017562	0.003043	0.047374	1.000000	0.000035	0.000010	0.000016	-0.385503	-76.553734	-10.982076
33887	9.576332	-0.019773	2.305284	-0.015594	-0.001037	0.037217	1.000000	0.000029	0.000025	0.000036	-0.395452	-76.553082	-10.971620
33888	9.556940	-0.006637	2.256426	0.029235	0.003361	0.006974	1.000000	0.000031	0.000021	-0.000000	-0.387907	-76.552842	-10.979306
33889	9.586417	-0.001956	2.319130	-0.022818	0.018447	0.050218	1.000000	0.000041	0.000029	0.000012	-0.385003	-76.551649	-10.981514
33890	9.576005	-0.020054	2.306640	-0.016790	-0.001270	0.037215	1.000000	0.000023	0.000015	0.000017	-0.386639	-76.552066	-10.980671
33891	9.561143	-0.022517	2.275814	0.008639	-0.008933	0.015595	1.000000	0.000028	0.000014	0.000010	-0.384541	-76.552619	-10.984333
33892	9.571365	-0.004660	2.289093	0.001816	0.010628	0.028597	1.000000	0.000022	0.000023	0.000013	-0.384519	-76.552126	-10.985299
33893	9.592950	-0.010209	2.279548	0.014907	0.003131	0.047379	1.000000	0.000038	0.000015	0.000026	-0.405301	-76.552551	-10.965770
33894	9.550568	-0.041012	2.264009	0.014005	-0.028164	0.002596	1.000000	0.000034	0.000026	0.000009	-0.401979	-76.551773	-10.968812
33895	9.592735	-0.010556	2.280452	0.014108	0.002972	0.047380	1.000000	0.000025	0.000028	0.000023	-0.406132	-76.550749	-10.965519
33896	9.592638	-0.010754	2.280858	0.013709	0.002893	0.047381	1.000000	0.000028	0.000014	0.000010	-0.404041	-76.551292	-10.968003
33897	9.582244	-0.028840	2.268305	0.019733	-0.016829	0.034381	1.000000	0.000022	0.000023	0.000013	-0.404055	-76.550785	-10.970026
33898	9.575232	-0.021370	2.309837	-0.019840	-0.001235	0.037210	1.000000	0.000036	0.000030	0.000019	-0.404920	-76.549468	-10.968456
33899	9.570644	-0.005864	2.292100	-0.000828	0.010728	0.028597	1.000000	0.000035	0.000018	0.000013	-0.403187	-76.549615	-10.969796
33900	9.570566	-0.006093	2.292429	-0.001226	0.010651	0.028597	1.000000	0.000019	0.000016	0.000024	-0.408616	-76.549904	-10.965563
33901	9.592145	-0.011661	2.282929	0.011715	0.002496	0.047383	1.000000	0.000048	0.000025	0.000018	-0.407744	-76.549211	-10.964758
33902	9.548690	-0.001223	2.303161	-0.015358	0.018570	0.009810	1.000000	0.000011	0.000021	0.000018	-0.411085	-76.549002	-10.963590
33903	9.570294	-0.006765	2.293559	-0.002412	0.010415	0.028597	1.000000	0.000035	0.000010	0.000016	-0.411081	-76.550003	-10.964509
33904	9.591890	-0.012319	2.283994	0.010525	0.002259	0.047385	1.000000	0.000018	0.000024	0.000020	-0.414849	-76.549382	-10.962089
33905	9.559801	-0.025175	2.281417	0.003200	-0.009385	0.015598	1.000000	0.000041	0.000021	0.000015	-0.413595	-76.549135	-10.961207
33906	9.591690	-0.012774	2.284833	0.009722	0.002103	0.047386	1.000000	0.000026	0.000020	0.000026	-0.419448	-76.549012	-10.955724
33907	9.569925	-0.007759	2.295097	-0.004004	0.010103	0.028597	1.000000	0.000030	0.000019	0.000020	-0.421475	-76.548991	-10.953395
33908	9.581238	-0.031318	2.272518	0.015338	-0.017703	0.034388	1.000000	0.000017	0.000004	0.000018	-0.424378	-76.550728	-10.951961
33909	9.565307	0.007494	2.277533	0.014628	0.021976	0.019994	1.000000	0.000047	0.000041	0.000011	-0.420205	-76.548202	-10.954108
33910	9.569632	-0.008130	2.296316	-0.005195	0.009870	0.028596	1.000000	0.000020	0.000019	0.000004	-0.416024	-76.548247	-10.959658
33911	9.591214	-0.013585	2.286825	0.007733	0.001706	0.047387	1.000000	0.000037	0.000023	0.000022	-0.418509	-76.547839	-10.957450
33912	9.573929	-0.024078	2.315203	-0.025419	-0.002311	0.037197	1.000000	0.000029	0.000006	0.000014	-0.418078	-76.549291	-10.958122
33913	9.559087	-0.026503	2.284392	0.000016	-0.010012	0.015598	1.000000	0.000034	0.000026	0.000009	-0.414708	-76.548524	-10.961049
33914	9.590970	-0.013992	2.287843	0.006534	0.001470	0.047388	1.000000	0.000030	0.000019	0.000020	-0.416799	-76.548527	-10.958926
33915	9.586420	0.001390	2.270023	0.025571	0.013410	0.038791	1.000000	0.000037	0.000023	0.000022	-0.419243	-76.548095	-10.957369
33916	9.590782	-0.014412	2.288631	0.005739	0.001311	0.047389	1.000000	0.000035	0.000018	0.000013	-0.417574	-76.548225	-10.958603
33917	9.563181	-0.042748	2.304105	-0.021012	-0.022345	0.024193	1.000000	0.000021	0.000011	0.000008	-0.414991	-76.549197	-10.962531
33918	9.590620	-0.014554	2.289310	0.004938	0.001153	0.047389	1.000000	0.000022	0.000031	0.000010	-0.413329	-76.547792	-10.965289
33919	9.586111	0.000885	2.271330	0.023973	0.013089	0.038795	1.000000	0.000037	-0.000006	0.000024	-0.416591	-76.550667	-10.961886
33920	9.568829	-0.009558	2.299655	-0.009176	0.009091	0.028594	1.000000	0.000041	0.000029	0.000012	-0.413682	-76.549475	-10.963686
33921	9.564271	0.006003	2.281882	0.009865	0.021027	0.020002	1.000000	0.000035	0.000018	0.000013	-0.411977	-76.549609	-10.964988
33922	9.580006	-0.033038	2.277681	0.009737	-0.018813	0.034393	1.000000	0.000035	0.000018	0.000013	-0.410306	-76.549739	-10.966225
33923	9.590252	-0.015393	2.290842	0.002941	0.000761	0.047390	1.000000	0.000016	0.000010	0.000034	-0.421168	-76.550799	-10.956885
33924	9.568524	-0.010437	2.300919	-0.010766	0.008783	0.028593	1.000000	0.000016	0.000012	0.000015	-0.422405	-76.551625	-10.957268
33925	9.590105	-0.015985	2.291454	0.002143	0.000603	0.047390	1.000000	0.000036	0.000031	0.000019	-0.423183	-76.550304	-10.956146
33926	9.594442	-0.031809	2.310125	-0.017702	-0.011482	0.055978	1.000000	0.000023	0.000015	0.000017	-0.424844	-76.550718	-10.955277
33927	9.563804	0.004578	2.283843	0.007489	0.020557	0.020005	1.000000	0.000049	0.000017	0.000022	-0.425699	-76.550925	-10.954901
33928	9.564768	-0.036921	2.248576	0.033181	-0.026933	0.012811	1.000000	0.000022	0.000023	0.000013	-0.425695	-76.550428	-10.955850
33929	9.589760	-0.016787	2.292892	0.000546	0.000291	0.047391	1.000000	0.000024	0.000007	0.000021	-0.428985	-76.551766	-10.953101
33930	9.579389	-0.034960	2.280244	0.006538	-0.019440	0.034394	1.000000	0.000035	0.000018	0.000013	-0.427311	-76.551895	-10.954339
33931	9.589590	-0.017113	2.293601	-0.000256	0.000134	0.047391	1.000000	0.000036	0.000031	0.000019	-0.428097	-76.550591	-10.953553
33932	9.563363	0.003723	2.285691	0.005501	0.020165	0.020007	1.000000	0.000035	0.000018	0.000013	-0.426422	-76.550720	-10.954792
33933	9.589420	-0.017439	2.294310	-0.001059	-0.000021	0.047390	1.000000	0.000024	0.000007	0.000021	-0.429723	-76.552069	-10.951280
33934	9.567662	-0.012228	2.304491	-0.014752	0.008013	0.028588	1.000000	0.000034	0.000026	0.000009	-0.426381	-76.551288	-10.954338
33935	9.583380	-0.051278	2.300328	-0.014932	-0.031828	0.042974	1.000000	0.000035	0.000010	0.000016	-0.426316	-76.552366	-10.953072
33936	9.584734	-0.002192	2.277129	0.017194	0.011740	0.038811	1.000000	0.000022	0.000031	0.000010	-0.424640	-76.550959	-10.955842
33937	9.574325	-0.020379	2.264648	0.023181	-0.007999	0.025816	1.000000	0.000031	0.000011	0.000023	-0.428282	-76.551876	-10.951979
33938	9.584572	-0.002586	2.277812	0.016397	0.011579	0.038813	1.000000	0.000035	0.000018	0.000013	-0.426605	-76.552004	-10.953220
33939	9.578605	-0.036271	2.283516	0.002921	-0.020152	0.034394	1.000000	0.000035	0.000018	0.000013	-0.424798	-76.552144	-10.952769
33940	9.588856	-0.018542	2.296655	-0.003864	-0.000573	0.047390	1.000000	0.000020	0.000008	0.000028	-0.431883	-76.553337	-10.946729
33941	9.567113	-0.013430	2.306763	-0.017548	0.007466	0.028584	1.000000	0.000035	0.000018	0.000013	-0.430167	-76.553462	-10.947561
33942	9.588725	-0.019074	2.297198	-0.004662	-0.000729	0.047389	1.000000	0.000027	0.000012	0.000030	-0.437677	-76.554243	-10.940270
33943	9.566948	-0.013819	2.307446	-0.018346	0.007313	0.028583	1.000000	0.000030	0.000029	-0.000004	-0.428447	-76.553103	-10.950754
33944	9.584118	-0.003564	2.279720	0.014004	0.011101	0.038817	1.000000	0.000035	0.000010	0.000016	-0.428436	-76.554140	-10.950177
33945	9.569317	-0.006154	2.248865	0.039453	0.003347	0.017251	1.000000	0.000030	0.000019	0.000020	-0.430509	-76.554144	-10.948764
33946	9.592804	-0.035197	2.316868	-0.025729	-0.013021	0.055959	1.000000	0.000030	0.000019	0.000020	-0.432588	-76.554143	-10.946650
33947	9.545988	-0.050367	2.283058	-0.007184	-0.032315	0.002591	1.000000	0.000035	0.000018	0.000013	-0.430794	-76.554284	-10.948357
33948	9.583786	-0.004067	2.281115	0.012409	0.010783	0.038819	1.000000	0.000042	0.000024	-0.000004	-0.419926	-76.553759	-10.958134
33949	9.595056	-0.027501	2.258814	0.031661	-0.017084	0.044634	1.000000	0.000026	0.000020	0.000026	-0.425716	-76.553638	-10.953592
33950	9.551620	-0.017004	2.278789	0.004713	-0.000909	0.007016	1.000000	0.000035	0.000010	0.000016	-0.425705	-76.554675	-10.953016
33951	9.568815	-0.007001	2.251000	0.037060	0.002860	0.017261	1.000000	0.000037	0.000023	0.000022	-0.428180	-76.554272	-10.950665
33952	9.592245	-0.035956	2.319173	-0.028138	-0.013482	0.055952	1.000000	0.000022	0.000031	0.000010	-0.426494	-76.552864	-10.953444
33953	9.571929	0.018644	2.305869	-0.009230	0.038181	0.033005	1.000000	0.000031	0.000021	-0.000000	-0.418935	-76.552636	-10.961568
33954	9.577295	-0.038336	2.288971	-0.003091	-0.021324	0.034392	1.000000	0.000022	0.000023	0.000013	-0.418919	-76.552137	-10.962528
33955	9.583108	-0.005060	2.283958	0.009619	0.010230	0.038823	1.000000	0.000034	0.000016	0.000033	-0.426814	-76.552493	-10.955865
33956	9.582987	-0.005283	2.284467	0.009221	0.010152	0.038824	1.000000	0.000040	0.000037	0.000008	-0.422214	-76.550388	-10.959502
33957	9.576976	-0.039000	2.290291	-0.004292	-0.021558	0.034391	1.000000	0.000024	0.000007	0.000021	-0.425507	-76.551723	-10.956703
33958	9.561134	-0.000305	2.295001	-0.004841	0.018131	0.020011	1.000000	0.000011	0.000021	0.000018	-0.428824	-76.551508	-10.955558
33959	9.608778	-0.026737	2.294154	0.001797	-0.010186	0.066197	1.000000	0.000044	0.000036	0.000001	-0.420447	-76.549560	-10.961788
33960	9.553913	0.007432	2.337013	-0.044752	0.033815	0.022748	1.000000	0.000023	0.000015	0.000017	-0.422099	-76.549970	-10.960928
33961	9.582499	-0.005998	2.286509	0.007217	0.009760	0.038826	1.000000	0.000023	0.000015	0.000017	-0.423688	-76.550413	-10.958930
33962	9.582431	-0.006143	2.286795	0.006819	0.009682	0.038826	1.000000	0.000028	0.000014	0.000010	-0.421581	-76.550952	-10.961425
33963	9.572038	-0.024373	2.274256	0.012784	-0.010064	0.025833	1.000000	0.000026	0.000020	0.000026	-0.427321	-76.550829	-10.955574
33964	9.582220	-0.006553	2.287676	0.006020	0.009523	0.038827	1.000000	0.000040	0.000037	0.000008	-0.422717	-76.548723	-10.959215
33965	9.571818	-0.024918	2.275176	0.011985	-0.010223	0.025834	1.000000	0.000031	0.000001	0.000047	-0.437676	-76.550782	-10.942991
33966	9.608165	-0.028255	2.296701	-0.001015	-0.010737	0.066197	1.000000	0.000046	0.000020	0.000009	-0.432655	-76.550624	-10.946344
33967	9.581994	-0.007240	2.288624	0.004820	0.009288	0.038828	1.000000	0.000020	0.000019	0.000004	-0.428474	-76.550694	-10.951891
33968	9.571593	-0.025356	2.276120	0.010784	-0.010456	0.025835	1.000000	0.000030	0.000019	0.000020	-0.430545	-76.550691	-10.949784
33969	9.549820	-0.020110	2.286295	-0.002867	-0.002386	0.007017	1.000000	0.000035	0.000018	0.000013	-0.428866	-76.550838	-10.950033
33970	9.593099	-0.031125	2.267064	0.023231	-0.018758	0.044655	1.000000	0.000018	0.000024	0.000020	-0.432600	-76.550209	-10.947644
33971	9.585996	-0.023524	2.308521	-0.016269	-0.002972	0.047377	1.000000	0.000029	0.000027	0.000016	-0.433034	-76.549277	-10.948149
33972	9.559848	-0.002756	2.300351	-0.010415	0.017051	0.020009	1.000000	0.000017	0.000004	0.000018	-0.435934	-76.551009	-10.946717
33973	9.571164	-0.026235	2.277914	0.008786	-0.010844	0.025837	1.000000	0.000031	0.000021	-0.000000	-0.428365	-76.550789	-10.952655
33974	9.585744	-0.023773	2.309564	-0.017471	-0.003203	0.047375	1.000000	0.000022	0.000031	0.000010	-0.426667	-76.549379	-10.955445
33975	9.581234	-0.008372	2.291798	0.001630	0.008666	0.038829	1.000000	0.000037	0.000023	0.000022	-0.429111	-76.548970	-10.953525
33976	9.585534	-0.024155	2.310431	-0.018271	-0.003357	0.047373	1.000000	0.000042	0.000014	0.000019	-0.429518	-76.549591	-10.951702
33977	9.570761	-0.026796	2.279598	0.007189	-0.011158	0.025838	1.000000	0.000030	0.000019	0.000020	-0.431572	-76.549585	-10.949297
33978	9.580988	-0.009025	2.292822	0.000436	0.008433	0.038829	1.000000	0.000030	0.000019	0.000020	-0.433641	-76.549580	-10.947193
33979	9.602594	-0.014609	2.283369	0.013267	0.000199	0.057653	1.000000	0.000035	0.000018	0.000013	-0.431931	-76.549741	-10.947581
33980	9.580794	-0.009250	2.293632	-0.000367	0.008279	0.038830	1.000000	0.000041	0.000029	0.000012	-0.428989	-76.548543	-10.949407
33981	9.570387	-0.027305	2.281162	0.005582	-0.011469	0.025838	1.000000	0.000021	0.000011	0.000008	-0.426433	-76.549523	-10.954367
33982	9.580654	-0.009397	2.294217	-0.001168	0.008124	0.038830	1.000000	0.000035	0.000010	0.000016	-0.426417	-76.550557	-10.953793
33983	9.590882	0.008377	2.307437	-0.007921	0.027717	0.051821	1.000000	0.000025	0.000028	0.000023	-0.430550	-76.549538	-10.949987
33984	9.580465	-0.009813	2.295006	-0.001969	0.007969	0.038830	1.000000	0.000054	0.000016	0.000015	-0.427620	-76.549875	-10.950271
33985	9.584775	-0.025543	2.313564	-0.021880	-0.004046	0.047365	1.000000	0.000031	0.000011	0.000023	-0.431275	-76.550776	-10.947187
33986	9.580320	-0.010069	2.295611	-0.002765	0.007811	0.038830	1.000000	0.000038	0.000025	0.000002	-0.424151	-76.550120	-10.953618
33987	9.569900	-0.028211	2.283191	0.003181	-0.011939	0.025839	1.000000	0.000026	0.000020	0.000026	-0.429960	-76.550005	-10.947093
33988	9.580108	-0.010477	2.296494	-0.003565	0.007656	0.038829	1.000000	0.000029	0.000027	0.000016	-0.430349	-76.549089	-10.946817
33989	9.565357	-0.013129	2.265620	0.021900	-0.000164	0.017307	1.000000	0.000036	0.000002	0.000020	-0.432012	-76.551030	-10.944242
33990	9.565324	-0.013466	2.265757	0.021502	-0.000243	0.017308	1.000000	0.000027	0.000012	0.000030	-0.439508	-76.551803	-10.936962
33991	9.579936	-0.011226	2.297205	-0.004759	0.007423	0.038829	1.000000	0.000020	0.000019	0.000004	-0.435252	-76.551840	-10.944610
33992	9.569527	-0.029286	2.284744	0.001186	-0.012328	0.025839	1.000000	0.000042	0.000022	0.000015	-0.433979	-76.551550	-10.944616
33993	9.575395	0.004120	2.279640	0.013966	0.019192	0.030300	1.000000	0.000023	0.000015	0.000017	-0.435585	-76.551960	-10.941804
33994	9.586684	-0.019575	2.257367	0.033127	-0.008733	0.036141	1.000000	0.000037	0.000023	0.000022	-0.438068	-76.551540	-10.938458
33995	9.579556	-0.011881	2.298788	-0.006358	0.007108	0.038828	1.000000	0.000029	0.000027	0.000016	-0.438305	-76.550649	-10.937880
33996	9.569130	-0.030177	2.286395	-0.000416	-0.012644	0.025838	1.000000	0.000026	0.000020	0.000026	-0.444122	-76.550512	-10.932429
33997	9.594029	-0.010079	2.330781	-0.033022	0.014705	0.060343	1.000000	0.000026	0.000020	0.000026	-0.449854	-76.550379	-10.926273
33998	9.568930	-0.030768	2.287223	-0.001215	-0.012802	0.025838	1.000000	0.000034	0.000026	0.000009	-0.446481	-76.549593	-10.929356
33999	9.568847	-0.030854	2.287569	-0.001617	-0.012880	0.025838	1.000000	0.000035	0.000010	0.000016	-0.446455	-76.550642	-10.928742
34000	9.561763	-0.023193	2.328764	-0.041092	0.002981	0.028517	1.000000	0.000019	0.000017	0.000024	-0.451851	-76.550917	-10.924539
34001	9.579011	-0.013358	2.301050	-0.008757	0.006641	0.038827	1.000000	0.000022	0.000023	0.000013	-0.451758	-76.550439	-10.924665
34002	9.568597	-0.031497	2.288606	-0.002818	-0.013113	0.025837	1.000000	0.000035	0.000018	0.000013	-0.450061	-76.550562	-10.925921
34003	9.596174	-0.003549	2.273705	0.023181	0.010220	0.049141	1.000000	0.000030	0.000019	0.000020	-0.452106	-76.550576	-10.924157
34004	9.568460	-0.031835	2.289172	-0.003620	-0.013267	0.025837	1.000000	0.000022	0.000003	0.000011	-0.451250	-76.552436	-10.926077
34005	9.578689	-0.014002	2.302385	-0.010354	0.006332	0.038826	1.000000	0.000024	0.000036	0.000019	-0.453664	-76.550482	-10.924276
34006	9.578559	-0.014105	2.302927	-0.010753	0.006255	0.038825	1.000000	0.000046	0.000020	0.000009	-0.448630	-76.550322	-10.927639
34007	9.578451	-0.014091	2.303372	-0.011150	0.006179	0.038825	1.000000	0.000034	0.000026	0.000009	-0.445260	-76.549529	-10.931544
34008	9.578374	-0.014244	2.303693	-0.011548	0.006102	0.038824	1.000000	0.000024	0.000007	0.000021	-0.448578	-76.550843	-10.928867
34009	9.573990	0.001076	2.285538	0.007586	0.017931	0.030309	1.000000	0.000035	0.000010	0.000016	-0.448517	-76.551913	-10.926406
34010	9.595627	-0.004573	2.276009	0.020385	0.009665	0.049148	1.000000	0.000023	0.000015	0.000017	-0.450154	-76.552318	-10.925558
34011	9.595551	-0.004727	2.276330	0.019988	0.009584	0.049149	1.000000	0.000035	0.000018	0.000013	-0.448418	-76.552432	-10.926943
34012	9.588420	0.003105	2.317658	-0.019476	0.025472	0.051811	1.000000	0.000022	0.000023	0.000013	-0.448374	-76.551928	-10.927926
34013	9.599685	-0.020521	2.295521	-0.000358	-0.002474	0.057661	1.000000	0.000048	0.000025	0.000018	-0.447529	-76.551251	-10.926177
34014	9.573545	0.000442	2.287399	0.005596	0.017541	0.030312	1.000000	0.000046	0.000020	0.000009	-0.442492	-76.551090	-10.929542
34015	9.563175	-0.017886	2.274780	0.011531	-0.002221	0.017324	1.000000	0.000016	0.000002	0.000038	-0.454952	-76.553021	-10.918718
