// Start Time: Unknown
// Update Rate: 100.0Hz
// Filter Profile: human (46.1)
// Firmware Version: 4.4.0
PacketCounter	Acc_X	Acc_Y	Acc_Z	FreeAcc_X	FreeAcc_Y	FreeAcc_Z	OriInc_q0	OriInc_q1	OriInc_q2	OriInc_q3	Roll	Pitch	Yaw
46325	9.604607	-0.480514	-2.200840	0.000000	-0.000000	0.052558	1.000000	-0.000024	0.000016	0.000022	-167.688533	-76.799691	143.665623
46326	9.604679	-0.480711	-2.200479	-0.000000	0.000000	0.052558	1.000000	-0.000001	0.000023	0.000004	-167.679008	-76.800933	143.657307
46327	9.571157	-0.482387	-2.192307	-0.002242	-0.002926	0.018179	1.000000	-0.000012	0.000016	0.000015	-167.680790	-76.801132	143.656452
46328	9.610437	-0.486945	-2.176686	-0.024810	0.004501	0.053160	1.000000	-0.000006	0.000023	0.000022	-167.668485	-76.803187	143.643065
46329	9.604910	-0.481467	-2.199309	-0.000888	-0.000078	0.052558	1.000000	-0.000013	0.000023	0.000011	-167.663760	-76.805265	143.636796
46330	9.587998	-0.499190	-2.199093	-0.004766	-0.018411	0.036909	1.000000	-0.000016	0.000026	0.000017	-167.654604	-76.807732	143.625493
46331	9.610680	-0.487663	-2.175453	-0.024863	0.004484	0.053160	1.000000	-0.000020	0.000013	0.000015	-167.648123	-76.808760	143.616475
46332	9.577130	-0.489364	-2.167387	-0.026271	0.001615	0.018781	1.000000	0.000001	0.000017	0.000009	-167.642152	-76.810400	143.610406
46333	9.571559	-0.483940	-2.190209	-0.002271	-0.002941	0.018179	1.000000	-0.000034	0.000009	0.000034	-167.628680	-76.810725	143.592534
46334	9.599627	-0.476870	-2.220697	0.023115	-0.004630	0.051956	1.000000	0.000010	0.000029	-0.000008	-167.628019	-76.814203	143.593064
46335	9.605297	-0.482797	-2.197324	-0.000852	-0.000066	0.052558	1.000000	-0.000009	0.000004	0.000025	-167.616447	-76.814032	143.580114
46336	9.588322	-0.500673	-2.197343	-0.004730	-0.018400	0.036909	1.000000	-0.000003	0.000020	0.000015	-167.607295	-76.815877	143.570372
46337	9.582786	-0.495142	-2.220049	0.019262	-0.022938	0.036307	1.000000	0.000001	0.000017	0.000009	-167.600692	-76.817515	143.563688
46338	9.588876	-0.467666	-2.188345	0.001632	0.015418	0.033828	1.000000	-0.000006	0.000023	0.000022	-167.588358	-76.819566	143.550273
46339	9.605531	-0.483880	-2.196065	-0.000842	-0.000020	0.052558	1.000000	-0.000005	0.000010	0.000002	-167.586482	-76.820480	143.547828
46340	9.605603	-0.483982	-2.195726	-0.000842	-0.000020	0.052558	1.000000	-0.000004	0.000026	0.000011	-167.579083	-76.823144	143.539751
46341	9.605695	-0.484276	-2.195257	-0.000844	0.000005	0.052558	1.000000	-0.000006	0.000023	0.000022	-167.566261	-76.825094	143.525860
46342	9.600174	-0.478953	-2.217881	0.023133	-0.004553	0.051956	1.000000	-0.000018	0.000023	0.000029	-167.552130	-76.826942	143.509181
46343	9.589215	-0.469037	-2.186565	0.001597	0.015499	0.033828	1.000000	-0.000016	0.000003	0.000013	-167.546981	-76.826714	143.502078
46344	9.583273	-0.496990	-2.217535	0.019227	-0.022857	0.036307	1.000000	-0.000009	0.000036	0.000013	-167.538152	-76.830402	143.491990
46345	9.605973	-0.485536	-2.193764	-0.000927	0.000071	0.052558	1.000000	-0.000002	0.000014	0.000020	-167.527296	-76.831045	143.480645
46346	9.600436	-0.480107	-2.216499	0.023050	-0.004487	0.051956	1.000000	-0.000003	0.000020	0.000015	-167.518120	-76.832887	143.470882
46347	9.595074	-0.475879	-2.162112	-0.022521	0.020140	0.034430	1.000000	-0.000007	0.000007	0.000013	-167.512112	-76.832732	143.463853
46348	9.589509	-0.470421	-2.184977	0.001456	0.015582	0.033828	1.000000	-0.000002	0.000014	0.000020	-167.501174	-76.833751	143.452415
46349	9.589159	-0.504318	-2.192853	-0.004936	-0.018226	0.036909	1.000000	-0.000020	0.000029	0.000024	-167.489675	-76.836242	143.438251
46350	9.589706	-0.471178	-2.183949	0.001411	0.015572	0.033828	1.000000	0.000010	0.000037	0.000018	-167.476267	-76.839918	143.425624
46351	9.617434	-0.497652	-2.222427	0.020416	-0.019922	0.070686	1.000000	-0.000014	0.000029	0.000006	-167.472640	-76.842870	143.420249
46352	9.595317	-0.476178	-2.237128	0.046864	-0.009016	0.051355	1.000000	-0.000013	0.000007	0.000032	-167.458140	-76.842868	143.403872
46353	9.606546	-0.488137	-2.190674	-0.001227	0.000147	0.052558	1.000000	-0.000008	0.000029	0.000017	-167.448623	-76.844935	143.393101
46354	9.584443	-0.466642	-2.205328	0.025220	0.011054	0.033227	1.000000	0.000002	0.000010	0.000014	-167.440838	-76.845750	143.385306
46355	9.629300	-0.476990	-2.166562	-0.021542	0.023052	0.068807	1.000000	0.000001	0.000033	0.000017	-167.431849	-76.847967	143.376109
46356	9.589771	-0.506522	-2.189664	-0.005320	-0.018173	0.036909	1.000000	-0.000012	0.000016	0.000015	-167.424061	-76.849395	143.366756
46357	9.584672	-0.467520	-2.204150	0.024855	0.011062	0.033228	1.000000	-0.000024	0.000016	0.000022	-167.416875	-76.849940	143.356612
46358	9.601323	-0.483932	-2.211819	0.022382	-0.004403	0.051957	1.000000	-0.000018	0.000023	0.000029	-167.402739	-76.851772	143.339933
46359	9.584819	-0.468190	-2.203368	0.024613	0.011078	0.033228	1.000000	-0.000001	0.000023	0.000004	-167.401817	-76.853041	143.338589
46360	9.607083	-0.490144	-2.187872	-0.001839	0.000172	0.052558	1.000000	-0.000016	0.000026	0.000017	-167.392633	-76.855479	143.327260
46361	9.601591	-0.484647	-2.210499	0.021953	-0.004356	0.051958	1.000000	-0.000003	0.000020	0.000015	-167.385558	-76.856345	143.319066
46362	9.579071	-0.496628	-2.233431	0.042051	-0.027246	0.035710	1.000000	-0.000025	0.000022	0.000017	-167.377722	-76.858374	143.308098
46363	9.601761	-0.485106	-2.209658	0.021631	-0.004303	0.051959	1.000000	-0.000004	0.000026	0.000011	-167.374080	-76.859363	143.303524
46364	9.590833	-0.475098	-2.178142	0.000122	0.015722	0.033828	1.000000	-0.000003	0.000020	0.000015	-167.364863	-76.861174	143.293703
46365	9.584887	-0.503142	-2.209156	0.017465	-0.022654	0.036311	1.000000	-0.000024	0.000016	0.000022	-167.360057	-76.861148	143.286037
46366	9.613152	-0.497419	-2.162282	-0.026617	0.004798	0.053155	1.000000	0.000003	0.000036	0.000006	-167.352944	-76.865016	143.279125
46367	9.596525	-0.480493	-2.231017	0.045049	-0.008776	0.051363	1.000000	-0.000016	0.000010	0.000038	-167.337185	-76.863609	143.260356
46368	9.585554	-0.470658	-2.199639	0.023543	0.011250	0.033231	1.000000	-0.000013	0.000023	0.000011	-167.331076	-76.865840	143.252575
46369	9.602239	-0.486844	-2.207197	0.020734	-0.004141	0.051961	1.000000	-0.000004	0.000026	0.000011	-167.327183	-76.866685	143.247507
46370	9.607897	-0.492914	-2.183669	-0.003244	0.000422	0.052557	1.000000	-0.000006	0.000023	0.000022	-167.314676	-76.868703	143.233894
46371	9.580254	-0.465537	-2.221410	0.046808	0.006791	0.032637	1.000000	-0.000018	0.000016	0.000004	-167.318540	-76.868514	143.235630
46372	9.602442	-0.487571	-2.206156	0.020355	-0.004110	0.051962	1.000000	-0.000001	0.000007	0.000025	-167.305736	-76.868686	143.222393
46373	9.608080	-0.493692	-2.182688	-0.004083	0.000328	0.052557	1.000000	-0.000009	0.000036	0.000013	-167.306416	-76.870657	143.223084
46374	9.591573	-0.477982	-2.174251	-0.001609	0.015791	0.033828	1.000000	-0.000022	0.000010	0.000027	-167.295078	-76.871059	143.208808
46375	9.619674	-0.471179	-2.204753	0.023370	0.014009	0.067613	1.000000	-0.000018	0.000023	0.000029	-167.288898	-76.871395	143.200884
46376	9.569100	-0.490517	-2.196896	0.018102	-0.007198	0.017585	1.000000	-0.000003	0.000020	0.000015	-167.279729	-76.873240	143.191148
46377	9.602781	-0.489314	-2.204291	0.019116	-0.004426	0.051964	1.000000	-0.000011	0.000016	0.000015	-167.279793	-76.873248	143.190398
46378	9.602395	-0.523034	-2.212278	0.012770	-0.038230	0.055043	1.000000	0.000001	0.000017	0.000009	-167.273857	-76.874903	143.184401
46379	9.591916	-0.479469	-2.172410	-0.002831	0.015669	0.033827	1.000000	-0.000009	0.000036	0.000013	-167.270108	-76.876224	143.179026
46380	9.580436	-0.501668	-2.226436	0.038778	-0.027248	0.035724	1.000000	-0.000019	0.000006	0.000020	-167.262018	-76.876449	143.168518
46381	9.592040	-0.479950	-2.171757	-0.003309	0.015710	0.033827	1.000000	-0.000013	0.000023	0.000011	-167.262374	-76.876304	143.167288
46382	9.569541	-0.491889	-2.194664	0.016800	-0.007187	0.017587	1.000000	0.000006	0.000024	0.000016	-167.251828	-76.878563	143.157164
46383	9.619871	-0.506552	-2.209836	0.015470	-0.019773	0.070695	1.000000	-0.000003	0.000035	-0.000006	-167.254519	-76.881535	143.159870
46384	9.569762	-0.492070	-2.193660	0.016564	-0.007186	0.017587	1.000000	-0.000032	0.000012	0.000022	-167.246343	-76.882407	143.147731
46385	9.586850	-0.474778	-2.193098	0.019899	0.011238	0.033239	1.000000	-0.000021	0.000019	0.000011	-167.248093	-76.881430	143.146575
46386	9.586911	-0.474899	-2.192806	0.019901	0.011232	0.033239	1.000000	-0.000008	0.000013	0.000009	-167.243545	-76.882689	143.140994
46387	9.603564	-0.491063	-2.200488	0.016888	-0.004350	0.051968	1.000000	-0.000013	0.000023	0.000011	-167.248178	-76.882876	143.145451
46388	9.587060	-0.475167	-2.192095	0.019368	0.011104	0.033240	1.000000	-0.000021	0.000019	0.000011	-167.243711	-76.884756	143.138419
46389	9.586673	-0.508942	-2.200060	0.012604	-0.022602	0.036318	1.000000	0.000007	0.000017	0.000020	-167.235762	-76.883899	143.130152
46390	9.620787	-0.474267	-2.199230	0.020336	0.014058	0.067620	1.000000	-0.000029	0.000009	0.000015	-167.230924	-76.884545	143.121853
46391	9.553612	-0.477417	-2.183447	0.017177	0.008227	-0.001138	1.000000	-0.000007	0.000029	0.000017	-167.228125	-76.885922	143.119115
46392	9.598366	-0.486525	-2.221773	0.040059	-0.008935	0.051385	1.000000	-0.000015	0.000020	0.000022	-167.217305	-76.887595	143.106311
46393	9.609511	-0.498470	-2.175290	-0.008226	0.000207	0.052554	1.000000	-0.000015	0.000020	0.000022	-167.210658	-76.887600	143.097562
46394	9.587448	-0.476952	-2.190010	0.018237	0.011104	0.033242	1.000000	-0.000011	0.000016	0.000015	-167.203002	-76.889081	143.088413
46395	9.581971	-0.471459	-2.212739	0.041528	0.006626	0.032661	1.000000	-0.000015	0.000020	0.000022	-167.201005	-76.887203	143.083437
46396	9.604192	-0.493507	-2.197198	0.015063	-0.004293	0.051971	1.000000	-0.000005	0.000032	0.000006	-167.195489	-76.890700	143.077217
46397	9.570640	-0.495061	-2.189153	0.012981	-0.007177	0.017593	1.000000	-0.000003	0.000003	0.000007	-167.203516	-76.887660	143.084776
46398	9.604320	-0.493943	-2.196540	0.014351	-0.004318	0.051972	1.000000	-0.000001	0.000030	0.000029	-167.186781	-76.890297	143.067509
46399	9.587374	-0.511684	-2.196363	0.009783	-0.022506	0.036322	1.000000	-0.000031	0.000022	0.000006	-167.193130	-76.888731	143.068548
46400	9.610466	-0.466654	-2.164401	-0.003999	0.034176	0.049476	1.000000	-0.000010	0.000010	0.000020	-167.183907	-76.889297	143.057895
46401	9.565348	-0.490288	-2.210933	0.035552	-0.011631	0.017017	1.000000	-0.000020	0.000013	0.000015	-167.188589	-76.887211	143.060153
46402	9.587980	-0.478854	-2.187265	0.015416	0.011251	0.033247	1.000000	-0.000003	0.000020	0.000015	-167.179791	-76.888982	143.050814
46403	9.616141	-0.471872	-2.217685	0.040506	0.009388	0.067051	1.000000	-0.000011	0.000016	0.000015	-167.179642	-76.889854	143.051075
46404	9.593601	-0.485137	-2.163691	-0.008839	0.015616	0.033824	1.000000	-0.000015	0.000003	0.000013	-167.175154	-76.889821	143.044698
46405	9.604742	-0.495603	-2.194322	0.012462	-0.004890	0.051975	1.000000	0.000009	0.000043	0.000013	-167.176362	-76.895178	143.051721
46406	9.610841	-0.468238	-2.162391	-0.005184	0.033441	0.049478	1.000000	-0.000036	0.000016	0.000029	-167.165544	-76.896224	143.036535
46407	9.582780	-0.474439	-2.208594	0.038289	0.006172	0.032674	1.000000	0.000002	0.000010	0.000014	-167.163845	-76.893470	143.032254
46408	9.605413	-0.462976	-2.184909	0.018152	0.029043	0.048903	1.000000	-0.000013	0.000023	0.000011	-167.158315	-76.895710	143.025172
46409	9.588426	-0.480571	-2.184931	0.013392	0.010474	0.033251	1.000000	-0.000017	0.000009	0.000009	-167.174037	-76.893121	143.040189
46410	9.599519	-0.491035	-2.215788	0.034857	-0.009565	0.051404	1.000000	-0.000002	0.000014	0.000020	-167.163816	-76.894085	143.029583
46411	9.599099	-0.524854	-2.223830	0.027738	-0.043556	0.054477	1.000000	-0.000011	0.000016	0.000015	-167.171994	-76.892561	143.037230
46412	9.589048	-0.447755	-2.175787	0.018906	0.044039	0.030182	1.000000	-0.000009	0.000019	0.000004	-167.170027	-76.894543	143.034229
46413	9.610746	-0.503518	-2.168662	-0.014503	-0.000983	0.052547	1.000000	-0.000024	0.000023	0.000047	-167.163249	-76.894259	143.026506
46414	9.599783	-0.492340	-2.214355	0.033421	-0.010113	0.051408	1.000000	-0.000001	0.000023	0.000004	-167.160010	-76.896644	143.023234
46415	9.583281	-0.476464	-2.205980	0.035118	0.004707	0.032687	1.000000	-0.000011	0.000016	0.000015	-167.178096	-76.896664	143.046149
46416	9.599889	-0.492716	-2.213813	0.032585	-0.010799	0.051410	1.000000	-0.000015	0.000003	0.000013	-167.174533	-76.896603	143.040841
46417	9.588859	-0.482764	-2.182544	0.010541	0.008685	0.033256	1.000000	-0.000015	0.000020	0.000022	-167.183155	-76.897542	143.053009
46418	9.605477	-0.499094	-2.190307	0.008008	-0.006832	0.051978	1.000000	-0.000007	0.000007	0.000013	-167.178370	-76.897910	143.047505
46419	9.617052	-0.476052	-2.212835	0.035425	0.006971	0.067072	1.000000	-0.000011	0.000016	0.000015	-167.176456	-76.897380	143.043218
46420	9.600055	-0.493765	-2.212858	0.031537	-0.011407	0.051413	1.000000	-0.000011	0.000016	0.000015	-167.170205	-76.898763	143.035662
46421	9.578047	-0.472226	-2.227494	0.056962	-0.000692	0.032132	1.000000	-0.000020	0.000029	0.000024	-167.178425	-76.897245	143.042451
46422	9.600205	-0.494397	-2.212066	0.030434	-0.011667	0.051416	1.000000	0.000002	0.000010	0.000014	-167.172440	-76.897966	143.036728
46423	9.583673	-0.478616	-2.203812	0.031729	0.003752	0.032699	1.000000	-0.000011	0.000016	0.000015	-167.184331	-76.893943	143.046396
46424	9.583722	-0.478928	-2.203532	0.031661	0.003704	0.032699	1.000000	-0.000002	0.000014	0.000020	-167.175346	-76.894806	143.037178
46425	9.583771	-0.479241	-2.203252	0.031628	0.003449	0.032699	1.000000	-0.000011	0.000016	0.000015	-167.173234	-76.897018	143.036469
46426	9.622976	-0.483896	-2.187522	0.008930	0.010800	0.067641	1.000000	-0.000003	0.000020	0.000015	-167.165966	-76.898747	143.028904
46427	9.611992	-0.473947	-2.156026	-0.013509	0.030721	0.049479	1.000000	-0.000016	0.000026	0.000017	-167.173371	-76.897066	143.034088
46428	9.601044	-0.462675	-2.201789	0.034384	0.021583	0.048365	1.000000	-0.000014	0.000013	0.000027	-167.162714	-76.897732	143.021757
46429	9.600593	-0.496451	-2.209921	0.027132	-0.012438	0.051425	1.000000	-0.000017	0.000009	0.000009	-167.178289	-76.895020	143.036424
46430	9.567533	-0.464606	-2.193479	0.032049	0.018452	0.013987	1.000000	0.000010	0.000037	0.000018	-167.167031	-76.898514	143.026253
46431	9.623337	-0.485243	-2.185636	0.006634	0.010304	0.067643	1.000000	-0.000005	0.000010	0.000002	-167.171303	-76.898543	143.030022
46432	9.595330	-0.491312	-2.231797	0.050688	-0.017164	0.050872	1.000000	-0.000018	0.000023	0.000029	-167.159313	-76.900215	143.015789
46433	9.606883	-0.469808	-2.176971	0.007864	0.025291	0.048927	1.000000	-0.000011	0.000016	0.000015	-167.178938	-76.897584	143.037043
46434	9.589890	-0.487590	-2.176938	0.003947	0.006901	0.033262	1.000000	-0.000006	0.000023	0.000022	-167.169034	-76.899421	143.026391
46435	9.589973	-0.487863	-2.176508	0.003436	0.006439	0.033263	1.000000	-0.000013	0.000023	0.000011	-167.180429	-76.900927	143.040565
46436	9.623666	-0.486694	-2.183867	0.004676	0.009228	0.067645	1.000000	-0.000010	0.000010	0.000020	-167.173534	-76.901350	143.032558
46437	9.607132	-0.471033	-2.175607	0.007036	0.024290	0.048930	1.000000	0.000007	0.000017	0.000020	-167.171729	-76.903603	143.035300
46438	9.584625	-0.483125	-2.198683	0.027108	0.001354	0.032713	1.000000	-0.000005	0.000017	0.000027	-167.160258	-76.904663	143.023232
46439	9.618347	-0.481988	-2.205909	0.027366	0.004559	0.067099	1.000000	-0.000014	0.000029	0.000006	-167.165105	-76.901470	143.020127
46440	9.590263	-0.489437	-2.174876	0.001965	0.006180	0.033263	1.000000	-0.000031	0.000006	0.000027	-167.157894	-76.901249	143.009346
46441	9.579312	-0.478155	-2.220780	0.049493	-0.002744	0.032172	1.000000	-0.000015	0.000020	0.000022	-167.150343	-76.900289	142.996791
46442	9.579373	-0.478456	-2.220449	0.049398	-0.002803	0.032172	1.000000	-0.000011	0.000016	0.000015	-167.145165	-76.901480	142.990373
46443	9.584916	-0.484652	-2.197075	0.025205	0.001518	0.032718	1.000000	-0.000005	0.000017	0.000027	-167.138676	-76.902491	142.984594
46444	9.629694	-0.493711	-2.235486	0.047913	-0.015704	0.085273	1.000000	-0.000018	0.000016	0.000004	-167.139850	-76.903920	142.983966
46445	9.585066	-0.485008	-2.196345	0.024426	0.001665	0.032720	1.000000	0.000005	0.000030	0.000011	-167.137167	-76.903016	142.977660
46446	9.607223	-0.507108	-2.180788	-0.002158	-0.009327	0.051979	1.000000	-0.000025	0.000022	0.000017	-167.131907	-76.904812	142.969591
46447	9.624369	-0.490006	-2.180024	0.001286	0.008778	0.067647	1.000000	-0.000018	0.000023	0.000029	-167.128097	-76.905674	142.965074
46448	9.596435	-0.496079	-2.225985	0.045332	-0.018686	0.050895	1.000000	-0.000005	0.000032	0.000006	-167.124970	-76.908908	142.961502
46449	9.607529	-0.507811	-2.179276	-0.002942	-0.009140	0.051979	1.000000	-0.000014	0.000029	0.000006	-167.115559	-76.908891	142.944007
46450	9.591086	-0.491835	-2.170702	-0.000528	0.006284	0.033263	1.000000	-0.000005	0.000032	0.000006	-167.112252	-76.912103	142.940211
46451	9.602297	-0.502191	-2.201204	0.020848	-0.013810	0.051438	1.000000	-0.000004	0.000026	0.000011	-167.107760	-76.914594	142.935265
46452	9.591277	-0.492171	-2.169784	-0.000717	0.006155	0.033263	1.000000	-0.000020	0.000013	0.000015	-167.103758	-76.915368	142.928999
46453	9.574789	-0.476214	-2.161400	0.000560	0.021729	0.014548	1.000000	-0.000002	0.000029	-0.000001	-167.118374	-76.912504	142.940660
46454	9.574893	-0.476315	-2.160921	0.000458	0.021681	0.014548	1.000000	-0.000025	0.000022	0.000017	-167.113039	-76.914241	142.932466
46455	9.580570	-0.480940	-2.214744	0.044858	-0.003628	0.032194	1.000000	0.000002	0.000010	0.000014	-167.137372	-76.912801	142.964437
46456	9.603158	-0.469620	-2.191075	0.024580	0.019181	0.048399	1.000000	-0.000024	0.000016	0.000022	-167.130617	-76.913704	142.954958
46457	9.580648	-0.481563	-2.214271	0.043064	-0.004111	0.032202	1.000000	-0.000010	0.000010	0.000020	-167.156191	-76.907932	142.982202
46458	9.597784	-0.464418	-2.213575	0.046748	0.014156	0.047874	1.000000	-0.000016	0.000026	0.000017	-167.150107	-76.910000	142.974302
46459	9.603345	-0.470498	-2.190066	0.020672	0.018205	0.048410	1.000000	-0.000025	0.000022	0.000017	-167.184924	-76.903972	143.009623
46460	9.619992	-0.486715	-2.197685	0.018006	0.002659	0.067121	1.000000	-0.000021	0.000019	0.000011	-167.183891	-76.905356	143.006313
46461	9.586443	-0.488277	-2.189600	0.016296	-0.000924	0.032737	1.000000	0.000005	0.000030	0.000011	-167.196740	-76.909080	143.027617
46462	9.592501	-0.460982	-2.157726	-0.001520	0.037339	0.030228	1.000000	-0.000005	0.000017	0.000027	-167.186346	-76.909851	143.016628
46463	9.603180	-0.504963	-2.196713	0.012473	-0.017104	0.051447	1.000000	-0.000014	0.000029	0.000006	-167.212952	-76.909705	143.047333
46464	9.586707	-0.489173	-2.188242	0.014829	-0.001701	0.032739	1.000000	-0.000018	0.000023	0.000029	-167.202796	-76.911077	143.035064
46465	9.570199	-0.473422	-2.179920	0.017641	0.013551	0.014031	1.000000	-0.000008	0.000013	0.000009	-167.198220	-76.914546	143.032390
46466	9.620451	-0.488322	-2.195316	0.016260	0.000827	0.067125	1.000000	-0.000010	0.000010	0.000020	-167.192625	-76.914736	143.025761
46467	9.586872	-0.490033	-2.187329	0.014930	-0.002046	0.032739	1.000000	-0.000007	0.000030	0.000017	-167.183167	-76.917503	143.014999
46468	9.598088	-0.500487	-2.217857	0.036254	-0.022136	0.050925	1.000000	-0.000004	0.000026	0.000011	-167.179562	-76.919756	143.011157
46469	9.621202	-0.455612	-2.185734	0.021426	0.034136	0.064099	1.000000	-0.000041	0.000009	0.000022	-167.195543	-76.917111	143.025418
46470	9.587069	-0.490621	-2.186334	0.013682	-0.002598	0.032741	1.000000	-0.000005	0.000010	0.000002	-167.198197	-76.917717	143.027945
46471	9.576168	-0.479155	-2.232347	0.061529	-0.011867	0.031704	1.000000	-0.000009	0.000004	0.000025	-167.193376	-76.917723	143.023789
46472	9.598258	-0.501321	-2.216929	0.034877	-0.022916	0.050929	1.000000	-0.000005	0.000032	0.000006	-167.191677	-76.920799	143.021795
46473	9.598855	-0.468044	-2.208161	0.040916	0.010472	0.047905	1.000000	-0.000010	0.000010	0.000020	-167.194975	-76.921662	143.027973
46474	9.581317	-0.519276	-2.216580	0.030669	-0.041752	0.035248	1.000000	-0.000016	0.000026	0.000017	-167.189806	-76.923733	143.021152
46475	9.621035	-0.490513	-2.192267	0.012598	-0.000759	0.067130	1.000000	-0.000016	0.000026	0.000017	-167.209991	-76.919012	143.039490
46476	9.587496	-0.492195	-2.184103	0.011164	-0.003686	0.032744	1.000000	0.000001	0.000033	0.000017	-167.202219	-76.921824	143.032019
46477	9.599230	-0.469040	-2.206318	0.037323	0.009325	0.047920	1.000000	-0.000006	0.000016	-0.000003	-167.244196	-76.918934	143.080437
46478	9.587170	-0.525929	-2.191579	0.003074	-0.038394	0.035762	1.000000	-0.000007	0.000030	0.000017	-167.238235	-76.921308	143.073844
46479	9.604853	-0.475400	-2.182380	0.011571	0.012638	0.048433	1.000000	-0.000005	0.000017	0.000027	-167.271572	-76.919001	143.117327
46480	9.604393	-0.509282	-2.190403	0.005085	-0.021286	0.051446	1.000000	-0.000003	0.000020	0.000015	-167.267512	-76.920328	143.113277
46481	9.587891	-0.493489	-2.182078	0.007282	-0.006357	0.032746	1.000000	-0.000011	0.000016	0.000015	-167.276329	-76.922250	143.127458
46482	9.599593	-0.470505	-2.204425	0.034852	0.007343	0.047931	1.000000	-0.000015	0.000020	0.000022	-167.270581	-76.923400	143.120287
46483	9.582563	-0.488183	-2.204514	0.031751	-0.010876	0.032239	1.000000	-0.000008	0.000013	0.000009	-167.253233	-76.927433	143.102222
46484	9.599189	-0.504361	-2.212207	0.029055	-0.026483	0.050939	1.000000	-0.000021	0.000019	0.000011	-167.253638	-76.928848	143.100624
46485	9.582697	-0.488316	-2.203902	0.030980	-0.010853	0.032242	1.000000	-0.000006	0.000016	-0.000003	-167.260255	-76.927449	143.104519
46486	9.599822	-0.470939	-2.203337	0.034570	0.007357	0.047932	1.000000	-0.000015	0.000003	0.000013	-167.260351	-76.926995	143.103260
46487	9.593910	-0.498943	-2.234473	0.051232	-0.031671	0.050440	1.000000	-0.000001	0.000030	0.000029	-167.274190	-76.927276	143.124084
46488	9.616546	-0.487651	-2.210488	0.030821	-0.008965	0.066633	1.000000	-0.000022	0.000025	0.000006	-167.276577	-76.929487	143.124404
46489	9.605488	-0.477588	-2.179105	0.009086	0.010680	0.048438	1.000000	0.000002	0.000010	0.000014	-167.280115	-76.930330	143.132039
46490	9.566463	-0.473327	-2.194240	0.031642	0.003236	0.013550	1.000000	-0.000004	0.000026	0.000011	-167.277953	-76.932540	143.129866
46491	9.583113	-0.489660	-2.201792	0.029208	-0.012092	0.032246	1.000000	-0.000015	0.000020	0.000022	-167.261962	-76.933985	143.110831
46492	9.622785	-0.461032	-2.177614	0.012564	0.028931	0.064131	1.000000	-0.000002	0.000014	0.000020	-167.256162	-76.934563	143.105179
46493	9.572096	-0.480216	-2.170082	0.006153	0.007529	0.014051	1.000000	-0.000006	0.000023	0.000022	-167.270874	-76.930932	143.120087
46494	9.566739	-0.474791	-2.192721	0.029952	0.002910	0.013555	1.000000	-0.000018	0.000023	0.000029	-167.262029	-76.932294	143.109358
46495	9.600477	-0.473825	-2.199861	0.030263	0.004796	0.047947	1.000000	0.000006	0.000024	0.000016	-167.285257	-76.933500	143.142963
46496	9.588870	-0.497357	-2.176893	0.002318	-0.009156	0.032746	1.000000	-0.000029	0.000009	0.000015	-167.285930	-76.933658	143.140828
46497	9.622595	-0.496230	-2.184116	0.002557	-0.006693	0.067135	1.000000	-0.000007	0.000030	0.000017	-167.297976	-76.933104	143.154071
46498	9.595260	-0.468715	-2.221844	0.052857	-0.000309	0.047460	1.000000	-0.000011	0.000016	0.000015	-167.295960	-76.934046	143.151213
46499	9.606201	-0.480714	-2.175274	0.003166	0.007451	0.048445	1.000000	-0.000007	0.000030	0.000017	-167.337163	-76.933230	143.202527
46500	9.622835	-0.496977	-2.182892	0.000429	-0.008197	0.067135	1.000000	-0.000017	0.000009	0.000009	-167.340213	-76.933545	143.204312
46501	9.583819	-0.492704	-2.198038	0.022042	-0.016437	0.032258	1.000000	-0.000019	0.000029	0.000024	-167.365343	-76.934102	143.237022
46502	9.606429	-0.481383	-2.174120	0.001562	0.006210	0.048446	1.000000	0.000013	0.000017	0.000002	-167.367629	-76.935413	143.241508
46503	9.623090	-0.497762	-2.181589	-0.002216	-0.009534	0.067133	1.000000	-0.000014	0.000036	0.000031	-167.374837	-76.933622	143.246781
46504	9.584108	-0.493658	-2.196563	0.020331	-0.016975	0.032261	1.000000	-0.000003	0.000020	0.000015	-167.372291	-76.934904	143.244486
46505	9.606687	-0.482312	-2.172770	-0.000266	0.005738	0.048447	1.000000	-0.000008	0.000013	0.000009	-167.374559	-76.934851	143.246763
46506	9.623296	-0.498693	-2.180465	-0.003022	-0.009923	0.067133	1.000000	-0.000005	0.000017	0.000027	-167.367040	-76.935517	143.239091
46507	9.567732	-0.478451	-2.187589	0.020691	-0.001382	0.013579	1.000000	-0.000004	0.000026	0.000011	-167.377536	-76.929547	143.241254
46508	9.584348	-0.494764	-2.195264	0.017920	-0.017037	0.032266	1.000000	-0.000019	0.000006	0.000020	-167.376160	-76.929135	143.238234
46509	9.606907	-0.483326	-2.171575	-0.003856	0.005493	0.048446	1.000000	-0.000006	0.000016	-0.000003	-167.405446	-76.924818	143.267578
46510	9.600993	-0.511112	-2.202806	0.013623	-0.032962	0.050952	1.000000	-0.000022	0.000010	0.000027	-167.401066	-76.924566	143.261071
46511	9.601592	-0.477870	-2.194111	0.018168	0.001638	0.047978	1.000000	-0.000001	0.000023	0.000004	-167.407073	-76.916240	143.254823
46512	9.584518	-0.495504	-2.194357	0.014171	-0.016818	0.032272	1.000000	-0.000026	-0.000004	0.000025	-167.405574	-76.914473	143.250743
46513	9.618156	-0.494556	-2.201929	0.014553	-0.014922	0.066664	1.000000	-0.000009	0.000004	0.000025	-167.425659	-76.913664	143.280147
46514	9.584514	-0.496281	-2.194200	0.013093	-0.017875	0.032272	1.000000	-0.000023	0.000016	0.000022	-167.423274	-76.914158	143.275541
46515	9.590819	-0.467370	-2.239756	0.063358	-0.008129	0.047063	1.000000	-0.000015	0.000003	0.000013	-167.432300	-76.905971	143.275838
46516	9.601156	-0.512724	-2.201722	0.008825	-0.033129	0.050957	1.000000	-0.000014	0.000029	0.000006	-167.435264	-76.908245	143.277846
46517	9.584686	-0.496889	-2.193307	0.009126	-0.017635	0.032277	1.000000	0.000007	0.000017	0.000020	-167.457780	-76.899198	143.298245
46518	9.612969	-0.489976	-2.223739	0.033998	-0.019458	0.066216	1.000000	-0.000015	0.000003	0.000013	-167.460320	-76.898318	143.299590
46519	9.584778	-0.497364	-2.192798	0.009351	-0.018129	0.032275	1.000000	0.000017	0.000030	0.000004	-167.452393	-76.905274	143.299427
46520	9.618539	-0.496279	-2.199870	0.010236	-0.015472	0.066668	1.000000	-0.000015	0.000020	0.000022	-167.448813	-76.906077	143.294580
46521	9.606905	-0.519890	-2.176854	-0.018891	-0.028860	0.051410	1.000000	-0.000003	0.000020	0.000015	-167.452143	-76.899749	143.290362
46522	9.585562	-0.464683	-2.183202	0.013617	0.015849	0.029307	1.000000	0.000001	0.000017	0.000009	-167.453575	-76.900484	143.292451
46523	9.585650	-0.464737	-2.182803	0.013087	0.016234	0.029307	1.000000	-0.000010	0.000026	-0.000001	-167.452600	-76.899519	143.284883
46524	9.574389	-0.486452	-2.236928	0.054509	-0.026696	0.031383	1.000000	-0.000009	0.000019	0.000004	-167.457141	-76.900653	143.288996
46525	9.597510	-0.441497	-2.204763	0.023846	0.036151	0.044605	1.000000	-0.000017	0.000009	0.000009	-167.581203	-76.801999	143.544024
46526	9.591634	-0.469173	-2.235885	0.041222	-0.002197	0.047183	1.000000	-0.000014	0.000029	0.000006	-167.585313	-76.803329	143.547828
46527	9.592254	-0.436046	-2.227118	0.046966	0.031551	0.044205	1.000000	-0.000016	0.000010	0.000038	-167.576336	-76.801783	143.540261
46528	9.613736	-0.491737	-2.220030	0.013788	-0.013447	0.066275	1.000000	-0.000011	0.000032	-0.000006	-167.585362	-76.803727	143.549387
46529	9.592441	-0.436398	-2.226243	0.046057	0.031376	0.044210	1.000000	-0.000015	0.000020	0.000022	-167.583518	-76.803526	143.549861
46530	9.619332	-0.498106	-2.195984	-0.011125	-0.009204	0.066675	1.000000	-0.000011	0.000033	0.000024	-167.578137	-76.804852	143.544255
46531	9.580933	-0.460412	-2.202564	0.017531	0.017310	0.028905	1.000000	-0.000016	0.000026	0.000017	-167.577198	-76.805510	143.541548
46532	9.602985	-0.482690	-2.186949	-0.009461	0.006143	0.047989	1.000000	-0.000019	0.000029	0.000024	-167.573227	-76.806434	143.536375
46533	9.597670	-0.477153	-2.209607	0.014092	0.001629	0.047592	1.000000	-0.000023	0.000016	0.000022	-167.572502	-76.805883	143.534940
46534	9.619698	-0.499425	-2.194082	-0.012901	-0.009540	0.066673	1.000000	-0.000007	0.000030	0.000017	-167.570283	-76.807001	143.532987
46535	9.574946	-0.490838	-2.155083	-0.035903	0.007474	0.013988	1.000000	-0.000011	0.000016	0.000015	-167.571185	-76.806604	143.533616
46536	9.608652	-0.489841	-2.162376	-0.035256	0.010215	0.048380	1.000000	-0.000022	0.000010	0.000027	-167.568286	-76.805276	143.529199
46537	9.619858	-0.500419	-2.193153	-0.014250	-0.009799	0.066670	1.000000	-0.000015	0.000020	0.000022	-167.566034	-76.805117	143.526298
46538	9.603368	-0.484701	-2.184821	-0.012139	0.005623	0.047986	1.000000	-0.000015	0.000020	0.000022	-167.563476	-76.805012	143.523114
46539	9.597471	-0.512573	-2.216017	0.005275	-0.032712	0.050568	1.000000	-0.000020	0.000013	0.000015	-167.565041	-76.804385	143.522461
46540	9.603461	-0.485277	-2.184286	-0.012993	0.005460	0.047985	1.000000	-0.000002	0.000014	0.000020	-167.562484	-76.803652	143.520829
46541	9.602959	-0.519022	-2.192363	-0.019598	-0.028455	0.050956	1.000000	-0.000013	0.000023	0.000011	-167.564537	-76.804178	143.522052
46542	9.609414	-0.490061	-2.237568	0.031606	-0.019039	0.065893	1.000000	-0.000007	0.000030	0.000017	-167.562318	-76.805297	143.520099
46543	9.609070	-0.492020	-2.160019	-0.038308	0.009638	0.048369	1.000000	-0.000022	0.000010	0.000027	-167.559288	-76.803934	143.516299
46544	9.581837	-0.464369	-2.197797	0.011822	0.016233	0.028915	1.000000	0.000007	0.000033	-0.000001	-167.563735	-76.805861	143.522885
46545	9.592147	-0.509776	-2.159513	-0.042787	-0.008856	0.032654	1.000000	-0.000016	0.000026	0.000017	-167.562481	-76.806637	143.520686
46546	9.626492	-0.475262	-2.158082	-0.035985	0.027722	0.064077	1.000000	-0.000007	0.000030	0.000017	-167.560262	-76.807756	143.518733
46547	9.553297	-0.505704	-2.174068	-0.020683	-0.016255	-0.002127	1.000000	-0.000013	0.000023	0.000011	-167.561958	-76.808412	143.520251
46548	9.598346	-0.482947	-2.126706	-0.061902	0.029147	0.030061	1.000000	-0.000010	0.000010	0.000020	-167.560814	-76.807278	143.519055
46549	9.592436	-0.510861	-2.157970	-0.044473	-0.009195	0.032646	1.000000	-0.000023	0.000016	0.000022	-167.559334	-76.806913	143.516979
46550	9.593047	-0.477676	-2.149304	-0.038742	0.024561	0.029677	1.000000	0.000002	0.000010	0.000014	-167.559942	-76.805974	143.519001
46551	9.565246	-0.483321	-2.195602	0.005251	-0.002682	0.013205	1.000000	-0.000007	0.000022	-0.000008	-167.570197	-76.807038	143.531224
46552	9.598963	-0.482118	-2.202904	0.005873	0.000056	0.047600	1.000000	-0.000018	0.000000	0.000025	-167.568715	-76.804681	143.528798
46553	9.581859	-0.499710	-2.203232	0.001848	-0.018367	0.031886	1.000000	-0.000018	0.000016	0.000004	-167.575445	-76.804714	143.536365
46554	9.615596	-0.498517	-2.210443	0.002466	-0.015630	0.066281	1.000000	-0.000011	0.000016	0.000015	-167.576052	-76.804403	143.536837
46555	9.621018	-0.504607	-2.187098	-0.021955	-0.011305	0.066655	1.000000	-0.000008	0.000013	0.000009	-167.579325	-76.804000	143.539849
46556	9.627430	-0.475569	-2.232638	0.029234	-0.001867	0.081623	1.000000	-0.000015	0.000003	0.000013	-167.582756	-76.802257	143.542743
46557	9.604531	-0.488977	-2.178748	-0.020242	0.004039	0.047973	1.000000	-0.000006	0.000023	0.000022	-167.578216	-76.802710	143.539046
46558	9.599208	-0.483607	-2.201510	0.003331	-0.000448	0.047602	1.000000	-0.000016	0.000010	0.000038	-167.568997	-76.801170	143.528880
46559	9.593862	-0.478169	-2.224392	0.026946	-0.004926	0.047232	1.000000	0.000002	0.000010	0.000014	-167.568777	-76.800397	143.529040
46560	9.582736	-0.468139	-2.193074	0.005054	0.014905	0.028923	1.000000	-0.000009	0.000019	0.000004	-167.574296	-76.800700	143.534830
46561	9.565676	-0.485668	-2.193211	0.001035	-0.003510	0.013206	1.000000	-0.000011	0.000016	0.000015	-167.574593	-76.800482	143.535943
46562	9.600007	-0.451084	-2.191912	0.007798	0.033069	0.044642	1.000000	-0.000013	0.000023	0.000011	-167.576950	-76.800993	143.538082
46563	9.560455	-0.480097	-2.215595	0.024181	-0.008082	0.012840	1.000000	-0.000008	0.000013	0.000009	-167.580731	-76.800525	143.542775
46564	9.572289	-0.457064	-2.237858	0.051354	0.005768	0.028195	1.000000	-0.000006	0.000023	0.000022	-167.576763	-76.800823	143.539159
46565	9.577744	-0.463169	-2.214337	0.026898	0.010079	0.028561	1.000000	0.000012	0.000023	-0.000003	-167.582795	-76.801705	143.548409
46566	9.622654	-0.472340	-2.252622	0.048950	-0.007096	0.081272	1.000000	-0.000033	0.000003	0.000038	-167.576406	-76.799363	143.539120
46567	9.571865	-0.491316	-2.245450	0.043916	-0.028316	0.031159	1.000000	-0.000018	0.000016	0.000004	-167.582552	-76.799372	143.541787
46568	9.611558	-0.462589	-2.221095	0.026652	0.012660	0.062961	1.000000	-0.000003	0.000020	0.000015	-167.581746	-76.799462	143.541823
46569	9.600325	-0.484598	-2.275323	0.068085	-0.030058	0.065198	1.000000	0.000007	0.000017	0.000020	-167.577767	-76.799117	143.540094
46570	9.594593	-0.480642	-2.220704	0.022182	-0.005836	0.047243	1.000000	-0.000008	0.000036	0.000013	-167.577300	-76.801059	143.539812
46571	9.578180	-0.464862	-2.212094	0.024309	0.009596	0.028568	1.000000	-0.000011	0.000033	0.000024	-167.571863	-76.802399	143.535324
46572	9.600198	-0.487220	-2.196389	-0.002703	-0.001609	0.047602	1.000000	-0.000007	0.000030	0.000017	-167.569644	-76.803519	143.533375
46573	9.594977	-0.481562	-2.218844	0.020867	-0.006085	0.047246	1.000000	-0.000008	0.000036	0.000013	-167.569261	-76.805437	143.533754
46574	9.600412	-0.488023	-2.195276	-0.003584	-0.001777	0.047601	1.000000	-0.000023	0.000017	0.000052	-167.553720	-76.804313	143.516288
46575	9.600500	-0.488535	-2.194775	-0.004020	-0.001851	0.047601	1.000000	0.000004	0.000036	0.000006	-167.554753	-76.806422	143.518089
46576	9.600621	-0.488769	-2.194194	-0.004458	-0.001935	0.047601	1.000000	-0.000028	0.000026	0.000024	-167.552200	-76.806947	143.513364
46577	9.595346	-0.483180	-2.216895	0.019097	-0.006405	0.047249	1.000000	-0.000023	0.000016	0.000022	-167.551294	-76.806334	143.509740
46578	9.606070	-0.495343	-2.170510	-0.029368	0.002290	0.047951	1.000000	-0.000010	0.000010	0.000020	-167.550155	-76.805201	143.508550
46579	9.584214	-0.473606	-2.185425	-0.003233	0.013340	0.028926	1.000000	-0.000020	0.000013	0.000015	-167.552108	-76.804440	143.508570
46580	9.589037	-0.513250	-2.170404	-0.033827	-0.016202	0.032225	1.000000	-0.000007	0.000030	0.000017	-167.549888	-76.805560	143.506619
46581	9.583780	-0.507516	-2.193068	-0.010249	-0.020670	0.031876	1.000000	-0.000030	0.000015	0.000010	-167.554959	-76.805256	143.509437
46582	9.606856	-0.494536	-2.246350	0.038353	-0.026715	0.065579	1.000000	-0.000025	0.000022	0.000017	-167.555570	-76.805574	143.508367
46583	9.595696	-0.484806	-2.215023	0.016469	-0.006884	0.047253	1.000000	-0.000016	0.000010	0.000038	-167.546120	-76.804013	143.497790
46584	9.601107	-0.491106	-2.191546	-0.007983	-0.002582	0.047599	1.000000	-0.000005	0.000032	0.000006	-167.548809	-76.805748	143.501156
46585	9.617771	-0.507435	-2.198921	-0.010994	-0.018175	0.066271	1.000000	-0.000019	0.000029	0.000024	-167.544752	-76.806614	143.495907
46586	9.601316	-0.491670	-2.190504	-0.008865	-0.002741	0.047598	1.000000	-0.000003	0.000020	0.000015	-167.543946	-76.806704	143.495944
46587	9.584263	-0.509337	-2.190533	-0.012882	-0.021142	0.031872	1.000000	-0.000007	0.000030	0.000017	-167.541569	-76.807734	143.492754
46588	9.601508	-0.492276	-2.189525	-0.009750	-0.002895	0.047597	1.000000	0.000006	0.000024	0.000016	-167.539346	-76.808225	143.492350
46589	9.578567	-0.505639	-2.135479	-0.059227	0.002979	0.013877	1.000000	-0.000013	0.000023	0.000011	-167.541722	-76.808666	143.495861
46590	9.585125	-0.476612	-2.180770	-0.008067	0.012461	0.028925	1.000000	-0.000011	0.000016	0.000015	-167.542333	-76.808356	143.496339
46591	9.601720	-0.493079	-2.188413	-0.011071	-0.003130	0.047595	1.000000	-0.000005	0.000017	0.000027	-167.536322	-76.807805	143.490975
46592	9.568083	-0.494541	-2.180692	-0.012503	-0.006026	0.013197	1.000000	-0.000014	0.000012	-0.000003	-167.546424	-76.807501	143.500864
46593	9.590593	-0.483151	-2.156939	-0.033394	0.016604	0.029259	1.000000	-0.000007	0.000007	0.000013	-167.548378	-76.806142	143.504677
46594	9.601841	-0.493501	-2.187788	-0.012385	-0.003379	0.047594	1.000000	-0.000008	0.000013	0.000009	-167.552151	-76.805624	143.508808
46595	9.597166	-0.454360	-2.202156	0.017327	0.026024	0.044318	1.000000	-0.000002	0.000014	0.000020	-167.549233	-76.804862	143.505898
46596	9.585363	-0.477943	-2.179433	-0.010686	0.011987	0.028923	1.000000	-0.000015	0.000003	0.000013	-167.552676	-76.803121	143.508804
46597	9.608422	-0.464953	-2.232929	0.037890	0.005961	0.062659	1.000000	-0.000017	0.000009	0.000009	-167.557923	-76.802177	143.513982
46598	9.602618	-0.460949	-2.178383	-0.008010	0.030150	0.044651	1.000000	0.000010	0.000037	0.000018	-167.552869	-76.804098	143.511151
46599	9.597388	-0.455218	-2.201012	0.015574	0.025693	0.044322	1.000000	-0.000005	0.000010	0.000002	-167.559671	-76.803395	143.518594
46600	9.597442	-0.455500	-2.200717	0.015135	0.025609	0.044323	1.000000	-0.000030	0.000023	0.000035	-167.552216	-76.803308	143.508562
46601	9.580354	-0.473262	-2.200873	0.011150	0.007195	0.028594	1.000000	-0.000011	0.000016	0.000015	-167.552753	-76.803026	143.509840
46602	9.597550	-0.456151	-2.200111	0.014264	0.025442	0.044324	1.000000	0.000002	0.000010	0.000014	-167.553361	-76.802086	143.511863
46603	9.596967	-0.489923	-2.208383	0.007706	-0.008500	0.047263	1.000000	-0.000010	0.000010	0.000020	-167.552315	-76.800990	143.512194
46604	9.602324	-0.496237	-2.185046	-0.016750	-0.004213	0.047587	1.000000	0.000007	0.000017	0.000020	-167.548345	-76.800659	143.510126
46605	9.603010	-0.463054	-2.176203	-0.011064	0.029559	0.044650	1.000000	-0.000012	0.000023	0.000011	-167.550586	-76.801172	143.510521
46606	9.619606	-0.479314	-2.183868	-0.014077	0.013952	0.063317	1.000000	-0.000029	0.000009	0.000015	-167.554034	-76.800061	143.511885
46607	9.591860	-0.485138	-2.230304	0.029981	-0.013203	0.046943	1.000000	-0.000005	0.000017	0.000027	-167.548254	-76.799569	143.505379
46608	9.563537	-0.492665	-2.199473	0.004557	-0.011724	0.012865	1.000000	0.000001	0.000017	0.000009	-167.550608	-76.799452	143.509066
46609	9.609139	-0.468372	-2.229127	0.032643	0.004960	0.062678	1.000000	-0.000015	0.000020	0.000022	-167.548151	-76.799325	143.505265
46610	9.597987	-0.458582	-2.197697	0.010762	0.024768	0.044331	1.000000	-0.000006	0.000023	0.000022	-167.544185	-76.799624	143.501654
46611	9.613991	-0.508427	-2.213682	0.001639	-0.024693	0.065931	1.000000	-0.000012	0.000023	0.000011	-167.546403	-76.800182	143.502022
46612	9.592842	-0.453170	-2.219951	0.033914	0.020233	0.044016	1.000000	-0.000015	0.000020	0.000022	-167.543856	-76.800080	143.498853
46613	9.597575	-0.492924	-2.205069	0.003351	-0.009330	0.047265	1.000000	-0.000010	0.000010	0.000020	-167.542408	-76.798972	143.494891
46614	9.585791	-0.516544	-2.182142	-0.024643	-0.023376	0.031844	1.000000	-0.000007	0.000030	0.000017	-167.540188	-76.800093	143.492944
46615	9.581197	-0.477649	-2.196250	0.005054	0.006021	0.028600	1.000000	-0.000012	0.000024	0.000040	-167.528279	-76.800001	143.482036
46616	9.609019	-0.472638	-2.149235	-0.039885	0.032997	0.044957	1.000000	-0.000020	0.000013	0.000015	-167.530311	-76.799291	143.482960
46617	9.580685	-0.511789	-2.204076	-0.001928	-0.028006	0.031530	1.000000	-0.000025	0.000022	0.000017	-167.530959	-76.799659	143.482712
46618	9.569500	-0.501849	-2.172788	-0.023804	-0.008202	0.013175	1.000000	-0.000007	0.000007	0.000013	-167.532987	-76.798319	143.485180
46619	9.580782	-0.512237	-2.203552	-0.002791	-0.028175	0.031529	1.000000	-0.000025	0.000022	0.000017	-167.533485	-76.798689	143.484899
46620	9.592076	-0.522794	-2.234225	0.018212	-0.048146	0.049885	1.000000	-0.000017	0.000017	0.000034	-167.526034	-76.797972	143.476421
46621	9.614575	-0.511716	-2.210383	-0.002715	-0.025537	0.065928	1.000000	-0.000017	0.000009	0.000009	-167.531154	-76.797051	143.481732
46622	9.609363	-0.505952	-2.233048	0.020867	-0.029981	0.065623	1.000000	-0.000020	0.000036	0.000019	-167.528936	-76.798802	143.478240
46623	9.592936	-0.490216	-2.224558	0.023005	-0.014539	0.046960	1.000000	-0.000018	0.000023	0.000029	-167.523352	-76.798886	143.473279
46624	9.620802	-0.485007	-2.177337	-0.021949	0.012423	0.063304	1.000000	0.000007	0.000033	-0.000001	-167.527771	-76.800814	143.479845
46625	9.603767	-0.502482	-2.177265	-0.025918	-0.005985	0.047566	1.000000	0.000005	0.000030	0.000011	-167.527259	-76.802070	143.481637
46626	9.598558	-0.496712	-2.199935	-0.002335	-0.010425	0.047264	1.000000	-0.000008	0.000013	0.000009	-167.531032	-76.801553	143.485769
46627	9.621092	-0.485470	-2.175948	-0.023282	0.012175	0.063302	1.000000	-0.000004	0.000026	0.000011	-167.532090	-76.802425	143.489037
46628	9.548465	-0.482170	-2.183897	-0.001573	0.002133	-0.005799	1.000000	0.000005	0.000007	0.000007	-167.535858	-76.801277	143.494711
46629	9.570982	-0.470794	-2.160009	-0.022511	0.024739	0.010238	1.000000	-0.000019	0.000022	-0.000001	-167.544377	-76.801986	143.502625
46630	9.587564	-0.486949	-2.167729	-0.025531	0.009127	0.028899	1.000000	-0.000015	0.000003	0.000013	-167.547825	-76.800246	143.505537
46631	9.594183	-0.457912	-2.213174	0.025599	0.018671	0.044045	1.000000	-0.000011	0.000016	0.000015	-167.548213	-76.799978	143.506622
46632	9.582369	-0.481390	-2.190312	-0.002374	0.004609	0.028601	1.000000	-0.000021	0.000019	0.000010	-167.551992	-76.800092	143.509212
46633	9.616767	-0.446904	-2.188911	0.004209	0.041183	0.060081	1.000000	-0.000023	0.000016	0.000022	-167.550954	-76.799584	143.507896
46634	9.599652	-0.464535	-2.189160	0.000259	0.022769	0.044341	1.000000	-0.000011	0.000016	0.000015	-167.551567	-76.799275	143.508378
46635	9.610328	-0.508418	-2.228329	0.015178	-0.031048	0.065630	1.000000	-0.000003	0.000020	0.000015	-167.550457	-76.799414	143.506477
46636	9.605773	-0.469331	-2.242458	0.044855	-0.001620	0.062420	1.000000	-0.000019	0.000029	0.000024	-167.546497	-76.800344	143.501326
46637	9.622412	-0.485633	-2.249900	0.041823	-0.017233	0.081081	1.000000	0.000012	0.000023	-0.000003	-167.552441	-76.801201	143.509747
46638	9.594052	-0.493029	-2.219116	0.016442	-0.015768	0.046971	1.000000	-0.000022	0.000010	0.000027	-167.549571	-76.799878	143.505363
46639	9.611285	-0.476166	-2.218195	0.019508	0.002482	0.062713	1.000000	-0.000001	0.000030	0.000029	-167.540971	-76.800763	143.497697
46640	9.599557	-0.499771	-2.194876	-0.008457	-0.011585	0.047259	1.000000	-0.000002	0.000052	0.000003	-167.542561	-76.804752	143.500294
46641	9.600351	-0.466536	-2.185666	-0.002813	0.022196	0.044342	1.000000	-0.000006	0.000023	0.000022	-167.538609	-76.804996	143.496219
46642	9.566743	-0.468114	-2.177781	-0.004165	0.019313	0.009941	1.000000	-0.000007	0.000030	0.000017	-167.536387	-76.806118	143.494271
46643	9.599914	-0.500591	-2.193128	-0.009776	-0.011831	0.047258	1.000000	-0.000004	0.000026	0.000011	-167.537244	-76.807034	143.495295
46644	9.600669	-0.467251	-2.184115	-0.004126	0.021946	0.044342	1.000000	-0.000014	0.000029	0.000006	-167.541349	-76.808371	143.499107
46645	9.583572	-0.484665	-2.184318	-0.008064	0.003529	0.028599	1.000000	-0.000017	0.000009	0.000009	-167.546642	-76.807460	143.504538
46646	9.600787	-0.467615	-2.183518	-0.005005	0.021774	0.044342	1.000000	-0.000005	0.000017	0.000027	-167.540929	-76.806936	143.499263
46647	9.578400	-0.479240	-2.206855	0.015089	-0.000975	0.028319	1.000000	-0.000018	0.000016	0.000004	-167.547701	-76.806842	143.504007
46648	9.589733	-0.489534	-2.237542	0.036085	-0.020931	0.046698	1.000000	-0.000003	0.000020	0.000015	-167.546894	-76.806933	143.504046
46649	9.595723	-0.462378	-2.205555	0.017707	0.017188	0.044065	1.000000	-0.000006	0.000023	0.000022	-167.542917	-76.807221	143.500146
46650	9.595777	-0.462748	-2.205243	0.017268	0.017105	0.044065	1.000000	-0.000010	0.000010	0.000020	-167.541788	-76.806090	143.498968
46651	9.583909	-0.486400	-2.182450	-0.010697	0.003026	0.028596	1.000000	-0.000015	0.000020	0.000022	-167.539539	-76.805947	143.496380
46652	9.601148	-0.469363	-2.181555	-0.007645	0.021271	0.044342	1.000000	-0.000011	0.000016	0.000015	-167.540154	-76.805639	143.496866
46653	9.583388	-0.520480	-2.190247	-0.017661	-0.031012	0.031505	1.000000	-0.000006	0.000023	0.000022	-167.536490	-76.805918	143.495553
46654	9.596001	-0.464250	-2.203952	0.015492	0.016759	0.044069	1.000000	-0.000016	0.000010	0.000038	-167.527299	-76.804380	143.485416
46655	9.600642	-0.504129	-2.189127	-0.015051	-0.012853	0.047250	1.000000	-0.000011	0.000016	0.000015	-167.527970	-76.804065	143.485443
46656	9.567008	-0.505595	-2.181368	-0.016379	-0.015732	0.012847	1.000000	-0.000016	0.000026	0.000017	-167.527170	-76.804788	143.483943
46657	9.629255	-0.497568	-2.218729	0.008989	-0.014558	0.081381	1.000000	-0.000018	0.000023	0.000029	-167.521382	-76.804886	143.475984
46658	9.606135	-0.510972	-2.164808	-0.040388	-0.008769	0.047515	1.000000	-0.000009	0.000019	0.000004	-167.526901	-76.805193	143.481782
46659	9.606194	-0.511092	-2.164515	-0.040828	-0.008854	0.047514	1.000000	-0.000020	0.000013	0.000015	-167.528977	-76.804478	143.482696
46660	9.573289	-0.510680	-2.234101	0.027331	-0.040265	0.030965	1.000000	-0.000008	0.000013	0.000009	-167.532753	-76.803962	143.486831
46661	9.595789	-0.499530	-2.210132	0.006353	-0.017684	0.046980	1.000000	-0.000037	0.000022	0.000024	-167.531481	-76.804108	143.482958
46662	9.613064	-0.482256	-2.209153	0.009393	0.000561	0.062729	1.000000	-0.000007	0.000022	-0.000008	-167.541902	-76.805029	143.494065
46663	9.596005	-0.499692	-2.209160	0.005476	-0.017848	0.046980	1.000000	0.000010	0.000037	0.000018	-167.536800	-76.806923	143.491924
46664	9.630472	-0.465467	-2.207489	0.011987	0.018726	0.078479	1.000000	-0.000005	0.000017	0.000027	-167.531089	-76.806399	143.486652
46665	9.602078	-0.472970	-2.176680	-0.013359	0.020183	0.044338	1.000000	-0.000012	0.000023	0.000011	-167.533411	-76.806881	143.487481
46666	9.602186	-0.473215	-2.176150	-0.013797	0.020098	0.044337	1.000000	0.000001	0.000033	0.000017	-167.529762	-76.808403	143.485086
46667	9.580485	-0.451399	-2.190922	0.012389	0.031227	0.025426	1.000000	-0.000007	0.000007	0.000013	-167.531700	-76.807057	143.486605
46668	9.579889	-0.485118	-2.199092	0.005884	-0.002722	0.028328	1.000000	-0.000007	0.000030	0.000017	-167.529476	-76.808179	143.484659
46669	9.602422	-0.473990	-2.174937	-0.015118	0.019848	0.044336	1.000000	-0.000012	0.000023	0.000011	-167.531971	-76.808666	143.487072
46670	9.585306	-0.491514	-2.175157	-0.019024	0.001435	0.028584	1.000000	-0.000011	0.000016	0.000015	-167.532588	-76.808359	143.487560
46671	9.602543	-0.474317	-2.174332	-0.015993	0.019678	0.044335	1.000000	-0.000005	0.000010	0.000002	-167.539527	-76.807647	143.495256
46672	9.580165	-0.485855	-2.197728	0.004130	-0.003059	0.028329	1.000000	-0.000015	0.000020	0.000022	-167.536985	-76.807547	143.492096
46673	9.631135	-0.467503	-2.204162	0.008016	0.017972	0.078484	1.000000	-0.000018	0.000016	0.000004	-167.544065	-76.807449	143.499147
46674	9.619223	-0.490957	-2.181469	-0.019913	0.003882	0.062984	1.000000	-0.000019	0.000006	0.000020	-167.544363	-76.805919	143.498421
46675	9.597491	-0.469123	-2.196420	0.006273	0.015009	0.044082	1.000000	-0.000011	0.000016	0.000015	-167.545141	-76.805618	143.499071
46676	9.591677	-0.496831	-2.227580	0.023801	-0.023263	0.046730	1.000000	0.000005	0.000030	0.000011	-167.544653	-76.806931	143.500326
46677	9.597650	-0.469592	-2.195625	0.005398	0.014839	0.044083	1.000000	-0.000041	0.000009	0.000022	-167.546407	-76.805645	143.497828
46678	9.591829	-0.497371	-2.226804	0.022927	-0.023432	0.046732	1.000000	0.000010	0.000037	0.000018	-167.541334	-76.807565	143.494986
46679	9.592611	-0.464219	-2.217725	0.028547	0.010351	0.043837	1.000000	-0.000024	0.000022	0.000017	-167.542017	-76.807891	143.494162
46680	9.609231	-0.480552	-2.225199	0.025507	-0.005272	0.062487	1.000000	-0.000004	0.000026	0.000011	-167.542953	-76.808805	143.495866
46681	9.597379	-0.504104	-2.202179	-0.002416	-0.019362	0.046978	1.000000	-0.000007	0.000030	0.000017	-167.540686	-76.809906	143.492508
46682	9.581624	-0.454835	-2.185224	0.005807	0.029962	0.025436	1.000000	0.000006	0.000024	0.000016	-167.538453	-76.810396	143.492099
46683	9.592319	-0.498660	-2.224405	0.020731	-0.023848	0.046735	1.000000	-0.000008	0.000013	0.000009	-167.542327	-76.809859	143.495378
46684	9.598282	-0.471457	-2.192459	0.002322	0.014254	0.044085	1.000000	-0.000006	0.000023	0.000022	-167.538360	-76.810159	143.491770
46685	9.586366	-0.495133	-2.169660	-0.025597	0.000161	0.028569	1.000000	-0.000010	0.000010	0.000020	-167.537236	-76.809007	143.489710
46686	9.575967	-0.483440	-2.215536	0.022022	-0.008556	0.028090	1.000000	-0.000024	0.000022	0.000017	-167.537865	-76.809333	143.488666
46687	9.614985	-0.488524	-2.199396	-0.001603	-0.001540	0.062733	1.000000	0.000019	0.000017	0.000014	-167.535704	-76.809193	143.489336
46688	9.603753	-0.478789	-2.167999	-0.023464	0.018232	0.044323	1.000000	-0.000018	0.000023	0.000029	-167.530004	-76.809302	143.482532
46689	9.597891	-0.506582	-2.199374	-0.005924	-0.020038	0.046975	1.000000	-0.000015	0.000003	0.000013	-167.533490	-76.807584	143.486085
46690	9.598592	-0.473472	-2.190666	-0.000310	0.013747	0.044086	1.000000	-0.000005	0.000017	0.000027	-167.527781	-76.807060	143.480816
46691	9.592734	-0.501225	-2.222034	0.017227	-0.024522	0.046740	1.000000	-0.000017	0.000009	0.000008	-167.533108	-76.806136	143.486310
46692	9.615228	-0.490095	-2.197983	-0.003799	-0.001966	0.062732	1.000000	-0.000007	0.000030	0.000017	-167.530884	-76.807259	143.484366
46693	9.575689	-0.519044	-2.221856	0.012909	-0.043015	0.030983	1.000000	-0.000023	0.000016	0.000022	-167.529781	-76.806746	143.480906
46694	9.620575	-0.496805	-2.174170	-0.028708	0.002177	0.062963	1.000000	-0.000005	0.000017	0.000027	-167.524073	-76.806222	143.475638
46695	9.564485	-0.509673	-2.190237	-0.009388	-0.023328	0.012568	1.000000	-0.000011	0.000016	0.000015	-167.524759	-76.805891	143.476459
46696	9.609405	-0.487401	-2.142397	-0.051010	0.021860	0.044544	1.000000	-0.000023	0.000033	0.000031	-167.517644	-76.807032	143.467671
46697	9.581853	-0.493035	-2.188754	-0.006820	-0.005172	0.028326	1.000000	-0.000008	0.000013	0.000009	-167.521412	-76.806542	143.473097
46698	9.598412	-0.509371	-2.196455	-0.009867	-0.020799	0.046971	1.000000	0.000002	0.000010	0.000014	-167.522021	-76.805602	143.475124
46699	9.599125	-0.476226	-2.187733	-0.004255	0.012990	0.044086	1.000000	-0.000010	0.000010	0.000020	-167.520749	-76.804496	143.473800
46700	9.594625	-0.437122	-2.202102	0.025379	0.042471	0.040977	1.000000	-0.000010	0.000010	0.000020	-167.519627	-76.803366	143.472631
46701	9.604417	-0.482808	-2.164162	-0.029166	0.017126	0.044310	1.000000	-0.000012	0.000023	0.000011	-167.522063	-76.803866	143.474387
46702	9.582106	-0.494220	-2.187379	-0.009003	-0.005590	0.028325	1.000000	-0.000014	0.000029	0.000006	-167.526165	-76.805206	143.478201
46703	9.594212	-0.470976	-2.209359	0.018012	0.008348	0.043864	1.000000	-0.000000	0.000023	0.000004	-167.530370	-76.805885	143.483490
46704	9.610772	-0.487407	-2.217036	0.014962	-0.007280	0.062508	1.000000	-0.000021	0.000003	0.000031	-167.525778	-76.803741	143.477465
46705	9.589114	-0.465625	-2.231838	0.041170	0.003882	0.043646	1.000000	-0.000008	0.000036	0.000013	-167.525168	-76.805689	143.476349
46706	9.594422	-0.471849	-2.208261	0.016701	0.008102	0.043866	1.000000	-0.000011	0.000016	0.000015	-167.525788	-76.805382	143.476842
46707	9.593784	-0.505665	-2.216488	0.010219	-0.025855	0.046747	1.000000	-0.000005	0.000017	0.000027	-167.520186	-76.804828	143.470885
46708	9.611783	-0.455262	-2.206828	0.019241	0.026261	0.059631	1.000000	-0.000008	0.000036	0.000013	-167.519701	-76.806775	143.470602
46709	9.594640	-0.472925	-2.207085	0.015376	0.007852	0.043869	1.000000	-0.000021	0.000003	0.000031	-167.515160	-76.804605	143.464930
46710	9.599854	-0.479191	-2.183885	-0.009094	0.012069	0.044084	1.000000	-0.000004	0.000010	0.000002	-167.522095	-76.803882	143.472716
46711	9.599945	-0.479391	-2.183438	-0.009531	0.011985	0.044084	1.000000	0.000010	0.000037	0.000018	-167.516996	-76.805804	143.469767
46712	9.594791	-0.473825	-2.206234	0.014063	0.007602	0.043871	1.000000	-0.000017	-0.000006	0.000030	-167.513825	-76.802629	143.465733
46713	9.617904	-0.429506	-2.173866	-0.000961	0.064011	0.056971	1.000000	-0.000015	0.000020	0.000022	-167.511436	-76.802540	143.462596
46714	9.600035	-0.480547	-2.182790	-0.010848	0.011727	0.044082	1.000000	-0.000007	0.000007	0.000013	-167.513474	-76.801202	143.465076
46715	9.577637	-0.492107	-2.206388	0.009332	-0.010986	0.028108	1.000000	-0.000019	0.000006	0.000020	-167.513915	-76.799688	143.464428
46716	9.594852	-0.475174	-2.205678	0.012307	0.007257	0.043873	1.000000	-0.000009	0.000004	0.000025	-167.511058	-76.797735	143.461604
46717	9.605244	-0.487463	-2.159444	-0.036196	0.015758	0.044288	1.000000	-0.000003	0.000003	0.000007	-167.516357	-76.796206	143.468410
46718	9.589667	-0.469830	-2.228579	0.035464	0.002791	0.043668	1.000000	-0.000016	0.000010	0.000038	-167.507190	-76.794669	143.458300
46719	9.582829	-0.499530	-2.182998	-0.016457	-0.007032	0.028314	1.000000	-0.000033	-0.000004	0.000013	-167.513661	-76.792098	143.461987
46720	9.599389	-0.515900	-2.190653	-0.019513	-0.022665	0.046952	1.000000	0.000001	0.000033	0.000017	-167.510007	-76.793619	143.459592
46721	9.612212	-0.459441	-2.204090	0.013507	0.025157	0.059643	1.000000	-0.000011	0.000016	0.000015	-167.510783	-76.793291	143.460433
46722	9.616774	-0.499332	-2.189120	-0.016989	-0.004511	0.062717	1.000000	-0.000013	0.000030	0.000036	-167.500511	-76.794007	143.449546
46723	9.622990	-0.503823	-2.242754	0.028014	-0.028733	0.080953	1.000000	-0.000021	0.000019	0.000010	-167.504516	-76.794135	143.452572
46724	9.627994	-0.478507	-2.133677	-0.059915	0.037768	0.060246	1.000000	-0.000010	0.000010	0.000020	-167.503399	-76.793005	143.451409
46725	9.611820	-0.494224	-2.210978	0.005734	-0.009068	0.062516	1.000000	0.000009	0.000043	0.000013	-167.500071	-76.795816	143.450660
46726	9.572043	-0.491721	-2.149100	-0.040930	0.012199	0.009868	1.000000	-0.000016	0.000010	0.000038	-167.490908	-76.794279	143.440554
46727	9.600613	-0.484905	-2.179283	-0.016553	0.010598	0.044076	1.000000	-0.000004	0.000010	0.000002	-167.497878	-76.793584	143.448643
46728	9.605841	-0.490994	-2.155985	-0.041025	0.014800	0.044271	1.000000	-0.000008	0.000013	0.000009	-167.501653	-76.793070	143.452780
46729	9.584200	-0.469016	-2.170884	-0.014809	0.025978	0.025438	1.000000	-0.000011	0.000016	0.000015	-167.502364	-76.792759	143.452680
46730	9.622457	-0.507578	-2.163324	-0.044526	-0.000923	0.062904	1.000000	-0.000011	0.000016	0.000015	-167.502985	-76.792454	143.453175
46731	9.623207	-0.474373	-2.154557	-0.038945	0.032859	0.060036	1.000000	-0.000007	0.000007	0.000013	-167.505169	-76.791164	143.456447
46732	9.611188	-0.497928	-2.131950	-0.066812	0.018732	0.044456	1.000000	0.000002	0.000010	0.000014	-167.505776	-76.790224	143.458472
46733	9.644940	-0.497170	-2.139049	-0.066473	0.021415	0.078860	1.000000	-0.000034	0.000010	0.000033	-167.501175	-76.788778	143.450364
46734	9.623272	-0.475380	-2.154045	-0.040254	0.032599	0.060032	1.000000	0.000002	0.000010	0.000014	-167.501783	-76.787838	143.452390
46735	9.606054	-0.492783	-2.154627	-0.044069	0.014180	0.044259	1.000000	-0.000009	-0.000004	-0.000000	-167.511535	-76.785775	143.462158
46736	9.567118	-0.488021	-2.170517	-0.021235	0.007041	0.009663	1.000000	-0.000014	-0.000003	0.000018	-167.513264	-76.783216	143.463431
46737	9.556719	-0.476331	-2.216786	0.026412	-0.001614	0.009288	1.000000	-0.000005	-0.000006	0.000023	-167.511792	-76.780323	143.461203
46738	9.555973	-0.510074	-2.225382	0.019964	-0.035575	0.012152	1.000000	-0.000015	0.000003	0.000013	-167.515255	-76.778588	143.464132
46739	9.555961	-0.510363	-2.225368	0.019540	-0.035666	0.012152	1.000000	-0.000018	0.000000	0.000025	-167.513844	-76.776314	143.462651
46740	9.585265	-0.470199	-2.246960	0.049906	-0.003377	0.043515	1.000000	-0.000018	0.000023	0.000029	-167.508165	-76.776425	143.455871
46741	9.617640	-0.536186	-2.270916	0.038206	-0.068453	0.083645	1.000000	0.000012	0.000023	-0.000003	-167.514059	-76.777348	143.464073
46742	9.600303	-0.522000	-2.185197	-0.029083	-0.024594	0.046924	1.000000	-0.000009	0.000042	0.000008	-167.515305	-76.780119	143.465445
46743	9.657584	-0.507941	-2.245144	0.020066	-0.027693	0.115376	1.000000	0.000010	0.000037	0.000018	-167.510066	-76.782098	143.462566
46744	9.657719	-0.508249	-2.244493	0.019626	-0.027777	0.115376	1.000000	0.000005	0.000030	0.000011	-167.509561	-76.783410	143.463810
46745	9.607609	-0.493470	-2.228702	0.021067	-0.015079	0.062337	1.000000	0.000013	0.000033	0.000011	-167.507680	-76.785133	143.463850
46746	9.596414	-0.483569	-2.197041	-0.000778	0.004668	0.043883	1.000000	0.000026	0.000034	0.000004	-167.507466	-76.787032	143.467826
46747	9.597256	-0.450388	-2.187918	0.004793	0.038461	0.041025	1.000000	0.000006	0.000024	0.000016	-167.505228	-76.787556	143.467943
46748	9.529874	-0.452924	-2.172944	0.002867	0.032838	-0.027789	1.000000	0.000018	0.000024	0.000009	-167.504710	-76.788234	143.470717
46749	9.563655	-0.451869	-2.179994	0.003170	0.035519	0.006619	1.000000	0.000003	-0.000003	-0.000007	-167.516366	-76.786274	143.484501
46750	9.542650	-0.396227	-2.186883	0.035401	0.080600	-0.015041	1.000000	-0.000024	-0.000023	0.000009	-167.525521	-76.781680	143.492302
46751	9.553185	-0.440142	-2.226706	0.050376	0.026800	0.006275	1.000000	-0.000020	-0.000003	0.000036	-167.519288	-76.778782	143.484963
46752	9.581718	-0.433349	-2.257139	0.074714	0.025215	0.040514	1.000000	-0.000033	-0.000004	0.000013	-167.525612	-76.776253	143.488801
46753	9.586893	-0.439617	-2.233968	0.050238	0.029397	0.040688	1.000000	-0.000035	0.000016	0.000028	-167.522934	-76.775595	143.483655
46754	9.598255	-0.450128	-2.264783	0.071205	0.009488	0.059151	1.000000	-0.000031	0.000006	0.000027	-167.521532	-76.773881	143.479766
46755	9.626128	-0.476818	-2.303472	0.089534	-0.025985	0.096247	1.000000	-0.000027	0.000019	0.000029	-167.517537	-76.773600	143.473671
46756	9.597619	-0.484448	-2.272752	0.064326	-0.024566	0.062010	1.000000	-0.000030	0.000023	0.000035	-167.510145	-76.773523	143.463714
46757	9.609061	-0.495019	-2.303222	0.085292	-0.044484	0.080476	1.000000	-0.000032	0.000035	0.000026	-167.506458	-76.775126	143.457357
46758	9.580648	-0.502630	-2.272092	0.060089	-0.043066	0.046237	1.000000	-0.000010	0.000049	0.000033	-167.495088	-76.778096	143.445706
46759	9.596300	-0.521204	-2.201951	-0.012474	-0.030356	0.046731	1.000000	-0.000003	0.000043	0.000019	-167.490310	-76.780614	143.441845
46760	9.591327	-0.515609	-2.224147	0.011128	-0.034705	0.046568	1.000000	-0.000032	0.000052	0.000034	-167.480379	-76.783822	143.429116
46761	9.584587	-0.545345	-2.177688	-0.040754	-0.044584	0.031112	1.000000	-0.000004	0.000049	0.000015	-167.477193	-76.787145	143.426470
46762	9.607167	-0.534441	-2.153012	-0.061873	-0.022081	0.047051	1.000000	0.000006	0.000046	0.000020	-167.470678	-76.790095	143.421628
46763	9.585677	-0.512485	-2.167439	-0.035650	-0.010861	0.028260	1.000000	-0.000005	0.000033	0.000006	-167.473370	-76.791744	143.423489
46764	9.603074	-0.495220	-2.166078	-0.032733	0.007379	0.044038	1.000000	0.000006	0.000039	-0.000005	-167.479481	-76.794497	143.431682
46765	9.603946	-0.461819	-2.156912	-0.027190	0.041178	0.041190	1.000000	-0.000012	0.000023	0.000011	-167.481965	-76.794977	143.434035
46766	9.591923	-0.485199	-2.134143	-0.055019	0.027030	0.025565	1.000000	-0.000018	0.000016	0.000004	-167.488910	-76.794892	143.440290
46767	9.581666	-0.473339	-2.180149	-0.007377	0.018422	0.025251	1.000000	-0.000009	0.000004	0.000025	-167.486058	-76.792955	143.437832
46768	9.581699	-0.473518	-2.179967	-0.007814	0.018338	0.025251	1.000000	-0.000006	0.000016	-0.000003	-167.494722	-76.793058	143.447269
46769	9.587631	-0.446252	-2.148056	-0.026306	0.056395	0.022560	1.000000	-0.000010	0.000010	0.000020	-167.493680	-76.791941	143.446453
46770	9.610429	-0.466757	-2.209645	0.016058	0.016672	0.059506	1.000000	-0.000017	0.000032	0.000012	-167.494620	-76.793493	143.446625
46771	9.604288	-0.462800	-2.155178	-0.029823	0.040656	0.041184	1.000000	-0.000017	0.000009	0.000008	-167.500036	-76.792606	143.451067
46772	9.654563	-0.478175	-2.170103	-0.032196	0.027773	0.094218	1.000000	-0.000026	0.000013	0.000033	-167.494055	-76.791498	143.443089
46773	9.587137	-0.480830	-2.155276	-0.034044	0.022151	0.025399	1.000000	-0.000019	0.000029	0.000024	-167.490359	-76.792472	143.438204
46774	9.632334	-0.490278	-2.193000	-0.012380	0.005011	0.078284	1.000000	-0.000018	0.000023	0.000029	-167.484679	-76.792584	143.431425
46775	9.603782	-0.497905	-2.162320	-0.037552	0.006412	0.044022	1.000000	-0.000005	0.000017	0.000027	-167.479047	-76.792119	143.426672
46776	9.570051	-0.499415	-2.154939	-0.038689	0.003565	0.009611	1.000000	-0.000040	0.000003	0.000026	-167.479090	-76.790010	143.423254
46777	9.586581	-0.515861	-2.162633	-0.041768	-0.012092	0.028234	1.000000	-0.000024	0.000022	0.000017	-167.479973	-76.790373	143.421319
46778	9.587394	-0.482642	-2.153726	-0.036226	0.021710	0.025392	1.000000	-0.000020	0.000013	0.000015	-167.482032	-76.789673	143.422279
46779	9.586680	-0.516279	-2.162094	-0.042634	-0.012269	0.028230	1.000000	-0.000020	0.000013	0.000015	-167.484139	-76.789030	143.423987
46780	9.610233	-0.503260	-2.215160	0.005702	-0.018097	0.062353	1.000000	-0.000012	0.000023	0.000011	-167.486495	-76.789551	143.426143
46781	9.637830	-0.498250	-2.167866	-0.039486	0.008642	0.078421	1.000000	-0.000012	0.000023	0.000011	-167.488938	-76.790074	143.427965
46782	9.615495	-0.509627	-2.191414	-0.019216	-0.014017	0.062493	1.000000	-0.000015	0.000003	0.000013	-167.492415	-76.788341	143.430909
46783	9.593879	-0.487517	-2.206540	0.007030	-0.002795	0.043730	1.000000	0.000009	0.000004	0.000000	-167.499476	-76.787008	143.440213
46784	9.610416	-0.503793	-2.214244	0.003948	-0.018443	0.062353	1.000000	0.000001	0.000017	0.000009	-167.501816	-76.786891	143.443895
46785	9.622619	-0.480729	-2.236251	0.030892	-0.004459	0.078002	1.000000	0.000006	0.000023	0.000016	-167.499542	-76.787463	143.443781
46786	9.599954	-0.460741	-2.173881	-0.012341	0.035082	0.041031	1.000000	0.000001	0.000017	0.000009	-167.501882	-76.787347	143.447462
46787	9.577645	-0.472175	-2.197318	0.007940	0.012422	0.025109	1.000000	-0.000003	0.000020	0.000015	-167.501124	-76.787477	143.446567
46788	9.589821	-0.449207	-2.219445	0.034869	0.026416	0.040763	1.000000	0.000011	0.000008	0.000018	-167.498562	-76.786108	143.446479
46789	9.583632	-0.445530	-2.165015	-0.011000	0.050379	0.022409	1.000000	-0.000019	0.000029	0.000024	-167.494738	-76.787120	143.442008
46790	9.589975	-0.449832	-2.218655	0.034000	0.026239	0.040766	1.000000	0.000013	0.000017	0.000002	-167.498793	-76.787191	143.448869
46791	9.606573	-0.466319	-2.226043	0.030911	0.010583	0.059389	1.000000	-0.000014	0.000036	0.000031	-167.490468	-76.788742	143.439611
46792	9.611737	-0.472904	-2.202639	0.006430	0.014744	0.059520	1.000000	-0.000008	-0.000003	0.000030	-167.485896	-76.785965	143.435149
46793	9.611735	-0.473309	-2.202562	0.005994	0.014654	0.059521	1.000000	-0.000032	0.000013	0.000022	-167.486340	-76.785107	143.432318
46794	9.606661	-0.467548	-2.225403	0.029597	0.010327	0.059393	1.000000	-0.000023	0.000016	0.000022	-167.485251	-76.784616	143.429643
46795	9.605926	-0.501284	-2.233807	0.023190	-0.023652	0.062225	1.000000	-0.000019	0.000006	0.000020	-167.485764	-76.783099	143.428137
46796	9.593802	-0.524790	-2.211286	-0.004606	-0.037816	0.046561	1.000000	-0.000017	0.000009	0.000008	-167.490973	-76.782190	143.432735
46797	9.583610	-0.512997	-2.257233	0.043048	-0.046388	0.046311	1.000000	-0.000017	0.000017	0.000033	-167.483592	-76.781524	143.424438
46798	9.578177	-0.475906	-2.194194	0.003139	0.011468	0.025112	1.000000	-0.000024	0.000022	0.000017	-167.484234	-76.781858	143.423418
46799	9.594738	-0.492314	-2.201738	0.000044	-0.004191	0.043732	1.000000	-0.000011	0.000016	0.000015	-167.485146	-76.781548	143.424553
46800	9.601085	-0.496434	-2.255463	0.045042	-0.028321	0.062107	1.000000	-0.000019	0.000022	-0.000001	-167.493817	-76.782289	143.432459
46801	9.589012	-0.519818	-2.232730	0.017250	-0.042494	0.046438	1.000000	-0.000011	0.000016	0.000015	-167.494595	-76.781997	143.433030
46802	9.594970	-0.492707	-2.200637	-0.001271	-0.004449	0.043732	1.000000	-0.000016	0.000026	0.000017	-167.493802	-76.782726	143.431551
46803	9.611546	-0.509157	-2.208103	-0.004365	-0.020106	0.062349	1.000000	-0.000003	0.000020	0.000015	-167.493159	-76.782812	143.430945
46804	9.568388	-0.464903	-2.238277	0.048588	0.002475	0.024878	1.000000	-0.000015	0.000003	0.000013	-167.496637	-76.781080	143.433890
46805	9.590075	-0.487384	-2.222644	0.021456	-0.008944	0.043614	1.000000	0.000009	0.000043	0.000013	-167.493336	-76.783842	143.432980
46806	9.578815	-0.477650	-2.191028	-0.000372	0.010777	0.025114	1.000000	-0.000018	0.000023	0.000029	-167.487664	-76.783956	143.426212
46807	9.624043	-0.486967	-2.228762	0.021228	-0.006362	0.078027	1.000000	-0.000000	0.000023	0.000004	-167.491838	-76.784672	143.431148
46808	9.590423	-0.488161	-2.220972	0.020142	-0.009198	0.043617	1.000000	-0.000021	0.000042	0.000014	-167.491359	-76.787259	143.429341
46809	9.612916	-0.477184	-2.196564	-0.001042	0.013272	0.059525	1.000000	-0.000024	0.000022	0.000017	-167.492082	-76.787595	143.428017
46810	9.600837	-0.500741	-2.173748	-0.028823	-0.000902	0.043842	1.000000	-0.000016	0.000026	0.000017	-167.491290	-76.788324	143.426540
46811	9.617439	-0.517135	-2.181098	-0.031917	-0.016560	0.062456	1.000000	-0.000017	0.000032	0.000012	-167.492306	-76.789884	143.426814
46812	9.595970	-0.495152	-2.195722	-0.005655	-0.005305	0.043730	1.000000	-0.000019	0.000029	0.000024	-167.488363	-76.790823	143.421698
46813	9.618436	-0.484169	-2.171404	-0.026837	0.017158	0.059633	1.000000	0.000012	0.000023	-0.000003	-167.494185	-76.791765	143.430521
46814	9.579677	-0.479270	-2.186899	-0.003869	0.010093	0.025114	1.000000	-0.000024	0.000022	0.000017	-167.494831	-76.792100	143.429505
46815	9.618589	-0.484588	-2.170632	-0.027717	0.016986	0.059631	1.000000	-0.000035	0.000016	0.000028	-167.492119	-76.791423	143.423781
46816	9.579817	-0.479826	-2.186167	-0.004746	0.009923	0.025113	1.000000	0.000008	0.000026	0.000004	-167.494752	-76.792526	143.428656
46817	9.596391	-0.496187	-2.193650	-0.007836	-0.005744	0.043728	1.000000	-0.000011	0.000016	0.000015	-167.495530	-76.792279	143.430427
46818	9.585066	-0.486334	-2.162273	-0.029661	0.013971	0.025216	1.000000	-0.000016	0.000026	0.000017	-167.494737	-76.793010	143.428949
46819	9.585125	-0.486635	-2.161940	-0.030108	0.013877	0.025215	1.000000	-0.000010	0.000010	0.000020	-167.493969	-76.791872	143.428521
46820	9.613049	-0.513102	-2.200632	-0.011816	-0.021578	0.062340	1.000000	-0.000004	0.000010	0.000002	-167.500896	-76.791152	143.436302
46821	9.592283	-0.457668	-2.207042	0.020392	0.023575	0.040810	1.000000	-0.000034	0.000010	0.000033	-167.496519	-76.789672	143.429025
46822	9.592342	-0.457823	-2.206754	0.019954	0.023492	0.040812	1.000000	-0.000007	0.000022	-0.000008	-167.506908	-76.790601	143.440115
46823	9.608124	-0.507587	-2.222902	0.010919	-0.026066	0.062240	1.000000	-0.000005	0.000017	0.000027	-167.501288	-76.790114	143.435032
46824	9.597557	-0.464524	-2.182956	-0.004965	0.027541	0.040911	1.000000	-0.000027	0.000019	0.000028	-167.497054	-76.789834	143.428727
46825	9.625516	-0.491169	-2.221465	0.013313	-0.007921	0.078040	1.000000	-0.000003	0.000020	0.000015	-167.496577	-76.789912	143.428404
46826	9.609123	-0.475277	-2.213103	0.015534	0.007570	0.059428	1.000000	-0.000007	0.000030	0.000017	-167.494347	-76.791038	143.426467
46827	9.575451	-0.476656	-2.205491	0.014472	0.004732	0.025017	1.000000	-0.000015	0.000020	0.000022	-167.492087	-76.790936	143.423377
46828	9.602142	-0.505415	-2.166893	-0.036720	-0.002486	0.043815	1.000000	-0.000014	0.000013	0.000027	-167.487835	-76.790017	143.418594
46829	9.587017	-0.487532	-2.235631	0.034978	-0.015235	0.043538	1.000000	0.000009	0.000043	0.000013	-167.484650	-76.792759	143.417048
46830	9.602374	-0.506091	-2.165707	-0.037600	-0.002662	0.043812	1.000000	0.000006	0.000023	0.000016	-167.482400	-76.793246	143.416631
46831	9.603248	-0.472944	-2.156642	-0.032109	0.031143	0.041000	1.000000	-0.000024	0.000022	0.000017	-167.483297	-76.793574	143.415609
46832	9.602528	-0.506561	-2.164912	-0.038482	-0.002838	0.043808	1.000000	0.000001	0.000017	0.000009	-167.485637	-76.793458	143.419293
46833	9.598305	-0.467206	-2.179091	-0.008934	0.026746	0.040910	1.000000	-0.000008	0.000013	0.000009	-167.489548	-76.793012	143.424257
46834	9.609774	-0.477495	-2.209797	0.012012	0.006871	0.059433	1.000000	-0.000011	0.000016	0.000015	-167.490177	-76.792709	143.424767
46835	9.598395	-0.467628	-2.178605	-0.009801	0.026565	0.040910	1.000000	-0.000007	0.000007	0.000013	-167.492364	-76.791467	143.427776
46836	9.593347	-0.461825	-2.201546	0.013808	0.022266	0.040825	1.000000	-0.000010	0.000010	0.000020	-167.491263	-76.790340	143.426632
46837	9.592610	-0.495488	-2.209878	0.007445	-0.011722	0.043632	1.000000	-0.000012	0.000023	0.000010	-167.493687	-76.790910	143.429307
46838	9.592655	-0.495654	-2.209644	0.007008	-0.011805	0.043632	1.000000	-0.000015	0.000003	0.000013	-167.497174	-76.789179	143.432262
46839	9.571120	-0.473600	-2.224730	0.033277	-0.000526	0.024942	1.000000	0.000002	0.000010	0.000014	-167.497940	-76.788217	143.434359
46840	9.592683	-0.496324	-2.209369	0.006126	-0.011975	0.043633	1.000000	-0.000025	0.000007	0.000038	-167.490252	-76.786288	143.424754
46841	9.609979	-0.479634	-2.208440	0.008947	0.006261	0.059437	1.000000	-0.000014	0.000013	0.000027	-167.486049	-76.785367	143.420346
46842	9.592741	-0.497209	-2.208921	0.005250	-0.012143	0.043633	1.000000	-0.000011	0.000016	0.000015	-167.486678	-76.785065	143.420855
46843	9.587739	-0.491416	-2.231681	0.028866	-0.016439	0.043556	1.000000	-0.000015	0.000020	0.000022	-167.484152	-76.785008	143.418431
46844	9.575586	-0.515054	-2.208972	0.001125	-0.030634	0.027828	1.000000	-0.000003	0.000020	0.000015	-167.483340	-76.785100	143.418477
46845	9.597993	-0.504223	-2.184789	-0.020113	-0.008194	0.043709	1.000000	-0.000023	0.000016	0.000022	-167.482458	-76.784594	143.415631
46846	9.581592	-0.488339	-2.176481	-0.017883	0.007301	0.025101	1.000000	-0.000007	0.000030	0.000017	-167.480227	-76.785721	143.413695
46847	9.588058	-0.492476	-2.230077	0.027121	-0.016782	0.043560	1.000000	-0.000031	0.000022	0.000005	-167.487186	-76.786356	143.418893
46848	9.598259	-0.504852	-2.183476	-0.021414	-0.008455	0.043706	1.000000	-0.000006	0.000023	0.000022	-167.483226	-76.786658	143.415304
46849	9.605511	-0.475776	-2.228490	0.029488	0.001371	0.059369	1.000000	-0.000003	0.000020	0.000015	-167.482563	-76.786713	143.414995
46850	9.598410	-0.505353	-2.182695	-0.022298	-0.008624	0.043704	1.000000	-0.000009	0.000019	0.000004	-167.488070	-76.787027	143.420793
46851	9.605672	-0.476061	-2.227733	0.028601	0.001202	0.059371	1.000000	-0.000024	0.000022	0.000017	-167.488935	-76.787333	143.419681
46852	9.610828	-0.482295	-2.204163	0.004113	0.005322	0.059441	1.000000	-0.000013	0.000029	0.000006	-167.493024	-76.788681	143.423499
46853	9.589431	-0.460128	-2.218760	0.030393	0.016613	0.040769	1.000000	-0.000008	0.000036	0.000013	-167.492618	-76.790635	143.423237
46854	9.606028	-0.476535	-2.226098	0.027284	0.000950	0.059375	1.000000	-0.000024	0.000022	0.000017	-167.493270	-76.790972	143.422232
46855	9.611155	-0.482981	-2.202587	0.002790	0.005065	0.059441	1.000000	-0.000018	0.000023	0.000029	-167.487733	-76.791070	143.415302
46856	9.577461	-0.484256	-2.195083	0.001781	0.002243	0.025028	1.000000	-0.000009	0.000019	0.000004	-167.493241	-76.791384	143.421104
46857	9.561086	-0.468159	-2.186719	0.004021	0.017735	0.006424	1.000000	-0.000017	0.000032	0.000012	-167.494241	-76.792985	143.421642
46858	9.599992	-0.473388	-2.170309	-0.019899	0.024588	0.040900	1.000000	-0.000008	0.000013	0.000009	-167.498020	-76.792474	143.425789
46859	9.582773	-0.490802	-2.170721	-0.023578	0.006180	0.025089	1.000000	-0.000016	0.000026	0.000017	-167.497356	-76.793209	143.424347
46860	9.612388	-0.450551	-2.191875	0.006508	0.038538	0.056648	1.000000	-0.000023	0.000016	0.000022	-167.496280	-76.792721	143.421689
46861	9.595166	-0.467999	-2.192297	0.002840	0.020130	0.040839	1.000000	-0.000012	0.000023	0.000010	-167.498635	-76.793290	143.424370
46862	9.594378	-0.501663	-2.200790	-0.003507	-0.013856	0.043632	1.000000	-0.000026	-0.000003	0.000025	-167.498690	-76.790549	143.422505
46863	9.611696	-0.484788	-2.199827	-0.000704	0.004377	0.059442	1.000000	0.000006	0.000023	0.000016	-167.496388	-76.791080	143.422673
46864	9.616780	-0.491246	-2.176459	-0.025194	0.008487	0.059498	1.000000	-0.000031	0.000006	0.000026	-167.495025	-76.789374	143.418828
46865	9.594488	-0.502646	-2.200086	-0.004810	-0.014112	0.043631	1.000000	-0.000024	0.000022	0.000017	-167.495694	-76.789728	143.417945
46866	9.628359	-0.501892	-2.206699	-0.004693	-0.011460	0.078044	1.000000	-0.000007	0.000030	0.000017	-167.493462	-76.790855	143.416009
46867	9.589635	-0.497065	-2.222264	0.018365	-0.018481	0.043577	1.000000	-0.000011	0.000016	0.000015	-167.494292	-76.790577	143.416230
46868	9.590532	-0.463995	-2.213188	0.023831	0.015340	0.040789	1.000000	0.000003	0.000027	0.000022	-167.488888	-76.791273	143.412174
46869	9.589798	-0.497586	-2.221445	0.017494	-0.018654	0.043578	1.000000	-0.000005	0.000016	-0.000003	-167.497641	-76.791416	143.422035
46870	9.578398	-0.487665	-2.190238	-0.004319	0.001038	0.025028	1.000000	-0.000022	0.000010	0.000027	-167.494837	-76.790104	143.417725
46871	9.599970	-0.510337	-2.174659	-0.031488	-0.010448	0.043677	1.000000	-0.000007	0.000030	0.000017	-167.492792	-76.791240	143.416040
46872	9.608112	-0.447884	-2.210949	0.025299	0.033314	0.056607	1.000000	-0.000005	0.000017	0.000027	-167.487103	-76.790717	143.410798
46873	9.583639	-0.495036	-2.165929	-0.029686	0.004969	0.025074	1.000000	-0.000009	0.000027	0.000029	-167.480015	-76.791221	143.403487
46874	9.595969	-0.472137	-2.187890	-0.002852	0.019016	0.040841	1.000000	-0.000010	0.000010	0.000020	-167.478918	-76.790095	143.402348
46875	9.573690	-0.483538	-2.211495	0.017560	-0.003583	0.024982	1.000000	-0.000003	0.000020	0.000015	-167.478072	-76.790296	143.402620
46876	9.596078	-0.472838	-2.187257	-0.003713	0.018839	0.040841	1.000000	-0.000005	0.000017	0.000027	-167.472384	-76.789772	143.397379
46877	9.601119	-0.479458	-2.163978	-0.028218	0.022939	0.040883	1.000000	-0.000021	0.000004	0.000031	-167.468127	-76.787574	143.390534
46878	9.590288	-0.500796	-2.218605	0.013555	-0.019421	0.043583	1.000000	-0.000007	0.000022	-0.000008	-167.478506	-76.788506	143.401619
46879	9.629122	-0.506006	-2.202427	-0.010400	-0.012589	0.078038	1.000000	-0.000026	-0.000003	0.000024	-167.478556	-76.785784	143.400198
46880	9.590322	-0.501251	-2.218356	0.012683	-0.019589	0.043584	1.000000	-0.000002	0.000014	0.000020	-167.476016	-76.785052	143.398592
46881	9.591199	-0.468097	-2.209431	0.018144	0.014222	0.040803	1.000000	-0.000008	0.000013	0.000009	-167.479957	-76.784617	143.403836
46882	9.590436	-0.501644	-2.217773	0.011815	-0.019768	0.043585	1.000000	-0.000012	0.000023	0.000010	-167.482314	-76.785141	143.406001
46883	9.585495	-0.495773	-2.240474	0.035424	-0.024036	0.043549	1.000000	-0.000015	0.000020	0.000022	-167.479995	-76.785029	143.403079
46884	9.601450	-0.481091	-2.162150	-0.031285	0.022329	0.040875	1.000000	-0.000015	0.000020	0.000022	-167.477479	-76.784937	143.399960
46885	9.607956	-0.485189	-2.215882	0.013694	-0.001707	0.059403	1.000000	-0.000005	0.000016	-0.000003	-167.486329	-76.785021	143.409598
46886	9.596542	-0.475398	-2.184668	-0.008115	0.017977	0.040840	1.000000	-0.000016	0.000010	0.000038	-167.477215	-76.783488	143.399545
46887	9.579291	-0.492841	-2.185167	-0.011751	-0.000435	0.025022	1.000000	-0.000007	0.000022	-0.000008	-167.487706	-76.784480	143.411190
46888	9.608129	-0.485737	-2.215010	0.012385	-0.001967	0.059405	1.000000	-0.000020	0.000013	0.000015	-167.489780	-76.783786	143.412172
46889	9.608184	-0.486016	-2.214714	0.011950	-0.002057	0.059405	1.000000	-0.000015	0.000020	0.000022	-167.487352	-76.783735	143.409482
46890	9.608266	-0.486324	-2.214289	0.011511	-0.002140	0.059406	1.000000	-0.000016	0.000026	0.000017	-167.486564	-76.784469	143.408016
46891	9.574550	-0.487577	-2.206880	0.010558	-0.004965	0.024992	1.000000	0.000002	0.000010	0.000014	-167.487454	-76.783566	143.410644
46892	9.591913	-0.470655	-2.205783	0.013318	0.013270	0.040812	1.000000	-0.000003	0.000020	0.000015	-167.486641	-76.783659	143.410691
46893	9.603482	-0.480926	-2.236245	0.034255	-0.006575	0.059381	1.000000	-0.000038	0.000035	0.000014	-167.488947	-76.785486	143.410243
46894	9.592168	-0.470962	-2.204611	0.012447	0.013105	0.040813	1.000000	0.000004	0.000036	0.000006	-167.490142	-76.787624	143.413125
46895	9.603732	-0.481300	-2.235095	0.033378	-0.006743	0.059384	1.000000	-0.000035	0.000016	0.000028	-167.487421	-76.786959	143.407325
46896	9.596511	-0.511068	-2.189294	-0.018362	-0.016802	0.043610	1.000000	0.000005	0.000030	0.000011	-167.486888	-76.788271	143.408554
46897	9.597449	-0.477920	-2.180127	-0.012927	0.017021	0.040837	1.000000	-0.000003	0.000020	0.000015	-167.486213	-76.788357	143.408635
46898	9.592520	-0.472164	-2.202820	0.010690	0.012767	0.040815	1.000000	-0.000018	0.000023	0.000029	-167.480551	-76.788475	143.401884
46899	9.614077	-0.494875	-2.187141	-0.016485	0.001257	0.059429	1.000000	-0.000016	0.000026	0.000017	-167.479742	-76.789249	143.400907
46900	9.597680	-0.479041	-2.178866	-0.014236	0.016765	0.040835	1.000000	-0.000005	0.000017	0.000027	-167.474055	-76.788726	143.395668
46901	9.587752	-0.467090	-2.224685	0.033428	0.008342	0.040799	1.000000	-0.000012	0.000023	0.000010	-167.476636	-76.789222	143.398053
46902	9.614275	-0.495730	-2.186077	-0.017809	0.001001	0.059427	1.000000	-0.000029	0.000009	0.000015	-167.480160	-76.788135	143.399508
46903	9.592870	-0.473498	-2.201007	0.008487	0.012337	0.040818	1.000000	-0.000000	0.000023	0.000004	-167.484483	-76.788819	143.404995
46904	9.604402	-0.483816	-2.231670	0.029416	-0.007505	0.059396	1.000000	-0.000022	0.000010	0.000027	-167.481689	-76.787510	143.400697
46905	9.597928	-0.480303	-2.177492	-0.016442	0.016325	0.040832	1.000000	-0.000009	0.000004	0.000025	-167.479036	-76.785608	143.398136
46906	9.609447	-0.490726	-2.208185	0.004486	-0.003517	0.059411	1.000000	-0.000016	0.000026	0.000017	-167.478248	-76.786343	143.396671
46907	9.570746	-0.485811	-2.223842	0.027608	-0.010492	0.024984	1.000000	-0.000011	0.000016	0.000015	-167.479107	-76.786016	143.397430
46908	9.609606	-0.491194	-2.207388	0.003601	-0.003688	0.059412	1.000000	-0.000004	0.000026	0.000011	-167.480018	-76.786935	143.399127
46909	9.593184	-0.475327	-2.199244	0.005854	0.011816	0.040821	1.000000	-0.000021	0.000004	0.000031	-167.475632	-76.784828	143.393261
46910	9.592395	-0.509175	-2.207562	-0.000449	-0.022180	0.043587	1.000000	0.000010	0.000037	0.000018	-167.470503	-76.786743	143.390385
46911	9.588343	-0.470027	-2.221518	0.029022	0.007489	0.040814	1.000000	-0.000022	0.000010	0.000027	-167.467888	-76.785371	143.385895
46912	9.609851	-0.492667	-2.205995	0.001835	-0.004029	0.059412	1.000000	-0.000012	0.000023	0.000010	-167.470245	-76.785897	143.388063
46913	9.598456	-0.482866	-2.174597	-0.019966	0.015634	0.040827	1.000000	-0.000006	0.000023	0.000022	-167.466422	-76.786239	143.385204
46914	9.592682	-0.510443	-2.206023	-0.002208	-0.022522	0.043586	1.000000	-0.000011	0.000016	0.000015	-167.467055	-76.785939	143.385722
46915	9.576257	-0.494516	-2.197912	0.000037	-0.007015	0.024996	1.000000	-0.000010	0.000010	0.000020	-167.466238	-76.784783	143.384748
46916	9.610082	-0.493969	-2.204694	0.000073	-0.004377	0.059412	1.000000	-0.000005	0.000017	0.000027	-167.460555	-76.784260	143.379515
46917	9.605983	-0.454797	-2.218910	0.029549	0.025296	0.056649	1.000000	-0.000027	0.000003	0.000020	-167.462409	-76.782333	143.379467
46918	9.597816	-0.517828	-2.181972	-0.028028	-0.018706	0.043584	1.000000	-0.000013	0.000029	0.000006	-167.466489	-76.783685	143.383283
46919	9.610254	-0.494700	-2.203783	-0.001255	-0.004628	0.059412	1.000000	0.000019	0.000017	0.000014	-167.464356	-76.783484	143.384372
46920	9.600344	-0.482805	-2.249677	0.046423	-0.013021	0.059416	1.000000	-0.000014	0.000013	0.000027	-167.460121	-76.782568	143.379610
46921	9.610350	-0.495507	-2.203179	-0.002141	-0.004801	0.059411	1.000000	-0.000015	0.000020	0.000022	-167.457866	-76.782448	143.376220
46922	9.593977	-0.479614	-2.194849	0.000116	0.010713	0.040824	1.000000	-0.000007	0.000030	0.000017	-167.455630	-76.783577	143.374285
46923	9.615496	-0.502296	-2.179194	-0.027087	-0.000819	0.059406	1.000000	-0.000023	0.000016	0.000022	-167.454800	-76.783056	143.371113
46924	9.571788	-0.491399	-2.218119	0.020131	-0.011927	0.025001	1.000000	-0.000004	0.000011	0.000032	-167.447397	-76.781707	143.364235
46925	9.610606	-0.496967	-2.201734	-0.003905	-0.005144	0.059411	1.000000	-0.000012	0.000023	0.000010	-167.449839	-76.782249	143.366955
46926	9.594214	-0.481064	-2.193496	-0.001646	0.010371	0.040824	1.000000	-0.000005	0.000017	0.000027	-167.444158	-76.781726	143.361725
46927	9.589344	-0.475225	-2.216084	0.021961	0.006135	0.040833	1.000000	0.000004	0.000036	0.000006	-167.445580	-76.783806	143.364639
46928	9.594400	-0.481650	-2.192554	-0.002535	0.010202	0.040824	1.000000	-0.000022	0.000010	0.000027	-167.442798	-76.782496	143.360355
46929	9.577962	-0.465800	-2.184514	-0.000283	0.025716	0.022238	1.000000	-0.000010	0.000010	0.000020	-167.441871	-76.781339	143.359083
46930	9.589495	-0.476161	-2.215232	0.020640	0.005885	0.040836	1.000000	-0.000011	0.000016	0.000015	-167.442506	-76.781040	143.359604
46931	9.606887	-0.459233	-2.214079	0.023351	0.024105	0.056669	1.000000	-0.000011	0.000016	0.000015	-167.443416	-76.780789	143.360656
46932	9.560783	-0.483748	-2.184514	-0.004742	0.007135	0.006407	1.000000	-0.000011	0.000016	0.000015	-167.444051	-76.780490	143.361177
46933	9.577315	-0.500169	-2.192015	-0.007888	-0.008563	0.024992	1.000000	-0.000012	0.000023	0.000010	-167.446834	-76.781026	143.363432
46934	9.612093	-0.465981	-2.189804	-0.002035	0.027987	0.056656	1.000000	0.000017	0.000030	0.000004	-167.447987	-76.782522	143.367813
46935	9.589033	-0.510692	-2.221908	0.012586	-0.028481	0.043593	1.000000	-0.000031	0.000029	0.000030	-167.442649	-76.783251	143.359767
46936	9.590012	-0.477611	-2.212677	0.017993	0.005353	0.040842	1.000000	-0.000004	0.000026	0.000011	-167.443557	-76.784170	143.361464
46937	9.590094	-0.477826	-2.212275	0.017545	0.005266	0.040843	1.000000	-0.000011	0.000016	0.000015	-167.444429	-76.783837	143.361817
46938	9.568740	-0.455736	-2.227178	0.043870	0.016641	0.022281	1.000000	-0.000015	0.000020	0.000022	-167.441922	-76.783747	143.358711
46939	9.611650	-0.500766	-2.196310	-0.010105	-0.006356	0.059406	1.000000	-0.000012	0.000023	0.000010	-167.444395	-76.784211	143.360715
46940	9.589453	-0.512121	-2.219765	0.010379	-0.028898	0.043594	1.000000	-0.000001	0.000030	0.000029	-167.435843	-76.785115	143.353031
46941	9.578908	-0.469091	-2.179654	-0.005582	0.024676	0.022239	1.000000	-0.000023	0.000016	0.000022	-167.434959	-76.784609	143.350874
46942	9.577224	-0.536189	-2.196672	-0.017698	-0.043244	0.027735	1.000000	-0.000007	0.000030	0.000017	-167.432722	-76.785738	143.348941
46943	9.590552	-0.479709	-2.209884	0.014883	0.004767	0.040847	1.000000	-0.000015	0.000003	0.000013	-167.436476	-76.783936	143.351714
46944	9.578228	-0.503211	-2.187324	-0.012748	-0.009493	0.024986	1.000000	-0.000017	0.000032	0.000012	-167.437411	-76.785498	143.351903
46945	9.585796	-0.474006	-2.232043	0.038067	0.000456	0.040877	1.000000	-0.000010	0.000033	0.000024	-167.432193	-76.786851	143.346120
46946	9.600715	-0.492880	-2.162344	-0.034554	0.012787	0.040791	1.000000	-0.000010	0.000010	0.000020	-167.431111	-76.785725	143.344998
46947	9.618113	-0.476145	-2.161134	-0.031857	0.031014	0.056626	1.000000	-0.000009	0.000027	0.000029	-167.424015	-76.786277	143.338125
46948	9.595888	-0.487496	-2.184735	-0.011363	0.008477	0.040819	1.000000	-0.000020	0.000013	0.000015	-167.426105	-76.785586	143.339126
46949	9.544790	-0.505841	-2.178360	-0.015351	-0.012640	-0.009435	1.000000	-0.000023	0.000016	0.000022	-167.425192	-76.785107	143.337116
46950	9.613343	-0.471041	-2.183226	-0.009117	0.026620	0.056655	1.000000	0.000012	0.000024	0.000027	-167.416611	-76.785368	143.330939
46951	9.608501	-0.465186	-2.205815	0.014510	0.022394	0.056690	1.000000	-0.000013	0.000029	0.000006	-167.420793	-76.786774	143.335002
46952	9.596183	-0.488698	-2.183171	-0.013113	0.008128	0.040817	1.000000	-0.000023	0.000016	0.000022	-167.419740	-76.786292	143.332373
46953	9.574838	-0.466514	-2.198148	0.013218	0.019509	0.022274	1.000000	-0.000008	0.000013	0.000009	-167.423676	-76.785808	143.337023
46954	9.584786	-0.478996	-2.151617	-0.035343	0.027690	0.022199	1.000000	-0.000012	0.000023	0.000010	-167.426034	-76.786336	143.339196
46955	9.596381	-0.489275	-2.182171	-0.014419	0.007865	0.040816	1.000000	-0.000003	0.000020	0.000015	-167.425153	-76.786482	143.339922
46956	9.592422	-0.449890	-2.196128	0.015032	0.037572	0.038115	1.000000	-0.000000	0.000023	0.000004	-167.429203	-76.787194	143.345249
46957	9.579205	-0.506848	-2.182199	-0.018411	-0.010625	0.024975	1.000000	-0.000006	0.000023	0.000022	-167.425373	-76.787522	143.341503
46958	9.596597	-0.490222	-2.181007	-0.015732	0.007607	0.040814	1.000000	-0.000016	0.000010	0.000038	-167.416284	-76.785989	143.331477
46959	9.591701	-0.484375	-2.203871	0.007883	0.003390	0.040856	1.000000	-0.000017	0.000016	0.000004	-167.423476	-76.785890	143.337589
46960	9.591766	-0.484456	-2.203568	0.007446	0.003307	0.040856	1.000000	0.000001	0.000017	0.000009	-167.425806	-76.785775	143.341270
46961	9.569545	-0.495641	-2.227238	0.027939	-0.019215	0.025061	1.000000	-0.000011	0.000016	0.000015	-167.426668	-76.785367	143.341620
46962	9.591892	-0.484927	-2.202915	0.006550	0.003144	0.040857	1.000000	-0.000003	0.000020	0.000015	-167.425855	-76.785461	143.341671
46963	9.591974	-0.485143	-2.202513	0.006112	0.003053	0.040857	1.000000	-0.000012	0.000023	0.000010	-167.428368	-76.786016	143.344312
46964	9.620956	-0.478333	-2.232058	0.030133	0.001553	0.075324	1.000000	-0.000010	0.000033	0.000024	-167.422986	-76.787354	143.338749
46965	9.592193	-0.485632	-2.201452	0.005228	0.002882	0.040858	1.000000	0.000012	0.000023	-0.000003	-167.428942	-76.788225	143.347390
46966	9.604656	-0.462356	-2.223491	0.031959	0.016990	0.056750	1.000000	-0.000033	-0.000004	0.000013	-167.435365	-76.785715	143.351331
46967	9.592272	-0.485886	-2.201051	0.004354	0.002714	0.040858	1.000000	-0.000007	0.000030	0.000017	-167.433138	-76.786858	143.350000
46968	9.575885	-0.469910	-2.192857	0.006630	0.018239	0.022283	1.000000	-0.000007	0.000007	0.000013	-167.435201	-76.785524	143.352510
46969	9.592358	-0.486432	-2.200556	0.003463	0.002542	0.040859	1.000000	-0.000010	0.000010	0.000020	-167.434466	-76.784342	143.351462
46970	9.592375	-0.486750	-2.200411	0.003025	0.002458	0.040859	1.000000	-0.000019	0.000007	0.000020	-167.434840	-76.782825	143.350820
46971	9.614697	-0.476131	-2.176146	-0.018380	0.024798	0.056647	1.000000	-0.000006	0.000023	0.000022	-167.431161	-76.783160	143.347674
46972	9.576080	-0.471193	-2.191732	0.004862	0.017889	0.022284	1.000000	-0.000020	0.000036	0.000019	-167.428953	-76.784933	143.344237
46973	9.597523	-0.493813	-2.176119	-0.022363	0.006309	0.040802	1.000000	-0.000003	0.000003	0.000007	-167.434407	-76.783368	143.349872
46974	9.575292	-0.504942	-2.199879	-0.001833	-0.016208	0.025015	1.000000	-0.000024	0.000023	0.000017	-167.435077	-76.783714	143.348895
46975	9.621575	-0.481034	-2.228804	0.025265	0.000604	0.075337	1.000000	-0.000009	0.000004	0.000025	-167.432461	-76.781774	143.346094
46976	9.571361	-0.465985	-2.213754	0.027166	0.013427	0.022346	1.000000	-0.000012	0.000023	0.000010	-167.434820	-76.782303	143.348269
46977	9.597720	-0.494758	-2.175034	-0.024115	0.005963	0.040798	1.000000	0.000001	0.000017	0.000009	-167.437177	-76.782208	143.351883
46978	9.588859	-0.449205	-2.212175	0.029385	0.031573	0.038194	1.000000	-0.000011	0.000016	0.000015	-167.437817	-76.781911	143.352412
46979	9.592926	-0.489079	-2.197488	-0.000924	0.001681	0.040860	1.000000	-0.000015	0.000020	0.000022	-167.435251	-76.781831	143.349300
46980	9.576575	-0.473184	-2.189138	0.001357	0.017208	0.022287	1.000000	0.000002	0.000033	0.000017	-167.431559	-76.783353	143.346891
46981	9.609553	-0.505889	-2.204434	-0.004505	-0.014112	0.059432	1.000000	-0.000016	0.000009	0.000008	-167.436891	-76.782563	143.352120
46982	9.610510	-0.472668	-2.195448	0.000862	0.019730	0.056706	1.000000	-0.000011	0.000016	0.000015	-167.437531	-76.782265	143.352649
46983	9.598136	-0.496158	-2.172878	-0.026721	0.005428	0.040792	1.000000	-0.000000	0.000023	0.000004	-167.441817	-76.783059	143.358747
46984	9.605744	-0.466902	-2.217834	0.024055	0.015436	0.056775	1.000000	-0.000014	0.000013	0.000027	-167.437596	-76.782145	143.354002
46985	9.598240	-0.496714	-2.172293	-0.027591	0.005250	0.040789	1.000000	-0.000008	0.000013	0.000009	-167.441459	-76.781697	143.358460
46986	9.576946	-0.474395	-2.187251	-0.001243	0.016669	0.022288	1.000000	-0.000021	0.000019	0.000010	-167.445272	-76.781834	143.361113
46987	9.609927	-0.507070	-2.202529	-0.007108	-0.014651	0.059430	1.000000	-0.000016	0.000026	0.000017	-167.444505	-76.782675	143.360054
46988	9.588649	-0.484918	-2.217396	0.019241	-0.003230	0.040931	1.000000	-0.000023	0.000016	0.000022	-167.443457	-76.782196	143.357433
46989	9.610070	-0.507589	-2.201786	-0.007980	-0.014830	0.059429	1.000000	-0.000012	0.000023	0.000010	-167.445987	-76.782781	143.359612
46990	9.593664	-0.491633	-2.193696	-0.005696	0.000700	0.040858	1.000000	-0.000009	0.000004	0.000025	-167.443189	-76.780831	143.356849
46991	9.577234	-0.475611	-2.185726	-0.003416	0.016224	0.022288	1.000000	-0.000004	0.000010	0.000002	-167.450307	-76.780119	143.364973
46992	9.593733	-0.492045	-2.193300	-0.006576	0.000526	0.040858	1.000000	-0.000015	0.000020	0.000022	-167.447805	-76.780031	143.361875
46993	9.589802	-0.452687	-2.207376	0.022837	0.030258	0.038216	1.000000	-0.000016	0.000010	0.000008	-167.453358	-76.779108	143.366372
46994	9.616105	-0.481572	-2.168717	-0.028457	0.022769	0.056628	1.000000	-0.000006	0.000023	0.000022	-167.449402	-76.779412	143.362798
46995	9.577479	-0.476534	-2.184452	-0.005174	0.015877	0.022288	1.000000	-0.000012	0.000023	0.000010	-167.451842	-76.779970	143.364866
46996	9.598914	-0.499274	-2.168727	-0.032402	0.004281	0.040775	1.000000	0.000003	0.000027	0.000022	-167.446431	-76.780665	143.360813
46997	9.577612	-0.477299	-2.183700	-0.006055	0.015704	0.022287	1.000000	-0.000021	0.000004	0.000031	-167.442180	-76.778520	143.355109
46998	9.594098	-0.493840	-2.191302	-0.009218	0.000005	0.040855	1.000000	-0.000000	0.000023	0.000004	-167.446223	-76.779232	143.360432
46999	9.611523	-0.476950	-2.190080	-0.006585	0.018227	0.056707	1.000000	-0.000022	0.000010	0.000026	-167.443525	-76.777977	143.356602
47000	9.589315	-0.488161	-2.213803	0.013980	-0.004270	0.040940	1.000000	-0.000012	0.000023	0.000010	-167.445882	-76.778507	143.358778
47001	9.594272	-0.494625	-2.190360	-0.010517	-0.000268	0.040854	1.000000	-0.000002	0.000014	0.000020	-167.443511	-76.777865	143.356691
47002	9.595236	-0.461659	-2.181342	-0.005166	0.033578	0.038139	1.000000	-0.000014	0.000013	0.000027	-167.439293	-76.776951	143.351951
47003	9.568130	-0.466731	-2.228192	0.039471	0.006970	0.022463	1.000000	-0.000011	0.000016	0.000015	-167.440246	-76.776715	143.353207
47004	9.594373	-0.495764	-2.189659	-0.011828	-0.000536	0.040853	1.000000	-0.000021	0.000004	0.000031	-167.435769	-76.774584	143.347302
47005	9.611803	-0.478879	-2.188431	-0.009223	0.017685	0.056706	1.000000	-0.000001	0.000029	-0.000001	-167.441918	-76.776085	143.354273
47006	9.573194	-0.473660	-2.204180	0.014078	0.010810	0.022377	1.000000	-0.000011	0.000016	0.000015	-167.442559	-76.775789	143.354804
47007	9.607067	-0.473029	-2.210795	0.013947	0.013425	0.056797	1.000000	-0.000011	0.000016	0.000015	-167.443460	-76.775381	143.354849
47008	9.600459	-0.469487	-2.156414	-0.031899	0.037149	0.038046	1.000000	-0.000015	0.000020	0.000022	-167.440962	-76.775295	143.351756
47009	9.589845	-0.490783	-2.210924	0.010022	-0.005069	0.040944	1.000000	-0.000007	0.000030	0.000017	-167.438924	-76.776504	143.350085
47010	9.567673	-0.501973	-2.234522	0.030602	-0.027558	0.025185	1.000000	-0.000011	0.000016	0.000015	-167.439566	-76.776208	143.350618
47011	9.573531	-0.475090	-2.202405	0.011866	0.010379	0.022380	1.000000	-0.000010	0.000010	0.000020	-167.438767	-76.775043	143.349572
47012	9.612275	-0.480777	-2.185941	-0.012322	0.017082	0.056703	1.000000	-0.000015	0.000020	0.000022	-167.436269	-76.774957	143.346480
47013	9.578531	-0.482022	-2.178627	-0.013067	0.014295	0.022283	1.000000	-0.000006	0.000023	0.000022	-167.432353	-76.775344	143.343461
47014	9.595990	-0.465207	-2.177269	-0.010457	0.032523	0.038139	1.000000	-0.000024	0.000023	0.000017	-167.433028	-76.775693	143.342493
47015	9.595129	-0.498930	-2.185627	-0.016673	-0.001501	0.040845	1.000000	-0.000018	0.000023	0.000029	-167.427568	-76.775846	143.336041
47016	9.591294	-0.459563	-2.199458	0.012735	0.028258	0.038240	1.000000	-0.000001	0.000029	-0.000001	-167.433324	-76.777385	143.343007
47017	9.585573	-0.486841	-2.230906	0.030592	-0.009849	0.041049	1.000000	-0.000011	0.000016	0.000015	-167.433996	-76.777105	143.343217
47018	9.607877	-0.476155	-2.206601	0.009127	0.012469	0.056804	1.000000	-0.000020	0.000013	0.000015	-167.436095	-76.776419	143.344230
47019	9.607927	-0.476377	-2.206334	0.008692	0.012379	0.056805	1.000000	-0.000011	0.000016	0.000015	-167.436806	-76.776163	143.344944
47020	9.608001	-0.476754	-2.205930	0.008253	0.012295	0.056805	1.000000	-0.000009	0.000027	0.000029	-167.429712	-76.776677	143.337747
47021	9.585831	-0.487873	-2.229570	0.028848	-0.010199	0.041054	1.000000	-0.000005	0.000016	-0.000003	-167.438594	-76.776843	143.347322
47022	9.569468	-0.471807	-2.221367	0.031145	0.005340	0.022494	1.000000	-0.000018	0.000023	0.000029	-167.432957	-76.776967	143.340606
47023	9.573491	-0.511660	-2.206564	0.000869	-0.024610	0.025089	1.000000	-0.000013	0.000029	0.000006	-167.437370	-76.778391	143.344824
47024	9.608342	-0.477607	-2.204258	0.006502	0.011931	0.056807	1.000000	-0.000023	0.000016	0.000022	-167.436331	-76.777915	143.342214
47025	9.586115	-0.488879	-2.228129	0.027117	-0.010561	0.041059	1.000000	-0.000009	0.000004	0.000025	-167.433572	-76.776093	143.340059
47026	9.608410	-0.478330	-2.203806	0.005641	0.011750	0.056808	1.000000	-0.000016	0.000026	0.000017	-167.432790	-76.776835	143.338613
47027	9.608509	-0.478590	-2.203320	0.005189	0.011668	0.056808	1.000000	-0.000016	0.000026	0.000017	-167.432175	-76.777506	143.337039
47028	9.579627	-0.485916	-2.172933	-0.019612	0.012977	0.022274	1.000000	-0.000011	0.000016	0.000015	-167.432817	-76.777211	143.337574
47029	9.608637	-0.479246	-2.202619	0.004321	0.011483	0.056809	1.000000	-0.000017	0.000017	0.000033	-167.425699	-76.776612	143.330597
47030	9.591295	-0.496888	-2.203257	0.000856	-0.006912	0.040948	1.000000	-0.000005	0.000017	0.000027	-167.420029	-76.776090	143.325383
47031	9.626110	-0.463045	-2.201092	0.006474	0.029620	0.072670	1.000000	0.000002	0.000010	0.000014	-167.420728	-76.775200	143.327861
47032	9.596270	-0.503651	-2.179523	-0.024085	-0.003010	0.040830	1.000000	-0.000013	0.000029	0.000006	-167.424799	-76.776560	143.331682
47033	9.591502	-0.497574	-2.202201	-0.000455	-0.007182	0.040948	1.000000	-0.000011	0.000016	0.000015	-167.425730	-76.776286	143.332198
47034	9.592529	-0.464394	-2.193045	0.004868	0.026670	0.038251	1.000000	-0.000012	0.000023	0.000010	-167.428087	-76.776818	143.334376
47035	9.626427	-0.463743	-2.199560	0.004683	0.029275	0.072673	1.000000	-0.000011	0.000016	0.000015	-167.429139	-76.776388	143.334548
47036	9.596603	-0.504503	-2.177862	-0.025867	-0.003356	0.040825	1.000000	0.000010	0.000037	0.000018	-167.423980	-76.778301	143.331657
47037	9.597639	-0.471437	-2.168642	-0.020538	0.030492	0.038129	1.000000	-0.000040	0.000009	0.000021	-167.425813	-76.777097	143.330085
47038	9.587009	-0.492480	-2.223484	0.021410	-0.011676	0.041072	1.000000	-0.000004	0.000010	0.000002	-167.432733	-76.776383	143.337868
47039	9.609344	-0.481801	-2.198972	-0.000090	0.010629	0.056811	1.000000	0.000010	0.000037	0.000018	-167.427604	-76.778249	143.334363
47040	9.585303	-0.495372	-2.145460	-0.048946	0.016005	0.022137	1.000000	-0.000028	0.000009	0.000015	-167.431166	-76.777174	143.335864
47041	9.609492	-0.482283	-2.198219	-0.000995	0.010453	0.056811	1.000000	-0.000016	0.000026	0.000017	-167.430974	-76.777815	143.334582
47042	9.593132	-0.466212	-2.190020	0.001308	0.025996	0.038254	1.000000	-0.000008	0.000013	0.000009	-167.434756	-76.777310	143.338742
47043	9.604773	-0.476434	-2.220683	0.022210	0.006199	0.056940	1.000000	-0.000011	0.000016	0.000015	-167.435570	-76.777120	143.339476
47044	9.574898	-0.517232	-2.199147	-0.008320	-0.026436	0.025081	1.000000	-0.000018	0.000023	0.000029	-167.429936	-76.777245	143.332766
47045	9.592365	-0.500321	-2.197817	-0.005740	-0.008217	0.040945	1.000000	-0.000005	0.000016	-0.000003	-167.438640	-76.777424	143.342245
47046	9.572087	-0.444501	-2.204109	0.026389	0.037195	0.019832	1.000000	-0.000015	0.000003	0.000013	-167.442166	-76.775702	143.345244
47047	9.609833	-0.483596	-2.196438	-0.003597	0.009918	0.056811	1.000000	-0.000018	0.000023	0.000029	-167.436515	-76.775912	143.339074
47048	9.592531	-0.500993	-2.196937	-0.007040	-0.008477	0.040944	1.000000	0.000008	0.000026	0.000004	-167.439091	-76.777015	143.343911
47049	9.610031	-0.484079	-2.195465	-0.004480	0.009744	0.056810	1.000000	-0.000016	0.000026	0.000017	-167.438537	-76.777753	143.342962
47050	9.610121	-0.484408	-2.195000	-0.004918	0.009660	0.056810	1.000000	-0.000006	0.000023	0.000022	-167.434581	-76.778058	143.339392
47051	9.581215	-0.491748	-2.164605	-0.029678	0.010954	0.022251	1.000000	-0.000012	0.000023	0.000010	-167.436929	-76.778642	143.341384
47052	9.605399	-0.478658	-2.217494	0.018285	0.005423	0.056949	1.000000	-0.000014	-0.000003	0.000018	-167.438741	-76.776093	143.342739
47053	9.610273	-0.485222	-2.194154	-0.006228	0.009392	0.056810	1.000000	-0.000019	0.000029	0.000024	-167.435082	-76.777075	143.338278
47054	9.610350	-0.485655	-2.193720	-0.006667	0.009309	0.056810	1.000000	-0.000005	0.000017	0.000027	-167.429413	-76.776554	143.333065
47055	9.605574	-0.479660	-2.216518	0.016980	0.005156	0.056951	1.000000	-0.000017	0.000016	0.000004	-167.436313	-76.776569	143.339292
47056	9.610468	-0.486106	-2.193103	-0.007531	0.009134	0.056809	1.000000	0.000007	0.000017	0.000020	-167.432320	-76.776227	143.337218
47057	9.588305	-0.497375	-2.216796	0.013121	-0.013338	0.041084	1.000000	-0.000006	0.000023	0.000022	-167.428566	-76.776647	143.334445
47058	9.588391	-0.497646	-2.216363	0.012684	-0.013421	0.041084	1.000000	-0.000012	0.000023	0.000010	-167.430922	-76.777181	143.336625
47059	9.589428	-0.464540	-2.207211	0.017974	0.020426	0.038402	1.000000	-0.000002	0.000014	0.000020	-167.428782	-76.776430	143.335030
47060	9.572100	-0.481920	-2.207812	0.014547	0.002033	0.022533	1.000000	-0.000004	0.000026	0.000011	-167.429678	-76.777353	143.336727
47061	9.610856	-0.487507	-2.191093	-0.009741	0.008682	0.056808	1.000000	-0.000012	0.000023	0.000010	-167.432370	-76.777822	143.339727
47062	9.577070	-0.488494	-2.184012	-0.010418	0.005920	0.022385	1.000000	-0.000015	0.000003	0.000013	-167.435898	-76.776101	143.342728
47063	9.594510	-0.471725	-2.182791	-0.007869	0.024130	0.038256	1.000000	-0.000018	0.000023	0.000029	-167.430606	-76.776283	143.336530
47064	9.583956	-0.492927	-2.237440	0.034107	-0.018007	0.041238	1.000000	0.000001	0.000017	0.000009	-167.432926	-76.776169	143.340206
47065	9.572437	-0.483075	-2.206099	0.012357	0.001596	0.022536	1.000000	-0.000004	0.000026	0.000011	-167.433679	-76.777149	143.341954
47066	9.606384	-0.482559	-2.212377	0.012152	0.004191	0.056959	1.000000	-0.000010	0.000033	0.000024	-167.428299	-76.778492	143.336405
47067	9.594866	-0.472856	-2.180982	-0.009628	0.023785	0.038255	1.000000	-0.000011	0.000016	0.000015	-167.429379	-76.778145	143.336806
47068	9.606565	-0.483034	-2.211487	0.011258	0.004016	0.056960	1.000000	-0.000013	0.000029	0.000006	-167.433451	-76.779506	143.340631
47069	9.577618	-0.490415	-2.181175	-0.013493	0.005294	0.022382	1.000000	-0.000004	0.000011	0.000032	-167.426516	-76.778158	143.334259
47070	9.577635	-0.490914	-2.180991	-0.013930	0.005210	0.022382	1.000000	-0.000022	0.000010	0.000026	-167.423773	-76.776858	143.330019
47071	9.595127	-0.474096	-2.179565	-0.011398	0.023428	0.038254	1.000000	0.000004	0.000036	0.000006	-167.425191	-76.778990	143.332772
47072	9.595232	-0.474377	-2.179041	-0.011836	0.023344	0.038254	1.000000	-0.000027	0.000020	0.000028	-167.421023	-76.778727	143.326552
47073	9.611740	-0.490964	-2.186440	-0.015039	0.007623	0.056802	1.000000	-0.000004	0.000026	0.000011	-167.422163	-76.779605	143.328026
47074	9.573190	-0.485691	-2.202254	0.008379	0.000815	0.022541	1.000000	-0.000012	0.000023	0.000010	-167.424522	-76.780139	143.330210
47075	9.602293	-0.478883	-2.231790	0.032215	-0.000652	0.057126	1.000000	-0.000015	0.000020	0.000022	-167.422552	-76.779996	143.327362
47076	9.573350	-0.486248	-2.201435	0.007485	0.000638	0.022541	1.000000	-0.000016	0.000026	0.000017	-167.421773	-76.780739	143.325923
47077	9.595630	-0.475713	-2.176995	-0.014056	0.022907	0.038252	1.000000	-0.000010	0.000010	0.000020	-167.420755	-76.779642	143.325087
47078	9.585051	-0.496946	-2.231854	0.027934	-0.019213	0.041255	1.000000	-0.000022	0.000010	0.000026	-167.418014	-76.778342	143.320850
47079	9.617926	-0.465500	-2.152407	-0.036041	0.045084	0.053960	1.000000	-0.000000	0.000023	0.000004	-167.422240	-76.779090	143.326457
47080	9.590977	-0.470271	-2.199254	0.008706	0.018601	0.038418	1.000000	-0.000023	0.000016	0.000022	-167.421213	-76.778618	143.323862
47081	9.594830	-0.510217	-2.184740	-0.021540	-0.011388	0.040920	1.000000	-0.000010	0.000010	0.000020	-167.420427	-76.777463	143.322773
47082	9.608482	-0.453882	-2.197699	0.010782	0.036738	0.054296	1.000000	-0.000006	0.000023	0.000022	-167.416473	-76.777769	143.319206
47083	9.573708	-0.488414	-2.199398	0.004401	0.000032	0.022543	1.000000	-0.000010	0.000010	0.000020	-167.415794	-76.776584	143.318344
47084	9.612400	-0.494241	-2.182797	-0.019909	0.006663	0.056794	1.000000	-0.000006	0.000023	0.000022	-167.411841	-76.776890	143.314778
47085	9.585469	-0.499078	-2.229581	0.024847	-0.019823	0.041262	1.000000	-0.000012	0.000023	0.000010	-167.414390	-76.777463	143.317223
47086	9.573952	-0.489150	-2.198170	0.003092	-0.000228	0.022544	1.000000	-0.000013	0.000029	0.000006	-167.418461	-76.778825	143.321049
47087	9.591482	-0.472372	-2.196599	0.005614	0.017989	0.038422	1.000000	-0.000001	0.000030	0.000029	-167.410047	-76.779768	143.314189
47088	9.596383	-0.479002	-2.172953	-0.018901	0.021945	0.038246	1.000000	-0.000004	0.000026	0.000011	-167.410942	-76.780692	143.315887
47089	9.608108	-0.489195	-2.203415	0.001963	0.002184	0.056967	1.000000	-0.000012	0.000023	0.000010	-167.413545	-76.781153	143.318297
47090	9.591759	-0.473105	-2.195231	0.004284	0.017738	0.038423	1.000000	-0.000011	0.000016	0.000015	-167.414193	-76.780859	143.318840
47091	9.579191	-0.496685	-2.172836	-0.023194	0.003371	0.022365	1.000000	-0.000011	0.000016	0.000015	-167.415281	-76.780558	143.319645
47092	9.591851	-0.473617	-2.194720	0.003397	0.017559	0.038424	1.000000	-0.000019	0.000007	0.000020	-167.415682	-76.779048	143.319036
47093	9.629542	-0.512787	-2.186924	-0.026621	-0.009778	0.075329	1.000000	-0.000019	0.000029	0.000024	-167.411687	-76.780132	143.314591
47094	9.608404	-0.490432	-2.201846	-0.000221	0.001742	0.056967	1.000000	-0.000004	0.000010	0.000002	-167.418610	-76.779420	143.322379
47095	9.591061	-0.507666	-2.202493	-0.003625	-0.016663	0.041087	1.000000	-0.000007	0.000030	0.000017	-167.416924	-76.780510	143.320961
47096	9.575684	-0.458454	-2.185547	0.004407	0.032841	0.019882	1.000000	0.000000	0.000001	0.000030	-167.410974	-76.778123	143.316094
47097	9.592158	-0.475109	-2.193052	0.001186	0.017112	0.038425	1.000000	-0.000017	0.000032	0.000012	-167.412349	-76.779615	143.316295
47098	9.574823	-0.492364	-2.193657	-0.002195	-0.001280	0.022544	1.000000	-0.000020	0.000013	0.000015	-167.414463	-76.778933	143.317329
47099	9.625156	-0.507916	-2.207951	-0.005248	-0.014347	0.075509	1.000000	-0.000018	0.000022	-0.000001	-167.423850	-76.779590	143.325530
47100	9.608826	-0.491593	-2.199747	-0.002923	0.001209	0.056967	1.000000	-0.000009	0.000019	0.000004	-167.429349	-76.779914	143.331340
47101	9.608922	-0.491851	-2.199268	-0.003355	0.001111	0.056967	1.000000	0.000011	0.000030	0.000022	-167.422673	-76.781077	143.327185
47102	9.597383	-0.482418	-2.167773	-0.025108	0.020698	0.038235	1.000000	-0.000025	0.000030	0.000042	-167.410774	-76.781624	143.313244
47103	9.604290	-0.486609	-2.221504	0.019848	-0.003096	0.057158	1.000000	-0.000015	0.000003	0.000013	-167.414494	-76.779947	143.316527
47104	9.586932	-0.503760	-2.222229	0.016474	-0.021486	0.041276	1.000000	-0.000001	0.000029	-0.000001	-167.420239	-76.781489	143.323491
47105	9.592795	-0.476794	-2.189899	-0.002327	0.016382	0.038426	1.000000	0.000002	0.000010	0.000014	-167.421135	-76.780703	143.326202
47106	9.609275	-0.493292	-2.197401	-0.005531	0.000657	0.056966	1.000000	-0.000012	0.000023	0.000010	-167.423498	-76.781238	143.328392
47107	9.592950	-0.477205	-2.189131	-0.003198	0.016209	0.038426	1.000000	-0.000016	0.000026	0.000017	-167.422768	-76.782028	143.327421
47108	9.580371	-0.500739	-2.166692	-0.030645	0.001843	0.022345	1.000000	-0.000008	0.000013	0.000009	-167.426556	-76.781525	143.331591
47109	9.583556	-0.465106	-2.234584	0.044079	0.007982	0.038822	1.000000	-0.000019	0.000029	0.000024	-167.422934	-76.782492	143.326670
47110	9.604855	-0.487768	-2.218805	0.016795	-0.003719	0.057164	1.000000	-0.000006	0.000022	-0.000008	-167.433284	-76.783434	143.337747
47111	9.593299	-0.477951	-2.187437	-0.004940	0.015856	0.038426	1.000000	0.000012	0.000024	0.000027	-167.424627	-76.783789	143.332028
47112	9.605002	-0.488337	-2.218044	0.015934	-0.003894	0.057165	1.000000	-0.000028	0.000009	0.000015	-167.428211	-76.782720	143.333554
47113	9.576996	-0.462235	-2.178993	-0.003039	0.031315	0.019888	1.000000	-0.000016	0.000026	0.000017	-167.427658	-76.783568	143.332408
47114	9.571305	-0.489499	-2.210534	0.014912	-0.006741	0.022743	1.000000	-0.000021	0.000019	0.000010	-167.431488	-76.783715	143.335088
47115	9.593551	-0.478842	-2.186136	-0.006671	0.015486	0.038425	1.000000	-0.000028	0.000009	0.000015	-167.435243	-76.782761	143.337144
47116	9.577175	-0.462750	-2.178095	-0.004340	0.031047	0.019888	1.000000	-0.000011	0.000016	0.000015	-167.435894	-76.782469	143.337692
47117	9.606352	-0.455812	-2.207539	0.019459	0.029596	0.054518	1.000000	-0.000001	0.000029	-0.000001	-167.441749	-76.784077	143.344426
47118	9.605448	-0.489267	-2.215908	0.013332	-0.004439	0.057169	1.000000	-0.000024	0.000023	0.000017	-167.442441	-76.784435	143.343486
47119	9.577472	-0.463219	-2.176692	-0.005640	0.030783	0.019888	1.000000	-0.000007	0.000030	0.000017	-167.440172	-76.785608	143.342016
47120	9.622019	-0.506098	-2.222935	0.009691	-0.020254	0.075706	1.000000	-0.000027	0.000003	0.000020	-167.442043	-76.783712	143.341900
47121	9.593937	-0.480136	-2.184158	-0.009286	0.014960	0.038424	1.000000	-0.000009	0.000004	0.000025	-167.439460	-76.781797	143.339766
47122	9.610379	-0.496769	-2.191786	-0.012495	-0.000769	0.056959	1.000000	-0.000011	0.000016	0.000015	-167.440110	-76.781505	143.340314
47123	9.589282	-0.474442	-2.206685	0.013929	0.010769	0.038636	1.000000	-0.000016	0.000026	0.000017	-167.439383	-76.782331	143.338892
47124	9.598866	-0.487240	-2.160114	-0.034671	0.018713	0.038210	1.000000	-0.000020	0.000013	0.000015	-167.441500	-76.781651	143.339930
47125	9.594183	-0.481242	-2.182833	-0.011731	0.012986	0.038424	1.000000	-0.000019	0.000029	0.000024	-167.481346	-76.784997	143.412943
47126	9.573091	-0.459093	-2.197694	0.014678	0.024553	0.020109	1.000000	-0.000005	0.000017	0.000027	-167.475768	-76.784483	143.407869
47127	9.567420	-0.486474	-2.229158	0.032662	-0.013490	0.022966	1.000000	0.000004	0.000036	0.000006	-167.477079	-76.786631	143.411031
47128	9.594465	-0.482178	-2.181388	-0.013050	0.012721	0.038423	1.000000	-0.000011	0.000016	0.000015	-167.477819	-76.786345	143.411713
47129	9.606194	-0.492452	-2.211962	0.007828	-0.007026	0.057173	1.000000	-0.000003	0.000020	0.000015	-167.477347	-76.786482	143.411892
47130	9.621533	-0.478282	-2.133400	-0.059207	0.038829	0.053874	1.000000	-0.000015	0.000020	0.000022	-167.474950	-76.786406	143.408953
47131	9.577229	-0.500137	-2.181357	-0.017252	-0.005870	0.022527	1.000000	-0.000003	0.000020	0.000015	-167.474350	-76.786577	143.409777
47132	9.594716	-0.483212	-2.180056	-0.014802	0.012348	0.038421	1.000000	-0.000013	0.000006	0.000002	-167.482830	-76.785480	143.418190
47133	9.560912	-0.484279	-2.173026	-0.015369	0.009606	0.003996	1.000000	0.000000	0.000024	0.000034	-167.472842	-76.785536	143.408496
47134	9.590100	-0.477542	-2.202455	0.008396	0.008178	0.038645	1.000000	-0.000030	0.000022	0.000005	-167.479944	-76.786128	143.413449
47135	9.590143	-0.477741	-2.202227	0.007951	0.008084	0.038645	1.000000	-0.000009	0.000004	0.000025	-167.477484	-76.784186	143.410888
47136	9.601845	-0.488018	-2.232943	0.028829	-0.011648	0.057401	1.000000	0.000013	0.000017	0.000002	-167.481562	-76.784254	143.417831
47137	9.590220	-0.478082	-2.201816	0.007084	0.007900	0.038646	1.000000	-0.000025	0.000006	0.000008	-167.488405	-76.783063	143.423110
47138	9.612465	-0.467440	-2.177348	-0.014559	0.030107	0.054313	1.000000	-0.000003	0.000026	0.000011	-167.489392	-76.783992	143.424948
47139	9.606790	-0.494702	-2.208870	0.003421	-0.007931	0.057175	1.000000	-0.000024	0.000023	0.000017	-167.490457	-76.784292	143.423142
47140	9.585720	-0.472415	-2.223745	0.029836	0.003649	0.038878	1.000000	-0.000006	0.000023	0.000022	-167.486594	-76.784605	143.419715
47141	9.607927	-0.461997	-2.199386	0.008188	0.025848	0.054544	1.000000	-0.000014	-0.000003	0.000018	-167.488677	-76.782081	143.421594
47142	9.611681	-0.501808	-2.184916	-0.021984	-0.004213	0.056942	1.000000	-0.000013	0.000029	0.000006	-167.492845	-76.783450	143.425568
47143	9.573186	-0.496519	-2.200801	0.001563	-0.010948	0.022750	1.000000	-0.000018	0.000023	0.000028	-167.487507	-76.783655	143.419128
47144	9.600134	-0.492515	-2.153270	-0.044172	0.015240	0.038178	1.000000	-0.000009	0.000004	0.000025	-167.484819	-76.781714	143.416521
47145	9.590712	-0.480232	-2.199204	0.003551	0.007173	0.038648	1.000000	-0.000003	0.000026	0.000011	-167.486111	-76.782637	143.418509
47146	9.619892	-0.473433	-2.228740	0.027297	0.005750	0.073311	1.000000	-0.000019	0.000007	0.000020	-167.486605	-76.781136	143.418038
47147	9.607226	-0.497125	-2.206430	-0.000114	-0.008663	0.057175	1.000000	-0.000006	0.000023	0.000022	-167.483058	-76.781399	143.414367
47148	9.590885	-0.481141	-2.198251	0.002220	0.006907	0.038649	1.000000	-0.000011	0.000016	0.000015	-167.483799	-76.781113	143.415051
47149	9.612067	-0.504036	-2.182704	-0.025081	-0.004856	0.056934	1.000000	-0.000010	0.000010	0.000020	-167.482887	-76.779990	143.414457
47150	9.590968	-0.481721	-2.197763	0.001339	0.006732	0.038649	1.000000	-0.000011	0.000016	0.000015	-167.483627	-76.779704	143.415141
47151	9.607483	-0.498215	-2.205066	-0.001875	-0.009020	0.057174	1.000000	0.000004	0.000036	0.000006	-167.485014	-76.781868	143.418512
47152	9.591187	-0.482211	-2.196699	0.000460	0.006551	0.038649	1.000000	-0.000018	0.000023	0.000028	-167.479485	-76.782005	143.411960
47153	9.586534	-0.476285	-2.219404	0.024118	0.002476	0.038894	1.000000	-0.000002	0.000020	0.000015	-167.478791	-76.782190	143.412713
47154	9.607755	-0.499166	-2.203665	-0.003183	-0.009291	0.057174	1.000000	-0.000015	0.000026	0.000017	-167.478109	-76.782943	143.411424
47155	9.607857	-0.499482	-2.203147	-0.003627	-0.009386	0.057174	1.000000	-0.000019	0.000030	0.000024	-167.474517	-76.783908	143.406603
47156	9.608981	-0.466442	-2.193836	0.001568	0.024490	0.054551	1.000000	-0.000011	0.000016	0.000015	-167.475258	-76.783622	143.407289
47157	9.586892	-0.477483	-2.217601	0.022343	0.002121	0.038898	1.000000	-0.000019	0.000030	0.000024	-167.471687	-76.784529	143.401303
47158	9.601128	-0.496834	-2.147841	-0.050356	0.013962	0.038150	1.000000	-0.000005	0.000017	0.000027	-167.466112	-76.784014	143.396234
47159	9.604493	-0.461287	-2.215692	0.024334	0.020246	0.054803	1.000000	0.000006	0.000023	0.000016	-167.463808	-76.784586	143.396113
47160	9.609285	-0.467970	-2.192178	-0.000193	0.024134	0.054552	1.000000	-0.000027	0.000020	0.000028	-167.459749	-76.784334	143.390053
47161	9.609364	-0.468313	-2.191758	-0.000619	0.024036	0.054552	1.000000	-0.000015	0.000026	0.000017	-167.459057	-76.785196	143.389926
47162	9.604724	-0.462381	-2.214462	0.023029	0.019976	0.054806	1.000000	-0.000005	0.000017	0.000027	-167.453482	-76.784682	143.384857
47163	9.596773	-0.492376	-2.168923	-0.028447	0.009530	0.038394	1.000000	-0.000003	0.000026	0.000011	-167.454628	-76.785564	143.386559
47164	9.580435	-0.476384	-2.160751	-0.026107	0.025103	0.019871	1.000000	-0.000014	0.000013	0.000027	-167.450524	-76.784661	143.381984
47165	9.608624	-0.503027	-2.198993	-0.008010	-0.010285	0.057170	1.000000	-0.000008	0.000036	0.000013	-167.450134	-76.786686	143.381804
47166	9.609749	-0.469876	-2.189736	-0.002824	0.023592	0.054553	1.000000	-0.000015	0.000003	0.000013	-167.453772	-76.784974	143.384961
47167	9.608749	-0.503590	-2.198315	-0.008891	-0.010463	0.057169	1.000000	-0.000001	0.000030	0.000029	-167.445405	-76.785885	143.377172
47168	9.570277	-0.498344	-2.214221	0.014694	-0.017160	0.023003	1.000000	-0.000012	0.000023	0.000010	-167.447858	-76.786428	143.379503
47169	9.587830	-0.481516	-2.212669	0.017097	0.001055	0.038909	1.000000	-0.000015	0.000026	0.000017	-167.447221	-76.787181	143.378032
47170	9.587904	-0.481891	-2.212265	0.016659	0.000968	0.038910	1.000000	-0.000005	0.000017	0.000027	-167.441646	-76.786666	143.372964
47171	9.591605	-0.521917	-2.197739	-0.013493	-0.029123	0.041261	1.000000	-0.000011	0.000016	0.000015	-167.442550	-76.786390	143.373681
47172	9.600795	-0.459165	-2.233566	0.042705	0.015125	0.055082	1.000000	-0.000015	0.000026	0.000017	-167.441868	-76.787144	143.372392
47173	9.609195	-0.505325	-2.195969	-0.011524	-0.011003	0.057166	1.000000	-0.000003	0.000003	0.000007	-167.447198	-76.785668	143.379073
47174	9.575356	-0.506285	-2.189108	-0.012017	-0.013729	0.022739	1.000000	-0.000035	0.000016	0.000028	-167.444613	-76.785030	143.373511
47175	9.610301	-0.472514	-2.186740	-0.006792	0.022776	0.054553	1.000000	-0.000015	0.000003	0.000013	-167.448620	-76.783325	143.376556
47176	9.583471	-0.477116	-2.233887	0.038111	-0.003540	0.039182	1.000000	-0.000011	0.000016	0.000015	-167.449363	-76.783040	143.377244
47177	9.592957	-0.489990	-2.187227	-0.010509	0.004292	0.038645	1.000000	0.000005	0.000030	0.000011	-167.449070	-76.784367	143.378528
47178	9.626906	-0.489645	-2.193467	-0.010900	0.006842	0.073070	1.000000	-0.000005	0.000017	0.000027	-167.443497	-76.783852	143.373462
47179	9.588402	-0.484457	-2.209545	0.012707	0.000154	0.038916	1.000000	-0.000015	0.000020	0.000022	-167.441088	-76.783805	143.370405
47180	9.572100	-0.468397	-2.201264	0.015053	0.015732	0.020399	1.000000	-0.000016	0.000032	0.000012	-167.442115	-76.785387	143.370759
47181	9.605005	-0.501076	-2.216397	0.009035	-0.015690	0.057434	1.000000	-0.000005	0.000016	-0.000003	-167.451059	-76.785484	143.380289
47182	9.584006	-0.478546	-2.231281	0.035471	-0.004070	0.039192	1.000000	-0.000007	0.000030	0.000017	-167.448905	-76.786625	143.378507
47183	9.605161	-0.501667	-2.215590	0.008161	-0.015872	0.057434	1.000000	-0.000016	0.000010	0.000038	-167.440061	-76.785157	143.369113
47184	9.588830	-0.485758	-2.207400	0.010508	-0.000293	0.038918	1.000000	-0.000016	0.000032	0.000012	-167.441088	-76.786740	143.369467
47185	9.605333	-0.502302	-2.214699	0.007287	-0.016054	0.057435	1.000000	-0.000002	0.000020	0.000015	-167.440460	-76.786892	143.370100
47186	9.567916	-0.463656	-2.221851	0.036512	0.011236	0.020682	1.000000	-0.000015	0.000020	0.000022	-167.438069	-76.786819	143.367171
47187	9.618255	-0.479598	-2.235946	0.033326	-0.001891	0.073625	1.000000	-0.000002	0.000020	0.000015	-167.437397	-76.786982	143.367118
47188	9.589121	-0.486932	-2.205878	0.008765	-0.000656	0.038920	1.000000	-0.000010	0.000010	0.000020	-167.436432	-76.785869	143.366167
47189	9.623043	-0.486603	-2.212238	0.008340	0.001883	0.073346	1.000000	-0.000006	0.000023	0.000022	-167.432951	-76.786138	143.362322
47190	9.589252	-0.487731	-2.205131	0.007872	-0.000838	0.038921	1.000000	-0.000018	0.000023	0.000028	-167.427426	-76.786275	143.355775
47191	9.601051	-0.498124	-2.235590	0.028735	-0.020553	0.057719	1.000000	0.000006	0.000023	0.000016	-167.425347	-76.786794	143.355185
47192	9.573022	-0.472075	-2.196466	0.009785	0.014650	0.020407	1.000000	-0.000024	0.000023	0.000017	-167.426138	-76.787162	143.354395
47193	9.606958	-0.471557	-2.202806	0.009362	0.017197	0.054834	1.000000	-0.000008	0.000013	0.000009	-167.430107	-76.786625	143.358862
47194	9.611709	-0.478081	-2.179329	-0.015169	0.021061	0.054547	1.000000	-0.000015	0.000026	0.000017	-167.429425	-76.787381	143.357575
47195	9.589638	-0.489016	-2.203168	0.005673	-0.001289	0.038922	1.000000	-0.000011	0.000016	0.000015	-167.430368	-76.787146	143.358592
47196	9.628256	-0.494943	-2.186340	-0.018838	0.005205	0.073059	1.000000	0.000006	0.000023	0.000016	-167.428166	-76.787635	143.358290
47197	9.589776	-0.489745	-2.202407	0.004803	-0.001468	0.038923	1.000000	-0.000017	0.000017	0.000033	-167.420929	-76.786996	143.349600
47198	9.589853	-0.490177	-2.201972	0.004364	-0.001555	0.038923	1.000000	-0.000007	0.000030	0.000017	-167.418772	-76.788138	143.347816
47199	9.594582	-0.496752	-2.178556	-0.020171	0.002305	0.038631	1.000000	-0.000015	0.000003	0.000013	-167.422504	-76.786405	143.350440
47200	9.595707	-0.463579	-2.169403	-0.015013	0.036188	0.036032	1.000000	-0.000012	0.000023	0.000010	-167.424957	-76.786950	143.352773
47201	9.572586	-0.507874	-2.202038	0.000231	-0.020124	0.023009	1.000000	-0.000010	0.000033	0.000024	-167.419924	-76.788292	143.348010
47202	9.624046	-0.490518	-2.207006	0.002604	0.000719	0.073350	1.000000	-0.000015	0.000026	0.000017	-167.419242	-76.789047	143.346724
47203	9.612390	-0.480903	-2.175703	-0.019135	0.020238	0.054542	1.000000	-0.000005	0.000017	0.000027	-167.413900	-76.788559	143.341769
47204	9.590316	-0.491895	-2.199575	0.001717	-0.002095	0.038923	1.000000	-0.000012	0.000023	0.000010	-167.416354	-76.789104	143.344103
47205	9.591500	-0.458872	-2.190145	0.006861	0.031787	0.036329	1.000000	0.000011	0.000030	0.000023	-167.409744	-76.790153	143.338838
47206	9.612614	-0.481871	-2.174497	-0.020465	0.019972	0.054540	1.000000	-0.000015	0.000003	0.000013	-167.413394	-76.788443	143.342009
47207	9.574116	-0.476536	-2.190724	0.003185	0.013312	0.020413	1.000000	-0.000018	0.000023	0.000028	-167.407927	-76.788582	143.335121
47208	9.624441	-0.492616	-2.204811	-0.000051	0.000181	0.073350	1.000000	-0.000002	0.000014	0.000020	-167.405492	-76.787856	143.333677
47209	9.590616	-0.493601	-2.197883	-0.000489	-0.002540	0.038923	1.000000	-0.000011	0.000016	0.000015	-167.406358	-76.787587	143.334293
47210	9.603496	-0.470500	-2.219550	0.025956	0.011732	0.055144	1.000000	-0.000011	0.000016	0.000015	-167.407105	-76.787304	143.334987
47211	9.595392	-0.500481	-2.174131	-0.025449	0.001220	0.038619	1.000000	-0.000014	0.000020	0.000022	-167.404690	-76.787300	143.332226
47212	9.587246	-0.454716	-2.211034	0.027884	0.027226	0.036638	1.000000	-0.000012	0.000023	0.000010	-167.407143	-76.787845	143.334560
47213	9.574458	-0.478383	-2.188827	0.000570	0.012773	0.020415	1.000000	-0.000021	0.000004	0.000031	-167.402848	-76.785779	143.329664
47214	9.590858	-0.495102	-2.196487	-0.002667	-0.002988	0.038923	1.000000	0.000002	0.000010	0.000014	-167.403548	-76.784843	143.331838
47215	9.607274	-0.511774	-2.204087	-0.005917	-0.018755	0.057431	1.000000	-0.000022	0.000010	0.000026	-167.401257	-76.783513	143.327869
47216	9.592044	-0.462278	-2.187047	0.002026	0.030805	0.036334	1.000000	-0.000010	0.000026	-0.000001	-167.408549	-76.784677	143.335458
47217	9.587477	-0.456024	-2.209763	0.025689	0.026775	0.036645	1.000000	-0.000011	0.000016	0.000015	-167.409316	-76.784470	143.336303
47218	9.595763	-0.502298	-2.172074	-0.028518	0.000583	0.038610	1.000000	-0.000015	0.000026	0.000017	-167.408634	-76.785226	143.335019
47219	9.604034	-0.472881	-2.216715	0.022010	0.010922	0.055155	1.000000	-0.000002	0.000020	0.000015	-167.408027	-76.785344	143.335139
