// Start Time: Unknown
// Update Rate: 100.0Hz
// Filter Profile: human (46.1)
// Firmware Version: 4.4.0
PacketCounter	Acc_X	Acc_Y	Acc_Z	FreeAcc_X	FreeAcc_Y	FreeAcc_Z	OriInc_q0	OriInc_q1	OriInc_q2	OriInc_q3	Roll	Pitch	Yaw
42140	2.236361	-0.012881	12.927538	-0.000000	0.000000	3.306867	1.000000	-0.000002	0.000049	-0.000076	-0.057740	-9.817385	179.701390
42141	2.254458	0.005807	12.905754	0.000000	-0.000000	3.288500	1.000000	-0.000001	0.000040	-0.000072	0.025105	-9.911108	-179.947140
42142	2.243778	-0.015545	12.960925	0.009849	0.011672	3.341024	1.000000	-0.000013	0.000046	-0.000073	-0.017023	-9.861763	179.858415
42143	2.228699	0.006453	12.913066	0.015204	-0.010181	3.291285	1.000000	-0.000002	0.000049	-0.000076	-0.015716	-9.856129	179.849618
42144	2.264847	-0.015518	12.954431	-0.014413	0.012011	3.338233	1.000000	-0.000007	0.000037	-0.000076	-0.015332	-9.851839	179.840880
42145	2.255351	0.022117	12.924480	-0.011465	-0.025479	3.307088	1.000000	-0.000005	0.000053	-0.000059	-0.014759	-9.845816	179.834023
42146	2.243223	-0.009164	12.888833	-0.006645	0.005799	3.269899	1.000000	-0.000018	0.000034	-0.000073	-0.015356	-9.841970	179.825477
42147	2.228292	-0.011860	12.928932	0.013725	0.008495	3.306857	1.000000	-0.000003	0.000058	-0.000079	-0.014088	-9.835308	179.816316
42148	2.226905	-0.011649	12.929172	0.013728	0.008491	3.306857	1.000000	-0.000007	0.000049	-0.000069	-0.013485	-9.829676	179.808276
42149	2.249051	-0.011838	12.922501	-0.010522	0.008903	3.304066	1.000000	-0.000007	0.000049	-0.000069	-0.012866	-9.824029	179.800232
42150	2.242249	-0.027267	12.904806	-0.008116	0.024522	3.285472	1.000000	-0.000000	0.000053	-0.000065	-0.011687	-9.818012	179.792633
42151	2.217602	-0.026877	12.911904	0.016135	0.024110	3.288263	1.000000	-0.000019	0.000043	-0.000077	-0.012342	-9.813107	179.783726
42152	2.244014	-0.045944	12.920302	-0.009597	0.043203	3.301044	1.000000	-0.000007	0.000049	-0.000069	-0.012011	-9.807427	179.775730
42153	2.219209	-0.045493	12.927423	0.014653	0.042791	3.303836	1.000000	-0.000007	0.000058	-0.000072	-0.011431	-9.800753	179.767323
42154	2.223487	-0.029559	12.945557	0.012233	0.026989	3.322431	1.000000	0.000006	0.000035	-0.000066	-0.010148	-9.796734	179.759805
42155	2.198980	-0.028957	12.952620	0.036484	0.026577	3.325222	1.000000	-0.000007	0.000049	-0.000069	-0.009532	-9.791083	179.751761
42156	2.221206	-0.028973	12.945949	0.012154	0.026756	3.322431	1.000000	0.000005	0.000044	-0.000069	-0.008590	-9.785752	179.743930
42157	2.238088	-0.044548	12.921335	-0.009690	0.042806	3.301046	1.000000	-0.000001	0.000040	-0.000073	-0.007253	-9.781132	179.735495
42158	2.238282	-0.009865	12.924372	-0.010701	0.008094	3.304066	1.000000	0.000000	0.000044	-0.000062	-0.007430	-9.775794	179.728491
42159	2.241153	-0.028237	12.939680	-0.012175	0.026838	3.319640	1.000000	0.000002	0.000058	-0.000085	-0.005484	-9.769130	179.718574
42160	2.235654	-0.009055	12.924828	-0.010739	0.007716	3.304066	1.000000	0.000005	0.000044	-0.000069	-0.005191	-9.763979	179.710854
42161	2.238758	-0.027495	12.940096	-0.012213	0.026459	3.319641	1.000000	-0.000006	0.000040	-0.000066	-0.004540	-9.759350	179.703173
42162	2.242916	-0.011408	12.958250	-0.014623	0.010388	3.338234	1.000000	0.000017	0.000059	-0.000065	-0.003249	-9.752583	179.695989
42163	2.231970	-0.007956	12.925465	-0.010742	0.007284	3.304067	1.000000	-0.000014	0.000043	-0.000083	-0.003225	-9.747677	179.686325
42164	2.259485	0.007558	12.936774	-0.037342	-0.008386	3.319867	1.000000	-0.000001	0.000062	-0.000069	-0.003973	-9.740881	179.678686
42165	2.229076	-0.007458	12.925965	-0.010685	0.006842	3.304067	1.000000	0.000002	0.000058	-0.000085	-0.002031	-9.734213	179.668768
42166	2.227570	-0.007173	12.926225	-0.010556	0.006375	3.304067	1.000000	-0.000007	0.000058	-0.000072	-0.003536	-9.728101	179.660724
42167	2.226179	-0.007038	12.926464	-0.010557	0.006373	3.304067	1.000000	-0.000007	0.000049	-0.000069	-0.002935	-9.722440	179.652681
42168	2.224673	-0.006753	12.926724	-0.010306	0.005930	3.304068	1.000000	0.000001	0.000067	-0.000088	-0.002999	-9.715864	179.642845
42169	2.223198	-0.006475	12.926978	-0.010303	0.005926	3.304068	1.000000	-0.000003	0.000047	-0.000046	-0.002466	-9.710484	179.637542
42170	2.198476	-0.005937	12.934040	0.014150	0.005175	3.306859	1.000000	0.000005	0.000053	-0.000072	-0.002032	-9.705359	179.629349
42171	2.215233	-0.021481	12.909482	-0.007691	0.021225	3.285478	1.000000	-0.000003	0.000046	-0.000086	-0.000713	-9.700097	179.619370
42172	2.229004	-0.008522	12.960653	-0.013941	0.008096	3.338236	1.000000	0.000003	0.000049	-0.000082	-0.001343	-9.694592	179.610141
42173	2.245885	-0.023972	12.936081	-0.035788	0.024143	3.316856	1.000000	0.000004	0.000040	-0.000079	0.000635	-9.689957	179.600965
42174	2.222593	0.011041	12.945946	-0.012280	-0.011120	3.322658	1.000000	-0.000001	0.000040	-0.000073	-0.000120	-9.686161	179.592717
42175	2.244982	0.011027	12.939296	-0.036535	-0.010719	3.319867	1.000000	-0.000006	0.000040	-0.000066	0.000472	-9.681506	179.585054
42176	2.242717	-0.022907	12.936633	-0.035295	0.023328	3.316859	1.000000	0.000015	0.000044	-0.000082	0.002320	-9.677861	179.575638
42177	2.242804	0.011936	12.939673	-0.036232	-0.011068	3.319868	1.000000	-0.000006	0.000040	-0.000066	0.002903	-9.673204	179.567978
42178	2.269320	-0.006727	12.948133	-0.060765	0.007542	3.332663	1.000000	0.000007	0.000047	-0.000059	0.002438	-9.673116	179.562340
42179	2.240348	0.012520	12.940098	-0.035026	-0.011630	3.319871	1.000000	-0.000009	0.000055	-0.000083	0.002964	-9.666873	179.552775
42180	2.257066	-0.003223	12.915572	-0.056473	0.003793	3.298497	1.000000	-0.000007	0.000049	-0.000069	0.000723	-9.662963	179.544931
42181	2.232347	-0.002860	12.922612	-0.032210	0.003350	3.301284	1.000000	-0.000007	0.000049	-0.000069	0.001192	-9.657351	179.536935
42182	2.212871	0.013157	12.947610	-0.008975	-0.013396	3.322658	1.000000	-0.000007	0.000058	-0.000072	-0.001261	-9.656784	179.529739
42183	2.239173	-0.005641	12.956118	-0.034671	0.005717	3.335457	1.000000	-0.000008	0.000046	-0.000079	-0.000773	-9.651605	179.520567
42184	2.232741	-0.021304	12.938361	-0.030713	0.020051	3.316875	1.000000	-0.000017	0.000037	-0.000063	-0.007295	-9.654231	179.514873
42185	2.227446	-0.002579	12.923458	-0.029207	0.001257	3.301291	1.000000	-0.000008	0.000046	-0.000079	-0.006901	-9.649110	179.505738
42186	2.226252	-0.002427	12.923663	-0.028399	0.000473	3.301293	1.000000	-0.000008	0.000046	-0.000079	-0.009723	-9.647349	179.496771
42187	2.200293	-0.036406	12.927850	-0.003186	0.034378	3.301074	1.000000	-0.000001	0.000062	-0.000069	-0.008813	-9.640419	179.488903
42188	2.227801	-0.020874	12.939213	-0.028495	0.019219	3.316882	1.000000	-0.000017	0.000037	-0.000063	-0.009080	-9.642079	179.482380
42189	2.193720	-0.017627	12.913161	-0.000330	0.015658	3.285488	1.000000	-0.000008	0.000046	-0.000079	-0.008705	-9.637015	179.473251
42190	2.229828	-0.039444	12.954681	-0.028421	0.036998	3.332474	1.000000	-0.000006	0.000041	-0.000066	-0.011988	-9.638944	179.466771
42191	2.253373	-0.005005	12.950918	-0.053537	0.002954	3.332697	1.000000	-0.000002	0.000037	-0.000083	-0.010931	-9.634966	179.457268
42192	2.250914	-0.039031	12.948296	-0.050666	0.037188	3.329708	1.000000	0.000006	0.000068	-0.000055	-0.009682	-9.635715	179.452675
42193	2.245283	-0.019875	12.933451	-0.049118	0.018391	3.314121	1.000000	0.000004	0.000040	-0.000079	-0.007953	-9.631451	179.443590
42194	2.267688	-0.019742	12.926844	-0.069974	0.018676	3.311369	1.000000	-0.000006	0.000041	-0.000066	-0.007675	-9.641888	179.439412
42195	2.243002	-0.019342	12.933847	-0.045579	0.018207	3.314134	1.000000	-0.000004	0.000055	-0.000089	-0.006627	-9.636187	179.429151
42196	2.265061	-0.019293	12.927305	-0.068435	0.017941	3.311378	1.000000	-0.000005	0.000053	-0.000059	-0.009046	-9.636370	179.422862
42197	2.212717	-0.000103	12.925988	-0.018305	-0.001680	3.301311	1.000000	-0.000006	0.000041	-0.000066	-0.008692	-9.632443	179.415285
42198	2.253120	-0.015883	12.894683	-0.061929	0.014159	3.277217	1.000000	-0.000000	0.000053	-0.000066	-0.010169	-9.637523	179.409499
42199	2.237834	-0.018403	12.934744	-0.041308	0.016755	3.314150	1.000000	0.000005	0.000053	-0.000072	-0.008552	-9.632342	179.401242
42200	2.231224	-0.033787	12.917018	-0.035805	0.031990	3.295576	1.000000	-0.000006	0.000050	-0.000069	-0.009636	-9.640524	179.395946
42201	2.207657	0.000902	12.926853	-0.012234	-0.002873	3.301318	1.000000	-0.000006	0.000041	-0.000066	-0.009285	-9.636904	179.388369
42202	2.232954	-0.052214	12.932545	-0.033850	0.050124	3.311180	1.000000	-0.000010	0.000064	-0.000086	-0.010879	-9.643594	179.381192
42203	2.228361	0.001109	12.920556	-0.033045	-0.003058	3.298577	1.000000	0.000001	0.000044	-0.000062	-0.009888	-9.639770	179.374045
42204	2.235678	-0.036097	12.950944	-0.033051	0.032033	3.329778	1.000000	-0.000008	0.000046	-0.000080	-0.019698	-9.647307	179.364585
42205	2.230158	-0.017008	12.936071	-0.031303	0.013207	3.314181	1.000000	0.000009	0.000053	-0.000079	-0.017514	-9.642593	179.355619
42206	2.247105	-0.032300	12.911569	-0.051760	0.027184	3.292873	1.000000	0.000005	0.000044	-0.000069	-0.024901	-9.644021	179.345498
42207	2.227546	-0.016047	12.936523	-0.029544	0.010978	3.314187	1.000000	0.000004	0.000062	-0.000075	-0.023580	-9.638342	179.336973
42208	2.231511	0.000072	12.954704	-0.029609	-0.007370	3.332771	1.000000	0.000008	0.000038	-0.000056	-0.033561	-9.644208	179.328885
42209	2.220917	0.003401	12.921837	-0.025474	-0.010596	3.298590	1.000000	-0.000008	0.000046	-0.000080	-0.033641	-9.640401	179.319924
42210	2.228206	-0.033571	12.952239	-0.025527	0.024732	3.329810	1.000000	0.000017	0.000047	-0.000072	-0.039685	-9.647537	179.311699
42211	2.247166	0.020015	12.933469	-0.048904	-0.028160	3.314445	1.000000	0.000003	0.000050	-0.000082	-0.038578	-9.643488	179.302470
42212	2.240713	0.004705	12.915719	-0.041585	-0.014741	3.295885	1.000000	0.000001	0.000044	-0.000062	-0.047123	-9.660534	179.299336
42213	2.225488	0.002084	12.955740	-0.020670	-0.012345	3.332784	1.000000	-0.000000	0.000053	-0.000066	-0.046884	-9.656356	179.292098
42214	2.242392	-0.013341	12.931264	-0.039198	0.001947	3.311510	1.000000	0.000003	0.000050	-0.000082	-0.052753	-9.665695	179.284227
42215	2.236814	0.005814	12.916394	-0.037319	-0.017020	3.295895	1.000000	0.000005	0.000053	-0.000072	-0.051922	-9.661649	179.276272
42216	2.212255	0.006215	12.923322	-0.010646	-0.018807	3.298601	1.000000	-0.000005	0.000032	-0.000063	-0.057238	-9.668694	179.269398
42217	2.215577	-0.012182	12.938582	-0.011598	-0.000366	3.314220	1.000000	0.000004	0.000041	-0.000079	-0.056374	-9.666101	179.260644
42218	2.233502	0.006569	12.916967	-0.032555	-0.019645	3.295904	1.000000	-0.000017	0.000059	-0.000060	-0.061453	-9.667683	179.254170
42219	2.231265	-0.027682	12.914326	-0.031172	0.014469	3.292958	1.000000	0.000004	0.000041	-0.000079	-0.060617	-9.665090	179.245426
42220	2.240522	0.004002	12.950456	-0.033542	-0.017913	3.330098	1.000000	-0.000006	0.000050	-0.000069	-0.064450	-9.669558	179.238102
42221	2.234146	-0.011464	12.932693	-0.030725	-0.002522	3.311533	1.000000	-0.000001	0.000041	-0.000073	-0.064362	-9.667054	179.230135
42222	2.233022	-0.011155	12.932888	-0.027800	-0.004595	3.311539	1.000000	-0.000003	0.000046	-0.000086	-0.072147	-9.674750	179.219321
42223	2.208428	-0.010847	12.939805	-0.003026	-0.005331	3.314224	1.000000	-0.000006	0.000041	-0.000066	-0.072872	-9.672351	179.212157
42224	2.226231	0.007917	12.918221	-0.023119	-0.024156	3.295917	1.000000	-0.000008	0.000068	-0.000076	-0.074561	-9.676810	179.207106
42225	2.233366	-0.029348	12.948667	-0.025394	0.012926	3.327174	1.000000	-0.000006	0.000041	-0.000066	-0.075305	-9.674513	179.199950
42226	2.232389	-0.029198	12.948836	-0.022240	0.012175	3.327181	1.000000	-0.000003	0.000035	-0.000053	-0.077837	-9.684490	179.197462
42227	2.250499	-0.010259	12.927208	-0.044525	-0.006451	3.308880	1.000000	0.000003	0.000050	-0.000082	-0.077304	-9.681350	179.188454
42228	2.225859	-0.009816	12.934124	-0.016504	-0.007898	3.311556	1.000000	-0.000001	0.000041	-0.000073	-0.080346	-9.693335	179.184749
42229	2.248280	-0.009721	12.927594	-0.040151	-0.007837	3.308893	1.000000	-0.000010	0.000041	-0.000060	-0.081887	-9.691394	179.178388
42230	2.237783	-0.006564	12.894704	-0.033860	-0.011328	3.274704	1.000000	-0.000001	0.000041	-0.000073	-0.082517	-9.698203	179.173504
42231	2.269652	-0.009306	12.921254	-0.061180	-0.008264	3.306245	1.000000	-0.000001	0.000041	-0.000073	-0.082702	-9.696370	179.165643
42232	2.244354	-0.043416	12.925256	-0.035155	0.025608	3.305977	1.000000	-0.000005	0.000032	-0.000063	-0.082446	-9.696550	179.157698
42233	2.240026	0.009836	12.913181	-0.034009	-0.027844	3.293271	1.000000	-0.000006	0.000041	-0.000066	-0.083342	-9.694778	179.150600
42234	2.242946	-0.008714	12.928522	-0.031745	-0.008763	3.308916	1.000000	-0.000009	0.000064	-0.000086	-0.080747	-9.703516	179.149507
42235	2.236510	-0.024113	12.910772	-0.028763	0.006576	3.290355	1.000000	0.000006	0.000035	-0.000066	-0.080242	-9.702563	179.142441
42236	2.235419	-0.023734	12.910961	-0.026155	0.003404	3.290361	1.000000	-0.000002	0.000050	-0.000076	-0.093021	-9.708547	179.127118
42237	2.243682	-0.026424	12.944243	-0.029119	0.006008	3.324563	1.000000	-0.000001	0.000041	-0.000073	-0.093365	-9.707003	179.119318
42238	2.233047	-0.023054	12.911373	-0.023330	0.001482	3.290367	1.000000	0.000005	0.000053	-0.000072	-0.098138	-9.710359	179.109065
42239	2.246239	-0.009901	12.962666	-0.028558	-0.011637	3.343127	1.000000	0.000005	0.000053	-0.000072	-0.097968	-9.707458	179.101362
42240	2.235721	-0.006607	12.929774	-0.021872	-0.014812	3.308931	1.000000	-0.000005	0.000032	-0.000063	-0.097865	-9.717198	179.099519
42241	2.229264	-0.022018	12.912028	-0.018841	0.000472	3.290374	1.000000	0.000003	0.000071	-0.000078	-0.097789	-9.712406	179.091086
42242	2.238073	0.009680	12.948230	-0.022335	-0.033697	3.327483	1.000000	-0.000006	0.000041	-0.000066	-0.109471	-9.712585	179.073649
42243	2.255250	-0.005668	12.923777	-0.043570	-0.018030	3.306306	1.000000	0.000013	0.000051	-0.000055	-0.108860	-9.710138	179.068004
42244	2.234793	-0.023684	12.945786	-0.018509	-0.000510	3.324584	1.000000	0.000017	0.000047	-0.000072	-0.108755	-9.714284	179.060720
42245	2.233454	-0.023095	12.946018	-0.017735	-0.000973	3.324585	1.000000	0.000006	0.000056	-0.000062	-0.108853	-9.711251	179.054286
42246	2.218462	-0.001063	12.898044	-0.009654	-0.023779	3.274728	1.000000	0.000001	0.000044	-0.000063	-0.112454	-9.719881	179.049308
42247	2.245567	0.015007	12.909606	-0.035387	-0.039549	3.290667	1.000000	0.000003	0.000071	-0.000078	-0.112640	-9.715305	179.040974
42248	2.191358	-0.034817	12.902329	0.019826	0.009357	3.274439	1.000000	-0.000005	0.000032	-0.000063	-0.113304	-9.727176	179.040365
42249	2.200462	-0.003253	12.938472	0.016142	-0.022542	3.311539	1.000000	-0.000005	0.000053	-0.000059	-0.114791	-9.724780	179.034277
42250	2.213186	0.000016	12.898950	-0.003942	-0.026174	3.274726	1.000000	0.000005	0.000053	-0.000072	-0.117620	-9.721297	179.021110
42251	2.202056	-0.021213	12.954045	0.016188	-0.005432	3.327194	1.000000	0.000003	0.000050	-0.000082	-0.117735	-9.719285	179.012350
42252	2.196469	-0.002154	12.939151	0.018658	-0.025916	3.311530	1.000000	-0.000001	0.000050	-0.000076	-0.124384	-9.718566	178.997908
42253	2.218669	-0.001837	12.932713	-0.004787	-0.026010	3.308930	1.000000	-0.000001	0.000050	-0.000076	-0.125268	-9.716522	178.989931
42254	2.193965	-0.001566	12.939576	0.021939	-0.028062	3.311520	1.000000	0.000001	0.000044	-0.000063	-0.131077	-9.722375	178.981800
42255	2.216313	-0.001091	12.933117	-0.001495	-0.028172	3.308927	1.000000	0.000010	0.000044	-0.000076	-0.130675	-9.721036	178.973902
42256	2.186770	-0.016456	12.921954	0.029187	-0.013239	3.292964	1.000000	-0.000005	0.000032	-0.000063	-0.131294	-9.735798	178.976066
42257	2.237881	-0.000516	12.926797	-0.020719	-0.028662	3.306343	1.000000	-0.000005	0.000041	-0.000066	-0.132921	-9.735031	178.969248
42258	2.213259	-0.000398	12.933640	0.005637	-0.030641	3.308920	1.000000	-0.000008	0.000047	-0.000080	-0.139051	-9.738965	178.957909
42259	2.231269	0.018550	12.912080	-0.016406	-0.049448	3.290671	1.000000	0.000001	0.000044	-0.000063	-0.140113	-9.737849	178.951552
42260	2.262325	-0.018534	12.935852	-0.040546	-0.012775	3.319445	1.000000	-0.000007	0.000038	-0.000077	-0.144005	-9.746001	178.945013
42261	2.233665	0.000274	12.927526	-0.014030	-0.032424	3.306343	1.000000	-0.000006	0.000029	-0.000073	-0.145639	-9.746725	178.937417
42262	2.279638	0.000618	12.914423	-0.061425	-0.032070	3.301209	1.000000	-0.000001	0.000050	-0.000076	-0.146360	-9.746117	178.928094
42263	2.273581	-0.014856	12.896616	-0.058294	-0.016908	3.282671	1.000000	-0.000006	0.000029	-0.000073	-0.148009	-9.746844	178.920504
42264	2.263546	-0.001675	12.954506	-0.038613	-0.031728	3.337992	1.000000	0.000015	0.000044	-0.000082	-0.151777	-9.747176	178.904920
42265	2.280829	-0.017024	12.930092	-0.059758	-0.016162	3.316894	1.000000	-0.000017	0.000047	-0.000067	-0.154962	-9.745835	178.898125
42266	2.261151	-0.000906	12.954925	-0.035632	-0.032720	3.337998	1.000000	0.000026	0.000048	-0.000085	-0.151895	-9.749543	178.891089
42267	2.269009	-0.012999	12.897423	-0.053221	-0.020091	3.282688	1.000000	-0.000006	0.000050	-0.000069	-0.153771	-9.747869	178.883981
42268	2.305549	0.000069	12.942124	-0.080720	-0.033071	3.332902	1.000000	-0.000000	0.000053	-0.000066	-0.154948	-9.753059	178.880281
42269	2.247875	0.003093	12.922503	-0.027688	-0.037432	3.303786	1.000000	-0.000006	0.000050	-0.000069	-0.156854	-9.751485	178.873184
42270	2.255808	0.000365	12.955856	-0.029908	-0.035201	3.338006	1.000000	-0.000002	0.000059	-0.000079	-0.158575	-9.750604	178.862688
42271	2.240895	0.022065	12.907845	-0.024109	-0.057393	3.288102	1.000000	-0.000017	0.000038	-0.000064	-0.161790	-9.750452	178.856290
42272	2.253190	0.000594	12.956312	-0.026916	-0.036502	3.338009	1.000000	0.000002	0.000068	-0.000089	-0.162783	-9.751732	178.846932
42273	2.265949	0.003774	12.916831	-0.046718	-0.039616	3.301249	1.000000	-0.000015	0.000041	-0.000053	-0.166084	-9.751238	178.841732
42274	2.222059	-0.014938	12.945389	0.002346	-0.023054	3.322012	1.000000	0.000005	0.000053	-0.000072	-0.169605	-9.753294	178.831272
42275	2.244702	0.019773	12.941913	-0.021869	-0.057655	3.322319	1.000000	-0.000014	0.000065	-0.000080	-0.172338	-9.750131	178.823043
42276	2.237566	-0.030289	12.921305	-0.016682	-0.007365	3.300947	1.000000	-0.000006	0.000050	-0.000070	-0.170809	-9.753583	178.820158
42277	2.217805	-0.014589	12.946119	0.006359	-0.024141	3.322009	1.000000	-0.000012	0.000047	-0.000073	-0.173445	-9.752521	178.812663
42278	2.235611	0.004337	12.924630	-0.014856	-0.042575	3.303791	1.000000	-0.000002	0.000059	-0.000079	-0.172848	-9.753478	178.806148
42279	2.224288	-0.026974	12.888875	-0.009493	-0.011711	3.266726	1.000000	-0.000012	0.000047	-0.000073	-0.175487	-9.752449	178.798653
42280	2.213814	-0.014084	12.946803	0.011980	-0.023759	3.322006	1.000000	0.000008	0.000051	-0.000049	-0.167994	-9.759237	178.806491
42281	2.216656	-0.032473	12.962181	0.011662	-0.005707	3.337696	1.000000	-0.000009	0.000065	-0.000086	-0.169957	-9.756240	178.797478
42282	2.210794	-0.013514	12.947319	0.014699	-0.025334	3.322000	1.000000	0.000005	0.000053	-0.000072	-0.172158	-9.757809	178.788461
42283	2.227963	-0.028758	12.922968	-0.006397	-0.009795	3.300955	1.000000	-0.000000	0.000053	-0.000066	-0.173509	-9.756154	178.781827
42284	2.202965	-0.028680	12.929812	0.020833	-0.010881	3.303461	1.000000	-0.000006	0.000062	-0.000062	-0.175709	-9.762054	178.779180
42285	2.211540	0.003000	12.966037	0.017499	-0.042991	3.340521	1.000000	-0.000001	0.000041	-0.000073	-0.176977	-9.761880	178.771735
42286	2.205251	-0.012519	12.948266	0.020606	-0.027490	3.321988	1.000000	-0.000006	0.000062	-0.000062	-0.177428	-9.758856	178.764699
42287	2.222206	-0.027841	12.923961	-0.000484	-0.011956	3.300954	1.000000	0.000004	0.000062	-0.000075	-0.178152	-9.756245	178.756950
42288	2.198077	0.006719	12.933623	0.024246	-0.047040	3.306284	1.000000	-0.000005	0.000032	-0.000063	-0.178526	-9.758388	178.750977
42289	2.210537	-0.024462	12.891246	0.005323	-0.015758	3.266724	1.000000	-0.000007	0.000059	-0.000073	-0.180572	-9.756169	178.743546
42290	2.223387	-0.011508	12.942609	0.001303	-0.028266	3.319484	1.000000	-0.000008	0.000047	-0.000080	-0.178192	-9.757874	178.739389
42291	2.193811	-0.027316	12.931371	0.028777	-0.013539	3.303444	1.000000	-0.000010	0.000041	-0.000060	-0.180819	-9.757739	178.733443
42292	2.239823	-0.026927	12.918407	-0.017903	-0.012758	3.298464	1.000000	-0.000007	0.000038	-0.000077	-0.179995	-9.761710	178.728982
42293	2.196745	-0.011334	12.949713	0.029540	-0.029928	3.321966	1.000000	-0.000007	0.000038	-0.000077	-0.181859	-9.761982	178.721089
42294	2.223549	-0.029606	12.958454	0.007143	-0.011234	3.335180	1.000000	0.000001	0.000044	-0.000063	-0.181821	-9.770925	178.721823
42295	2.212947	-0.026465	12.925553	0.011646	-0.014748	3.300946	1.000000	-0.000007	0.000059	-0.000073	-0.183831	-9.768855	178.714378
42296	2.235846	0.008254	12.922074	-0.011751	-0.049714	3.301292	1.000000	-0.000004	0.000032	-0.000063	-0.187232	-9.772949	178.707150
42297	2.225640	0.011339	12.889105	-0.007249	-0.053230	3.267058	1.000000	-0.000005	0.000041	-0.000066	-0.189190	-9.772977	178.700459
42298	2.256966	-0.025642	12.912957	-0.031578	-0.015868	3.296002	1.000000	-0.000006	0.000029	-0.000073	-0.189592	-9.780907	178.698857
42299	2.209534	0.008570	12.929112	0.017227	-0.051686	3.303755	1.000000	-0.000004	0.000044	-0.000056	-0.191614	-9.780635	178.693356
42300	2.259705	-0.009510	12.931342	-0.030540	-0.032519	3.314535	1.000000	-0.000001	0.000050	-0.000076	-0.191252	-9.784116	178.688485
42301	2.234519	-0.043933	12.935209	-0.004317	0.000862	3.314179	1.000000	-0.000012	0.000038	-0.000070	-0.193838	-9.784634	178.681357
42302	2.266801	-0.012096	12.964855	-0.031276	-0.031432	3.348773	1.000000	-0.000000	0.000041	-0.000073	-0.197525	-9.787041	178.671089
42303	2.256330	-0.008874	12.931932	-0.026763	-0.034951	3.314537	1.000000	-0.000000	0.000053	-0.000066	-0.198935	-9.785797	178.664478
42304	2.255067	-0.008498	12.932153	-0.025478	-0.034860	3.314540	1.000000	0.000006	0.000044	-0.000069	-0.196360	-9.786328	178.659759
42305	2.249085	-0.024090	12.914334	-0.022255	-0.019731	3.296016	1.000000	-0.000015	0.000041	-0.000053	-0.199725	-9.786505	178.654583
42306	2.224274	-0.024140	12.921099	0.003286	-0.020666	3.298466	1.000000	0.000003	0.000059	-0.000086	-0.200005	-9.785296	178.644478
42307	2.250784	-0.042149	12.929929	-0.021183	-0.002264	3.311733	1.000000	0.000007	0.000048	-0.000059	-0.200742	-9.784717	178.638674
42308	2.236040	-0.020202	12.881858	-0.014977	-0.024614	3.261781	1.000000	-0.000000	0.000041	-0.000073	-0.202910	-9.786816	178.629439
42309	2.267620	-0.022592	12.908672	-0.041562	-0.021981	3.293578	1.000000	-0.000001	0.000050	-0.000076	-0.204275	-9.785976	178.621644
42310	2.271631	0.027939	12.929802	-0.043335	-0.073259	3.314903	1.000000	0.000005	0.000053	-0.000072	-0.207145	-9.785204	178.609745
42311	2.241311	-0.022131	12.915689	-0.014982	-0.024137	3.296019	1.000000	-0.000007	0.000059	-0.000073	-0.209279	-9.783336	178.602344
42312	2.226150	0.009444	12.958475	0.006800	-0.057129	3.335491	1.000000	0.000006	0.000044	-0.000069	-0.211800	-9.785935	178.594011
42313	2.219961	-0.006166	12.940691	0.010024	-0.042017	3.316969	1.000000	-0.000017	0.000059	-0.000060	-0.215349	-9.784101	178.588128
42314	2.241797	-0.040198	12.931496	-0.011896	-0.007655	3.311743	1.000000	0.000007	0.000035	-0.000066	-0.215071	-9.786783	178.581555
42315	2.241243	-0.005550	12.934557	-0.011627	-0.042716	3.314537	1.000000	-0.000014	0.000044	-0.000084	-0.217763	-9.786743	178.572914
42316	2.258608	-0.020985	12.910254	-0.032726	-0.026685	3.293595	1.000000	-0.000007	0.000059	-0.000073	-0.217630	-9.784728	178.564509
42317	2.233714	-0.021067	12.917007	-0.007329	-0.027739	3.296019	1.000000	-0.000007	0.000047	-0.000080	-0.219689	-9.784295	178.556303
42318	2.256553	0.013816	12.913578	-0.030777	-0.062166	3.296389	1.000000	-0.000000	0.000041	-0.000073	-0.219980	-9.787017	178.548952
42319	2.179479	-0.036690	12.912416	0.046147	-0.013839	3.282336	1.000000	0.000005	0.000054	-0.000072	-0.220791	-9.785838	178.541621
42320	2.234329	-0.038798	12.932793	-0.005380	-0.010069	3.311745	1.000000	-0.000008	0.000056	-0.000083	-0.219524	-9.781235	178.531741
42321	2.209978	-0.004490	12.942400	0.019176	-0.045526	3.316947	1.000000	-0.000005	0.000041	-0.000066	-0.221597	-9.781439	178.525093
42322	2.255623	-0.038074	12.926678	-0.027478	-0.010526	3.309333	1.000000	0.000007	0.000036	-0.000066	-0.220279	-9.782172	178.518730
42323	2.212337	-0.022371	12.957881	0.020114	-0.027748	3.332671	1.000000	0.000006	0.000045	-0.000069	-0.221030	-9.781990	178.511764
42324	2.253788	-0.002823	12.929958	-0.025854	-0.046069	3.312121	1.000000	-0.000001	0.000050	-0.000076	-0.221669	-9.782255	178.503836
42325	2.233462	-0.021500	12.951796	-0.001710	-0.028494	3.330258	1.000000	-0.000005	0.000041	-0.000066	-0.223746	-9.782465	178.497188
42326	2.242314	0.000612	12.897200	-0.020202	-0.050574	3.277873	1.000000	0.000006	0.000045	-0.000069	-0.226041	-9.782773	178.487978
42327	2.226770	-0.002019	12.937058	0.001856	-0.048786	3.314520	1.000000	0.000012	0.000048	-0.000065	-0.226198	-9.782227	178.481462
42328	2.248960	-0.001369	12.930799	-0.020375	-0.048601	3.312121	1.000000	-0.000008	0.000056	-0.000083	-0.226192	-9.784884	178.477245
42329	2.247704	-0.001210	12.931017	-0.019258	-0.049264	3.312121	1.000000	-0.000005	0.000041	-0.000066	-0.228290	-9.785139	178.470605
42330	2.251256	0.014855	12.949254	-0.019296	-0.064980	3.330636	1.000000	0.000005	0.000054	-0.000072	-0.225761	-9.787934	178.467353
42331	2.245091	-0.000378	12.931471	-0.016095	-0.049860	3.312123	1.000000	0.000010	0.000054	-0.000079	-0.225874	-9.786797	178.459267
42332	2.243790	-0.000070	12.931697	-0.014869	-0.049340	3.312126	1.000000	-0.000012	0.000047	-0.000073	-0.223355	-9.786721	178.454971
42333	2.223511	-0.018919	12.953512	0.009302	-0.031761	3.330248	1.000000	-0.000005	0.000041	-0.000067	-0.225408	-9.787002	178.448314
42334	2.245748	-0.018319	12.947260	-0.013974	-0.031667	3.327863	1.000000	0.000003	0.000059	-0.000086	-0.224587	-9.784707	178.440012
42335	2.239929	0.000782	12.932366	-0.011605	-0.050944	3.312123	1.000000	0.000004	0.000050	-0.000083	-0.225296	-9.783946	178.431476
42336	2.238859	0.001255	12.932552	-0.009739	-0.050977	3.312125	1.000000	0.000005	0.000032	-0.000076	-0.223067	-9.788429	178.426920
42337	2.256708	-0.014019	12.908218	-0.030843	-0.035458	3.291236	1.000000	-0.000020	0.000040	-0.000088	-0.226337	-9.788836	178.417820
42338	2.274523	-0.029295	12.883894	-0.051232	-0.019867	3.270356	1.000000	0.000007	0.000036	-0.000066	-0.226620	-9.792955	178.412345
42339	2.297176	0.005889	12.880531	-0.075215	-0.054540	3.270757	1.000000	0.000003	0.000059	-0.000086	-0.227370	-9.791208	178.403435
42340	2.323711	-0.012039	12.889461	-0.099309	-0.035566	3.284139	1.000000	-0.000001	0.000050	-0.000076	-0.225948	-9.791776	178.396732
42341	2.294420	0.006666	12.881022	-0.072643	-0.055223	3.270768	1.000000	0.000005	0.000054	-0.000072	-0.226713	-9.790689	178.389383
42342	2.291910	-0.017669	12.969261	-0.054627	-0.031662	3.357388	1.000000	-0.000001	0.000075	-0.000062	-0.226863	-9.788868	178.383500
42343	2.276498	0.004171	12.921274	-0.048968	-0.053766	3.307393	1.000000	0.000006	0.000069	-0.000055	-0.227809	-9.786005	178.378160
42344	2.241098	-0.017713	12.982821	-0.002865	-0.033213	3.362113	1.000000	-0.000010	0.000074	-0.000089	-0.227486	-9.786396	178.372714
42345	2.192569	0.016301	12.998904	0.046068	-0.069039	3.369583	1.000000	0.000007	0.000060	-0.000052	-0.228382	-9.784593	178.367744
42346	2.177181	0.003666	12.947958	0.053981	-0.056926	3.316806	1.000000	-0.000007	0.000059	-0.000073	-0.231217	-9.789290	178.361791
42347	2.175760	0.003881	12.948197	0.055135	-0.057583	3.316798	1.000000	-0.000001	0.000050	-0.000076	-0.232619	-9.788664	178.354008
42348	2.137418	0.025256	12.906525	0.085259	-0.079500	3.269132	1.000000	-0.000007	0.000047	-0.000080	-0.232164	-9.789133	178.348381
42349	2.168976	0.022902	12.933448	0.058854	-0.076953	3.301034	1.000000	-0.000006	0.000038	-0.000077	-0.234142	-9.789928	178.340530
42350	2.158644	-0.008549	12.897539	0.064857	-0.046148	3.264009	1.000000	-0.000013	0.000035	-0.000081	-0.237225	-9.794602	178.331570
42351	2.233358	0.008257	12.896371	-0.008911	-0.061461	3.275494	1.000000	-0.000017	0.000013	-0.000078	-0.240384	-9.798250	178.323597
42352	2.251479	-0.007108	12.872030	-0.029964	-0.046216	3.254651	1.000000	-0.000009	0.000044	-0.000090	-0.243589	-9.798737	178.308908
42353	2.264246	0.006139	12.923426	-0.034079	-0.059866	3.307413	1.000000	0.000007	0.000036	-0.000066	-0.244315	-9.799825	178.302323
42354	2.300416	-0.014801	12.965483	-0.061819	-0.038093	3.355099	1.000000	-0.000017	0.000035	-0.000074	-0.244838	-9.800331	178.295516
42355	2.275925	-0.015214	12.972078	-0.036357	-0.039142	3.357431	1.000000	-0.000011	0.000038	-0.000070	-0.247542	-9.801147	178.288430
42356	2.321681	-0.048849	12.956526	-0.082729	-0.004003	3.350036	1.000000	-0.000012	0.000047	-0.000074	-0.247417	-9.801998	178.282398
42357	2.287851	-0.046206	12.929979	-0.054033	-0.007858	3.318107	1.000000	0.000001	0.000045	-0.000063	-0.248863	-9.802057	178.276186
42358	2.263267	-0.011958	12.939518	-0.028584	-0.042985	3.323179	1.000000	-0.000005	0.000054	-0.000059	-0.249488	-9.804496	178.274089
42359	2.252602	-0.043286	12.903675	-0.023396	-0.012047	3.286176	1.000000	-0.000001	0.000050	-0.000076	-0.250906	-9.803923	178.266312
42360	2.255804	-0.027289	12.921969	-0.023258	-0.027899	3.304682	1.000000	-0.000006	0.000063	-0.000063	-0.250261	-9.806177	178.264125
42361	2.202604	-0.009166	12.919941	0.027728	-0.047919	3.293546	1.000000	0.000005	0.000066	-0.000065	-0.251158	-9.803841	178.257600
42362	2.201217	-0.008878	12.920177	0.029035	-0.048606	3.293540	1.000000	-0.000005	0.000041	-0.000067	-0.253319	-9.804943	178.248035
42363	2.199988	-0.008577	12.920387	0.030206	-0.049271	3.293535	1.000000	0.000005	0.000054	-0.000072	-0.254116	-9.804016	178.240698
42364	2.194089	0.010338	12.905487	0.032275	-0.068602	3.277767	1.000000	-0.000007	0.000059	-0.000073	-0.256601	-9.801108	178.230457
42365	2.225654	0.042456	12.935383	0.005143	-0.100505	3.312455	1.000000	-0.000006	0.000038	-0.000077	-0.258617	-9.801968	178.222622
42366	2.205427	0.023518	12.957125	0.030283	-0.082736	3.330516	1.000000	-0.000012	0.000047	-0.000074	-0.260310	-9.805584	178.216140
42367	2.223018	-0.026097	12.929981	0.009943	-0.032814	3.306982	1.000000	-0.000000	0.000041	-0.000073	-0.261706	-9.806087	178.208745
42368	2.222176	0.008397	12.933053	0.010350	-0.067450	3.309711	1.000000	-0.000016	0.000038	-0.000064	-0.263144	-9.807020	178.202738
42369	2.244453	-0.025575	12.923949	-0.011988	-0.033336	3.304684	1.000000	-0.000007	0.000047	-0.000080	-0.265205	-9.806870	178.194529
42370	2.248013	-0.009768	12.942179	-0.012966	-0.049358	3.323182	1.000000	-0.000017	0.000035	-0.000074	-0.266527	-9.807353	178.186878
42371	2.261172	-0.040964	12.899896	-0.032122	-0.018033	3.283898	1.000000	-0.000013	0.000056	-0.000077	-0.269323	-9.806169	178.179046
42372	2.273466	-0.028019	12.951381	-0.035885	-0.031473	3.336664	1.000000	-0.000011	0.000050	-0.000063	-0.270990	-9.806624	178.172645
42373	2.243882	-0.044081	12.939969	-0.008421	-0.016710	3.320454	1.000000	-0.000002	0.000060	-0.000079	-0.272471	-9.805056	178.164501
42374	2.242420	-0.043706	12.940224	-0.006526	-0.016911	3.320455	1.000000	0.000005	0.000054	-0.000072	-0.271089	-9.807228	178.160065
42375	2.212919	-0.059548	12.928790	0.020936	-0.002143	3.304238	1.000000	-0.000001	0.000051	-0.000076	-0.272522	-9.806714	178.152295
42376	2.211599	-0.024773	12.931941	0.021952	-0.036850	3.306956	1.000000	0.000004	0.000063	-0.000076	-0.271633	-9.807446	178.149555
42377	2.200021	-0.046230	12.986929	0.043088	-0.016517	3.359269	1.000000	0.000005	0.000054	-0.000072	-0.272440	-9.806571	178.142222
42378	2.208784	-0.023869	12.932424	0.024730	-0.038388	3.306947	1.000000	0.000003	0.000047	-0.000093	-0.273918	-9.808272	178.130672
42379	2.193019	-0.026536	12.972212	0.047067	-0.036659	3.343481	1.000000	0.000017	0.000048	-0.000072	-0.273378	-9.808052	178.123407
42380	2.201934	-0.038502	12.914763	0.029311	-0.023048	3.288447	1.000000	0.000001	0.000033	-0.000070	-0.270818	-9.810571	178.118341
42381	2.201051	-0.003707	12.917832	0.029721	-0.058130	3.291158	1.000000	0.000006	0.000045	-0.000069	-0.271582	-9.810744	178.111384
42382	2.228193	-0.021463	12.926770	0.006569	-0.039907	3.304670	1.000000	0.000002	0.000023	-0.000067	-0.273022	-9.818442	178.107346
42383	2.227473	-0.021207	12.926895	0.007765	-0.040583	3.304667	1.000000	-0.000004	0.000032	-0.000063	-0.275071	-9.820075	178.101082
42384	2.245506	-0.001962	12.905561	-0.013829	-0.059512	3.286629	1.000000	-0.000006	0.000051	-0.000070	-0.277304	-9.821124	178.093357
42385	2.249105	0.014156	12.923781	-0.014585	-0.076012	3.305117	1.000000	0.000007	0.000024	-0.000073	-0.277928	-9.823786	178.085967
42386	2.271656	-0.019300	12.914684	-0.036869	-0.041524	3.300161	1.000000	0.000007	0.000048	-0.000059	-0.277051	-9.823802	178.082205
42387	2.274973	-0.003117	12.932955	-0.037618	-0.058026	3.318651	1.000000	-0.000002	0.000047	-0.000087	-0.278425	-9.823745	178.073248
42388	2.273822	-0.002787	12.933157	-0.035190	-0.058598	3.318655	1.000000	-0.000000	0.000042	-0.000073	-0.279157	-9.829703	178.071484
42389	2.272514	-0.002550	12.933387	-0.033981	-0.059279	3.318655	1.000000	-0.000007	0.000060	-0.000073	-0.281348	-9.828282	178.064098
42390	2.271130	-0.002309	12.933631	-0.033090	-0.059717	3.318656	1.000000	-0.000002	0.000047	-0.000087	-0.281708	-9.826844	178.051973
42391	2.250679	-0.020948	12.955374	-0.008748	-0.042179	3.336680	1.000000	0.000011	0.000057	-0.000069	-0.281917	-9.825673	178.045091
42392	2.244870	0.032460	12.943355	-0.007588	-0.095387	3.323590	1.000000	-0.000010	0.000050	-0.000104	-0.281868	-9.823319	178.030254
42393	2.243634	-0.001765	12.940663	-0.005619	-0.061657	3.320889	1.000000	-0.000005	0.000042	-0.000067	-0.283974	-9.823939	178.023620
42394	2.209670	0.000990	12.914030	0.022986	-0.065627	3.288839	1.000000	0.000015	0.000066	-0.000078	-0.284283	-9.821708	178.011762
42395	2.217107	-0.001305	12.947513	0.021086	-0.063559	3.323110	1.000000	-0.000000	0.000054	-0.000066	-0.285826	-9.820908	178.005197
42396	2.206836	0.001954	12.914515	0.026102	-0.066228	3.288830	1.000000	0.000011	0.000045	-0.000076	-0.282415	-9.824135	178.002275
42397	2.233768	-0.015670	12.923533	0.001830	-0.047964	3.302395	1.000000	-0.000000	0.000042	-0.000073	-0.283828	-9.824763	177.994890
42398	2.209098	0.018607	12.932955	0.025911	-0.082636	3.307308	1.000000	0.000006	0.000045	-0.000069	-0.281216	-9.821938	177.986736
42399	2.231579	0.019662	12.926811	0.002802	-0.082952	3.305083	1.000000	0.000013	0.000039	-0.000062	-0.281329	-9.822814	177.980603
42400	2.207002	0.019376	12.933312	0.027833	-0.083606	3.307298	1.000000	-0.000016	0.000038	-0.000064	-0.283083	-9.821670	177.971301
42401	2.248629	0.004484	12.902777	-0.017669	-0.067723	3.284377	1.000000	-0.000015	0.000041	-0.000054	-0.286575	-9.822289	177.966169
42402	2.232956	0.001320	12.942510	0.004514	-0.065446	3.320871	1.000000	0.000005	0.000042	-0.000080	-0.284753	-9.821714	177.957299
42403	2.255334	0.002170	12.936394	-0.018601	-0.065762	3.318655	1.000000	-0.000006	0.000051	-0.000070	-0.286891	-9.821270	177.950285
42404	2.249587	-0.013547	12.918554	-0.015376	-0.050401	3.300172	1.000000	-0.000012	0.000047	-0.000074	-0.288724	-9.821671	177.940813
42405	2.229205	-0.032671	12.940260	0.008975	-0.032872	3.318176	1.000000	-0.000014	0.000053	-0.000087	-0.291458	-9.820950	177.931791
42406	2.242500	0.005249	12.903843	-0.011702	-0.070212	3.284371	1.000000	-0.000002	0.000048	-0.000087	-0.292234	-9.821425	177.924533
42407	2.254406	-0.015684	12.952502	-0.014724	-0.049582	3.334450	1.000000	0.000008	0.000072	-0.000085	-0.292454	-9.818512	177.915705
42408	2.248442	-0.031414	12.934699	-0.011729	-0.034144	3.315969	1.000000	-0.000028	0.000044	-0.000065	-0.296009	-9.818327	177.904598
42409	2.223565	-0.066366	12.938337	0.014538	-0.000782	3.315489	1.000000	0.000003	0.000060	-0.000086	-0.296811	-9.816826	177.895707
42410	2.226639	-0.050246	12.956641	0.013988	-0.016946	3.333967	1.000000	-0.000007	0.000047	-0.000080	-0.297263	-9.817406	177.888531
42411	2.220926	-0.065892	12.938793	0.017089	-0.001792	3.315485	1.000000	-0.000006	0.000051	-0.000070	-0.299414	-9.816964	177.881522
42412	2.224024	-0.049783	12.957092	0.016202	-0.017552	3.333963	1.000000	0.000005	0.000054	-0.000073	-0.296874	-9.815209	177.874836
42413	2.218170	-0.030807	12.942160	0.018542	-0.036810	3.318156	1.000000	-0.000001	0.000051	-0.000076	-0.298317	-9.814750	177.867071
42414	2.212615	-0.046305	12.924285	0.022564	-0.021334	3.299673	1.000000	0.000002	0.000036	-0.000060	-0.298197	-9.820009	177.864133
42415	2.206984	-0.027185	12.909314	0.024905	-0.040588	3.283863	1.000000	0.000018	0.000052	-0.000062	-0.297731	-9.819458	177.858066
42416	2.233913	-0.044896	12.918389	0.000934	-0.021990	3.297487	1.000000	-0.000016	0.000038	-0.000064	-0.299553	-9.821668	177.851018
42417	2.213635	0.005203	12.945827	0.023806	-0.073297	3.320808	1.000000	0.000029	0.000043	-0.000072	-0.297647	-9.822138	177.843824
42418	2.227196	0.009026	12.906491	0.003338	-0.076495	3.284340	1.000000	-0.000015	0.000041	-0.000054	-0.301888	-9.821152	177.832600
42419	2.230626	-0.009323	12.921845	0.003399	-0.058614	3.300147	1.000000	0.000010	0.000042	-0.000086	-0.301904	-9.821726	177.823712
42420	2.257543	0.007565	12.933818	-0.021757	-0.075148	3.316444	1.000000	-0.000000	0.000042	-0.000073	-0.304969	-9.821744	177.812493
42421	2.204836	-0.008971	12.928507	0.029958	-0.060723	3.302308	1.000000	0.000011	0.000045	-0.000076	-0.305079	-9.821941	177.804806
42422	2.231745	0.007921	12.940482	0.005563	-0.076741	3.318608	1.000000	-0.000001	0.000039	-0.000083	-0.305626	-9.825544	177.797053
42423	2.254282	-0.025473	12.931507	-0.016797	-0.042654	3.313782	1.000000	0.000004	0.000051	-0.000083	-0.306405	-9.825103	177.788549
42424	2.248454	-0.006571	12.916565	-0.014378	-0.061757	3.297965	1.000000	-0.000006	0.000051	-0.000070	-0.307879	-9.825053	177.781516
42425	2.251775	-0.024838	12.931945	-0.014305	-0.043889	3.313781	1.000000	0.000005	0.000042	-0.000080	-0.308618	-9.825650	177.773392
42426	2.222354	-0.006396	12.923272	0.012286	-0.063444	3.300119	1.000000	0.000003	0.000060	-0.000086	-0.309156	-9.823955	177.759926
42427	2.225306	0.009808	12.941590	0.011610	-0.079996	3.318584	1.000000	-0.000001	0.000051	-0.000076	-0.310645	-9.823523	177.752179
42428	2.243268	-0.005002	12.917467	-0.009978	-0.063957	3.297959	1.000000	0.000006	0.000045	-0.000069	-0.309241	-9.822131	177.745178
42429	2.223079	-0.023819	12.939099	0.014415	-0.046459	3.315929	1.000000	-0.000000	0.000042	-0.000073	-0.310682	-9.822726	177.737808
42430	2.259970	0.014994	12.896443	-0.031218	-0.082736	3.279987	1.000000	0.000005	0.000054	-0.000073	-0.308013	-9.819818	177.732604
42431	2.224925	-0.007154	12.957606	0.014501	-0.062895	3.334393	1.000000	0.000006	0.000045	-0.000069	-0.308821	-9.820017	177.725671
42432	2.214616	0.030611	12.927471	0.017764	-0.101042	3.302740	1.000000	0.000018	0.000052	-0.000062	-0.309905	-9.818781	177.715565
42433	2.241516	0.013280	12.936601	-0.006475	-0.082817	3.316414	1.000000	0.000005	0.000042	-0.000080	-0.310652	-9.819348	177.707445
42434	2.240355	0.013608	12.936801	-0.005134	-0.082881	3.316414	1.000000	-0.000007	0.000048	-0.000080	-0.309914	-9.819784	177.701821
42435	2.230390	0.016528	12.903738	-0.000962	-0.086275	3.282118	1.000000	-0.000003	0.000036	-0.000053	-0.312083	-9.821040	177.696775
42436	2.229310	0.016694	12.903925	0.000048	-0.086523	3.282116	1.000000	-0.000007	0.000048	-0.000080	-0.312224	-9.820073	177.689846
42437	2.236957	0.014115	12.937389	-0.001730	-0.084526	3.316405	1.000000	-0.000007	0.000048	-0.000080	-0.314323	-9.819997	177.681656
42438	2.244717	0.011542	12.970834	-0.003103	-0.082065	3.350697	1.000000	-0.000006	0.000039	-0.000077	-0.314240	-9.822609	177.675078
42439	2.258082	0.015124	12.931574	-0.023258	-0.085094	3.314269	1.000000	-0.000009	0.000066	-0.000087	-0.316426	-9.820466	177.666130
42440	2.233416	-0.019778	12.935137	0.002861	-0.051093	3.313762	1.000000	-0.000004	0.000033	-0.000064	-0.315688	-9.821376	177.660511
42441	2.255977	-0.019092	12.929078	-0.020262	-0.051429	3.311634	1.000000	-0.000017	0.000047	-0.000067	-0.319174	-9.821327	177.653822
42442	2.235400	-0.003935	12.953619	0.003374	-0.067899	3.332222	1.000000	-0.000005	0.000054	-0.000060	-0.319424	-9.820281	177.649480
42443	2.229600	-0.019543	12.935795	0.006416	-0.052730	3.313755	1.000000	-0.000002	0.000060	-0.000080	-0.320935	-9.818784	177.641349
42444	2.223968	-0.035137	12.917943	0.009227	-0.037367	3.295289	1.000000	-0.000005	0.000042	-0.000067	-0.322248	-9.818349	177.632407
42445	2.255185	-0.036971	12.945188	-0.016846	-0.035020	3.327465	1.000000	0.000000	0.000054	-0.000066	-0.323797	-9.817510	177.625850
42446	2.226040	-0.053252	12.933549	0.010526	-0.019547	3.311119	1.000000	-0.000005	0.000042	-0.000067	-0.322977	-9.818045	177.620016
42447	2.233609	-0.021281	12.969890	0.008043	-0.051980	3.348040	1.000000	0.000008	0.000039	-0.000056	-0.323808	-9.818895	177.614656
42448	2.219366	-0.034067	12.918737	0.013468	-0.039501	3.295279	1.000000	-0.000004	0.000045	-0.000057	-0.326173	-9.816720	177.607563
42449	2.222560	-0.052494	12.934150	0.013557	-0.021650	3.311112	1.000000	-0.000007	0.000060	-0.000073	-0.328388	-9.815215	177.600188
42450	2.244523	-0.017235	12.931075	-0.010584	-0.055875	3.311627	1.000000	-0.000007	0.000048	-0.000080	-0.328167	-9.813822	177.589519
42451	2.234485	-0.014254	12.898019	-0.006466	-0.059247	3.277327	1.000000	0.000001	0.000045	-0.000063	-0.329668	-9.813998	177.583342
42452	2.242039	-0.016611	12.931506	-0.008147	-0.057137	3.311624	1.000000	0.000005	0.000054	-0.000073	-0.329917	-9.813351	177.577432
42453	2.212913	-0.032840	12.919847	0.019191	-0.042320	3.295263	1.000000	-0.000005	0.000042	-0.000067	-0.332041	-9.813915	177.570816
42454	2.239759	-0.016123	12.931902	-0.006328	-0.058051	3.311621	1.000000	-0.000006	0.000039	-0.000077	-0.332046	-9.812309	177.562709
42455	2.243155	-0.034441	12.947285	-0.006235	-0.040205	3.327460	1.000000	-0.000001	0.000051	-0.000077	-0.333513	-9.811808	177.554961
42456	2.232934	-0.031309	12.914260	-0.002208	-0.042781	3.293161	1.000000	0.000002	0.000057	-0.000096	-0.330748	-9.810142	177.545893
42457	2.208059	-0.031708	12.920681	0.023297	-0.043834	3.295251	1.000000	-0.000005	0.000042	-0.000067	-0.332858	-9.810688	177.539272
42458	2.263080	-0.032670	12.941726	-0.026901	-0.041328	3.325366	1.000000	0.000007	0.000036	-0.000066	-0.334368	-9.812656	177.532630
42459	2.210027	-0.015098	12.939160	0.024018	-0.061283	3.313697	1.000000	0.000004	0.000064	-0.000076	-0.335262	-9.810730	177.524946
42460	2.232574	-0.048388	12.930298	0.001476	-0.026735	3.308998	1.000000	-0.000000	0.000042	-0.000073	-0.334625	-9.810587	177.516611
42461	2.254787	-0.012924	12.927196	-0.022390	-0.061497	3.309521	1.000000	-0.000000	0.000042	-0.000073	-0.336043	-9.811118	177.509243
42462	2.225923	-0.029020	12.915476	0.004952	-0.046553	3.293147	1.000000	0.000012	0.000036	-0.000073	-0.335570	-9.812359	177.502688
42463	2.233323	0.003142	12.951838	0.002515	-0.079016	3.330052	1.000000	-0.000002	0.000048	-0.000087	-0.336957	-9.812225	177.493749
42464	2.251395	-0.011414	12.927789	-0.018806	-0.062723	3.309520	1.000000	0.000018	0.000052	-0.000062	-0.333169	-9.811480	177.487704
42465	2.217769	-0.008828	12.900909	0.009590	-0.066432	3.277291	1.000000	0.000005	0.000042	-0.000080	-0.333881	-9.811996	177.479583
42466	2.248677	0.023938	12.931103	-0.016988	-0.098458	3.312119	1.000000	-0.000007	0.000048	-0.000080	-0.335559	-9.812605	177.472156
42467	2.239016	-0.007427	12.895136	-0.012198	-0.067389	3.275212	1.000000	0.000006	0.000045	-0.000070	-0.336357	-9.812751	177.465231
42468	2.237774	-0.007115	12.895352	-0.010905	-0.067538	3.275212	1.000000	-0.000006	0.000051	-0.000070	-0.336054	-9.812626	177.459524
42469	2.240793	0.008972	12.913649	-0.011520	-0.084121	3.293661	1.000000	-0.000000	0.000042	-0.000073	-0.337465	-9.813160	177.452155
42470	2.271985	0.007348	12.940965	-0.037173	-0.081262	3.325903	1.000000	-0.000001	0.000051	-0.000077	-0.336381	-9.814108	177.444837
42471	2.223325	0.006044	12.953556	0.012665	-0.082667	3.330023	1.000000	-0.000007	0.000060	-0.000073	-0.338579	-9.812584	177.437460
42472	2.241078	0.025539	12.932419	-0.009183	-0.101343	3.312105	1.000000	-0.000006	0.000039	-0.000077	-0.339659	-9.814390	177.431772
42473	2.240172	-0.008695	12.929740	-0.007278	-0.067621	3.309508	1.000000	-0.000007	0.000060	-0.000073	-0.341858	-9.812870	177.424396
42474	2.262464	-0.007756	12.923806	-0.030345	-0.068146	3.307450	1.000000	-0.000005	0.000042	-0.000067	-0.344745	-9.813774	177.416759
42475	2.209581	0.009324	12.921125	0.020564	-0.088081	3.295693	1.000000	-0.000010	0.000042	-0.000060	-0.347563	-9.814348	177.410900
42476	2.236573	-0.008362	12.930363	-0.003057	-0.069493	3.309500	1.000000	-0.000006	0.000051	-0.000070	-0.347798	-9.816339	177.406030
42477	2.235296	-0.008195	12.930584	-0.001866	-0.070195	3.309496	1.000000	-0.000007	0.000048	-0.000080	-0.349876	-9.816243	177.397843
42478	2.261813	0.008615	12.942746	-0.026871	-0.086737	3.325893	1.000000	-0.000006	0.000051	-0.000070	-0.353381	-9.815440	177.389166
42479	2.237444	-0.026488	12.946197	-0.000640	-0.053371	3.325350	1.000000	-0.000011	0.000039	-0.000071	-0.356126	-9.816396	177.382118
42480	2.255715	-0.041306	12.922155	-0.021881	-0.037820	3.304864	1.000000	0.000008	0.000052	-0.000049	-0.357034	-9.816340	177.378079
42481	2.230167	-0.007413	12.931470	0.002926	-0.073300	3.309479	1.000000	-0.000009	0.000066	-0.000087	-0.359224	-9.814165	177.369141
42482	2.252458	-0.006290	12.925555	-0.019376	-0.073824	3.307440	1.000000	0.000007	0.000036	-0.000066	-0.360564	-9.819040	177.366314
42483	2.227713	-0.006781	12.931894	0.006146	-0.074881	3.309469	1.000000	-0.000006	0.000051	-0.000070	-0.362753	-9.818588	177.359336
42484	2.230980	-0.025095	12.947315	0.006311	-0.056906	3.325334	1.000000	-0.000001	0.000051	-0.000077	-0.363522	-9.818209	177.353322
42485	2.244487	-0.021273	12.908122	-0.014000	-0.059892	3.288993	1.000000	0.000000	0.000054	-0.000066	-0.365096	-9.817370	177.346789
42486	2.243687	-0.055439	12.905435	-0.012450	-0.025515	3.286422	1.000000	-0.000005	0.000042	-0.000067	-0.364366	-9.816305	177.338372
42487	2.254931	-0.007717	12.959939	-0.016538	-0.073931	3.341744	1.000000	-0.000006	0.000051	-0.000070	-0.366551	-9.815844	177.331394
42488	2.212590	-0.002838	12.899699	0.014514	-0.080605	3.275134	1.000000	0.000006	0.000046	-0.000070	-0.369103	-9.815679	177.324517
42489	2.192434	-0.021744	12.921217	0.038978	-0.063143	3.293021	1.000000	0.000005	0.000042	-0.000080	-0.369853	-9.816225	177.316423
42490	2.219562	-0.039135	12.930472	0.014721	-0.044922	3.306873	1.000000	-0.000005	0.000042	-0.000067	-0.371720	-9.816492	177.309338
42491	2.246080	-0.022346	12.942660	-0.010169	-0.061197	3.323293	1.000000	-0.000014	0.000054	-0.000088	-0.374503	-9.815748	177.300351
42492	2.212498	-0.020318	12.915699	0.018512	-0.064510	3.290989	1.000000	-0.000000	0.000042	-0.000073	-0.374300	-9.817801	177.294277
42493	2.234912	-0.019153	12.909787	-0.004625	-0.064878	3.288976	1.000000	-0.000001	0.000051	-0.000077	-0.375802	-9.817327	177.286557
42494	2.242354	-0.021594	12.943308	-0.005657	-0.062810	3.323288	1.000000	-0.000007	0.000048	-0.000080	-0.377020	-9.819683	177.281386
42495	2.241031	-0.021354	12.943537	-0.004460	-0.063527	3.323285	1.000000	0.000000	0.000054	-0.000066	-0.378608	-9.818847	177.274864
42496	2.231192	-0.018586	12.910431	-0.000691	-0.066780	3.288967	1.000000	-0.000014	0.000033	-0.000051	-0.381884	-9.819565	177.269322
42497	2.214922	-0.021982	12.950078	0.022048	-0.065239	3.325278	1.000000	0.000003	0.000073	-0.000079	-0.382869	-9.816629	177.261288
42498	2.241661	-0.039204	12.959425	-0.001856	-0.046859	3.339160	1.000000	0.000005	0.000042	-0.000080	-0.382499	-9.818323	177.252933
42499	2.203546	-0.018298	12.917233	0.027489	-0.069031	3.290951	1.000000	0.000012	0.000049	-0.000066	-0.382729	-9.818123	177.246488
42500	2.230044	-0.001037	12.929442	0.003277	-0.084709	3.307389	1.000000	0.000006	0.000046	-0.000070	-0.380727	-9.821034	177.243496
42501	2.224703	-0.016584	12.911554	0.006204	-0.069511	3.288951	1.000000	-0.000006	0.000051	-0.000070	-0.382932	-9.820597	177.236534
42502	2.227582	-0.000402	12.929867	0.005582	-0.086131	3.307379	1.000000	0.000005	0.000042	-0.000080	-0.383655	-9.820736	177.232585
42503	2.226369	-0.000000	12.930076	0.006780	-0.086849	3.307373	1.000000	-0.000001	0.000051	-0.000077	-0.385163	-9.820281	177.224874
42504	2.248975	0.001285	12.924157	-0.016131	-0.086653	3.305390	1.000000	0.000008	0.000027	-0.000063	-0.383301	-9.823375	177.223631
42505	2.280391	-0.000171	12.951529	-0.042019	-0.084447	3.337726	1.000000	-0.000005	0.000042	-0.000067	-0.385457	-9.823980	177.217052
42506	2.246430	0.036506	12.927407	-0.014297	-0.122170	3.307926	1.000000	0.000015	0.000043	-0.000093	-0.383253	-9.824953	177.207261
42507	2.273528	0.019422	12.936720	-0.038464	-0.104047	3.321837	1.000000	0.000001	0.000045	-0.000063	-0.384793	-9.825171	177.201126
42508	2.229760	-0.000660	12.964296	0.010032	-0.086765	3.341672	1.000000	-0.000005	0.000042	-0.000067	-0.386295	-9.824264	177.196408
42509	2.248118	-0.015462	12.940313	-0.011389	-0.071230	3.321268	1.000000	-0.000006	0.000051	-0.000070	-0.388499	-9.823822	177.189450
42510	2.242170	0.003313	12.925339	-0.009281	-0.090270	3.305372	1.000000	-0.000001	0.000051	-0.000077	-0.389220	-9.822771	177.183367
42511	2.240725	0.003547	12.925589	-0.008084	-0.090989	3.305368	1.000000	-0.000007	0.000060	-0.000073	-0.391474	-9.821286	177.176030
42512	2.239288	0.003544	12.925838	-0.006519	-0.091679	3.305364	1.000000	-0.000016	0.000051	-0.000057	-0.394874	-9.822451	177.175240
42513	2.242706	-0.014822	12.941253	-0.006351	-0.073898	3.321256	1.000000	0.000005	0.000043	-0.000080	-0.395633	-9.823020	177.167166
42514	2.260533	0.004937	12.920179	-0.028478	-0.092670	3.303397	1.000000	-0.000003	0.000048	-0.000046	-0.397449	-9.822761	177.161578
42515	2.240203	-0.014271	12.941687	-0.003975	-0.075223	3.321250	1.000000	-0.000004	0.000054	-0.000101	-0.398835	-9.822007	177.151104
42516	2.242914	0.001782	12.960026	-0.004620	-0.091617	3.339671	1.000000	-0.000012	0.000048	-0.000074	-0.400557	-9.821258	177.142275
42517	2.233044	0.004689	12.926918	-0.000700	-0.094909	3.305343	1.000000	0.000006	0.000046	-0.000070	-0.401408	-9.821450	177.135402
42518	2.227812	-0.010935	12.909015	0.001916	-0.079462	3.286917	1.000000	-0.000012	0.000048	-0.000074	-0.403241	-9.820137	177.128320
42519	2.202786	-0.011864	12.915316	0.027444	-0.080514	3.288861	1.000000	-0.000012	0.000060	-0.000067	-0.406209	-9.818665	177.121744
42520	2.257259	-0.012576	12.936767	-0.023016	-0.077479	3.319288	1.000000	-0.000006	0.000051	-0.000070	-0.406115	-9.816906	177.112917
42521	2.227549	0.005169	12.927866	0.003535	-0.097028	3.305327	1.000000	-0.000007	0.000060	-0.000073	-0.408377	-9.815409	177.105589
42522	2.254486	-0.012096	12.937251	-0.020403	-0.078406	3.319287	1.000000	0.000005	0.000043	-0.000080	-0.406777	-9.816800	177.099176
42523	2.225082	0.005727	12.928291	0.006147	-0.097951	3.305319	1.000000	-0.000009	0.000045	-0.000050	-0.409730	-9.817035	177.094559
42524	2.224518	-0.028664	12.925591	0.007870	-0.063715	3.302803	1.000000	-0.000012	0.000048	-0.000074	-0.410232	-9.816263	177.085819
42525	2.246917	-0.027689	12.919757	-0.015271	-0.064109	3.300862	1.000000	-0.000012	0.000048	-0.000074	-0.413053	-9.816195	177.078428
42526	2.245639	-0.027596	12.919980	-0.013643	-0.064557	3.300862	1.000000	-0.000006	0.000051	-0.000070	-0.413949	-9.817571	177.073007
42527	2.205587	-0.031950	12.965633	0.033534	-0.063379	3.339048	1.000000	0.000001	0.000058	-0.000056	-0.415630	-9.816361	177.067702
42528	2.251683	-0.029794	12.953756	-0.013853	-0.063057	3.335187	1.000000	-0.000004	0.000033	-0.000064	-0.415982	-9.818273	177.062529
42529	2.222120	-0.012064	12.944806	0.012693	-0.082597	3.321200	1.000000	-0.000009	0.000066	-0.000087	-0.418194	-9.816112	177.053623
42530	2.245100	-0.045331	12.936091	-0.009701	-0.047913	3.316768	1.000000	-0.000003	0.000036	-0.000054	-0.417477	-9.817593	177.050328
42531	2.239322	-0.026486	12.921078	-0.007495	-0.067124	3.300854	1.000000	0.000004	0.000052	-0.000083	-0.418270	-9.817107	177.041880
42532	2.214354	-0.027064	12.927339	0.017808	-0.067884	3.302772	1.000000	-0.000001	0.000052	-0.000077	-0.418552	-9.815575	177.032903
42533	2.236783	-0.025839	12.921520	-0.005334	-0.068282	3.300849	1.000000	-0.000005	0.000042	-0.000067	-0.420704	-9.816162	177.026343
42534	2.239649	-0.009712	12.939829	-0.005833	-0.084440	3.319264	1.000000	0.000000	0.000042	-0.000074	-0.419916	-9.816465	177.020055
42535	2.226038	-0.022680	12.888558	-0.000313	-0.071763	3.266515	1.000000	-0.000006	0.000039	-0.000077	-0.421975	-9.817421	177.012299
42536	2.252459	-0.005477	12.900861	-0.025226	-0.087826	3.283016	1.000000	0.000004	0.000052	-0.000083	-0.421559	-9.816387	177.002930
42537	2.232260	-0.024664	12.922304	-0.000700	-0.070385	3.300839	1.000000	-0.000005	0.000042	-0.000067	-0.423708	-9.816969	176.996371
42538	2.263314	-0.025837	12.949827	-0.026484	-0.068091	3.333261	1.000000	0.000017	0.000049	-0.000072	-0.422535	-9.816766	176.988312
42539	2.233834	-0.007847	12.940836	0.000050	-0.087623	3.319244	1.000000	-0.000005	0.000042	-0.000067	-0.424687	-9.817348	176.981756
42540	2.224076	-0.005111	12.907701	0.004119	-0.090968	3.284907	1.000000	-0.000012	0.000048	-0.000074	-0.427839	-9.818290	176.973406
42541	2.226795	0.011013	12.926033	0.003664	-0.107642	3.303313	1.000000	0.000006	0.000046	-0.000070	-0.428680	-9.818466	176.966548
42542	2.245369	-0.003534	12.902097	-0.017867	-0.091453	3.283004	1.000000	-0.000005	0.000042	-0.000067	-0.427995	-9.818740	176.961384
42543	2.237640	-0.009582	12.974999	0.002385	-0.087438	3.353560	1.000000	0.000000	0.000055	-0.000066	-0.429582	-9.817891	176.954893
42544	2.251486	-0.005682	12.935866	-0.018009	-0.090749	3.317327	1.000000	-0.000006	0.000039	-0.000077	-0.433294	-9.819388	176.950971
42545	2.250197	-0.005507	12.936090	-0.016813	-0.091477	3.317324	1.000000	-0.000007	0.000061	-0.000074	-0.435554	-9.817888	176.943658
42546	2.245034	-0.021230	12.918182	-0.013967	-0.075833	3.298915	1.000000	-0.000003	0.000036	-0.000054	-0.435898	-9.819106	176.938509
42547	2.247689	-0.005110	12.936526	-0.014408	-0.092514	3.317319	1.000000	-0.000002	0.000061	-0.000080	-0.437453	-9.817586	176.930445
42548	2.246279	-0.004862	12.936771	-0.013371	-0.092828	3.317318	1.000000	-0.000007	0.000048	-0.000081	-0.437772	-9.816703	176.922796
42549	2.240437	0.013910	12.921758	-0.011186	-0.112032	3.301386	1.000000	0.000000	0.000043	-0.000074	-0.439228	-9.817264	176.915501
42550	2.267655	-0.003388	12.931175	-0.035543	-0.093972	3.315430	1.000000	-0.000010	0.000042	-0.000061	-0.442185	-9.816921	176.905601
42551	2.238743	-0.020000	12.919276	-0.008381	-0.079064	3.298901	1.000000	0.000009	0.000064	-0.000083	-0.442427	-9.814982	176.897235
42552	2.236705	0.014633	12.922404	-0.007535	-0.114036	3.301371	1.000000	-0.000014	0.000033	-0.000051	-0.445049	-9.817881	176.893739
42553	2.240168	-0.003868	12.937831	-0.007325	-0.096294	3.317298	1.000000	-0.000007	0.000061	-0.000074	-0.447313	-9.816376	176.886434
42554	2.262413	-0.002806	12.932093	-0.030526	-0.096496	3.315424	1.000000	-0.000017	0.000048	-0.000068	-0.449929	-9.816030	176.880098
42555	2.237481	-0.003845	12.938296	-0.004992	-0.097546	3.317290	1.000000	-0.000006	0.000051	-0.000070	-0.452147	-9.815565	176.873179
42556	2.232323	-0.019636	12.920387	-0.002046	-0.081967	3.298885	1.000000	-0.000012	0.000048	-0.000074	-0.453407	-9.815986	176.865749
42557	2.235020	-0.003573	12.938721	-0.002470	-0.098662	3.317282	1.000000	0.000000	0.000043	-0.000074	-0.454872	-9.816544	176.858465
42558	2.257566	-0.002173	12.932940	-0.025724	-0.098853	3.315417	1.000000	0.000000	0.000043	-0.000074	-0.455373	-9.816567	176.852590
42559	2.233401	-0.037312	12.936229	0.000445	-0.065469	3.314811	1.000000	-0.000002	0.000061	-0.000080	-0.456936	-9.815037	176.844540
42560	2.231285	-0.002666	12.939366	0.000756	-0.100284	3.317270	1.000000	-0.000006	0.000039	-0.000077	-0.457527	-9.814811	176.837057
42561	2.226380	-0.018370	12.921415	0.003558	-0.085050	3.298865	1.000000	-0.000005	0.000042	-0.000067	-0.459696	-9.815382	176.830529
42562	2.257306	-0.019750	12.949022	-0.022175	-0.082377	3.331350	1.000000	-0.000005	0.000055	-0.000060	-0.459386	-9.814399	176.823799
42563	2.246725	0.017432	12.918794	-0.019035	-0.120041	3.299465	1.000000	-0.000006	0.000039	-0.000077	-0.461459	-9.815338	176.816074
42564	2.203901	-0.037534	12.943199	0.031191	-0.067855	3.316646	1.000000	-0.000010	0.000042	-0.000061	-0.461302	-9.818758	176.816998
42565	2.245307	-0.016684	12.916273	-0.015327	-0.086427	3.297007	1.000000	-0.000001	0.000052	-0.000077	-0.462805	-9.818273	176.809333
42566	2.228840	-0.020149	12.955815	0.007991	-0.084214	3.333191	1.000000	-0.000006	0.000052	-0.000070	-0.461561	-9.819112	176.808842
42567	2.247287	-0.034630	12.931965	-0.013562	-0.068667	3.312949	1.000000	0.000005	0.000055	-0.000073	-0.462443	-9.818240	176.801621
42568	2.241064	-0.015830	12.917011	-0.011419	-0.087664	3.297002	1.000000	-0.000006	0.000064	-0.000063	-0.463925	-9.816191	176.799502
42569	2.216040	-0.016780	12.923194	0.014118	-0.088698	3.298834	1.000000	-0.000005	0.000042	-0.000067	-0.466076	-9.816773	176.792976
42570	2.223522	-0.019065	12.956731	0.013023	-0.086375	3.333173	1.000000	0.000007	0.000037	-0.000067	-0.464295	-9.819001	176.787555
42571	2.246032	-0.017632	12.950986	-0.010122	-0.086801	3.331337	1.000000	-0.000006	0.000052	-0.000070	-0.466490	-9.818542	176.780643
42572	2.240936	-0.033428	12.933071	-0.007201	-0.071178	3.312941	1.000000	-0.000012	0.000048	-0.000074	-0.467587	-9.819016	176.771065
42573	2.238832	0.001134	12.936197	-0.006619	-0.106342	3.315382	1.000000	0.000001	0.000046	-0.000063	-0.469121	-9.819210	176.764985
42574	2.214932	-0.034134	12.939413	0.019684	-0.072450	3.314760	1.000000	-0.000005	0.000042	-0.000067	-0.469050	-9.820333	176.756505
42575	2.232837	-0.014329	12.918437	-0.002502	-0.091333	3.296982	1.000000	-0.000006	0.000039	-0.000077	-0.471100	-9.821289	176.748783
42576	2.264789	-0.049864	12.943146	-0.027473	-0.054209	3.327065	1.000000	0.000006	0.000046	-0.000070	-0.469100	-9.821763	176.736503
42577	2.230429	-0.013529	12.918854	-0.000015	-0.092159	3.296977	1.000000	0.000005	0.000055	-0.000073	-0.469970	-9.820893	176.729286
42578	2.257597	-0.030420	12.928359	-0.023897	-0.073649	3.311113	1.000000	0.000007	0.000037	-0.000067	-0.468579	-9.822984	176.720793
42579	2.260350	-0.014113	12.946680	-0.024269	-0.090358	3.329503	1.000000	0.000000	0.000043	-0.000074	-0.470009	-9.823550	176.713516
42580	2.231695	-0.030817	12.934675	0.003068	-0.075119	3.312920	1.000000	-0.000001	0.000052	-0.000077	-0.470132	-9.823965	176.709432
42581	2.244606	0.007639	12.898532	-0.018173	-0.112453	3.279198	1.000000	-0.000001	0.000052	-0.000077	-0.471611	-9.823490	176.701772
42582	2.256445	-0.013127	12.947363	-0.020406	-0.091914	3.329499	1.000000	-0.000001	0.000052	-0.000077	-0.471567	-9.823108	176.692461
42583	2.251534	-0.028618	12.929420	-0.017646	-0.076662	3.311106	1.000000	0.000007	0.000037	-0.000067	-0.472336	-9.824328	176.686020
42584	2.245447	-0.009810	12.914432	-0.015534	-0.095558	3.295147	1.000000	-0.000008	0.000070	-0.000077	-0.473355	-9.821526	176.682970
42585	2.247750	0.006248	12.932828	-0.015894	-0.112272	3.313531	1.000000	-0.000005	0.000043	-0.000067	-0.475489	-9.822115	176.676451
42586	2.219311	-0.010480	12.920771	0.011087	-0.097001	3.296937	1.000000	0.000007	0.000037	-0.000067	-0.474889	-9.822728	176.672008
42587	2.242718	-0.043458	12.912160	-0.011461	-0.062994	3.292710	1.000000	-0.000013	0.000057	-0.000078	-0.477732	-9.821617	176.664273
42588	2.235750	0.009519	12.900069	-0.009402	-0.116083	3.279176	1.000000	-0.000005	0.000043	-0.000067	-0.477393	-9.824306	176.661424
42589	2.215782	-0.009971	12.921377	0.015193	-0.098660	3.296920	1.000000	-0.000003	0.000037	-0.000054	-0.479568	-9.825573	176.656492
42590	2.251589	-0.029706	12.964259	-0.011144	-0.077646	3.345443	1.000000	-0.000005	0.000043	-0.000067	-0.479253	-9.827092	176.652136
42591	2.237487	-0.008515	12.915815	-0.006511	-0.099283	3.295127	1.000000	-0.000010	0.000030	-0.000068	-0.481940	-9.829123	176.645560
42592	2.236426	-0.008248	12.915999	-0.005294	-0.099380	3.295127	1.000000	0.000004	0.000052	-0.000083	-0.479897	-9.828513	176.641877
42593	2.257641	0.027485	12.913273	-0.029035	-0.134251	3.295762	1.000000	-0.000017	0.000060	-0.000061	-0.483526	-9.827064	176.636091
42594	2.238360	-0.026411	12.931712	-0.003840	-0.082082	3.311084	1.000000	0.000005	0.000043	-0.000080	-0.482876	-9.827519	176.631466
42595	2.260919	-0.024883	12.926015	-0.026989	-0.082520	3.309306	1.000000	-0.000005	0.000043	-0.000067	-0.484995	-9.828112	176.624954
42596	2.258690	0.009759	12.929145	-0.026525	-0.117382	3.311721	1.000000	-0.000001	0.000052	-0.000077	-0.485145	-9.826871	176.621707
42597	2.234700	-0.025580	12.932347	-0.000395	-0.083962	3.311073	1.000000	-0.000006	0.000052	-0.000070	-0.487312	-9.826416	176.614811
42598	2.228800	-0.006914	12.917318	0.001884	-0.102605	3.295103	1.000000	-0.000006	0.000039	-0.000078	-0.486957	-9.827833	176.609034
42599	2.235840	-0.009101	12.950940	0.000619	-0.100885	3.329449	1.000000	0.000010	0.000068	-0.000072	-0.487242	-9.825526	176.601893
42600	2.245763	-0.020836	12.893810	-0.018599	-0.087132	3.274951	1.000000	-0.000008	0.000058	-0.000084	-0.486506	-9.823999	176.595314
42601	2.224503	-0.006125	12.918059	0.005427	-0.104139	3.295090	1.000000	-0.000015	0.000042	-0.000054	-0.490027	-9.824633	176.590307
42602	2.227896	-0.024444	12.933523	0.005692	-0.085973	3.311059	1.000000	0.000003	0.000061	-0.000087	-0.488820	-9.823009	176.579026
42603	2.182907	-0.010734	12.963645	0.054074	-0.103269	3.332947	1.000000	-0.000010	0.000042	-0.000061	-0.491633	-9.823618	176.573270
42604	2.198001	-0.041318	12.921676	0.034102	-0.071298	3.294425	1.000000	-0.000011	0.000052	-0.000064	-0.492615	-9.823737	176.568804
42605	2.224011	-0.024026	12.934192	0.009440	-0.087739	3.311045	1.000000	-0.000001	0.000052	-0.000077	-0.494062	-9.823256	176.561160
42606	2.246458	-0.022547	12.928541	-0.013734	-0.087862	3.309292	1.000000	-0.000005	0.000043	-0.000067	-0.494755	-9.823643	176.556963
42607	2.221647	-0.023532	12.934600	0.011813	-0.088871	3.311035	1.000000	0.000001	0.000046	-0.000063	-0.496248	-9.823836	176.550907
42608	2.247875	-0.006134	12.947086	-0.012904	-0.104985	3.327664	1.000000	-0.000006	0.000040	-0.000078	-0.496797	-9.824420	176.544291
42609	2.215826	-0.038999	12.916817	0.015646	-0.073989	3.292649	1.000000	-0.000005	0.000043	-0.000067	-0.498899	-9.825003	176.537790
42610	2.250282	-0.024101	12.962728	-0.011458	-0.087682	3.343636	1.000000	0.000005	0.000055	-0.000073	-0.498306	-9.823923	176.533084
42611	2.235761	-0.002658	12.914339	-0.006904	-0.109276	3.293296	1.000000	-0.000001	0.000052	-0.000077	-0.499750	-9.823436	176.525447
42612	2.242923	-0.004895	12.947946	-0.008289	-0.107316	3.327649	1.000000	0.000000	0.000043	-0.000074	-0.500045	-9.823247	176.516192
42613	2.265482	-0.003303	12.942291	-0.031441	-0.107765	3.325909	1.000000	0.000000	0.000043	-0.000074	-0.501441	-9.823802	176.508945
42614	2.236944	-0.020135	12.930194	-0.004452	-0.092335	3.309267	1.000000	-0.000001	0.000052	-0.000077	-0.500985	-9.822963	176.502768
42615	2.263067	-0.002701	12.942714	-0.029096	-0.108792	3.325906	1.000000	-0.000006	0.000040	-0.000078	-0.502987	-9.823908	176.495076
42616	2.230936	-0.035309	12.912449	-0.000519	-0.077249	3.290888	1.000000	0.000018	0.000053	-0.000062	-0.500172	-9.823364	176.491077
42617	2.233340	-0.019066	12.930819	-0.000809	-0.093984	3.309256	1.000000	-0.000019	0.000042	-0.000089	-0.503440	-9.824049	176.482104
42618	2.235942	-0.002954	12.949153	-0.000876	-0.110413	3.327626	1.000000	0.000007	0.000037	-0.000067	-0.502745	-9.826115	176.477093
42619	2.231123	-0.018392	12.931202	0.001802	-0.095131	3.309248	1.000000	0.000005	0.000056	-0.000073	-0.503574	-9.825229	176.469911
42620	2.253478	-0.016566	12.925599	-0.021285	-0.095337	3.307526	1.000000	0.000011	0.000047	-0.000076	-0.502541	-9.825622	176.459157
42621	2.237016	-0.019994	12.965031	0.001869	-0.093927	3.343597	1.000000	-0.000005	0.000043	-0.000067	-0.504638	-9.826200	176.452669
42622	2.222748	0.001356	12.916586	0.006367	-0.115065	3.293247	1.000000	0.000006	0.000046	-0.000070	-0.503506	-9.826198	176.446083
42623	2.249827	-0.015420	12.926236	-0.017706	-0.097091	3.307518	1.000000	-0.000003	0.000058	-0.000091	-0.504895	-9.825026	176.436871
42624	2.220290	0.002016	12.917008	0.008953	-0.116020	3.293237	1.000000	-0.000002	0.000028	-0.000050	-0.504720	-9.828041	176.432993
42625	2.251244	0.001079	12.944776	-0.016585	-0.114064	3.325883	1.000000	0.000005	0.000056	-0.000073	-0.505545	-9.827154	176.425816
42626	2.273566	0.002677	12.939192	-0.039379	-0.114221	3.324177	1.000000	-0.000003	0.000049	-0.000047	-0.506418	-9.828491	176.421640
42627	2.240235	0.004160	12.911833	-0.011452	-0.117632	3.291515	1.000000	-0.000001	0.000052	-0.000077	-0.507851	-9.828002	176.414017
42628	2.240183	-0.029890	12.909130	-0.009615	-0.083315	3.289141	1.000000	0.000000	0.000043	-0.000074	-0.506532	-9.828772	176.407743
42629	2.237775	0.004826	12.912259	-0.008970	-0.118483	3.291510	1.000000	-0.000001	0.000052	-0.000077	-0.507961	-9.828282	176.400121
42630	2.240080	0.021066	12.930641	-0.008782	-0.134756	3.309875	1.000000	0.000001	0.000046	-0.000063	-0.507217	-9.830262	176.397471
42631	2.215258	0.019841	12.936646	0.016771	-0.135754	3.311560	1.000000	-0.000015	0.000042	-0.000054	-0.510716	-9.830900	176.392491
42632	2.242473	0.002865	12.946298	-0.007315	-0.117298	3.325863	1.000000	0.000004	0.000052	-0.000084	-0.509256	-9.830105	176.387563
42633	2.234035	-0.028637	12.910198	-0.003218	-0.085984	3.289127	1.000000	-0.000007	0.000049	-0.000081	-0.511287	-9.830011	176.379496
42634	2.212667	-0.014011	12.934379	0.020883	-0.102706	3.309174	1.000000	-0.000017	0.000048	-0.000068	-0.513443	-9.829839	176.376912
42635	2.258801	-0.011185	12.922992	-0.026628	-0.102903	3.305801	1.000000	0.000006	0.000046	-0.000070	-0.514206	-9.830003	176.370133
42636	2.214940	-0.031904	12.950054	0.022649	-0.085648	3.325160	1.000000	-0.000001	0.000052	-0.000077	-0.515140	-9.830658	176.366020
42637	2.236125	0.004131	12.947395	-0.001040	-0.120555	3.325835	1.000000	0.000001	0.000046	-0.000063	-0.516613	-9.830851	176.359996
42638	2.246675	-0.007674	12.890244	-0.020630	-0.106953	3.271430	1.000000	-0.000006	0.000052	-0.000071	-0.516882	-9.829345	176.353157
42639	2.223049	-0.043210	12.893322	0.005454	-0.073500	3.270742	1.000000	-0.000006	0.000040	-0.000078	-0.518862	-9.830295	176.345488
42640	2.209036	0.003408	12.953770	0.026606	-0.122352	3.327493	1.000000	-0.000004	0.000034	-0.000064	-0.519961	-9.831397	176.343071
42641	2.251867	-0.009477	12.924203	-0.019475	-0.106532	3.305784	1.000000	0.000005	0.000043	-0.000080	-0.520624	-9.831924	176.335104
42642	2.226759	-0.010494	12.930235	0.005899	-0.107169	3.307451	1.000000	-0.000009	0.000067	-0.000087	-0.521245	-9.828865	176.324375
42643	2.253757	-0.027434	12.939957	-0.018157	-0.089225	3.321785	1.000000	-0.000004	0.000046	-0.000057	-0.523424	-9.829073	176.319111
42644	2.243005	0.009796	12.909664	-0.015063	-0.126536	3.289768	1.000000	0.000006	0.000047	-0.000070	-0.523087	-9.829626	176.310527
42645	2.247897	-0.042710	12.922198	-0.014234	-0.074411	3.303423	1.000000	-0.000005	0.000043	-0.000067	-0.525167	-9.830202	176.304067
42646	2.221602	-0.009446	12.931123	0.010738	-0.109303	3.307430	1.000000	-0.000002	0.000061	-0.000080	-0.524260	-9.828279	176.295448
42647	2.248843	-0.026360	12.940814	-0.013314	-0.091362	3.321776	1.000000	-0.000009	0.000033	-0.000058	-0.526994	-9.829927	176.290130
42648	2.224044	-0.027311	12.946778	0.012567	-0.092146	3.323428	1.000000	0.000015	0.000053	-0.000096	-0.525289	-9.830698	176.282918
42649	2.241536	-0.006848	12.926001	-0.009700	-0.111027	3.305758	1.000000	0.000005	0.000056	-0.000073	-0.526101	-9.829808	176.275771
42650	2.225019	-0.010411	12.965382	0.013807	-0.109047	3.341775	1.000000	-0.000005	0.000031	-0.000074	-0.525320	-9.832729	176.269731
42651	2.244099	-0.024697	12.941641	-0.007939	-0.093485	3.321766	1.000000	0.000000	0.000055	-0.000067	-0.526836	-9.831866	176.263335
42652	2.219146	-0.025840	12.947621	0.017456	-0.093964	3.323410	1.000000	-0.000005	0.000043	-0.000067	-0.526712	-9.831581	176.259020
42653	2.263978	0.011569	12.939233	-0.030578	-0.128627	3.322457	1.000000	-0.000001	0.000052	-0.000077	-0.528123	-9.831083	176.251428
42654	2.240417	-0.024013	12.942280	-0.004402	-0.094669	3.321759	1.000000	-0.000011	0.000039	-0.000071	-0.528562	-9.832337	176.246616
42655	2.239469	-0.023814	12.942445	-0.003204	-0.095399	3.321754	1.000000	0.000001	0.000034	-0.000071	-0.529868	-9.833933	176.239804
42656	2.252208	0.014861	12.906417	-0.024849	-0.132157	3.288083	1.000000	0.000006	0.000071	-0.000056	-0.528664	-9.829995	176.233809
42657	2.255521	-0.003130	12.921932	-0.024537	-0.114481	3.304096	1.000000	0.000005	0.000043	-0.000080	-0.529309	-9.830511	176.225860
42658	2.235604	-0.022777	12.943115	0.000220	-0.096230	3.321748	1.000000	-0.000017	0.000036	-0.000075	-0.528894	-9.831941	176.226528
42659	2.253229	-0.002729	12.922332	-0.022057	-0.115112	3.304095	1.000000	0.000003	0.000062	-0.000087	-0.529633	-9.830360	176.217800
42660	2.248421	-0.018330	12.904394	-0.019332	-0.099499	3.285742	1.000000	-0.000005	0.000043	-0.000067	-0.530329	-9.831454	176.211225
42661	2.254054	0.013780	12.940964	-0.020911	-0.132311	3.322439	1.000000	0.000000	0.000055	-0.000067	-0.531828	-9.830582	176.204840
42662	2.233725	-0.005696	12.962210	0.003467	-0.114488	3.340081	1.000000	0.000005	0.000056	-0.000073	-0.530951	-9.828231	176.201126
42663	2.200558	-0.004357	12.934723	0.031288	-0.117817	3.307323	1.000000	-0.000011	0.000040	-0.000071	-0.533610	-9.829192	176.194237
42664	2.227699	-0.021128	12.944480	0.007160	-0.099678	3.321721	1.000000	0.000004	0.000065	-0.000077	-0.533497	-9.826794	176.187946
42665	2.245119	-0.001093	12.923744	-0.015124	-0.118560	3.304074	1.000000	-0.000017	0.000048	-0.000068	-0.536918	-9.826732	176.181422
42666	2.223582	0.013731	12.947869	0.009046	-0.135547	3.324030	1.000000	0.000017	0.000050	-0.000073	-0.536209	-9.826363	176.178289
42667	2.250868	-0.002795	12.957612	-0.014995	-0.117639	3.338437	1.000000	-0.000005	0.000043	-0.000067	-0.538266	-9.826925	176.171858
42668	2.217717	-0.001555	12.930110	0.012935	-0.120491	3.305672	1.000000	-0.000006	0.000052	-0.000071	-0.538286	-9.826791	176.170463
42669	2.268670	-0.016772	12.934144	-0.035467	-0.102347	3.318477	1.000000	0.000005	0.000044	-0.000080	-0.538921	-9.827297	176.162534
42670	2.235564	-0.015447	12.906631	-0.007719	-0.105095	3.285710	1.000000	-0.000012	0.000049	-0.000075	-0.539153	-9.826774	176.160763
42671	2.234553	-0.015562	12.906806	-0.006526	-0.105821	3.285705	1.000000	-0.000020	0.000030	-0.000055	-0.543176	-9.828835	176.155780
42672	2.241710	-0.017950	12.940431	-0.007832	-0.103299	3.320081	1.000000	0.000004	0.000053	-0.000084	-0.539913	-9.826921	176.141385
42673	2.245121	-0.035908	12.955937	-0.007510	-0.085633	3.336107	1.000000	0.000005	0.000056	-0.000073	-0.540691	-9.826004	176.134267
42674	2.230738	-0.014642	12.907467	-0.002947	-0.106608	3.285700	1.000000	-0.000007	0.000049	-0.000081	-0.540455	-9.826906	176.123918
42675	2.234325	-0.032823	12.922944	-0.002625	-0.088941	3.301726	1.000000	0.000001	0.000046	-0.000064	-0.541888	-9.827067	176.117942
42676	2.231626	0.001794	12.926080	-0.001991	-0.123905	3.304033	1.000000	-0.000006	0.000052	-0.000071	-0.543083	-9.826144	176.115827
42677	2.235215	-0.016465	12.941557	-0.001667	-0.106241	3.320060	1.000000	-0.000005	0.000043	-0.000067	-0.545123	-9.826699	176.109407
42678	2.230604	-0.032229	12.923588	0.001198	-0.090483	3.301716	1.000000	-0.000006	0.000052	-0.000071	-0.545225	-9.827406	176.112635
42679	2.229049	-0.031849	12.923857	0.002392	-0.091209	3.301711	1.000000	0.000010	0.000069	-0.000073	-0.545443	-9.825046	176.105585
42680	2.231113	-0.015649	12.942265	0.002428	-0.107716	3.320048	1.000000	-0.000017	0.000033	-0.000086	-0.547310	-9.827439	176.102064
42681	2.217113	0.005331	12.893722	0.006702	-0.129158	3.269627	1.000000	-0.000005	0.000043	-0.000067	-0.549346	-9.827998	176.095651
42682	2.249427	-0.029868	12.918739	-0.017930	-0.092540	3.300121	1.000000	-0.000003	0.000037	-0.000054	-0.549821	-9.830275	176.099319
42683	2.223115	0.003263	12.927547	0.007165	-0.127935	3.303992	1.000000	-0.000001	0.000053	-0.000077	-0.551197	-9.829758	176.091768
42684	2.255314	-0.031903	12.952590	-0.017926	-0.091248	3.334495	1.000000	-0.000011	0.000037	-0.000082	-0.551923	-9.830135	176.083907
42685	2.242748	-0.045148	12.901135	-0.013205	-0.078235	3.281775	1.000000	0.000000	0.000043	-0.000074	-0.553245	-9.830663	176.076750
42686	2.219733	0.003930	12.928127	0.010726	-0.129121	3.303978	1.000000	-0.000007	0.000049	-0.000081	-0.552650	-9.831055	176.070052
42687	2.250418	0.003057	12.956103	-0.014630	-0.127308	3.336783	1.000000	-0.000010	0.000043	-0.000061	-0.555388	-9.831643	176.064398
42688	2.213966	-0.011653	12.910358	0.014373	-0.114092	3.285629	1.000000	0.000005	0.000053	-0.000084	-0.554227	-9.830685	176.055018
42689	2.217397	-0.029605	12.925867	0.014702	-0.096434	3.301665	1.000000	0.000005	0.000056	-0.000073	-0.554990	-9.829765	176.047924
42690	2.267006	-0.010285	12.932898	-0.034150	-0.112633	3.316876	1.000000	-0.000004	0.000031	-0.000075	-0.556176	-9.831695	176.038857
42691	2.218565	-0.012906	12.944425	0.015773	-0.113799	3.319987	1.000000	0.000012	0.000050	-0.000066	-0.556283	-9.831427	176.032609
42692	2.245731	-0.029348	12.954261	-0.008436	-0.095778	3.334472	1.000000	0.000000	0.000056	-0.000067	-0.557156	-9.829664	176.030656
42693	2.236292	-0.026543	12.921027	-0.005069	-0.098817	3.300087	1.000000	0.000000	0.000043	-0.000074	-0.558474	-9.830185	176.023514
42694	2.238495	-0.010334	12.939407	-0.005680	-0.115409	3.318416	1.000000	-0.000005	0.000043	-0.000068	-0.559749	-9.828562	176.011560
42695	2.257810	-0.024631	12.915742	-0.027540	-0.099849	3.298528	1.000000	-0.000011	0.000040	-0.000071	-0.562384	-9.829503	176.004724
42696	2.255251	0.009869	12.918839	-0.027026	-0.134603	3.300809	1.000000	-0.000005	0.000040	-0.000078	-0.562506	-9.829278	175.999322
42697	2.235154	-0.009755	12.939985	-0.002325	-0.117171	3.318401	1.000000	0.000005	0.000056	-0.000073	-0.563271	-9.828342	175.992248
42698	2.260943	0.008217	12.952727	-0.026771	-0.133438	3.335185	1.000000	0.000007	0.000038	-0.000067	-0.562510	-9.829511	175.988186
42699	2.256523	-0.007464	12.934733	-0.024275	-0.118094	3.316850	1.000000	-0.000012	0.000049	-0.000075	-0.565195	-9.829397	175.980966
42700	2.250482	0.011147	12.919669	-0.022272	-0.137108	3.300792	1.000000	0.000000	0.000043	-0.000074	-0.566137	-9.829695	175.973841
42701	2.250798	-0.022881	12.916969	-0.020636	-0.103388	3.298513	1.000000	-0.000001	0.000053	-0.000077	-0.567508	-9.829153	175.966325
42702	2.228986	-0.008169	12.941050	0.003660	-0.119930	3.318376	1.000000	0.000000	0.000056	-0.000067	-0.566869	-9.828197	175.965812
42703	2.227469	-0.007937	12.941311	0.004852	-0.120659	3.318369	1.000000	-0.000007	0.000062	-0.000074	-0.569002	-9.826635	175.958659
42704	2.246422	-0.022158	12.917732	-0.016952	-0.104693	3.298508	1.000000	-0.000006	0.000052	-0.000071	-0.569255	-9.826333	175.952629
42705	2.224762	-0.007598	12.941777	0.007317	-0.121709	3.318358	1.000000	-0.000005	0.000043	-0.000068	-0.571280	-9.826870	175.946263
42706	2.223557	-0.007280	12.941984	0.008635	-0.122028	3.318354	1.000000	0.000007	0.000050	-0.000060	-0.570242	-9.827040	175.940160
42707	2.222154	-0.006962	12.942225	0.009828	-0.122757	3.318347	1.000000	-0.000008	0.000058	-0.000084	-0.572263	-9.825842	175.931812
42708	2.220721	-0.006787	12.942472	0.011090	-0.123166	3.318342	1.000000	-0.000006	0.000052	-0.000071	-0.572910	-9.825493	175.929199
42709	2.221043	-0.040910	12.939774	0.012714	-0.089445	3.316071	1.000000	0.000001	0.000047	-0.000064	-0.574329	-9.825632	175.923290
42710	2.194502	-0.007954	12.948531	0.037746	-0.124219	3.319848	1.000000	-0.000012	0.000049	-0.000075	-0.574326	-9.824940	175.912510
42711	2.240639	-0.004666	12.937496	-0.009794	-0.124535	3.316809	1.000000	-0.000006	0.000049	-0.000081	-0.576290	-9.824789	175.904560
42712	2.210828	0.012492	12.928057	0.016329	-0.143464	3.302256	1.000000	0.000006	0.000047	-0.000070	-0.575437	-9.823574	175.897139
42713	2.239929	-0.038366	12.934982	-0.007258	-0.091171	3.314542	1.000000	-0.000003	0.000037	-0.000054	-0.577510	-9.824788	175.892379
42714	2.227481	-0.051676	12.883507	-0.002950	-0.077565	3.261833	1.000000	-0.000006	0.000049	-0.000081	-0.577217	-9.823322	175.884202
42715	2.239375	0.012476	12.956470	-0.006837	-0.142637	3.335114	1.000000	0.000009	0.000032	-0.000053	-0.577919	-9.825153	175.879538
42716	2.231945	-0.019099	12.920246	-0.003002	-0.110878	3.298468	1.000000	-0.000005	0.000043	-0.000068	-0.578515	-9.826013	175.879056
42717	2.249551	0.001097	12.899567	-0.025342	-0.129767	3.280893	1.000000	-0.000006	0.000052	-0.000071	-0.580582	-9.825487	175.872319
42718	2.229474	-0.018664	12.920673	-0.000545	-0.111921	3.298459	1.000000	0.000001	0.000044	-0.000074	-0.580033	-9.826160	175.869688
42719	2.236438	-0.020773	12.954344	-0.001451	-0.110377	3.332841	1.000000	0.000001	0.000044	-0.000074	-0.581333	-9.826652	175.862596
42720	2.235268	-0.020360	12.954546	-0.000043	-0.110469	3.332841	1.000000	0.000006	0.000047	-0.000070	-0.579145	-9.827461	175.858977
42721	2.226011	-0.017417	12.921272	0.003236	-0.113467	3.298446	1.000000	0.000006	0.000044	-0.000080	-0.579728	-9.827921	175.851137
42722	2.229682	-0.035473	12.936761	0.003907	-0.095380	3.314514	1.000000	-0.000006	0.000049	-0.000081	-0.579569	-9.828964	175.847752
42723	2.220339	-0.032910	12.903500	0.007179	-0.098373	3.280119	1.000000	-0.000012	0.000049	-0.000075	-0.582230	-9.828838	175.840572
42724	2.227222	-0.035168	12.937186	0.006477	-0.096433	3.314505	1.000000	0.000001	0.000044	-0.000074	-0.581684	-9.830031	175.832870
42725	2.252955	-0.017161	12.949991	-0.017942	-0.113062	3.331333	1.000000	0.000006	0.000047	-0.000070	-0.582372	-9.830129	175.826236
42726	2.224797	-0.034208	12.937605	0.009042	-0.097497	3.314496	1.000000	0.000012	0.000050	-0.000066	-0.580669	-9.830483	175.822807
42727	2.226769	-0.017769	12.956014	0.008997	-0.114320	3.332805	1.000000	0.000001	0.000044	-0.000074	-0.581957	-9.830979	175.815727
42728	2.242865	-0.047623	12.914243	-0.011722	-0.082188	3.294696	1.000000	0.000005	0.000053	-0.000084	-0.580478	-9.830176	175.808720
42729	2.247961	-0.015071	12.950861	-0.012997	-0.115109	3.331321	1.000000	0.000019	0.000045	-0.000059	-0.579902	-9.830528	175.803389
42730	2.242178	0.003818	12.935732	-0.010842	-0.133807	3.315242	1.000000	-0.000002	0.000025	-0.000061	-0.580052	-9.833603	175.798892
42731	2.237993	-0.011711	12.917709	-0.008423	-0.118436	3.296922	1.000000	0.000010	0.000054	-0.000090	-0.579964	-9.832980	175.789924
42732	2.265286	-0.027799	12.927642	-0.032758	-0.100191	3.311531	1.000000	0.000012	0.000047	-0.000077	-0.578130	-9.831481	175.780262
42733	2.240284	-0.028971	12.933448	-0.007199	-0.101106	3.312994	1.000000	-0.000000	0.000053	-0.000077	-0.579466	-9.830918	175.772799
42734	2.234102	-0.010087	12.918384	-0.005172	-0.119815	3.296911	1.000000	0.000012	0.000047	-0.000077	-0.577790	-9.830885	175.768086
42735	2.237604	-0.027778	12.933914	-0.004807	-0.102191	3.312987	1.000000	0.000016	0.000060	-0.000076	-0.577207	-9.829491	175.760778
42736	2.254971	-0.007240	12.913305	-0.027162	-0.120883	3.295442	1.000000	-0.000006	0.000053	-0.000071	-0.578359	-9.828848	175.760071
42737	2.233078	0.007397	12.937304	-0.002818	-0.137896	3.315203	1.000000	0.000004	0.000050	-0.000094	-0.578870	-9.828612	175.750665
42738	2.250992	0.027990	12.916602	-0.025304	-0.156397	3.297662	1.000000	0.000010	0.000019	-0.000060	-0.577692	-9.831206	175.741177
42739	2.236005	-0.009893	12.952936	-0.001386	-0.120612	3.331278	1.000000	0.000009	0.000063	-0.000094	-0.577653	-9.829517	175.731833
42740	2.224832	0.027381	12.922588	0.001399	-0.157894	3.299100	1.000000	0.000001	0.000044	-0.000074	-0.578329	-9.829744	175.725482
42741	2.228434	0.009398	12.938104	0.001768	-0.140276	3.315178	1.000000	0.000005	0.000056	-0.000073	-0.579061	-9.828775	175.718489
42742	2.222238	0.028193	12.923032	0.003876	-0.159079	3.299085	1.000000	0.000001	0.000044	-0.000074	-0.579116	-9.829569	175.714302
42743	2.244529	0.030374	12.917721	-0.019306	-0.159628	3.297633	1.000000	0.000010	0.000066	-0.000083	-0.579189	-9.827513	175.706170
42744	2.222552	0.045057	12.941712	0.005360	-0.176244	3.317377	1.000000	-0.000005	0.000040	-0.000078	-0.579200	-9.829530	175.703497
42745	2.246971	0.012603	12.933443	-0.017440	-0.142343	3.313714	1.000000	-0.000005	0.000043	-0.000068	-0.581191	-9.830047	175.697206
42746	2.221806	0.011203	12.939242	0.008148	-0.142814	3.315149	1.000000	0.000005	0.000069	-0.000066	-0.580157	-9.827636	175.690668
42747	2.217373	-0.004456	12.921269	0.010532	-0.127431	3.296836	1.000000	-0.000003	0.000034	-0.000064	-0.582093	-9.829204	175.684773
42748	2.214443	0.030084	12.924366	0.011141	-0.162306	3.299042	1.000000	-0.000006	0.000053	-0.000071	-0.582853	-9.827645	175.681109
42749	2.238767	-0.002362	12.916126	-0.011668	-0.128407	3.295393	1.000000	-0.000005	0.000040	-0.000078	-0.584730	-9.828521	175.673625
42750	2.245730	-0.004640	12.949807	-0.012660	-0.126447	3.329788	1.000000	-0.000010	0.000040	-0.000072	-0.585332	-9.828487	175.666928
42751	2.220653	-0.006193	12.955579	0.012902	-0.127349	3.331208	1.000000	-0.000001	0.000065	-0.000070	-0.586825	-9.826493	175.660314
42752	2.235097	-0.001969	12.916762	-0.008199	-0.129833	3.295382	1.000000	-0.000014	0.000033	-0.000052	-0.588846	-9.828448	175.651775
42753	2.210380	-0.003510	12.922467	0.017360	-0.130735	3.296796	1.000000	0.000006	0.000044	-0.000081	-0.589405	-9.828887	175.644001
42754	2.232974	-0.001558	12.917129	-0.006040	-0.131017	3.295371	1.000000	-0.000018	0.000043	-0.000089	-0.591398	-9.828548	175.627591
42755	2.231703	-0.001520	12.917349	-0.004854	-0.131746	3.295364	1.000000	-0.000005	0.000056	-0.000061	-0.593551	-9.827638	175.622130
42756	2.211623	-0.021478	12.938394	0.019876	-0.113781	3.312877	1.000000	-0.000004	0.000043	-0.000068	-0.593185	-9.827847	175.616114
42757	2.202403	-0.018896	12.905101	0.023041	-0.116726	3.278470	1.000000	-0.000006	0.000053	-0.000071	-0.595223	-9.827299	175.609454
42758	2.235918	-0.003397	12.951505	-0.003095	-0.130978	3.329750	1.000000	-0.000004	0.000043	-0.000068	-0.596220	-9.828565	175.607638
42759	2.208012	-0.020780	12.939012	0.023637	-0.115759	3.312854	1.000000	0.000006	0.000044	-0.000081	-0.596776	-9.828999	175.599878
42760	2.232430	-0.053044	12.930789	0.001112	-0.081442	3.309249	1.000000	-0.000004	0.000047	-0.000057	-0.596920	-9.830217	175.603453
42761	2.229407	-0.018678	12.933894	0.001937	-0.116627	3.311436	1.000000	-0.000015	0.000043	-0.000055	-0.600329	-9.830796	175.598699
42762	2.251067	-0.066916	12.907421	-0.019772	-0.066148	3.289546	1.000000	0.000022	0.000026	-0.000053	-0.597590	-9.832850	175.597959
42763	2.237500	-0.054599	12.964801	0.002669	-0.080959	3.343638	1.000000	-0.000005	0.000040	-0.000078	-0.599455	-9.833719	175.590506
42764	2.249209	-0.066055	12.907749	-0.017335	-0.067302	3.289544	1.000000	0.000008	0.000038	-0.000067	-0.598698	-9.835015	175.587365
42765	2.227546	-0.051272	12.931638	0.007070	-0.084319	3.309229	1.000000	0.000013	0.000038	-0.000073	-0.598592	-9.836101	175.580466
42766	2.253188	-0.032866	12.944534	-0.017280	-0.100770	3.326127	1.000000	0.000012	0.000048	-0.000077	-0.597466	-9.836007	175.572337
42767	2.228483	-0.034066	12.950211	0.008283	-0.101662	3.327512	1.000000	0.000009	0.000029	-0.000064	-0.598020	-9.838181	175.566588
42768	2.254242	-0.015807	12.963087	-0.016235	-0.117884	3.344414	1.000000	0.000007	0.000047	-0.000070	-0.596642	-9.837297	175.558139
42769	2.265719	-0.026979	12.906088	-0.036332	-0.104523	3.290330	1.000000	0.000018	0.000051	-0.000073	-0.595988	-9.836925	175.551307
42770	2.246711	0.003981	12.948233	-0.013314	-0.137267	3.328296	1.000000	0.000018	0.000051	-0.000073	-0.593623	-9.835329	175.542705
42771	2.266185	-0.009563	12.924745	-0.035358	-0.121706	3.308618	1.000000	0.000006	0.000044	-0.000081	-0.594169	-9.835752	175.534973
42772	2.235118	-0.042894	12.894056	-0.007678	-0.089811	3.273418	1.000000	-0.000002	0.000059	-0.000091	-0.593164	-9.833531	175.532131
42773	2.236746	-0.026413	12.912504	-0.007634	-0.106671	3.291703	1.000000	0.000012	0.000048	-0.000077	-0.593106	-9.833550	175.524857
42774	2.214633	-0.011606	12.936441	0.016783	-0.123555	3.311362	1.000000	0.000011	0.000060	-0.000070	-0.592647	-9.831977	175.529520
42775	2.189410	-0.012958	12.942183	0.042344	-0.124436	3.312727	1.000000	0.000000	0.000056	-0.000067	-0.594074	-9.831015	175.523360
42776	2.164171	-0.014075	12.947922	0.067931	-0.124828	3.314092	1.000000	0.000027	0.000061	-0.000089	-0.589879	-9.829450	175.514537
42777	2.141989	0.000863	12.971851	0.092365	-0.141843	3.333734	1.000000	0.000007	0.000050	-0.000060	-0.590649	-9.829140	175.509229
42778	2.169425	-0.015208	12.981891	0.068312	-0.123683	3.348474	1.000000	0.000006	0.000044	-0.000081	-0.589382	-9.829064	175.503711
42779	2.136621	-0.013949	12.954039	0.095789	-0.126743	3.315421	1.000000	0.000025	0.000045	-0.000066	-0.588066	-9.829330	175.497754
42780	2.170281	0.011144	12.894405	0.051226	-0.147306	3.262159	1.000000	0.000008	0.000026	-0.000074	-0.586790	-9.832972	175.498048
42781	2.174679	-0.006681	12.909814	0.051617	-0.129714	3.278266	1.000000	0.000009	0.000017	-0.000071	-0.587162	-9.836547	175.491529
42782	2.174245	-0.006061	12.909887	0.052729	-0.130109	3.278258	1.000000	0.000014	0.000017	-0.000077	-0.585411	-9.839586	175.491623
42783	2.221335	-0.001778	12.899004	0.005160	-0.130556	3.275536	1.000000	0.000011	0.000010	-0.000057	-0.585842	-9.843850	175.486709
42784	2.238778	-0.031229	12.857184	-0.015781	-0.098548	3.237612	1.000000	0.000019	0.000017	-0.000084	-0.583380	-9.847411	175.478155
42785	2.315305	0.006986	12.877284	-0.089941	-0.131142	3.270120	1.000000	0.000008	0.000026	-0.000074	-0.583804	-9.849929	175.471252
42786	2.299144	0.003339	12.916341	-0.066060	-0.129422	3.305881	1.000000	0.000012	0.000001	-0.000054	-0.582215	-9.855939	175.475992
42787	2.322391	0.005811	12.910958	-0.089251	-0.130019	3.304534	1.000000	0.000012	0.000036	-0.000084	-0.581975	-9.857366	175.467948
42788	2.353134	0.006150	12.939177	-0.114185	-0.128095	3.337602	1.000000	0.000025	0.000033	-0.000073	-0.578840	-9.859506	175.464298
42789	2.357048	-0.011373	12.954689	-0.113785	-0.110516	3.353733	1.000000	0.000012	0.000048	-0.000077	-0.578769	-9.859517	175.457067
42790	2.327203	0.005773	12.945040	-0.087383	-0.129482	3.338950	1.000000	0.000014	0.000042	-0.000063	-0.577794	-9.860326	175.454296
42791	2.323889	0.040847	12.948150	-0.086495	-0.164674	3.341100	1.000000	0.000016	0.000057	-0.000087	-0.577063	-9.859243	175.445925
42792	2.327661	0.023014	12.963688	-0.086338	-0.146651	3.357232	1.000000	-0.000003	0.000034	-0.000065	-0.577074	-9.859542	175.441157
42793	2.297547	0.039828	12.954073	-0.059985	-0.165822	3.342434	1.000000	0.000003	0.000075	-0.000080	-0.577883	-9.856424	175.433501
42794	2.283222	0.060830	12.905474	-0.056091	-0.186660	3.291895	1.000000	-0.000003	0.000037	-0.000054	-0.578297	-9.857764	175.424475
42795	2.234358	0.057333	12.916624	-0.006151	-0.187648	3.294546	1.000000	-0.000003	0.000072	-0.000084	-0.579703	-9.855045	175.416371
42796	2.253437	0.043363	12.893270	-0.028303	-0.171941	3.274937	1.000000	-0.000012	0.000062	-0.000068	-0.581802	-9.853167	175.415223
42797	2.204435	0.039539	12.904430	0.021636	-0.172921	3.277578	1.000000	-0.000018	0.000058	-0.000072	-0.585184	-9.851979	175.408569
42798	2.208013	0.021147	12.919995	0.022039	-0.154901	3.293707	1.000000	-0.000011	0.000049	-0.000075	-0.585850	-9.851589	175.407068
42799	2.198571	0.023657	12.886727	0.025075	-0.157781	3.259286	1.000000	-0.000003	0.000072	-0.000084	-0.587256	-9.848866	175.398976
42800	2.205079	0.021443	12.920496	0.024244	-0.155892	3.293691	1.000000	-0.000017	0.000034	-0.000086	-0.588291	-9.849588	175.394064
42801	2.211786	0.019149	12.954231	0.023581	-0.154473	3.328090	1.000000	-0.000005	0.000056	-0.000061	-0.590417	-9.848648	175.388724
42802	2.204808	-0.012827	12.918016	0.026868	-0.122769	3.291537	1.000000	-0.000016	0.000037	-0.000076	-0.593058	-9.849722	175.387256
42803	2.253919	0.006872	12.925577	-0.021766	-0.139424	3.307176	1.000000	-0.000018	0.000058	-0.000072	-0.596437	-9.848528	175.380622
42804	2.205067	0.003095	12.936674	0.028379	-0.140070	3.309791	1.000000	-0.000006	0.000050	-0.000082	-0.596880	-9.849020	175.378952
42805	2.232570	-0.013222	12.946783	0.004404	-0.122388	3.324616	1.000000	-0.000010	0.000043	-0.000061	-0.599549	-9.849535	175.373570
42806	2.226181	0.005279	12.931697	0.006328	-0.141081	3.308470	1.000000	-0.000001	0.000066	-0.000071	-0.599541	-9.847160	175.370749
42807	2.193170	0.005636	12.903822	0.033719	-0.144058	3.275351	1.000000	-0.000028	0.000045	-0.000066	-0.604176	-9.847460	175.364820
42808	2.231405	0.002756	12.965691	0.007012	-0.140269	3.342866	1.000000	-0.000004	0.000047	-0.000057	-0.605587	-9.848178	175.356342
42809	2.171854	-0.014888	12.925002	0.059825	-0.127193	3.292773	1.000000	-0.000030	0.000061	-0.000083	-0.610217	-9.846731	175.348422
42810	2.194316	-0.013089	12.919802	0.036947	-0.127476	3.291467	1.000000	-0.000003	0.000037	-0.000054	-0.610659	-9.849086	175.352540
42811	2.203764	0.000676	12.971773	0.035276	-0.142240	3.344136	1.000000	-0.000012	0.000059	-0.000078	-0.613319	-9.847854	175.345180
42812	2.173051	-0.033146	12.940966	0.063107	-0.110252	3.308887	1.000000	-0.000005	0.000041	-0.000078	-0.612950	-9.849277	175.346463
42813	2.174897	-0.017085	12.959351	0.063261	-0.127148	3.327141	1.000000	-0.000016	0.000037	-0.000076	-0.616094	-9.850556	175.339449
42814	2.187125	-0.028897	12.902323	0.042793	-0.113293	3.273168	1.000000	-0.000015	0.000028	-0.000072	-0.617253	-9.852257	175.332256
42815	2.196879	-0.015251	12.954242	0.041143	-0.128064	3.325836	1.000000	-0.000010	0.000043	-0.000061	-0.619916	-9.852772	175.326905
42816	2.218941	-0.063662	12.927900	0.019151	-0.077481	3.304171	1.000000	-0.000017	0.000034	-0.000086	-0.620377	-9.853868	175.320244
42817	2.216090	-0.029091	12.930910	0.020085	-0.112672	3.306277	1.000000	0.000010	0.000020	-0.000060	-0.620839	-9.857064	175.315042
42818	2.239340	-0.027063	12.925594	-0.003010	-0.112938	3.304995	1.000000	-0.000024	0.000017	-0.000056	-0.623640	-9.860787	175.316298
42819	2.251794	-0.038850	12.868538	-0.023399	-0.099523	3.251037	1.000000	-0.000004	0.000031	-0.000075	-0.625406	-9.862676	175.309401
42820	2.261591	-0.024957	12.920455	-0.025174	-0.113908	3.303713	1.000000	-0.000003	0.000035	-0.000065	-0.625577	-9.863345	175.310634
42821	2.289474	-0.041105	12.930538	-0.049146	-0.096260	3.318593	1.000000	-0.000004	0.000031	-0.000075	-0.627341	-9.865231	175.303744
42822	2.315094	-0.022982	12.943531	-0.073380	-0.112420	3.335589	1.000000	-0.000010	0.000040	-0.000072	-0.626997	-9.865766	175.294751
42823	2.306240	-0.020588	12.910167	-0.070415	-0.115267	3.301173	1.000000	-0.000010	0.000040	-0.000072	-0.629529	-9.866636	175.288217
42824	2.289359	-0.024751	12.949279	-0.046631	-0.113456	3.336858	1.000000	-0.000003	0.000035	-0.000065	-0.629097	-9.867889	175.289995
42825	2.307230	-0.004218	12.928714	-0.069054	-0.132390	3.319437	1.000000	-0.000004	0.000031	-0.000075	-0.630853	-9.869772	175.283114
42826	2.308897	0.011986	12.947139	-0.068901	-0.148833	3.337699	1.000000	-0.000005	0.000056	-0.000061	-0.630940	-9.868567	175.273172
42827	2.276157	0.012372	12.919184	-0.041565	-0.151760	3.304538	1.000000	-0.000016	0.000037	-0.000076	-0.634064	-9.869836	175.266194
42828	2.274948	0.012494	12.919397	-0.040652	-0.152060	3.304537	1.000000	0.000000	0.000057	-0.000067	-0.633654	-9.867546	175.256741
42829	2.273582	0.012596	12.919637	-0.039470	-0.152790	3.304532	1.000000	-0.000016	0.000049	-0.000069	-0.636953	-9.867395	175.250575
42830	2.275161	0.028641	12.938074	-0.039412	-0.169404	3.322787	1.000000	-0.000004	0.000044	-0.000068	-0.637616	-9.867106	175.249862
42831	2.240320	0.063265	12.912979	-0.012313	-0.206783	3.291707	1.000000	-0.000021	0.000039	-0.000059	-0.641575	-9.868050	175.244853
42832	2.267794	0.046741	12.923159	-0.036287	-0.188663	3.306619	1.000000	-0.000018	0.000058	-0.000072	-0.642778	-9.866570	175.241882
42833	2.245196	0.060605	12.947042	-0.011707	-0.205654	3.326112	1.000000	-0.000019	0.000068	-0.000075	-0.646186	-9.864303	175.234934
42834	2.246371	0.076322	12.965548	-0.011187	-0.222042	3.344365	1.000000	-0.000029	0.000055	-0.000070	-0.648421	-9.864607	175.235316
42835	2.261094	0.080312	12.926843	-0.032638	-0.224795	3.308694	1.000000	-0.000021	0.000040	-0.000059	-0.652374	-9.865551	175.230318
42836	2.259994	0.079894	12.927038	-0.031355	-0.225091	3.308692	1.000000	-0.000033	0.000045	-0.000060	-0.655738	-9.866042	175.231247
42837	2.261624	0.095254	12.945471	-0.031143	-0.242005	3.326936	1.000000	-0.000039	0.000041	-0.000064	-0.661655	-9.866776	175.225698
42838	2.233777	0.076496	12.932836	-0.004726	-0.226068	3.309916	1.000000	-0.000040	0.000063	-0.000060	-0.665410	-9.864235	175.223816
42839	2.256398	0.127936	12.948909	-0.029095	-0.277376	3.329008	1.000000	-0.000051	0.000059	-0.000058	-0.672872	-9.862937	175.218977
42840	2.286007	0.076252	12.956227	-0.052742	-0.224867	3.341860	1.000000	-0.000050	0.000050	-0.000054	-0.678317	-9.862909	175.220844
42841	2.245514	0.077539	12.894677	-0.023718	-0.229841	3.274239	1.000000	-0.000071	0.000045	-0.000039	-0.688469	-9.863195	175.218206
42842	2.233449	0.053485	12.949105	-0.000969	-0.209632	3.326054	1.000000	-0.000049	0.000041	-0.000051	-0.693123	-9.862272	175.218845
42843	2.247751	0.006144	12.889248	-0.021298	-0.161733	3.270069	1.000000	-0.000081	0.000054	-0.000070	-0.703736	-9.861565	175.212550
42844	2.225337	0.018534	12.913081	0.003197	-0.178179	3.289540	1.000000	-0.000062	0.000055	-0.000055	-0.710204	-9.859968	175.211560
42845	2.223595	-0.033047	12.892125	0.005515	-0.128251	3.269204	1.000000	-0.000056	0.000046	-0.000058	-0.718196	-9.860122	175.206684
42846	2.222250	-0.034326	12.892354	0.006765	-0.128491	3.269201	1.000000	-0.000061	0.000058	-0.000045	-0.724911	-9.859039	175.203530
42847	2.233876	-0.056384	12.941422	0.005469	-0.108862	3.319788	1.000000	-0.000058	0.000030	-0.000035	-0.733628	-9.860987	175.201412
42848	2.255831	-0.105550	12.915126	-0.016740	-0.058211	3.298252	1.000000	-0.000030	0.000076	-0.000066	-0.735612	-9.856902	175.196643
42849	2.241024	-0.094451	12.972536	0.006173	-0.073106	3.352130	1.000000	-0.000025	0.000042	-0.000042	-0.740385	-9.857515	175.193645
42850	2.203134	-0.076431	12.929220	0.034253	-0.093520	3.302741	1.000000	-0.000039	0.000066	-0.000050	-0.743452	-9.855364	175.189399
42851	2.233265	-0.077588	12.957689	0.009349	-0.092113	3.335948	1.000000	-0.000041	0.000038	-0.000033	-0.750252	-9.856463	175.187449
42852	2.250492	-0.108241	12.916035	-0.012031	-0.059704	3.298250	1.000000	-0.000032	0.000048	-0.000049	-0.752620	-9.855921	175.189308
42853	2.249388	-0.108916	12.916222	-0.010854	-0.060428	3.298248	1.000000	-0.000036	0.000038	-0.000040	-0.758697	-9.856977	175.186613
42854	2.269399	-0.123425	12.892819	-0.033301	-0.044360	3.278802	1.000000	-0.000025	0.000042	-0.000042	-0.761101	-9.856646	175.183138
42855	2.294386	-0.105686	12.906022	-0.057441	-0.061230	3.295849	1.000000	-0.000018	0.000071	-0.000065	-0.764595	-9.854002	175.177455
42856	2.247926	-0.144580	12.913911	-0.007186	-0.027009	3.296179	1.000000	-0.000037	0.000032	-0.000060	-0.767810	-9.856168	175.174286
42857	2.262769	-0.140717	12.875233	-0.028715	-0.029755	3.260562	1.000000	-0.000027	0.000061	-0.000049	-0.772681	-9.854664	175.170507
42858	2.252875	-0.147694	12.947954	-0.006439	-0.025775	3.330603	1.000000	-0.000006	0.000063	-0.000075	-0.771949	-9.853078	175.169815
42859	2.248650	-0.163648	12.929956	-0.004343	-0.010301	3.312359	1.000000	-0.000017	0.000059	-0.000072	-0.775257	-9.851850	175.163336
42860	2.207887	-0.160966	12.868389	0.024333	-0.014543	3.244698	1.000000	-0.000008	0.000069	-0.000088	-0.774370	-9.848234	175.156761
42861	2.174054	-0.169715	12.946428	0.070935	-0.011213	3.315913	1.000000	-0.000008	0.000069	-0.000088	-0.776295	-9.845861	175.148387
42862	2.191241	-0.148931	12.926091	0.048426	-0.029538	3.298542	1.000000	0.000004	0.000051	-0.000095	-0.773952	-9.845053	175.139250
42863	2.168489	-0.184691	12.928659	0.074141	0.004168	3.297658	1.000000	0.000016	0.000058	-0.000087	-0.773134	-9.843901	175.131092
42864	2.180968	-0.145090	12.892969	0.052403	-0.032264	3.264106	1.000000	0.000017	0.000037	-0.000090	-0.768672	-9.844785	175.126319
42865	2.192900	-0.114500	12.963273	0.050109	-0.063325	3.335006	1.000000	0.000027	0.000047	-0.000107	-0.766233	-9.844962	175.115860
42866	2.168230	-0.115765	12.968721	0.075823	-0.063345	3.336175	1.000000	0.000008	0.000026	-0.000074	-0.763298	-9.847766	175.116983
42867	2.199378	-0.105907	12.891171	0.031533	-0.068119	3.264970	1.000000	0.000032	0.000050	-0.000103	-0.760258	-9.847537	175.106983
42868	2.208884	-0.040759	12.964426	0.029206	-0.132986	3.337926	1.000000	0.000030	0.000031	-0.000090	-0.754870	-9.849484	175.106608
42869	2.221736	-0.000889	12.928660	0.007510	-0.170201	3.304375	1.000000	0.000024	0.000031	-0.000083	-0.753148	-9.851453	175.098913
42870	2.221052	0.000199	12.928777	0.009177	-0.170465	3.304371	1.000000	0.000031	0.000022	-0.000086	-0.748477	-9.856193	175.105923
42871	2.265152	0.039758	12.921340	-0.038540	-0.205611	3.304086	1.000000	0.000018	0.000052	-0.000073	-0.747708	-9.855732	175.099386
42872	2.237805	0.073049	12.929762	-0.013068	-0.240188	3.307297	1.000000	0.000041	0.000038	-0.000082	-0.741293	-9.856623	175.097780
42873	2.242010	0.055712	12.945222	-0.012644	-0.222648	3.323475	1.000000	0.000008	0.000026	-0.000074	-0.741594	-9.859082	175.091138
42874	2.238619	0.090720	12.948327	-0.011819	-0.257122	3.325523	1.000000	0.000016	0.000046	-0.000094	-0.737518	-9.858062	175.079406
42875	2.232330	0.109710	12.933215	-0.009881	-0.276098	3.309319	1.000000	0.000007	0.000048	-0.000070	-0.738053	-9.858041	175.073173
42876	2.228507	0.094222	12.915157	-0.007983	-0.260140	3.291078	1.000000	0.000006	0.000045	-0.000081	-0.736460	-9.857425	175.070527
42877	2.232268	0.076410	12.930700	-0.007559	-0.242601	3.307257	1.000000	0.000005	0.000054	-0.000084	-0.736926	-9.856702	175.062695
42878	2.212459	0.106679	12.972703	0.016138	-0.275180	3.344873	1.000000	0.000000	0.000042	-0.000085	-0.735458	-9.856651	175.052429
42879	2.229806	0.077230	12.931120	-0.005338	-0.243466	3.307242	1.000000	-0.000001	0.000051	-0.000088	-0.736514	-9.856328	175.044147
42880	2.207204	0.091338	12.954888	0.019519	-0.259812	3.326618	1.000000	-0.000007	0.000060	-0.000085	-0.735712	-9.855154	175.049349
42881	2.203367	0.075238	12.936838	0.021557	-0.244316	3.308368	1.000000	-0.000026	0.000036	-0.000063	-0.740177	-9.856470	175.044018
42882	2.178664	0.072824	12.942255	0.046888	-0.244501	3.309503	1.000000	-0.000016	0.000037	-0.000076	-0.740912	-9.856526	175.033198
42883	2.201199	0.074824	12.937209	0.023680	-0.245212	3.308348	1.000000	-0.000023	0.000055	-0.000076	-0.744770	-9.855677	175.026321
42884	2.202384	0.040171	12.934489	0.025065	-0.210819	3.306308	1.000000	-0.000027	0.000046	-0.000066	-0.746408	-9.856148	175.020281
42885	2.225020	0.042014	12.929433	0.001856	-0.211532	3.305162	1.000000	-0.000020	0.000040	-0.000059	-0.750273	-9.857056	175.015415
42886	2.197733	0.023423	12.916577	0.028112	-0.195354	3.288060	1.000000	-0.000031	0.000036	-0.000057	-0.752529	-9.857358	175.017847
42887	2.225570	0.006879	12.926823	0.004149	-0.177819	3.303117	1.000000	-0.000020	0.000040	-0.000059	-0.756390	-9.858264	175.012989
42888	2.227078	-0.027937	12.924045	0.005428	-0.143492	3.301083	1.000000	-0.000036	0.000038	-0.000040	-0.759856	-9.859179	175.006093
42889	2.231031	-0.046853	12.939556	0.005855	-0.125957	3.317275	1.000000	-0.000027	0.000049	-0.000056	-0.764490	-9.859071	175.001588
42890	2.251134	-0.061060	12.916232	-0.016525	-0.109675	3.297922	1.000000	-0.000026	0.000036	-0.000063	-0.765481	-9.859983	175.004556
42891	2.250006	-0.061491	12.916427	-0.015350	-0.110389	3.297918	1.000000	-0.000026	0.000052	-0.000046	-0.770237	-9.859514	175.001262
42892	2.235233	-0.100619	12.952498	0.008617	-0.073961	3.331439	1.000000	-0.000015	0.000040	-0.000066	-0.770585	-9.859693	174.995669
42893	2.255375	-0.114595	12.929174	-0.013767	-0.058464	3.312090	1.000000	-0.000020	0.000043	-0.000049	-0.774560	-9.860236	174.992033
42894	2.249192	-0.096402	12.914048	-0.011921	-0.076674	3.295889	1.000000	-0.000009	0.000044	-0.000062	-0.773803	-9.860050	174.990996
42895	2.253027	-0.114613	12.929583	-0.011496	-0.059140	3.312089	1.000000	-0.000005	0.000054	-0.000071	-0.775672	-9.859397	174.984713
42896	2.228164	-0.116796	12.935000	0.014233	-0.059316	3.313198	1.000000	-0.000013	0.000034	-0.000052	-0.776488	-9.861465	174.982300
42897	2.251141	-0.114362	12.929914	-0.008983	-0.060042	3.312087	1.000000	0.000008	0.000027	-0.000074	-0.776742	-9.863898	174.975728
42898	2.247480	-0.129988	12.911836	-0.007056	-0.043839	3.293860	1.000000	-0.000006	0.000063	-0.000075	-0.775623	-9.861636	174.971119
42899	2.196143	-0.100008	12.925453	0.042826	-0.078985	3.298084	1.000000	-0.000011	0.000038	-0.000082	-0.777892	-9.862803	174.963584
42900	2.229258	-0.134307	12.951013	0.018040	-0.042414	3.329392	1.000000	-0.000010	0.000026	-0.000090	-0.776438	-9.864709	174.959085
42901	2.223523	-0.115733	12.935809	0.019959	-0.061369	3.313181	1.000000	0.000003	0.000026	-0.000068	-0.777401	-9.867183	174.953272
42902	2.267843	-0.076461	12.928450	-0.027538	-0.096012	3.313005	1.000000	0.000007	0.000021	-0.000095	-0.774763	-9.870772	174.954310
42903	2.293784	-0.107984	12.920350	-0.050698	-0.062281	3.309892	1.000000	0.000003	0.000011	-0.000085	-0.775408	-9.875021	174.946492
42904	2.340915	-0.102810	12.909997	-0.098496	-0.062443	3.307712	1.000000	0.000020	0.000018	-0.000084	-0.771523	-9.877316	174.943887
42905	2.342845	-0.086088	12.928386	-0.098118	-0.079382	3.325941	1.000000	0.000008	0.000027	-0.000074	-0.771757	-9.879740	174.937337
42906	2.360871	-0.064642	12.907973	-0.120760	-0.097730	3.308651	1.000000	0.000031	0.000022	-0.000086	-0.766414	-9.881662	174.931537
42907	2.410056	-0.043110	12.915986	-0.169157	-0.114734	3.324708	1.000000	0.000018	0.000040	-0.000080	-0.765391	-9.882572	174.924299
42908	2.382682	-0.060514	12.903130	-0.142993	-0.098515	3.307581	1.000000	0.000017	0.000049	-0.000083	-0.761426	-9.881257	174.925570
42909	2.404855	-0.007056	12.919425	-0.167031	-0.149961	3.326739	1.000000	0.000022	0.000062	-0.000083	-0.759922	-9.879639	174.917992
42910	2.348075	-0.008492	12.896538	-0.115649	-0.152121	3.294475	1.000000	0.000010	0.000070	-0.000073	-0.757701	-9.876263	174.923626
42911	2.348687	0.008182	12.915155	-0.115252	-0.169061	3.312699	1.000000	0.000016	0.000074	-0.000069	-0.757102	-9.873270	174.917613
42912	2.322847	0.006957	12.920728	-0.090112	-0.169106	3.313780	1.000000	0.000036	0.000088	-0.000088	-0.751213	-9.866550	174.910897
42913	2.267685	0.072015	12.937421	-0.040204	-0.238661	3.319939	1.000000	0.000015	0.000095	-0.000066	-0.750857	-9.861072	174.905296
42914	2.236510	0.088732	12.927675	-0.013799	-0.256883	3.304799	1.000000	0.000015	0.000083	-0.000073	-0.747293	-9.857032	174.904095
42915	2.215750	0.068799	12.948552	0.011020	-0.239305	3.322072	1.000000	0.000009	0.000080	-0.000077	-0.747338	-9.853374	174.897236
42916	2.182208	0.119538	12.941679	0.037261	-0.292017	3.308925	1.000000	-0.000002	0.000076	-0.000074	-0.745858	-9.849654	174.890763
42917	2.162062	0.048944	12.941260	0.062859	-0.223733	3.305968	1.000000	0.000001	0.000057	-0.000068	-0.747094	-9.848565	174.885005
42918	2.162699	0.115394	12.981017	0.062399	-0.290916	3.344397	1.000000	-0.000012	0.000062	-0.000068	-0.747720	-9.846241	174.879048
42919	2.177519	0.069766	12.921286	0.041461	-0.242969	3.288661	1.000000	-0.000006	0.000063	-0.000075	-0.749605	-9.844494	174.872439
42920	2.167340	0.062752	12.993937	0.064331	-0.239008	3.358585	1.000000	-0.000029	0.000052	-0.000080	-0.751177	-9.844997	174.870121
42921	2.201312	0.037253	12.913627	0.019727	-0.209350	3.285584	1.000000	-0.000026	0.000036	-0.000063	-0.755565	-9.846278	174.864904
42922	2.181626	0.016544	12.934303	0.044316	-0.191076	3.302856	1.000000	-0.000004	0.000044	-0.000068	-0.754397	-9.845305	174.863514
42923	2.202030	0.002839	12.911019	0.021844	-0.175601	3.283573	1.000000	-0.000020	0.000028	-0.000066	-0.758001	-9.847596	174.857958
42924	2.206362	-0.015833	12.926488	0.022350	-0.157400	3.299792	1.000000	-0.000032	0.000033	-0.000067	-0.759964	-9.849363	174.851290
42925	2.186987	-0.036812	12.947105	0.047170	-0.139811	3.317051	1.000000	-0.000021	0.000025	-0.000077	-0.763434	-9.852010	174.844530
42926	2.228652	-0.014014	12.921582	0.000219	-0.158186	3.298733	1.000000	-0.000014	0.000031	-0.000062	-0.763462	-9.853285	174.837529
42927	2.254297	-0.046286	12.913619	-0.023004	-0.124482	3.295689	1.000000	-0.000032	0.000033	-0.000067	-0.768427	-9.854966	174.831871
42928	2.255902	-0.030453	12.932043	-0.022359	-0.140911	3.313904	1.000000	-0.000001	0.000029	-0.000051	-0.767822	-9.857692	174.838972
42929	2.260416	-0.098838	12.926303	-0.021210	-0.072676	3.309920	1.000000	-0.000004	0.000044	-0.000068	-0.769570	-9.858060	174.833194
42930	2.237942	-0.085266	12.949931	0.003634	-0.088979	3.329171	1.000000	-0.000028	0.000043	-0.000077	-0.771333	-9.858433	174.829038
42931	2.281994	-0.096860	12.921534	-0.043253	-0.073582	3.308884	1.000000	-0.000012	0.000040	-0.000031	-0.774722	-9.859244	174.827584
42932	2.249665	-0.097051	12.893243	-0.016194	-0.075671	3.275481	1.000000	-0.000015	0.000043	-0.000055	-0.775561	-9.859612	174.828599
42933	2.250936	-0.081181	12.911725	-0.015747	-0.092615	3.293690	1.000000	-0.000015	0.000043	-0.000055	-0.778745	-9.860076	174.824334
42934	2.228770	-0.117796	12.914111	0.009502	-0.057980	3.292735	1.000000	-0.000004	0.000047	-0.000058	-0.777235	-9.858502	174.821663
42935	2.277435	-0.096933	12.922338	-0.038830	-0.075080	3.308889	1.000000	-0.000004	0.000047	-0.000058	-0.779102	-9.858507	174.817114
42937	2.245855	-0.110513	12.954917	-0.004199	-0.130001	16.484212	1.000000	-0.000012	0.000129	-0.000139	-0.777804	-9.849344	174.805100
42938	2.248878	-0.098829	12.928315	-0.012030	-0.075843	3.309913	1.000000	-0.000005	0.000069	-0.000054	-0.779918	-9.846868	174.800957
42939	2.223463	-0.100955	12.933731	0.013455	-0.075859	3.310934	1.000000	-0.000002	0.000061	-0.000092	-0.778273	-9.844846	174.791210
42940	2.202896	-0.070909	12.975701	0.037605	-0.108972	3.348365	1.000000	0.000006	0.000058	-0.000074	-0.778751	-9.843688	174.784770
42941	2.196143	-0.051989	12.960642	0.039218	-0.127185	3.332132	1.000000	0.000015	0.000068	-0.000090	-0.774801	-9.839869	174.767829
42942	2.215971	-0.064970	12.937505	0.016701	-0.111716	3.312899	1.000000	0.000005	0.000055	-0.000084	-0.775144	-9.839062	174.760186
42943	2.214676	-0.064376	12.937730	0.018025	-0.112002	3.312895	1.000000	0.000011	0.000046	-0.000088	-0.772822	-9.839750	174.754783
42944	2.158395	-0.066101	12.914548	0.069412	-0.114509	3.280466	1.000000	0.000015	0.000056	-0.000097	-0.771720	-9.838843	174.745646
42945	2.206931	-0.044660	12.922842	0.021170	-0.131143	3.296650	1.000000	0.000006	0.000046	-0.000081	-0.769860	-9.839219	174.739117
42946	2.179267	-0.012219	12.931088	0.046769	-0.166228	3.299618	1.000000	0.000005	0.000040	-0.000102	-0.769875	-9.840184	174.729473
42947	2.207372	-0.027393	12.941458	0.022807	-0.148201	3.314845	1.000000	0.000021	0.000022	-0.000074	-0.766054	-9.842905	174.721521
42948	2.225230	-0.005937	12.921140	0.000314	-0.167204	3.297598	1.000000	0.000013	0.000037	-0.000084	-0.765549	-9.844167	174.713952
42949	2.224446	-0.005298	12.921275	0.001805	-0.167537	3.297594	1.000000	0.000008	0.000024	-0.000085	-0.763829	-9.848085	174.711080
42950	2.244536	0.032015	12.919262	-0.021374	-0.202795	3.298556	1.000000	0.000013	0.000040	-0.000074	-0.763454	-9.848991	174.704723
42951	2.243534	0.032783	12.919434	-0.020247	-0.202891	3.298556	1.000000	0.000018	0.000037	-0.000091	-0.759573	-9.849728	174.698341
42952	2.247984	0.015060	12.934900	-0.019804	-0.185374	3.314786	1.000000	-0.000001	0.000017	-0.000058	-0.761107	-9.853263	174.693839
42953	2.268073	0.052143	12.932887	-0.042893	-0.220013	3.315762	1.000000	0.000006	0.000046	-0.000081	-0.758563	-9.853386	174.699615
42954	2.272205	0.034381	12.948411	-0.042451	-0.202498	3.331994	1.000000	0.000010	0.000033	-0.000054	-0.758975	-9.855046	174.695634
42955	2.313708	0.057873	12.923024	-0.089435	-0.221070	3.313785	1.000000	-0.000004	0.000032	-0.000075	-0.758093	-9.855996	174.697906
42956	2.286623	0.039735	12.910011	-0.063203	-0.205410	3.296562	1.000000	0.000002	0.000048	-0.000064	-0.759211	-9.855935	174.692669
42957	2.292861	0.037743	12.943862	-0.063105	-0.203733	3.331008	1.000000	-0.000004	0.000045	-0.000068	-0.758889	-9.857337	174.697186
42958	2.286550	0.056139	12.928717	-0.061197	-0.222646	3.314760	1.000000	-0.000009	0.000044	-0.000062	-0.761316	-9.857734	174.692246
42959	2.282882	0.040240	12.910671	-0.059265	-0.206563	3.296562	1.000000	-0.000006	0.000063	-0.000075	-0.760739	-9.855973	174.699026
42960	2.283964	0.056314	12.929173	-0.058742	-0.223521	3.314756	1.000000	-0.000015	0.000028	-0.000073	-0.763558	-9.858193	174.692831
42961	2.262005	0.019525	12.931505	-0.033116	-0.189082	3.313775	1.000000	-0.000018	0.000056	-0.000083	-0.764062	-9.857536	174.692511
42962	2.276891	0.023980	12.893037	-0.054959	-0.191850	3.278355	1.000000	-0.000028	0.000055	-0.000070	-0.768503	-9.856671	174.686608
42963	2.264364	0.000738	12.947345	-0.031279	-0.171859	3.330013	1.000000	-0.000016	0.000050	-0.000069	-0.769668	-9.857197	174.683109
42964	2.263072	0.000630	12.947571	-0.030105	-0.172558	3.330006	1.000000	-0.000016	0.000050	-0.000069	-0.772735	-9.856937	174.677326
42965	2.280916	-0.029041	12.906154	-0.051969	-0.140235	3.292650	1.000000	-0.000017	0.000059	-0.000073	-0.773078	-9.855714	174.673577
42966	2.261089	-0.049942	12.926789	-0.027139	-0.122597	3.309855	1.000000	-0.000021	0.000037	-0.000070	-0.776670	-9.856923	174.667744
42967	2.263077	-0.084607	12.924001	-0.026254	-0.087932	3.307909	1.000000	-0.000031	0.000036	-0.000057	-0.777839	-9.857036	174.670114
42968	2.285440	-0.082335	12.919180	-0.049481	-0.088760	3.306951	1.000000	-0.000008	0.000073	-0.000078	-0.779705	-9.854187	174.663243
42969	2.260022	-0.084644	12.924535	-0.023613	-0.088827	3.307908	1.000000	-0.000005	0.000057	-0.000061	-0.779263	-9.854194	174.663629
42970	2.285363	-0.116582	12.916762	-0.046955	-0.055187	3.305009	1.000000	-0.000027	0.000049	-0.000056	-0.783764	-9.854034	174.659361
42971	2.262313	-0.103130	12.940385	-0.022129	-0.071433	3.324157	1.000000	0.000000	0.000070	-0.000061	-0.782599	-9.850711	174.657766
42972	2.258390	-0.118991	12.922382	-0.020346	-0.055861	3.305960	1.000000	-0.000012	0.000063	-0.000069	-0.785122	-9.848975	174.652062
42973	2.251680	-0.100558	12.907304	-0.018307	-0.074320	3.289710	1.000000	0.000001	0.000057	-0.000068	-0.784268	-9.848209	174.655159
42974	2.254753	-0.068220	12.944146	-0.018354	-0.107550	3.326094	1.000000	0.000002	0.000048	-0.000064	-0.785357	-9.848140	174.649983
42975	2.234735	-0.088723	12.964791	0.006349	-0.089315	3.343288	1.000000	-0.000006	0.000063	-0.000075	-0.784641	-9.845542	174.644678
42976	2.247313	-0.099665	12.908072	-0.014937	-0.075818	3.289705	1.000000	0.000006	0.000061	-0.000064	-0.785201	-9.844000	174.639565
42977	2.200381	-0.088052	12.936735	0.034377	-0.091862	3.309772	1.000000	0.000017	0.000065	-0.000066	-0.781741	-9.841477	174.644164
42978	2.201167	-0.071577	12.955281	0.034950	-0.108824	3.327955	1.000000	-0.000004	0.000045	-0.000068	-0.783413	-9.841810	174.638545
42979	2.199800	-0.071175	12.955515	0.036026	-0.108912	3.327952	1.000000	0.000012	0.000062	-0.000070	-0.780662	-9.839458	174.644045
42980	2.211778	-0.031514	12.920022	0.014278	-0.146163	3.294500	1.000000	0.000012	0.000049	-0.000077	-0.780296	-9.839275	174.637398
42981	2.189799	-0.067786	12.922312	0.039833	-0.111624	3.293491	1.000000	0.000001	0.000045	-0.000075	-0.778595	-9.839818	174.644007
42982	2.192981	-0.035248	12.959119	0.039843	-0.144860	3.329861	1.000000	0.000012	0.000046	-0.000088	-0.778089	-9.839988	174.636157
42983	2.208143	-0.029734	12.920648	0.018024	-0.147192	3.294484	1.000000	0.000017	0.000050	-0.000084	-0.774988	-9.839861	174.636348
42984	2.209118	-0.013038	12.939156	0.018620	-0.164156	3.312663	1.000000	0.000006	0.000043	-0.000092	-0.775067	-9.840436	174.628047
42985	2.211234	-0.046754	12.936367	0.019656	-0.129798	3.310730	1.000000	0.000009	0.000027	-0.000075	-0.772608	-9.842681	174.623517
42986	2.207165	-0.011654	12.939490	0.021000	-0.164960	3.312650	1.000000	0.000028	0.000054	-0.000086	-0.770198	-9.841978	174.615852
42987	2.253807	-0.005897	12.929608	-0.026456	-0.165597	3.310815	1.000000	-0.000001	0.000014	-0.000069	-0.769678	-9.846277	174.620090
42988	2.247838	0.012840	12.914383	-0.024542	-0.184483	3.294547	1.000000	0.000012	0.000046	-0.000088	-0.769163	-9.846441	174.612263
42989	2.248869	0.029539	12.932878	-0.023961	-0.200731	3.312737	1.000000	0.000013	0.000040	-0.000074	-0.765551	-9.846695	174.617634
42990	2.255099	0.027825	12.966733	-0.024085	-0.199507	3.347177	1.000000	0.000001	0.000045	-0.000075	-0.766479	-9.846964	174.611314
42991	2.246545	0.030409	12.933280	-0.021750	-0.201587	3.312727	1.000000	0.000002	0.000048	-0.000064	-0.765278	-9.845932	174.615251
42992	2.238117	0.032956	12.899804	-0.019286	-0.204189	3.278269	1.000000	-0.000006	0.000036	-0.000100	-0.766517	-9.847313	174.606062
42993	2.270066	0.049366	12.946989	-0.044239	-0.218960	3.330001	1.000000	-0.000017	0.000062	-0.000062	-0.767548	-9.845655	174.613765
42994	2.264642	0.017538	12.910587	-0.041990	-0.187088	3.293625	1.000000	0.000009	0.000027	-0.000075	-0.767625	-9.847994	174.607527
42995	2.238940	0.065402	12.937004	-0.016582	-0.237847	3.314625	1.000000	-0.000021	0.000050	-0.000063	-0.769163	-9.848183	174.607344
42996	2.240671	0.031096	12.934298	-0.015626	-0.204063	3.312698	1.000000	-0.000005	0.000054	-0.000072	-0.770868	-9.847437	174.601395
42997	2.232884	-0.016863	12.879634	-0.012754	-0.155245	3.258149	1.000000	-0.000010	0.000057	-0.000055	-0.770480	-9.846480	174.608044
42998	2.217137	-0.005639	12.936845	0.011012	-0.170099	3.311665	1.000000	-0.000010	0.000054	-0.000065	-0.772906	-9.845788	174.602851
42999	2.215993	-0.005604	12.937041	0.012241	-0.170272	3.311662	1.000000	-0.000008	0.000035	-0.000059	-0.772940	-9.847128	174.608743
43000	2.243737	-0.021311	12.947627	-0.011736	-0.152988	3.327035	1.000000	-0.000017	0.000059	-0.000073	-0.776010	-9.845777	174.602693
43001	2.187495	-0.024358	12.924171	0.039641	-0.154519	3.294352	1.000000	-0.000016	0.000050	-0.000069	-0.776212	-9.845853	174.597983
43002	2.235972	-0.003143	12.932705	-0.008495	-0.171927	3.310758	1.000000	-0.000002	0.000038	-0.000055	-0.777922	-9.846880	174.594076
43003	2.211067	-0.005692	12.937884	0.017381	-0.171852	3.311636	1.000000	-0.000016	0.000050	-0.000069	-0.778421	-9.847625	174.594278
43004	2.244030	-0.039711	12.963842	-0.007347	-0.136390	3.343292	1.000000	-0.000014	0.000044	-0.000056	-0.781500	-9.848051	174.590259
43005	2.237837	-0.021406	12.948648	-0.005486	-0.154641	3.327020	1.000000	-0.000004	0.000033	-0.000075	-0.780215	-9.849250	174.583728
43006	2.256642	-0.050741	12.907191	-0.027711	-0.122975	3.289782	1.000000	-0.000015	0.000029	-0.000073	-0.782953	-9.851446	174.577702
43007	2.270461	-0.055257	12.974673	-0.029094	-0.119343	3.358687	1.000000	-0.000014	0.000031	-0.000063	-0.783526	-9.852832	174.571177
43008	2.283909	-0.066361	12.917882	-0.050578	-0.105862	3.305184	1.000000	-0.000005	0.000042	-0.000079	-0.785012	-9.853498	174.564464
43009	2.282730	-0.066291	12.918091	-0.049344	-0.105958	3.305188	1.000000	-0.000016	0.000050	-0.000069	-0.785348	-9.853190	174.565370
43010	2.279524	-0.082262	12.899981	-0.047686	-0.090353	3.287010	1.000000	-0.000002	0.000038	-0.000055	-0.787046	-9.854214	174.561490
43011	2.290877	-0.102521	12.949226	-0.048412	-0.070380	3.337742	1.000000	-0.000006	0.000051	-0.000082	-0.785930	-9.853909	174.563286
43012	2.308195	-0.081528	12.929115	-0.070889	-0.089485	3.320606	1.000000	-0.000009	0.000044	-0.000062	-0.788272	-9.854275	174.558547
43013	2.281160	-0.100106	12.915982	-0.044673	-0.073092	3.303293	1.000000	-0.000011	0.000051	-0.000076	-0.788020	-9.854397	174.558354
43014	2.253010	-0.068341	12.924104	-0.018834	-0.108010	3.306046	1.000000	-0.000004	0.000045	-0.000068	-0.789634	-9.854707	174.552871
43015	2.273345	-0.081236	12.901078	-0.041653	-0.092111	3.287018	1.000000	0.000017	0.000062	-0.000077	-0.786372	-9.852534	174.544584
43016	2.224238	-0.085878	12.911267	0.008310	-0.092310	3.288718	1.000000	0.000006	0.000061	-0.000064	-0.786874	-9.850959	174.539625
43017	2.272267	-0.064129	12.919946	-0.039383	-0.109374	3.305194	1.000000	0.000006	0.000058	-0.000074	-0.785280	-9.851267	174.541748
43018	2.230422	-0.071125	12.963803	0.009369	-0.107682	3.341337	1.000000	0.000004	0.000065	-0.000088	-0.785563	-9.849332	174.533966
43019	2.218576	-0.034003	12.933306	0.012007	-0.144102	3.308774	1.000000	0.000019	0.000044	-0.000070	-0.781779	-9.849350	174.530844
43020	2.246240	-0.048867	12.943964	-0.011969	-0.126858	3.324205	1.000000	0.000011	0.000059	-0.000081	-0.781412	-9.848070	174.523937
43021	2.239494	-0.029986	12.928858	-0.010158	-0.145315	3.307921	1.000000	0.000011	0.000059	-0.000081	-0.779309	-9.846179	174.514331
43022	2.232858	-0.011019	12.913730	-0.008241	-0.164173	3.291631	1.000000	0.000017	0.000050	-0.000084	-0.778153	-9.845905	174.507091
43023	2.238821	-0.012567	12.947638	-0.008136	-0.162373	3.326086	1.000000	0.000007	0.000049	-0.000071	-0.775717	-9.845952	174.510741
43024	2.237469	-0.012060	12.947872	-0.006963	-0.163057	3.326078	1.000000	0.000005	0.000055	-0.000085	-0.775929	-9.845075	174.503388
43025	2.230990	0.006845	12.932711	-0.005013	-0.181306	3.309793	1.000000	0.000019	0.000041	-0.000080	-0.772023	-9.845592	174.506838
43026	2.229796	0.007374	12.932917	-0.003841	-0.181988	3.309784	1.000000	-0.000006	0.000051	-0.000082	-0.773542	-9.845178	174.499782
43027	2.252386	0.010328	12.928193	-0.027003	-0.182247	3.308958	1.000000	0.000003	0.000039	-0.000061	-0.771419	-9.845919	174.509890
43028	2.256412	-0.007626	12.943781	-0.026583	-0.164757	3.325238	1.000000	-0.000005	0.000054	-0.000072	-0.773073	-9.845152	174.504053
43029	2.204344	0.021548	12.956783	0.023868	-0.198689	3.328766	1.000000	0.000001	0.000046	-0.000075	-0.770915	-9.845656	174.507010
43030	2.224826	0.008477	12.933772	0.001069	-0.183344	3.309766	1.000000	-0.000005	0.000054	-0.000072	-0.772566	-9.844888	174.501179
43031	2.225397	0.024688	12.952327	0.002130	-0.199719	3.327933	1.000000	-0.000005	0.000054	-0.000072	-0.771401	-9.845199	174.496216
43032	2.215037	0.011063	12.900522	0.004896	-0.185961	3.275298	1.000000	-0.000003	0.000036	-0.000065	-0.772924	-9.846565	174.491201
43033	2.221231	0.008786	12.934390	0.004963	-0.184115	3.309754	1.000000	-0.000028	0.000043	-0.000077	-0.774123	-9.846975	174.492365
43034	2.225317	-0.009358	12.949968	0.005382	-0.166625	3.326034	1.000000	0.000006	0.000046	-0.000081	-0.774253	-9.847156	174.485452
43035	2.242783	0.011852	12.929861	-0.017172	-0.185209	3.308933	1.000000	-0.000008	0.000035	-0.000059	-0.774105	-9.848041	174.477441
43036	2.246992	-0.006239	12.945421	-0.016751	-0.167721	3.325217	1.000000	-0.000004	0.000045	-0.000069	-0.775684	-9.848337	174.472034
43037	2.245834	-0.006116	12.945622	-0.015644	-0.167740	3.325218	1.000000	-0.000009	0.000044	-0.000062	-0.775102	-9.848074	174.470556
43038	2.213599	-0.006595	12.917048	0.011082	-0.169990	3.291555	1.000000	-0.000010	0.000054	-0.000065	-0.777465	-9.847359	174.465499
43039	2.265053	-0.019216	12.922857	-0.037217	-0.152489	3.306246	1.000000	0.000002	0.000049	-0.000064	-0.775802	-9.847304	174.463091
43040	2.240218	-0.021812	12.927942	-0.011647	-0.152875	3.307039	1.000000	-0.000013	0.000035	-0.000052	-0.778763	-9.848780	174.459604
43041	2.264897	-0.003025	12.941541	-0.035292	-0.169789	3.324405	1.000000	-0.000004	0.000045	-0.000069	-0.778712	-9.848713	174.462547
43042	2.263102	-0.069261	12.902186	-0.033697	-0.103374	3.286206	1.000000	-0.000016	0.000050	-0.000069	-0.781654	-9.848404	174.457046
43043	2.236664	-0.021822	12.928557	-0.008171	-0.153949	3.307029	1.000000	-0.000016	0.000050	-0.000069	-0.782006	-9.847676	174.460535
43044	2.231574	-0.053820	12.892133	-0.006232	-0.122004	3.270698	1.000000	-0.000004	0.000045	-0.000069	-0.783573	-9.847965	174.455165
43045	2.208513	-0.040477	12.915549	0.019023	-0.138296	3.289644	1.000000	-0.000016	0.000050	-0.000069	-0.784760	-9.847776	174.451595
43046	2.236306	-0.055915	12.926257	-0.004961	-0.121115	3.305149	1.000000	-0.000004	0.000045	-0.000069	-0.786325	-9.848063	174.446234
43047	2.258950	-0.052959	12.921571	-0.028155	-0.121552	3.304366	1.000000	-0.000005	0.000042	-0.000079	-0.785294	-9.848490	174.453751
43048	2.210432	-0.058332	12.931503	0.021813	-0.121599	3.305922	1.000000	-0.000016	0.000035	-0.000087	-0.787880	-9.849946	174.446264
