// Start Time: Unknown
// Update Rate: 100.0Hz
// Filter Profile: human (46.1)
// Firmware Version: 4.4.0
PacketCounter	Acc_X	Acc_Y	Acc_Z	FreeAcc_X	FreeAcc_Y	FreeAcc_Z	OriInc_q0	OriInc_q1	OriInc_q2	OriInc_q3	Roll	Pitch	Yaw
39926	9.877545	-0.425099	0.801371	-0.000000	-0.000000	0.106425	1.000000	0.000032	0.000024	0.000032	-27.935851	-84.754803	28.013314
39927	9.865662	-0.397376	0.786298	-0.000000	-0.000000	0.092233	1.000000	0.000031	0.000027	0.000047	-26.793875	-84.899606	26.727826
39928	9.843747	-0.390498	0.778964	0.012225	0.019190	0.069525	1.000000	0.000023	0.000018	0.000032	-27.386765	-84.825984	27.396298
39929	9.877340	-0.427039	0.802866	-0.008350	-0.015400	0.106410	1.000000	0.000035	0.000030	0.000023	-27.390995	-84.821769	27.404552
39930	9.855418	-0.419987	0.795692	-0.002377	-0.008710	0.083711	1.000000	0.000049	0.000031	0.000040	-27.414597	-84.816717	27.433515
39931	9.872966	-0.417874	0.825884	-0.030453	-0.005347	0.103522	1.000000	0.000036	0.000028	0.000015	-27.411206	-84.813070	27.434195
39932	9.865336	-0.400045	0.789024	0.006180	0.012518	0.092224	1.000000	0.000040	0.000023	0.000033	-27.430147	-84.808983	27.457822
39933	9.887119	-0.408322	0.797264	0.000167	0.005836	0.114923	1.000000	0.000030	0.000018	0.000040	-27.461306	-84.805000	27.492578
39934	9.833312	-0.414578	0.789973	0.003648	-0.002029	0.061012	1.000000	0.000034	0.000031	0.000030	-27.472605	-84.800202	27.507853
39935	9.891205	-0.419811	0.776600	0.022236	-0.004214	0.117810	1.000000	0.000032	0.000026	0.000039	-27.497751	-84.795531	27.536760
39936	9.860836	-0.392610	0.812773	-0.015890	0.022558	0.089336	1.000000	0.000052	0.000016	0.000052	-27.540431	-84.791207	27.585619
39937	9.891066	-0.421218	0.777604	0.022225	-0.004214	0.117810	1.000000	0.000030	0.000037	0.000013	-27.529751	-84.786816	27.578298
39938	9.864942	-0.403729	0.792071	0.006159	0.012498	0.092224	1.000000	0.000047	0.000012	0.000028	-27.547824	-84.784204	27.601821
39939	9.878264	-0.391515	0.843819	-0.043981	0.025906	0.109148	1.000000	0.000039	0.000024	0.000040	-27.574093	-84.779588	27.632729
39940	9.869048	-0.415123	0.771257	0.028241	0.002404	0.095111	1.000000	0.000042	0.000028	0.000024	-27.576067	-84.775462	27.639618
39941	9.854690	-0.426310	0.801324	-0.002371	-0.008775	0.083711	1.000000	0.000038	0.000017	0.000042	-27.608171	-84.771528	27.676196
39942	9.896595	-0.392952	0.793935	0.008706	0.026951	0.123436	1.000000	0.000032	0.000024	0.000032	-27.623490	-84.767575	27.695333
39943	9.851248	-0.419698	0.743125	0.056310	-0.000999	0.075300	1.000000	0.000024	0.000029	0.000045	-27.654529	-84.762265	27.729209
39944	9.854472	-0.428407	0.802886	-0.002462	-0.008886	0.083711	1.000000	0.000057	0.000028	0.000034	-27.668273	-84.758261	27.749566
39945	9.868696	-0.418360	0.774003	0.028150	0.002293	0.095111	1.000000	0.000028	0.000040	0.000028	-27.672469	-84.752727	27.757025
39946	9.854316	-0.429668	0.804121	-0.002570	-0.008945	0.083710	1.000000	0.000035	0.000011	0.000051	-27.717578	-84.749610	27.806403
39947	9.868556	-0.419737	0.775042	0.028042	0.002234	0.095112	1.000000	0.000036	0.000037	0.000021	-27.715522	-84.744705	27.808537
39948	9.893597	-0.435881	0.842692	-0.036814	-0.012314	0.126219	1.000000	0.000039	0.000024	0.000040	-27.743275	-84.740995	27.840932
39949	9.874257	-0.389976	0.790121	0.014374	0.033456	0.100738	1.000000	0.000039	0.000024	0.000040	-27.769132	-84.736369	27.871429
39950	9.849787	-0.422005	0.828107	-0.024882	0.000976	0.080822	1.000000	0.000042	0.000030	0.000032	-27.780143	-84.732324	27.887219
39951	9.864030	-0.412071	0.799101	0.005730	0.012155	0.092224	1.000000	0.000032	0.000026	0.000039	-27.804642	-84.727636	27.915479
39952	9.878277	-0.402047	0.770162	0.036273	0.023241	0.103627	1.000000	0.000036	0.000037	0.000021	-27.799407	-84.723339	27.914436
39953	9.885700	-0.420771	0.808311	-0.000353	0.005379	0.114923	1.000000	0.000033	0.000033	0.000038	-27.817964	-84.717968	27.936918
39954	9.878129	-0.403316	0.771396	0.036130	0.023109	0.103628	1.000000	0.000045	0.000016	0.000043	-27.847686	-84.715168	27.971899
39955	9.873822	-0.393813	0.793650	0.014066	0.033155	0.100740	1.000000	0.000041	0.000032	0.000039	-27.867452	-84.709857	27.996464
39956	9.856166	-0.397070	0.764631	0.041952	0.029575	0.080931	1.000000	0.000032	0.000024	0.000032	-27.877915	-84.707315	28.011123
39957	9.873687	-0.395023	0.794728	0.013873	0.032936	0.100741	1.000000	0.000032	0.000024	0.000032	-27.894840	-84.703203	28.031864
39958	9.877858	-0.405923	0.773495	0.035615	0.022584	0.103631	1.000000	0.000032	0.000026	0.000039	-27.911630	-84.700985	28.052335
39959	9.850112	-0.430086	0.752184	0.055145	-0.002000	0.075306	1.000000	0.000038	0.000017	0.000042	-27.943032	-84.697038	28.088213
39960	9.899543	-0.414869	0.782363	0.029179	0.015577	0.126330	1.000000	0.000036	0.000037	0.000021	-27.935381	-84.695142	28.084386
39961	9.851599	-0.389815	0.789018	0.019147	0.038994	0.078047	1.000000	0.000040	0.000023	0.000033	-27.953528	-84.691089	28.107211
39962	9.873356	-0.398132	0.797287	0.012621	0.031918	0.100746	1.000000	0.000045	0.000016	0.000043	-27.979582	-84.690858	28.138755
39963	9.841366	-0.411940	0.797777	0.010088	0.017381	0.069531	1.000000	0.000027	0.000033	0.000029	-27.989328	-84.686016	28.151591
39964	9.899270	-0.417315	0.784511	0.028221	0.014731	0.126334	1.000000	0.000032	0.000026	0.000039	-28.001450	-84.684790	28.166154
39965	9.899193	-0.418032	0.785110	0.028220	0.014732	0.126334	1.000000	0.000041	0.000032	0.000039	-28.020965	-84.679469	28.190432
39966	9.858706	-0.411278	0.829218	-0.019043	0.019827	0.089337	1.000000	0.000042	0.000030	0.000032	-28.025672	-84.679110	28.199542
39967	9.855422	-0.403866	0.770637	0.039646	0.027645	0.080946	1.000000	0.000042	0.000028	0.000024	-28.030605	-84.674956	28.209321
39968	9.894744	-0.409390	0.808576	0.004923	0.023812	0.123446	1.000000	0.000038	0.000015	0.000034	-28.045070	-84.676093	28.228058
39969	9.866981	-0.433611	0.787359	0.024457	-0.000766	0.095121	1.000000	0.000032	0.000036	0.000053	-28.077969	-84.669570	28.264727
39970	9.872785	-0.403368	0.801711	0.010426	0.030007	0.100754	1.000000	0.000037	0.000008	0.000035	-28.095616	-84.670850	28.286922
39971	9.855153	-0.406653	0.772609	0.038506	0.026651	0.080954	1.000000	0.000035	0.000040	0.000037	-28.107988	-84.664807	28.303329
39972	9.894445	-0.412293	0.810747	0.003509	0.022760	0.123449	1.000000	0.000040	0.000023	0.000033	-28.121840	-84.666816	28.321336
39973	9.872571	-0.405299	0.803377	0.009522	0.029454	0.100757	1.000000	0.000032	0.000026	0.000039	-28.146175	-84.662170	28.349353
39974	9.840570	-0.419081	0.803860	0.006169	0.014335	0.069539	1.000000	0.000040	0.000023	0.000033	-28.156497	-84.664011	28.363722
39975	9.882564	-0.385826	0.796534	0.017212	0.050084	0.109288	1.000000	0.000032	0.000026	0.000039	-28.181063	-84.659403	28.391947
39976	9.862230	-0.428102	0.812779	-0.000719	0.007022	0.092231	1.000000	0.000032	0.000026	0.000039	-28.195835	-84.660713	28.411006
39977	9.872282	-0.407950	0.805576	0.007799	0.028244	0.100762	1.000000	0.000043	0.000038	0.000030	-28.202740	-84.655409	28.422831
39978	9.876464	-0.418729	0.784396	0.029019	0.017562	0.103663	1.000000	0.000032	0.000015	0.000025	-28.208377	-84.658599	28.431958
39979	9.828553	-0.393715	0.790831	0.018986	0.041005	0.055384	1.000000	0.000049	0.000031	0.000040	-28.229931	-84.653492	28.459080
39980	9.861941	-0.430350	0.815095	-0.001946	0.005753	0.092232	1.000000	0.000035	0.000030	0.000023	-28.207774	-84.652681	28.441505
39981	9.872010	-0.410142	0.807798	0.006565	0.026974	0.100766	1.000000	0.000039	0.000024	0.000040	-28.233809	-84.648182	28.472080
39982	9.864530	-0.392750	0.770832	0.042691	0.044182	0.089515	1.000000	0.000039	0.000024	0.000040	-28.238022	-84.647932	28.478486
39983	9.886257	-0.401137	0.779248	0.036629	0.037487	0.112204	1.000000	0.000032	0.000026	0.000039	-28.262732	-84.643360	28.506817
39984	9.876040	-0.422724	0.787579	0.027189	0.015581	0.103671	1.000000	0.000037	0.000019	0.000049	-28.289983	-84.645284	28.538758
39985	9.864316	-0.395021	0.772404	0.041731	0.043501	0.089522	1.000000	0.000043	0.000038	0.000030	-28.297141	-84.640029	28.550789
39986	9.865747	-0.444699	0.796584	0.017886	-0.006337	0.095133	1.000000	0.000032	0.000015	0.000025	-28.295372	-84.642799	28.552658
39987	9.849806	-0.406415	0.802911	0.010365	0.031635	0.078086	1.000000	0.000048	0.000020	0.000027	-28.308409	-84.639558	28.571158
39988	9.885938	-0.404217	0.781696	0.034270	0.035419	0.112220	1.000000	0.000039	0.000024	0.000040	-28.315982	-84.640132	28.581583
39989	9.871462	-0.415401	0.811798	0.003626	0.024259	0.100775	1.000000	0.000039	0.000024	0.000040	-28.342279	-84.635676	28.612338
39990	9.859755	-0.387706	0.796544	0.017434	0.051479	0.086637	1.000000	0.000032	0.000026	0.000039	-28.351151	-84.636851	28.620244
39991	9.863945	-0.398689	0.775260	0.039448	0.041432	0.089540	1.000000	0.000038	0.000015	0.000034	-28.376206	-84.633656	28.649564
39992	9.879761	-0.438002	0.769827	0.046390	0.002732	0.106587	1.000000	0.000027	0.000033	0.000029	-28.361541	-84.633484	28.636932
39993	9.863825	-0.399848	0.776183	0.038877	0.040711	0.089546	1.000000	0.000037	0.000008	0.000035	-28.392387	-84.630954	28.671867
39994	9.885550	-0.408088	0.784593	0.032962	0.033283	0.112232	1.000000	0.000028	0.000040	0.000028	-28.352344	-84.626694	28.635655
39995	9.875315	-0.429400	0.793044	0.024390	0.012076	0.103683	1.000000	0.000038	0.000015	0.000034	-28.376833	-84.623420	28.664428
39996	9.863643	-0.401586	0.777596	0.038523	0.039301	0.089553	1.000000	0.000031	0.000017	0.000033	-28.374439	-84.624159	28.666717
39997	9.875196	-0.430586	0.793880	0.023914	0.011385	0.103685	1.000000	0.000042	0.000030	0.000032	-28.386964	-84.619503	28.683884
39998	9.863519	-0.402744	0.778575	0.038361	0.038622	0.089556	1.000000	0.000031	0.000017	0.000033	-28.376420	-84.618605	28.668812
39999	9.895412	-0.390331	0.779055	0.040851	0.053129	0.120790	1.000000	0.000032	0.000026	0.000039	-28.400509	-84.613924	28.696354
40000	9.857454	-0.435179	0.765871	0.050925	0.006678	0.083913	1.000000	0.000035	0.000040	0.000037	-28.403452	-84.614490	28.696126
40001	9.863309	-0.404768	0.780184	0.037406	0.037956	0.089562	1.000000	0.000052	0.000005	0.000038	-28.435946	-84.611913	28.734324
40002	9.863247	-0.405354	0.780664	0.035971	0.037324	0.089570	1.000000	0.000028	0.000040	0.000028	-28.448093	-84.615483	28.747856
40003	9.874787	-0.434352	0.796909	0.021343	0.009414	0.103693	1.000000	0.000028	0.000002	0.000035	-28.483200	-84.613484	28.785823
40004	9.873315	-0.385963	0.773515	0.044012	0.057870	0.098133	1.000000	0.000039	0.000026	0.000048	-28.492969	-84.612517	28.797739
40005	9.852873	-0.428166	0.789874	0.026891	0.015467	0.081016	1.000000	0.000042	0.000030	0.000032	-28.505763	-84.607855	28.814911
40006	9.884754	-0.415649	0.790620	0.028829	0.029281	0.112257	1.000000	0.000043	0.000038	0.000030	-28.491194	-84.607113	28.804423
40007	9.888942	-0.426575	0.769467	0.050860	0.019227	0.115166	1.000000	0.000046	0.000014	0.000035	-28.516837	-84.603840	28.834989
40008	9.884633	-0.416836	0.791510	0.026841	0.028730	0.112264	1.000000	0.000023	0.000018	0.000032	-28.566573	-84.611936	28.882845
40009	9.858546	-0.399405	0.805682	0.010807	0.045523	0.086675	1.000000	0.000055	0.000020	0.000035	-28.588353	-84.608147	28.910510
40010	9.856784	-0.441644	0.770774	0.044620	0.003605	0.083945	1.000000	0.000032	0.000036	0.000053	-28.641305	-84.612079	28.961144
40011	9.894610	-0.398227	0.785220	0.033545	0.049379	0.120837	1.000000	0.000041	0.000021	0.000025	-28.653964	-84.608837	28.977896
40012	9.866838	-0.422216	0.763961	0.052447	0.024190	0.092516	1.000000	0.000039	0.000024	0.000040	-28.664281	-84.609294	28.990280
40013	9.858256	-0.402155	0.807857	0.008289	0.044345	0.086683	1.000000	0.000033	0.000024	0.000032	-28.682896	-84.605416	29.012031
40014	9.884219	-0.420786	0.794588	0.023060	0.026936	0.112279	1.000000	0.000048	0.000021	0.000034	-28.703923	-84.609279	29.046521
40015	9.862373	-0.413814	0.787241	0.029057	0.033668	0.089606	1.000000	0.000025	0.000036	0.000044	-28.729860	-84.603556	29.074869
40016	9.844792	-0.417211	0.758136	0.056253	0.029705	0.069859	1.000000	0.000038	0.000015	0.000034	-28.747856	-84.606541	29.092738
40017	9.884008	-0.422825	0.796130	0.021988	0.026350	0.112283	1.000000	0.000040	0.000023	0.000033	-28.767948	-84.602774	29.116882
40018	9.872398	-0.395027	0.780614	0.035756	0.053674	0.098190	1.000000	0.000037	0.000008	0.000035	-28.790660	-84.606026	29.139879
40019	9.872341	-0.395621	0.781030	0.035681	0.053689	0.098190	1.000000	0.000034	0.000031	0.000030	-28.803686	-84.601540	29.156205
40020	9.857803	-0.406534	0.811183	0.003129	0.041985	0.086696	1.000000	0.000040	0.000023	0.000033	-28.849118	-84.609051	29.209434
40021	9.872208	-0.396848	0.782090	0.033626	0.053130	0.098200	1.000000	0.000039	0.000024	0.000040	-28.877029	-84.604809	29.241324
40022	9.861917	-0.418288	0.790582	0.024364	0.031277	0.089626	1.000000	0.000041	0.000032	0.000039	-28.881797	-84.604915	29.251413
40023	9.883597	-0.426526	0.799243	0.018185	0.024569	0.112295	1.000000	0.000044	0.000036	0.000023	-28.883664	-84.600519	29.257698
40024	9.861764	-0.419559	0.791809	0.022760	0.030724	0.089632	1.000000	0.000027	0.000014	0.000057	-28.948128	-84.605212	29.318137
40025	9.879195	-0.417707	0.821845	-0.005481	0.034091	0.109369	1.000000	0.000040	0.000023	0.000033	-28.969360	-84.601622	29.343321
40026	9.876117	-0.410552	0.763159	0.052371	0.041298	0.101152	1.000000	0.000035	0.000030	0.000023	-28.969166	-84.603396	29.333508
40027	9.839822	-0.413616	0.785234	0.027753	0.036925	0.066970	1.000000	0.000047	0.000012	0.000028	-28.990744	-84.601130	29.359657
40028	9.871750	-0.401130	0.785678	0.029730	0.050781	0.098225	1.000000	0.000033	0.000024	0.000032	-28.988200	-84.601158	29.357098
40029	9.871688	-0.401709	0.786168	0.029619	0.050802	0.098225	1.000000	0.000040	0.000023	0.000033	-29.009600	-84.597559	29.382286
40030	9.871625	-0.402289	0.786658	0.029531	0.050221	0.098228	1.000000	0.000033	0.000024	0.000032	-28.997755	-84.595482	29.354259
40031	9.891605	-0.452129	0.759707	0.058851	0.002150	0.118171	1.000000	0.000032	0.000026	0.000039	-29.024818	-84.591171	29.384006
40032	9.861252	-0.424281	0.795671	0.019073	0.028654	0.089646	1.000000	0.000042	0.000030	0.000032	-29.069975	-84.596697	29.414825
40033	9.865436	-0.435302	0.774652	0.040989	0.018585	0.092583	1.000000	0.000034	0.000033	0.000038	-29.091799	-84.591781	29.439300
40034	9.893095	-0.412577	0.796818	0.019766	0.042722	0.120905	1.000000	0.000037	0.000008	0.000035	-29.148620	-84.598623	29.489954
40035	9.839295	-0.418534	0.789217	0.023280	0.035011	0.066988	1.000000	0.000034	0.000033	0.000038	-29.170956	-84.593771	29.514837
40036	9.875475	-0.416575	0.768194	0.045927	0.038957	0.101193	1.000000	0.000033	0.000024	0.000032	-29.221105	-84.600169	29.564430
40037	9.892899	-0.414468	0.798272	0.017635	0.042372	0.120910	1.000000	0.000031	0.000017	0.000033	-29.248912	-84.597338	29.594435
40038	9.852324	-0.407164	0.841953	-0.030350	0.047659	0.083764	1.000000	0.000041	0.000021	0.000025	-29.279073	-84.602624	29.625215
40039	9.849290	-0.400237	0.783142	0.028228	0.055385	0.075596	1.000000	0.000029	0.000020	0.000048	-29.321426	-84.598663	29.669627
40040	9.849218	-0.400883	0.783712	0.027161	0.054861	0.075602	1.000000	0.000052	0.000035	0.000024	-29.325274	-84.600777	29.676813
40041	9.866618	-0.398726	0.814066	-0.001155	0.058281	0.095311	1.000000	0.000034	0.000033	0.000038	-29.348818	-84.596108	29.702790
40042	9.875078	-0.420273	0.771267	0.041109	0.037589	0.101220	1.000000	0.000030	0.000018	0.000040	-29.407037	-84.602432	29.763189
40043	9.860500	-0.431143	0.801276	0.010327	0.026552	0.089665	1.000000	0.000041	0.000021	0.000025	-29.424222	-84.599755	29.783604
40044	9.885222	-0.400698	0.764158	0.048909	0.058258	0.109828	1.000000	0.000031	0.000017	0.000033	-29.434709	-84.600743	29.793416
40045	9.866363	-0.401199	0.815930	-0.003899	0.057338	0.095316	1.000000	0.000034	0.000033	0.000038	-29.458831	-84.596164	29.819915
40046	9.838556	-0.425310	0.794790	0.015096	0.032205	0.067014	1.000000	0.000047	0.000023	0.000042	-29.471521	-84.596093	29.838086
40047	9.880737	-0.392460	0.787465	0.025915	0.067872	0.106880	1.000000	0.000024	0.000029	0.000045	-29.507426	-84.591543	29.875265
40048	9.828144	-0.447434	0.803787	0.005153	0.010580	0.058410	1.000000	0.000033	0.000022	0.000024	-29.526621	-84.595331	29.886897
40049	9.874618	-0.424728	0.774719	0.037988	0.036127	0.101238	1.000000	0.000055	0.000020	0.000036	-29.553813	-84.592210	29.918894
40050	9.855750	-0.425223	0.826404	-0.015693	0.034707	0.086713	1.000000	0.000015	0.000021	0.000038	-29.586851	-84.594781	29.947656
40051	9.870221	-0.415535	0.797322	0.014695	0.045799	0.098283	1.000000	0.000043	0.000028	0.000024	-29.598729	-84.591521	29.962755
40052	9.870157	-0.416121	0.797803	0.013112	0.045472	0.098287	1.000000	0.000038	0.000017	0.000042	-29.660741	-84.596458	30.007557
40053	9.880365	-0.396112	0.790301	0.021475	0.066685	0.106899	1.000000	0.000033	0.000024	0.000032	-29.684960	-84.593264	30.033720
40054	9.870025	-0.417443	0.798745	0.012224	0.045024	0.098290	1.000000	0.000039	0.000024	0.000040	-29.703326	-84.593330	30.048162
40055	9.852486	-0.420870	0.769681	0.040161	0.041656	0.078606	1.000000	0.000034	0.000033	0.000038	-29.728649	-84.588881	30.075484
40056	9.833591	-0.421483	0.821448	-0.014303	0.040408	0.064058	1.000000	0.000052	0.000016	0.000052	-29.806989	-84.594754	30.150083
40057	9.884352	-0.409414	0.770763	0.040499	0.055788	0.109880	1.000000	0.000035	0.000030	0.000023	-29.818919	-84.591586	30.164022
40058	9.901744	-0.407176	0.800995	0.010923	0.058788	0.129563	1.000000	0.000025	0.000025	0.000030	-29.854787	-84.595676	30.195572
40059	9.884224	-0.410459	0.771841	0.038837	0.055415	0.109889	1.000000	0.000033	0.000024	0.000032	-29.880143	-84.592622	30.222661
40060	9.847873	-0.413511	0.793990	0.014050	0.050649	0.075652	1.000000	0.000034	0.000031	0.000030	-29.875864	-84.590921	30.205084
40061	9.879809	-0.401117	0.794712	0.016234	0.065139	0.106919	1.000000	0.000034	0.000031	0.000030	-29.895222	-84.587187	30.226228
40062	9.862295	-0.404319	0.765602	0.043226	0.061312	0.087254	1.000000	0.000033	0.000022	0.000024	-29.920026	-84.590721	30.237419
40063	9.847675	-0.415141	0.795591	0.012366	0.050361	0.075656	1.000000	0.000053	0.000014	0.000044	-29.962574	-84.587885	30.283892
40064	9.905619	-0.421153	0.782478	0.028476	0.047600	0.132555	1.000000	0.000032	0.000026	0.000039	-30.035032	-84.594869	30.353245
40065	9.862106	-0.406247	0.767003	0.040546	0.061092	0.087267	1.000000	0.000035	0.000030	0.000023	-30.048440	-84.591863	30.368305
40066	9.851749	-0.427481	0.775452	0.030535	0.039535	0.078649	1.000000	0.000030	0.000018	0.000040	-30.099790	-84.595995	30.412312
40067	9.879421	-0.404745	0.797690	0.010678	0.064192	0.106933	1.000000	0.000034	0.000031	0.000030	-30.120544	-84.592432	30.434595
40068	9.857634	-0.397574	0.790224	0.015802	0.070507	0.084294	1.000000	0.000040	0.000023	0.000033	-30.149217	-84.594850	30.452995
40069	9.868989	-0.426547	0.806698	0.000709	0.042694	0.098308	1.000000	0.000033	0.000024	0.000032	-30.176309	-84.591969	30.481352
40070	9.879227	-0.406559	0.799180	0.008312	0.063415	0.106940	1.000000	0.000038	0.000017	0.000042	-30.214811	-84.594251	30.510270
40071	9.861724	-0.409873	0.769988	0.036190	0.060011	0.087291	1.000000	0.000043	0.000028	0.000024	-30.230376	-84.591387	30.528126
40072	9.864512	-0.417895	0.829819	-0.024267	0.052116	0.095316	1.000000	0.000032	0.000026	0.000039	-30.284170	-84.596157	30.579705
40073	9.883303	-0.418835	0.779098	0.028009	0.052958	0.109939	1.000000	0.000040	0.000023	0.000033	-30.313195	-84.593406	30.610767
40074	9.861518	-0.411750	0.771622	0.033295	0.059231	0.087305	1.000000	0.000049	0.000031	0.000041	-30.337073	-84.593933	30.630878
40075	9.868574	-0.430323	0.809764	-0.003830	0.041617	0.098312	1.000000	0.000023	0.000018	0.000032	-30.369798	-84.591758	30.663653
40076	9.878821	-0.410329	0.802258	0.003187	0.062345	0.106950	1.000000	0.000032	0.000026	0.000039	-30.420057	-84.596229	30.714790
40077	9.871626	-0.393131	0.765219	0.039664	0.080078	0.095952	1.000000	0.000041	0.000032	0.000039	-30.450477	-84.592290	30.747290
40078	9.904643	-0.430046	0.789962	0.017279	0.045141	0.132592	1.000000	0.000033	0.000035	0.000045	-30.497183	-84.594047	30.782381
40079	9.861158	-0.415299	0.774318	0.029358	0.058635	0.087321	1.000000	0.000037	0.000008	0.000036	-30.539382	-84.592719	30.826101
40080	9.842211	-0.415725	0.825981	-0.022965	0.057320	0.072675	1.000000	0.000040	0.000034	0.000047	-30.524558	-84.587109	30.801749
40081	9.878431	-0.414092	0.805128	0.001099	0.061606	0.106955	1.000000	0.000034	0.000033	0.000038	-30.553712	-84.583110	30.831962
40082	9.842044	-0.417120	0.827267	-0.024166	0.056901	0.072674	1.000000	0.000025	0.000025	0.000030	-30.568868	-84.584672	30.844580
40083	9.865144	-0.428599	0.754929	0.050053	0.047482	0.090338	1.000000	0.000047	0.000023	0.000042	-30.606791	-84.581441	30.885142
40084	9.856510	-0.408274	0.798744	0.005600	0.067407	0.084327	1.000000	0.000042	0.000030	0.000032	-30.607006	-84.580649	30.880708
40085	9.866767	-0.388195	0.791403	0.013904	0.088607	0.092971	1.000000	0.000042	0.000030	0.000032	-30.630635	-84.577323	30.906283
40086	9.886628	-0.438132	0.764815	0.042875	0.039767	0.112981	1.000000	0.000042	0.000030	0.000032	-30.614052	-84.574720	30.891176
40087	9.856288	-0.410026	0.800580	0.004824	0.066974	0.084330	1.000000	0.000032	0.000026	0.000039	-30.649207	-84.571370	30.927173
40088	9.875128	-0.411143	0.749753	0.056846	0.067214	0.099001	1.000000	0.000028	0.000011	0.000042	-30.676502	-84.572023	30.950457
40089	9.882138	-0.429687	0.787920	0.019675	0.049649	0.109976	1.000000	0.000044	0.000038	0.000030	-30.693921	-84.568029	30.969929
40090	9.866423	-0.391356	0.794129	0.012424	0.087163	0.092986	1.000000	0.000040	0.000023	0.000033	-30.685388	-84.566254	30.966212
40091	9.860307	-0.422993	0.780958	0.025415	0.055878	0.087348	1.000000	0.000033	0.000022	0.000024	-30.706750	-84.564115	30.988456
40092	9.881943	-0.431257	0.789504	0.018151	0.048745	0.109984	1.000000	0.000040	0.000023	0.000033	-30.733702	-84.566380	31.009868
40093	9.887934	-0.400689	0.803710	0.004497	0.080164	0.115620	1.000000	0.000034	0.000031	0.000030	-30.756007	-84.563000	31.033124
40094	9.866172	-0.393584	0.796144	0.009084	0.086455	0.092995	1.000000	0.000038	0.000017	0.000042	-30.814534	-84.568350	31.095428
40095	9.860052	-0.425409	0.782858	0.022050	0.055167	0.087360	1.000000	0.000038	0.000015	0.000034	-30.850710	-84.566375	31.133091
40096	9.887756	-0.402554	0.804970	0.000538	0.079367	0.115628	1.000000	0.000033	0.000022	0.000024	-30.897284	-84.573815	31.186665
40097	9.859939	-0.426432	0.783734	0.019732	0.054796	0.087367	1.000000	0.000040	0.000023	0.000033	-30.927784	-84.571260	31.218839
40098	9.870220	-0.406468	0.776316	0.027421	0.075545	0.096029	1.000000	0.000049	0.000031	0.000041	-30.957423	-84.571858	31.232590
40099	9.865857	-0.396672	0.798515	0.005096	0.085848	0.093003	1.000000	0.000032	0.000026	0.000039	-30.993632	-84.568652	31.269453
40100	9.874363	-0.418371	0.755803	0.048886	0.064834	0.099059	1.000000	0.000040	0.000023	0.000033	-30.985584	-84.566733	31.252832
40101	9.865727	-0.397912	0.799502	0.004614	0.085385	0.093008	1.000000	0.000040	0.000023	0.000033	-31.016104	-84.564166	31.284905
40102	9.876995	-0.426886	0.815991	-0.011288	0.057214	0.106975	1.000000	0.000031	0.000017	0.000033	-31.050751	-84.566618	31.303698
40103	9.869894	-0.409701	0.778745	0.025216	0.074862	0.096040	1.000000	0.000039	0.000024	0.000041	-31.088308	-84.563449	31.342652
40104	9.855168	-0.420334	0.808977	-0.007019	0.063650	0.084351	1.000000	0.000037	0.000037	0.000021	-31.117467	-84.567730	31.359466
40105	9.884418	-0.400696	0.750246	0.053837	0.085432	0.107744	1.000000	0.000052	0.000005	0.000038	-31.163505	-84.566610	31.408311
40106	9.865425	-0.400952	0.801710	0.000422	0.084414	0.093017	1.000000	0.000030	0.000018	0.000040	-31.196128	-84.567978	31.434373
40107	9.859269	-0.432728	0.788690	0.013307	0.053111	0.087387	1.000000	0.000036	0.000039	0.000029	-31.213755	-84.564141	31.452791
40108	9.886953	-0.409983	0.811052	-0.006296	0.077195	0.115643	1.000000	0.000039	0.000024	0.000041	-31.207551	-84.561424	31.449249
40109	9.847809	-0.405705	0.773780	0.027806	0.080421	0.073436	1.000000	0.000032	0.000026	0.000039	-31.244100	-84.558244	31.486203
40110	9.886805	-0.411354	0.812160	-0.006719	0.076653	0.115647	1.000000	0.000042	0.000030	0.000032	-31.222430	-84.555471	31.468394
40111	9.873648	-0.425184	0.761319	0.043058	0.062899	0.099099	1.000000	0.000047	0.000012	0.000028	-31.253966	-84.554250	31.502044
40112	9.890969	-0.423169	0.791462	0.013790	0.065833	0.118688	1.000000	0.000030	0.000029	0.000054	-31.288912	-84.555216	31.550553
40113	9.869203	-0.416155	0.784067	0.019683	0.072614	0.096069	1.000000	0.000028	0.000040	0.000028	-31.304872	-84.551327	31.566527
40114	9.880430	-0.445008	0.800740	0.003505	0.044376	0.110020	1.000000	0.000032	0.000015	0.000025	-31.336144	-84.555736	31.589002
40115	9.869084	-0.417151	0.785035	0.018076	0.072264	0.096075	1.000000	0.000040	0.000023	0.000033	-31.367246	-84.553258	31.621496
40116	9.886407	-0.414884	0.815214	-0.010971	0.075342	0.115653	1.000000	0.000033	0.000022	0.000024	-31.375881	-84.555203	31.631779
40117	9.847287	-0.410359	0.777957	0.023141	0.078563	0.073463	1.000000	0.000034	0.000031	0.000030	-31.399598	-84.552048	31.656164
40118	9.875875	-0.436592	0.824367	-0.020789	0.053761	0.106979	1.000000	0.000032	0.000026	0.000039	-31.415650	-84.552547	31.673866
40119	9.853245	-0.380573	0.792604	0.008752	0.109465	0.079099	1.000000	0.000023	0.000020	0.000039	-31.457161	-84.550026	31.714795
40120	9.868738	-0.420206	0.787749	0.015190	0.070928	0.096089	1.000000	0.000035	0.000041	0.000037	-31.459850	-84.547900	31.709091
40121	9.846992	-0.413145	0.780221	0.021088	0.077708	0.073474	1.000000	0.000045	0.000016	0.000043	-31.505261	-84.545510	31.756501
40122	9.878996	-0.401026	0.780750	0.022651	0.091642	0.104774	1.000000	0.000040	0.000023	0.000033	-31.523942	-84.546869	31.770999
40123	9.868529	-0.422269	0.789264	0.013567	0.070611	0.096094	1.000000	0.000032	0.000026	0.000039	-31.560649	-84.543755	31.808085
40124	9.864171	-0.412372	0.811285	-0.009175	0.080408	0.093046	1.000000	0.000038	0.000015	0.000034	-31.582610	-84.545729	31.830807
40125	9.878806	-0.403032	0.782117	0.021046	0.091287	0.104781	1.000000	0.000039	0.000024	0.000041	-31.620669	-84.542672	31.870109
40126	9.868339	-0.424203	0.790608	-0.001724	-0.012218	0.096347	1.000000	0.000041	0.000021	0.000025	-27.560944	-84.849512	27.600162
40127	9.889948	-0.432520	0.799128	-0.008606	-0.019723	0.118893	1.000000	0.000038	0.000015	0.000034	-27.565694	-84.850494	27.605127
40128	9.856967	-0.396946	0.775342	0.012274	0.014395	0.082673	1.000000	0.000042	0.000030	0.000032	-27.561821	-84.850528	27.589090
40129	9.868151	-0.425971	0.791993	-0.003382	-0.014095	0.096344	1.000000	0.000030	0.000018	0.000041	-27.572762	-84.850874	27.599318
40130	9.856838	-0.398174	0.776348	0.011218	0.013150	0.082676	1.000000	0.000035	0.000030	0.000023	-27.557920	-84.851055	27.584299
40131	9.874144	-0.395893	0.806533	-0.017544	0.016060	0.102219	1.000000	0.000038	0.000015	0.000034	-27.562674	-84.852037	27.589268
40132	9.878387	-0.407083	0.785299	0.003840	0.005008	0.105221	1.000000	0.000031	0.000017	0.000033	-27.565164	-84.852819	27.565973
40133	9.841958	-0.409865	0.807184	-0.020961	0.000708	0.070795	1.000000	0.000033	0.000024	0.000032	-27.562490	-84.853060	27.562809
40134	9.878260	-0.408231	0.786301	0.002567	0.003770	0.105222	1.000000	0.000034	0.000031	0.000030	-27.562073	-84.853739	27.552784
40135	9.860834	-0.411677	0.757095	0.030289	-0.000423	0.085686	1.000000	0.000038	0.000017	0.000042	-27.574418	-84.854143	27.565293
40136	9.873828	-0.398961	0.808883	-0.020395	0.012947	0.102218	1.000000	0.000042	0.000030	0.000032	-27.568584	-84.854062	27.552317
40137	9.878056	-0.410027	0.787931	0.000945	0.001873	0.105223	1.000000	0.000035	0.000030	0.000023	-27.552288	-84.854199	27.535755
40138	9.856340	-0.402816	0.780268	0.006842	0.008120	0.082685	1.000000	0.000045	0.000016	0.000043	-27.564999	-84.854495	27.553200
40139	9.873622	-0.400745	0.810519	-0.021925	0.011057	0.102217	1.000000	0.000018	0.000036	0.000035	-27.561075	-84.853358	27.547155
40140	9.877846	-0.411967	0.789550	-0.000656	-0.000008	0.105223	1.000000	0.000040	0.000023	0.000033	-27.562595	-84.853976	27.570679
40141	9.867347	-0.433186	0.798084	-0.009969	-0.021606	0.096326	1.000000	0.000032	0.000026	0.000039	-27.567507	-84.853639	27.575051
40142	9.851760	-0.394875	0.803985	-0.017319	0.016069	0.079681	1.000000	0.000040	0.000023	0.000033	-27.571071	-84.854711	27.562979
40143	9.870733	-0.396187	0.753256	0.034675	0.015498	0.094598	1.000000	0.000030	0.000018	0.000041	-27.582024	-84.855055	27.573220
40144	9.877579	-0.414606	0.791512	-0.002888	-0.002509	0.105222	1.000000	0.000042	0.000030	0.000032	-27.575524	-84.854581	27.573699
40145	9.877510	-0.415179	0.792068	-0.003410	-0.003139	0.105222	1.000000	0.000040	0.000023	0.000033	-27.574255	-84.854880	27.572818
40146	9.877448	-0.415864	0.792485	-0.003872	-0.003783	0.105222	1.000000	0.000045	0.000016	0.000043	-27.585458	-84.855070	27.581464
40147	9.860036	-0.419329	0.763262	0.023859	-0.007985	0.085700	1.000000	0.000034	0.000031	0.000030	-27.576744	-84.854629	27.572434
40148	9.873009	-0.406481	0.815113	-0.026679	0.005407	0.102211	1.000000	0.000040	0.000023	0.000033	-27.571811	-84.854519	27.549116
40149	9.872950	-0.407082	0.815521	-0.027200	0.004778	0.102209	1.000000	0.000038	0.000015	0.000034	-27.576586	-84.855500	27.554106
40150	9.891933	-0.408417	0.764874	0.024905	0.004166	0.117143	1.000000	0.000034	0.000033	0.000038	-27.571822	-84.853873	27.572032
40151	9.872801	-0.408354	0.816694	-0.028125	0.003509	0.102207	1.000000	0.000034	0.000031	0.000030	-27.563111	-84.853432	27.563006
40152	9.859692	-0.422330	0.766049	0.021396	-0.011154	0.085703	1.000000	0.000042	0.000030	0.000032	-27.558079	-84.853370	27.558780
40153	9.872656	-0.409475	0.817889	-0.029233	0.002257	0.102205	1.000000	0.000040	0.000023	0.000033	-27.556813	-84.853669	27.557903
40154	9.876887	-0.420932	0.796783	-0.007889	-0.008845	0.105216	1.000000	0.000044	0.000019	0.000058	-27.584830	-84.852882	27.570582
40155	9.855172	-0.413840	0.789200	-0.001997	-0.002581	0.082690	1.000000	0.000037	0.000037	0.000021	-27.562502	-84.852338	27.548164
40156	9.887197	-0.401582	0.789966	-0.000046	0.010832	0.114138	1.000000	0.000033	0.000024	0.000032	-27.557373	-84.852237	27.540371
40157	9.882818	-0.391505	0.812158	-0.022410	0.020684	0.111124	1.000000	0.000044	0.000038	0.000030	-27.544034	-84.851173	27.527769
40158	9.859259	-0.426049	0.769547	0.018349	-0.014962	0.085704	1.000000	0.000040	0.000023	0.000033	-27.542657	-84.851494	27.530630
40159	9.850575	-0.405595	0.813127	-0.025854	0.005377	0.079674	1.000000	0.000021	0.000023	0.000054	-27.567351	-84.850620	27.553633
40160	9.876444	-0.424778	0.800229	-0.010890	-0.012644	0.105209	1.000000	0.000033	0.000022	0.000024	-27.554605	-84.851109	27.538455
40161	9.886843	-0.404815	0.792741	-0.002589	0.007664	0.114140	1.000000	0.000049	0.000031	0.000041	-27.556289	-84.850208	27.541528
40162	9.876300	-0.426007	0.801351	-0.011893	-0.013911	0.105206	1.000000	0.000040	0.000023	0.000033	-27.553547	-84.850309	27.546502
40163	9.854606	-0.418772	0.793648	-0.005989	-0.007638	0.082686	1.000000	0.000040	0.000023	0.000033	-27.552289	-84.850607	27.545633
40164	9.850230	-0.408790	0.815692	-0.028336	0.002232	0.079668	1.000000	0.000039	0.000024	0.000041	-27.558656	-84.850256	27.552235
40165	9.886568	-0.407464	0.794803	-0.004626	0.005140	0.114141	1.000000	0.000039	0.000024	0.000041	-27.564972	-84.849975	27.558890
40166	9.854396	-0.420742	0.795218	-0.007458	-0.009510	0.082683	1.000000	0.000043	0.000028	0.000024	-27.548004	-84.849717	27.537181
40167	9.869115	-0.411354	0.766227	0.022683	0.000291	0.094644	1.000000	0.000050	0.000029	0.000033	-27.542119	-84.849393	27.532738
40168	9.849943	-0.411227	0.817935	-0.030294	-0.000264	0.079662	1.000000	0.000032	0.000026	0.000039	-27.546257	-84.848836	27.544693
40169	9.860347	-0.391408	0.810489	-0.021986	0.020039	0.088608	1.000000	0.000034	0.000033	0.000038	-27.545129	-84.847814	27.543201
40170	9.875719	-0.431041	0.805804	-0.015951	-0.018928	0.105192	1.000000	0.000025	0.000025	0.000030	-27.541577	-84.848039	27.542207
40171	9.842904	-0.395535	0.781719	0.005234	0.015193	0.069116	1.000000	0.000036	0.000010	0.000043	-27.559970	-84.849119	27.560591
40172	9.868779	-0.414716	0.768733	0.020056	-0.002839	0.094650	1.000000	0.000040	0.000023	0.000033	-27.560811	-84.849642	27.571606
40173	9.860086	-0.394038	0.812389	-0.024128	0.017535	0.088607	1.000000	0.000034	0.000033	0.000038	-27.559680	-84.848621	27.570112
40174	9.890243	-0.423895	0.778195	0.012603	-0.011018	0.117161	1.000000	0.000041	0.000032	0.000039	-27.559006	-84.847478	27.565567
40175	9.885858	-0.413799	0.800352	-0.009749	-0.001142	0.114139	1.000000	0.000050	0.000027	0.000025	-27.545565	-84.847734	27.553618
40176	9.875291	-0.434792	0.809036	-0.019010	-0.022696	0.105179	1.000000	0.000027	0.000033	0.000029	-27.532601	-84.846749	27.538394
40177	9.868406	-0.417901	0.771795	0.017577	-0.006000	0.094653	1.000000	0.000029	0.000022	0.000056	-27.558676	-84.845931	27.563656
40178	9.853520	-0.428484	0.801905	-0.013581	-0.017029	0.082667	1.000000	0.000050	0.000027	0.000025	-27.544912	-84.846035	27.551870
40179	9.863964	-0.408580	0.794241	-0.005266	0.003261	0.091630	1.000000	0.000036	0.000010	0.000043	-27.563307	-84.847115	27.570256
40180	9.874401	-0.388815	0.786628	0.003115	0.023550	0.100596	1.000000	0.000034	0.000033	0.000038	-27.560724	-84.845808	27.546008
40181	9.868131	-0.420627	0.773820	0.015566	-0.008522	0.094654	1.000000	0.000042	0.000030	0.000032	-27.553445	-84.845425	27.539294
40182	9.874262	-0.390024	0.787773	0.002050	0.022292	0.100599	1.000000	0.000031	0.000017	0.000033	-27.557576	-84.846430	27.559096
40183	9.878509	-0.401352	0.766765	0.023350	0.011136	0.103627	1.000000	0.000034	0.000033	0.000038	-27.556446	-84.845408	27.557603
40184	9.853094	-0.432310	0.805082	-0.016614	-0.020801	0.082655	1.000000	0.000042	0.000030	0.000032	-27.546994	-84.844725	27.558936
40185	9.885135	-0.420371	0.805829	-0.014756	-0.007443	0.114130	1.000000	0.000039	0.000026	0.000048	-27.560875	-84.843863	27.573106
40186	9.863467	-0.413309	0.797953	-0.008764	-0.001145	0.091628	1.000000	0.000052	0.000005	0.000038	-27.573224	-84.845368	27.591214
40187	9.852891	-0.434411	0.806434	-0.018128	-0.022684	0.082648	1.000000	0.000027	0.000033	0.000029	-27.563116	-84.844866	27.579918
40188	9.847934	-0.375509	0.804173	-0.016333	0.035968	0.075080	1.000000	0.000040	0.000025	0.000041	-27.570326	-84.844692	27.583107
40189	9.873783	-0.394777	0.791406	-0.001504	0.017878	0.100608	1.000000	0.000032	0.000026	0.000039	-27.575231	-84.844350	27.587475
40190	9.884795	-0.423777	0.808222	-0.017280	-0.010591	0.114123	1.000000	0.000040	0.000023	0.000033	-27.572035	-84.844334	27.587439
40191	9.847735	-0.377470	0.805689	-0.017825	0.034081	0.075084	1.000000	0.000033	0.000024	0.000032	-27.569383	-84.844571	27.584302
40192	9.863057	-0.416977	0.801112	-0.011804	-0.004925	0.091623	1.000000	0.000037	0.000037	0.000021	-27.545284	-84.843794	27.554213
40193	9.873515	-0.397042	0.793610	-0.003473	0.015347	0.100612	1.000000	0.000030	0.000018	0.000041	-27.556227	-84.844131	27.564445
40194	9.862921	-0.418108	0.802189	-0.012893	-0.006183	0.091621	1.000000	0.000035	0.000030	0.000023	-27.541314	-84.844502	27.545838
40195	9.894976	-0.406027	0.802981	-0.011038	0.007152	0.123108	1.000000	0.000049	0.000031	0.000041	-27.543022	-84.843598	27.548939
40196	9.841171	-0.411535	0.795166	-0.007408	-0.000511	0.069126	1.000000	0.000032	0.000026	0.000039	-27.546317	-84.843029	27.558257
40197	9.873229	-0.399541	0.795911	-0.005554	0.012821	0.100615	1.000000	0.000042	0.000030	0.000032	-27.539051	-84.842645	27.551558
40198	9.866933	-0.431370	0.783129	0.006896	-0.019256	0.094649	1.000000	0.000041	0.000032	0.000039	-27.538721	-84.841621	27.572963
40199	9.877403	-0.411460	0.775603	0.015224	0.001011	0.103649	1.000000	0.000041	0.000021	0.000025	-27.529935	-84.842496	27.564620
40200	9.868698	-0.390535	0.819159	-0.028819	0.021461	0.097583	1.000000	0.000042	0.000030	0.000032	-27.519309	-84.841636	27.554435
40201	9.877273	-0.412618	0.776652	0.014278	-0.000262	0.103650	1.000000	0.000030	0.000018	0.000041	-27.530248	-84.841973	27.564663
40202	9.872888	-0.402477	0.798660	-0.008054	0.009651	0.100617	1.000000	0.000035	0.000030	0.000023	-27.513944	-84.842134	27.551925
40203	9.845014	-0.426329	0.777451	0.010868	-0.015477	0.072156	1.000000	0.000046	0.000014	0.000036	-27.520169	-84.843170	27.559244
40204	9.872767	-0.403667	0.799550	-0.009084	0.008386	0.100617	1.000000	0.000032	0.000026	0.000039	-27.524560	-84.842773	27.570779
40205	9.872699	-0.404323	0.800059	-0.009605	0.007756	0.100617	1.000000	0.000040	0.000023	0.000033	-27.523333	-84.843068	27.569945
40206	9.840492	-0.417600	0.800389	-0.012495	-0.006820	0.069118	1.000000	0.000040	0.000025	0.000041	-27.529744	-84.842838	27.577690
40207	9.876886	-0.416376	0.779556	0.011150	-0.004062	0.103653	1.000000	0.000040	0.000023	0.000033	-27.528519	-84.843133	27.576858
40208	9.861939	-0.426778	0.809659	-0.020011	-0.015030	0.091600	1.000000	0.000032	0.000026	0.000039	-27.532564	-84.842693	27.579338
40209	9.855155	-0.409798	0.772458	0.016626	0.001621	0.081171	1.000000	0.000044	0.000038	0.000030	-27.519271	-84.841627	27.566789
40210	9.883366	-0.435825	0.819214	-0.027556	-0.023239	0.114078	1.000000	0.000040	0.000023	0.000033	-27.517871	-84.841916	27.559128
40211	9.876607	-0.418730	0.781830	0.009086	-0.006597	0.103654	1.000000	0.000033	0.000022	0.000024	-27.507667	-84.842731	27.548492
40212	9.861666	-0.428990	0.811815	-0.022098	-0.017546	0.091592	1.000000	0.000046	0.000014	0.000036	-27.513942	-84.843768	27.559488
40213	9.850590	-0.401266	0.795845	-0.007250	0.009661	0.078135	1.000000	0.000040	0.000023	0.000033	-27.512719	-84.844063	27.558658
40214	9.854843	-0.412735	0.774876	0.014080	-0.001533	0.081175	1.000000	0.000031	0.000028	0.000047	-27.523508	-84.842877	27.591045
40215	9.912817	-0.419469	0.762433	0.031205	-0.005762	0.138202	1.000000	0.000042	0.000030	0.000032	-27.516251	-84.842491	27.584357
40216	9.850367	-0.403350	0.797550	-0.008691	0.007765	0.078135	1.000000	0.000032	0.000026	0.000039	-27.518934	-84.841801	27.590808
40217	9.854624	-0.414735	0.776586	0.012589	-0.003428	0.081176	1.000000	0.000025	0.000025	0.000030	-27.514861	-84.841977	27.585376
40218	9.850225	-0.404712	0.798612	-0.009717	0.006510	0.078135	1.000000	0.000039	0.000026	0.000048	-27.528510	-84.841050	27.590526
40219	9.854479	-0.416108	0.777694	0.011559	-0.004690	0.081177	1.000000	0.000043	0.000028	0.000024	-27.513707	-84.841244	27.576344
40220	9.875989	-0.424481	0.786516	0.004535	-0.012285	0.103652	1.000000	0.000040	0.000023	0.000033	-27.512152	-84.841485	27.578370
40221	9.871603	-0.414332	0.808414	-0.017781	-0.002343	0.100608	1.000000	0.000038	0.000015	0.000034	-27.516971	-84.842459	27.583407
40222	9.871539	-0.414912	0.808906	-0.018266	-0.002973	0.100607	1.000000	0.000034	0.000031	0.000030	-27.507200	-84.841831	27.574141
40223	9.864803	-0.397892	0.771664	0.018392	0.013659	0.090221	1.000000	0.000042	0.000030	0.000032	-27.499950	-84.841445	27.567461
40224	9.871387	-0.416007	0.810195	-0.019291	-0.004231	0.100605	1.000000	0.000027	0.000033	0.000029	-27.489331	-84.840845	27.551606
40225	9.886243	-0.406919	0.781012	0.010849	0.005426	0.112695	1.000000	0.000052	0.000005	0.000038	-27.503043	-84.842619	27.567115
40226	9.854015	-0.420230	0.781347	0.008016	-0.009107	0.081177	1.000000	0.000027	0.000044	0.000043	-27.500900	-84.840088	27.556232
40227	9.864517	-0.400553	0.773935	0.016371	0.011128	0.090228	1.000000	0.000040	0.000025	0.000041	-27.507238	-84.839802	27.562912
40228	9.853859	-0.421753	0.782490	0.007024	-0.010371	0.081177	1.000000	0.000038	0.000017	0.000042	-27.517978	-84.839934	27.559362
40229	9.890290	-0.420562	0.761605	0.030635	-0.007709	0.115745	1.000000	0.000041	0.000021	0.000025	-27.509218	-84.840808	27.551047
40230	9.859997	-0.391627	0.796875	-0.006913	0.019829	0.087185	1.000000	0.000044	0.000038	0.000030	-27.496006	-84.839739	27.534477
40231	9.885814	-0.410998	0.784299	0.007810	0.001625	0.112699	1.000000	0.000030	0.000020	0.000048	-27.514494	-84.839493	27.552204
40232	9.842616	-0.395866	0.768284	0.020363	0.014934	0.067769	1.000000	0.000037	0.000037	0.000021	-27.492396	-84.838971	27.523464
40233	9.907244	-0.420042	0.793655	0.000220	-0.006612	0.135165	1.000000	0.000052	0.000005	0.000038	-27.506119	-84.840744	27.538983
40234	9.868391	-0.415640	0.756051	0.034502	-0.003909	0.093286	1.000000	0.000029	0.000040	0.000028	-27.491745	-84.839838	27.523636
40235	9.874940	-0.433812	0.794555	-0.003232	-0.021753	0.103636	1.000000	0.000030	0.000018	0.000041	-27.502686	-84.840171	27.533866
40236	9.863914	-0.406222	0.778653	0.011690	0.005439	0.090239	1.000000	0.000041	0.000032	0.000039	-27.502972	-84.839188	27.522604
40237	9.863847	-0.406879	0.779161	0.011170	0.004808	0.090240	1.000000	0.000031	0.000017	0.000033	-27.506366	-84.840101	27.525339
40238	9.889669	-0.426203	0.766524	0.025884	-0.013420	0.115752	1.000000	0.000034	0.000033	0.000038	-27.504764	-84.838986	27.526518
40239	9.868049	-0.418890	0.758713	0.031914	-0.007077	0.093293	1.000000	0.000032	0.000015	0.000025	-27.500612	-84.840479	27.521759
40240	9.859323	-0.397821	0.802124	-0.012163	0.013545	0.087191	1.000000	0.000042	0.000030	0.000032	-27.494151	-84.840202	27.509876
40241	9.863579	-0.409237	0.781312	0.009082	0.002286	0.090243	1.000000	0.000034	0.000033	0.000038	-27.493025	-84.839174	27.508393
40242	9.880713	-0.407033	0.811782	-0.019750	0.005312	0.109648	1.000000	0.000034	0.000033	0.000038	-27.491575	-84.838087	27.500375
40243	9.880640	-0.407772	0.812300	-0.020271	0.004682	0.109648	1.000000	0.000045	0.000016	0.000043	-27.505389	-84.838539	27.515233
40244	9.831190	-0.423888	0.782733	0.005194	-0.013459	0.058708	1.000000	0.000040	0.000023	0.000033	-27.504122	-84.838780	27.527362
40245	9.858959	-0.401217	0.804900	-0.014744	0.010403	0.087191	1.000000	0.000032	0.000026	0.000039	-27.509029	-84.838432	27.531736
40246	9.884775	-0.420562	0.792284	-0.000062	-0.007846	0.112699	1.000000	0.000033	0.000024	0.000032	-27.506238	-84.838640	27.528190
40247	9.856861	-0.444432	0.771276	0.018832	-0.032967	0.084214	1.000000	0.000036	0.000039	0.000029	-27.491534	-84.837513	27.513359
40248	9.863075	-0.414009	0.785160	0.005502	-0.002123	0.090246	1.000000	0.000027	0.000015	0.000057	-27.522408	-84.837154	27.548306
40249	9.869585	-0.432357	0.823480	-0.032259	-0.019933	0.100552	1.000000	0.000040	0.000023	0.000033	-27.521214	-84.837446	27.547508
40250	9.858608	-0.404627	0.807497	-0.017284	0.007261	0.087190	1.000000	0.000040	0.000023	0.000033	-27.519673	-84.837664	27.539481
40251	9.862881	-0.416016	0.786531	0.003952	-0.004014	0.090246	1.000000	0.000033	0.000024	0.000032	-27.517040	-84.837897	27.536366
40252	9.880028	-0.413703	0.816743	-0.024933	-0.000979	0.109638	1.000000	0.000039	0.000015	0.000034	-27.523230	-84.839022	27.546868
40253	9.830578	-0.429710	0.787231	0.000537	-0.019106	0.058700	1.000000	0.000042	0.000030	0.000032	-27.515999	-84.838634	27.540210
40254	9.877668	-0.408180	0.758398	0.033042	0.004278	0.102402	1.000000	0.000040	0.000023	0.000033	-27.514505	-84.838846	27.537924
40255	9.858282	-0.407443	0.810055	-0.019904	0.004126	0.087187	1.000000	0.000044	0.000036	0.000023	-27.493697	-84.838359	27.517918
40256	9.868861	-0.387532	0.802453	-0.011495	0.024326	0.096288	1.000000	0.000039	0.000015	0.000034	-27.498535	-84.839294	27.514068
40257	9.879697	-0.416530	0.819300	-0.027523	-0.004116	0.109630	1.000000	0.000030	0.000018	0.000041	-27.509481	-84.839624	27.524305
40258	9.877421	-0.410534	0.760349	0.030971	0.001740	0.102410	1.000000	0.000040	0.000023	0.000033	-27.508066	-84.839879	27.519106
40259	9.858020	-0.409926	0.811983	-0.021973	0.001621	0.087183	1.000000	0.000026	0.000035	0.000037	-27.505490	-84.838790	27.515299
40260	9.877277	-0.411816	0.761526	0.029899	0.000491	0.102413	1.000000	0.000048	0.000021	0.000034	-27.507106	-84.839265	27.534309
40261	9.872869	-0.401565	0.783529	0.007630	0.010521	0.099353	1.000000	0.000034	0.000031	0.000030	-27.498435	-84.838817	27.525334
40262	9.862142	-0.422601	0.792268	-0.001804	-0.010927	0.090241	1.000000	0.000032	0.000026	0.000039	-27.502830	-84.838393	27.516756
40263	9.851201	-0.394871	0.776259	0.013201	0.016254	0.076915	1.000000	0.000041	0.000021	0.000026	-27.494102	-84.839265	27.508476
40264	9.879202	-0.420759	0.823101	-0.031177	-0.008508	0.109617	1.000000	0.000042	0.000030	0.000032	-27.486477	-84.838823	27.491838
40265	9.855406	-0.407014	0.755895	0.033916	0.004311	0.079981	1.000000	0.000029	0.000022	0.000056	-27.512502	-84.837989	27.517050
40266	9.872522	-0.404816	0.786233	0.005081	0.007362	0.099358	1.000000	0.000035	0.000030	0.000023	-27.495549	-84.837985	27.508371
40267	9.876800	-0.416148	0.765341	0.026300	-0.003948	0.102423	1.000000	0.000040	0.000023	0.000033	-27.494365	-84.838275	27.507584
40268	9.850858	-0.398125	0.778945	0.010610	0.013107	0.076922	1.000000	0.000031	0.000028	0.000047	-27.508067	-84.837500	27.521677
40269	9.876656	-0.417610	0.766407	0.025223	-0.005209	0.102425	1.000000	0.000033	0.000024	0.000032	-27.505438	-84.837731	27.518568
40270	9.872250	-0.407349	0.788338	0.002974	0.004843	0.099360	1.000000	0.000040	0.000023	0.000033	-27.504001	-84.837973	27.511533
40271	9.861510	-0.428312	0.797048	-0.006489	-0.016590	0.090231	1.000000	0.000042	0.000030	0.000032	-27.496782	-84.837584	27.504889
40272	9.882790	-0.388112	0.781241	0.010833	0.024389	0.108492	1.000000	0.000023	0.000018	0.000032	-27.500230	-84.838627	27.513359
40273	9.872070	-0.409132	0.789658	0.001371	0.002957	0.099361	1.000000	0.000052	0.000005	0.000039	-27.514035	-84.840395	27.528960
40274	9.871999	-0.409970	0.790109	0.000824	0.002330	0.099362	1.000000	0.000032	0.000037	0.000053	-27.528925	-84.838320	27.549599
40275	9.871921	-0.410680	0.790720	0.000303	0.001699	0.099362	1.000000	0.000033	0.000022	0.000024	-27.518762	-84.839133	27.539009
40276	9.893372	-0.419171	0.799663	-0.006807	-0.005945	0.121792	1.000000	0.000041	0.000032	0.000039	-27.518023	-84.838025	27.528988
40277	9.876114	-0.422809	0.770531	0.021018	-0.010265	0.102431	1.000000	0.000034	0.000033	0.000038	-27.516888	-84.836995	27.527500
40278	9.860862	-0.384281	0.776013	0.014289	0.027615	0.086075	1.000000	0.000033	0.000024	0.000032	-27.516045	-84.837455	27.527811
40279	9.843774	-0.436562	0.771352	0.017598	-0.025304	0.070860	1.000000	0.000030	0.000018	0.000041	-27.526995	-84.837782	27.538053
40280	9.882251	-0.393613	0.785302	0.006639	0.019340	0.108507	1.000000	0.000032	0.000026	0.000039	-27.531465	-84.837366	27.546840
40281	9.860785	-0.435239	0.802254	-0.011782	-0.022874	0.090214	1.000000	0.000047	0.000034	0.000056	-27.548291	-84.835289	27.564964
40282	9.875739	-0.426443	0.773331	0.018373	-0.013417	0.102432	1.000000	0.000035	0.000030	0.000023	-27.532168	-84.835422	27.553668
40283	9.849815	-0.408218	0.786870	0.002753	0.003674	0.076936	1.000000	0.000030	0.000018	0.000041	-27.543118	-84.835749	27.563909
40284	9.875606	-0.427768	0.774290	0.017345	-0.014685	0.102432	1.000000	0.000040	0.000025	0.000041	-27.548832	-84.835359	27.561311
40285	9.849675	-0.409605	0.787905	0.001733	0.002414	0.076936	1.000000	0.000034	0.000031	0.000030	-27.540167	-84.834911	27.552347
40286	9.886159	-0.408689	0.767292	0.025243	0.004836	0.111588	1.000000	0.000040	0.000025	0.000041	-27.547013	-84.834684	27.559220
40287	9.860339	-0.439121	0.805608	-0.014915	-0.026646	0.090200	1.000000	0.000043	0.000028	0.000024	-27.532279	-84.834878	27.545116
40288	9.849466	-0.411566	0.789496	0.000164	0.000531	0.076937	1.000000	0.000027	0.000015	0.000057	-27.564406	-84.834680	27.584739
40289	9.881610	-0.399878	0.790186	0.001963	0.013661	0.108518	1.000000	0.000035	0.000030	0.000023	-27.548220	-84.834815	27.568304
40290	9.875176	-0.431571	0.777656	0.014225	-0.018473	0.102431	1.000000	0.000029	0.000040	0.000028	-27.531217	-84.833496	27.541644
40291	9.881456	-0.400947	0.791569	0.000949	0.012397	0.108520	1.000000	0.000040	0.000025	0.000041	-27.537579	-84.833202	27.548354
40292	9.866327	-0.411087	0.821658	-0.030263	0.001721	0.096278	1.000000	0.000040	0.000023	0.000033	-27.536751	-84.833557	27.536323
40293	9.879304	-0.444391	0.757998	0.034351	-0.031104	0.105506	1.000000	0.000034	0.000033	0.000038	-27.535615	-84.832525	27.534836
40294	9.859742	-0.394959	0.784828	0.006002	0.017531	0.086106	1.000000	0.000040	0.000023	0.000033	-27.535365	-84.832926	27.532535
40295	9.881170	-0.403551	0.793810	-0.001169	0.009876	0.108523	1.000000	0.000041	0.000032	0.000039	-27.535686	-84.831953	27.533382
40296	9.891871	-0.432386	0.811113	-0.017342	-0.018545	0.121764	1.000000	0.000037	0.000037	0.000021	-27.514458	-84.831519	27.510130
40297	9.874607	-0.387197	0.756998	0.035102	0.025672	0.098364	1.000000	0.000037	0.000008	0.000036	-27.525382	-84.833165	27.521096
40298	9.865892	-0.414626	0.825090	-0.033443	-0.002032	0.096268	1.000000	0.000029	0.000040	0.000028	-27.509299	-84.831997	27.498710
40299	9.885237	-0.416677	0.774835	0.018422	-0.003390	0.111604	1.000000	0.000041	0.000032	0.000039	-27.509627	-84.831023	27.499564
40300	9.870042	-0.378134	0.780218	0.011850	0.034515	0.095295	1.000000	0.000040	0.000023	0.000033	-27.508289	-84.831294	27.487359
40301	9.865659	-0.416531	0.826915	-0.035005	-0.003909	0.096262	1.000000	0.000032	0.000026	0.000039	-27.513195	-84.830940	27.491736
40302	9.880673	-0.407737	0.797848	-0.004863	0.005467	0.108525	1.000000	0.000033	0.000024	0.000032	-27.511288	-84.831277	27.484544
40303	9.865512	-0.417811	0.828029	-0.036072	-0.005159	0.096258	1.000000	0.000034	0.000033	0.000038	-27.510157	-84.830244	27.483063
40304	9.859040	-0.401080	0.790527	0.000764	0.011241	0.086117	1.000000	0.000039	0.000015	0.000034	-27.515258	-84.831200	27.488154
40305	9.863337	-0.412497	0.769599	0.021938	-0.000153	0.089200	1.000000	0.000035	0.000030	0.000023	-27.499087	-84.831332	27.471737
40306	9.874011	-0.392748	0.761896	0.030426	0.019954	0.098393	1.000000	0.000045	0.000016	0.000043	-27.512378	-84.831740	27.468528
40307	9.873951	-0.441934	0.787339	0.005227	-0.029207	0.102414	1.000000	0.000031	0.000046	0.000019	-27.482671	-84.830454	27.438055
40308	9.858764	-0.403251	0.792853	-0.001333	0.008724	0.086120	1.000000	0.000032	0.000026	0.000039	-27.488695	-84.830229	27.444118
40309	9.880182	-0.411853	0.801806	-0.008535	0.001062	0.108524	1.000000	0.000033	0.000024	0.000032	-27.486084	-84.830456	27.441030
40310	9.862986	-0.415386	0.772541	0.019283	-0.003306	0.089205	1.000000	0.000042	0.000030	0.000032	-27.480151	-84.830200	27.442590
40311	9.880048	-0.413011	0.802857	-0.009610	-0.000193	0.108523	1.000000	0.000039	0.000015	0.000034	-27.485039	-84.831167	27.447699
40312	9.862850	-0.416621	0.773608	0.018229	-0.004568	0.089206	1.000000	0.000036	0.000041	0.000037	-27.478169	-84.829509	27.438904
40313	9.875534	-0.403356	0.825493	-0.032350	0.009331	0.105436	1.000000	0.000040	0.000023	0.000033	-27.477024	-84.829796	27.438159
40314	9.862698	-0.417796	0.774915	0.017208	-0.005836	0.089208	1.000000	0.000029	0.000040	0.000028	-27.459880	-84.828500	27.417398
40315	9.894853	-0.406054	0.775824	0.019003	0.007233	0.120816	1.000000	0.000047	0.000023	0.000042	-27.467718	-84.828264	27.426461
40316	9.868920	-0.436462	0.814032	-0.021253	-0.024079	0.099310	1.000000	0.000031	0.000017	0.000033	-27.472226	-84.829322	27.424893
40317	9.879611	-0.416806	0.806274	-0.012764	-0.003972	0.108519	1.000000	0.000040	0.000025	0.000041	-27.478601	-84.829025	27.431617
40318	9.858064	-0.409502	0.798336	-0.006590	0.002443	0.086121	1.000000	0.000033	0.000024	0.000032	-27.476247	-84.829241	27.438022
40319	9.894599	-0.408748	0.777638	0.016881	0.004711	0.120821	1.000000	0.000038	0.000017	0.000042	-27.488659	-84.829623	27.450603
40320	9.862293	-0.421678	0.777951	0.014023	-0.009604	0.089210	1.000000	0.000037	0.000037	0.000021	-27.467449	-84.829189	27.439360
40321	9.883709	-0.430149	0.786882	0.006801	-0.017281	0.111604	1.000000	0.000037	0.000008	0.000036	-27.478381	-84.830833	27.450333
40322	9.847041	-0.432139	0.808515	-0.017736	-0.020796	0.076899	1.000000	0.000029	0.000040	0.000028	-27.463272	-84.829759	27.434795
40323	9.862085	-0.423367	0.779672	0.012431	-0.011490	0.089210	1.000000	0.000041	0.000032	0.000039	-27.463618	-84.828783	27.435670
40324	9.872786	-0.403700	0.771990	0.020940	0.008605	0.098434	1.000000	0.000023	0.000018	0.000032	-27.465079	-84.829546	27.424223
40325	9.868364	-0.393344	0.793801	-0.001254	0.018779	0.095344	1.000000	0.000040	0.000023	0.000033	-27.463942	-84.829832	27.423487
40326	9.883358	-0.433331	0.789530	0.002627	-0.020397	0.111600	1.000000	0.000037	0.000019	0.000050	-27.531441	-84.837400	27.457645
40327	9.861816	-0.426276	0.781484	0.008815	-0.013981	0.089210	1.000000	0.000030	0.000020	0.000048	-27.550139	-84.837172	27.475572
40328	9.868155	-0.395647	0.795251	-0.004333	0.016934	0.095347	1.000000	0.000037	0.000037	0.000021	-27.527878	-84.836580	27.455588
40329	9.883150	-0.435405	0.791003	0.001047	-0.022286	0.111596	1.000000	0.000052	0.000005	0.000039	-27.542014	-84.838376	27.471510
40330	9.872401	-0.407814	0.774745	0.016288	0.004844	0.098445	1.000000	0.000034	0.000033	0.000038	-27.540652	-84.837310	27.456392
40331	9.878640	-0.425765	0.813458	-0.021666	-0.012714	0.108496	1.000000	0.000042	0.000030	0.000032	-27.533677	-84.836952	27.449989
40332	9.872250	-0.408998	0.776043	0.015234	0.003585	0.098447	1.000000	0.000035	0.000031	0.000030	-27.525254	-84.836510	27.441196
40333	9.857024	-0.418977	0.806221	-0.015993	-0.006918	0.086108	1.000000	0.000032	0.000026	0.000039	-27.530378	-84.836187	27.445782
40334	9.878417	-0.427698	0.815151	-0.023259	-0.014595	0.108490	1.000000	0.000038	0.000017	0.000042	-27.543556	-84.836618	27.469813
40335	9.889143	-0.408241	0.807275	-0.014749	0.005485	0.117733	1.000000	0.000020	0.000014	0.000048	-27.566832	-84.837006	27.491260
40336	9.865553	-0.443141	0.764799	0.025738	-0.030483	0.092304	1.000000	0.000037	0.000037	0.000021	-27.544138	-84.836412	27.459463
40337	9.871900	-0.412404	0.778680	0.012599	0.000435	0.098452	1.000000	0.000034	0.000033	0.000038	-27.543207	-84.835410	27.458175
40338	9.882623	-0.392669	0.771096	0.021118	0.020518	0.107703	1.000000	0.000050	0.000027	0.000026	-27.530555	-84.835659	27.452331
40339	9.871765	-0.413566	0.779784	0.011544	-0.000817	0.098453	1.000000	0.000038	0.000017	0.000042	-27.543212	-84.836073	27.465147
40340	9.867334	-0.403273	0.801578	-0.010621	0.009400	0.095352	1.000000	0.000040	0.000023	0.000033	-27.541705	-84.836341	27.449025
40341	9.888726	-0.411844	0.810548	-0.017895	0.001715	0.117729	1.000000	0.000040	0.000023	0.000033	-27.540792	-84.836660	27.448504
40342	9.856399	-0.424722	0.810846	-0.020746	-0.012543	0.086094	1.000000	0.000035	0.000031	0.000030	-27.533377	-84.836281	27.441871
40343	9.854418	-0.418894	0.752022	0.037819	-0.007134	0.079182	1.000000	0.000050	0.000027	0.000026	-27.520374	-84.836566	27.430371
40344	9.882241	-0.396363	0.774099	0.017970	0.016729	0.107717	1.000000	0.000027	0.000015	0.000057	-27.552269	-84.836346	27.449734
40345	9.866986	-0.406461	0.804248	-0.013261	0.006273	0.095351	1.000000	0.000029	0.000040	0.000028	-27.536285	-84.835190	27.432749
40346	9.871292	-0.418021	0.783390	0.007832	-0.005212	0.098455	1.000000	0.000037	0.000008	0.000036	-27.548700	-84.836930	27.445877
40347	9.841054	-0.388596	0.817940	-0.029218	0.022960	0.069873	1.000000	0.000033	0.000022	0.000024	-27.538794	-84.837774	27.435539
40348	9.871183	-0.419060	0.784205	0.006766	-0.006463	0.098455	1.000000	0.000033	0.000024	0.000032	-27.537076	-84.838034	27.425843
40349	9.871109	-0.419704	0.784790	0.006236	-0.007093	0.098455	1.000000	0.000041	0.000032	0.000039	-27.537627	-84.837091	27.426915
40350	9.873097	-0.378221	0.819959	-0.028510	0.034722	0.101515	1.000000	0.000041	0.000034	0.000047	-27.546346	-84.835648	27.434579
40351	9.875310	-0.432297	0.764720	0.026791	-0.019232	0.101562	1.000000	0.000047	0.000023	0.000042	-27.554438	-84.835441	27.443888
40352	9.881688	-0.401764	0.778365	0.013702	0.011712	0.107731	1.000000	0.000032	0.000026	0.000039	-27.559923	-84.835073	27.460709
40353	9.862042	-0.400671	0.829958	-0.039163	0.012161	0.092239	1.000000	0.000044	0.000038	0.000030	-27.546907	-84.834037	27.448447
40354	9.853653	-0.426271	0.757876	0.031987	-0.014047	0.079195	1.000000	0.000037	0.000008	0.000036	-27.557640	-84.835656	27.460591
40355	9.866286	-0.412932	0.809525	-0.018576	0.000022	0.095345	1.000000	0.000034	0.000033	0.000038	-27.556704	-84.834653	27.459300
40356	9.881409	-0.404382	0.780545	0.011581	0.009195	0.107736	1.000000	0.000040	0.000025	0.000041	-27.564171	-84.834443	27.472598
40357	9.866138	-0.414313	0.810628	-0.019650	-0.001228	0.095343	1.000000	0.000040	0.000023	0.000033	-27.563273	-84.834761	27.472093
40358	9.881274	-0.405620	0.781613	0.010519	0.007939	0.107738	1.000000	0.000035	0.000031	0.000030	-27.555241	-84.834345	27.468876
40359	9.870364	-0.426345	0.790555	0.000918	-0.013367	0.098451	1.000000	0.000037	0.000037	0.000021	-27.533235	-84.833833	27.446801
40360	9.870290	-0.426989	0.791141	0.000395	-0.013994	0.098450	1.000000	0.000037	0.000019	0.000050	-27.553423	-84.833628	27.476874
40361	9.865836	-0.416782	0.813032	-0.021765	-0.003736	0.095338	1.000000	0.000034	0.000033	0.000038	-27.552489	-84.832624	27.475585
40362	9.891569	-0.436524	0.800751	-0.007431	-0.022331	0.120808	1.000000	0.000030	0.000019	0.000041	-27.563032	-84.832891	27.479278
40363	9.859478	-0.401014	0.775910	0.014677	0.011864	0.085383	1.000000	0.000047	0.000023	0.000042	-27.571131	-84.832683	27.488595
40364	9.869994	-0.430028	0.793184	-0.001689	-0.016516	0.098446	1.000000	0.000040	0.000025	0.000041	-27.576952	-84.832309	27.495213
40365	9.880771	-0.410426	0.785455	0.006857	0.003523	0.107744	1.000000	0.000033	0.000024	0.000032	-27.574573	-84.832568	27.492351
40366	9.880712	-0.411025	0.785875	0.006326	0.002894	0.107745	1.000000	0.000039	0.000015	0.000035	-27.579960	-84.833569	27.488291
40367	9.876279	-0.400688	0.807577	-0.015825	0.013168	0.104631	1.000000	0.000030	0.000019	0.000041	-27.591145	-84.833919	27.498759
40368	9.869725	-0.432780	0.795031	-0.003798	-0.019033	0.098441	1.000000	0.000041	0.000034	0.000047	-27.598360	-84.832281	27.496437
40369	9.880499	-0.413236	0.787399	0.004759	0.000999	0.107746	1.000000	0.000025	0.000025	0.000030	-27.594492	-84.832480	27.491208
40370	9.843777	-0.415024	0.808948	-0.019669	-0.002296	0.072968	1.000000	0.000040	0.000023	0.000033	-27.593147	-84.832754	27.481901
40371	9.880364	-0.414284	0.788536	0.003709	-0.000265	0.107746	1.000000	0.000030	0.000038	0.000020	-27.569654	-84.832185	27.457464
40372	9.854483	-0.395769	0.802054	-0.011645	0.017115	0.082278	1.000000	0.000041	0.000032	0.000039	-27.571067	-84.831286	27.460990
40373	9.858784	-0.407524	0.781322	0.009439	0.005566	0.085395	1.000000	0.000032	0.000026	0.000039	-27.576189	-84.830958	27.465576
40374	9.875759	-0.405163	0.811697	-0.019505	0.008776	0.104629	1.000000	0.000048	0.000021	0.000035	-27.576705	-84.831343	27.463454
40375	9.869203	-0.437108	0.799128	-0.007524	-0.023430	0.098429	1.000000	0.000024	0.000027	0.000038	-27.580333	-84.830955	27.465670
40376	9.884383	-0.428571	0.769997	0.022660	-0.014341	0.110865	1.000000	0.000039	0.000015	0.000035	-27.585028	-84.831924	27.475213
40377	9.890805	-0.397861	0.783632	0.009620	0.016606	0.117067	1.000000	0.000044	0.000038	0.000030	-27.572023	-84.830887	27.462967
40378	9.843203	-0.419779	0.813464	-0.023897	-0.007301	0.072957	1.000000	0.000032	0.000015	0.000026	-27.567681	-84.832376	27.443801
40379	9.862775	-0.422148	0.763024	0.027885	-0.009159	0.088519	1.000000	0.000050	0.000029	0.000033	-27.562234	-84.832075	27.439808
40380	9.864816	-0.380460	0.797992	-0.006700	0.032728	0.091605	1.000000	0.000032	0.000026	0.000039	-27.566130	-84.831648	27.413953
40381	9.879668	-0.420509	0.793943	-0.001573	-0.006575	0.107745	1.000000	0.000030	0.000019	0.000041	-27.577314	-84.831996	27.424420
40382	9.873444	-0.403958	0.756329	0.035451	0.009556	0.097851	1.000000	0.000035	0.000032	0.000030	-27.568217	-84.831499	27.408291
40383	9.875148	-0.410755	0.816309	-0.024212	0.003122	0.104622	1.000000	0.000030	0.000019	0.000041	-27.579401	-84.831846	27.418759
40384	9.875090	-0.411457	0.816653	-0.024763	0.002501	0.104621	1.000000	0.000054	0.000013	0.000037	-27.588757	-84.833036	27.440732
40385	9.894667	-0.414018	0.766245	0.027013	0.000588	0.120200	1.000000	0.000034	0.000033	0.000038	-27.587812	-84.832030	27.439434
40386	9.857908	-0.415864	0.787949	0.002600	-0.002625	0.085400	1.000000	0.000034	0.000033	0.000038	-27.586775	-84.831021	27.436415
40387	9.879243	-0.424539	0.797089	-0.004763	-0.010345	0.107740	1.000000	0.000048	0.000021	0.000035	-27.587400	-84.831396	27.438313
40388	9.857772	-0.417204	0.788941	0.001533	-0.003879	0.085400	1.000000	0.000038	0.000017	0.000042	-27.600488	-84.831835	27.456963
40389	9.864214	-0.386664	0.802437	-0.011460	0.027086	0.091618	1.000000	0.000040	0.000025	0.000041	-27.607107	-84.831564	27.463926
40390	9.851506	-0.401436	0.751749	0.038045	0.011609	0.075531	1.000000	0.000033	0.000024	0.000032	-27.603645	-84.831737	27.457224
40391	9.874583	-0.416224	0.820357	-0.028461	-0.001897	0.104611	1.000000	0.000049	0.000031	0.000041	-27.605697	-84.830849	27.460678
40392	9.857493	-0.419926	0.790984	-0.000561	-0.006397	0.085399	1.000000	0.000023	0.000018	0.000032	-27.607888	-84.831690	27.455584
40393	9.872705	-0.411423	0.761936	0.029624	0.002621	0.097874	1.000000	0.000034	0.000033	0.000038	-27.606938	-84.830683	27.454283
40394	9.852966	-0.410149	0.813390	-0.023199	0.003322	0.082272	1.000000	0.000055	0.000020	0.000036	-27.608772	-84.831113	27.454566
40395	9.889593	-0.409563	0.792843	0.000140	0.005236	0.117084	1.000000	0.000034	0.000022	0.000024	-27.598912	-84.831956	27.444278
40396	9.874245	-0.419200	0.822909	-0.031121	-0.005021	0.104602	1.000000	0.000033	0.000024	0.000032	-27.597135	-84.832275	27.434907
40397	9.872455	-0.413701	0.763936	0.027494	0.000091	0.097880	1.000000	0.000040	0.000023	0.000033	-27.596268	-84.832590	27.434436
40398	9.852720	-0.412255	0.815297	-0.025318	0.000824	0.082267	1.000000	0.000034	0.000022	0.000024	-27.585900	-84.833385	27.417122
40399	9.867949	-0.403792	0.786165	0.004871	0.009816	0.094755	1.000000	0.000030	0.000020	0.000048	-27.604583	-84.833143	27.435036
40400	9.872261	-0.415517	0.765456	0.025931	-0.001812	0.097884	1.000000	0.000037	0.000037	0.000022	-27.581957	-84.832551	27.407599
40401	9.889201	-0.413024	0.795924	-0.003030	0.001456	0.117085	1.000000	0.000030	0.000019	0.000041	-27.593147	-84.832896	27.418074
40402	9.831051	-0.406743	0.808762	-0.020551	0.005416	0.059933	1.000000	0.000040	0.000023	0.000033	-27.591796	-84.833191	27.421856
40403	9.867676	-0.406231	0.788340	0.002777	0.007294	0.094758	1.000000	0.000035	0.000032	0.000030	-27.583356	-84.832770	27.413118
40404	9.841830	-0.387764	0.801547	-0.012452	0.024772	0.069301	1.000000	0.000045	0.000016	0.000044	-27.597496	-84.833219	27.424606
40405	9.940490	-0.453894	0.772453	0.024254	-0.037287	0.167998	1.000000	0.000033	0.000024	0.000032	-27.595126	-84.833474	27.421757
40406	9.856560	-0.428277	0.798097	-0.007953	-0.015196	0.085386	1.000000	0.000043	0.000028	0.000024	-27.580352	-84.833671	27.414978
40407	9.884410	-0.405656	0.820295	-0.027767	0.008677	0.113951	1.000000	0.000031	0.000028	0.000047	-27.592964	-84.832752	27.427005
40408	9.871728	-0.420488	0.769607	0.021720	-0.006870	0.097892	1.000000	0.000049	0.000020	0.000027	-27.585150	-84.833648	27.414038
40409	9.867282	-0.409909	0.791358	-0.000374	0.003512	0.094760	1.000000	0.000040	0.000023	0.000033	-27.584288	-84.833962	27.413574
40410	9.888586	-0.418762	0.800561	-0.007786	-0.004221	0.117081	1.000000	0.000048	0.000034	0.000056	-27.602004	-84.831926	27.455753
40411	9.871506	-0.422631	0.771277	0.020122	-0.008746	0.097894	1.000000	0.000033	0.000024	0.000032	-27.599636	-84.832181	27.452905
40412	9.884049	-0.409037	0.822959	-0.030431	0.005534	0.113945	1.000000	0.000040	0.000023	0.000033	-27.599962	-84.832552	27.467281
40413	9.899302	-0.400533	0.793939	-0.000248	0.014498	0.126465	1.000000	0.000042	0.000030	0.000032	-27.593032	-84.832190	27.460933
40414	9.849923	-0.416319	0.764288	0.025415	-0.003511	0.075577	1.000000	0.000033	0.000024	0.000032	-27.589759	-84.832342	27.450870
40415	9.882179	-0.404760	0.765102	0.027158	0.009337	0.107285	1.000000	0.000040	0.000023	0.000033	-27.588903	-84.832656	27.450412
40416	9.882112	-0.405340	0.765659	0.026622	0.008712	0.107287	1.000000	0.000042	0.000030	0.000032	-27.582440	-84.832312	27.449446
40417	9.845324	-0.406989	0.787280	0.002261	0.005622	0.072444	1.000000	0.000034	0.000033	0.000038	-27.581490	-84.831302	27.448147
40418	9.868838	-0.469459	0.741038	0.050377	-0.055764	0.094776	1.000000	0.000048	0.000034	0.000056	-27.598460	-84.829257	27.470600
40419	9.915332	-0.449777	0.852534	-0.057056	-0.033696	0.149167	1.000000	0.000032	0.000013	0.000018	-27.587200	-84.831362	27.458784
40420	9.875794	-0.390860	0.729699	0.062099	0.022882	0.097517	1.000000	0.000048	0.000021	0.000035	-27.588179	-84.831739	27.460216
40421	9.915748	-0.402253	0.828098	-0.032928	0.013352	0.145643	1.000000	0.000017	0.000016	0.000015	-27.573881	-84.833725	27.443608
40422	9.785803	-0.348460	0.717375	0.067047	0.061142	0.005141	1.000000	0.000041	0.000032	0.000039	-27.574238	-84.832753	27.453741
40423	9.915609	-0.403647	0.829088	-0.033988	0.012087	0.145641	1.000000	0.000027	0.000015	0.000057	-27.606479	-84.832595	27.484978
40424	9.802114	-0.395510	0.773452	0.012362	0.015476	0.027826	1.000000	0.000042	0.000030	0.000032	-27.599208	-84.832210	27.458787
40425	9.886965	-0.476740	0.833993	-0.040981	-0.061938	0.120559	1.000000	0.000038	0.000048	0.000035	-27.586108	-84.829848	27.445707
40426	9.896209	-0.451321	0.766883	0.026812	-0.036350	0.123343	1.000000	0.000045	0.000016	0.000044	-27.600236	-84.830321	27.457604
40427	9.874731	-0.347804	0.848510	-0.056233	0.066483	0.104150	1.000000	0.000035	0.000030	0.000023	-27.584319	-84.830486	27.441445
40428	9.855513	-0.393823	0.784975	0.005616	0.019295	0.081857	1.000000	0.000042	0.000030	0.000032	-27.577587	-84.830143	27.440000
40429	9.846089	-0.420579	0.853346	-0.063248	-0.007538	0.079052	1.000000	0.000032	0.000026	0.000039	-27.582706	-84.829809	27.444589
40430	9.831836	-0.429463	0.743164	0.045402	-0.017488	0.056425	1.000000	0.000049	0.000020	0.000027	-27.575573	-84.830729	27.438990
40431	9.850916	-0.384404	0.807911	-0.017504	0.028451	0.078718	1.000000	0.000044	0.000038	0.000030	-27.562587	-84.829689	27.426771
40432	9.839869	-0.405296	0.816807	-0.027210	0.007253	0.069300	1.000000	0.000037	0.000019	0.000050	-27.583254	-84.829530	27.456387
40433	9.876531	-0.405099	0.796319	-0.003934	0.009023	0.104167	1.000000	0.000040	0.000023	0.000033	-27.582411	-84.829842	27.455943
40434	9.865482	-0.425809	0.805278	-0.013646	-0.012176	0.094744	1.000000	0.000029	0.000040	0.000028	-27.567016	-84.828749	27.449511
40435	9.897738	-0.414428	0.806220	-0.011921	0.000631	0.126468	1.000000	0.000045	0.000018	0.000051	-27.588723	-84.828620	27.472204
40436	9.860936	-0.416124	0.827594	-0.036246	-0.002386	0.091595	1.000000	0.000033	0.000024	0.000032	-27.586132	-84.828847	27.466022
40437	9.865262	-0.427933	0.806852	-0.015232	-0.014059	0.094739	1.000000	0.000032	0.000026	0.000039	-27.591251	-84.828511	27.470611
40438	9.869588	-0.439753	0.786102	0.005780	-0.025728	0.097883	1.000000	0.000040	0.000023	0.000033	-27.590955	-84.828825	27.481145
40439	9.839377	-0.409948	0.820405	-0.030919	0.002878	0.069291	1.000000	0.000023	0.000018	0.000032	-27.593150	-84.829694	27.481802
40440	9.848105	-0.432754	0.778451	0.011628	-0.019840	0.075584	1.000000	0.000037	0.000037	0.000022	-27.571738	-84.829223	27.462087
40441	9.880387	-0.421193	0.779249	0.013346	-0.007047	0.107315	1.000000	0.000052	0.000005	0.000039	-27.586093	-84.831006	27.478227
40442	9.854573	-0.402646	0.792270	-0.001792	0.010517	0.081872	1.000000	0.000034	0.000033	0.000038	-27.584789	-84.829963	27.466655
40443	9.854494	-0.403356	0.792881	-0.002320	0.009889	0.081872	1.000000	0.000032	0.000026	0.000039	-27.589909	-84.829626	27.471245
40444	9.891168	-0.403109	0.772479	0.020928	0.011624	0.116756	1.000000	0.000040	0.000023	0.000033	-27.589586	-84.829969	27.479168
40445	9.880117	-0.423778	0.781264	0.011222	-0.009568	0.107315	1.000000	0.000041	0.000021	0.000026	-27.581274	-84.830869	27.471310
40446	9.891053	-0.404149	0.773411	0.019869	0.010360	0.116760	1.000000	0.000040	0.000023	0.000033	-27.580538	-84.831177	27.466945
40447	9.912335	-0.412894	0.782579	0.012405	0.002580	0.139053	1.000000	0.000040	0.000025	0.000041	-27.587185	-84.830900	27.473939
40448	9.869578	-0.397529	0.765609	0.025740	0.016247	0.094473	1.000000	0.000044	0.000009	0.000045	-27.607816	-84.832047	27.493355
40449	9.879868	-0.426439	0.782965	0.009093	-0.012086	0.107315	1.000000	0.000025	0.000026	0.000030	-27.603932	-84.832240	27.488118
40450	9.890796	-0.406943	0.775228	0.017743	0.007839	0.116766	1.000000	0.000049	0.000031	0.000041	-27.606283	-84.831348	27.494540
40451	9.880384	-0.379389	0.758796	0.033336	0.034910	0.103934	1.000000	0.000040	0.000023	0.000033	-27.605455	-84.831659	27.494113
40452	9.873714	-0.411397	0.746364	0.045164	0.002650	0.097635	1.000000	0.000047	0.000023	0.000042	-27.613170	-84.831396	27.499706
40453	9.879583	-0.429101	0.785107	0.006976	-0.014607	0.107313	1.000000	0.000040	0.000023	0.000033	-27.612343	-84.831707	27.499280
40454	9.868508	-0.449822	0.793932	-0.002735	-0.035784	0.097854	1.000000	0.000033	0.000024	0.000032	-27.610001	-84.831958	27.508224
40455	9.875052	-0.418986	0.807399	-0.015611	-0.004791	0.104158	1.000000	0.000043	0.000028	0.000024	-27.595616	-84.832183	27.494479
40456	9.901399	-0.390537	0.770164	0.023761	0.024591	0.126236	1.000000	0.000026	0.000037	0.000044	-27.600525	-84.830522	27.490534
40457	9.846938	-0.443582	0.787069	0.002614	-0.030515	0.075563	1.000000	0.000056	0.000020	0.000036	-27.602760	-84.830952	27.494924
40458	9.857881	-0.424111	0.779303	0.011272	-0.010603	0.085028	1.000000	0.000034	0.000033	0.000038	-27.601768	-84.829945	27.491797
40459	9.864424	-0.393423	0.792796	-0.001587	0.020394	0.091340	1.000000	0.000040	0.000023	0.000033	-27.600945	-84.830255	27.491375
40460	9.883471	-0.444609	0.767970	0.024761	-0.030097	0.110464	1.000000	0.000044	0.000038	0.000031	-27.588987	-84.829310	27.489872
40461	9.868687	-0.405770	0.772743	0.018854	0.008057	0.094499	1.000000	0.000039	0.000015	0.000035	-27.594244	-84.830295	27.495346
40462	9.868619	-0.406349	0.773300	0.018308	0.007432	0.094500	1.000000	0.000044	0.000038	0.000031	-27.582019	-84.829335	27.486671
40463	9.859728	-0.384541	0.816502	-0.025261	0.028979	0.088186	1.000000	0.000034	0.000033	0.000038	-27.581062	-84.828321	27.485371
40464	9.868469	-0.407626	0.774543	0.017221	0.006182	0.094503	1.000000	0.000039	0.000015	0.000035	-27.587588	-84.829430	27.503209
40465	9.880932	-0.393876	0.826138	-0.033310	0.020562	0.110463	1.000000	0.000025	0.000026	0.000030	-27.583704	-84.829621	27.497973
40466	9.863933	-0.397646	0.796792	-0.005364	0.016013	0.091346	1.000000	0.000049	0.000031	0.000041	-27.586141	-84.828763	27.503190
40467	9.852835	-0.418257	0.805681	-0.015084	-0.005150	0.081865	1.000000	0.000027	0.000022	0.000015	-27.567312	-84.830132	27.483115
40468	9.885141	-0.406730	0.806474	-0.013388	0.007585	0.113621	1.000000	0.000023	0.000020	0.000039	-27.577016	-84.830408	27.499263
40469	9.874045	-0.427437	0.815248	-0.023108	-0.013577	0.104135	1.000000	0.000041	0.000021	0.000026	-27.568726	-84.831307	27.491428
40470	9.889434	-0.419078	0.786069	0.007057	-0.004764	0.116782	1.000000	0.000039	0.000015	0.000035	-27.574556	-84.832353	27.503426
40471	9.848192	-0.409240	0.828648	-0.038728	0.003435	0.078698	1.000000	0.000042	0.000030	0.000032	-27.567660	-84.831988	27.497118
40472	9.852523	-0.421026	0.808051	-0.017731	-0.008288	0.081858	1.000000	0.000042	0.000030	0.000032	-27.560313	-84.831581	27.486083
40473	9.852451	-0.421503	0.808674	-0.018260	-0.008915	0.081857	1.000000	0.000035	0.000030	0.000023	-27.544405	-84.831745	27.469940
40474	9.859022	-0.390654	0.822100	-0.031121	0.022082	0.088187	1.000000	0.000040	0.000023	0.000033	-27.544056	-84.832100	27.480729
40475	9.884689	-0.410672	0.810007	-0.017110	0.003179	0.113618	1.000000	0.000045	0.000016	0.000044	-27.558337	-84.832555	27.496051
40476	9.864766	-0.408921	0.861202	-0.069863	0.004224	0.097792	1.000000	0.000041	0.000021	0.000026	-27.550142	-84.833467	27.489695
40477	9.848579	-0.364275	0.806248	-0.016530	0.047906	0.075421	1.000000	0.000031	0.000017	0.000033	-27.553871	-84.834391	27.492764
40478	9.852936	-0.376119	0.785382	0.004466	0.036172	0.078587	1.000000	0.000031	0.000017	0.000033	-27.557153	-84.835278	27.495636
40479	9.872749	-0.379090	0.735018	0.056158	0.033854	0.094423	1.000000	0.000033	0.000024	0.000032	-27.554800	-84.835528	27.492810
40480	9.846157	-0.408854	0.773501	0.015728	0.003285	0.072252	1.000000	0.000031	0.000030	0.000054	-27.574702	-84.834010	27.516662
40481	9.824776	-0.401592	0.765179	0.022187	0.009840	0.049990	1.000000	0.000037	0.000008	0.000036	-27.586068	-84.835669	27.528059
40482	9.887229	-0.420814	0.732173	0.059903	-0.006855	0.110357	1.000000	0.000040	0.000023	0.000033	-27.585003	-84.835971	27.533202
40483	9.878351	-0.398997	0.775043	0.016356	0.014728	0.104027	1.000000	0.000030	0.000019	0.000041	-27.596220	-84.836305	27.543706
40484	9.878284	-0.399749	0.775500	0.015810	0.014098	0.104029	1.000000	0.000040	0.000025	0.000041	-27.603462	-84.836115	27.552716
40485	9.882631	-0.411604	0.754760	0.036788	0.002354	0.107198	1.000000	0.000049	0.000020	0.000027	-27.596725	-84.837073	27.547314
40486	9.888410	-0.429167	0.793463	-0.001447	-0.014870	0.116774	1.000000	0.000038	0.000017	0.000042	-27.609565	-84.837505	27.561941
40487	9.871440	-0.433167	0.763915	0.026523	-0.019427	0.097684	1.000000	0.000037	0.000019	0.000050	-27.629808	-84.837307	27.582295
40488	9.892676	-0.442021	0.773170	0.018991	-0.027250	0.119941	1.000000	0.000042	0.000030	0.000032	-27.622954	-84.836972	27.579233
40489	9.888188	-0.431409	0.795021	-0.003044	-0.016765	0.116771	1.000000	0.000049	0.000031	0.000041	-27.625075	-84.836076	27.582768
40490	9.899177	-0.412021	0.787347	0.005624	0.003112	0.126293	1.000000	0.000019	0.000036	0.000035	-27.620989	-84.834959	27.575064
40491	9.888020	-0.432803	0.796348	-0.004110	-0.018028	0.116768	1.000000	0.000032	0.000026	0.000039	-27.626114	-84.834617	27.579663
40492	9.856415	-0.397134	0.771101	0.018567	0.016237	0.081787	1.000000	0.000035	0.000032	0.000030	-27.617772	-84.834220	27.573288
40493	9.866565	-0.425973	0.788793	0.001829	-0.012095	0.094512	1.000000	0.000040	0.000025	0.000041	-27.624444	-84.833937	27.580311
40494	9.892203	-0.446001	0.776921	0.015781	-0.031047	0.119935	1.000000	0.000035	0.000032	0.000030	-27.616327	-84.833567	27.575503
40495	9.913428	-0.454664	0.786321	0.008240	-0.038878	0.142185	1.000000	0.000035	0.000032	0.000030	-27.607892	-84.833142	27.566782
40496	9.870751	-0.438992	0.769474	0.021719	-0.025112	0.097683	1.000000	0.000042	0.000030	0.000032	-27.601275	-84.832818	27.562263
40497	9.872922	-0.396868	0.804378	-0.012597	0.017019	0.100873	1.000000	0.000033	0.000055	0.000025	-27.573037	-84.830308	27.533420
40498	9.844864	-0.420619	0.783594	0.006176	-0.008043	0.072260	1.000000	0.000040	0.000023	0.000033	-27.572199	-84.830621	27.537985
40499	9.881592	-0.420495	0.763421	0.029336	-0.006506	0.107221	1.000000	0.000037	0.000039	0.000029	-27.557693	-84.829520	27.523379
40500	9.855812	-0.401579	0.776486	0.014326	0.011198	0.081801	1.000000	0.000041	0.000021	0.000026	-27.549513	-84.830437	27.514068
40501	9.814522	-0.391447	0.819113	-0.031380	0.019548	0.043663	1.000000	0.000037	0.000039	0.000029	-27.535011	-84.829335	27.499468
40502	9.873447	-0.351190	0.782194	0.010178	0.062071	0.097719	1.000000	0.000040	0.000023	0.000033	-27.535061	-84.829755	27.501764
40503	9.883590	-0.379895	0.799739	-0.006580	0.033740	0.110421	1.000000	0.000024	0.000016	0.000024	-27.529780	-84.831208	27.495001
40504	9.883533	-0.380413	0.800203	-0.007098	0.033107	0.110423	1.000000	0.000057	0.000028	0.000035	-27.525640	-84.830936	27.488476
40505	9.876770	-0.412301	0.788112	0.004647	0.000841	0.104050	1.000000	0.000014	0.000043	0.000025	-27.506494	-84.829654	27.466600
40506	9.838534	-0.407881	0.750061	0.039659	0.003475	0.062743	1.000000	0.000040	0.000023	0.000033	-27.505617	-84.829978	27.464598
40507	9.846500	-0.382792	0.822897	-0.032355	0.029084	0.075455	1.000000	0.000040	0.000025	0.000041	-27.512300	-84.829696	27.471632
40508	9.855276	-0.406070	0.780937	0.010084	0.006154	0.081810	1.000000	0.000046	0.000014	0.000036	-27.519128	-84.830769	27.484612
40509	9.904487	-0.391583	0.811623	-0.016774	0.022741	0.132670	1.000000	0.000031	0.000017	0.000033	-27.522869	-84.831691	27.487694
40510	9.897733	-0.423617	0.799257	-0.005041	-0.009532	0.126289	1.000000	0.000040	0.000025	0.000041	-27.529444	-84.831428	27.499754
40511	9.860842	-0.425067	0.820538	-0.029240	-0.012282	0.091310	1.000000	0.000022	0.000022	0.000047	-27.546576	-84.831110	27.515242
40512	9.871890	-0.405667	0.812615	-0.020549	0.007571	0.100871	1.000000	0.000034	0.000022	0.000024	-27.536608	-84.831955	27.506483
40513	9.851876	-0.403705	0.863796	-0.073263	0.008772	0.084945	1.000000	0.000030	0.000019	0.000041	-27.547825	-84.832286	27.516988
40514	9.876176	-0.418307	0.792384	-0.000138	-0.004845	0.104050	1.000000	0.000049	0.000031	0.000041	-27.550299	-84.831460	27.524329
40515	9.904083	-0.395729	0.814538	-0.019968	0.018946	0.132672	1.000000	0.000033	0.000024	0.000032	-27.547962	-84.831707	27.521522
40516	9.878308	-0.376919	0.827543	-0.034933	0.036689	0.107257	1.000000	0.000026	0.000035	0.000037	-27.545196	-84.830633	27.518914
40517	9.850242	-0.400835	0.806663	-0.016159	0.011641	0.078634	1.000000	0.000034	0.000033	0.000038	-27.544244	-84.829615	27.517625
40518	9.874547	-0.415511	0.735372	0.056970	-0.002000	0.097755	1.000000	0.000031	0.000028	0.000047	-27.556742	-84.828697	27.532679
40519	9.833225	-0.405510	0.777941	0.011310	0.006440	0.059585	1.000000	0.000035	0.000032	0.000030	-27.548328	-84.828269	27.523981
40520	9.895675	-0.425101	0.745309	0.048851	-0.010485	0.119991	1.000000	0.000037	0.000019	0.000050	-27.568802	-84.828148	27.555120
40521	9.869912	-0.406313	0.758207	0.033893	0.007268	0.094580	1.000000	0.000035	0.000030	0.000023	-27.552928	-84.828311	27.539016
40522	9.879989	-0.435070	0.775895	0.017086	-0.021064	0.107229	1.000000	0.000030	0.000019	0.000041	-27.564154	-84.828680	27.557200
40523	9.858658	-0.427634	0.767458	0.023608	-0.014469	0.085001	1.000000	0.000046	0.000014	0.000036	-27.571028	-84.829720	27.565170
40524	9.847463	-0.448292	0.776253	0.013866	-0.035577	0.075416	1.000000	0.000040	0.000023	0.000033	-27.569615	-84.829983	27.563162
40525	9.869675	-0.408809	0.759952	0.031785	0.004734	0.094588	1.000000	0.000040	0.000023	0.000033	-27.568844	-84.830289	27.562799
40526	9.868597	-0.457792	0.785978	0.005517	-0.044441	0.097637	1.000000	0.000045	0.000018	0.000051	-27.575976	-84.832301	27.562269
40527	9.896510	-0.435402	0.808020	-0.014318	-0.020661	0.126263	1.000000	0.000032	0.000026	0.000039	-27.581071	-84.831962	27.566828
40528	9.881898	-0.396472	0.812496	-0.020024	0.017580	0.110445	1.000000	0.000034	0.000022	0.000024	-27.571103	-84.832806	27.553764
40529	9.905226	-0.459241	0.766628	0.027553	-0.044287	0.132633	1.000000	0.000030	0.000019	0.000041	-27.582292	-84.833141	27.564230
40530	9.870618	-0.417920	0.821801	-0.030326	-0.004144	0.100848	1.000000	0.000039	0.000027	0.000048	-27.596713	-84.832324	27.582131
40531	9.890543	-0.421224	0.771586	0.021311	-0.006678	0.116820	1.000000	0.000034	0.000022	0.000024	-27.586885	-84.833168	27.571876
40532	9.890484	-0.421737	0.772064	0.020767	-0.007309	0.116821	1.000000	0.000040	0.000023	0.000033	-27.586611	-84.833550	27.577138
40533	9.885993	-0.411059	0.793741	-0.001230	0.003242	0.113633	1.000000	0.000032	0.000026	0.000039	-27.591707	-84.833211	27.581699
40534	9.890347	-0.423064	0.773093	0.019697	-0.008576	0.116822	1.000000	0.000040	0.000023	0.000033	-27.591111	-84.833564	27.585387
40535	9.869018	-0.415497	0.764840	0.026241	-0.001971	0.094605	1.000000	0.000042	0.000030	0.000032	-27.584214	-84.833202	27.579074
40536	9.907050	-0.421043	0.804113	-0.009902	-0.005894	0.135849	1.000000	0.000039	0.000015	0.000035	-27.589395	-84.834178	27.583666
40537	9.847620	-0.408494	0.757213	0.032262	0.004002	0.072392	1.000000	0.000048	0.000052	0.000028	-27.564214	-84.831794	27.559632
40538	9.848779	-0.414397	0.817593	-0.027515	-0.001938	0.078616	1.000000	0.000035	0.000030	0.000023	-27.548595	-84.832010	27.545212
40539	9.821787	-0.389908	0.771011	0.016819	0.021175	0.046991	1.000000	0.000042	0.000030	0.000032	-27.541705	-84.831647	27.538906
40540	9.881058	-0.403574	0.819198	-0.026407	0.010016	0.110440	1.000000	0.000033	0.000024	0.000032	-27.539097	-84.831866	27.530129
40541	9.875333	-0.387340	0.781316	0.010850	0.025877	0.101036	1.000000	0.000033	0.000024	0.000032	-27.536731	-84.832117	27.527282
40542	9.842842	-0.399748	0.781497	0.008158	0.012041	0.069209	1.000000	0.000020	0.000034	0.000028	-27.525319	-84.831613	27.515275
40543	9.859581	-0.397138	0.812228	-0.020913	0.015370	0.088227	1.000000	0.000043	0.000039	0.000038	-27.519813	-84.829984	27.510488
40544	9.863937	-0.409151	0.791652	0.000005	0.003535	0.091420	1.000000	0.000039	0.000015	0.000035	-27.525341	-84.831018	27.516760
40545	9.900731	-0.409169	0.771399	0.023084	0.004894	0.126447	1.000000	0.000035	0.000030	0.000023	-27.509426	-84.831185	27.500607
40546	9.885050	-0.418264	0.801678	-0.008158	-0.004975	0.113629	1.000000	0.000029	0.000040	0.000028	-27.493607	-84.830087	27.485958
40547	9.874906	-0.390746	0.785018	0.007655	0.022083	0.101048	1.000000	0.000045	0.000016	0.000044	-27.507929	-84.830541	27.501312
40548	9.863660	-0.411521	0.793868	-0.002137	0.001011	0.091421	1.000000	0.000040	0.000025	0.000041	-27.515037	-84.830341	27.506264
40549	9.896014	-0.400328	0.794868	-0.000514	0.013569	0.123257	1.000000	0.000042	0.000030	0.000032	-27.508159	-84.829977	27.499971
40550	9.863513	-0.412836	0.795010	-0.003203	-0.000252	0.091421	1.000000	0.000047	0.000023	0.000042	-27.516550	-84.829803	27.513510
40551	9.880257	-0.410223	0.825522	-0.032282	0.003082	0.110427	1.000000	0.000058	0.000026	0.000027	-27.505350	-84.830150	27.504704
40552	9.863377	-0.414108	0.796040	-0.004258	-0.001515	0.091420	1.000000	0.000022	0.000022	0.000047	-27.522178	-84.829825	27.520520
40553	9.916981	-0.411256	0.805735	-0.009745	0.003779	0.145462	1.000000	0.000030	0.000019	0.000041	-27.533366	-84.830158	27.530986
40554	9.863234	-0.415675	0.796985	-0.005322	-0.002776	0.091419	1.000000	0.000049	0.000031	0.000041	-27.535723	-84.829294	27.535404
40555	9.874351	-0.396498	0.789103	0.003404	0.017025	0.101060	1.000000	0.000030	0.000021	0.000048	-27.554367	-84.829035	27.553272
40556	9.863083	-0.417401	0.797956	-0.006389	-0.004040	0.091418	1.000000	0.000030	0.000021	0.000048	-27.573099	-84.828824	27.574562
40557	9.904307	-0.429166	0.756599	0.038111	-0.013952	0.129660	1.000000	0.000032	0.000026	0.000039	-27.578196	-84.828483	27.579125
40558	9.858503	-0.407637	0.820075	-0.028895	0.005923	0.088217	1.000000	0.000022	0.000022	0.000047	-27.595311	-84.828198	27.599833
40559	9.831585	-0.383493	0.773428	0.015505	0.029015	0.056671	1.000000	0.000051	0.000038	0.000040	-27.591364	-84.826628	27.597484
40560	9.845975	-0.423786	0.770094	0.020051	-0.010535	0.072420	1.000000	0.000028	0.000011	0.000042	-27.608355	-84.827615	27.613443
40561	9.881605	-0.472101	0.775536	0.017466	-0.057347	0.110359	1.000000	0.000035	0.000030	0.000023	-27.592461	-84.827785	27.597313
40562	9.867081	-0.433029	0.779956	0.011873	-0.019062	0.094615	1.000000	0.000025	0.000026	0.000030	-27.588420	-84.827980	27.591027
40563	9.888241	-0.441837	0.789362	0.004220	-0.026958	0.116808	1.000000	0.000025	0.000027	0.000038	-27.591942	-84.827577	27.593139
40564	9.873719	-0.402927	0.793738	-0.001372	0.011331	0.101069	1.000000	0.000033	0.000024	0.000032	-27.589851	-84.827878	27.596391
40565	9.873660	-0.403438	0.794214	-0.001901	0.010700	0.101070	1.000000	0.000041	0.000021	0.000026	-27.581629	-84.828780	27.588622
40566	9.866810	-0.435318	0.782119	0.009735	-0.021590	0.094612	1.000000	0.000052	0.000036	0.000032	-27.570436	-84.827852	27.581182
40567	9.909193	-0.452339	0.800360	-0.005052	-0.036759	0.138992	1.000000	0.000028	0.000011	0.000042	-27.587727	-84.828856	27.597561
40568	9.883465	-0.433335	0.813125	-0.019887	-0.018882	0.113595	1.000000	0.000037	0.000037	0.000022	-27.565576	-84.828342	27.575621
40569	9.877804	-0.417272	0.775461	0.017410	-0.003072	0.104276	1.000000	0.000033	0.000037	0.000053	-27.579477	-84.826140	27.589070
40570	9.888954	-0.398027	0.767571	0.026148	0.016707	0.113945	1.000000	0.000032	0.000015	0.000026	-27.575658	-84.827651	27.583856
40571	9.904452	-0.443516	0.823796	-0.028616	-0.028047	0.135775	1.000000	0.000049	0.000031	0.000041	-27.577819	-84.826753	27.587428
40572	9.860804	-0.422563	0.747088	0.044380	-0.008946	0.085298	1.000000	0.000032	0.000026	0.000039	-27.583170	-84.826463	27.598180
40573	9.863084	-0.380485	0.781497	0.010259	0.033330	0.088561	1.000000	0.000042	0.000032	0.000040	-27.583753	-84.825506	27.599297
40574	9.893109	-0.412082	0.748695	0.045444	0.002922	0.117161	1.000000	0.000041	0.000021	0.000026	-27.575667	-84.826436	27.594069
40575	9.882928	-0.437966	0.817165	-0.023619	-0.023302	0.113578	1.000000	0.000047	0.000023	0.000042	-27.583925	-84.826212	27.603550
40576	9.840418	-0.422261	0.799965	-0.009872	-0.009377	0.069210	1.000000	0.000042	0.000030	0.000032	-27.577300	-84.825879	27.596250
40577	9.884034	-0.390995	0.792593	0.000997	0.023527	0.110753	1.000000	0.000036	0.000030	0.000023	-27.561417	-84.826048	27.580132
40578	9.841530	-0.375011	0.775557	0.014749	0.037453	0.066392	1.000000	0.000054	0.000042	0.000023	-27.536981	-84.825052	27.558306
40579	9.895124	-0.371883	0.785588	0.009200	0.042666	0.120440	1.000000	0.000025	0.000026	0.000030	-27.533054	-84.825241	27.553025
40580	9.883826	-0.392347	0.794517	-0.000601	0.021630	0.110757	1.000000	0.000041	0.000021	0.000026	-27.524778	-84.826150	27.545158
40581	9.823299	-0.427830	0.772993	0.016046	-0.016503	0.050235	1.000000	0.000025	0.000026	0.000030	-27.520849	-84.826339	27.539874
40582	9.893671	-0.421564	0.812858	-0.018093	-0.007315	0.123247	1.000000	0.000033	0.000024	0.000032	-27.518674	-84.826620	27.536976
40583	9.838855	-0.420541	0.744403	0.045680	-0.008633	0.063137	1.000000	0.000030	0.000019	0.000041	-27.529867	-84.826950	27.547448
40584	9.883582	-0.394682	0.796400	-0.002724	0.019101	0.110762	1.000000	0.000034	0.000022	0.000024	-27.520168	-84.827815	27.536865
40585	9.879074	-0.383906	0.818019	-0.024670	0.029740	0.107552	1.000000	0.000039	0.000027	0.000048	-27.534305	-84.826937	27.551294
40586	9.894682	-0.376089	0.789154	0.005503	0.038230	0.120461	1.000000	0.000029	0.000040	0.000028	-27.518101	-84.825768	27.531376
40587	9.887803	-0.408046	0.777075	0.017108	0.005929	0.113977	1.000000	0.000039	0.000016	0.000035	-27.523432	-84.826749	27.536916
40588	9.825197	-0.389330	0.810344	-0.021204	0.022033	0.053507	1.000000	0.000033	0.000024	0.000032	-27.520977	-84.827007	27.534483
40589	9.857589	-0.378230	0.811310	-0.019611	0.034507	0.085382	1.000000	0.000040	0.000025	0.000041	-27.527667	-84.826722	27.541519
40590	9.908818	-0.418203	0.787340	0.008349	-0.003265	0.136151	1.000000	0.000046	0.000014	0.000036	-27.534506	-84.827780	27.549431
40591	9.861904	-0.391047	0.791116	0.000746	0.021963	0.088598	1.000000	0.000042	0.000032	0.000040	-27.535103	-84.826821	27.550564
40592	9.861819	-0.391935	0.791736	0.000211	0.021330	0.088599	1.000000	0.000046	0.000027	0.000058	-27.558339	-84.825450	27.578344
40593	9.874059	-0.378050	0.843372	-0.050306	0.035979	0.104339	1.000000	0.000040	0.000023	0.000033	-27.557586	-84.825757	27.577992
40594	9.861681	-0.393439	0.792702	-0.000850	0.020066	0.088602	1.000000	0.000030	0.000019	0.000041	-27.568834	-84.826128	27.589901
40595	9.870503	-0.417031	0.750949	0.041437	-0.003143	0.095034	1.000000	0.000040	0.000023	0.000033	-27.568083	-84.826435	27.589551
40596	9.865994	-0.406244	0.772548	0.019494	0.007511	0.091820	1.000000	0.000040	0.000025	0.000041	-27.574825	-84.826194	27.597936
40597	9.850213	-0.415471	0.802558	-0.011730	-0.002208	0.078888	1.000000	0.000030	0.000019	0.000041	-27.586024	-84.826520	27.608414
40598	9.919528	-0.404224	0.782783	0.013350	0.012030	0.145870	1.000000	0.000030	0.000019	0.000041	-27.597556	-84.826937	27.624087
40599	9.837765	-0.431770	0.752334	0.037188	-0.018761	0.063158	1.000000	0.000031	0.000028	0.000047	-27.610092	-84.825997	27.636038
40600	9.881437	-0.400915	0.744897	0.048063	0.014055	0.104766	1.000000	0.000032	0.000026	0.000039	-27.614895	-84.825642	27.638326
40601	9.875548	-0.438227	0.792452	0.000360	-0.023330	0.104264	1.000000	0.000034	0.000033	0.000038	-27.613891	-84.824623	27.636982
40602	9.849849	-0.419129	0.805121	-0.014381	-0.005365	0.078883	1.000000	0.000032	0.000015	0.000026	-27.609889	-84.826134	27.633089
40603	9.891158	-0.430810	0.763785	0.029996	-0.015528	0.117208	1.000000	0.000049	0.000020	0.000027	-27.603305	-84.827095	27.627838
40604	9.869916	-0.423151	0.755240	0.036646	-0.008862	0.095050	1.000000	0.000039	0.000016	0.000035	-27.608847	-84.828130	27.634499
40605	9.892060	-0.437151	0.824153	-0.030362	-0.021861	0.123196	1.000000	0.000040	0.000023	0.000033	-27.608105	-84.828436	27.634159
40606	9.849614	-0.421395	0.806803	-0.016512	-0.007887	0.078878	1.000000	0.000032	0.000026	0.000039	-27.613253	-84.828129	27.639474
40607	9.875173	-0.441825	0.795123	-0.002841	-0.027129	0.104254	1.000000	0.000030	0.000019	0.000041	-27.624462	-84.828454	27.649962
40608	9.886393	-0.422467	0.787236	0.005927	-0.007398	0.113989	1.000000	0.000037	0.000037	0.000022	-27.602362	-84.827963	27.626832
40609	9.886313	-0.423000	0.787964	0.005396	-0.008031	0.113989	1.000000	0.000034	0.000034	0.000038	-27.601358	-84.826943	27.625489
40610	9.880807	-0.406953	0.749960	0.042749	0.007692	0.104798	1.000000	0.000047	0.000012	0.000029	-27.601201	-84.828647	27.629061
40611	9.890629	-0.435681	0.767858	0.025714	-0.020613	0.117211	1.000000	0.000034	0.000034	0.000038	-27.600197	-84.827626	27.627718
40612	9.876222	-0.396680	0.772205	0.020295	0.017737	0.101580	1.000000	0.000027	0.000033	0.000029	-27.590197	-84.827177	27.616961
40613	9.876154	-0.397154	0.772838	0.019767	0.017103	0.101582	1.000000	0.000043	0.000028	0.000024	-27.575921	-84.827404	27.603333
40614	9.876091	-0.397652	0.773387	0.019231	0.016469	0.101584	1.000000	0.000033	0.000024	0.000032	-27.573793	-84.827695	27.600561
40615	9.864714	-0.418120	0.782503	0.009396	-0.004520	0.091837	1.000000	0.000044	0.000038	0.000031	-27.560855	-84.826656	27.588406
40616	9.881363	-0.415471	0.813188	-0.019734	-0.001142	0.110761	1.000000	0.000032	0.000026	0.000039	-27.565862	-84.826325	27.593032
40617	9.875883	-0.399437	0.775120	0.017644	0.014567	0.101590	1.000000	0.000032	0.000015	0.000026	-27.562194	-84.827838	27.588753
40618	9.864509	-0.419824	0.784167	0.007808	-0.006421	0.091837	1.000000	0.000029	0.000040	0.000028	-27.545853	-84.826675	27.570298
40619	9.854568	-0.392323	0.767405	0.023808	0.020614	0.079448	1.000000	0.000040	0.000025	0.000041	-27.552559	-84.826387	27.577352
40620	9.880113	-0.412767	0.755897	0.037428	0.001334	0.104822	1.000000	0.000034	0.000034	0.000038	-27.551979	-84.825453	27.579483
40621	9.864276	-0.421905	0.785978	0.006204	-0.008316	0.091837	1.000000	0.000038	0.000017	0.000042	-27.564785	-84.825837	27.592446
40622	9.871075	-0.391158	0.799080	-0.006398	0.022733	0.098372	1.000000	0.000035	0.000032	0.000031	-27.556410	-84.825444	27.584393
40623	9.871002	-0.391886	0.799622	-0.006926	0.022102	0.098373	1.000000	0.000030	0.000021	0.000048	-27.575050	-84.825173	27.602258
40624	9.849761	-0.384301	0.791253	-0.000240	0.028788	0.076232	1.000000	0.000037	0.000037	0.000022	-27.553265	-84.824736	27.582795
40625	9.859525	-0.412952	0.809424	-0.017309	0.000493	0.088607	1.000000	0.000034	0.000034	0.000038	-27.552273	-84.823714	27.581466
40626	9.863902	-0.425209	0.788883	0.003541	-0.011480	0.091835	1.000000	0.000045	0.000016	0.000044	-27.566560	-84.824157	27.594204
40627	9.882027	-0.374726	0.793519	0.000273	0.039914	0.108147	1.000000	0.000033	0.000035	0.000046	-27.572994	-84.822540	27.600247
40628	9.891780	-0.403633	0.811609	-0.016818	0.011617	0.120515	1.000000	0.000032	0.000026	0.000039	-27.578324	-84.822255	27.607442
40629	9.861635	-0.373096	0.845351	-0.052862	0.041004	0.091917	1.000000	0.000049	0.000031	0.000041	-27.580532	-84.821352	27.611068
40630	9.881795	-0.376976	0.795339	-0.001313	0.038015	0.108155	1.000000	0.000032	0.000026	0.000039	-27.585371	-84.820980	27.612365
40631	9.842340	-0.420850	0.782837	0.008124	-0.007313	0.069696	1.000000	0.000031	0.000028	0.000047	-27.597895	-84.820035	27.624306
40632	9.858966	-0.418176	0.813543	-0.021009	-0.003921	0.088599	1.000000	0.000037	0.000037	0.000022	-27.575512	-84.819517	27.600651
40633	9.895856	-0.418576	0.793437	0.001915	-0.002902	0.123745	1.000000	0.000052	0.000005	0.000039	-27.590202	-84.821285	27.617114
40634	9.870173	-0.399562	0.806032	-0.012752	0.015149	0.098380	1.000000	0.000028	0.000044	0.000043	-27.589108	-84.818999	27.616557
40635	9.870094	-0.400274	0.806648	-0.013280	0.014518	0.098380	1.000000	0.000039	0.000016	0.000035	-27.594494	-84.819975	27.622155
40636	9.863144	-0.432388	0.794443	-0.001784	-0.017805	0.091826	1.000000	0.000038	0.000017	0.000042	-27.607548	-84.820447	27.639749
40637	9.863074	-0.433149	0.794894	-0.002314	-0.018436	0.091825	1.000000	0.000040	0.000025	0.000041	-27.614255	-84.820155	27.646805
40638	9.858551	-0.422281	0.816449	-0.024216	-0.007708	0.088590	1.000000	0.000041	0.000023	0.000033	-27.613529	-84.820504	27.647872
40639	9.878738	-0.426062	0.766416	0.027313	-0.010741	0.104849	1.000000	0.000042	0.000030	0.000032	-27.606716	-84.820136	27.641655
40640	9.837255	-0.415364	0.808538	-0.018035	-0.001637	0.066458	1.000000	0.000037	0.000019	0.000050	-27.627090	-84.820001	27.665929
40641	9.885499	-0.396158	0.779940	0.014207	0.019678	0.111412	1.000000	0.000041	0.000023	0.000033	-27.626383	-84.820304	27.665627
40642	9.862731	-0.436331	0.797403	-0.004990	-0.021602	0.091818	1.000000	0.000027	0.000022	0.000015	-27.607626	-84.821726	27.646822
40643	9.869574	-0.405424	0.810428	-0.017550	0.009458	0.098380	1.000000	0.000047	0.000023	0.000042	-27.615947	-84.821494	27.656369
40644	9.873964	-0.417649	0.789825	0.003276	-0.002548	0.101616	1.000000	0.000024	0.000018	0.000032	-27.618114	-84.822392	27.658210
40645	9.862548	-0.438126	0.798685	-0.006587	-0.023498	0.091812	1.000000	0.000039	0.000016	0.000035	-27.623518	-84.823367	27.663827
40646	9.883636	-0.446895	0.808091	-0.014387	-0.031474	0.113933	1.000000	0.000034	0.000022	0.000024	-27.613762	-84.824258	27.655814
40647	9.836836	-0.419202	0.811642	-0.021748	-0.006046	0.066449	1.000000	0.000044	0.000026	0.000017	-27.592101	-84.825081	27.634860
40648	9.841245	-0.431050	0.791013	-0.000929	-0.018054	0.069685	1.000000	0.000040	0.000012	0.000020	-27.582860	-84.827303	27.627238
40649	9.695310	-0.685950	0.702254	0.076472	-0.279444	-0.072113	1.000000	0.000017	0.000035	-0.000006	-27.533756	-84.828404	27.575634
40650	9.422897	0.392737	0.477585	0.276539	0.786910	-0.406433	1.000000	0.000125	0.000083	0.000097	-27.560098	-84.819252	27.616651
40651	10.219961	-0.874114	0.693154	0.130900	-0.444755	0.457522	1.000000	0.000144	0.000163	0.000041	-27.474394	-84.804861	27.542928
40652	10.112016	-1.719459	1.163943	-0.345666	-1.295690	0.422833	1.000000	0.000009	-0.000219	-0.000167	-27.393576	-84.840345	27.456279
40653	10.507777	-0.078238	0.541428	0.298273	0.357521	0.699014	1.000000	0.000012	-0.000074	-0.000029	-27.382039	-84.853869	27.441824
40654	9.397082	0.657970	0.779037	-0.029477	1.047853	-0.418747	1.000000	0.000101	0.000098	0.000171	-27.486667	-84.839301	27.555280
40655	10.197264	0.059801	0.739902	0.076397	0.485082	0.399760	1.000000	0.000066	0.000091	0.000070	-27.484996	-84.830775	27.556979
40656	9.188875	-0.714145	0.811647	-0.072411	-0.330158	-0.566610	1.000000	0.000021	0.000061	0.000005	-27.432547	-84.828779	27.505689
40657	10.735189	-1.091003	0.808688	0.054672	-0.643075	0.988795	1.000000	-0.000003	-0.000061	-0.000019	-27.426745	-84.840323	27.495297
40658	9.813532	-0.146006	0.658978	0.126135	0.261825	0.019735	1.000000	-0.000037	-0.000026	-0.000008	-27.417235	-84.847808	27.477282
40659	9.540178	-0.062327	0.980111	-0.216271	0.334131	-0.230355	1.000000	0.000019	0.000049	0.000056	-27.429298	-84.844208	27.487285
40660	9.937011	-0.292873	0.766168	0.029456	0.120522	0.157347	1.000000	-0.000018	0.000024	0.000048	-27.451673	-84.843681	27.502744
40661	9.698342	-0.555609	0.888422	-0.110747	-0.151126	-0.059702	1.000000	0.000026	0.000030	0.000086	-27.507664	-84.840433	27.557687
40662	9.909119	-0.421114	0.717591	0.076388	-0.007551	0.131005	1.000000	0.000024	0.000060	0.000038	-27.492521	-84.836712	27.540195
40663	9.821008	-0.181939	0.879419	-0.092344	0.227853	0.046230	1.000000	0.000047	0.000012	0.000029	-27.492101	-84.838342	27.540920
40664	9.826919	-0.404287	0.861434	-0.073476	0.006077	0.059922	1.000000	0.000046	0.000027	0.000058	-27.515144	-84.836926	27.562722
40665	9.709303	-0.538999	0.882567	-0.103536	-0.133286	-0.049925	1.000000	0.000051	0.000027	0.000026	-27.502501	-84.837210	27.551610
40666	10.025184	-0.240412	0.813672	-0.010194	0.178300	0.246750	1.000000	0.000041	0.000045	0.000061	-27.519161	-84.833825	27.569612
40667	9.962322	-0.479452	0.875524	-0.076176	-0.062777	0.199033	1.000000	0.000021	0.000013	0.000041	-27.534884	-84.834755	27.583546
40668	9.832705	-0.370847	0.816914	-0.028229	0.040095	0.060740	1.000000	0.000027	0.000053	0.000008	-27.489384	-84.833348	27.534073
40669	9.895985	-0.396201	0.844844	-0.050660	0.017387	0.127050	1.000000	0.000046	0.000027	0.000058	-27.512631	-84.831924	27.558439
40670	9.906799	-0.475046	0.748908	0.046127	-0.060626	0.133437	1.000000	0.000016	0.000033	0.000052	-27.528867	-84.830238	27.569832
40671	9.960041	-0.370253	0.787701	0.011727	0.046771	0.185195	1.000000	0.000041	0.000045	0.000061	-27.545676	-84.826813	27.587214
40672	9.730293	-0.397500	0.839210	-0.057794	0.010243	-0.038362	1.000000	0.000039	0.000016	0.000035	-27.550355	-84.827746	27.589516
40673	9.982987	-0.434955	0.743253	0.057997	-0.016432	0.207193	1.000000	0.000004	0.000021	0.000060	-27.585096	-84.826768	27.620549
40674	9.911676	-0.495354	0.789883	0.005987	-0.079405	0.142425	1.000000	0.000034	0.000034	0.000038	-27.583848	-84.825767	27.618915
40675	9.725843	-0.491094	0.833413	-0.052111	-0.082674	-0.039345	1.000000	0.000008	0.000034	0.000050	-27.598924	-84.824041	27.630726
40676	9.832281	-0.480614	0.793292	-0.003836	-0.067426	0.063015	1.000000	0.000031	-0.000003	0.000054	-27.637358	-84.825840	27.667494
40677	9.774117	-0.473179	0.804916	-0.020427	-0.062163	0.005707	1.000000	0.000030	0.000019	0.000041	-27.648589	-84.826155	27.678007
40678	9.752716	-0.363075	0.824519	-0.042194	0.047070	-0.018652	1.000000	0.000059	0.000004	0.000041	-27.665144	-84.828024	27.698315
40679	9.829382	-0.423380	0.788937	-0.000705	-0.009966	0.057385	1.000000	0.000056	0.000020	0.000036	-27.667722	-84.828444	27.703055
40680	9.883952	-0.528158	0.830138	-0.037317	-0.112326	0.119411	1.000000	0.000039	0.000016	0.000035	-27.673372	-84.829485	27.711239
40681	9.806435	-0.464165	0.806582	-0.020512	-0.051766	0.037647	1.000000	0.000068	-0.000001	0.000027	-27.676648	-84.832560	27.718153
40682	9.975284	-0.370808	0.762112	0.036574	0.048560	0.198352	1.000000	0.000042	0.000001	0.000047	-27.703380	-84.834344	27.745292
40683	9.842588	-0.460631	0.726773	0.061129	-0.046816	0.067140	1.000000	0.000057	0.000016	0.000021	-27.691130	-84.835960	27.735315
40684	9.935701	-0.414642	0.749702	0.045408	0.002672	0.159778	1.000000	0.000050	0.000016	0.000012	-27.669832	-84.838144	27.716118
40685	9.874859	-0.347023	0.756275	0.033608	0.067312	0.096881	1.000000	0.000048	0.000010	0.000021	-27.662072	-84.840370	27.709561
40686	9.956731	-0.423576	0.759412	0.037018	-0.005985	0.181872	1.000000	0.000041	0.000021	0.000026	-27.653576	-84.841245	27.699959
40687	9.935565	-0.415796	0.750861	0.043819	0.000750	0.159786	1.000000	0.000010	0.000028	0.000027	-27.646346	-84.841307	27.689630
40688	9.812323	-0.430875	0.761810	0.023181	-0.019714	0.038544	1.000000	0.000029	0.000029	0.000014	-27.621403	-84.842022	27.662479
40689	9.949565	-0.456277	0.748759	0.047348	-0.039620	0.175249	1.000000	0.000044	0.000038	0.000031	-27.608443	-84.840981	27.650314
40690	9.855424	-0.395707	0.695358	0.092891	0.016881	0.074708	1.000000	0.000037	0.000008	0.000036	-27.619989	-84.842625	27.660560
40691	9.949269	-0.354790	0.778031	0.017831	0.061621	0.173055	1.000000	0.000022	0.000040	0.000019	-27.594677	-84.842002	27.633467
40692	9.887842	-0.385204	0.697065	0.093862	0.028483	0.106691	1.000000	0.000025	0.000028	0.000038	-27.598496	-84.841666	27.637755
40693	9.898157	-0.418702	0.774973	0.017262	-0.004498	0.124570	1.000000	0.000037	0.000039	0.000029	-27.583906	-84.840565	27.623084
40694	9.855876	-0.402685	0.757600	0.031417	0.009628	0.080407	1.000000	0.000052	0.000036	0.000032	-27.572741	-84.839622	27.613395
40695	9.913752	-0.309036	0.775171	0.018470	0.105548	0.135548	1.000000	0.000035	0.000032	0.000031	-27.564292	-84.839191	27.604672
40696	9.855727	-0.403795	0.758945	0.030367	0.008356	0.080412	1.000000	0.000042	0.000030	0.000032	-27.557092	-84.838812	27.596484
40697	9.825604	-0.372893	0.792722	-0.005416	0.038048	0.051818	1.000000	0.000047	0.000056	0.000043	-27.546776	-84.835233	27.587243
40698	9.880965	-0.322491	0.776945	0.014863	0.090770	0.103595	1.000000	0.000056	0.000020	0.000036	-27.549427	-84.835709	27.592858
40699	9.890527	-0.351281	0.795248	-0.002404	0.062507	0.115778	1.000000	0.000028	0.000044	0.000043	-27.548089	-84.833352	27.590453
40700	9.880798	-0.324034	0.778416	0.013811	0.089501	0.103608	1.000000	0.000033	0.000036	0.000046	-27.554575	-84.831779	27.596465
40701	9.846329	-0.384225	0.804880	-0.014887	0.028141	0.073902	1.000000	0.000028	0.000044	0.000043	-27.553238	-84.829422	27.594061
40702	9.871783	-0.405053	0.793832	-0.001473	0.008641	0.099238	1.000000	0.000025	0.000039	0.000052	-27.565142	-84.827142	27.602425
40703	9.869054	-0.346527	0.789387	0.002854	0.067358	0.093719	1.000000	0.000033	0.000037	0.000053	-27.578969	-84.824918	27.615813
40704	9.857496	-0.367406	0.798584	-0.007040	0.046482	0.083814	1.000000	0.000021	0.000026	0.000062	-27.609780	-84.823291	27.639130
40705	9.841452	-0.376670	0.828864	-0.038257	0.037105	0.070644	1.000000	0.000026	0.000048	0.000058	-27.623227	-84.819738	27.651401
40706	9.827343	-0.440713	0.804690	-0.015001	-0.026976	0.057342	1.000000	0.000019	0.000019	0.000063	-27.660908	-84.818910	27.687119
40707	9.850208	-0.402103	0.788131	0.003272	0.012862	0.077169	1.000000	0.000027	0.000035	0.000037	-27.658257	-84.817821	27.683263
40708	9.843766	-0.439124	0.836056	-0.044709	-0.024130	0.076143	1.000000	0.000033	0.000037	0.000053	-27.671244	-84.815528	27.689899
40709	9.843668	-0.440148	0.836676	-0.045239	-0.024756	0.076139	1.000000	0.000029	0.000023	0.000056	-27.697239	-84.814641	27.715066
40710	9.811025	-0.452504	0.836641	-0.047793	-0.038223	0.044147	1.000000	0.000025	0.000028	0.000038	-27.700099	-84.814205	27.714632
40711	9.876061	-0.430356	0.838315	-0.044264	-0.013182	0.108120	1.000000	0.000039	0.000027	0.000049	-27.714218	-84.813306	27.729051
40712	9.885555	-0.459488	0.856511	-0.061568	-0.041431	0.120259	1.000000	0.000036	0.000023	0.000065	-27.748209	-84.811800	27.758336
40713	9.875898	-0.432258	0.839250	-0.045308	-0.014442	0.108114	1.000000	0.000032	0.000015	0.000026	-27.744682	-84.813308	27.754204
40714	9.878377	-0.492517	0.845037	-0.050772	-0.074424	0.113585	1.000000	0.000048	0.000035	0.000056	-27.761493	-84.811244	27.773071
40715	9.894249	-0.485325	0.816078	-0.020613	-0.066343	0.126772	1.000000	0.000030	0.000019	0.000041	-27.772716	-84.811552	27.783577
40716	9.885233	-0.462716	0.858479	-0.063691	-0.043951	0.120235	1.000000	0.000040	0.000025	0.000041	-27.778408	-84.811158	27.784719
40717	9.917090	-0.447211	0.800009	-0.002835	-0.027179	0.146627	1.000000	0.000042	0.000030	0.000032	-27.771644	-84.810787	27.778561
40718	9.858905	-0.439413	0.811881	-0.019288	-0.021717	0.089302	1.000000	0.000047	0.000025	0.000050	-27.787385	-84.809990	27.795739
40719	9.868386	-0.468137	0.830201	-0.036631	-0.049959	0.101423	1.000000	0.000053	0.000034	0.000025	-27.768769	-84.809609	27.778856
40720	9.832603	-0.415878	0.765286	0.025135	0.000510	0.058385	1.000000	0.000024	0.000018	0.000032	-27.770798	-84.810472	27.779867
40721	9.892598	-0.377305	0.728125	0.066748	0.041589	0.113532	1.000000	0.000045	0.000016	0.000044	-27.785302	-84.810897	27.795409
40722	9.852933	-0.420820	0.715631	0.076049	-0.003596	0.074866	1.000000	0.000051	0.000027	0.000026	-27.772625	-84.811189	27.783395
40723	9.857339	-0.433021	0.695275	0.096792	-0.015759	0.078138	1.000000	0.000043	0.000030	0.000032	-27.765863	-84.810818	27.777240
40724	9.852806	-0.421847	0.716763	0.075001	-0.004874	0.074873	1.000000	0.000049	0.000020	0.000027	-27.759055	-84.811732	27.768560
40725	9.817671	-0.374219	0.711389	0.077439	0.041035	0.037445	1.000000	0.000043	0.000028	0.000025	-27.744923	-84.811960	27.755090
40726	9.871248	-0.371440	0.721661	0.071544	0.045788	0.091508	1.000000	0.000044	0.000026	0.000017	-27.722920	-84.812747	27.730119
40727	9.829682	-0.359826	0.763449	0.026465	0.055430	0.052971	1.000000	0.000024	0.000016	0.000024	-27.717748	-84.814194	27.723465
40728	9.885775	-0.416620	0.778767	0.015550	0.000840	0.112450	1.000000	0.000055	0.000009	0.000023	-27.711413	-84.816468	27.718828
40729	9.902308	-0.413671	0.809256	-0.013656	0.004342	0.131231	1.000000	0.000010	0.000028	0.000027	-27.704193	-84.816527	27.708511
40730	9.927780	-0.434187	0.797895	-0.000342	-0.015245	0.156553	1.000000	0.000032	0.000015	0.000026	-27.700531	-84.818067	27.705420
40731	9.886199	-0.422619	0.839710	-0.045417	-0.005579	0.118000	1.000000	0.000028	0.000031	0.000021	-27.683087	-84.818175	27.686884
40732	9.876592	-0.395015	0.822646	-0.029100	0.021391	0.105909	1.000000	0.000027	0.000033	0.000029	-27.672890	-84.817714	27.676105
40733	9.930145	-0.392451	0.833018	-0.035030	0.026136	0.159965	1.000000	0.000043	0.000030	0.000032	-27.666129	-84.817340	27.669952
40734	9.934546	-0.404815	0.812661	-0.014301	0.013949	0.163238	1.000000	0.000032	0.000026	0.000040	-27.670921	-84.816983	27.672654
40735	9.880828	-0.408713	0.803629	-0.009426	0.007947	0.109181	1.000000	0.000051	0.000040	0.000047	-27.674453	-84.814800	27.677755
40736	9.885205	-0.421092	0.783586	0.011316	-0.004244	0.112455	1.000000	0.000031	0.000048	0.000026	-27.651472	-84.812905	27.648807
40737	9.855122	-0.389965	0.816980	-0.024297	0.025651	0.083863	1.000000	0.000045	0.000016	0.000044	-27.665988	-84.813331	27.664361
40738	9.844981	-0.358168	0.740054	0.051421	0.057097	0.066266	1.000000	0.000054	0.000024	0.000052	-27.683357	-84.812583	27.683318
40739	9.840424	-0.347173	0.761699	0.029646	0.068026	0.062997	1.000000	0.000054	0.000044	0.000031	-27.666013	-84.810930	27.667851
40740	9.849847	-0.375844	0.780223	0.012259	0.039790	0.075071	1.000000	0.000042	0.000032	0.000040	-27.665998	-84.809918	27.665317
40741	9.840269	-0.348516	0.763079	0.028615	0.066756	0.063009	1.000000	0.000032	0.000026	0.000040	-27.671094	-84.809554	27.669894
40742	9.870738	-0.385611	0.790597	0.003784	0.031107	0.097117	1.000000	0.000042	0.000032	0.000040	-27.671124	-84.808551	27.666179
40743	9.849611	-0.378151	0.782084	0.010695	0.037892	0.075080	1.000000	0.000023	0.000032	0.000053	-27.689307	-84.806927	27.682855
40744	9.837992	-0.398575	0.791243	0.000721	0.017080	0.065102	1.000000	0.000019	0.000025	0.000021	-27.675919	-84.807643	27.666299
40745	9.830854	-0.430758	0.779385	0.011985	-0.015300	0.058397	1.000000	0.000029	0.000023	0.000056	-27.701865	-84.806748	27.691419
40746	9.858878	-0.408505	0.801486	-0.007782	0.008397	0.087141	1.000000	0.000034	0.000034	0.000038	-27.700708	-84.805763	27.691899
40747	9.868285	-0.437272	0.819802	-0.025210	-0.019824	0.099190	1.000000	0.000023	0.000020	0.000039	-27.710272	-84.806008	27.699871
40748	9.879768	-0.418371	0.811654	-0.016296	-0.000288	0.109175	1.000000	0.000022	0.000022	0.000047	-27.727185	-84.805720	27.715712
40749	9.851592	-0.442249	0.790545	0.002406	-0.025249	0.080429	1.000000	0.000031	0.000017	0.000033	-27.731043	-84.806624	27.718910
40750	9.893590	-0.459584	0.809355	-0.013030	-0.040732	0.124494	1.000000	0.000032	0.000026	0.000040	-27.735890	-84.806312	27.725824
40751	9.914038	-0.464109	0.759384	0.038371	-0.044366	0.141044	1.000000	0.000030	0.000019	0.000041	-27.747109	-84.806615	27.736328
40752	9.877399	-0.468859	0.839933	-0.044796	-0.050578	0.111211	1.000000	0.000038	0.000037	0.000022	-27.724978	-84.806132	27.713460
40753	9.893358	-0.461527	0.811083	-0.014634	-0.042631	0.124484	1.000000	0.000039	0.000027	0.000049	-27.739083	-84.805225	27.727868
40754	9.876723	-0.465659	0.781648	0.013525	-0.047435	0.105732	1.000000	0.000044	0.000038	0.000031	-27.725827	-84.804203	27.717568
40755	9.858210	-0.414908	0.806399	-0.012557	0.002706	0.087139	1.000000	0.000046	0.000027	0.000058	-27.748932	-84.802754	27.741798
40756	9.883628	-0.435811	0.795335	0.000691	-0.016949	0.112448	1.000000	0.000052	0.000036	0.000032	-27.737345	-84.801757	27.729395
40757	9.848590	-0.388231	0.789975	0.003316	0.029031	0.075115	1.000000	0.000043	0.000030	0.000032	-27.730619	-84.801382	27.723280
40758	9.845914	-0.432045	0.757277	0.035781	-0.014956	0.071676	1.000000	0.000048	0.000022	0.000035	-27.731621	-84.801777	27.727414
40759	9.852939	-0.401174	0.770147	0.023487	0.016168	0.078402	1.000000	0.000043	0.000030	0.000032	-27.724896	-84.801403	27.721300
40760	9.878380	-0.421778	0.758977	0.036729	-0.003502	0.103712	1.000000	0.000034	0.000022	0.000024	-27.714735	-84.802217	27.710816
40761	9.852817	-0.402187	0.771172	0.022440	0.014899	0.078407	1.000000	0.000041	0.000023	0.000034	-27.714129	-84.802510	27.710624
40762	9.864335	-0.383070	0.763078	0.031387	0.034414	0.088422	1.000000	0.000025	0.000026	0.000030	-27.709795	-84.802673	27.703159
40763	9.864269	-0.383726	0.763602	0.030861	0.033782	0.088426	1.000000	0.000040	0.000025	0.000041	-27.716543	-84.802365	27.710267
40764	9.859728	-0.372469	0.784990	0.009101	0.044755	0.085145	1.000000	0.000035	0.000020	0.000017	-27.699647	-84.803854	27.692690
40765	9.894616	-0.420984	0.791475	0.005374	-0.002505	0.122455	1.000000	0.000024	0.000016	0.000024	-27.694492	-84.805298	27.686054
40766	9.852523	-0.404792	0.773562	0.019785	0.011729	0.078417	1.000000	0.000035	0.000032	0.000031	-27.686179	-84.804949	27.681775
40767	9.906078	-0.402281	0.783935	0.013772	0.016370	0.132477	1.000000	0.000034	0.000022	0.000024	-27.676558	-84.805783	27.671747
40768	9.906013	-0.402700	0.784531	0.013218	0.015733	0.132479	1.000000	0.000053	0.000034	0.000025	-27.658516	-84.805526	27.656856
40769	9.868864	-0.402796	0.805290	-0.010524	0.014011	0.097151	1.000000	0.000037	0.000008	0.000036	-27.670150	-84.807156	27.668511
40770	9.868801	-0.403492	0.805710	-0.011044	0.013376	0.097152	1.000000	0.000049	0.000031	0.000041	-27.671913	-84.806210	27.670241
40771	9.884805	-0.396233	0.776847	0.019122	0.021265	0.110469	1.000000	0.000035	0.000032	0.000031	-27.663532	-84.805774	27.661595
40772	9.880249	-0.385022	0.798321	-0.002613	0.032251	0.107183	1.000000	0.000041	0.000023	0.000034	-27.662429	-84.806040	27.657000
40773	9.901180	-0.394012	0.808190	-0.010630	0.024178	0.129198	1.000000	0.000044	0.000040	0.000038	-27.656953	-84.804394	27.652277
40774	9.851958	-0.409462	0.778285	0.015559	0.006661	0.078429	1.000000	0.000036	0.000041	0.000037	-27.649471	-84.802689	27.643750
40775	9.842468	-0.382196	0.761171	0.032008	0.033608	0.066456	1.000000	0.000024	0.000030	0.000046	-27.660265	-84.801661	27.653094
40776	9.853999	-0.363314	0.753132	0.040959	0.053104	0.076498	1.000000	0.000032	0.000026	0.000040	-27.665209	-84.801341	27.658561
40777	9.863331	-0.392027	0.771460	0.023453	0.024895	0.088473	1.000000	0.000056	0.000020	0.000037	-27.667934	-84.801751	27.663456
40778	9.870381	-0.361222	0.784309	0.011195	0.056023	0.095228	1.000000	0.000034	0.000034	0.000038	-27.666811	-84.800767	27.662364
40779	9.863179	-0.393394	0.772716	0.022391	0.023625	0.088478	1.000000	0.000034	0.000034	0.000038	-27.665793	-84.799730	27.661027
40780	9.888588	-0.414261	0.761734	0.035560	0.003899	0.113779	1.000000	0.000042	0.000032	0.000040	-27.666265	-84.798820	27.661247
40781	9.863021	-0.394827	0.774002	0.021328	0.022353	0.088484	1.000000	0.000032	0.000026	0.000040	-27.671361	-84.798451	27.665826
40782	9.851325	-0.415210	0.783236	0.011298	0.001588	0.078437	1.000000	0.000034	0.000034	0.000038	-27.670276	-84.797506	27.663896
40783	9.879366	-0.392801	0.805429	-0.008452	0.025276	0.107200	1.000000	0.000042	0.000032	0.000040	-27.670921	-84.796528	27.665100
40784	9.839541	-0.436485	0.793034	0.000756	-0.019802	0.068385	1.000000	0.000027	0.000016	0.000058	-27.702269	-84.796270	27.693521
40785	9.893071	-0.434337	0.803473	-0.005303	-0.015213	0.122443	1.000000	0.000029	0.000040	0.000028	-27.686134	-84.795106	27.676444
40786	9.881367	-0.454629	0.812705	-0.015334	-0.035971	0.112385	1.000000	0.000030	0.000019	0.000041	-27.697122	-84.795456	27.689184
40787	9.876807	-0.443576	0.833995	-0.037067	-0.024949	0.109088	1.000000	0.000030	0.000019	0.000041	-27.708329	-84.795754	27.699678
40788	9.876734	-0.444320	0.834470	-0.037588	-0.025582	0.109085	1.000000	0.000032	0.000026	0.000040	-27.712688	-84.795335	27.700069
40789	9.871786	-0.428927	0.796272	0.000094	-0.010299	0.100439	1.000000	0.000039	0.000027	0.000049	-27.726779	-84.794422	27.714465
40790	9.864563	-0.461136	0.784609	0.011262	-0.042708	0.093669	1.000000	0.000043	0.000030	0.000032	-27.719698	-84.794049	27.708017
40791	9.862270	-0.402437	0.779625	0.016057	0.016001	0.088506	1.000000	0.000031	0.000030	0.000055	-27.739451	-84.792475	27.727143
40792	9.855052	-0.434762	0.767826	0.027218	-0.016408	0.081736	1.000000	0.000054	0.000013	0.000038	-27.748146	-84.793581	27.737273
40793	9.850501	-0.423551	0.789121	0.005496	-0.005375	0.078440	1.000000	0.000026	0.000026	0.000030	-27.744240	-84.793753	27.732030
40794	9.866570	-0.416228	0.760166	0.035676	0.002427	0.091808	1.000000	0.000051	0.000027	0.000026	-27.731050	-84.793979	27.717562
40795	9.862010	-0.404992	0.781593	0.013958	0.013463	0.088513	1.000000	0.000040	0.000025	0.000041	-27.737806	-84.793667	27.724679
40796	9.866430	-0.417482	0.761294	0.034615	0.001155	0.091812	1.000000	0.000043	0.000030	0.000032	-27.730897	-84.793317	27.717825
40797	9.866362	-0.418058	0.761864	0.034086	0.000522	0.091814	1.000000	0.000033	0.000024	0.000032	-27.728655	-84.793548	27.715124
40798	9.887282	-0.427028	0.771562	0.026019	-0.007578	0.113806	1.000000	0.000031	0.000017	0.000033	-27.732268	-84.794473	27.716722
40799	9.898874	-0.407903	0.763410	0.034998	0.011888	0.123887	1.000000	0.000043	0.000028	0.000025	-27.718244	-84.794698	27.703370
40800	9.866175	-0.419647	0.763411	0.032496	-0.001388	0.091819	1.000000	0.000027	0.000033	0.000029	-27.707937	-84.794211	27.691231
40801	9.882586	-0.416646	0.794197	0.003244	0.002197	0.110510	1.000000	0.000036	0.000030	0.000023	-27.692246	-84.794376	27.675335
40802	9.857060	-0.396959	0.806203	-0.010907	0.020708	0.085223	1.000000	0.000037	0.000008	0.000036	-27.703063	-84.795928	27.681817
40803	9.889638	-0.386225	0.807244	-0.009463	0.032708	0.117297	1.000000	0.000036	0.000030	0.000023	-27.687366	-84.796092	27.665915
40804	9.882410	-0.418188	0.795581	0.001676	0.000292	0.110510	1.000000	0.000026	0.000026	0.000030	-27.683031	-84.796247	27.656870
40805	9.861372	-0.410401	0.786805	0.008694	0.007126	0.088526	1.000000	0.000048	0.000022	0.000035	-27.684129	-84.796596	27.659263
40806	9.872966	-0.391442	0.778673	0.017693	0.026577	0.098619	1.000000	0.000032	0.000026	0.000040	-27.688747	-84.796206	27.660031
40807	9.877395	-0.403868	0.758377	0.038340	0.014249	0.101923	1.000000	0.000043	0.000028	0.000025	-27.674721	-84.796428	27.646678
40808	9.898307	-0.412773	0.768123	0.030258	0.006142	0.123908	1.000000	0.000039	0.000016	0.000035	-27.679905	-84.797394	27.652459
40809	9.879945	-0.361823	0.792381	0.004464	0.056460	0.105422	1.000000	0.000039	0.000027	0.000049	-27.694008	-84.796478	27.666870
40810	9.851726	-0.385745	0.771479	0.023139	0.031507	0.076649	1.000000	0.000049	0.000031	0.000041	-27.696209	-84.795594	27.666140
40811	9.879796	-0.363209	0.793613	0.003412	0.055193	0.105430	1.000000	0.000036	0.000030	0.000023	-27.680514	-84.795757	27.650241
40812	9.884227	-0.375655	0.773310	0.024050	0.042848	0.108737	1.000000	0.000047	0.000024	0.000043	-27.688769	-84.795541	27.658179
40813	9.847016	-0.375856	0.794064	0.000390	0.041318	0.073354	1.000000	0.000032	0.000028	0.000047	-27.701193	-84.794565	27.670033
40814	9.884078	-0.377289	0.774415	0.023007	0.041574	0.108745	1.000000	0.000032	0.000026	0.000040	-27.705621	-84.794159	27.672772
40815	9.872327	-0.397550	0.783658	0.012947	0.020867	0.098640	1.000000	0.000035	0.000032	0.000031	-27.697264	-84.793720	27.664155
40816	9.856064	-0.406088	0.813796	-0.018274	0.011871	0.085227	1.000000	0.000031	0.000030	0.000055	-27.716494	-84.792148	27.679064
40817	9.872156	-0.399105	0.785018	0.011894	0.019595	0.098644	1.000000	0.000029	0.000040	0.000028	-27.700351	-84.790982	27.661983
40818	9.893039	-0.408105	0.794947	0.003801	0.011480	0.120619	1.000000	0.000015	0.000022	0.000038	-27.707475	-84.791139	27.665341
40819	9.848637	-0.439681	0.803425	-0.008231	-0.021813	0.078416	1.000000	0.000040	0.000025	0.000041	-27.714240	-84.790824	27.672469
40820	9.860246	-0.420891	0.795323	0.000785	-0.002382	0.088532	1.000000	0.000039	0.000027	0.000049	-27.727707	-84.789892	27.683839
40821	9.860171	-0.421630	0.795859	0.000255	-0.003012	0.088531	1.000000	0.000033	0.000024	0.000032	-27.725474	-84.790120	27.681149
40822	9.852917	-0.453722	0.784083	0.011346	-0.035442	0.081717	1.000000	0.000039	0.000016	0.000035	-27.730412	-84.791045	27.684268
40823	9.876489	-0.419494	0.826961	-0.029531	-0.000024	0.107192	1.000000	0.000041	0.000034	0.000047	-27.738377	-84.789458	27.692739
40824	9.880913	-0.432024	0.806705	-0.008907	-0.012393	0.110499	1.000000	0.000034	0.000022	0.000025	-27.728345	-84.790299	27.680872
40825	9.864382	-0.436247	0.777151	0.019298	-0.017281	0.091839	1.000000	0.000048	0.000035	0.000056	-27.745303	-84.788168	27.699157
40826	9.859807	-0.425110	0.798521	-0.002390	-0.006181	0.088530	1.000000	0.000032	0.000015	0.000026	-27.741659	-84.789721	27.690368
40827	9.864247	-0.437603	0.778103	0.018228	-0.018553	0.091838	1.000000	0.000040	0.000025	0.000041	-27.748423	-84.789405	27.697496
40828	9.854940	-0.410288	0.760579	0.034859	0.008340	0.080005	1.000000	0.000031	0.000017	0.000034	-27.751302	-84.790226	27.694103
40829	9.859620	-0.426907	0.799868	-0.003962	-0.008078	0.088528	1.000000	0.000043	0.000028	0.000025	-27.737312	-84.790449	27.680788
40831	9.862994	-0.409990	0.777039	0.038873	0.018402	9.991360	1.000000	0.000074	0.000059	0.000079	-27.762295	-84.784685	27.710005
40832	9.875601	-0.421230	0.772162	0.025680	-0.001047	0.101974	1.000000	0.000032	0.000026	0.000040	-27.767374	-84.784308	27.714572
40833	9.854590	-0.413476	0.763378	0.032771	0.005794	0.080014	1.000000	0.000026	0.000026	0.000031	-27.762489	-84.784389	27.701914
40834	9.880200	-0.438583	0.811882	-0.013662	-0.018093	0.110484	1.000000	0.000037	0.000008	0.000037	-27.774180	-84.786009	27.713627
40835	9.866205	-0.394956	0.755464	0.041274	0.024563	0.090161	1.000000	0.000037	0.000028	0.000016	-27.750965	-84.786811	27.683789
40836	9.859145	-0.431048	0.803487	-0.007125	-0.011873	0.088522	1.000000	0.000033	0.000024	0.000032	-27.748736	-84.787038	27.681104
40837	9.870804	-0.411965	0.795315	0.001901	0.007534	0.098667	1.000000	0.000034	0.000022	0.000025	-27.739208	-84.787925	27.675929
40838	9.912613	-0.429272	0.814527	-0.013848	-0.008070	0.142581	1.000000	0.000043	0.000030	0.000032	-27.732542	-84.787543	27.669884
40839	9.903318	-0.401835	0.797241	0.002775	0.018818	0.130774	1.000000	0.000045	0.000038	0.000031	-27.720034	-84.786614	27.662215
40840	9.866084	-0.401667	0.817983	-0.020841	0.017405	0.095355	1.000000	0.000024	0.000018	0.000032	-27.722240	-84.787448	27.662888
40841	9.898496	-0.386795	0.759370	0.040036	0.033298	0.122290	1.000000	0.000057	0.000016	0.000022	-27.709853	-84.789044	27.647649
40842	9.882192	-0.395031	0.789495	0.008809	0.024403	0.108825	1.000000	0.000028	0.000044	0.000043	-27.708338	-84.786669	27.645087
40843	9.861182	-0.387330	0.780786	0.015895	0.031255	0.086874	1.000000	0.000031	0.000017	0.000034	-27.712011	-84.787604	27.646222
40844	9.861120	-0.387930	0.781270	0.015368	0.030625	0.086877	1.000000	0.000050	0.000029	0.000034	-27.707036	-84.787281	27.642745
40845	9.865553	-0.400420	0.761077	0.035970	0.018205	0.090195	1.000000	0.000035	0.000032	0.000031	-27.698158	-84.786849	27.630678
40846	9.877397	-0.385623	0.812666	-0.014431	0.033644	0.105516	1.000000	0.000032	0.000026	0.000040	-27.703244	-84.786471	27.635252
40847	9.865408	-0.401703	0.762276	0.034932	0.016928	0.090201	1.000000	0.000035	0.000032	0.000031	-27.694022	-84.785966	27.618452
40848	9.860819	-0.390386	0.783842	0.013283	0.028085	0.086888	1.000000	0.000036	0.000041	0.000037	-27.686884	-84.784253	27.611202
