// Start Time: Unknown
// Update Rate: 40.0Hz
// Filter Profile: human (46.1)
// Firmware Version: 4.4.0
PacketCounter	Acc_X	Acc_Y	Acc_Z	FreeAcc_X	FreeAcc_Y	FreeAcc_Z	OriInc_q0	OriInc_q1	OriInc_q2	OriInc_q3	Roll	Pitch	Yaw
32312	9.544404	-0.061821	2.421438	-0.000000	0.000000	0.034283	1.000000	0.000080	0.000021	0.000020	-1.462638	-75.761081	-6.731210
32313	9.548798	-0.053284	2.412020	0.011390	0.006958	0.036172	1.000000	0.000098	0.000029	0.000020	-1.459978	-75.757658	-6.722407
32314	9.543609	-0.048046	2.424410	-0.000188	0.013917	0.034157	1.000000	0.000084	0.000035	0.000021	-1.461167	-75.752440	-6.712033
32315	9.530432	-0.037948	2.399112	0.023175	0.020579	0.015098	1.000000	0.000077	0.000057	0.000012	-1.456959	-75.745924	-6.707286
32316	9.547152	-0.025871	2.418187	0.011624	0.034564	0.035920	1.000000	0.000066	0.000044	0.000030	-1.461049	-75.740982	-6.695179
32317	9.554475	-0.046340	2.414846	0.014526	0.013778	0.042322	1.000000	0.000054	0.000037	0.000042	-1.470158	-75.736840	-6.679162
32318	9.536188	-0.056245	2.428433	-0.003418	0.006631	0.028008	1.000000	0.000072	0.000063	0.000049	-1.479271	-75.730005	-6.660950
32319	9.542946	-0.063205	2.427141	-0.000508	-0.000396	0.034283	1.000000	0.000073	0.000039	0.000046	-1.487019	-75.725727	-6.644009
32320	9.541271	-0.076280	2.416609	0.008164	-0.014428	0.030148	1.000000	0.000070	0.000043	0.000053	-1.498373	-75.721005	-6.623842
32321	9.556569	-0.077269	2.424134	0.005288	-0.014365	0.046835	1.000000	0.000074	0.000033	0.000052	-1.510107	-75.717627	-6.602797
32322	9.532433	-0.083430	2.408935	0.013681	-0.021562	0.019736	1.000000	0.000081	0.000032	0.000033	-1.514392	-75.714515	-6.588757
32323	9.550797	-0.087927	2.395224	0.031310	-0.028307	0.034178	1.000000	0.000079	0.000044	0.000023	-1.516229	-75.710436	-6.577539
32324	9.533497	-0.070954	2.421854	0.004424	-0.007401	0.023872	1.000000	0.000086	0.000043	0.000004	-1.512052	-75.707458	-6.572169
32325	9.542264	-0.078515	2.429924	-0.001653	-0.013971	0.034409	1.000000	0.000066	0.000044	0.000030	-1.521713	-75.704115	-6.554535
32326	9.546564	-0.070245	2.420927	0.009921	-0.006808	0.036300	1.000000	0.000084	0.000052	0.000029	-1.530117	-75.699641	-6.535926
32327	9.546312	-0.070296	2.421917	0.009683	-0.006525	0.036300	1.000000	0.000078	0.000051	0.000017	-1.534404	-75.695319	-6.522460
32328	9.536595	-0.048990	2.417445	0.015259	0.014353	0.025638	1.000000	0.000069	0.000047	0.000018	-1.539578	-75.691524	-6.508756
32329	9.548907	-0.020871	2.419190	0.020932	0.042271	0.037811	1.000000	0.000090	0.000036	0.000033	-1.547066	-75.689811	-6.490541
32330	9.549269	-0.034958	2.417914	0.020390	0.028378	0.037940	1.000000	0.000071	0.000020	0.000050	-1.557941	-75.690253	-6.469559
32331	9.549078	-0.035295	2.418664	0.019672	0.028167	0.037942	1.000000	0.000083	0.000058	0.000024	-1.551440	-75.687627	-6.464993
32332	9.558312	-0.056967	2.425021	0.013367	0.007273	0.048605	1.000000	0.000061	0.000039	0.000053	-1.559897	-75.685536	-6.448676
32333	9.527131	-0.056964	2.412250	0.018469	0.006657	0.015234	1.000000	0.000079	0.000047	0.000053	-1.565819	-75.682301	-6.432668
32334	9.535883	-0.065119	2.420345	0.012290	-0.000457	0.025769	1.000000	0.000063	0.000042	0.000041	-1.568099	-75.679364	-6.421517
32335	9.547720	-0.077327	2.407189	0.026560	-0.014512	0.034067	1.000000	0.000060	0.000045	0.000048	-1.574196	-75.676777	-6.406932
32336	9.546879	-0.088716	2.436928	-0.003544	-0.021531	0.040683	1.000000	0.000073	0.000040	0.000046	-1.578393	-75.676089	-6.391525
32337	9.538222	-0.095178	2.428577	0.001935	-0.028621	0.030275	1.000000	0.000081	0.000032	0.000033	-1.580957	-75.673802	-6.378598
32338	9.556111	-0.086254	2.416675	0.019335	-0.021488	0.044603	1.000000	0.000063	0.000042	0.000041	-1.594003	-75.671489	-6.359931
32339	9.546289	-0.089811	2.439198	-0.004712	-0.021244	0.040683	1.000000	0.000085	0.000046	0.000034	-1.603187	-75.668836	-6.343015
32340	9.548682	-0.080289	2.420573	0.015321	-0.014224	0.038328	1.000000	0.000074	0.000037	0.000016	-1.604345	-75.668051	-6.333152
32341	9.549967	-0.067732	2.432582	0.005279	-0.000063	0.042458	1.000000	0.000074	0.000037	0.000016	-1.606144	-75.671644	-6.324536
32342	9.544897	-0.037986	2.417877	0.022846	0.027745	0.033700	1.000000	0.000084	0.000035	0.000021	-1.612807	-75.668159	-6.311448
32343	9.543250	-0.050354	2.407306	0.030976	0.014044	0.029575	1.000000	0.000077	0.000039	0.000004	-1.607924	-75.667446	-6.309612
32344	9.542548	-0.036623	2.409939	0.030876	0.028035	0.029448	1.000000	0.000075	0.000048	0.000029	-1.615934	-75.662670	-6.296865
32345	9.547822	-0.055760	2.397474	0.041860	0.007254	0.031606	1.000000	0.000079	0.000062	0.000030	-1.616388	-75.659951	-6.286370
32346	9.554864	-0.047019	2.438356	0.006228	0.021329	0.048485	1.000000	0.000090	0.000054	0.000041	-1.622743	-75.656588	-6.271221
32347	9.542264	-0.051108	2.411195	0.028777	0.014266	0.029581	1.000000	0.000067	0.000038	0.000035	-1.630018	-75.656873	-6.260486
32348	9.551043	-0.059182	2.419155	0.022142	0.007539	0.040113	1.000000	0.000075	0.000034	0.000051	-1.643715	-75.657772	-6.242507
32349	9.557850	-0.066139	2.417693	0.025027	0.000496	0.046394	1.000000	0.000073	0.000046	0.000041	-1.648546	-75.652764	-6.227781
32350	9.541458	-0.077030	2.440765	-0.001666	-0.006612	0.036305	1.000000	0.000078	0.000053	0.000047	-1.655662	-75.646710	-6.209909
32351	9.545484	-0.084461	2.389765	0.048183	-0.020490	0.027619	1.000000	0.000066	0.000044	0.000029	-1.664352	-75.642055	-6.199949
32352	9.555022	-0.090680	2.438030	0.003202	-0.020324	0.048866	1.000000	0.000065	0.000036	0.000046	-1.670889	-75.643750	-6.181245
32353	9.539349	-0.090649	2.431981	0.005070	-0.020475	0.032183	1.000000	0.000079	0.000045	0.000023	-1.669151	-75.643972	-6.173103
32354	9.550670	-0.088500	2.420835	0.017652	-0.020046	0.040376	1.000000	0.000099	0.000061	0.000005	-1.663084	-75.650420	-6.175536
32355	9.529935	-0.082764	2.426537	0.008264	-0.012906	0.021658	1.000000	0.000057	0.000023	0.000022	-1.674221	-75.650247	-6.165953
32356	9.562865	-0.060085	2.423160	0.023545	0.008061	0.052559	1.000000	0.000086	0.000043	0.000004	-1.666392	-75.643905	-6.162838
32357	9.539730	-0.039380	2.421028	0.022451	0.028856	0.029469	1.000000	0.000088	0.000031	0.000015	-1.666970	-75.646039	-6.156917
32358	9.553560	-0.052226	2.417297	0.026482	0.015207	0.042039	1.000000	0.000070	0.000041	0.000023	-1.665107	-75.652801	-6.149842
32359	9.544404	-0.044805	2.410843	0.031382	0.021814	0.031516	1.000000	0.000085	0.000046	0.000034	-1.663092	-75.652664	-6.136013
32360	9.543732	-0.031353	2.413355	0.029496	0.035985	0.031393	1.000000	0.000081	0.000033	0.000033	-1.671995	-75.660526	-6.126720
32361	9.537490	-0.052606	2.412828	0.025584	0.015334	0.025368	1.000000	0.000063	0.000048	0.000036	-1.680968	-75.659986	-6.115031
32362	9.554651	-0.054449	2.430125	0.012476	0.015723	0.046289	1.000000	0.000072	0.000052	0.000036	-1.688062	-75.662966	-6.104685
32363	9.542068	-0.058834	2.403021	0.035512	0.008459	0.027419	1.000000	0.000066	0.000047	0.000059	-1.703215	-75.659251	-6.081145
32364	9.545662	-0.061894	2.423113	0.016986	0.007836	0.035897	1.000000	0.000069	0.000066	0.000055	-1.698332	-75.656414	-6.059212
32365	9.541739	-0.098246	2.430660	0.004472	-0.026439	0.034232	1.000000	0.000073	0.000046	0.000041	-1.711912	-75.654736	-6.045186
32366	9.546116	-0.090137	2.421539	0.016602	-0.019613	0.036153	1.000000	0.000099	0.000041	0.000032	-1.713949	-75.647976	-6.031931
32367	9.545472	-0.076752	2.423950	0.015514	-0.005291	0.036027	1.000000	0.000060	0.000028	0.000040	-1.734263	-75.651593	-6.017992
32368	9.545767	-0.090921	2.422887	0.016560	-0.019417	0.036153	1.000000	0.000064	0.000042	0.000041	-1.739972	-75.639870	-5.998267
32369	9.543159	-0.076278	2.415922	0.024767	-0.005049	0.031791	1.000000	0.000083	0.000041	0.000016	-1.750626	-75.639231	-5.993826
32370	9.556521	-0.075378	2.413935	0.030242	-0.004576	0.044235	1.000000	0.000079	0.000027	0.000015	-1.755719	-75.639260	-5.988787
32371	9.528800	-0.063113	2.421734	0.018023	0.009861	0.019219	1.000000	0.000091	0.000051	0.000010	-1.768237	-75.635544	-5.987631
32372	9.537065	-0.056903	2.431552	0.011858	0.016942	0.029612	1.000000	0.000056	0.000029	0.000017	-1.769120	-75.634436	-5.981360
32373	9.536914	-0.056656	2.432147	0.010418	0.017117	0.029613	1.000000	0.000114	0.000032	0.000001	-1.756586	-75.639337	-5.982911
32374	9.548366	-0.054599	2.420583	0.023825	0.016985	0.037828	1.000000	0.000072	0.000029	0.000033	-1.755682	-75.643975	-5.969265
32375	9.539273	-0.047231	2.413912	0.029345	0.024107	0.027307	1.000000	0.000080	0.000039	0.000028	-1.765792	-75.641494	-5.959674
32376	9.541003	-0.048668	2.424192	0.020291	0.025054	0.031538	1.000000	0.000064	0.000042	0.000041	-1.796736	-75.638596	-5.946091
32377	9.548535	-0.044824	2.393888	0.052299	0.024912	0.031289	1.000000	0.000075	0.000048	0.000029	-1.799802	-75.635167	-5.935924
32378	9.543698	-0.053291	2.404771	0.039392	0.018664	0.029367	1.000000	0.000069	0.000047	0.000017	-1.811474	-75.636528	-5.934318
32379	9.542020	-0.066077	2.394417	0.046841	0.004802	0.025276	1.000000	0.000054	0.000044	0.000036	-1.818515	-75.638951	-5.922374
32380	9.534037	-0.070672	2.426447	0.013759	0.004734	0.025518	1.000000	0.000073	0.000046	0.000041	-1.820435	-75.637460	-5.905303
32381	9.551919	-0.062233	2.414848	0.028438	0.012463	0.039903	1.000000	0.000057	0.000060	0.000067	-1.854061	-75.649325	-5.882539
32382	9.543629	-0.082767	2.405242	0.033586	-0.007673	0.029656	1.000000	0.000077	0.000059	0.000042	-1.879118	-75.646019	-5.868485
32383	9.535562	-0.087249	2.437558	-0.000108	-0.007091	0.029883	1.000000	0.000090	0.000060	0.000035	-1.889956	-75.646947	-5.857820
32384	9.536535	-0.090460	2.407906	0.026947	-0.013445	0.023510	1.000000	0.000088	0.000049	0.000022	-1.902385	-75.655344	-5.853802
32385	9.551283	-0.077190	2.417441	0.023912	0.000559	0.040049	1.000000	0.000095	0.000050	0.000034	-1.905486	-75.651089	-5.841987
32386	9.550572	-0.063656	2.420132	0.022358	0.014215	0.039917	1.000000	0.000085	0.000052	0.000029	-1.900101	-75.654523	-5.829802
32387	9.555378	-0.069188	2.409535	0.032414	0.007807	0.041996	1.000000	0.000090	0.000060	0.000035	-1.913754	-75.657832	-5.816730
32388	9.536944	-0.078508	2.423230	0.015125	0.001624	0.027601	1.000000	0.000085	0.000052	0.000029	-1.935536	-75.649082	-5.807949
32389	9.547819	-0.063059	2.413917	0.029463	0.015899	0.035699	1.000000	0.000089	0.000066	0.000030	-1.948044	-75.644798	-5.797657
32390	9.547493	-0.062961	2.415211	0.029119	0.015942	0.035699	1.000000	0.000075	0.000069	0.000001	-1.939196	-75.638917	-5.801244
32391	9.545755	-0.075358	2.405138	0.035965	0.002291	0.031626	1.000000	0.000059	0.000049	0.000012	-1.938937	-75.644412	-5.796753
32392	9.551565	-0.054350	2.407441	0.036269	0.023676	0.037655	1.000000	0.000053	0.000064	0.000008	-1.943931	-75.654038	-5.796811
32393	9.532610	-0.049625	2.423044	0.017455	0.031327	0.023113	1.000000	0.000071	0.000072	0.000008	-1.953921	-75.652769	-5.802115
32394	9.536114	-0.051569	2.443292	-0.002494	0.030910	0.031542	1.000000	0.000071	0.000055	0.000000	-1.924201	-75.659714	-5.805693
32395	9.545672	-0.086241	2.448314	-0.010023	-0.002261	0.042333	1.000000	0.000091	0.000051	0.000010	-1.942664	-75.662994	-5.809296
32396	9.562159	-0.089525	2.425448	0.014809	-0.008686	0.052677	1.000000	0.000092	0.000045	0.000016	-1.948235	-75.667867	-5.805627
32397	9.551602	-0.094169	2.407728	0.028872	-0.016463	0.038101	1.000000	0.000132	0.000040	0.000000	-1.916698	-75.665934	-5.804301
32398	9.548050	-0.105191	2.387847	0.044843	-0.029906	0.029835	1.000000	0.000086	0.000044	0.000004	-1.918489	-75.670300	-5.806958
32399	9.556599	-0.112035	2.396656	0.035650	-0.035729	0.040360	1.000000	0.000082	0.000105	-0.000037	-1.905338	-75.678275	-5.834087
32400	9.544024	-0.098836	2.412416	0.019332	-0.021205	0.031961	1.000000	0.000073	0.000098	-0.000067	-1.877660	-75.677436	-5.868252
32401	9.534631	-0.035983	2.423440	0.015932	0.041265	0.025076	1.000000	0.000087	0.000133	-0.000058	-1.845996	-75.668246	-5.894010
32402	9.557100	-0.039299	2.470604	-0.024780	0.042986	0.058539	1.000000	0.000058	0.000096	-0.000048	-1.834450	-75.673308	-5.923712
32403	9.502419	-0.003376	2.457060	-0.017420	0.077798	0.001933	1.000000	0.000079	0.000086	-0.000033	-1.834988	-75.656108	-5.942097
32404	9.510988	-0.010202	2.465712	-0.023747	0.071571	0.012436	1.000000	0.000066	0.000048	-0.000006	-1.834918	-75.653490	-5.950158
32405	9.529876	0.009505	2.424704	0.022151	0.085099	0.020424	1.000000	0.000058	0.000017	0.000027	-1.838843	-75.659583	-5.943291
32406	9.559705	-0.017600	2.425997	0.021527	0.058299	0.049861	1.000000	0.000062	0.000014	0.000021	-1.845010	-75.678370	-5.943347
32407	9.570737	-0.002369	2.416134	0.034972	0.072142	0.057991	1.000000	0.000069	0.000049	0.000047	-1.856272	-75.681041	-5.927073
32408	9.555465	-0.016526	2.408762	0.037178	0.058206	0.041477	1.000000	0.000051	0.000076	0.000063	-1.878245	-75.675295	-5.902071
32409	9.541519	-0.018326	2.412954	0.027800	0.058234	0.029015	1.000000	0.000033	0.000091	0.000066	-1.896752	-75.684941	-5.881731
32410	9.521059	-0.065203	2.443386	-0.012218	0.017456	0.017088	1.000000	0.000031	0.000080	0.000053	-1.921860	-75.683310	-5.867379
32411	9.541345	-0.109916	2.465496	-0.034950	-0.022211	0.042580	1.000000	0.000042	0.000034	0.000083	-1.979398	-75.690032	-5.837069
32412	9.530016	-0.126651	2.476398	-0.049331	-0.035944	0.034448	1.000000	0.000079	0.000010	0.000072	-2.003877	-75.685469	-5.805986
32413	9.527564	-0.128420	2.426748	-0.002990	-0.044183	0.019815	1.000000	0.000095	-0.000004	0.000046	-1.996738	-75.689234	-5.781332
32414	9.566283	-0.125147	2.409545	0.024463	-0.043748	0.053053	1.000000	0.000098	0.000012	0.000012	-2.001358	-75.682781	-5.781801
32415	9.561004	-0.081536	2.396036	0.040868	-0.002001	0.044227	1.000000	0.000085	0.000050	-0.000001	-2.000748	-75.687376	-5.785878
32416	9.533165	-0.069009	2.404054	0.026579	0.012230	0.019129	1.000000	0.000062	0.000074	0.000003	-2.001042	-75.694449	-5.790395
32417	9.553852	-0.034369	2.415281	0.026661	0.047101	0.041647	1.000000	0.000050	0.000082	-0.000007	-1.991993	-75.687262	-5.798117
32418	9.523603	-0.044971	2.441461	-0.005274	0.039991	0.018901	1.000000	0.000072	0.000072	0.000008	-1.979747	-75.675187	-5.796220
32419	9.531284	-0.024829	2.453268	-0.010739	0.061824	0.029090	1.000000	0.000105	0.000046	0.000009	-1.993292	-75.669635	-5.795000
32420	9.547510	-0.014636	2.431578	0.014550	0.068981	0.039356	1.000000	0.000127	-0.000002	0.000044	-2.006105	-75.677729	-5.782452
32421	9.525050	-0.008118	2.426896	0.013998	0.076508	0.016372	1.000000	0.000117	0.000017	0.000047	-2.032887	-75.679647	-5.767454
32422	9.557681	-0.026222	2.408593	0.036481	0.055999	0.043621	1.000000	0.000111	-0.000005	0.000063	-2.050916	-75.685118	-5.737685
32423	9.549619	-0.046903	2.398266	0.042655	0.034730	0.033432	1.000000	0.000077	0.000039	0.000069	-2.065139	-75.676691	-5.708318
32424	9.562469	-0.071041	2.423995	0.017608	0.015328	0.052456	1.000000	0.000088	0.000052	0.000052	-2.093690	-75.678508	-5.695943
32425	9.541626	-0.065824	2.429842	0.008403	0.022567	0.033658	1.000000	0.000072	0.000069	0.000043	-2.112824	-75.673109	-5.683924
32426	9.530067	-0.081734	2.441631	-0.009003	0.009708	0.025515	1.000000	0.000076	0.000065	0.000036	-2.133516	-75.680508	-5.677579
32427	9.531178	-0.069410	2.453987	-0.019287	0.023825	0.029533	1.000000	0.000038	0.000061	0.000027	-2.139586	-75.683063	-5.669551
32428	9.537920	-0.076217	2.452872	-0.021270	0.017591	0.035843	1.000000	0.000087	0.000040	0.000039	-2.150153	-75.707037	-5.657047
32429	9.540593	-0.067200	2.433858	-0.003055	0.025051	0.033655	1.000000	0.000079	0.000013	0.000037	-2.172268	-75.720465	-5.647988
32430	9.540519	-0.067522	2.434141	-0.005389	0.025530	0.033653	1.000000	0.000098	0.000015	0.000042	-2.185442	-75.732488	-5.636700
32431	9.530108	-0.072745	2.416036	0.009964	0.018228	0.019151	1.000000	0.000118	0.000032	0.000024	-2.183683	-75.724321	-5.630462
32432	9.529502	-0.058975	2.418287	0.007426	0.032625	0.018990	1.000000	0.000085	0.000035	0.000021	-2.190406	-75.736617	-5.623172
32433	9.539208	-0.040107	2.439018	-0.007337	0.054175	0.033323	1.000000	0.000070	0.000024	0.000015	-2.198366	-75.736220	-5.621900
32434	9.552593	-0.039266	2.437086	-0.001433	0.054890	0.045808	1.000000	0.000074	0.000043	0.000011	-2.209511	-75.731641	-5.631030
32435	9.548240	-0.023306	2.420323	0.016153	0.069048	0.037306	1.000000	0.000069	0.000030	0.000010	-2.222010	-75.730436	-5.636575
32436	9.541497	-0.030759	2.421555	0.011986	0.062455	0.031143	1.000000	0.000079	0.000048	0.000052	-2.241033	-75.731496	-5.623598
32437	9.525876	-0.030961	2.415406	0.013621	0.062230	0.014489	1.000000	0.000107	0.000036	0.000049	-2.247643	-75.734733	-5.607793
32438	9.543390	-0.046448	2.431098	0.001035	0.049609	0.035471	1.000000	0.000073	0.000046	0.000041	-2.273037	-75.733219	-5.594920
32439	9.550212	-0.053455	2.429681	0.000192	0.042611	0.041801	1.000000	0.000090	0.000022	0.000055	-2.275598	-75.751736	-5.567120
32440	9.533715	-0.064089	2.452244	-0.027794	0.036079	0.031461	1.000000	0.000090	0.000022	0.000055	-2.287778	-75.756980	-5.546516
32441	9.542026	-0.074473	2.419821	0.003103	0.021407	0.031644	1.000000	0.000099	0.000009	0.000047	-2.286671	-75.762822	-5.529387
32442	9.543846	-0.076071	2.429502	-0.004939	0.021557	0.035803	1.000000	0.000106	0.000005	0.000064	-2.303936	-75.757246	-5.505636
32443	9.540030	-0.074321	2.410789	0.011569	0.021548	0.027486	1.000000	0.000128	0.000030	0.000029	-2.308343	-75.760706	-5.501490
32444	9.546422	-0.067141	2.410958	0.014556	0.028441	0.033650	1.000000	0.000081	0.000039	0.000027	-2.309727	-75.756483	-5.497931
32445	9.534125	-0.055259	2.425323	-0.001288	0.043144	0.025144	1.000000	0.000095	0.000033	0.000026	-2.324529	-75.761004	-5.495015
32446	9.552642	-0.059929	2.411806	0.015896	0.036161	0.039815	1.000000	0.000079	0.000034	0.000009	-2.319492	-75.759163	-5.495721
32447	9.538024	-0.033061	2.418330	0.009078	0.064198	0.026983	1.000000	0.000069	0.000053	0.000012	-2.323956	-75.761676	-5.496039
32448	9.544349	-0.025907	2.418759	0.012059	0.071740	0.033143	1.000000	0.000067	0.000044	0.000029	-2.343039	-75.757412	-5.496539
32449	9.525431	-0.021518	2.433836	-0.006614	0.079132	0.018464	1.000000	0.000059	0.000052	0.000042	-2.359799	-75.758283	-5.487442
32450	9.543888	-0.027085	2.420565	0.011000	0.072275	0.033140	1.000000	0.000055	0.000041	0.000071	-2.389613	-75.752925	-5.469518
32451	9.547446	-0.029887	2.440224	-0.010082	0.072861	0.041444	1.000000	0.000084	0.000021	0.000043	-2.394965	-75.770322	-5.452960
32452	9.542615	-0.054958	2.408950	0.014890	0.044526	0.029333	1.000000	0.000084	0.000024	0.000073	-2.413946	-75.773182	-5.430075
32453	9.549012	-0.048552	2.409095	0.017801	0.051707	0.035497	1.000000	0.000041	0.000044	0.000043	-2.433435	-75.769055	-5.421100
32454	9.540817	-0.069242	2.399273	0.023200	0.031271	0.025350	1.000000	0.000039	0.000035	0.000060	-2.467468	-75.765668	-5.408298
32455	9.548435	-0.087893	2.436674	-0.012757	0.018638	0.042119	1.000000	0.000056	0.000049	0.000054	-2.490113	-75.761860	-5.391700
32456	9.566475	-0.079671	2.424955	0.005390	0.025014	0.056636	1.000000	0.000051	0.000042	0.000048	-2.497153	-75.754429	-5.371348
32457	9.539147	-0.081493	2.430918	-0.009397	0.025250	0.031631	1.000000	0.000057	0.000046	0.000024	-2.501080	-75.766992	-5.371368
32458	9.528715	-0.086967	2.412986	0.003942	0.018180	0.017172	1.000000	0.000065	0.000019	0.000039	-2.515114	-75.772209	-5.361476
32459	9.529975	-0.074349	2.424744	-0.004943	0.032482	0.021145	1.000000	0.000092	0.000051	0.000010	-2.513643	-75.768323	-5.365390
32460	9.551742	-0.067541	2.432028	-0.005238	0.040250	0.043957	1.000000	0.000069	0.000032	0.000040	-2.535709	-75.767061	-5.357210
32461	9.540912	-0.058944	2.415593	0.008480	0.046604	0.029331	1.000000	0.000076	0.000028	-0.000009	-2.518268	-75.770647	-5.370275
32462	9.547314	-0.051630	2.415751	0.010312	0.053809	0.035496	1.000000	0.000087	0.000040	0.000039	-2.529039	-75.773258	-5.360808
32463	9.534616	-0.042578	2.389866	0.032039	0.060249	0.016734	1.000000	0.000066	0.000030	0.000051	-2.545946	-75.781501	-5.348193
32464	9.557822	-0.023473	2.408200	0.022376	0.081745	0.043517	1.000000	0.000072	0.000052	0.000035	-2.556044	-75.782615	-5.341076
32465	9.554681	-0.032898	2.428805	0.000139	0.075608	0.045628	1.000000	0.000075	0.000054	0.000023	-2.560704	-75.785070	-5.334452
32466	9.554429	-0.033146	2.429789	-0.000849	0.075461	0.045629	1.000000	0.000092	0.000048	0.000045	-2.563817	-75.785024	-5.326256
32467	9.539181	-0.046965	2.422288	0.001665	0.061531	0.029155	1.000000	0.000058	0.000058	0.000037	-2.575687	-75.779390	-5.321924
32468	9.538875	-0.047525	2.423482	-0.000450	0.061752	0.029154	1.000000	0.000070	0.000067	0.000055	-2.591489	-75.783966	-5.306983
32469	9.543100	-0.077771	2.440556	-0.019913	0.034220	0.037772	1.000000	0.000068	0.000041	0.000064	-2.599446	-75.785443	-5.285702
32470	9.537745	-0.073147	2.452925	-0.031724	0.041498	0.035564	1.000000	0.000068	0.000041	0.000064	-2.622568	-75.781586	-5.268515
32471	9.536118	-0.086712	2.442595	-0.024528	0.027693	0.031599	1.000000	0.000062	0.000034	0.000058	-2.643716	-75.785378	-5.249342
32472	9.540318	-0.065206	2.434582	-0.012660	0.048049	0.033461	1.000000	0.000091	0.000020	0.000025	-2.640480	-75.785024	-5.245421
32474	9.540669	-0.085885	2.433296	-0.028514	0.055507	9.880124	1.000000	0.000142	0.000082	0.000045	-2.649915	-75.782295	-5.240447
32475	9.547860	-0.061787	2.405420	0.015402	0.048034	0.033578	1.000000	0.000058	0.000023	0.000022	-2.652979	-75.798353	-5.235716
32476	9.535973	-0.063350	2.418144	-0.000605	0.048210	0.025193	1.000000	0.000087	0.000044	0.000004	-2.639553	-75.800996	-5.240327
32477	9.553030	-0.064359	2.435364	-0.013156	0.048736	0.045963	1.000000	0.000103	0.000026	0.000013	-2.631254	-75.801970	-5.235999
32478	9.556216	-0.068741	2.414770	0.006245	0.041203	0.044055	1.000000	0.000090	0.000026	0.000020	-2.623782	-75.804989	-5.237659
32479	9.555651	-0.054837	2.416925	0.003849	0.055178	0.043881	1.000000	0.000097	0.000042	0.000009	-2.613783	-75.816152	-5.247763
32480	9.545173	-0.059853	2.399292	0.018177	0.048149	0.029460	1.000000	0.000088	0.000055	0.000016	-2.619020	-75.811772	-5.254993
32481	9.547756	-0.034315	2.422474	0.001388	0.076461	0.037356	1.000000	0.000074	0.000060	0.000018	-2.622169	-75.803396	-5.254623
32482	9.541267	-0.055172	2.422716	-0.003150	0.055891	0.031359	1.000000	0.000073	0.000066	0.000013	-2.619142	-75.802428	-5.261709
32483	9.535793	-0.049492	2.435541	-0.014925	0.063620	0.029131	1.000000	0.000044	0.000066	0.000003	-2.626976	-75.796305	-5.280877
32484	9.544723	-0.070854	2.442665	-0.022696	0.043586	0.039772	1.000000	0.000073	0.000046	0.000040	-2.642169	-75.798823	-5.274963
32485	9.540388	-0.055100	2.426177	-0.005428	0.056839	0.031352	1.000000	0.000089	0.000069	-0.000006	-2.625840	-75.795516	-5.298166
32486	9.538652	-0.067372	2.416382	0.002150	0.043263	0.027406	1.000000	0.000081	0.000059	-0.000000	-2.625105	-75.794519	-5.321493
32487	9.557035	-0.071977	2.403648	0.017619	0.036441	0.042158	1.000000	0.000048	0.000080	0.000004	-2.623643	-75.796925	-5.335208
32488	9.537896	-0.066813	2.419380	-0.000119	0.043657	0.027405	1.000000	0.000036	0.000094	-0.000012	-2.612532	-75.788192	-5.354481
32489	9.561212	-0.060359	2.437289	-0.010131	0.051441	0.054331	1.000000	0.000048	0.000100	-0.000024	-2.598402	-75.784239	-5.381825
32490	9.546133	-0.086570	2.429289	-0.008912	0.023562	0.038047	1.000000	0.000073	0.000107	-0.000043	-2.566598	-75.778490	-5.418528
32491	9.529820	-0.071296	2.425860	-0.008373	0.036965	0.021229	1.000000	0.000062	0.000115	-0.000053	-2.524163	-75.782246	-5.453834
32492	9.507869	-0.036957	2.435664	-0.017362	0.071534	0.001995	1.000000	0.000066	0.000131	-0.000022	-2.502692	-75.774322	-5.478691
32493	9.518975	-0.018636	2.467234	-0.042468	0.093185	0.020318	1.000000	0.000055	0.000076	0.000021	-2.500995	-75.777411	-5.482080
32494	9.536269	-0.034017	2.483493	-0.056859	0.080058	0.041229	1.000000	0.000071	0.000044	0.000052	-2.512696	-75.784582	-5.467796
32495	9.550120	-0.047673	2.479960	-0.054321	0.066362	0.053919	1.000000	0.000110	0.000002	0.000057	-2.521713	-75.801067	-5.450586
32496	9.536710	-0.065062	2.440781	-0.023612	0.044528	0.031496	1.000000	0.000141	-0.000007	0.000042	-2.523223	-75.808979	-5.441178
32497	9.551025	-0.040588	2.410584	0.013585	0.064005	0.037712	1.000000	0.000129	0.000007	0.000027	-2.515325	-75.800019	-5.441278
32498	9.550872	-0.040765	2.411188	0.013131	0.064448	0.037710	1.000000	0.000069	0.000056	0.000042	-2.534732	-75.796450	-5.440450
32499	9.551535	-0.014565	2.425021	0.005333	0.092107	0.041461	1.000000	0.000041	0.000087	0.000017	-2.530607	-75.784566	-5.442136
32500	9.550753	-0.052558	2.452897	-0.023039	0.058793	0.047960	1.000000	0.000022	0.000082	0.000047	-2.558954	-75.763144	-5.445194
32501	9.536815	-0.053725	2.456829	-0.030816	0.059012	0.035424	1.000000	0.000037	0.000068	0.000021	-2.563248	-75.766939	-5.452903
32502	9.526760	-0.073019	2.437799	-0.018485	0.037652	0.021212	1.000000	0.000078	0.000037	0.000039	-2.565910	-75.773484	-5.451447
32503	9.521429	-0.067708	2.449906	-0.029895	0.044805	0.018962	1.000000	0.000087	0.000023	0.000031	-2.568242	-75.769741	-5.448617
32504	9.541888	-0.073740	2.445785	-0.022104	0.037928	0.037846	1.000000	0.000073	0.000012	0.000025	-2.570115	-75.772520	-5.464955
32505	9.556631	-0.063258	2.414127	0.012375	0.043526	0.044247	1.000000	0.000090	-0.000012	0.000040	-2.567827	-75.779304	-5.462418
32506	9.558457	-0.064635	2.423570	0.003825	0.043943	0.048348	1.000000	0.000062	-0.000001	0.000043	-2.583119	-75.777455	-5.459767
32507	9.550339	-0.084638	2.413582	0.009176	0.022689	0.038247	1.000000	0.000086	0.000050	-0.000002	-2.565976	-75.771520	-5.487887
32508	9.537277	-0.061449	2.389473	0.032937	0.042376	0.019410	1.000000	0.000096	0.000068	0.000041	-2.569540	-75.766666	-5.480717
32509	9.549271	-0.070722	2.417699	0.008738	0.036917	0.038069	1.000000	0.000059	0.000092	-0.000014	-2.565284	-75.758400	-5.514575
32510	9.544354	-0.024747	2.444481	-0.012885	0.085635	0.039383	1.000000	0.000062	0.000054	0.000030	-2.558422	-75.766642	-5.517738
32511	9.544134	-0.024967	2.445335	-0.013445	0.085566	0.039383	1.000000	0.000072	0.000035	0.000028	-2.558868	-75.765745	-5.516078
32512	9.538592	-0.022375	2.417274	0.011780	0.084699	0.027086	1.000000	0.000083	0.000027	0.000038	-2.565913	-75.770469	-5.512034
32513	9.535437	-0.031815	2.437522	-0.007693	0.078580	0.029104	1.000000	0.000108	0.000037	0.000049	-2.580105	-75.758355	-5.521449
32514	9.552817	-0.047242	2.453366	-0.020358	0.065429	0.050013	1.000000	0.000109	0.000031	0.000054	-2.590384	-75.756416	-5.521553
32515	9.549035	-0.045720	2.435008	-0.003858	0.064630	0.041816	1.000000	0.000087	0.000047	0.000033	-2.589162	-75.757940	-5.520768
32516	9.535640	-0.060454	2.436888	-0.011466	0.050584	0.029458	1.000000	0.000055	0.000038	0.000041	-2.590836	-75.761049	-5.509742
32517	9.540183	-0.052838	2.427800	-0.000611	0.056779	0.031543	1.000000	0.000064	0.000065	0.000043	-2.590604	-75.759711	-5.506073
32518	9.542041	-0.067798	2.437177	-0.010456	0.043363	0.035814	1.000000	0.000041	0.000064	0.000015	-2.590779	-75.755445	-5.518489
32519	9.527798	-0.054896	2.442191	-0.016786	0.057005	0.023100	1.000000	0.000073	0.000052	0.000035	-2.590111	-75.755047	-5.524788
32520	9.543311	-0.069240	2.448747	-0.020960	0.042822	0.039910	1.000000	0.000088	0.000041	0.000039	-2.578868	-75.753433	-5.509210
32521	9.534417	-0.062000	2.441632	-0.015780	0.049561	0.029457	1.000000	0.000083	0.000010	0.000030	-2.584305	-75.758264	-5.522046
32522	9.525615	-0.054526	2.434167	-0.010954	0.055661	0.019009	1.000000	0.000081	0.000005	0.000012	-2.566350	-75.765354	-5.521199
32523	9.546094	-0.060432	2.430020	-0.004282	0.048570	0.037905	1.000000	0.000058	0.000023	0.000022	-2.561632	-75.772876	-5.529424
32524	9.544124	-0.059533	2.421182	0.002999	0.047833	0.033818	1.000000	0.000079	0.000051	0.000017	-2.546183	-75.775969	-5.544310
32525	9.558492	-0.032583	2.431972	0.001334	0.075492	0.050102	1.000000	0.000094	0.000042	0.000050	-2.552167	-75.768061	-5.543976
32526	9.543247	-0.046211	2.424534	0.002738	0.061059	0.033648	1.000000	0.000074	0.000066	0.000012	-2.537724	-75.767172	-5.551660
32527	9.535568	-0.025803	2.429145	0.001966	0.081225	0.027123	1.000000	0.000074	0.000066	0.000012	-2.523522	-75.751094	-5.577269
32528	9.538867	-0.027819	2.449301	-0.015646	0.081396	0.035305	1.000000	0.000065	0.000042	0.000041	-2.520836	-75.745031	-5.569640
32529	9.537239	-0.041040	2.439215	-0.009304	0.066975	0.031387	1.000000	0.000064	0.000048	0.000035	-2.517559	-75.751030	-5.563206
32530	9.545794	-0.048903	2.447620	-0.016987	0.059975	0.041831	1.000000	0.000069	0.000033	0.000039	-2.513065	-75.755329	-5.549001
32531	9.535428	-0.054744	2.429841	-0.004945	0.052255	0.027473	1.000000	0.000099	0.000050	0.000056	-2.517218	-75.764152	-5.539443
32532	9.530395	-0.063245	2.440762	-0.017421	0.045559	0.025369	1.000000	0.000102	0.000035	0.000037	-2.516257	-75.762683	-5.538995
32533	9.532348	-0.078113	2.449705	-0.028050	0.032309	0.029618	1.000000	0.000068	0.000045	0.000029	-2.521892	-75.765052	-5.545722
32534	9.541725	-0.062191	2.430551	-0.004344	0.045091	0.033831	1.000000	0.000058	0.000064	0.000031	-2.521488	-75.759137	-5.554671
32535	9.536250	-0.056882	2.443111	-0.015751	0.052175	0.031556	1.000000	0.000064	0.000048	0.000035	-2.524311	-75.752753	-5.555513
32536	9.542621	-0.049898	2.443469	-0.012267	0.059105	0.037744	1.000000	0.000081	0.000045	0.000022	-2.525927	-75.745620	-5.574406
32537	9.535421	-0.043551	2.446268	-0.017332	0.065552	0.031386	1.000000	0.000074	0.000046	0.000040	-2.517690	-75.753936	-5.569765
32538	9.549160	-0.056962	2.443235	-0.013139	0.051490	0.044101	1.000000	0.000092	0.000037	0.000032	-2.513496	-75.755731	-5.574907
32539	9.533632	-0.056715	2.436833	-0.011347	0.050867	0.027475	1.000000	0.000056	0.000035	0.000011	-2.500958	-75.759023	-5.580758
32540	9.537922	-0.035163	2.428775	-0.000100	0.071010	0.029421	1.000000	0.000076	0.000034	0.000051	-2.507860	-75.762078	-5.571361
32541	9.537736	-0.035620	2.429499	0.000163	0.070749	0.029423	1.000000	0.000088	0.000041	0.000039	-2.508833	-75.755601	-5.573731
32542	9.534688	-0.061430	2.408592	0.017085	0.041981	0.021605	1.000000	0.000055	0.000059	0.000013	-2.497785	-75.747399	-5.585551
32543	9.545948	-0.043233	2.439224	-0.006985	0.063409	0.039862	1.000000	0.000085	0.000059	0.000023	-2.485718	-75.746892	-5.592878
32544	9.537348	-0.049717	2.431086	-0.000469	0.055885	0.029596	1.000000	0.000070	0.000033	0.000039	-2.490010	-75.738235	-5.594857
32545	9.543768	-0.042884	2.431268	0.002085	0.062387	0.035790	1.000000	0.000078	0.000043	0.000034	-2.485390	-75.736379	-5.593916
32546	9.538725	-0.051147	2.442164	-0.010514	0.055534	0.033676	1.000000	0.000082	0.000039	0.000027	-2.477455	-75.735004	-5.596020
32547	9.538494	-0.051456	2.443060	-0.012584	0.055256	0.033675	1.000000	0.000079	0.000054	0.000046	-2.476845	-75.740453	-5.584220
32548	9.526123	-0.039664	2.457175	-0.027983	0.069326	0.025032	1.000000	0.000104	0.000023	0.000048	-2.478778	-75.744960	-5.577352
32549	9.542018	-0.070835	2.421753	0.005487	0.033190	0.032051	1.000000	0.000100	0.000010	0.000047	-2.477950	-75.746190	-5.572449
32550	9.541516	-0.057507	2.423651	0.003625	0.046648	0.031891	1.000000	0.000074	0.000046	0.000040	-2.473062	-75.754357	-5.572329
32551	9.543016	-0.058686	2.434240	-0.005705	0.046649	0.035963	1.000000	0.000062	0.000060	0.000024	-2.465676	-75.749809	-5.578878
32552	9.546261	-0.060587	2.454452	-0.024640	0.047073	0.044101	1.000000	0.000057	0.000053	0.000018	-2.455473	-75.750461	-5.586070
32553	9.536931	-0.039429	2.449066	-0.017612	0.067013	0.033517	1.000000	0.000081	0.000045	0.000022	-2.445903	-75.743525	-5.595431
32554	9.524849	-0.044240	2.421667	0.005902	0.058625	0.015116	1.000000	0.000057	0.000032	0.000046	-2.450912	-75.739094	-5.588658
32555	9.538633	-0.057611	2.418482	0.010041	0.044514	0.027832	1.000000	0.000070	0.000030	0.000009	-2.438376	-75.741894	-5.605276
32556	9.540176	-0.058523	2.428895	-0.001309	0.044849	0.031900	1.000000	0.000072	0.000058	0.000029	-2.435248	-75.749532	-5.612194
32557	9.548352	-0.052363	2.438664	-0.008662	0.051718	0.042165	1.000000	0.000091	0.000020	0.000025	-2.422692	-75.756383	-5.621037
32558	9.528022	-0.060429	2.442185	-0.019741	0.044697	0.023406	1.000000	0.000076	0.000035	0.000051	-2.425366	-75.764834	-5.621769
32559	9.536165	-0.057602	2.411703	0.012166	0.043306	0.023778	1.000000	0.000083	0.000033	0.000032	-2.425693	-75.763517	-5.630676
32560	9.532488	-0.053025	2.433583	-0.009452	0.050587	0.025545	1.000000	0.000082	0.000056	0.000034	-2.417112	-75.764002	-5.624950
32561	9.535369	-0.041203	2.455110	-0.025409	0.064666	0.033515	1.000000	0.000076	0.000055	0.000023	-2.408540	-75.750047	-5.625040
32562	9.545185	-0.038858	2.434555	-0.003194	0.063702	0.037950	1.000000	0.000080	0.000051	0.000016	-2.400622	-75.751563	-5.637743
32563	9.531729	-0.053395	2.436545	-0.010647	0.049392	0.025550	1.000000	0.000075	0.000041	0.000045	-2.394981	-75.753084	-5.625941
32564	9.534608	-0.044886	2.417769	0.010452	0.055292	0.023633	1.000000	0.000092	0.000054	0.000039	-2.397728	-75.745430	-5.633545
32565	9.535416	-0.018534	2.430927	0.001709	0.083016	0.027384	1.000000	0.000068	0.000045	0.000029	-2.393241	-75.745746	-5.644141
32566	9.549463	-0.045943	2.426769	0.005490	0.055146	0.040256	1.000000	0.000086	0.000050	0.000063	-2.404478	-75.744700	-5.644260
32567	9.551338	-0.061107	2.435878	-0.005518	0.041480	0.044470	1.000000	0.000069	0.000039	0.000034	-2.400985	-75.749148	-5.653098
32568	9.535838	-0.061101	2.429395	-0.003556	0.040810	0.027852	1.000000	0.000074	0.000029	0.000033	-2.395539	-75.752273	-5.653996
32569	9.555489	-0.040104	2.428521	0.004845	0.061104	0.046467	1.000000	0.000066	0.000054	0.000053	-2.402150	-75.751845	-5.651416
32570	9.535372	-0.062197	2.431195	-0.005184	0.040181	0.027854	1.000000	0.000070	0.000050	0.000047	-2.404047	-75.749025	-5.645948
32571	9.548674	-0.061957	2.429871	0.000989	0.039498	0.040420	1.000000	0.000071	0.000064	0.000024	-2.392661	-75.738599	-5.641286
32572	9.521236	-0.063258	2.435767	-0.011097	0.039556	0.015294	1.000000	0.000068	0.000045	0.000029	-2.392184	-75.736892	-5.650510
32573	9.534276	-0.049015	2.435439	-0.006073	0.052924	0.027706	1.000000	0.000076	0.000037	0.000016	-2.378929	-75.739783	-5.657488
32574	9.539286	-0.055003	2.424832	0.004188	0.045415	0.030012	1.000000	0.000080	0.000048	0.000052	-2.385718	-75.740947	-5.656460
32575	9.552655	-0.054698	2.423258	0.008649	0.044978	0.042580	1.000000	0.000095	0.000039	0.000020	-2.372301	-75.743516	-5.661401
32576	9.533648	-0.049433	2.437887	-0.008357	0.052144	0.027709	1.000000	0.000085	0.000041	0.000015	-2.361937	-75.737546	-5.677139
32577	9.529963	-0.047786	2.419555	0.008700	0.050970	0.019609	1.000000	0.000078	0.000043	0.000034	-2.357559	-75.736326	-5.675560
32578	9.534618	-0.036844	2.450423	-0.017189	0.065719	0.031613	1.000000	0.000087	0.000047	0.000033	-2.354873	-75.729768	-5.683098
32579	9.537865	-0.041888	2.430363	0.002417	0.057782	0.029871	1.000000	0.000067	0.000051	0.000023	-2.351450	-75.728017	-5.692999
32580	9.542535	-0.034191	2.421083	0.014588	0.063890	0.032031	1.000000	0.000056	0.000039	0.000041	-2.355559	-75.722502	-5.697306
32581	9.540948	-0.044405	2.451014	-0.016381	0.058058	0.037972	1.000000	0.000090	0.000029	0.000049	-2.357896	-75.725710	-5.694248
32582	9.542544	-0.048897	2.421068	0.011557	0.049583	0.032186	1.000000	0.000089	0.000035	0.000044	-2.358019	-75.728703	-5.691736
32583	9.550727	-0.042978	2.430769	0.003711	0.056566	0.042446	1.000000	0.000079	0.000037	0.000039	-2.354025	-75.736561	-5.699008
32584	9.543907	-0.050461	2.432086	-0.000011	0.049234	0.036238	1.000000	0.000088	0.000041	0.000039	-2.347585	-75.734668	-5.696359
32585	9.548923	-0.056473	2.421496	0.009233	0.041570	0.038553	1.000000	0.000068	0.000045	0.000028	-2.340022	-75.742044	-5.706303
32586	9.530203	-0.065302	2.434964	-0.010769	0.034834	0.023814	1.000000	0.000083	0.000051	0.000040	-2.331678	-75.748867	-5.702664
32587	9.534912	-0.057641	2.425553	0.000306	0.040946	0.025987	1.000000	0.000065	0.000025	0.000033	-2.329301	-75.751289	-5.711357
32588	9.541341	-0.050853	2.425766	0.002401	0.047410	0.032203	1.000000	0.000040	0.000056	0.000031	-2.326441	-75.750713	-5.716096
32589	9.523968	-0.046596	2.450261	-0.024394	0.055197	0.021349	1.000000	0.000098	0.000059	0.000016	-2.315513	-75.748303	-5.728096
32590	9.540810	-0.051007	2.427852	0.000318	0.046922	0.032205	1.000000	0.000078	0.000043	0.000033	-2.310021	-75.750678	-5.725640
32591	9.516539	-0.040068	2.453921	-0.028741	0.061542	0.014990	1.000000	0.000094	0.000045	0.000015	-2.296956	-75.748119	-5.740619
32592	9.542115	-0.051978	2.439073	-0.011212	0.046701	0.036244	1.000000	0.000079	0.000037	0.000039	-2.290979	-75.756071	-5.742771
32593	9.538132	-0.036838	2.421988	0.005035	0.059089	0.028035	1.000000	0.000087	0.000047	0.000033	-2.277357	-75.762600	-5.740723
32594	9.526022	-0.038471	2.434917	-0.010756	0.059468	0.019492	1.000000	0.000073	0.000052	0.000035	-2.276375	-75.763401	-5.747417
32595	9.546325	-0.044790	2.431646	-0.003619	0.051853	0.038431	1.000000	0.000087	0.000047	0.000033	-2.265380	-75.763972	-5.742151
32596	9.539461	-0.052239	2.433118	-0.007246	0.044725	0.032213	1.000000	0.000074	0.000047	0.000040	-2.265955	-75.761047	-5.745560
32597	9.532273	-0.045840	2.435844	-0.010931	0.051248	0.025855	1.000000	0.000100	0.000047	0.000026	-2.252361	-75.761902	-5.747370
32598	9.537306	-0.051922	2.425235	0.000160	0.043285	0.028187	1.000000	0.000076	0.000035	0.000051	-2.251767	-75.759285	-5.737872
32599	9.535300	-0.048173	2.456591	-0.031107	0.051122	0.033913	1.000000	0.000077	0.000049	0.000028	-2.239310	-75.765360	-5.742539
32600	9.543830	-0.059216	2.425102	-0.000977	0.035451	0.034549	1.000000	0.000065	0.000043	0.000040	-2.235302	-75.769364	-5.739138
32601	9.543609	-0.059547	2.425965	-0.000767	0.035297	0.034549	1.000000	0.000087	0.000047	0.000033	-2.236232	-75.762600	-5.753899
32602	9.538153	-0.054209	2.438199	-0.012743	0.042434	0.032217	1.000000	0.000062	0.000040	0.000052	-2.244087	-75.760842	-5.749995
32603	9.526063	-0.055913	2.450990	-0.027235	0.042797	0.023663	1.000000	0.000081	0.000045	0.000022	-2.238558	-75.754991	-5.765779
32604	9.535734	-0.040058	2.431361	-0.004073	0.055261	0.028058	1.000000	0.000078	0.000026	0.000026	-2.231624	-75.757276	-5.777536
32605	9.537289	-0.041188	2.441558	-0.014491	0.055430	0.032083	1.000000	0.000056	0.000039	0.000041	-2.232403	-75.761467	-5.782083
32606	9.542026	-0.033443	2.432132	-0.004485	0.061515	0.034284	1.000000	0.000076	0.000037	0.000015	-2.218188	-75.768888	-5.798700
32607	9.550796	-0.054571	2.439508	-0.012584	0.040851	0.044800	1.000000	0.000090	0.000049	0.000021	-2.205551	-75.769307	-5.806694
32608	9.548547	-0.040138	2.432024	-0.004243	0.053781	0.040647	1.000000	0.000088	0.000041	0.000038	-2.199481	-75.771098	-5.801525
32609	9.528069	-0.048051	2.435942	-0.013583	0.046734	0.021836	1.000000	0.000072	0.000058	0.000029	-2.193431	-75.766929	-5.806832
32610	9.546339	-0.040002	2.424388	0.003630	0.052520	0.036631	1.000000	0.000071	0.000044	0.000052	-2.196201	-75.764399	-5.798040
32611	9.529301	-0.049608	2.447371	-0.023065	0.046400	0.025858	1.000000	0.000081	0.000045	0.000022	-2.187269	-75.759331	-5.804286
32612	9.535801	-0.046341	2.407691	0.017097	0.044146	0.022371	1.000000	0.000059	0.000061	0.000066	-2.199914	-75.758138	-5.795494
32613	9.545609	-0.041368	2.427239	0.001991	0.051587	0.036637	1.000000	0.000082	0.000039	0.000027	-2.193745	-75.756272	-5.804863
32614	9.535504	-0.057436	2.448466	-0.023739	0.038517	0.032213	1.000000	0.000063	0.000054	0.000029	-2.186701	-75.759105	-5.810337
32615	9.538472	-0.049083	2.429748	-0.003448	0.044273	0.030410	1.000000	0.000090	0.000052	0.000051	-2.193482	-75.756674	-5.812492
32616	9.533008	-0.043617	2.441966	-0.016441	0.051562	0.028065	1.000000	0.000073	0.000035	0.000027	-2.189254	-75.761792	-5.828512
32617	9.553361	-0.050033	2.438552	-0.009258	0.044131	0.047014	1.000000	0.000065	0.000043	0.000040	-2.189617	-75.762387	-5.832712
32618	9.546522	-0.057590	2.439886	-0.011968	0.036866	0.040786	1.000000	0.000089	0.000035	0.000044	-2.189040	-75.755210	-5.825960
32619	9.531011	-0.057552	2.433502	-0.009761	0.036259	0.024183	1.000000	0.000067	0.000051	0.000023	-2.181309	-75.755007	-5.838280
32620	9.544082	-0.043401	2.433200	-0.004592	0.049554	0.036646	1.000000	0.000082	0.000039	0.000027	-2.172499	-75.757047	-5.841929
32621	9.537517	-0.064302	2.433456	-0.009458	0.028770	0.030541	1.000000	0.000080	0.000051	0.000016	-2.163004	-75.756984	-5.863960
32622	9.531447	-0.031003	2.448047	-0.020781	0.063421	0.027939	1.000000	0.000073	0.000035	0.000027	-2.153832	-75.760191	-5.876263
32623	9.528147	-0.043541	2.428488	-0.003856	0.048325	0.020048	1.000000	0.000081	0.000048	0.000051	-2.158207	-75.755233	-5.867150
32624	9.539840	-0.042738	2.417342	0.008548	0.047354	0.028634	1.000000	0.000089	0.000035	0.000044	-2.154129	-75.763378	-5.864307
32625	9.532700	-0.036536	2.419868	0.004902	0.053996	0.022277	1.000000	0.000065	0.000043	0.000040	-2.153227	-75.764848	-5.861967
32626	9.548091	-0.050866	2.426688	0.000407	0.040330	0.039003	1.000000	0.000082	0.000039	0.000027	-2.149482	-75.763562	-5.876784
32627	9.520635	-0.052065	2.432427	-0.010491	0.040233	0.013817	1.000000	0.000078	0.000066	0.000035	-2.145964	-75.753048	-5.874552
32628	9.540950	-0.058498	2.429195	-0.004407	0.032621	0.032771	1.000000	0.000084	0.000027	0.000038	-2.136970	-75.761459	-5.869209
32629	9.549423	-0.066125	2.437656	-0.011761	0.025754	0.043134	1.000000	0.000082	0.000039	0.000027	-2.128000	-75.762121	-5.877479
32630	9.540552	-0.059009	2.430744	-0.005498	0.031963	0.032772	1.000000	0.000080	0.000054	0.000046	-2.131391	-75.756391	-5.876120
32631	9.534755	-0.039750	2.444230	-0.016791	0.052999	0.030295	1.000000	0.000068	0.000045	0.000028	-2.128611	-75.754625	-5.887095
32632	9.526499	-0.060007	2.434869	-0.012685	0.031664	0.020176	1.000000	0.000082	0.000039	0.000027	-2.122451	-75.755187	-5.902206
32633	9.539615	-0.045893	2.434426	-0.004733	0.001798	0.032757	1.000000	0.000092	0.000037	0.000032	-1.103914	-75.713274	-7.133275
32634	9.546381	-0.052591	2.433367	-0.003184	-0.005356	0.039084	1.000000	0.000086	0.000036	0.000020	-1.097229	-75.714241	-7.139520
32635	9.556395	-0.050586	2.412672	0.019364	-0.006791	0.043671	1.000000	0.000067	0.000051	0.000023	-1.093334	-75.713412	-7.139771
32636	9.551093	-0.058637	2.424166	0.006376	-0.013182	0.041408	1.000000	0.000081	0.000086	0.000030	-1.091136	-75.708491	-7.142816
32637	9.536829	-0.045508	2.429144	0.000583	0.000724	0.028752	1.000000	0.000091	0.000067	0.000028	-1.086818	-75.705955	-7.129102
32638	9.551806	-0.045848	2.437588	-0.003539	0.000842	0.045351	1.000000	0.000086	0.000059	0.000022	-1.080717	-75.704170	-7.141722
32639	9.544610	-0.039340	2.440321	-0.006876	0.007740	0.039022	1.000000	0.000078	0.000043	0.000033	-1.080667	-75.704263	-7.141779
32640	9.532949	-0.058252	2.411967	0.014943	-0.014512	0.020809	1.000000	0.000089	0.000058	0.000046	-1.084588	-75.702355	-7.148451
32641	9.537451	-0.047146	2.442866	-0.011816	0.000716	0.032751	1.000000	0.000078	0.000043	0.000033	-1.084647	-75.702232	-7.162989
32642	9.545827	-0.054607	2.451673	-0.019153	-0.005929	0.043077	1.000000	0.000109	0.000057	0.000020	-1.074858	-75.700567	-7.173430
32643	9.542461	-0.066954	2.432499	-0.003036	-0.020905	0.035137	1.000000	0.000098	0.000062	0.000045	-1.077670	-75.698268	-7.170162
32644	9.530226	-0.068052	2.445644	-0.018455	-0.020244	0.026533	1.000000	0.000105	0.000063	-0.000008	-1.055409	-75.695947	-7.193868
32645	9.516347	-0.068054	2.449070	-0.024960	-0.020094	0.013930	1.000000	0.000074	0.000049	0.000005	-1.042896	-75.695113	-7.218514
32646	9.536361	-0.060394	2.447101	-0.016983	-0.013744	0.032801	1.000000	0.000097	0.000051	0.000033	-1.040274	-75.694228	-7.223311
32647	9.550748	-0.023030	2.418784	0.019252	0.018564	0.039577	1.000000	0.000085	0.000065	0.000017	-1.031606	-75.692020	-7.212338
32648	9.549288	-0.049578	2.408335	0.025662	-0.009690	0.035698	1.000000	0.000112	0.000083	0.000010	-1.016959	-75.687480	-7.227931
32649	9.596664	-1.059453	-0.135433	2.331362	-1.364822	-0.542372	1.000000	0.000740	-0.000183	0.000076	-0.962195	-75.713430	-7.202032
32650	9.603956	1.359793	2.646311	-0.024183	1.411389	0.141963	0.999995	0.001802	-0.002703	-0.000268	-0.645500	-76.028574	-7.339597
32651	9.711562	-0.146025	4.203164	-1.695441	0.114445	0.633086	0.999993	-0.000108	0.003773	-0.000421	-0.444770	-75.602355	-7.555720
32652	9.267665	-0.371188	2.932966	-0.571937	-0.273291	-0.105583	1.000000	-0.000469	0.000845	0.000124	-0.544184	-75.510807	-7.499563
32653	9.473746	0.258806	2.589092	-0.101896	0.301098	0.006742	1.000000	-0.000134	-0.000630	0.000158	-0.626628	-75.588446	-7.413372
32654	9.642463	-0.028817	2.510370	-0.034346	0.006999	0.151180	1.000000	-0.000264	-0.000333	0.000330	-0.799884	-75.631248	-7.272085
32655	9.498247	-0.124534	2.048635	0.356382	-0.141732	-0.102795	1.000000	0.000224	0.000036	0.000099	-0.812569	-75.631901	-7.248519
32656	9.608525	-0.024761	2.399444	0.064959	0.000544	0.090719	1.000000	0.000193	0.000461	-0.000003	-0.780548	-75.584475	-7.259114
32657	9.416076	-0.015482	2.779911	-0.337426	0.065266	-0.000832	1.000000	0.000020	0.000535	-0.000015	-0.762567	-75.528439	-7.280509
32658	9.364580	0.101077	2.971694	-0.512865	0.206850	-0.002961	1.000000	0.000027	0.000078	-0.000026	-0.741729	-75.524770	-7.297407
32659	9.462455	0.102378	2.962313	-0.483171	0.205404	0.089241	1.000000	-0.000132	-0.000396	0.000122	-0.807194	-75.574865	-7.262297
32660	9.536192	-0.046058	2.511796	-0.064714	0.000348	0.048651	1.000000	-0.000157	-0.000693	0.000249	-0.934893	-75.659240	-7.139731
32661	9.625435	-0.178535	2.117940	0.304444	-0.180888	0.038258	1.000000	-0.000053	-0.000517	0.000219	-1.037288	-75.723097	-7.047794
32662	9.624615	-0.248832	2.087699	0.317232	-0.251061	0.030582	1.000000	0.000037	-0.000067	0.000081	-1.063567	-75.735821	-7.014763
32663	9.604895	-0.239177	2.144013	0.261372	-0.234123	0.025243	1.000000	0.000075	0.000334	-0.000098	-1.002050	-75.702989	-7.068203
32664	9.556144	-0.076876	2.400372	0.032612	-0.040838	0.040477	1.000000	0.000045	0.000461	-0.000152	-0.919286	-75.655731	-7.146582
32665	9.507168	-0.010663	2.639527	-0.193014	0.055350	0.052055	1.000000	-0.000054	0.000343	-0.000083	-0.879817	-75.622074	-7.181909
32666	9.454997	0.000218	2.671678	-0.233435	0.071213	0.009495	1.000000	-0.000043	-0.000061	0.000016	-0.886686	-75.634395	-7.175217
32667	9.502461	-0.047017	2.477634	-0.046876	-0.002256	0.007468	1.000000	0.000004	-0.000333	0.000058	-0.908428	-75.677699	-7.151278
32668	9.589502	-0.092362	2.264643	0.165463	-0.077131	0.039335	1.000000	0.000099	-0.000311	0.000070	-0.924877	-75.718256	-7.125548
32669	9.646338	-0.047644	2.145127	0.295406	-0.050326	0.064857	1.000000	0.000197	-0.000099	0.000008	-0.900675	-75.734750	-7.126942
32670	9.616116	-0.001441	2.184514	0.256569	0.000127	0.045099	1.000000	0.000208	0.000205	-0.000052	-0.845784	-75.716625	-7.156891
32671	9.533360	0.035835	2.335694	0.100608	0.057404	0.002010	1.000000	0.000119	0.000350	-0.000053	-0.799797	-75.682004	-7.186370
32672	9.526766	0.057026	2.523069	-0.072586	0.102154	0.041890	1.000000	0.000022	0.000297	0.000014	-0.795861	-75.653158	-7.189725
32673	9.528592	0.048617	2.625111	-0.168201	0.107671	0.069000	1.000000	-0.000025	0.000096	0.000074	-0.824793	-75.647438	-7.158362
32674	9.494696	-0.009378	2.537082	-0.101067	0.041084	0.014531	1.000000	-0.000010	-0.000124	0.000104	-0.867595	-75.666784	-7.115707
32675	9.516284	-0.059357	2.358377	0.065378	-0.031272	-0.008613	1.000000	0.000035	-0.000156	0.000081	-0.894606	-75.689756	-7.084535
32676	9.544922	-0.080882	2.270703	0.150898	-0.064163	-0.002423	1.000000	0.000128	-0.000038	0.000065	-0.903455	-75.699269	-7.062034
32677	9.615656	-0.076594	2.319541	0.122174	-0.055465	0.078166	1.000000	0.000171	0.000147	0.000040	-0.894943	-75.687607	-7.052327
32678	9.587665	-0.053238	2.459278	-0.012122	-0.013137	0.085489	1.000000	0.000187	0.000292	0.000085	-0.903183	-75.659170	-7.023448
32679	9.494002	-0.078404	2.577908	-0.147833	-0.019379	0.024264	1.000000	0.000152	0.000265	0.000097	-0.921467	-75.634291	-6.977577
32680	9.443074	-0.079452	2.659432	-0.235922	-0.007561	-0.004792	1.000000	0.000089	0.000103	0.000084	-0.942052	-75.627623	-6.947352
32681	9.483556	-0.137248	2.599305	-0.176351	-0.073441	0.019737	1.000000	0.000059	-0.000043	0.000046	-0.950089	-75.637633	-6.932814
32682	9.521547	-0.100961	2.494836	-0.064133	-0.052546	0.030452	1.000000	0.000066	-0.000106	-0.000018	-0.929189	-75.654807	-6.954692
32683	9.560520	-0.046671	2.440970	0.001913	-0.008155	0.054631	1.000000	0.000058	-0.000053	-0.000067	-0.886749	-75.666351	-6.986769
32684	9.527610	-0.002785	2.419873	0.018966	0.032012	0.017356	1.000000	0.000107	0.000054	-0.000033	-0.853248	-75.665400	-7.011908
32685	9.529359	0.041421	2.483580	-0.035365	0.083504	0.034665	1.000000	0.000049	0.000084	0.000032	-0.855366	-75.661038	-7.002696
32686	9.542489	0.031464	2.521626	-0.069627	0.078456	0.056846	1.000000	0.000048	0.000052	0.000048	-0.864515	-75.660595	-6.972966
32687	9.526638	-0.023409	2.500591	-0.061546	0.022373	0.036477	1.000000	0.000018	-0.000049	0.000048	-0.878368	-75.671204	-6.961474
32688	9.539501	-0.016941	2.408310	0.028974	0.016788	0.026073	1.000000	0.000010	-0.000086	0.000023	-0.881742	-75.685849	-6.966528
32689	9.559102	-0.026915	2.353537	0.082919	-0.000425	0.031571	1.000000	0.000035	-0.000035	0.000042	-0.890407	-75.695336	-6.946177
32690	9.572811	-0.016961	2.312402	0.126422	0.003741	0.034658	1.000000	0.000047	0.000055	0.000012	-0.884336	-75.694343	-6.947296
32691	9.553371	-0.021786	2.366532	0.069753	0.006862	0.029210	1.000000	0.000039	0.000106	0.000064	-0.901653	-75.687310	-6.925768
32692	9.534229	-0.054684	2.419335	0.011441	-0.017597	0.023839	1.000000	0.000088	0.000132	0.000080	-0.920178	-75.677396	-6.892851
32693	9.515132	-0.087661	2.471830	-0.046843	-0.042037	0.018457	1.000000	0.000090	0.000074	0.000087	-0.942717	-75.674016	-6.858612
32694	9.525834	-0.114303	2.448862	-0.025992	-0.071132	0.023255	1.000000	0.000068	-0.000015	0.000047	-0.949927	-75.680972	-6.844455
32695	9.538056	-0.103626	2.397684	0.026415	-0.067510	0.022397	1.000000	0.000098	-0.000013	0.000022	-0.942709	-75.687710	-6.845624
32696	9.541236	-0.081029	2.378888	0.047295	-0.048186	0.020740	1.000000	0.000097	0.000013	-0.000012	-0.920296	-75.691755	-6.848948
32697	9.554149	-0.052396	2.379501	0.053554	-0.021044	0.033287	1.000000	0.000090	0.000075	-0.000013	-0.897655	-75.688584	-6.858250
32698	9.561047	-0.014219	2.432515	0.010502	0.022863	0.052926	1.000000	0.000095	0.000127	0.000032	-0.894290	-75.679201	-6.852069
32699	9.546396	-0.010612	2.477178	-0.034054	0.032188	0.049767	1.000000	0.000137	0.000116	0.000022	-0.881602	-75.671164	-6.851332
32700	9.515226	-0.019875	2.503452	-0.067161	0.026949	0.026111	1.000000	0.000102	0.000082	0.000040	-0.881191	-75.666873	-6.838859
32701	9.506638	-0.026459	2.495549	-0.062375	0.019513	0.015861	1.000000	0.000117	0.000030	0.000035	-0.877262	-75.668661	-6.828587
32702	9.506506	-0.002941	2.457863	-0.023637	0.037754	0.006313	1.000000	0.000078	0.000008	0.000019	-0.870761	-75.672968	-6.828214
32703	9.533892	-0.016012	2.452693	-0.014248	0.023230	0.031616	1.000000	0.000074	0.000030	0.000032	-0.870287	-75.674897	-6.814278
32704	9.533688	-0.016494	2.453480	-0.015142	0.023078	0.031615	1.000000	0.000077	0.000053	0.000057	-0.880652	-75.673845	-6.805246
32705	9.545420	-0.039780	2.480794	-0.041226	0.003722	0.049830	1.000000	0.000079	0.000064	0.000070	-0.896359	-75.671449	-6.790468
32706	9.540091	-0.048464	2.492004	-0.054259	-0.002615	0.047475	1.000000	0.000040	0.000037	0.000059	-0.912085	-75.672356	-6.773933
32707	9.530273	-0.068794	2.472934	-0.041373	-0.024382	0.033324	1.000000	0.000073	0.000016	0.000055	-0.922097	-75.675732	-6.754789
32708	9.536059	-0.079265	2.421613	0.007071	-0.041319	0.026273	1.000000	0.000026	-0.000019	0.000015	-0.919898	-75.682925	-6.766594
32709	9.549471	-0.065141	2.420221	0.012576	-0.027978	0.038869	1.000000	0.000029	0.000006	0.000004	-0.912575	-75.687236	-6.773591
32710	9.549401	-0.065293	2.420491	0.011687	-0.028127	0.038869	1.000000	0.000056	0.000022	0.000033	-0.914922	-75.689712	-6.770605
32711	9.557530	-0.059339	2.430147	0.005032	-0.020989	0.049110	1.000000	0.000081	0.000049	0.000051	-0.921980	-75.689285	-6.757197
32712	9.528426	-0.059802	2.426042	0.001884	-0.021090	0.019897	1.000000	0.000087	0.000053	0.000027	-0.917680	-75.688425	-6.758114
32713	9.548561	-0.052405	2.423839	0.009682	-0.014792	0.038833	1.000000	0.000103	0.000018	0.000030	-0.912914	-75.691746	-6.743462
32714	9.544766	-0.023443	2.406997	0.028222	0.011544	0.030880	1.000000	0.000085	0.000024	0.000008	-0.900321	-75.694349	-6.744228
32715	9.556607	-0.022460	2.395794	0.041810	0.010529	0.039582	1.000000	0.000056	0.000045	0.000035	-0.902926	-75.694204	-6.747177
32716	9.541164	-0.022207	2.389291	0.044272	0.010120	0.023010	1.000000	0.000089	0.000044	0.000003	-0.887563	-75.694276	-6.760616
32717	9.529982	0.003651	2.413974	0.021641	0.038937	0.018175	1.000000	0.000089	0.000088	0.000041	-0.889388	-75.689222	-6.759588
32718	9.548239	-0.012094	2.441224	-0.001276	0.026351	0.042661	1.000000	0.000109	0.000084	0.000051	-0.893479	-75.684498	-6.751910
32719	9.537694	-0.028035	2.463149	-0.026479	0.013831	0.037927	1.000000	0.000076	0.000065	0.000046	-0.899213	-75.682522	-6.736698
32720	9.539288	-0.042931	2.472714	-0.037170	0.000450	0.041895	1.000000	0.000081	0.000032	0.000044	-0.903232	-75.684118	-6.730801
32721	9.517211	-0.050301	2.466581	-0.037919	-0.006681	0.019015	1.000000	0.000078	0.000029	0.000056	-0.913150	-75.685859	-6.713146
32722	9.530874	-0.064461	2.464068	-0.034166	-0.020940	0.031688	1.000000	0.000069	0.000043	0.000063	-0.926576	-75.686276	-6.692637
32723	9.542664	-0.063961	2.453081	-0.020612	-0.021944	0.040395	1.000000	0.000088	0.000047	0.000033	-0.924793	-75.686016	-6.681860
32724	9.537126	-0.058047	2.465133	-0.032794	-0.014484	0.037985	1.000000	0.000083	0.000040	0.000026	-0.921097	-75.686551	-6.683318
32725	9.525135	-0.073036	2.476773	-0.049042	-0.027551	0.029303	1.000000	0.000050	0.000037	0.000029	-0.922052	-75.687552	-6.672122
32726	9.528262	-0.051032	2.458433	-0.028065	-0.008287	0.027710	1.000000	0.000082	0.000022	0.000019	-0.915138	-75.690106	-6.664659
32727	9.533324	-0.043296	2.448323	-0.016895	-0.002256	0.030084	1.000000	0.000054	-0.000007	0.000013	-0.908824	-75.696287	-6.664002
32728	9.548806	-0.033891	2.416762	0.017726	0.002387	0.037250	1.000000	0.000072	0.000024	0.000014	-0.901220	-75.698556	-6.658422
32729	9.548652	-0.033787	2.417373	0.016763	0.002229	0.037251	1.000000	0.000067	0.000040	0.000010	-0.891439	-75.699467	-6.658619
32730	9.542862	-0.013754	2.430492	0.005372	0.023462	0.034806	1.000000	0.000090	0.000061	0.000010	-0.879059	-75.697825	-6.659664
32731	9.542646	-0.013876	2.431342	0.004433	0.023306	0.034807	1.000000	0.000072	0.000028	0.000044	-0.884250	-75.699883	-6.636678
32732	9.540852	-0.013536	2.422502	0.012480	0.022612	0.030883	1.000000	0.000088	0.000053	0.000027	-0.880282	-75.698747	-6.639564
32733	9.543756	-0.014983	2.442855	-0.006339	0.023569	0.038731	1.000000	0.000059	0.000065	0.000030	-0.880393	-75.696785	-6.629757
32734	9.552570	-0.027029	2.411793	0.024274	0.007673	0.039644	1.000000	0.000064	0.000035	0.000057	-0.892534	-75.697576	-6.615173
32735	9.554193	-0.042067	2.421205	0.013609	-0.005700	0.043599	1.000000	0.000076	0.000041	0.000045	-0.897933	-75.697878	-6.608117
32736	9.533590	-0.049857	2.425163	0.003952	-0.012287	0.024643	1.000000	0.000088	0.000071	0.000034	-0.896473	-75.694989	-6.610769
32737	9.531344	-0.059244	2.455882	-0.026936	-0.017512	0.030095	1.000000	0.000087	0.000057	0.000057	-0.905525	-75.693566	-6.598448
32738	9.534765	-0.065140	2.436298	-0.007672	-0.025806	0.028594	1.000000	0.000088	0.000071	0.000034	-0.904489	-75.690669	-6.610221
32739	9.522476	-0.066237	2.449129	-0.023051	-0.025087	0.019861	1.000000	0.000078	0.000032	0.000020	-0.898416	-75.692194	-6.609435
32740	9.530832	-0.073718	2.457748	-0.030557	-0.031719	0.030116	1.000000	0.000085	0.000028	0.000037	-0.899340	-75.694135	-6.605331
32741	9.542317	-0.045289	2.448256	-0.015326	-0.005179	0.038787	1.000000	0.000072	0.000024	0.000014	-0.891165	-75.696642	-6.606368
32742	9.528495	-0.045529	2.451245	-0.021786	-0.005014	0.026134	1.000000	0.000091	0.000055	0.000015	-0.881075	-75.695544	-6.617704
32743	9.534749	-0.024606	2.452457	-0.018638	0.015353	0.032413	1.000000	0.000063	0.000043	0.000016	-0.874895	-75.695654	-6.619975
32744	9.519544	-0.038271	2.444940	-0.017008	0.001160	0.015874	1.000000	0.000070	0.000039	0.000033	-0.875219	-75.696272	-6.608917
32745	9.527661	-0.032064	2.454583	-0.023673	0.008296	0.026098	1.000000	0.000065	0.000032	0.000027	-0.873473	-75.697862	-6.610250
32746	9.539376	-0.017450	2.444118	-0.009306	0.021051	0.034809	1.000000	0.000083	0.000016	0.000025	-0.868885	-75.701329	-6.610245
32747	9.542966	-0.023355	2.423943	0.009937	0.012721	0.033326	1.000000	0.000068	0.000049	0.000057	-0.880430	-75.701009	-6.590014
32748	9.537621	-0.031462	2.435064	-0.003133	0.006409	0.030924	1.000000	0.000083	0.000040	0.000026	-0.876568	-75.701819	-6.583475
32749	9.542729	-0.037854	2.424771	0.007202	-0.001388	0.033356	1.000000	0.000061	0.000053	0.000041	-0.880673	-75.700934	-6.580581
32750	9.532025	-0.039990	2.447146	-0.017096	-0.000092	0.028519	1.000000	0.000083	0.000043	0.000056	-0.890015	-75.701072	-6.563381
32751	9.532023	-0.054247	2.447038	-0.018887	-0.014029	0.028544	1.000000	0.000070	0.000039	0.000033	-0.890467	-75.701763	-6.561759
32752	9.528890	-0.067061	2.427586	-0.002820	-0.029096	0.020754	1.000000	0.000065	0.000032	0.000027	-0.889016	-75.703385	-6.556498
32753	9.545482	-0.068240	2.445352	-0.016084	-0.028438	0.041224	1.000000	0.000086	0.000045	0.000044	-0.892676	-75.703305	-6.544800
32754	9.543511	-0.054386	2.437373	-0.007188	-0.015365	0.037290	1.000000	0.000068	0.000031	0.000050	-0.901559	-75.704697	-6.535937
32755	9.536386	-0.047928	2.439746	-0.010443	-0.008459	0.030947	1.000000	0.000101	0.000053	0.000020	-0.892708	-75.703816	-6.539926
32756	9.537713	-0.048662	2.450333	-0.020287	-0.008061	0.034850	1.000000	0.000075	0.000047	0.000039	-0.894733	-75.703472	-6.544605
32757	9.508487	-0.035055	2.446786	-0.022393	0.005650	0.005600	1.000000	0.000091	0.000032	0.000014	-0.884052	-75.704832	-6.565728
32758	9.537141	-0.035026	2.452673	-0.021249	0.005409	0.034821	1.000000	0.000070	0.000039	0.000033	-0.884238	-75.705609	-6.564129
32759	9.531620	-0.029139	2.464542	-0.033407	0.012884	0.032378	1.000000	0.000084	0.000034	0.000032	-0.882404	-75.706844	-6.564654
32760	9.540345	-0.027142	2.434197	-0.002009	0.010675	0.033333	1.000000	0.000073	0.000041	0.000021	-0.877421	-75.707232	-6.568716
32761	9.540151	-0.027432	2.434953	-0.002906	0.010522	0.033333	1.000000	0.000067	0.000037	0.000045	-0.883681	-75.707958	-6.557631
32762	9.541542	-0.028675	2.445271	-0.012772	0.010952	0.037232	1.000000	0.000064	0.000035	0.000057	-0.895635	-75.709099	-6.538963
32763	9.531065	-0.044402	2.466538	-0.037911	-0.001502	0.032389	1.000000	0.000064	0.000037	0.000022	-0.891635	-75.709750	-6.534450
32764	9.534654	-0.050286	2.446460	-0.018661	-0.009874	0.030933	1.000000	0.000077	0.000036	0.000050	-0.898846	-75.710861	-6.519661
32765	9.538267	-0.056272	2.426294	0.000622	-0.018255	0.029481	1.000000	0.000085	0.000028	0.000037	-0.899394	-75.712678	-6.506878
32766	9.548141	-0.064248	2.444674	-0.015890	-0.024329	0.043616	1.000000	0.000086	0.000042	0.000014	-0.889055	-75.713233	-6.509609
32767	9.536305	-0.055859	2.418220	0.007713	-0.019157	0.025585	1.000000	0.000065	0.000049	0.000034	-0.890761	-75.712623	-6.508621
32768	9.540766	-0.057965	2.448012	-0.019975	-0.017578	0.037269	1.000000	0.000076	0.000047	0.000039	-0.893072	-75.712092	-6.508168
32769	9.538975	-0.057689	2.439265	-0.011987	-0.018309	0.033373	1.000000	0.000079	0.000043	0.000033	-0.892334	-75.712429	-6.506253
32770	9.538553	-0.044090	2.441041	-0.012045	-0.004678	0.033350	1.000000	0.000098	0.000051	0.000032	-0.889032	-75.711865	-6.498807
32771	9.536737	-0.043621	2.432405	-0.004035	-0.005417	0.029457	1.000000	0.000068	0.000051	0.000022	-0.884692	-75.711221	-6.503234
32772	9.539852	-0.058750	2.451555	-0.023721	-0.018153	0.037259	1.000000	0.000085	0.000028	0.000037	-0.886146	-75.713186	-6.485107
32773	9.526495	-0.049902	2.415372	0.008800	-0.013581	0.015352	1.000000	0.000088	0.000053	0.000027	-0.881800	-75.712317	-6.480568
32774	9.539702	-0.035726	2.414981	0.014238	-0.000287	0.028000	1.000000	0.000066	0.000045	0.000004	-0.869828	-75.712478	-6.492402
32775	9.544151	-0.037396	2.444760	-0.013516	0.001320	0.039667	1.000000	0.000079	0.000049	0.000027	-0.866578	-75.712105	-6.513461
32776	9.530097	-0.024184	2.448725	-0.018962	0.015313	0.026977	1.000000	0.000076	0.000047	0.000039	-0.869769	-75.711511	-6.510250
32777	9.536795	-0.031272	2.448021	-0.017563	0.008101	0.033320	1.000000	0.000080	0.000038	0.000038	-0.871471	-75.712205	-6.508139
32778	9.531468	-0.039419	2.458926	-0.030577	0.001795	0.030879	1.000000	0.000069	0.000026	0.000056	-0.881925	-75.714123	-6.489187
32779	9.536615	-0.046180	2.448564	-0.020284	-0.006001	0.033336	1.000000	0.000081	0.000055	0.000045	-0.886870	-75.713067	-6.455930
32780	9.540024	-0.038378	2.429442	-0.000160	-0.000612	0.031891	1.000000	0.000085	0.000028	0.000037	-0.887563	-75.715186	-6.446305
32781	9.541584	-0.053210	2.438896	-0.010936	-0.013957	0.035793	1.000000	0.000063	0.000041	0.000051	-0.897068	-75.715682	-6.417362
32782	9.532919	-0.046480	2.431577	-0.005186	-0.007633	0.025564	1.000000	0.000077	0.000041	0.000044	-0.902173	-75.715972	-6.391371
32783	9.523641	-0.048758	2.463810	-0.038394	-0.005728	0.024536	1.000000	0.000127	0.000081	0.000038	-0.897461	-75.711759	-6.356789
32784	9.524661	0.023332	2.529181	-0.090889	0.073494	0.041388	1.000000	0.000236	0.000125	0.000080	-0.899201	-75.702629	-6.276925
32785	9.507436	-0.040805	2.550412	-0.121861	0.012842	0.030208	1.000000	0.000309	0.000129	0.000122	-0.911823	-75.692728	-6.171962
32786	9.529817	-0.058160	2.607770	-0.171862	0.001756	0.066164	1.000000	0.000331	0.000139	0.000110	-0.915939	-75.681939	-6.060339
32787	9.469550	-0.081183	2.628475	-0.207616	-0.017039	0.013016	1.000000	0.000304	0.000121	0.000116	-0.926607	-75.672849	-6.022629
32788	9.449996	-0.061867	2.643961	-0.224381	0.004560	-0.002161	1.000000	0.000332	0.000023	0.000102	-0.928485	-75.675097	-5.990643
32789	9.499528	-0.031787	2.608237	-0.174820	0.029029	0.036858	1.000000	0.000422	0.000000	0.000130	-0.932690	-75.679849	-5.945635
32790	9.523555	-0.016464	2.585449	-0.146004	0.040909	0.054427	1.000000	0.000592	0.000000	0.000154	-0.928053	-75.684560	-5.889686
32791	9.526099	-0.049236	2.553705	-0.119456	0.004462	0.049164	1.000000	0.000687	0.000009	0.000189	-0.928132	-75.688181	-5.817588
32792	9.491816	-0.056605	2.559739	-0.134443	-0.001749	0.017468	1.000000	0.000816	0.000086	0.000196	-0.916184	-75.682912	-5.742698
32793	9.485927	-0.040453	2.662575	-0.231691	0.024936	0.037157	1.000000	0.000892	0.000136	0.000199	-0.896522	-75.671938	-5.666726
32794	9.476137	-0.055351	2.696114	-0.265738	0.013059	0.036093	1.000000	0.000815	0.000190	0.000225	-0.896814	-75.654730	-5.579317
32795	9.485709	-0.058142	2.767548	-0.329238	0.016917	0.063177	1.000000	0.000717	0.000222	0.000174	-0.885355	-75.633916	-5.515583
32796	9.448062	-0.045835	2.807586	-0.372472	0.033298	0.036712	1.000000	0.000581	0.000196	0.000153	-0.879854	-75.616180	-5.461757
32797	9.372293	-0.095026	2.821090	-0.406444	-0.013208	-0.033010	1.000000	0.000399	0.000215	0.000108	-0.874955	-75.596285	-5.428961
32798	9.393081	-0.087702	2.831610	-0.407617	-0.006344	-0.010163	1.000000	0.000240	0.000182	0.000029	-0.853194	-75.580300	-5.432348
32799	9.417924	-0.012163	2.873764	-0.431237	0.071155	0.024230	1.000000	0.000197	0.000177	-0.000004	-0.821886	-75.564858	-5.450659
32800	9.480972	0.023602	2.888503	-0.423198	0.105149	0.088963	1.000000	0.000228	0.000195	0.000012	-0.794291	-75.547306	-5.461513
32801	9.409440	0.032719	2.843896	-0.394468	0.110006	0.008650	1.000000	0.000150	0.000161	0.000028	-0.782705	-75.533587	-5.465139
32802	9.488351	0.030043	2.914858	-0.439590	0.112833	0.102963	1.000000	-0.000069	0.000309	0.000045	-0.802887	-75.502915	-5.461912
32803	9.418333	0.073989	2.983368	-0.512068	0.165751	0.052467	1.000000	-0.000027	0.000385	0.000046	-0.818202	-75.463458	-5.458732
32804	9.444609	0.036019	3.033054	-0.551665	0.133607	0.090805	1.000000	0.000051	0.000266	0.000146	-0.869332	-75.437483	-5.409363
32805	9.354189	-0.006938	3.000075	-0.543139	0.091332	-0.004629	1.000000	0.000086	0.000210	0.000152	-0.919435	-75.417875	-5.356919
32806	9.377844	-0.016742	3.029673	-0.563062	0.085601	0.025950	1.000000	0.000110	0.000228	0.000122	-0.953249	-75.396259	-5.318455
32807	9.364949	-0.042298	3.094167	-0.627092	0.068889	0.030073	1.000000	0.000078	0.000241	0.000166	-1.009810	-75.372970	-5.260305
32808	9.404837	-0.085487	3.090275	-0.614242	0.026442	0.068106	1.000000	0.000054	0.000198	0.000130	-1.053477	-75.354663	-5.218299
32809	9.419706	-0.033014	3.113856	-0.623891	0.082332	0.088426	1.000000	0.000004	0.000225	0.000111	-1.094424	-75.333302	-5.185124
32810	9.372023	-0.070550	3.134020	-0.654972	0.049630	0.047862	1.000000	0.000032	0.000283	0.000113	-1.132029	-75.305167	-5.152083
32811	9.326806	-0.067217	3.175624	-0.701232	0.059467	0.014986	1.000000	0.000064	0.000268	0.000104	-1.162060	-75.278763	-5.123056
32812	9.342999	-0.055949	3.208155	-0.722509	0.074629	0.039187	1.000000	0.000144	0.000271	0.000128	-1.193339	-75.251927	-5.083307
32813	9.289276	-0.031152	3.242022	-0.761146	0.104748	-0.003915	1.000000	0.000242	0.000288	0.000146	-1.220857	-75.223090	-5.035865
32814	9.253530	-0.067391	3.250803	-0.777805	0.071148	-0.035671	1.000000	0.000246	0.000265	0.000168	-1.257574	-75.196808	-4.978530
32815	9.264478	-0.090667	3.292467	-0.813021	0.052660	-0.013946	1.000000	0.000239	0.000264	0.000121	-1.274691	-75.170630	-4.942253
32816	9.237256	-0.087122	3.360227	-0.880633	0.064012	-0.022590	1.000000	0.000199	0.000219	0.000104	-1.289270	-75.149642	-4.913397
32817	9.324591	-0.079630	3.351356	-0.845544	0.068566	0.059814	1.000000	0.000171	0.000203	0.000075	-1.294868	-75.130516	-4.897147
32818	9.301383	-0.053664	3.399064	-0.891127	0.099233	0.049781	1.000000	0.000149	0.000220	0.000019	-1.278526	-75.109550	-4.906277
32819	9.317720	-0.026761	3.431068	-0.911419	0.128234	0.073956	1.000000	0.000095	0.000202	0.000039	-1.277301	-75.090540	-4.906250
32820	9.245756	-0.049775	3.473329	-0.970300	0.111360	0.015670	1.000000	0.000004	0.000135	0.000036	-1.285664	-75.079191	-4.907108
32821	9.232547	-0.041727	3.437810	-0.937450	0.116007	-0.006162	1.000000	0.000055	0.000063	0.000017	-1.280935	-75.076064	-4.915572
32822	9.267662	-0.021170	3.444262	-0.932106	0.136375	0.029342	1.000000	0.000058	0.000040	0.000039	-1.285549	-75.075493	-4.914025
32823	9.229331	-0.022437	3.469972	-0.967007	0.138687	-0.001091	1.000000	0.000130	0.000005	0.000039	-1.282034	-75.078817	-4.912410
32824	9.249888	-0.015341	3.467008	-0.959063	0.145030	0.017876	1.000000	0.000169	-0.000033	0.000075	-1.290179	-75.086393	-4.894165
32825	9.252808	-0.021122	3.435998	-0.930738	0.135635	0.012602	1.000000	0.000221	-0.000052	0.000077	-1.293142	-75.096324	-4.844882
32826	9.238272	-0.062523	3.425782	-0.930711	0.093931	-0.003991	1.000000	0.000222	-0.000053	0.000112	-1.311147	-75.106119	-4.802930
32827	9.275395	-0.061217	3.389823	-0.888227	0.090935	0.022473	1.000000	0.000206	-0.000058	0.000066	-1.311096	-75.116481	-4.785206
32828	9.334314	-0.067094	3.360632	-0.847018	0.081094	0.071834	1.000000	0.000193	-0.000013	0.000110	-1.331179	-75.121519	-4.747816
32829	9.303782	-0.025792	3.347429	-0.837806	0.121908	0.038684	1.000000	0.000254	0.000072	0.000110	-1.343393	-75.116827	-4.714808
32830	9.344423	-0.034359	3.392167	-0.870116	0.117137	0.089605	1.000000	0.000273	0.000109	0.000105	-1.350831	-75.107820	-4.684880
32831	9.316334	-0.048436	3.397870	-0.882559	0.104080	0.064164	1.000000	0.000388	0.000126	0.000139	-1.359644	-75.096748	-4.640407
32832	9.243029	-0.020331	3.381622	-0.881567	0.131624	-0.010907	1.000000	0.000453	0.000064	0.000161	-1.370976	-75.092613	-4.585411
32833	9.267296	-0.014048	3.409038	-0.900432	0.139792	0.019617	1.000000	0.000548	0.000062	0.000184	-1.381298	-75.088681	-4.520232
32834	9.339080	-0.005714	3.380547	-0.852813	0.143364	0.081690	1.000000	0.000630	0.000100	0.000221	-1.397791	-75.080201	-4.438890
32835	9.387681	0.006131	3.435180	-0.889919	0.159721	0.142793	1.000000	0.000690	0.000133	0.000301	-1.441156	-75.067690	-4.322818
32836	9.264216	-0.017961	3.503436	-0.988263	0.145730	0.041357	1.000000	0.000782	0.000057	0.000367	-1.503210	-75.063637	-4.176532
32837	9.238316	-0.033673	3.516579	-1.009617	0.133330	0.019751	0.999999	0.000908	-0.000069	0.000435	-1.581337	-75.073758	-3.998673
32838	9.241448	-0.116036	3.433200	-0.938922	0.045270	0.001642	0.999999	0.000970	-0.000144	0.000456	-1.662691	-75.092271	-3.810228
32839	9.327875	-0.148854	3.299242	-0.793806	0.000410	0.050694	0.999999	0.001107	-0.000129	0.000465	-1.732091	-75.108880	-3.617854
32840	9.334849	-0.217563	3.245977	-0.749057	-0.072055	0.044129	0.999999	0.001180	-0.000062	0.000427	-1.776138	-75.117888	-3.443105
32841	9.434390	-0.302543	3.359413	-0.839411	-0.148851	0.170205	0.999999	0.001205	0.000156	0.000357	-1.784409	-75.102133	-3.302493
32842	9.212133	-0.197416	3.426833	-0.949000	-0.037324	-0.027824	0.999999	0.001261	0.000180	0.000330	-1.774240	-75.083703	-3.174309
32843	9.033471	-0.174484	3.505616	-1.066041	-0.008288	-0.180093	0.999999	0.001278	0.000140	0.000338	-1.766025	-75.069792	-3.042149
32844	9.027106	-0.220605	3.517542	-1.081702	-0.055663	-0.182670	0.999999	0.001202	0.000019	0.000368	-1.780739	-75.069534	-2.895340
32845	9.211274	-0.344287	3.538484	-1.065487	-0.181488	0.001525	0.999999	0.001135	-0.000124	0.000332	-1.789605	-75.085770	-2.762515
32846	9.521792	-0.183509	3.404010	-0.846863	-0.037995	0.265351	0.999999	0.001227	-0.000195	0.000258	-1.757221	-75.110324	-2.661510
32847	9.463729	-0.081953	3.283605	-0.740322	0.051210	0.177320	0.999999	0.001376	0.000018	0.000265	-1.708237	-75.110460	-2.560064
32848	9.274478	-0.001035	3.185204	-0.686652	0.123441	-0.031341	0.999999	0.001462	0.000202	0.000369	-1.691764	-75.089180	-2.414803
32849	9.176203	0.056313	3.194159	-0.712124	0.180576	-0.124097	0.999999	0.001387	0.000320	0.000471	-1.725650	-75.054008	-2.226264
32850	9.300211	0.088938	3.251432	-0.726815	0.216113	0.010687	0.999999	0.001353	0.000396	0.000580	-1.808515	-75.009683	-1.991193
32851	9.558496	-0.088531	3.390135	-0.797367	0.047952	0.298079	0.999999	0.001302	0.000432	0.000654	-1.927005	-74.960852	-1.725164
32852	9.417781	-0.165282	3.468162	-0.905017	-0.020438	0.183842	0.999999	0.001357	0.000449	0.000608	-2.018466	-74.910058	-1.480619
32853	9.188654	-0.211249	3.606772	-1.093321	-0.055172	-0.000125	0.999999	0.001281	0.000314	0.000586	-2.110242	-74.874728	-1.244702
32854	9.039500	-0.224709	3.552140	-1.077295	-0.070172	-0.157882	0.999999	0.001234	-0.000013	0.000505	-2.177954	-74.877038	-1.039356
32855	9.089128	-0.248409	3.454973	-0.974374	-0.098548	-0.135308	0.999999	0.001161	-0.000247	0.000511	-2.260413	-74.906026	-0.827500
32856	9.217097	-0.302321	3.315170	-0.814171	-0.158910	-0.048032	0.999999	0.001121	-0.000298	0.000465	-2.329631	-74.940885	-0.634194
32857	9.168501	-0.332884	3.161518	-0.684233	-0.196258	-0.134840	0.999999	0.000990	-0.000144	0.000367	-2.369571	-74.958565	-0.486708
32858	9.271088	-0.339297	3.245503	-0.739702	-0.199256	-0.013982	1.000000	0.000864	0.000052	0.000228	-2.361531	-74.954378	-0.403952
32859	9.352219	-0.197597	3.410764	-0.869615	-0.051297	0.105855	1.000000	0.000683	0.000143	0.000196	-2.359084	-74.939904	-0.336876
32860	9.423829	-0.291827	3.542215	-0.981078	-0.140082	0.210230	1.000000	0.000449	-0.000015	0.000158	-2.370157	-74.943648	-0.283635
32861	9.462796	-0.295429	3.416414	-0.852492	-0.149753	0.215000	1.000000	0.000130	-0.000222	0.000027	-2.365621	-74.971753	-0.284425
32862	9.490180	-0.166332	3.325859	-0.758043	-0.025349	0.216133	1.000000	0.000017	-0.000308	-0.000030	-2.351249	-75.009886	-0.308890
32863	9.578038	0.115452	3.341088	-0.743445	0.257309	0.301465	1.000000	-0.000100	-0.000257	0.000044	-2.380877	-75.041807	-0.301638
32864	9.322279	-0.005478	3.404646	-0.882723	0.143184	0.071483	1.000000	-0.000323	-0.000360	0.000141	-2.479586	-75.085037	-0.249377
32865	9.078081	-0.045171	3.185509	-0.745545	0.098318	-0.221256	1.000000	-0.000438	-0.000609	0.000081	-2.570887	-75.157065	-0.218493
32866	9.082694	-0.096828	2.898609	-0.482088	0.036764	-0.290458	1.000000	-0.000382	-0.000644	0.000029	-2.634499	-75.233308	-0.209610
32867	9.176509	-0.133452	2.660232	-0.238948	-0.009579	-0.260422	1.000000	-0.000408	-0.000279	-0.000067	-2.652215	-75.268325	-0.251281
32868	9.471662	-0.191569	2.775186	-0.278928	-0.062387	0.054888	1.000000	-0.000504	0.000215	-0.000208	-2.609935	-75.247461	-0.366381
32869	9.736859	-0.009346	3.055419	-0.466005	0.131492	0.380822	1.000000	-0.000546	0.000526	-0.000280	-2.535477	-75.191359	-0.519820
32870	9.441786	0.133325	3.292498	-0.753496	0.285095	0.155090	1.000000	-0.000477	0.000454	-0.000211	-2.484906	-75.143163	-0.640336
32871	9.175659	0.117463	3.356715	-0.878654	0.274022	-0.085050	1.000000	-0.000470	0.000167	-0.000025	-2.519403	-75.126860	-0.672091
32872	9.259464	0.077204	3.316244	-0.819744	0.234723	-0.014012	1.000000	-0.000536	-0.000100	0.000038	-2.593899	-75.140800	-0.670355
32873	9.343266	-0.008945	3.075068	-0.574094	0.139467	0.005851	1.000000	-0.000546	-0.000274	0.000076	-2.689375	-75.174443	-0.648154
32874	9.350402	-0.125701	2.933105	-0.446841	0.018683	-0.022442	1.000000	-0.000477	-0.000204	0.000008	-2.746297	-75.200403	-0.657657
32875	9.347042	-0.182372	2.913199	-0.433646	-0.037914	-0.030167	1.000000	-0.000371	0.000064	-0.000146	-2.718950	-75.196513	-0.741701
32876	9.262747	-0.100645	3.142962	-0.671132	0.056611	-0.053938	1.000000	-0.000300	0.000099	-0.000168	-2.673303	-75.188735	-0.836305
32877	9.222768	-0.049899	3.197612	-0.731470	0.109712	-0.079262	1.000000	-0.000323	-0.000086	-0.000147	-2.642938	-75.201956	-0.917825
32878	9.179515	0.046072	3.072450	-0.618675	0.197826	-0.154340	1.000000	-0.000268	-0.000153	-0.000077	-2.637959	-75.222468	-0.966645
32879	9.425826	0.131687	3.161020	-0.639528	0.289109	0.105125	1.000000	-0.000240	-0.000174	0.000043	-2.682155	-75.244701	-0.961286
32880	9.911688	-0.108254	3.106647	-0.484312	0.047688	0.563617	1.000000	-0.000293	-0.000407	0.000123	-2.772127	-75.293199	-0.914906
32881	10.080978	-0.150301	2.955615	-0.307211	-0.001242	0.689217	1.000000	-0.000175	-0.000427	0.000032	-2.809502	-75.344466	-0.908889
32882	9.589669	-0.235208	2.698867	-0.194326	-0.099835	0.149904	1.000000	-0.000071	-0.000033	-0.000048	-2.791821	-75.351118	-0.947546
32883	8.907934	-0.291991	2.634556	-0.306663	-0.159640	-0.525174	1.000000	-0.000077	0.000276	-0.000162	-2.718320	-75.322947	-1.044583
32884	8.965022	-0.131382	2.589817	-0.234438	-0.006301	-0.483110	1.000000	-0.000076	0.000261	-0.000250	-2.606947	-75.296907	-1.180652
32885	9.273331	0.034961	2.785511	-0.328915	0.166868	-0.137000	1.000000	-0.000022	0.000374	-0.000158	-2.527724	-75.257410	-1.277063
32886	9.459491	0.008045	2.944897	-0.428117	0.146631	0.084265	1.000000	0.000056	0.000596	-0.000048	-2.483841	-75.192017	-1.327753
32887	9.329416	-0.172875	3.212758	-0.720384	-0.017070	0.029592	1.000000	-0.000006	0.000581	-0.000009	-2.464614	-75.128089	-1.360360
32888	9.292969	-0.322306	3.296128	-0.811874	-0.162213	0.017987	1.000000	0.000056	0.000288	-0.000096	-2.406039	-75.098149	-1.426256
32889	9.544207	-0.168352	3.476909	-0.911048	-0.002271	0.305568	1.000000	0.000195	-0.000166	-0.000223	-2.285427	-75.120755	-1.539910
32890	9.790095	-0.043957	3.305909	-0.682706	0.103637	0.497506	1.000000	0.000202	-0.000520	-0.000226	-2.168070	-75.183731	-1.649418
32891	9.441781	0.009424	2.930969	-0.418737	0.131203	0.063817	1.000000	0.000203	-0.000616	-0.000088	-2.110969	-75.257093	-1.696483
32892	8.996832	-0.060886	2.681451	-0.306399	0.046381	-0.429680	1.000000	0.000220	-0.000430	-0.000021	-2.077896	-75.308855	-1.716713
32893	8.995806	-0.247147	2.628102	-0.274463	-0.143453	-0.442702	1.000000	0.000126	-0.000294	0.000036	-2.078143	-75.344822	-1.713555
32894	9.536887	-0.301085	2.642633	-0.161211	-0.202174	0.084762	1.000000	0.000258	-0.000289	-0.000132	-1.989750	-75.380926	-1.786432
32895	9.969740	-0.134542	2.713009	-0.112121	-0.040795	0.519786	1.000000	0.000480	0.000061	-0.000269	-1.810355	-75.377436	-1.927083
32896	9.524113	-0.050825	2.822451	-0.320328	0.045957	0.115697	1.000000	0.000409	0.000480	-0.000201	-1.663387	-75.325600	-2.042572
32897	9.285472	-0.017815	3.071528	-0.612089	0.090844	-0.051966	1.000000	0.000345	0.000306	-0.000136	-1.555093	-75.293382	-2.125745
32898	9.384489	0.101233	3.027895	-0.535607	0.202056	0.032074	1.000000	0.000256	-0.000064	-0.000062	-1.493973	-75.303349	-2.170727
32899	9.407835	-0.004066	2.855439	-0.373423	0.084573	0.011482	1.000000	0.000286	-0.000248	0.000078	-1.492398	-75.333910	-2.150598
32900	9.344088	-0.164473	2.667176	-0.221254	-0.087445	-0.096914	1.000000	0.000362	-0.000058	0.000024	-1.456124	-75.342880	-2.157271
32901	9.297575	-0.160065	2.734600	-0.296955	-0.081313	-0.124872	1.000000	0.000443	0.000199	-0.000070	-1.366613	-75.322722	-2.209399
32902	9.208853	0.089983	2.924875	-0.484237	0.176717	-0.163841	1.000000	0.000395	0.000226	-0.000066	-1.284371	-75.299441	-2.259730
32903	9.306801	0.279736	3.057502	-0.573868	0.370944	-0.036380	1.000000	0.000339	0.000042	0.000092	-1.279377	-75.296763	-2.236811
32904	9.513793	0.260673	3.035267	-0.503687	0.350720	0.158087	1.000000	0.000219	-0.000268	0.000316	-1.389470	-75.329009	-2.109186
32905	9.649592	0.026444	3.063218	-0.516877	0.122741	0.297525	1.000000	0.000216	-0.000363	0.000361	-1.521226	-75.372008	-1.959594
32906	9.642394	-0.163474	2.823808	-0.306630	-0.075227	0.231052	1.000000	0.000156	-0.000405	0.000324	-1.644827	-75.419734	-1.825568
32907	9.621597	-0.062691	2.549244	-0.050518	0.013932	0.140953	1.000000	0.000209	-0.000574	0.000229	-1.723334	-75.487083	-1.731827
32908	9.549445	-0.104483	2.288705	0.174577	-0.039834	0.006117	1.000000	0.000208	-0.000018	0.000164	-1.766427	-75.491071	-1.674835
32909	9.161380	-0.017910	2.309867	0.066566	0.052888	-0.364965	1.000000	0.000023	0.000525	0.000190	-1.834221	-75.432751	-1.614167
32910	9.130899	-0.166102	2.623068	-0.242355	-0.073624	-0.314412	1.000000	-0.000113	0.000564	0.000166	-1.906073	-75.370082	-1.565403
32911	9.573177	-0.288453	2.875568	-0.372056	-0.181526	0.178630	1.000000	-0.000209	0.000475	0.000060	-1.943652	-75.318011	-1.563374
32912	10.113347	-0.031392	3.125646	-0.452431	0.087381	0.762666	1.000000	-0.000185	0.000421	-0.000007	-1.949929	-75.272294	-1.590877
32913	9.782597	0.167862	3.245578	-0.633283	0.297363	0.471849	1.000000	-0.000232	0.000267	0.000081	-2.002134	-75.243956	-1.576446
32914	8.906533	0.109749	2.940261	-0.564294	0.230760	-0.452568	1.000000	-0.000290	-0.000180	0.000205	-2.121751	-75.266179	-1.499290
32915	8.880950	-0.068871	2.576020	-0.236720	0.036230	-0.568526	1.000000	-0.000475	-0.000511	0.000236	-2.281871	-75.326219	-1.402220
32916	9.361561	-0.153700	2.509114	-0.064171	-0.049155	-0.119826	1.000000	-0.000550	-0.000371	0.000156	-2.414334	-75.370460	-1.342585
32917	9.808785	-0.275843	2.521528	0.025906	-0.169051	0.317327	1.000000	-0.000505	0.000095	-0.000024	-2.454311	-75.362297	-1.373179
32918	10.046178	-0.159592	2.755298	-0.128480	-0.038686	0.604837	1.000000	-0.000472	0.000326	-0.000144	-2.433755	-75.328219	-1.462441
32919	9.711329	-0.227269	2.830420	-0.284937	-0.100892	0.300743	1.000000	-0.000362	0.000267	-0.000223	-2.367085	-75.301241	-1.586304
32920	9.178073	-0.158818	2.911455	-0.489839	-0.026656	-0.195091	1.000000	-0.000348	0.000216	-0.000296	-2.268669	-75.280437	-1.741435
32921	9.079634	-0.210573	2.818352	-0.428751	-0.087361	-0.313437	1.000000	-0.000498	-0.000147	-0.000328	-2.179702	-75.301304	-1.904596
32922	9.569955	-0.088400	2.464323	0.039617	0.002160	0.069780	1.000000	-0.000579	-0.000389	-0.000363	-2.088164	-75.349936	-2.079922
32923	9.630419	0.023432	2.283585	0.233332	0.095702	0.081588	1.000000	-0.000483	0.000070	-0.000371	-1.974461	-75.345971	-2.266788
32924	9.389714	0.019101	2.374315	0.090370	0.094629	-0.128301	1.000000	-0.000391	0.000604	-0.000371	-1.842951	-75.280835	-2.461125
32925	9.492316	0.235971	3.000603	-0.459763	0.350440	0.128598	1.000000	-0.000390	0.000661	-0.000311	-1.737909	-75.208883	-2.628102
32926	9.504620	0.088691	3.323729	-0.770971	0.225164	0.224630	1.000000	-0.000580	0.000201	-0.000186	-1.715491	-75.189093	-2.732147
32927	9.502298	-0.049536	3.312961	-0.774666	0.086753	0.220467	1.000000	-0.000738	-0.000451	-0.000267	-1.684264	-75.244215	-2.864060
32928	9.090157	0.028722	2.778061	-0.371113	0.128201	-0.315571	0.999999	-0.000834	-0.000873	-0.000377	-1.620639	-75.347954	-3.040838
32929	9.435564	0.053147	2.415308	0.049736	0.117538	-0.073587	0.999999	-0.000927	-0.000962	-0.000414	-1.550501	-75.461982	-3.235192
32930	9.745953	0.238248	1.959577	0.566284	0.257696	0.111687	0.999999	-0.000911	-0.000641	-0.000395	-1.481474	-75.539134	-3.426478
32931	9.522806	0.126118	1.822311	0.629982	0.134334	-0.137687	0.999999	-0.000985	0.000320	-0.000327	-1.439956	-75.506007	-3.598075
32932	9.513302	0.011299	2.220946	0.245535	0.050473	-0.046788	0.999999	-0.001045	0.001004	-0.000354	-1.386448	-75.394676	-3.789136
32933	9.918124	0.423269	2.822417	-0.176775	0.502930	0.494115	0.999999	-0.000985	0.000877	-0.000387	-1.314920	-75.297892	-3.991748
32934	9.806501	0.435791	3.159551	-0.512536	0.547016	0.472166	0.999999	-0.001161	0.000622	-0.000173	-1.360611	-75.229706	-4.094141
32935	9.042769	0.319028	3.068701	-0.621851	0.440875	-0.288544	0.999999	-0.001314	0.000112	-0.000051	-1.481944	-75.219712	-4.136352
32936	8.961472	0.106916	2.887919	-0.492181	0.221274	-0.412247	0.999999	-0.001478	-0.000528	-0.000086	-1.614446	-75.283097	-4.186569
32937	9.108117	-0.075975	2.616207	-0.224295	0.016228	-0.338643	0.999999	-0.001502	-0.000807	-0.000230	-1.690396	-75.378997	-4.298052
32938	9.587935	-0.090079	2.324791	0.160154	-0.034026	0.052121	0.999999	-0.001390	-0.000726	-0.000405	-1.674633	-75.466125	-4.490916
32939	9.733715	0.010425	2.247567	0.272144	0.052167	0.173307	0.999999	-0.001283	-0.000143	-0.000584	-1.559417	-75.487030	-4.773868
32940	9.964975	0.292259	2.535151	0.083117	0.352712	0.467478	0.999999	-0.001128	0.000113	-0.000556	-1.435643	-75.478427	-5.047258
32941	10.047998	0.417787	2.623934	0.031242	0.481742	0.569450	0.999999	-0.001083	-0.000239	-0.000363	-1.395589	-75.509589	-5.228857
32942	9.619247	0.237914	2.401989	0.112084	0.288072	0.099956	0.999999	-0.001117	-0.000301	-0.000206	-1.429303	-75.547382	-5.338187
32943	9.301082	0.081507	2.037880	0.362065	0.099344	-0.298027	0.999999	-0.001222	0.000020	-0.000232	-1.459667	-75.548534	-5.463316
32944	9.074753	0.241959	1.979985	0.382958	0.257243	-0.532752	0.999999	-0.001255	0.000223	-0.000239	-1.488673	-75.526515	-5.593820
32945	9.267904	0.224691	2.076348	0.343265	0.246131	-0.321780	0.999999	-0.000998	0.000504	-0.000220	-1.493459	-75.472236	-5.718861
32946	9.613720	0.186511	2.372457	0.153286	0.234580	0.087232	0.999999	-0.000843	0.000817	-0.000140	-1.512630	-75.381954	-5.810646
32947	9.843932	0.054399	2.942189	-0.336171	0.167941	0.454795	0.999999	-0.000719	0.000807	-0.000091	-1.539870	-75.292675	-5.879499
32948	9.419836	0.025197	3.329451	-0.806354	0.198780	0.143691	1.000000	-0.000617	0.000413	-0.000158	-1.531073	-75.248683	-5.973477
32949	9.298390	0.004997	3.305824	-0.818352	0.179380	0.020251	1.000000	-0.000435	-0.000506	-0.000179	-1.502861	-75.310037	-6.066022
32950	9.162398	0.069148	3.085840	-0.650347	0.219563	-0.168751	0.999999	-0.000383	-0.001204	-0.000211	-1.461810	-75.451379	-6.165730
32951	9.273520	-0.028587	2.428992	-0.032223	0.036545	-0.226419	0.999999	-0.000223	-0.001545	-0.000151	-1.431276	-75.631551	-6.235561
32952	10.034366	-0.086403	1.840914	0.683132	-0.116289	0.365951	0.999999	0.000001	-0.001365	-0.000128	-1.381998	-75.791048	-6.298171
32953	10.473456	0.078828	1.576216	1.048687	0.000178	0.726962	1.000000	0.000200	-0.000297	-0.000123	-1.300107	-75.828287	-6.370827
32954	10.082978	0.179306	1.872510	0.686966	0.145909	0.420184	1.000000	0.000343	0.000850	0.000038	-1.262654	-75.733680	-6.380645
32955	9.122292	0.109478	2.210537	0.135537	0.145066	-0.427847	0.999999	0.000351	0.001037	0.000228	-1.307751	-75.617206	-6.304288
32956	8.707153	-0.032605	2.409581	-0.162012	0.042447	-0.779770	1.000000	0.000377	0.000579	0.000350	-1.407809	-75.552904	-6.168066
32957	10.305044	0.044475	2.091880	0.554521	0.038510	0.687926	1.000000	0.000582	-0.000014	0.000318	-1.476487	-75.556577	-6.039962
32958	13.080872	-0.266147	0.678119	2.546707	-0.513848	3.028265	0.999999	0.000745	-0.001071	0.000449	-1.598001	-75.680957	-5.837947
32959	10.807288	-0.222004	0.046994	2.603042	-0.484756	0.667677	0.999999	0.000393	0.001616	0.000350	-1.681868	-75.497822	-5.716283
32960	5.043818	-0.292549	1.614425	-0.292900	-0.218040	-4.521350	0.999975	0.000684	0.007088	0.000210	-1.600545	-74.688513	-5.730718
32961	4.231971	0.443342	4.132137	-2.748854	0.830459	-4.622867	0.999973	0.001612	0.007151	0.000142	-1.392432	-73.872226	-5.766372
32962	7.228745	0.304835	5.893554	-3.571620	0.808921	-1.229518	0.999998	0.001437	0.001191	0.000906	-1.568272	-73.736238	-5.423297
32963	12.797805	-0.602362	5.023573	-1.359022	-0.323507	3.877806	0.999985	0.001156	-0.005236	0.001423	-2.067050	-74.333860	-4.778497
32964	11.817092	-0.734591	3.028751	0.153266	-0.631701	2.391138	0.999991	0.001179	-0.003892	0.000861	-2.345696	-74.778707	-4.361002
32965	13.104364	-0.497613	3.404619	0.095110	-0.367294	3.730554	0.999997	0.001905	-0.001261	0.000364	-2.297507	-74.924475	-4.196489
32966	15.047333	-0.799986	5.339134	-1.327291	-0.493973	6.110965	0.999998	0.001696	-0.001308	0.000257	-2.229319	-75.076137	-4.077542
32967	9.926368	-0.538800	4.438394	-1.806795	-0.242146	0.920385	0.999993	0.001373	-0.003414	0.000052	-2.145596	-75.469846	-4.013173
32968	5.256721	0.056932	2.601393	-1.214269	0.237682	-4.079251	0.999983	0.001460	-0.005660	0.000095	-2.110001	-76.120591	-3.889109
32969	2.743824	0.252431	0.115647	0.553154	0.220844	-7.119956	0.999977	0.001499	-0.006638	0.000320	-2.202775	-76.882254	-3.628886
32970	2.784098	0.425504	-0.779572	1.412345	0.310238	-7.273219	0.999978	0.001220	-0.006394	0.000796	-2.593013	-77.613460	-3.097247
32971	6.578167	-0.002730	-0.415150	1.778044	-0.107447	-3.466730	0.999983	0.001440	-0.005583	0.001243	-3.236233	-78.248210	-2.282347
32972	16.569768	-0.502707	-0.669160	3.922974	-0.660096	6.294165	0.999992	0.000199	-0.003587	0.002001	-4.457782	-78.646182	-1.023800
32973	15.240137	-1.308773	-0.128837	3.046837	-1.361659	5.115583	0.999995	0.000932	0.002793	0.000742	-4.633063	-78.323891	-0.747252
32974	12.741002	-1.229548	-0.416418	2.949406	-1.302264	2.581717	0.999980	0.001484	0.006169	0.000113	-4.257947	-77.621728	-0.968082
32975	11.907430	-0.882125	1.017921	1.580710	-0.846195	2.035654	0.999965	0.001370	0.008209	-0.000549	-3.538081	-76.691235	-1.556409
32976	8.215184	-0.462428	3.891013	-1.841784	-0.183194	-0.901173	0.999959	0.000461	0.008990	-0.000659	-2.936060	-75.670695	-2.132846
32977	6.814411	-0.293001	3.471925	-1.649843	-0.058016	-2.339376	0.999985	0.000394	0.005470	-0.000201	-2.679952	-75.049388	-2.361965
32978	6.446653	-0.086922	3.439751	-1.642305	0.137016	-2.693504	0.999998	0.000729	0.001945	-0.000272	-2.438756	-74.831752	-2.536387
32979	7.587072	0.016131	3.427840	-1.308724	0.217555	-1.593569	1.000000	0.000535	0.000288	-0.000088	-2.330357	-74.802748	-2.596492
32980	8.849851	-0.077034	3.203133	-0.767770	0.089495	-0.432476	1.000000	0.000097	0.000029	0.000186	-2.392486	-74.802009	-2.531967
32981	10.601776	-0.411221	2.976563	-0.114806	-0.280968	1.202509	1.000000	0.000165	0.000407	0.000144	-2.422005	-74.758150	-2.493194
32982	11.855539	-0.780193	3.436031	-0.246513	-0.627126	2.536998	1.000000	0.000043	0.000651	-0.000210	-2.312986	-74.688002	-2.612487
32983	10.686308	-0.640052	4.225819	-1.285832	-0.421742	1.616796	0.999999	0.000558	0.000877	-0.000771	-1.909643	-74.594251	-2.975864
32984	8.677146	-0.342335	4.222454	-1.788258	-0.120375	-0.324444	0.999999	0.000959	-0.000568	-0.000898	-1.427668	-74.665608	-3.373173
32985	8.524054	0.155272	3.850816	-1.468718	0.327313	-0.579717	0.999993	0.001140	-0.003325	-0.000846	-0.963110	-75.051786	-3.730616
32986	9.273980	0.476288	2.615245	-0.142282	0.524282	-0.180600	0.999986	0.000953	-0.005137	-0.000493	-0.664362	-75.644315	-3.938063
32987	10.154936	0.301910	1.050011	1.472822	0.212069	0.291836	0.999988	0.000660	-0.004892	-0.000113	-0.554348	-76.208183	-3.985036
32988	10.825705	0.456714	0.117855	2.465209	0.288972	0.735168	0.999995	0.000532	-0.002995	0.000149	-0.571125	-76.554411	-3.916537
32990	9.922986	0.119420	0.298472	4.034444	-0.012605	9.629508	0.999999	0.001069	-0.000564	0.000952	-0.902515	-76.620938	-3.461136
32991	8.635006	0.060952	0.962493	1.071264	0.014511	-1.190297	1.000000	0.000513	0.000630	0.000425	-1.035726	-76.551449	-3.274794
32992	8.590109	0.099993	1.420464	0.625899	0.094152	-1.128387	1.000000	0.000599	0.000113	0.000581	-1.237322	-76.540820	-3.007878
32993	9.439754	-0.280377	1.212941	0.989064	-0.300864	-0.347488	0.999999	0.000572	-0.000944	0.000648	-1.487075	-76.650930	-2.694640
32994	10.547739	-0.337395	0.899078	1.522566	-0.381377	0.661721	0.999999	0.000562	-0.001341	0.000453	-1.653451	-76.806913	-2.468367
32995	11.604766	-0.242409	0.516537	2.118283	-0.315590	1.607006	0.999999	0.000467	-0.000846	0.000291	-1.747585	-76.906601	-2.327554
32996	11.444275	-0.196736	0.293017	2.290426	-0.277759	1.402159	1.000000	0.000217	-0.000181	0.000286	-1.859145	-76.930265	-2.198107
32997	10.256210	-0.166275	0.307684	2.010493	-0.230727	0.247971	1.000000	0.000257	0.000301	0.000292	-1.961522	-76.898666	-2.073243
32998	9.152159	-0.117584	0.490206	1.592067	-0.155771	-0.787324	1.000000	0.000307	0.000321	0.000323	-2.072411	-76.864753	-1.933611
32999	8.862522	-0.190569	0.364825	1.644808	-0.229921	-1.097445	1.000000	0.000232	-0.000106	0.000345	-2.209866	-76.879685	-1.775462
33000	9.165046	-0.165070	0.239341	1.833018	-0.209634	-0.830555	1.000000	0.000278	-0.000332	0.000324	-2.336870	-76.920575	-1.622496
33001	9.884397	-0.195755	0.143443	2.082868	-0.246298	-0.150327	1.000000	0.000268	-0.000079	0.000260	-2.428993	-76.932755	-1.506517
33002	10.957801	-0.456625	0.236345	2.218325	-0.502006	0.918799	1.000000	-0.000071	0.000177	0.000255	-2.551936	-76.915756	-1.398594
33003	12.096302	-0.507493	-0.065918	2.764707	-0.578537	1.960337	1.000000	-0.000134	-0.000215	-0.000085	-2.522964	-76.945403	-1.453932
33004	11.806315	-0.356102	-0.484379	3.106977	-0.460842	1.584014	1.000000	0.000224	-0.000456	-0.000432	-2.286181	-77.004363	-1.680290
33005	10.217091	-0.184219	-0.587954	2.855627	-0.296249	0.012087	1.000000	0.000387	0.000031	-0.000495	-1.988442	-77.007795	-1.949842
33006	9.335623	-0.052759	-0.885738	2.955361	-0.185241	-0.914783	1.000000	-0.000445	0.000045	-0.000075	-1.994318	-77.007900	-2.005528
33007	9.382316	-0.339650	-0.814381	2.877292	-0.469740	-0.851271	1.000000	-0.000667	0.000153	-0.000041	-2.040637	-76.995575	-2.045707
33008	8.908041	-0.261590	-0.974613	2.938407	-0.405183	-1.352601	1.000000	0.000213	0.000783	-0.000435	-1.781337	-76.912772	-2.295855
33009	9.136155	0.275696	-0.894122	2.971530	0.124154	-1.123656	0.999998	0.000399	0.001937	-0.000494	-1.460750	-76.697740	-2.587148
33010	10.064780	0.145717	-0.867601	3.193488	-0.022394	-0.227563	0.999996	0.000014	0.002907	-0.000106	-1.367441	-76.370442	-2.690252
33011	11.217067	0.040381	-0.416763	3.092776	-0.115504	0.977056	0.999991	-0.000388	0.004241	0.000056	-1.384673	-75.890003	-2.726850
33012	11.258352	0.106227	-0.442715	3.236633	-0.062160	0.979755	0.999985	-0.000005	0.005534	-0.000191	-1.238206	-75.262198	-2.887070
33013	10.560867	0.124679	-0.245478	2.992947	-0.033868	0.318815	0.999980	-0.000076	0.006352	-0.000095	-1.145371	-74.540440	-3.000490
33014	10.135768	0.201364	0.549403	2.248455	0.094391	0.087327	0.999979	0.000032	0.006495	0.000092	-1.122644	-73.801935	-3.028440
33015	9.259951	0.035259	1.346347	1.340872	-0.007715	-0.551921	0.999986	0.000029	0.005221	0.000265	-1.177689	-73.209170	-2.975694
33016	9.311921	-0.151505	1.618992	1.159294	-0.176847	-0.432899	0.999995	-0.000102	0.003159	0.000234	-1.248838	-72.852732	-2.921603
33017	10.291409	-0.157911	1.621815	1.493020	-0.196671	0.497521	0.999998	-0.000297	0.001911	0.000206	-1.339775	-72.639367	-2.870000
33018	10.641534	-0.204095	1.457400	1.783807	-0.257412	0.777857	0.999999	-0.000246	0.001372	0.000200	-1.425723	-72.487735	-2.817420
33019	10.388618	-0.297874	1.286128	1.892208	-0.358318	0.480870	0.999999	0.000030	0.001442	0.000121	-1.450224	-72.328356	-2.796006
33020	9.784069	0.022169	1.497165	1.560620	-0.015035	-0.038530	0.999999	0.000221	0.001548	0.000175	-1.470901	-72.156830	-2.755505
33021	9.132507	-0.125675	1.787199	1.100491	-0.130010	-0.572312	0.999999	0.000056	0.001190	0.000344	-1.572689	-72.025770	-2.649479
33022	8.960474	-0.228789	1.887234	0.959715	-0.218710	-0.705811	1.000000	0.000093	0.000461	0.000340	-1.674879	-71.978285	-2.538489
33023	9.489597	-0.400643	1.812688	1.183742	-0.398403	-0.224213	1.000000	0.000194	-0.000150	0.000229	-1.732506	-72.001080	-2.462078
33024	10.107344	-0.452554	1.575353	1.592302	-0.473236	0.291053	1.000000	0.000178	-0.000127	0.000050	-1.728642	-72.021901	-2.452262
33025	10.225250	-0.428870	1.489443	1.713175	-0.459364	0.376136	1.000000	0.000010	0.000382	-0.000180	-1.657832	-71.985267	-2.533042
33026	9.919510	-0.338538	1.573678	1.556820	-0.365114	0.108538	0.999999	-0.000189	0.000943	-0.000321	-1.555197	-71.884900	-2.671177
33027	9.504659	-0.184031	1.867153	1.179778	-0.191140	-0.198624	0.999999	-0.000335	0.001169	-0.000320	-1.468819	-71.758561	-2.809810
33028	9.259469	-0.147932	2.081870	0.922110	-0.141838	-0.366874	0.999999	-0.000311	0.001068	-0.000258	-1.403561	-71.643601	-2.923342
33029	9.325970	-0.081292	2.190909	0.861676	-0.073554	-0.271593	1.000000	-0.000132	0.000872	-0.000220	-1.333705	-71.550993	-3.020190
33030	9.471250	-0.072845	2.254527	0.862688	-0.067817	-0.115063	1.000000	0.000058	0.000803	-0.000176	-1.258581	-71.466216	-3.099672
33031	9.570219	-0.068778	2.350542	0.817609	-0.063840	0.008020	1.000000	0.000168	0.000783	-0.000198	-1.164132	-71.383745	-3.186205
33032	9.624313	-0.026901	2.487280	0.721971	-0.019459	0.101598	1.000000	0.000232	0.000716	-0.000236	-1.050768	-71.309040	-3.284930
33033	9.600841	0.078285	2.576569	0.649011	0.085456	0.106610	1.000000	0.000247	0.000564	-0.000242	-0.935183	-71.251628	-3.384240
33034	9.632097	0.180939	2.650397	0.606050	0.186868	0.158893	1.000000	0.000211	0.000509	-0.000131	-0.862242	-71.200290	-3.442858
33035	9.529379	0.156083	2.617762	0.609984	0.158975	0.050818	1.000000	-0.000093	0.000434	-0.000038	-0.856015	-71.157436	-3.467777
33036	9.495724	0.178144	2.666091	0.562079	0.184901	0.034059	1.000000	-0.000098	0.000380	0.000038	-0.876105	-71.120699	-3.465499
33037	9.424713	0.164124	2.677415	0.533186	0.174272	-0.029741	1.000000	0.000089	0.000315	0.000148	-0.911582	-71.091140	-3.424237
33038	9.339603	0.039804	2.721277	0.460098	0.057363	-0.095686	1.000000	0.000147	0.000309	0.000221	-0.964900	-71.062128	-3.357129
33039	9.310674	-0.003368	2.749479	0.425986	0.019297	-0.113901	1.000000	0.000140	0.000312	0.000180	-1.005339	-71.032863	-3.304495
33040	9.306913	-0.061757	2.747941	0.427756	-0.036676	-0.117879	1.000000	-0.000051	0.000393	0.000158	-1.059484	-70.994390	-3.260393
33041	9.374236	-0.134223	2.804594	0.400371	-0.103800	-0.035725	1.000000	-0.000122	0.000684	0.000131	-1.110761	-70.922625	-3.227987
33042	9.465015	-0.105724	3.018738	0.245220	-0.059973	0.119418	1.000000	-0.000071	0.000931	0.000111	-1.147630	-70.822575	-3.204580
33043	9.413582	-0.129824	3.215613	0.058531	-0.067451	0.135405	1.000000	0.000024	0.000923	0.000165	-1.191224	-70.723335	-3.162461
33044	9.315602	-0.182471	3.336105	-0.075118	-0.108157	0.083068	1.000000	0.000143	0.000790	0.000167	-1.222438	-70.639303	-3.119094
33045	9.230795	-0.221301	3.423175	-0.175092	-0.138663	0.032351	1.000000	0.000217	0.000622	0.000119	-1.230205	-70.574615	-3.091512
33046	9.230294	-0.247638	3.501460	-0.242145	-0.159309	0.058273	1.000000	0.000190	0.000367	0.000109	-1.239553	-70.539146	-3.065558
33047	9.262863	-0.255616	3.493364	-0.222057	-0.168766	0.086392	1.000000	0.000056	-0.000024	-0.000025	-1.223669	-70.548820	-3.082706
33048	9.350072	-0.170071	3.375931	-0.080654	-0.094500	0.128854	1.000000	0.000008	-0.000282	-0.000086	-1.195087	-70.588143	-3.119159
33049	9.254420	-0.081887	3.176837	0.073574	-0.020592	-0.028136	1.000000	0.000009	-0.000375	-0.000109	-1.159415	-70.638131	-3.163039
33050	9.371728	0.004699	3.083417	0.198549	0.055228	0.051100	1.000000	0.000080	-0.000323	-0.000089	-1.121824	-70.682132	-3.200332
33051	9.398481	0.058832	3.007088	0.276771	0.101920	0.050907	1.000000	0.000150	-0.000201	-0.000010	-1.100935	-70.712031	-3.211362
33052	9.439097	0.044171	2.983737	0.307699	0.084210	0.081726	1.000000	0.000196	-0.000014	0.000040	-1.089958	-70.720382	-3.206314
33053	9.357965	0.019902	3.039165	0.227264	0.065519	0.023597	1.000000	0.000197	0.000161	0.000109	-1.100401	-70.708546	-3.178491
33054	9.299556	0.002921	3.144231	0.110553	0.057640	0.003238	1.000000	0.000101	0.000227	0.000077	-1.110911	-70.689200	-3.162235
33055	9.309583	-0.002248	3.236029	0.030446	0.059254	0.043061	1.000000	0.000059	0.000227	0.000061	-1.120935	-70.669815	-3.151588
33056	9.226217	-0.000477	3.253489	-0.010991	0.064141	-0.029843	1.000000	0.000040	0.000133	0.000045	-1.128343	-70.661318	-3.146003
33057	9.217776	0.004905	3.236049	0.003973	0.069330	-0.043623	1.000000	0.000026	0.000075	0.000098	-1.155023	-70.659295	-3.121700
33058	9.279953	0.008721	3.243901	0.018075	0.074186	0.017606	1.000000	0.000079	0.000096	0.000131	-1.186287	-70.654751	-3.086146
33059	9.314839	-0.055000	3.294643	-0.021880	0.015685	0.067758	1.000000	0.000082	0.000097	0.000165	-1.228527	-70.649958	-3.038618
33060	9.327755	-0.099366	3.305948	-0.031447	-0.025187	0.084006	1.000000	0.000088	0.000001	0.000206	-1.284075	-70.656045	-2.976231
33061	9.338518	-0.158715	3.277899	-0.006661	-0.083742	0.085326	1.000000	0.000049	0.000009	0.000149	-1.325474	-70.661397	-2.933564
33062	9.317383	-0.194510	3.289978	-0.028498	-0.116101	0.069677	1.000000	-0.000019	0.000004	0.000094	-1.356568	-70.667386	-2.910168
33063	9.316389	-0.155478	3.249576	0.010886	-0.078931	0.055072	1.000000	0.000002	-0.000011	0.000023	-1.362360	-70.675276	-2.910991
33064	9.288385	-0.114284	3.220283	0.030898	-0.039452	0.018633	1.000000	0.000061	-0.000005	0.000004	-1.355030	-70.682530	-2.918576
33065	9.268237	-0.092719	3.220698	0.024263	-0.017911	-0.000409	1.000000	0.000099	0.000005	0.000020	-1.348526	-70.688646	-2.920667
33066	9.256667	-0.063958	3.249878	-0.005923	0.013150	-0.001904	1.000000	0.000134	0.000007	0.000077	-1.356607	-70.694300	-2.903066
33067	9.304514	-0.100150	3.258309	-0.001749	-0.022516	0.046322	1.000000	0.000118	-0.000005	0.000083	-1.368710	-70.701318	-2.883151
33068	9.305410	-0.127425	3.288247	-0.032966	-0.046999	0.057275	1.000000	0.000117	-0.000023	0.000066	-1.375409	-70.710425	-2.869101
33069	9.295863	-0.122616	3.229127	0.017939	-0.045832	0.028701	1.000000	0.000076	-0.000062	0.000044	-1.380047	-70.724133	-2.862223
33070	9.264607	-0.042812	3.109812	0.123538	0.025789	-0.040800	1.000000	0.000076	-0.000045	0.000004	-1.371267	-70.736000	-2.869631
33071	9.133042	-0.002068	2.971190	0.215079	0.057880	-0.211082	1.000000	0.000218	0.000320	0.000026	-1.350566	-70.706004	-2.872382
33072	9.327844	-0.029938	3.112677	0.157761	0.035066	0.019513	0.999999	0.000248	0.001191	0.000054	-1.329088	-70.576064	-2.872378
33073	9.195369	-0.072011	3.615750	-0.336056	0.028483	0.062524	0.999999	0.000147	0.001604	0.000065	-1.319869	-70.398800	-2.871647
33074	9.215518	-0.087473	4.022372	-0.685460	0.039591	0.219332	0.999999	0.000017	0.001227	0.000036	-1.319145	-70.264827	-2.877780
33075	9.123530	-0.129142	4.180476	-0.851580	0.010078	0.187641	1.000000	-0.000089	0.000516	-0.000007	-1.321746	-70.212297	-2.893202
33076	9.138562	-0.113013	4.064267	-0.734799	0.017651	0.162487	1.000000	-0.000130	-0.000250	-0.000087	-1.309261	-70.247725	-2.929743
33077	9.165150	-0.020301	3.729155	-0.414729	0.085659	0.073041	1.000000	0.000027	-0.000652	-0.000065	-1.288608	-70.329140	-2.955924
33078	9.223791	-0.005209	3.372562	-0.072366	0.074419	0.007789	1.000000	0.000105	-0.000580	0.000019	-1.285345	-70.402023	-2.954190
33079	9.303611	-0.038671	3.254776	0.053269	0.031800	0.043701	1.000000	0.000210	-0.000258	0.000083	-1.288275	-70.437918	-2.933060
33080	9.368237	-0.073728	3.298428	0.026584	-0.000506	0.119494	1.000000	0.000218	-0.000116	0.000116	-1.300071	-70.457353	-2.901574
33081	9.326175	-0.142513	3.299430	0.002015	-0.067115	0.080723	1.000000	0.000073	-0.000249	0.000093	-1.322004	-70.492154	-2.877066
33082	9.273156	-0.193987	3.180238	0.085039	-0.124980	-0.008601	1.000000	-0.000057	-0.000418	-0.000030	-1.320373	-70.546580	-2.893211
33083	9.315496	-0.153526	2.963360	0.296249	-0.100709	-0.041013	1.000000	-0.000104	-0.000455	-0.000092	-1.304223	-70.605391	-2.930556
33084	9.424089	-0.062584	2.821698	0.464420	-0.023388	0.013966	1.000000	-0.000092	-0.000200	-0.000170	-1.259258	-70.635287	-2.997056
33085	9.461720	0.015337	2.836286	0.466996	0.052311	0.053825	1.000000	0.000073	0.000145	-0.000085	-1.220677	-70.625436	-3.036701
33086	9.379717	0.072772	2.999269	0.294079	0.120951	0.030020	1.000000	0.000184	0.000323	0.000032	-1.206237	-70.594804	-3.037075
33087	9.326979	0.009158	3.137037	0.147522	0.068272	0.026377	1.000000	0.000222	0.000311	0.000165	-1.230579	-70.565330	-2.991755
33088	9.250434	-0.091078	3.227270	0.034146	-0.022754	-0.015116	1.000000	0.000170	0.000214	0.000150	-1.256562	-70.546931	-2.950948
33089	9.262579	-0.106444	3.230732	0.036595	-0.037191	-0.002406	1.000000	0.000039	0.000173	0.000050	-1.265364	-70.533521	-2.944464
33090	9.305987	-0.078231	3.290528	0.000240	-0.005691	0.058233	1.000000	-0.000045	0.000284	-0.000024	-1.259020	-70.507535	-2.964100
33091	9.262251	-0.023956	3.414256	-0.121192	0.056979	0.057930	1.000000	-0.000013	0.000395	-0.000044	-1.242021	-70.468853	-2.991129
33092	9.206287	0.059097	3.556811	-0.262534	0.149852	0.052338	1.000000	0.000069	0.000260	0.000007	-1.233011	-70.445526	-2.999576
33093	9.165359	0.033837	3.611066	-0.327252	0.129612	0.032152	1.000000	0.000128	0.000029	0.000135	-1.260288	-70.448374	-2.962792
33094	9.213975	-0.056583	3.502776	-0.218488	0.033264	0.042318	1.000000	0.000127	-0.000209	0.000201	-1.310641	-70.478267	-2.901674
33095	9.255850	-0.141316	3.372418	-0.093547	-0.057974	0.038800	1.000000	0.000066	-0.000257	0.000180	-1.361723	-70.513625	-2.847159
33096	9.269869	-0.224381	3.243641	0.021066	-0.147875	0.009721	1.000000	0.000035	-0.000172	0.000070	-1.380245	-70.539501	-2.830652
33097	9.318993	-0.192240	3.218347	0.059977	-0.118091	0.047374	1.000000	0.000041	-0.000077	-0.000024	-1.366849	-70.554812	-2.847780
33098	9.334239	-0.123185	3.194471	0.090045	-0.052311	0.053264	1.000000	0.000042	-0.000048	-0.000076	-1.335961	-70.566919	-2.883457
33099	9.342849	-0.073854	3.191345	0.097157	-0.004699	0.059977	1.000000	0.000071	-0.000059	-0.000019	-1.320476	-70.580162	-2.899072
33100	9.320500	-0.054078	3.131514	0.144692	0.010639	0.018893	1.000000	0.000060	-0.000104	-0.000001	-1.312439	-70.598458	-2.907954
33101	9.330205	-0.085133	3.052753	0.217415	-0.025840	0.002166	1.000000	0.000111	-0.000025	0.000078	-1.323655	-70.607512	-2.890343
33102	9.349603	-0.107177	3.043555	0.230580	-0.048555	0.017586	1.000000	0.000117	0.000099	0.000036	-1.319573	-70.602487	-2.888500
33103	9.333055	-0.081721	3.144398	0.134288	-0.016610	0.035233	1.000000	0.000140	0.000241	-0.000007	-1.298024	-70.581268	-2.901894
33104	9.297206	-0.033197	3.276043	0.005756	0.040094	0.044795	1.000000	0.000100	0.000254	-0.000035	-1.271888	-70.558616	-2.924749
33105	9.252097	-0.006446	3.369338	-0.091808	0.072437	0.033129	1.000000	0.000057	0.000196	-0.000050	-1.246097	-70.542630	-2.952953
33106	9.239409	0.050202	3.380036	-0.100517	0.129007	0.024339	1.000000	0.000022	0.000072	0.000004	-1.242943	-70.540715	-2.961205
33107	9.258520	0.041256	3.361231	-0.076727	0.118997	0.036156	1.000000	0.000021	0.000073	0.000086	-1.266173	-70.538515	-2.941938
33108	9.256557	-0.015431	3.364471	-0.084336	0.064118	0.035791	1.000000	0.000078	0.000044	0.000113	-1.292074	-70.539575	-2.912415
33109	9.233873	-0.078378	3.368396	-0.100478	0.003424	0.016175	1.000000	0.000127	0.000017	0.000124	-1.315905	-70.543699	-2.879702
33110	9.246948	-0.107555	3.368614	-0.099715	-0.024723	0.028787	1.000000	0.000099	-0.000047	0.000085	-1.330713	-70.555238	-2.859937
33111	9.293276	-0.105191	3.306202	-0.028078	-0.026632	0.051669	1.000000	0.000041	-0.000117	0.000052	-1.342169	-70.574791	-2.850086
33112	9.297605	-0.115429	3.235739	0.035514	-0.041231	0.032404	1.000000	0.000005	-0.000120	0.000018	-1.346850	-70.594809	-2.852519
33113	9.316835	-0.111402	3.184075	0.087893	-0.040733	0.033366	1.000000	0.000038	-0.000066	0.000034	-1.352433	-70.608587	-2.849726
33114	9.329053	-0.113640	3.143773	0.127892	-0.045702	0.031550	1.000000	0.000063	-0.000009	0.000033	-1.354285	-70.615921	-2.847949
33115	9.329302	-0.113384	3.154115	0.117798	-0.044703	0.035221	1.000000	0.000105	0.000071	0.000037	-1.352076	-70.614043	-2.845886
33116	9.308805	-0.118752	3.176316	0.090206	-0.048453	0.023290	1.000000	0.000131	0.000087	0.000030	-1.344498	-70.610322	-2.845667
33117	9.310099	-0.103386	3.206352	0.063781	-0.031618	0.034355	1.000000	0.000082	0.000056	-0.000003	-1.332072	-70.610259	-2.856148
33118	9.317092	-0.082301	3.206710	0.067718	-0.011452	0.040903	1.000000	0.000073	0.000104	-0.000009	-1.318237	-70.604675	-2.869753
33119	9.305923	-0.037807	3.256761	0.021493	0.035638	0.046643	1.000000	0.000074	0.000151	-0.000021	-1.300078	-70.593750	-2.887526
33120	9.274482	0.014771	3.317733	-0.040561	0.091710	0.036857	1.000000	0.000080	0.000165	-0.000022	-1.280960	-70.581204	-2.906265
33121	9.240630	-0.002484	3.371488	-0.101883	0.078177	0.022946	1.000000	0.000086	0.000122	0.000037	-1.280359	-70.573452	-2.903427
33122	9.246767	-0.009900	3.372990	-0.101231	0.070943	0.029293	1.000000	0.000091	0.000042	0.000061	-1.287710	-70.574748	-2.892147
33125	9.264481	-0.048346	3.324121	-0.161444	0.090783	19.715439	1.000000	0.000189	-0.000114	0.000187	-1.326059	-70.593697	-2.837802
33126	9.296174	-0.073902	3.263669	0.009366	0.001496	0.040016	1.000000	0.000069	-0.000030	0.000056	-1.334985	-70.603267	-2.827559
33128	9.304545	-0.094027	3.224054	0.092045	-0.040970	9.882529	1.000000	0.000118	-0.000068	0.000113	-1.357167	-70.617005	-2.797539
33129	9.312390	-0.114678	3.174903	0.091670	-0.043545	0.026188	1.000000	0.000052	-0.000008	0.000062	-1.369945	-70.623969	-2.786463
33130	9.318569	-0.122719	3.165320	0.101301	-0.051883	0.028912	1.000000	0.000062	0.000025	0.000033	-1.371540	-70.627278	-2.785280
33131	9.339585	-0.129519	3.185195	0.089045	-0.057713	0.055383	1.000000	0.000097	0.000079	0.000025	-1.366425	-70.624385	-2.786860
33132	9.300200	-0.098652	3.226597	0.040004	-0.023933	0.031713	1.000000	0.000101	0.000110	0.000007	-1.354575	-70.618041	-2.794725
33133	9.294923	-0.075579	3.267191	0.002892	0.001230	0.040020	1.000000	0.000107	0.000124	0.000007	-1.341834	-70.610105	-2.803053
33134	9.268752	-0.045299	3.298531	-0.032028	0.033253	0.025503	1.000000	0.000049	0.000101	-0.000014	-1.329063	-70.604870	-2.818169
33135	9.276106	-0.037474	3.319165	-0.047708	0.041864	0.039235	1.000000	0.000069	0.000086	0.000020	-1.325329	-70.601254	-2.821719
33136	9.276054	-0.023651	3.319898	-0.047099	0.055532	0.039325	1.000000	0.000084	0.000057	0.000032	-1.323748	-70.600882	-2.820642
33137	9.255237	-0.029473	3.331794	-0.065655	0.050795	0.023686	1.000000	0.000088	0.000047	0.000032	-1.321919	-70.601694	-2.820214
33138	9.267540	-0.044626	3.312888	-0.045307	0.034178	0.029126	1.000000	0.000080	0.000015	0.000038	-1.323392	-70.606119	-2.817062
33139	9.267546	-0.045109	3.312863	-0.046377	0.034141	0.029121	1.000000	0.000056	-0.000018	0.000062	-1.335763	-70.614238	-2.806120
33140	9.279381	-0.034716	3.252657	0.013325	0.040595	0.020220	1.000000	0.000074	-0.000040	0.000033	-1.336618	-70.624973	-2.804858
33141	9.312545	-0.071345	3.242406	0.029763	0.003405	0.048392	1.000000	0.000064	-0.000020	0.000080	-1.353735	-70.633264	-2.786848
33142	9.290013	-0.080082	3.204334	0.056212	-0.006760	0.014586	1.000000	0.000062	-0.000010	0.000056	-1.363416	-70.640433	-2.776733
33143	9.296176	-0.101578	3.205179	0.055145	-0.027730	0.020856	1.000000	0.000080	0.000032	0.000055	-1.370310	-70.642768	-2.768950
33144	9.288396	-0.095723	3.186368	0.070380	-0.022748	0.007238	1.000000	0.000072	0.000041	0.000044	-1.374202	-70.644172	-2.763521
33145	9.330282	-0.110008	3.215429	0.055864	-0.035406	0.056500	1.000000	0.000065	0.000061	0.000044	-1.378765	-70.643247	-2.758272
33146	9.302182	-0.109354	3.218090	0.044618	-0.034018	0.030864	1.000000	0.000084	0.000097	0.000037	-1.378696	-70.638225	-2.756402
33147	9.296212	-0.087445	3.238629	0.025546	-0.010972	0.031861	1.000000	0.000075	0.000082	0.000002	-1.368504	-70.635103	-2.766456
33148	9.283461	-0.085148	3.280063	-0.016603	-0.005927	0.033551	1.000000	0.000062	0.000118	0.000031	-1.368931	-70.627688	-2.765438
33149	9.276548	-0.064157	3.281334	-0.017641	0.014952	0.027285	1.000000	0.000103	0.000087	0.000019	-1.361048	-70.623775	-2.769020
33150	9.276410	-0.063566	3.292656	-0.027721	0.016000	0.030909	1.000000	0.000073	0.000081	0.000026	-1.358607	-70.620648	-2.771413
33151	9.269729	-0.042697	3.293257	-0.028750	0.036863	0.024643	1.000000	0.000074	0.000053	0.000032	-1.358116	-70.620618	-2.769304
33152	9.276123	-0.036593	3.283770	-0.017408	0.042212	0.027478	1.000000	0.000068	0.000039	0.000032	-1.358795	-70.622206	-2.768174
33153	9.276677	-0.022496	3.293744	-0.025759	0.056975	0.031198	1.000000	0.000074	0.000053	0.000032	-1.358577	-70.622250	-2.768476
33154	9.262963	-0.035172	3.315308	-0.051594	0.046145	0.025513	1.000000	0.000100	0.000040	0.000054	-1.362631	-70.623592	-2.759270
33155	9.277010	-0.035542	3.324929	-0.056574	0.046481	0.041955	1.000000	0.000060	0.000007	0.000039	-1.366708	-70.628836	-2.755134
33156	9.281952	-0.058229	3.296469	-0.030665	0.022221	0.037353	1.000000	0.000068	0.000004	0.000056	-1.375547	-70.634342	-2.746000
33157	9.279514	-0.074932	3.248122	0.011572	0.002956	0.019156	1.000000	0.000063	-0.000032	0.000068	-1.389128	-70.643984	-2.732230
33158	9.277542	-0.091266	3.209359	0.044803	-0.015232	0.004586	1.000000	0.000052	-0.000014	0.000057	-1.399845	-70.651542	-2.722990
33159	9.291265	-0.105601	3.219258	0.038078	-0.028619	0.020934	1.000000	0.000080	0.000020	0.000044	-1.403008	-70.655224	-2.718564
33160	9.305679	-0.092056	3.228493	0.034791	-0.014598	0.037484	1.000000	0.000074	0.000053	0.000032	-1.402668	-70.655267	-2.718569
33161	9.298563	-0.111774	3.250295	0.010587	-0.032615	0.038150	1.000000	0.000075	0.000059	0.000038	-1.404197	-70.654604	-2.716711
33162	9.299507	-0.083785	3.259821	0.003993	-0.004156	0.041969	1.000000	0.000080	0.000055	0.000020	-1.399279	-70.654314	-2.719243
33163	9.292494	-0.076659	3.260758	0.001268	0.003002	0.035605	1.000000	0.000051	0.000049	0.000027	-1.399898	-70.654739	-2.720608
33164	9.278762	-0.062465	3.261793	-0.003113	0.017389	0.022876	1.000000	0.000090	0.000071	0.000031	-1.397340	-70.652678	-2.720761
33165	9.264847	-0.061542	3.273611	-0.018232	0.019201	0.013655	1.000000	0.000083	0.000091	0.000031	-1.395580	-70.648312	-2.720941
33166	9.272716	-0.040118	3.293336	-0.032155	0.041579	0.027444	1.000000	0.000100	0.000069	0.000025	-1.390148	-70.646472	-2.723698
33167	9.266086	-0.032469	3.304071	-0.043867	0.049870	0.024685	1.000000	0.000078	0.000043	0.000032	-1.389485	-70.647617	-2.723390
33168	9.299683	-0.041220	3.293965	-0.024144	0.040013	0.053103	1.000000	0.000062	0.000031	0.000038	-1.392950	-70.650026	-2.720184
33169	9.284138	-0.042964	3.255900	0.005786	0.036224	0.025839	1.000000	0.000064	0.000008	0.000050	-1.400182	-70.654995	-2.712301
33170	9.297418	-0.044397	3.245898	0.018785	0.034312	0.035068	1.000000	0.000056	0.000023	0.000044	-1.406318	-70.658404	-2.706601
33171	9.289593	-0.065169	3.247841	0.012626	0.014065	0.028496	1.000000	0.000106	0.000048	0.000048	-1.407547	-70.658634	-2.697481
33172	9.288429	-0.079691	3.239603	0.018834	-0.000815	0.024789	1.000000	0.000072	0.000041	0.000044	-1.411333	-70.659938	-2.693530
33173	9.302289	-0.093391	3.259989	0.003060	-0.013064	0.044728	1.000000	0.000072	0.000041	0.000044	-1.415160	-70.661246	-2.687814
33174	9.302410	-0.079834	3.260295	0.003750	0.000576	0.044834	1.000000	0.000057	0.000063	0.000026	-1.414837	-70.660063	-2.690024
33175	9.274431	-0.078917	3.262513	-0.007376	0.002008	0.019160	1.000000	0.000070	0.000057	0.000026	-1.412936	-70.659513	-2.691590
33176	9.294956	-0.072848	3.262487	0.000039	0.007683	0.038468	1.000000	0.000084	0.000063	0.000037	-1.413044	-70.658142	-2.688346
33177	9.287292	-0.092921	3.274835	-0.015169	-0.011408	0.035490	1.000000	0.000077	0.000077	0.000031	-1.412144	-70.655262	-2.687642
33178	9.273573	-0.078717	3.275819	-0.019496	0.002975	0.022756	1.000000	0.000078	0.000043	0.000032	-1.411271	-70.656374	-2.687529
33179	9.267038	-0.071005	3.286262	-0.031173	0.011276	0.019985	1.000000	0.000083	0.000039	0.000014	-1.404211	-70.657887	-2.692678
33180	9.288248	-0.050892	3.284955	-0.021978	0.030648	0.039401	1.000000	0.000071	0.000017	0.000021	-1.400953	-70.661728	-2.691873
33181	9.287727	-0.051469	3.275562	-0.013994	0.029461	0.035803	1.000000	0.000079	0.000020	0.000044	-1.404121	-70.665233	-2.687295
33182	9.287108	-0.065413	3.276660	-0.016798	0.015713	0.035695	1.000000	0.000071	0.000023	0.000027	-1.402616	-70.668580	-2.687747
33183	9.286996	-0.052232	3.266765	-0.007072	0.028227	0.032206	1.000000	0.000072	0.000035	0.000038	-1.404763	-70.670626	-2.686126
33184	9.286519	-0.039828	3.247042	0.011708	0.039589	0.025127	1.000000	0.000064	0.000014	0.000056	-1.413734	-70.674700	-2.675986
33185	9.291709	-0.075476	3.239100	0.017752	0.003773	0.027688	1.000000	0.000066	0.000021	0.000038	-1.416642	-70.678296	-2.673542
33186	9.299091	-0.068731	3.248644	0.011125	0.011335	0.037757	1.000000	0.000056	0.000023	0.000044	-1.422867	-70.681468	-2.666983
33187	9.292096	-0.075401	3.259713	-0.002305	0.005938	0.034872	1.000000	0.000086	0.000052	0.000060	-1.430283	-70.681221	-2.655974
33188	9.291855	-0.062594	3.250200	0.007429	0.018436	0.031391	1.000000	0.000059	0.000047	0.000044	-1.435707	-70.681849	-2.653350
33189	9.284779	-0.069241	3.261494	-0.006026	0.013062	0.028504	1.000000	0.000072	0.000053	0.000055	-1.443233	-70.681738	-2.646491
33190	9.290612	-0.077408	3.253050	0.003540	0.004641	0.031284	1.000000	0.000075	0.000077	0.000054	-1.450057	-70.678944	-2.639963
33191	9.276781	-0.076724	3.264537	-0.011505	0.006494	0.022025	1.000000	0.000074	0.000053	0.000032	-1.449731	-70.678706	-2.639766
33192	9.290637	-0.076715	3.274678	-0.016535	0.006840	0.038455	1.000000	0.000084	0.000045	0.000020	-1.444670	-70.679527	-2.641489
33194	9.277384	-0.062091	3.285181	-0.059564	0.044782	9.871290	1.000000	0.000124	0.000056	0.000071	-1.451402	-70.678841	-2.626933
33196	9.287214	-0.066050	3.286072	-0.054981	0.036664	9.890499	1.000000	0.000168	0.000061	0.000046	-1.444632	-70.677625	-2.620441
33197	9.283198	-0.043304	3.256479	0.000402	0.038969	0.025137	1.000000	0.000079	0.000020	0.000044	-1.447727	-70.681161	-2.615869
33198	9.289264	-0.064552	3.257558	-0.000808	0.017996	0.031395	1.000000	0.000059	0.000007	0.000039	-1.451758	-70.686236	-2.613437
33199	9.303001	-0.065499	3.257188	0.003174	0.017177	0.044243	1.000000	0.000063	0.000008	0.000050	-1.458991	-70.691091	-2.605602
33200	9.282013	-0.058537	3.248320	0.004561	0.023953	0.021446	1.000000	0.000087	0.000041	0.000026	-1.455223	-70.692272	-2.606048
33201	9.295079	-0.073085	3.249181	0.006734	0.009434	0.034185	1.000000	0.000070	0.000028	0.000055	-1.463172	-70.694845	-2.598471
33202	9.294841	-0.073637	3.249850	0.005695	0.009354	0.034185	1.000000	0.000076	0.000042	0.000055	-1.469855	-70.695851	-2.590583
33203	9.301683	-0.067367	3.250087	0.008054	0.015750	0.040667	1.000000	0.000078	0.000049	0.000037	-1.470751	-70.696230	-2.588344
33204	9.287281	-0.093427	3.272622	-0.019640	-0.008590	0.034744	1.000000	0.000076	0.000065	0.000020	-1.466291	-70.694826	-2.592090
33205	9.321176	-0.101683	3.272655	-0.009089	-0.017423	0.066814	1.000000	0.000058	0.000035	0.000032	-1.467865	-70.696745	-2.592032
33206	9.292163	-0.102312	3.245269	0.006917	-0.019430	0.030387	1.000000	0.000074	0.000053	0.000032	-1.467559	-70.696595	-2.591534
33207	9.284871	-0.095564	3.236183	0.013309	-0.013423	0.020445	1.000000	0.000073	0.000029	0.000009	-1.460055	-70.699227	-2.600158
33208	9.290164	-0.090637	3.197580	0.051728	-0.011701	0.012640	1.000000	0.000064	0.000078	0.000002	-1.450797	-70.696368	-2.609316
33209	9.278172	-0.073489	3.247759	0.002473	0.008545	0.017762	1.000000	0.000085	0.000103	0.000019	-1.444689	-70.690365	-2.613753
33210	9.287004	-0.050279	3.297081	-0.038386	0.034499	0.042213	1.000000	0.000095	0.000107	0.000018	-1.437409	-70.683964	-2.617930
33211	9.272079	-0.063475	3.300100	-0.046181	0.021536	0.029240	1.000000	0.000077	0.000083	0.000037	-1.438299	-70.680062	-2.613001
33212	9.251187	-0.055583	3.301755	-0.053745	0.029485	0.010010	1.000000	0.000109	0.000054	0.000007	-1.425969	-70.679578	-2.618384
33213	9.287002	-0.021763	3.309220	-0.046749	0.062902	0.045998	1.000000	0.000058	0.000035	0.000032	-1.427898	-70.681446	-2.616502
33214	9.286659	-0.035103	3.320294	-0.058608	0.050331	0.049445	1.000000	0.000067	0.000027	0.000021	-1.424776	-70.684264	-2.621369
33215	9.265297	-0.028575	3.301702	-0.048137	0.055940	0.023081	1.000000	0.000075	0.000030	0.000044	-1.428399	-70.686451	-2.613403
33216	9.284849	-0.037904	3.282254	-0.024556	0.045501	0.035174	1.000000	0.000058	0.000012	0.000068	-1.441466	-70.690725	-2.598461
33217	9.277305	-0.045775	3.273199	-0.019981	0.037793	0.025121	1.000000	0.000071	-0.000006	0.000056	-1.449512	-70.697271	-2.589588
33218	9.310161	-0.082763	3.264042	-0.004122	0.000403	0.053411	1.000000	0.000061	-0.000004	0.000062	-1.461082	-70.703480	-2.578200
33219	9.295622	-0.083946	3.245061	0.007897	-0.001230	0.033428	1.000000	0.000053	0.000005	0.000051	-1.469742	-70.708799	-2.573282
33220	9.288539	-0.078014	3.235383	0.014307	0.004757	0.023496	1.000000	0.000068	0.000016	0.000067	-1.481947	-70.712762	-2.560737
33221	9.294113	-0.086737	3.216962	0.032903	-0.004929	0.022749	1.000000	0.000090	0.000083	0.000042	-1.482366	-70.708997	-2.556942
33222	9.293492	-0.100288	3.228820	0.021027	-0.017496	0.026194	1.000000	0.000078	0.000061	0.000049	-1.486977	-70.707806	-2.551317
33223	9.293610	-0.086903	3.229193	0.021862	-0.003884	0.026313	1.000000	0.000064	0.000061	0.000043	-1.491189	-70.706549	-2.545088
33224	9.280833	-0.084496	3.269911	-0.020173	0.001587	0.027684	1.000000	0.000067	0.000073	0.000031	-1.491501	-70.703862	-2.542621
33225	9.274119	-0.076852	3.280762	-0.031750	0.009950	0.024867	1.000000	0.000094	0.000060	0.000031	-1.488508	-70.702643	-2.541425
33226	9.281631	-0.055833	3.290596	-0.036545	0.031202	0.035028	1.000000	0.000075	0.000099	0.000019	-1.483087	-70.697244	-2.547680
33227	9.261260	-0.034312	3.291468	-0.042211	0.052859	0.015909	1.000000	0.000091	0.000042	0.000037	-1.482724	-70.698079	-2.544240
33228	9.261782	-0.033237	3.311506	-0.061262	0.055157	0.023012	1.000000	0.000071	0.000017	0.000021	-1.478869	-70.702054	-2.547405
33229	9.282135	-0.041209	3.311379	-0.055720	0.047074	0.042242	1.000000	0.000067	0.000004	0.000056	-1.487453	-70.707113	-2.536546
33230	9.274461	-0.036012	3.281893	-0.031236	0.050675	0.025209	1.000000	0.000062	-0.000016	0.000027	-1.487536	-70.714762	-2.538424
33231	9.287981	-0.037396	3.271421	-0.018258	0.048637	0.034519	1.000000	0.000070	-0.000012	0.000050	-1.494182	-70.721840	-2.531734
33232	9.286618	-0.066022	3.263092	-0.013970	0.019996	0.030727	1.000000	0.000071	-0.000006	0.000056	-1.502290	-70.728229	-2.524447
33233	9.313082	-0.069475	3.233008	0.021998	0.014764	0.045810	1.000000	0.000081	0.000016	0.000073	-1.514781	-70.732041	-2.510193
33234	9.291131	-0.090576	3.225459	0.019738	-0.005855	0.022783	1.000000	0.000063	0.000014	0.000056	-1.523539	-70.736280	-2.502200
33235	9.305250	-0.077899	3.224767	0.025532	0.006968	0.035773	1.000000	0.000072	0.000047	0.000049	-1.529016	-70.736777	-2.496295
33236	9.304361	-0.092096	3.226573	0.022637	-0.006783	0.035654	1.000000	0.000064	0.000061	0.000043	-1.533368	-70.735613	-2.494546
33237	9.303770	-0.105454	3.238297	0.010758	-0.019345	0.039080	1.000000	0.000076	0.000065	0.000020	-1.528355	-70.733827	-2.499227
33238	9.277594	-0.088396	3.278988	-0.034345	0.000673	0.027645	1.000000	0.000083	0.000103	0.000042	-1.529695	-70.727687	-2.492659
33239	9.277883	-0.074084	3.289632	-0.042479	0.015504	0.031308	1.000000	0.000068	0.000079	0.000014	-1.523809	-70.724327	-2.498867
33240	9.277772	-0.073404	3.300684	-0.052483	0.016640	0.034846	1.000000	0.000080	0.000061	0.000025	-1.520369	-70.723007	-2.498205
33241	9.271631	-0.051843	3.310588	-0.062156	0.038700	0.032132	1.000000	0.000080	0.000061	0.000025	-1.516928	-70.721788	-2.499513
33242	9.278158	-0.045526	3.301024	-0.050688	0.043910	0.035082	1.000000	0.000096	0.000026	0.000008	-1.507057	-70.724398	-2.505317
33243	9.270784	-0.051874	3.302250	-0.055110	0.037399	0.028580	1.000000	0.000077	0.000037	0.000026	-1.504277	-70.726011	-2.506813
