// Start Time: Unknown
// Update Rate: 40.0Hz
// Filter Profile: human (46.1)
// Firmware Version: 4.4.0
PacketCounter	Acc_X	Acc_Y	Acc_Z	FreeAcc_X	FreeAcc_Y	FreeAcc_Z	OriInc_q0	OriInc_q1	OriInc_q2	OriInc_q3	Roll	Pitch	Yaw
03724	2.061444	0.096615	12.938323	0.000000	0.000000	3.289186	1.000000	-0.000007	0.000102	-0.000190	0.426518	-9.058416	174.736385
03725	2.055407	0.106484	12.939755	0.004956	-0.010311	3.289723	1.000000	-0.000003	0.000126	-0.000185	0.429565	-9.043846	174.715042
03726	2.067573	0.100343	12.954422	-0.007163	-0.002133	3.306075	1.000000	-0.000004	0.000100	-0.000177	0.432856	-9.031744	174.694458
03727	2.058721	0.099870	12.947283	-0.002302	-0.001418	3.297630	1.000000	0.000004	0.000114	-0.000183	0.436636	-9.018506	174.673296
03728	2.050950	0.101188	12.926469	-0.000733	-0.002266	3.275866	1.000000	-0.000002	0.000095	-0.000182	0.439723	-9.007468	174.652209
03729	2.060392	0.084753	12.932561	-0.010218	0.015976	3.283235	1.000000	0.000007	0.000113	-0.000170	0.443658	-8.994403	174.632600
03730	2.050696	0.082490	12.939053	-0.002017	0.018206	3.288111	1.000000	-0.000009	0.000090	-0.000192	0.445912	-8.984195	174.610379
03731	2.045870	0.094449	12.926783	-0.002935	0.007049	3.275328	1.000000	0.000028	0.000122	-0.000165	0.451611	-8.970407	174.591452
03732	2.055702	0.119231	12.938289	-0.016069	-0.015763	3.288417	1.000000	-0.000016	0.000114	-0.000205	0.452666	-8.957519	174.567919
03733	2.045668	0.116891	12.944826	-0.007728	-0.013543	3.293292	1.000000	0.000007	0.000113	-0.000170	0.456377	-8.945253	174.548373
03734	2.029962	0.093763	12.934233	0.005718	0.009155	3.280204	1.000000	-0.000004	0.000101	-0.000176	0.459516	-8.934580	174.527930
03735	2.070278	0.119285	12.934143	-0.038975	-0.011464	3.286575	1.000000	-0.000005	0.000114	-0.000187	0.462841	-8.921933	174.506190
03736	2.058357	0.108262	12.918470	-0.031153	-0.000529	3.269149	1.000000	-0.000005	0.000114	-0.000187	0.466050	-8.910630	174.484501
03737	2.050479	0.094988	12.937693	-0.021700	0.012984	3.286807	1.000000	0.000000	0.000108	-0.000180	0.470385	-8.899372	174.463565
03738	2.066794	0.101146	12.947257	-0.038686	0.009335	3.298825	1.000000	-0.000007	0.000102	-0.000190	0.473638	-8.891356	174.441450
03739	2.047570	0.106836	12.947154	-0.022509	0.002606	3.295792	1.000000	0.000005	0.000132	-0.000175	0.476521	-8.879888	174.421425
03740	2.052843	0.092698	12.918406	-0.032041	0.018626	3.268084	1.000000	-0.000000	0.000099	-0.000163	0.481161	-8.875962	174.402293
03741	2.058881	0.105338	12.935007	-0.038568	0.007566	3.285516	1.000000	0.000016	0.000119	-0.000201	0.486145	-8.865821	174.379135
03742	2.051929	0.093974	12.940585	-0.030446	0.018512	3.289858	1.000000	-0.000010	0.000112	-0.000178	0.485513	-8.863414	174.358594
03743	2.058887	0.108009	12.943552	-0.039133	0.005145	3.293977	1.000000	-0.000004	0.000114	-0.000187	0.485062	-8.859459	174.337030
03744	2.063212	0.092043	12.928463	-0.044856	0.021024	3.279601	1.000000	-0.000001	0.000113	-0.000174	0.482093	-8.856989	174.316867
03745	2.046971	0.107906	12.936876	-0.029515	0.002674	3.285542	1.000000	-0.000018	0.000112	-0.000182	0.476620	-8.856126	174.295888
03746	2.046329	0.097425	12.950009	-0.025099	0.013921	3.298334	1.000000	-0.000002	0.000096	-0.000182	0.482306	-8.860303	174.277035
03747	2.057601	0.104126	12.938357	-0.038590	0.008648	3.288613	1.000000	-0.000006	0.000119	-0.000181	0.482880	-8.859361	174.256990
03748	2.061707	0.107956	12.932773	-0.043661	0.004797	3.283761	1.000000	0.000008	0.000105	-0.000195	0.481465	-8.861633	174.234474
03749	2.055566	0.117819	12.934191	-0.037042	-0.004984	3.284302	1.000000	-0.000016	0.000124	-0.000180	0.483466	-8.866552	174.216677
03750	2.043792	0.106679	12.918482	-0.027340	0.005994	3.266871	1.000000	0.000006	0.000102	-0.000172	0.488651	-8.865228	174.198397
03751	2.062132	0.102189	12.940809	-0.041224	0.012060	3.291721	1.000000	0.000009	0.000109	-0.000175	0.488508	-8.866016	174.177841
03752	2.062316	0.093792	12.940331	-0.039997	0.017609	3.291213	1.000000	-0.000003	0.000118	-0.000168	0.474829	-8.869918	174.153745
03753	2.049112	0.100510	12.947786	-0.025936	0.010649	3.296597	1.000000	-0.000006	0.000111	-0.000164	0.479794	-8.873069	174.138464
03754	2.054561	0.105637	12.928516	-0.032146	0.004137	3.278449	1.000000	-0.000024	0.000093	-0.000181	0.470495	-8.886986	174.117369
03755	2.058629	0.109364	12.922950	-0.036586	-0.001237	3.273611	1.000000	0.000019	0.000135	-0.000179	0.463455	-8.889448	174.093333
03756	2.050397	0.096196	12.942207	-0.023246	0.009814	3.291262	1.000000	-0.000015	0.000115	-0.000205	0.457119	-8.895517	174.069333
03757	2.051651	0.089449	12.928082	-0.024897	0.016801	3.277449	1.000000	0.000008	0.000114	-0.000169	0.458684	-8.900778	174.052979
03758	2.058431	0.103825	12.931097	-0.032458	0.001829	3.281592	1.000000	0.000003	0.000120	-0.000177	0.452292	-8.901597	174.030025
03759	2.060291	0.104217	12.952850	-0.029792	-0.001748	3.303375	1.000000	0.000007	0.000110	-0.000189	0.438392	-8.909144	174.002530
03760	2.046497	0.104334	12.924405	-0.020238	-0.004310	3.273139	1.000000	0.000005	0.000115	-0.000183	0.432589	-8.911315	173.979584
03761	2.054352	0.106038	12.953778	-0.021110	-0.006343	3.303390	1.000000	0.000004	0.000112	-0.000202	0.429667	-8.923295	173.960654
03762	2.061492	0.100652	12.947303	-0.027571	-0.002003	3.298063	1.000000	-0.000007	0.000125	-0.000175	0.420871	-8.928254	173.939663
03763	2.046495	0.098917	12.932525	-0.014915	-0.004766	3.281124	1.000000	0.000016	0.000111	-0.000184	0.408232	-8.930823	173.910778
03764	2.063620	0.107174	12.928576	-0.032862	-0.014581	3.279937	1.000000	-0.000009	0.000113	-0.000178	0.391233	-8.933885	173.881359
03765	2.053765	0.104681	12.935036	-0.021497	-0.014139	3.284771	1.000000	-0.000003	0.000101	-0.000176	0.387525	-8.936921	173.862202
03766	2.061088	0.099405	12.928544	-0.025644	-0.009002	3.279466	1.000000	0.000009	0.000122	-0.000186	0.385652	-8.951852	173.851011
03767	2.051042	0.097125	12.935030	-0.014386	-0.006441	3.284295	1.000000	-0.000004	0.000106	-0.000170	0.391252	-8.952869	173.841160
03768	2.050906	0.108145	12.944051	-0.011791	-0.018732	3.293261	1.000000	-0.000009	0.000113	-0.000178	0.386572	-8.963150	173.827163
03769	2.061420	0.093478	12.936640	-0.019640	-0.003239	3.287482	1.000000	-0.000000	0.000113	-0.000173	0.386804	-8.972537	173.817178
03770	2.059646	0.095791	12.923445	-0.019285	-0.006627	3.274189	1.000000	-0.000016	0.000107	-0.000188	0.381809	-8.977616	173.798910
03771	2.049479	0.093113	12.929946	-0.007575	-0.008210	3.279005	1.000000	-0.000012	0.000131	-0.000183	0.368176	-8.979739	173.770872
03772	2.052518	0.095061	12.938044	-0.008552	-0.009140	3.287491	1.000000	0.000004	0.000090	-0.000174	0.373019	-8.985954	173.762041
03773	2.062956	0.100188	12.940082	-0.017914	-0.013784	3.291168	1.000000	-0.000008	0.000104	-0.000203	0.370176	-8.990640	173.744145
03774	2.049815	0.106928	12.947465	-0.003048	-0.023824	3.296448	1.000000	-0.000000	0.000114	-0.000173	0.362775	-8.997963	173.725562
03775	2.064251	0.104596	12.934986	-0.018581	-0.023148	3.286361	1.000000	-0.000007	0.000108	-0.000183	0.347504	-9.001611	173.694944
03776	2.054341	0.102164	12.941437	-0.007867	-0.023211	3.291165	1.000000	-0.000001	0.000110	-0.000193	0.341744	-9.000934	173.669278
03777	2.058536	0.105934	12.935886	-0.011595	-0.026869	3.286362	1.000000	-0.000007	0.000108	-0.000183	0.340247	-9.008880	173.659133
03778	2.062832	0.109549	12.930323	-0.016468	-0.030667	3.281560	1.000000	-0.000014	0.000102	-0.000194	0.336966	-9.012299	173.640136
03779	2.063278	0.101196	12.929837	-0.015410	-0.021803	3.281102	1.000000	0.000016	0.000111	-0.000184	0.341229	-9.014514	173.628038
03780	2.049864	0.107996	12.937246	-0.000599	-0.029842	3.286360	1.000000	-0.000018	0.000126	-0.000193	0.341233	-9.019160	173.617746
03781	2.045309	0.100184	12.915492	0.002512	-0.023455	3.264112	1.000000	0.000030	0.000106	-0.000172	0.339282	-9.026296	173.602675
03782	2.048459	0.102344	12.923579	0.000761	-0.025816	3.272605	1.000000	-0.000021	0.000105	-0.000178	0.334511	-9.027943	173.582811
03783	2.028246	0.105943	12.936926	0.022695	-0.032262	3.282636	1.000000	0.000016	0.000112	-0.000184	0.334778	-9.029705	173.565584
03784	2.061523	0.109753	12.933816	-0.009295	-0.032786	3.284806	1.000000	-0.000003	0.000115	-0.000187	0.332473	-9.036805	173.551779
03785	2.054775	0.098310	12.939345	0.000267	-0.023354	3.289140	1.000000	0.000008	0.000111	-0.000188	0.328418	-9.041266	173.532198
03786	2.042760	0.107026	12.933048	0.011897	-0.032983	3.281083	1.000000	0.000001	0.000105	-0.000198	0.330391	-9.049512	173.523032
03787	2.050138	0.101731	12.926605	0.003671	-0.027837	3.275847	1.000000	-0.000004	0.000120	-0.000181	0.325093	-9.046793	173.500463
03788	2.043439	0.090087	12.932125	0.013191	-0.017658	3.280179	1.000000	-0.000005	0.000103	-0.000189	0.323007	-9.051568	173.484521
03789	2.069783	0.090474	12.935023	-0.012178	-0.016375	3.287183	1.000000	-0.000011	0.000115	-0.000191	0.317101	-9.051923	173.462247
03790	2.051877	0.097410	12.921056	0.002529	-0.026410	3.270610	1.000000	-0.000010	0.000101	-0.000180	0.311291	-9.053932	173.441691
03791	2.050573	0.106651	12.943719	0.007261	-0.035968	3.292836	1.000000	-0.000006	0.000108	-0.000183	0.312338	-9.057730	173.430337
03792	2.051019	0.098193	12.943247	0.006966	-0.029236	3.292390	1.000000	0.000002	0.000109	-0.000179	0.304688	-9.055364	173.402699
03793	2.053702	0.093475	12.915502	0.001132	-0.023469	3.265389	1.000000	0.000006	0.000116	-0.000182	0.307198	-9.057492	173.390124
03794	2.053383	0.111858	12.960459	0.006808	-0.042503	3.309833	1.000000	0.000007	0.000125	-0.000199	0.306903	-9.058984	173.372722
03795	2.049091	0.103927	12.938677	0.007012	-0.034309	3.287607	1.000000	-0.000005	0.000095	-0.000172	0.307579	-9.053825	173.351183
03796	2.056746	0.098276	12.932220	-0.001647	-0.028408	3.282402	1.000000	-0.000025	0.000112	-0.000186	0.303208	-9.049725	173.327700
03797	2.056139	0.109407	12.941309	-0.001473	-0.040656	3.291339	1.000000	0.000014	0.000130	-0.000189	0.300719	-9.046778	173.304044
03798	2.058764	0.111467	12.949498	-0.003386	-0.042224	3.299850	1.000000	-0.000018	0.000118	-0.000176	0.299846	-9.045760	173.288752
03799	2.060299	0.104541	12.935410	-0.006539	-0.035595	3.286140	1.000000	-0.000006	0.000108	-0.000183	0.297805	-9.045589	173.268931
03800	2.051571	0.103869	12.928179	0.000914	-0.036782	3.277621	1.000000	0.000003	0.000109	-0.000179	0.294039	-9.045872	173.247962
03801	2.041586	0.101466	12.934597	0.011998	-0.036500	3.282377	1.000000	0.000001	0.000114	-0.000173	0.290065	-9.046137	173.228961
03802	2.054826	0.097694	12.935881	-0.001114	-0.031333	3.285705	1.000000	0.000006	0.000116	-0.000182	0.289641	-9.042722	173.208259
03803	2.045856	0.097094	12.928683	0.007282	-0.031995	3.277184	1.000000	-0.000004	0.000121	-0.000181	0.288027	-9.045601	173.191962
03804	2.048619	0.099249	12.936854	0.013379	0.002895	3.285736	1.000000	0.000007	0.000116	-0.000182	0.456675	-9.061397	174.722282
03805	2.057497	0.102610	12.952673	0.006176	-0.000326	3.302782	1.000000	-0.000018	0.000101	-0.000184	0.452446	-9.059668	174.733551
03806	2.056824	0.085444	12.929954	0.006210	0.017590	3.280104	1.000000	0.000013	0.000105	-0.000180	0.458027	-9.065166	174.719311
03807	2.067220	0.112461	12.928004	-0.006390	-0.008680	3.280029	1.000000	0.000010	0.000115	-0.000169	0.456439	-9.066404	174.735809
03808	2.066399	0.102509	12.941206	-0.002014	0.001813	3.292858	1.000000	0.000009	0.000112	-0.000188	0.460072	-9.068858	174.726097
03809	2.063353	0.103332	12.941685	0.000679	0.000418	3.292858	1.000000	-0.000004	0.000121	-0.000180	0.457874	-9.067128	174.737303
03810	2.044258	0.108387	12.941288	0.018864	-0.005468	3.289499	1.000000	-0.000013	0.000094	-0.000176	0.461157	-9.067983	174.715475
03811	2.043419	0.098098	12.954491	0.021554	0.004775	3.302325	1.000000	0.000007	0.000134	-0.000174	0.462534	-9.060658	174.712464
03812	2.052241	0.094697	12.934445	0.010024	0.009619	3.283890	1.000000	-0.000011	0.000081	-0.000207	0.464145	-9.063420	174.699199
03813	2.044178	0.115299	12.923008	0.014585	-0.011146	3.271492	1.000000	-0.000005	0.000112	-0.000164	0.466065	-9.062835	174.688278
03814	2.058403	0.098697	12.950708	0.006276	0.006060	3.300952	1.000000	-0.000002	0.000116	-0.000186	0.464368	-9.061928	174.697556
03815	2.043690	0.096510	12.935785	0.017584	0.007884	3.283883	1.000000	-0.000010	0.000115	-0.000190	0.467481	-9.057198	174.673818
03816	2.061888	0.106982	12.918438	-0.004041	-0.000799	3.269700	1.000000	0.000017	0.000113	-0.000184	0.468812	-9.057194	174.678374
03817	2.041192	0.089152	12.935801	0.020888	0.015310	3.283445	1.000000	-0.000005	0.000109	-0.000183	0.469208	-9.058174	174.674497
03818	2.063935	0.099213	12.939815	-0.001885	0.008359	3.291068	1.000000	0.000011	0.000124	-0.000185	0.474539	-9.056363	174.652191
03819	2.050549	0.106119	12.947105	0.012021	0.000447	3.296217	1.000000	0.000007	0.000100	-0.000190	0.475538	-9.058669	174.651866
03820	2.043108	0.107236	12.926205	0.015929	-0.002099	3.274417	1.000000	-0.000013	0.000117	-0.000204	0.470600	-9.057979	174.671790
03821	2.065618	0.095592	12.934369	-0.004323	0.011186	3.285927	1.000000	-0.000004	0.000113	-0.000164	0.469096	-9.056310	174.678044
03822	2.062895	0.118013	12.930700	-0.004727	-0.010389	3.282057	1.000000	0.000023	0.000115	-0.000193	0.475070	-9.053830	174.657728
03823	2.058376	0.095836	12.948948	0.004186	0.011851	3.299185	1.000000	-0.000001	0.000116	-0.000186	0.476460	-9.051551	174.648211
03824	2.053152	0.107578	12.936684	0.005837	-0.000355	3.286349	1.000000	0.000007	0.000117	-0.000182	0.476226	-9.049484	174.654665
03825	2.041872	0.103424	12.956707	0.019504	0.003116	3.304317	1.000000	0.000003	0.000110	-0.000179	0.477808	-9.045529	174.646089
03826	2.043523	0.096653	12.942650	0.016379	0.009602	3.290639	1.000000	-0.000020	0.000120	-0.000189	0.474375	-9.045537	174.653900
03827	2.057345	0.114144	12.939839	0.000552	-0.006413	3.290178	1.000000	-0.000001	0.000086	-0.000184	0.475866	-9.046650	174.643643
03828	2.055923	0.095030	12.930727	0.002920	0.012277	3.280799	1.000000	-0.000018	0.000101	-0.000184	0.473973	-9.048649	174.643527
03829	2.058411	0.097043	12.938969	0.000834	0.010253	3.289346	1.000000	0.000005	0.000153	-0.000178	0.474020	-9.042516	174.646877
03830	2.053960	0.096104	12.953104	0.006937	0.010518	3.302599	1.000000	0.000006	0.000092	-0.000174	0.473077	-9.043579	174.658310
03831	2.046769	0.097322	12.932162	0.010877	0.008897	3.280798	1.000000	0.000004	0.000110	-0.000179	0.473612	-9.043649	174.657765
03832	2.053202	0.090423	12.939435	0.006368	0.016028	3.288935	1.000000	-0.000003	0.000104	-0.000189	0.472078	-9.044271	174.666900
03833	2.056214	0.092421	12.947596	0.004549	0.013998	3.297484	1.000000	-0.000013	0.000109	-0.000187	0.470319	-9.044329	174.669046
03834	2.052639	0.105438	12.921636	0.002973	0.000839	3.271391	1.000000	-0.000021	0.000094	-0.000180	0.469740	-9.045964	174.655035
03835	2.054194	0.105421	12.943464	0.004733	0.000206	3.293192	1.000000	-0.000009	0.000133	-0.000182	0.467488	-9.043391	174.664208
03836	2.048595	0.095613	12.935362	0.009103	0.009535	3.284233	1.000000	0.000010	0.000116	-0.000168	0.468300	-9.041033	174.666619
03837	2.048084	0.106786	12.944421	0.010259	-0.000993	3.293188	1.000000	-0.000017	0.000101	-0.000184	0.470085	-9.042688	174.636723
03838	2.056916	0.103451	12.924466	-0.001098	0.003103	3.274842	1.000000	0.000012	0.000125	-0.000185	0.471052	-9.042105	174.639765
03839	2.045448	0.099183	12.944489	0.013519	0.005965	3.292780	1.000000	-0.000007	0.000114	-0.000177	0.468974	-9.041910	174.650246
03840	2.047233	0.113958	12.926325	0.007010	-0.008457	3.275242	1.000000	-0.000003	0.000122	-0.000180	0.469039	-9.039148	174.646525
03841	2.048673	0.114345	12.948167	0.008999	-0.008852	3.297043	1.000000	0.000001	0.000112	-0.000192	0.469366	-9.039754	174.645650
03842	2.054209	0.098829	12.933194	0.002862	0.007142	3.282999	1.000000	0.000004	0.000093	-0.000187	0.469292	-9.041838	174.650619
03843	2.047993	0.087127	12.938621	0.011333	0.017940	3.287287	1.000000	-0.000010	0.000107	-0.000174	0.467445	-9.043002	174.656701
03844	2.059032	0.094295	12.927320	-0.001844	0.011670	3.277919	1.000000	0.000001	0.000129	-0.000183	0.467265	-9.042352	174.660718
03845	2.058285	0.105599	12.936415	-0.000701	0.000689	3.286875	1.000000	0.000000	0.000103	-0.000175	0.468908	-9.043742	174.646074
03846	2.051936	0.093925	12.941862	0.007573	0.011457	3.291162	1.000000	-0.000002	0.000108	-0.000169	0.467752	-9.043990	174.654336
03847	2.063221	0.101036	12.930533	-0.006095	0.005268	3.281804	1.000000	-0.000013	0.000109	-0.000187	0.466228	-9.043446	174.654714
03848	2.050603	0.094710	12.964144	0.012083	0.010312	3.312964	1.000000	-0.000001	0.000117	-0.000186	0.467466	-9.042519	174.642737
03850	2.055873	0.102979	12.931688	-0.001187	0.006843	16.376300	1.000000	0.000016	0.000218	-0.000371	0.472266	-9.029250	174.625099
03851	2.044351	0.100994	12.938267	0.010391	0.005215	3.286480	1.000000	-0.000002	0.000122	-0.000180	0.472924	-9.027674	174.615879
03852	2.051626	0.102635	12.967850	0.007777	0.003936	3.316850	1.000000	-0.000017	0.000102	-0.000184	0.471592	-9.029090	174.610495
03853	2.057302	0.108279	12.948766	-0.001185	-0.001227	3.298940	1.000000	0.000000	0.000103	-0.000175	0.471692	-9.029681	174.609313
03854	2.053679	0.100282	12.926939	-0.000267	0.006543	3.276750	1.000000	0.000003	0.000102	-0.000162	0.471753	-9.029926	174.610446
03855	2.065959	0.095013	12.942000	-0.009709	0.013139	3.293506	1.000000	0.000004	0.000107	-0.000197	0.473350	-9.028530	174.598243
03856	2.052423	0.101707	12.949207	0.003940	0.005408	3.298556	1.000000	0.000008	0.000118	-0.000181	0.474471	-9.027086	174.595812
03857	2.055212	0.103905	12.957424	0.002096	0.003516	3.307127	1.000000	-0.000010	0.000108	-0.000173	0.473672	-9.026824	174.591077
03858	2.057131	0.097276	12.943389	-0.001509	0.010153	3.293512	1.000000	0.000003	0.000116	-0.000172	0.473289	-9.025881	174.596666
03859	2.044724	0.105566	12.936992	0.008571	0.000620	3.285318	1.000000	-0.000005	0.000124	-0.000193	0.472187	-9.023996	174.602677
03860	2.049695	0.096879	12.957974	0.007596	0.009400	3.306747	1.000000	0.000001	0.000104	-0.000175	0.471397	-9.024425	174.610958
03861	2.060259	0.095315	12.924413	-0.007851	0.012089	3.275246	1.000000	-0.000016	0.000102	-0.000183	0.470211	-9.024789	174.602901
03862	2.061763	0.117085	12.942120	-0.008769	-0.009567	3.293146	1.000000	0.000009	0.000118	-0.000181	0.471511	-9.023038	174.598339
03863	2.053052	0.095051	12.938961	0.001274	0.011807	3.288482	1.000000	0.000005	0.000111	-0.000178	0.472226	-9.023018	174.595702
03864	2.051528	0.097756	12.925784	0.000509	0.008994	3.275251	1.000000	0.000004	0.000107	-0.000197	0.472103	-9.023487	174.603251
03865	2.055244	0.108783	12.956246	0.000569	-0.001883	3.306008	1.000000	-0.000004	0.000110	-0.000182	0.471310	-9.023186	174.606964
03866	2.058746	0.104009	12.928564	-0.006480	0.003192	3.279179	1.000000	-0.000006	0.000098	-0.000185	0.470533	-9.025225	174.608932
03867	2.039596	0.109136	12.927953	0.011914	-0.003646	3.275616	1.000000	0.000016	0.000115	-0.000196	0.472144	-9.024797	174.613785
03868	2.057489	0.105413	12.950837	-0.001836	0.001506	3.300991	1.000000	-0.000013	0.000101	-0.000170	0.469861	-9.025284	174.621155
03869	2.056090	0.107975	12.937644	-0.002429	-0.000950	3.287763	1.000000	0.000013	0.000108	-0.000193	0.472315	-9.026255	174.610625
03870	2.067156	0.093954	12.930567	-0.013279	0.014140	3.282393	1.000000	-0.000014	0.000132	-0.000172	0.470764	-9.024207	174.609175
03871	2.042806	0.105799	12.944471	0.011288	-0.000263	3.292405	1.000000	-0.000007	0.000103	-0.000179	0.469900	-9.023958	174.607822
03872	2.062767	0.097006	12.917852	-0.011439	0.010464	3.269174	1.000000	0.000009	0.000101	-0.000190	0.470784	-9.025210	174.610667
03873	2.059384	0.104849	12.954167	-0.003194	0.002293	3.304571	1.000000	0.000002	0.000113	-0.000191	0.471242	-9.024263	174.608660
03874	2.058883	0.109532	12.927427	-0.007670	-0.001927	3.278122	1.000000	0.000017	0.000133	-0.000188	0.473268	-9.021492	174.607628
03875	2.055947	0.088996	12.932038	-0.002343	0.018239	3.282049	1.000000	-0.000008	0.000100	-0.000198	0.471978	-9.022567	174.614748
03876	2.050737	0.100582	12.919740	-0.000108	0.006045	3.269182	1.000000	0.000005	0.000128	-0.000169	0.471387	-9.021544	174.630539
03877	2.053548	0.102774	12.927973	-0.001838	0.003971	3.277771	1.000000	-0.000012	0.000092	-0.000195	0.470200	-9.023396	174.629971
03878	2.060618	0.104638	12.957620	-0.004362	0.002442	3.308173	1.000000	0.000003	0.000133	-0.000164	0.470147	-9.020909	174.633721
03879	2.043014	0.104359	12.907546	0.004782	0.001333	3.255958	1.000000	-0.000005	0.000115	-0.000176	0.469279	-9.020475	174.637416
03880	2.041607	0.100791	12.956656	0.014101	0.004072	3.304211	1.000000	-0.000020	0.000112	-0.000172	0.466764	-9.020405	174.640450
03881	2.049350	0.095657	12.950429	0.005882	0.009772	3.299233	1.000000	0.000005	0.000111	-0.000178	0.467464	-9.020079	174.638462
03882	2.060723	0.103254	12.939194	-0.007566	0.003181	3.289981	1.000000	0.000003	0.000099	-0.000180	0.466806	-9.021705	174.655273
03883	2.039332	0.097750	12.929912	0.012587	0.006974	3.277417	1.000000	0.000013	0.000126	-0.000184	0.468410	-9.020369	174.655653
03884	2.063336	0.110434	12.920658	-0.013498	-0.003190	3.272142	1.000000	0.000005	0.000094	-0.000186	0.468911	-9.022701	174.660043
03885	2.064121	0.101886	12.920260	-0.013483	0.005017	3.271803	1.000000	-0.000023	0.000122	-0.000160	0.465372	-9.021532	174.671305
03886	2.072644	0.105470	12.936291	-0.019546	0.001909	3.289000	1.000000	0.000006	0.000094	-0.000186	0.466363	-9.023801	174.667803
03887	2.053665	0.089067	12.939743	0.001243	0.016715	3.289303	1.000000	0.000009	0.000119	-0.000181	0.467620	-9.022646	174.664854
03888	2.061008	0.105720	12.929436	-0.009407	0.000919	3.280409	1.000000	-0.000001	0.000123	-0.000179	0.467089	-9.021155	174.671622
03889	2.074463	0.102521	12.931024	-0.022076	0.005478	3.284059	1.000000	0.000012	0.000100	-0.000176	0.468478	-9.022483	174.671488
03890	2.053763	0.105633	12.943969	0.000032	0.000585	3.293625	1.000000	-0.000001	0.000123	-0.000179	0.468596	-9.021136	174.667962
03891	2.046788	0.085132	12.927148	0.006117	0.020478	3.275754	1.000000	-0.000007	0.000100	-0.000198	0.468455	-9.022346	174.660190
03892	2.051483	0.098006	12.944055	0.002956	0.007996	3.293292	1.000000	0.000006	0.000129	-0.000169	0.468986	-9.020648	174.661132
03893	2.049749	0.121957	12.926761	-0.000224	-0.016027	3.276133	1.000000	-0.000011	0.000093	-0.000195	0.467719	-9.022874	174.664579
03894	2.052909	0.102637	12.939125	0.000682	0.003176	3.288683	1.000000	-0.000005	0.000116	-0.000176	0.466955	-9.022968	174.670543
03895	2.034134	0.116158	12.960697	0.021265	-0.012327	3.307155	1.000000	0.000006	0.000112	-0.000178	0.466768	-9.023171	174.687084
03896	2.057719	0.098541	12.933402	-0.004560	0.007667	3.283752	1.000000	-0.000005	0.000112	-0.000195	0.466816	-9.023235	174.680208
03897	2.054719	0.099276	12.933873	-0.001639	0.006716	3.283753	1.000000	0.000004	0.000117	-0.000172	0.467366	-9.022813	174.678467
03898	2.051937	0.099802	12.934311	0.001356	0.005662	3.283754	1.000000	-0.000019	0.000096	-0.000180	0.465039	-9.025177	174.685234
03899	2.074722	0.089028	12.942907	-0.018727	0.018379	3.295727	1.000000	0.000011	0.000128	-0.000197	0.466709	-9.023288	174.682446
03900	2.040870	0.108362	12.949694	0.013772	-0.003931	3.297281	1.000000	-0.000018	0.000104	-0.000196	0.465436	-9.024237	174.673585
03901	2.049980	0.105215	12.929921	0.001926	-0.000053	3.279155	1.000000	0.000006	0.000129	-0.000169	0.465520	-9.022587	174.684949
03902	2.061679	0.100290	12.945221	-0.007182	0.006074	3.296059	1.000000	0.000007	0.000121	-0.000194	0.466741	-9.020986	174.678768
03903	2.031638	0.110773	12.951125	0.022414	-0.006964	3.297268	1.000000	0.000004	0.000100	-0.000180	0.467331	-9.022498	174.679613
03904	2.056052	0.101881	12.946104	-0.001327	0.004038	3.296062	1.000000	-0.000008	0.000109	-0.000173	0.466094	-9.023080	174.686241
03905	2.061681	0.107648	12.927148	-0.010361	-0.001213	3.278270	1.000000	-0.000011	0.000110	-0.000186	0.465426	-9.023052	174.676718
03906	2.048264	0.092214	12.938377	0.005936	0.012529	3.287133	1.000000	-0.000015	0.000117	-0.000194	0.463780	-9.022501	174.678928
03907	2.029018	0.096692	12.937629	0.024400	0.006026	3.283414	1.000000	-0.000007	0.000100	-0.000198	0.463087	-9.023837	174.683757
03908	2.042600	0.093354	12.939264	0.011696	0.010467	3.287131	1.000000	-0.000002	0.000115	-0.000163	0.462564	-9.023474	174.687250
03909	2.043216	0.106567	12.934730	0.009256	-0.002454	3.282856	1.000000	0.000006	0.000095	-0.000186	0.463953	-9.024912	174.673775
03910	2.045633	0.100319	12.920718	0.005528	0.004301	3.269345	1.000000	0.000004	0.000114	-0.000191	0.464933	-9.024938	174.668867
03911	2.053996	0.104343	12.936812	-0.000415	0.000919	3.286584	1.000000	-0.000000	0.000106	-0.000188	0.464561	-9.025924	174.682171
03912	2.047601	0.114050	12.938057	0.005431	-0.009419	3.286889	1.000000	-0.000001	0.000098	-0.000171	0.464092	-9.027552	174.687657
03913	2.033040	0.097110	12.962828	0.025392	0.005962	3.308933	1.000000	0.000008	0.000107	-0.000183	0.464875	-9.027894	174.692751
03914	2.000972	0.118386	12.955831	0.054288	-0.017911	3.297164	1.000000	0.000009	0.000090	-0.000192	0.466007	-9.030540	174.696485
03915	1.987022	0.092506	12.958170	0.072139	0.006511	3.297070	1.000000	-0.000017	0.000034	-0.000175	0.464793	-9.039867	174.687679
03916	2.038256	0.084873	12.934756	0.020699	0.018361	3.281923	1.000000	-0.000011	0.000033	-0.000203	0.463510	-9.048528	174.693876
03917	2.042487	0.108861	12.938597	0.016892	-0.005104	3.286572	1.000000	0.000018	0.000040	-0.000213	0.466319	-9.056590	174.687326
03918	2.062950	0.098789	12.925563	-0.002611	0.006942	3.276837	1.000000	-0.000009	0.000045	-0.000201	0.465634	-9.063854	174.685547
03919	2.172980	0.095789	12.895247	-0.114182	0.020161	3.264199	1.000000	0.000003	0.000088	-0.000183	0.466331	-9.066313	174.678606
03920	2.170340	0.083848	12.922219	-0.106893	0.031597	3.290317	1.000000	-0.000006	0.000178	-0.000180	0.465409	-9.058335	174.682619
03921	2.077582	0.066452	12.953146	-0.011127	0.040491	3.306115	1.000000	0.000013	0.000196	-0.000150	0.466677	-9.048955	174.683823
03922	1.982007	0.103117	12.962891	0.079454	-0.004247	3.301015	1.000000	0.000029	0.000151	-0.000161	0.469649	-9.044434	174.687223
03923	2.019824	0.144730	12.938133	0.034956	-0.041589	3.282845	1.000000	0.000006	0.000052	-0.000186	0.470807	-9.051580	174.684189
03924	2.074514	0.158992	12.932145	-0.019324	-0.050732	3.285645	1.000000	0.000006	0.000035	-0.000195	0.471647	-9.060151	174.685584
03925	2.138701	0.114218	12.919268	-0.079025	-0.000075	3.282668	1.000000	-0.000006	0.000084	-0.000206	0.472005	-9.063171	174.671698
03926	2.132238	0.102051	12.924741	-0.070975	0.010936	3.286955	1.000000	-0.000039	0.000158	-0.000206	0.467878	-9.057897	174.673386
03927	2.084390	0.085107	12.911385	-0.025934	0.023069	3.266097	1.000000	-0.000021	0.000172	-0.000195	0.466318	-9.050902	174.661508
03928	2.033367	0.064697	12.925242	0.026623	0.038379	3.271596	1.000000	-0.000012	0.000176	-0.000171	0.464933	-9.043469	174.661125
03929	1.981016	0.072855	12.970746	0.083199	0.025193	3.308380	1.000000	0.000006	0.000147	-0.000160	0.465585	-9.039444	174.659211
03930	1.980240	0.098803	12.939897	0.076307	-0.000403	3.278004	1.000000	0.000008	0.000102	-0.000147	0.465875	-9.040123	174.660174
03931	1.988709	0.124493	12.951780	0.068350	-0.025059	3.291273	1.000000	0.000019	0.000064	-0.000166	0.467989	-9.045988	174.665064
03932	2.026794	0.112110	12.926552	0.029413	-0.009361	3.272237	1.000000	-0.000036	0.000051	-0.000189	0.464305	-9.052669	174.659184
03933	2.074189	0.092091	12.908382	-0.016966	0.014419	3.261584	1.000000	-0.000013	0.000069	-0.000200	0.463363	-9.057293	174.652501
03934	2.100072	0.070528	12.929848	-0.036417	0.037758	3.286682	1.000000	-0.000023	0.000099	-0.000206	0.461467	-9.058474	174.644920
03935	2.095533	0.069337	12.943941	-0.029770	0.038347	3.299876	1.000000	0.000010	0.000134	-0.000191	0.462776	-9.055910	174.646600
03936	2.055289	0.078280	12.920434	0.004869	0.026392	3.270402	1.000000	0.000022	0.000120	-0.000163	0.465265	-9.054749	174.641128
03937	2.046117	0.099200	12.908927	0.010011	0.005217	3.257764	1.000000	0.000018	0.000116	-0.000140	0.466686	-9.054217	174.645092
03938	2.071449	0.153343	12.926770	-0.016972	-0.046115	3.279806	1.000000	0.000023	0.000106	-0.000152	0.468658	-9.055086	174.654225
03939	2.083695	0.140061	12.919790	-0.028323	-0.031339	3.274734	1.000000	0.000008	0.000079	-0.000194	0.470091	-9.058948	174.650352
03940	2.084869	0.131716	12.919405	-0.028440	-0.023106	3.274470	1.000000	-0.000030	0.000121	-0.000237	0.467634	-9.058001	174.649289
03941	2.069668	0.105310	12.921932	-0.010930	0.001311	3.274360	1.000000	-0.000025	0.000118	-0.000211	0.465534	-9.057210	174.643568
03942	2.062305	0.069679	12.945113	0.002870	0.035417	3.295807	1.000000	-0.000024	0.000125	-0.000173	0.462693	-9.055410	174.640863
03943	2.058924	0.070015	12.945649	0.005683	0.034435	3.295809	1.000000	-0.000004	0.000134	-0.000167	0.462140	-9.052555	174.638337
03944	2.060422	0.093952	12.949922	0.002119	0.010819	3.300455	1.000000	0.000015	0.000131	-0.000164	0.463446	-9.050290	174.644055
03945	2.032894	0.107694	12.928442	0.024229	-0.005098	3.275027	1.000000	-0.000001	0.000116	-0.000162	0.463106	-9.049764	174.645106
03946	2.029815	0.108424	12.928920	0.027078	-0.006109	3.275021	1.000000	0.000003	0.000120	-0.000184	0.463453	-9.048715	174.645153
03947	2.036338	0.101701	12.936429	0.022490	0.000984	3.283408	1.000000	-0.000020	0.000098	-0.000193	0.461579	-9.050105	174.640878
03948	2.041429	0.084422	12.935235	0.019205	0.018523	3.282890	1.000000	0.000003	0.000099	-0.000212	0.462549	-9.051472	174.637464
03949	2.062429	0.085014	12.931236	-0.001729	0.019945	3.282247	1.000000	-0.000007	0.000093	-0.000181	0.462068	-9.053548	174.633632
03950	2.070889	0.088963	12.947385	-0.007560	0.016533	3.299556	1.000000	-0.000007	0.000107	-0.000191	0.461575	-9.054175	174.632837
03951	2.065668	0.100739	12.935041	-0.005377	0.004617	3.286640	1.000000	0.000024	0.000115	-0.000168	0.464136	-9.053956	174.638826
03952	2.073026	0.118059	12.924841	-0.015793	-0.011324	3.277863	1.000000	0.000020	0.000108	-0.000165	0.466351	-9.054245	174.637614
03953	2.067840	0.138746	12.934770	-0.011057	-0.032099	3.287020	1.000000	0.000011	0.000121	-0.000180	0.467589	-9.053283	174.641592
03954	2.079611	0.134135	12.950216	-0.020028	-0.026330	3.304087	1.000000	0.000005	0.000118	-0.000171	0.467906	-9.052247	174.642045
03955	2.078671	0.114988	12.941258	-0.018971	-0.007631	3.294937	1.000000	-0.000033	0.000121	-0.000196	0.464363	-9.051233	174.644527
03956	2.077887	0.095821	12.932277	-0.017977	0.011129	3.285791	1.000000	0.000001	0.000108	-0.000187	0.464807	-9.051554	174.640895
03957	2.066190	0.082352	12.929801	-0.005683	0.023459	3.281399	1.000000	-0.000008	0.000120	-0.000202	0.464326	-9.050554	174.640614
03958	2.056976	0.102672	12.918263	-0.000398	0.002368	3.268720	1.000000	-0.000007	0.000110	-0.000172	0.463709	-9.050822	174.640410
03959	2.061102	0.115553	12.935288	-0.003109	-0.010285	3.286284	1.000000	-0.000003	0.000121	-0.000156	0.463317	-9.049635	174.637671
03960	2.058507	0.094855	12.939942	0.001765	0.010121	3.290307	1.000000	0.000007	0.000131	-0.000168	0.464164	-9.047642	174.640875
03961	2.035044	0.108064	12.939836	0.023403	-0.005280	3.286620	1.000000	-0.000018	0.000107	-0.000209	0.462662	-9.048146	174.639905
03962	2.051093	0.094065	12.954457	0.011421	0.009697	3.303469	1.000000	-0.000013	0.000101	-0.000201	0.461402	-9.049566	174.644808
03963	2.041145	0.082434	12.938345	0.019835	0.020468	3.285901	1.000000	0.000006	0.000115	-0.000190	0.462414	-9.049155	174.642838
03964	2.060318	0.081463	12.948060	0.002694	0.023351	3.298501	1.000000	0.000006	0.000098	-0.000199	0.463480	-9.050446	174.637515
03965	2.051428	0.102080	12.936453	0.007998	0.002205	3.285806	1.000000	0.000006	0.000105	-0.000160	0.463837	-9.051295	174.642562
03966	2.064352	0.120815	12.934154	-0.006651	-0.014993	3.285718	1.000000	0.000010	0.000109	-0.000183	0.465405	-9.051606	174.639228
03967	2.070937	0.114434	12.941703	-0.011247	-0.007996	3.294157	1.000000	-0.000004	0.000105	-0.000178	0.464952	-9.052215	174.638617
03968	2.057085	0.120329	12.948639	0.002964	-0.015289	3.298876	1.000000	-0.000011	0.000113	-0.000199	0.464345	-9.051987	174.634352
03969	2.081676	0.111804	12.944023	-0.021114	-0.004816	3.298115	1.000000	-0.000021	0.000104	-0.000187	0.462262	-9.052853	174.632266
03970	2.068408	0.087400	12.932861	-0.007729	0.018106	3.284811	1.000000	-0.000001	0.000130	-0.000173	0.462243	-9.050730	174.632319
03971	2.074044	0.102142	12.936315	-0.014215	0.003798	3.289225	1.000000	-0.000019	0.000099	-0.000192	0.460770	-9.052027	174.624843
03972	2.058586	0.106240	12.956833	0.003883	-0.001926	3.307090	1.000000	0.000012	0.000121	-0.000180	0.462117	-9.050996	174.628118
03973	2.073507	0.105414	12.945163	-0.012732	0.000563	3.297904	1.000000	-0.000002	0.000118	-0.000175	0.462082	-9.050301	174.627321
03974	2.048321	0.107830	12.936346	0.010119	-0.004261	3.285258	1.000000	-0.000009	0.000129	-0.000177	0.460952	-9.048392	174.631474
03975	2.056138	0.103056	12.930381	0.001661	0.001102	3.280558	1.000000	-0.000011	0.000114	-0.000199	0.460250	-9.048143	174.628757
03976	2.043050	0.087491	12.941434	0.017732	0.015154	3.289293	1.000000	-0.000006	0.000107	-0.000191	0.459748	-9.048684	174.629591
03977	2.038651	0.077433	12.933206	0.021689	0.024691	3.280396	1.000000	-0.000008	0.000112	-0.000185	0.459027	-9.048424	174.625943
03978	2.060943	0.088679	12.938080	-0.000334	0.015315	3.288802	1.000000	-0.000010	0.000100	-0.000188	0.458089	-9.049955	174.629034
03979	2.064373	0.114461	12.928703	-0.007424	-0.010010	3.280286	1.000000	0.000008	0.000114	-0.000177	0.458955	-9.049778	174.633174
03980	2.059808	0.113654	12.942753	-0.000630	-0.009352	3.293437	1.000000	0.000017	0.000112	-0.000191	0.461212	-9.049851	174.633722
03981	2.038911	0.107555	12.933072	0.018980	-0.004842	3.280543	1.000000	-0.000000	0.000110	-0.000200	0.461694	-9.049927	174.629652
03982	2.076154	0.113819	12.952993	-0.014845	-0.007553	3.306121	1.000000	0.000014	0.000094	-0.000158	0.463125	-9.051813	174.628934
03983	2.052366	0.094938	12.948185	0.009790	0.009079	3.297482	1.000000	-0.000008	0.000112	-0.000185	0.462239	-9.051863	174.632331
03984	2.067675	0.093861	12.936505	-0.006888	0.011476	3.288346	1.000000	-0.000010	0.000100	-0.000188	0.461459	-9.053120	174.630298
03985	2.073363	0.108741	12.939963	-0.013329	-0.002938	3.292774	1.000000	-0.000002	0.000118	-0.000175	0.461336	-9.052051	174.625717
03986	2.067994	0.120040	12.927624	-0.011156	-0.014806	3.279834	1.000000	-0.000017	0.000111	-0.000190	0.459691	-9.052003	174.624419
03987	2.060199	0.106183	12.946600	0.000617	-0.002009	3.297238	1.000000	0.000004	0.000124	-0.000165	0.459928	-9.050658	174.628405
03988	2.059186	0.099837	12.911191	-0.003332	0.004224	3.262061	1.000000	-0.000017	0.000089	-0.000162	0.457665	-9.052937	174.625805
03989	2.048956	0.105206	12.939598	0.010549	-0.002682	3.288548	1.000000	-0.000015	0.000141	-0.000178	0.456020	-9.049469	174.624401
03990	2.060691	0.091780	12.932923	-0.001196	0.011831	3.283695	1.000000	0.000009	0.000111	-0.000195	0.457431	-9.049420	174.621147
03991	2.057836	0.092715	12.933371	0.001645	0.010853	3.283696	1.000000	0.000005	0.000107	-0.000173	0.458007	-9.049780	174.619772
03992	2.045619	0.100571	12.926651	0.012029	0.001997	3.275201	1.000000	-0.000003	0.000106	-0.000178	0.457875	-9.050502	174.620796
03993	2.059310	0.097759	12.928589	-0.000736	0.005980	3.279245	1.000000	-0.000006	0.000108	-0.000191	0.457595	-9.050999	174.620702
03994	2.055523	0.119681	12.924902	0.000379	-0.016376	3.275182	1.000000	-0.000014	0.000110	-0.000176	0.456095	-9.050968	174.617915
03995	2.060414	0.102505	12.923872	-0.003166	0.001037	3.274798	1.000000	-0.000000	0.000127	-0.000191	0.456298	-9.049302	174.620054
03996	2.054084	0.099519	12.951513	0.007549	0.003343	3.301075	1.000000	0.000007	0.000106	-0.000160	0.456861	-9.049952	174.622350
03997	2.058168	0.103952	12.946326	0.002246	-0.000681	3.296630	1.000000	-0.000006	0.000122	-0.000201	0.456331	-9.048757	174.621967
03998	2.059220	0.095877	12.946033	0.001884	0.007568	3.296442	1.000000	0.000005	0.000104	-0.000192	0.457365	-9.049603	174.620088
03999	2.064926	0.110989	12.949500	-0.004506	-0.006919	3.300883	1.000000	-0.000003	0.000106	-0.000178	0.457019	-9.049780	174.615094
04000	2.071788	0.095905	12.934855	-0.012069	0.008853	3.287380	1.000000	0.000003	0.000109	-0.000186	0.457564	-9.050002	174.614016
04001	2.052324	0.099972	12.933795	0.006394	0.002949	3.283305	1.000000	-0.000010	0.000118	-0.000179	0.456472	-9.048951	174.609821
04002	2.057835	0.114873	12.937296	0.000114	-0.011552	3.287747	1.000000	-0.000003	0.000106	-0.000177	0.456154	-9.049543	174.610452
04003	2.055783	0.094178	12.941913	0.004657	0.008844	3.291821	1.000000	0.000002	0.000126	-0.000178	0.456486	-9.047871	174.611029
04004	2.065315	0.091654	12.922449	-0.007807	0.012472	3.274076	1.000000	-0.000004	0.000120	-0.000188	0.456543	-9.047001	174.611253
04005	2.070644	0.106486	12.925987	-0.014067	-0.002083	3.278525	1.000000	-0.000018	0.000117	-0.000184	0.454448	-9.046439	174.612761
04006	2.065653	0.105042	12.940092	-0.007234	-0.001467	3.291659	1.000000	-0.000004	0.000138	-0.000180	0.453883	-9.043510	174.614756
04007	2.036100	0.084008	12.927317	0.021426	0.016788	3.274235	1.000000	-0.000007	0.000113	-0.000185	0.453467	-9.043446	174.615014
04008	2.063733	0.097290	12.940286	-0.004686	0.005675	3.291488	1.000000	-0.000011	0.000092	-0.000171	0.451648	-9.045917	174.621467
04009	2.058753	0.108599	12.927869	-0.002454	-0.006113	3.278531	1.000000	-0.000003	0.000107	-0.000177	0.451622	-9.046584	174.622560
04010	2.056581	0.096536	12.954725	0.005057	0.005468	3.304617	1.000000	-0.000007	0.000113	-0.000185	0.451264	-9.046388	174.621156
04011	2.035070	0.102672	12.918529	0.019920	-0.002298	3.265540	1.000000	0.000012	0.000114	-0.000163	0.452533	-9.046206	174.623098
04012	2.040911	0.105097	12.948500	0.018321	-0.004391	3.296075	1.000000	-0.000014	0.000135	-0.000216	0.451314	-9.043471	174.620694
04013	2.051807	0.113408	12.937747	0.004913	-0.011409	3.287233	1.000000	0.000020	0.000111	-0.000177	0.453603	-9.043750	174.624582
04014	2.058150	0.107293	12.945436	0.000224	-0.004497	3.295775	1.000000	-0.000005	0.000125	-0.000182	0.453356	-9.041831	174.619552
04015	2.060840	0.100994	12.931603	-0.004183	0.002049	3.282487	1.000000	-0.000005	0.000108	-0.000191	0.453091	-9.042085	174.618017
04016	2.055150	0.121210	12.941494	0.001032	-0.018699	3.291520	1.000000	0.000001	0.000114	-0.000180	0.453217	-9.041509	174.616201
04017	2.066136	0.097413	12.926160	-0.009948	0.006209	3.277916	1.000000	0.000004	0.000109	-0.000186	0.453805	-9.041846	174.617203
04018	2.078576	0.116545	12.924081	-0.024303	-0.011373	3.277966	1.000000	0.000016	0.000118	-0.000185	0.455804	-9.041139	174.617120
04019	2.069783	0.092169	12.934289	-0.011645	0.011991	3.286475	1.000000	-0.000015	0.000098	-0.000179	0.453972	-9.042914	174.621156
04020	2.059998	0.089044	12.940336	-0.000658	0.014008	3.290885	1.000000	0.000004	0.000109	-0.000186	0.454503	-9.042887	174.617882
04021	2.041589	0.103874	12.947920	0.017020	-0.002286	3.295601	1.000000	0.000009	0.000133	-0.000167	0.455569	-9.040440	174.618919
04022	2.044509	0.098012	12.934059	0.012602	0.004251	3.282324	1.000000	0.000017	0.000087	-0.000183	0.457678	-9.043290	174.619086
04023	2.054351	0.104602	12.936805	0.003168	-0.001125	3.286634	1.000000	0.000004	0.000110	-0.000186	0.458399	-9.043710	174.621011
04024	2.072110	0.093272	12.938136	-0.013048	0.011854	3.290648	1.000000	-0.000005	0.000109	-0.000191	0.458219	-9.043673	174.616419
04025	2.063309	0.104828	12.904206	-0.010641	-0.000197	3.255849	1.000000	-0.000000	0.000102	-0.000183	0.458656	-9.044711	174.615447
04026	2.042169	0.106982	12.916610	0.011895	-0.004286	3.264795	1.000000	0.000008	0.000120	-0.000170	0.459437	-9.043638	174.616563
04027	2.059389	0.104469	12.940225	-0.001058	-0.000216	3.290802	1.000000	-0.000002	0.000104	-0.000196	0.459693	-9.044675	174.616235
04028	2.068868	0.110785	12.943046	-0.010529	-0.005639	3.295126	1.000000	-0.000001	0.000119	-0.000174	0.459604	-9.043749	174.617059
04029	2.065841	0.111573	12.943522	-0.007624	-0.006685	3.295128	1.000000	0.000002	0.000111	-0.000199	0.460039	-9.043870	174.617496
04030	2.064726	0.114170	12.930401	-0.008748	-0.009344	3.282015	1.000000	-0.000008	0.000105	-0.000168	0.458954	-9.044657	174.619039
04031	2.064618	0.095238	12.921456	-0.008410	0.009395	3.273014	1.000000	-0.000005	0.000126	-0.000182	0.458509	-9.042979	174.618992
04032	2.075221	0.111960	12.933000	-0.018657	-0.006618	3.286212	1.000000	-0.000017	0.000104	-0.000173	0.456537	-9.044002	174.621388
04033	2.046002	0.099336	12.942246	0.012854	0.002969	3.290653	1.000000	0.000000	0.000102	-0.000183	0.456740	-9.044846	174.619496
04034	2.070719	0.091874	12.938048	-0.011449	0.012789	3.290332	1.000000	0.000003	0.000127	-0.000178	0.457163	-9.043264	174.621653
04035	2.051090	0.095583	12.936884	0.007173	0.007076	3.286128	1.000000	-0.000021	0.000110	-0.000180	0.454810	-9.043662	174.624476
04036	2.048062	0.096033	12.937360	0.010061	0.006126	3.286127	1.000000	-0.000003	0.000121	-0.000188	0.454923	-9.042576	174.623611
04037	2.037132	0.105824	12.917042	0.016421	-0.004285	3.264422	1.000000	0.000014	0.000123	-0.000179	0.456621	-9.041121	174.623574
04038	2.038536	0.093848	12.965432	0.023833	0.007521	3.312336	1.000000	-0.000012	0.000094	-0.000184	0.455567	-9.043119	174.623904
04039	2.061701	0.088272	12.926119	-0.004406	0.015325	3.277106	1.000000	0.000002	0.000115	-0.000180	0.455689	-9.042858	174.626477
04040	2.057127	0.087022	12.940128	0.002476	0.016004	3.290213	1.000000	-0.000008	0.000102	-0.000187	0.455014	-9.043929	174.625625
04041	2.048535	0.094662	12.954832	0.012758	0.007484	3.303444	1.000000	0.000009	0.000104	-0.000178	0.455904	-9.044830	174.627056
04042	2.064665	0.117774	12.925650	-0.009579	-0.013568	3.277342	1.000000	0.000013	0.000097	-0.000171	0.457373	-9.046169	174.626212
04043	2.063520	0.120447	12.912543	-0.010823	-0.016288	3.264239	1.000000	-0.000011	0.000124	-0.000173	0.455806	-9.044394	174.624616
04044	2.071022	0.125031	12.928999	-0.016182	-0.020087	3.281705	1.000000	0.000019	0.000114	-0.000190	0.458408	-9.044248	174.624641
04045	2.078340	0.106596	12.963118	-0.014870	-0.000343	3.316405	1.000000	0.000009	0.000100	-0.000197	0.462602	-9.050913	174.574336
04046	2.068443	0.107461	12.920468	-0.011752	-0.001801	3.272738	1.000000	-0.000014	0.000113	-0.000189	0.461412	-9.050948	174.574877
04047	2.080295	0.103052	12.936192	-0.020568	0.003527	3.290094	1.000000	0.000005	0.000110	-0.000186	0.462171	-9.050922	174.572663
04048	2.078923	0.105851	12.923128	-0.021709	0.000821	3.276999	1.000000	0.000002	0.000129	-0.000191	0.462511	-9.049031	174.573687
04049	2.062472	0.109359	12.943519	-0.003216	-0.004535	3.294577	1.000000	-0.000026	0.000134	-0.000179	0.459789	-9.046397	174.572692
04050	2.063956	0.092233	12.921082	-0.006988	0.012538	3.272517	1.000000	-0.000004	0.000123	-0.000201	0.459861	-9.045432	174.573827
04051	2.036601	0.100911	12.947679	0.023117	0.001111	3.294555	1.000000	-0.000004	0.000113	-0.000171	0.459346	-9.045392	174.575885
04052	2.049030	0.087608	12.941170	0.010999	0.015295	3.289973	1.000000	-0.000016	0.000118	-0.000183	0.457498	-9.044669	174.576185
04053	2.044785	0.077656	12.932963	0.014617	0.024933	3.281123	1.000000	0.000015	0.000124	-0.000179	0.459468	-9.043461	174.577890
04054	2.057129	0.097094	12.930985	0.000432	0.007099	3.281262	1.000000	0.000014	0.000094	-0.000190	0.461108	-9.045337	174.576606
04055	2.052198	0.108819	12.918523	0.002611	-0.004636	3.268274	1.000000	0.000005	0.000097	-0.000175	0.462034	-9.046768	174.573176
04056	2.057064	0.100772	12.939818	0.002006	0.003805	3.290004	1.000000	0.000000	0.000120	-0.000174	0.462289	-9.045705	174.572802
04057	2.061258	0.105394	12.934709	-0.003237	-0.000290	3.285655	1.000000	0.000003	0.000098	-0.000188	0.463003	-9.047434	174.573683
04058	2.070687	0.112012	12.937607	-0.012625	-0.005819	3.290052	1.000000	0.000007	0.000123	-0.000183	0.464017	-9.046132	174.573128
04059	2.072309	0.103862	12.937316	-0.013172	0.002290	3.289954	1.000000	-0.000017	0.000075	-0.000184	0.462144	-9.050402	174.573923
04060	2.072582	0.117009	12.932869	-0.015039	-0.010936	3.285711	1.000000	0.000000	0.000120	-0.000174	0.462313	-9.049309	174.573358
04061	2.073703	0.108768	12.932662	-0.015553	-0.002751	3.285617	1.000000	-0.000014	0.000117	-0.000170	0.460822	-9.048923	174.575861
04062	2.080397	0.102496	12.940411	-0.020195	0.004019	3.294271	1.000000	0.000006	0.000097	-0.000175	0.461856	-9.050665	174.575628
04063	2.074164	0.103290	12.919290	-0.017337	0.002806	3.272440	1.000000	-0.000005	0.000115	-0.000184	0.461422	-9.050183	174.574031
04064	2.059702	0.108610	12.926039	-0.002882	-0.004179	3.276874	1.000000	-0.000021	0.000128	-0.000171	0.459018	-9.048106	174.573251
04065	2.054734	0.107154	12.940092	0.004047	-0.003395	3.289960	1.000000	0.000005	0.000114	-0.000167	0.459861	-9.047647	174.571618
04066	2.043673	0.093340	12.937400	0.015730	0.009401	3.285453	1.000000	-0.000005	0.000115	-0.000184	0.459670	-9.047318	174.570649
04067	2.053075	0.099998	12.940321	0.006355	0.003785	3.289868	1.000000	0.000016	0.000107	-0.000187	0.461600	-9.047824	174.570322
04068	2.050244	0.100840	12.940763	0.009224	0.002771	3.289867	1.000000	-0.000011	0.000109	-0.000194	0.460562	-9.048099	174.568611
04069	2.070024	0.091735	12.928744	-0.011182	0.013780	3.281034	1.000000	0.000009	0.000108	-0.000159	0.461501	-9.048511	174.570187
04070	2.051573	0.106159	12.936121	0.006815	-0.002322	3.285533	1.000000	-0.000003	0.000113	-0.000171	0.461064	-9.048387	174.571570
04071	2.064320	0.093108	12.929647	-0.005377	0.011749	3.281039	1.000000	-0.000007	0.000102	-0.000187	0.460360	-9.049658	174.572919
04072	2.050271	0.098792	12.936300	0.009110	0.004821	3.285447	1.000000	0.000008	0.000106	-0.000191	0.461702	-9.050101	174.570329
04073	2.058250	0.126815	12.935073	-0.001408	-0.022209	3.285713	1.000000	-0.000003	0.000110	-0.000190	0.461644	-9.050447	174.570372
04074	2.068014	0.101367	12.933486	-0.009028	0.004205	3.285477	1.000000	0.000009	0.000122	-0.000170	0.462747	-9.049053	174.569710
04075	2.066791	0.103906	12.920418	-0.010273	0.001533	3.272401	1.000000	-0.000020	0.000111	-0.000180	0.460605	-9.049036	174.569231
04076	2.058076	0.111250	12.935067	0.000271	-0.006851	3.285555	1.000000	0.000000	0.000088	-0.000204	0.461449	-9.051975	174.567553
04077	2.076192	0.100349	12.936618	-0.016026	0.005766	3.289848	1.000000	0.000003	0.000119	-0.000161	0.461641	-9.051268	174.570521
04078	2.074390	0.115795	12.897135	-0.022009	-0.009421	3.250697	1.000000	0.000006	0.000111	-0.000185	0.462372	-9.051236	174.569720
04079	2.050256	0.105007	12.914174	0.005370	-0.000875	3.263644	1.000000	0.000003	0.000116	-0.000180	0.462974	-9.050726	174.569563
04080	2.060059	0.098850	12.943575	0.000771	0.006011	3.294170	1.000000	-0.000007	0.000120	-0.000178	0.462462	-9.049794	174.569300
04081	2.053767	0.099447	12.922460	0.003582	0.004823	3.272334	1.000000	-0.000006	0.000103	-0.000187	0.461935	-9.050842	174.569181
04082	2.037589	0.102966	12.942675	0.022286	-0.000449	3.289782	1.000000	-0.000001	0.000126	-0.000168	0.461520	-9.049357	174.571826
04083	2.058321	0.104762	12.939439	0.001246	-0.000177	3.289859	1.000000	0.000007	0.000094	-0.000194	0.462654	-9.051197	174.569502
04084	2.059974	0.096766	12.939175	0.000640	0.007935	3.289795	1.000000	-0.000009	0.000108	-0.000181	0.461763	-9.051795	174.570348
04085	2.052849	0.106026	12.940298	0.007039	-0.002165	3.289857	1.000000	-0.000009	0.000108	-0.000181	0.460889	-9.052249	174.570394
04086	2.063187	0.103871	12.921013	-0.005970	0.001026	3.272422	1.000000	0.000006	0.000111	-0.000185	0.461512	-9.051984	174.568966
04087	2.060291	0.104786	12.921468	-0.003162	-0.000019	3.272423	1.000000	0.000008	0.000110	-0.000172	0.462122	-9.051919	174.569141
04088	2.067803	0.109499	12.937991	-0.008352	-0.004050	3.289958	1.000000	-0.000002	0.000110	-0.000190	0.462021	-9.052008	174.568016
04089	2.063047	0.108261	12.951991	-0.001361	-0.003322	3.303026	1.000000	-0.000002	0.000110	-0.000190	0.462186	-9.051984	174.565943
04090	2.058582	0.111115	12.917336	-0.002740	-0.006211	3.268124	1.000000	0.000012	0.000117	-0.000175	0.463428	-9.051309	174.567014
04091	2.065247	0.105059	12.925150	-0.007402	0.000440	3.276840	1.000000	-0.000012	0.000100	-0.000178	0.462329	-9.052686	174.567319
04092	2.056178	0.112403	12.939818	0.003116	-0.007954	3.289958	1.000000	0.000003	0.000120	-0.000160	0.462475	-9.051564	174.568455
04093	2.065593	0.099517	12.911862	-0.009389	0.005903	3.263728	1.000000	-0.000008	0.000108	-0.000181	0.461767	-9.051992	174.568169
04094	2.059785	0.106854	12.948118	0.001333	-0.002296	3.298678	1.000000	-0.000004	0.000115	-0.000184	0.461567	-9.051586	174.567609
04095	2.058335	0.085980	12.952764	0.005330	0.018171	3.302871	1.000000	-0.000015	0.000119	-0.000183	0.460255	-9.050943	174.568025
04096	2.054706	0.099041	12.926830	0.003422	0.004644	3.276794	1.000000	-0.000011	0.000113	-0.000175	0.458769	-9.050700	174.568863
04097	2.054238	0.089034	12.940165	0.006854	0.014382	3.289810	1.000000	0.000006	0.000112	-0.000185	0.459414	-9.050519	174.568458
04098	2.061322	0.106477	12.930261	-0.002999	-0.002144	3.281282	1.000000	0.000001	0.000092	-0.000185	0.459711	-9.052927	174.568723
04099	2.056721	0.105222	12.944228	0.004038	-0.001473	3.294341	1.000000	-0.000004	0.000116	-0.000184	0.459258	-9.052461	174.568758
04100	2.069375	0.092431	12.937898	-0.008393	0.012492	3.289978	1.000000	0.000002	0.000121	-0.000174	0.459427	-9.051293	174.569613
04101	2.053592	0.100303	12.909390	0.001848	0.003790	3.259406	1.000000	0.000026	0.000106	-0.000201	0.462883	-9.051743	174.566651
04102	2.070403	0.098591	12.933357	-0.010846	0.007279	3.285703	1.000000	-0.000001	0.000126	-0.000168	0.462665	-9.050024	174.568225
04103	2.060473	0.118595	12.921629	-0.004982	-0.013521	3.272721	1.000000	-0.000010	0.000110	-0.000194	0.462149	-9.050186	174.566082
04104	2.060138	0.108591	12.934949	-0.001537	-0.003761	3.285742	1.000000	0.000003	0.000104	-0.000182	0.462459	-9.050899	174.565843
04105	2.060574	0.109373	12.956984	0.001536	-0.004569	3.307577	1.000000	-0.000002	0.000111	-0.000190	0.462680	-9.050965	174.564586
04106	2.070162	0.096603	12.929059	-0.011087	0.009204	3.281406	1.000000	-0.000002	0.000114	-0.000171	0.462351	-9.050802	174.566442
04107	2.055903	0.101891	12.935644	0.003492	0.002310	3.285709	1.000000	-0.000014	0.000102	-0.000191	0.460784	-9.051659	174.565419
04108	2.072196	0.089130	12.950883	-0.008788	0.016353	3.303217	1.000000	0.000011	0.000109	-0.000159	0.461573	-9.051975	174.568016
04109	2.057001	0.107291	12.931101	0.001081	-0.002946	3.281439	1.000000	-0.000007	0.000135	-0.000188	0.461042	-9.049321	174.567268
04110	2.058146	0.099117	12.930959	0.000323	0.005113	3.281413	1.000000	-0.000010	0.000113	-0.000175	0.459743	-9.049006	174.567847
04111	2.069918	0.094896	12.946886	-0.008302	0.010112	3.298959	1.000000	-0.000008	0.000108	-0.000181	0.459091	-9.049577	174.568657
04112	2.061953	0.093691	12.939270	-0.001471	0.010646	3.290175	1.000000	0.000009	0.000107	-0.000191	0.460321	-9.049980	174.567478
04113	2.051981	0.090558	12.945199	0.009500	0.013022	3.294438	1.000000	-0.000004	0.000116	-0.000184	0.460506	-9.049143	174.564672
04114	2.062912	0.099418	12.934758	-0.003944	0.005478	3.285916	1.000000	0.000017	0.000126	-0.000178	0.462319	-9.047524	174.565528
04115	2.057486	0.110694	12.922338	-0.001597	-0.006360	3.272888	1.000000	-0.000028	0.000099	-0.000187	0.459023	-9.049243	174.566686
04116	2.069432	0.106296	12.938255	-0.010284	-0.001407	3.290448	1.000000	-0.000008	0.000108	-0.000181	0.458275	-9.049486	174.566291
04117	2.068485	0.108833	12.925177	-0.011612	-0.004103	3.277405	1.000000	-0.000009	0.000110	-0.000194	0.457546	-9.049605	174.564873
04118	2.062922	0.097007	12.930453	-0.004170	0.007270	3.281648	1.000000	0.000015	0.000114	-0.000180	0.459546	-9.049512	174.565203
04119	2.065197	0.099899	12.938971	-0.005154	0.004696	3.290440	1.000000	-0.000005	0.000104	-0.000186	0.459179	-9.050810	174.565784
04120	2.065085	0.113310	12.934588	-0.006786	-0.008639	3.286200	1.000000	0.000003	0.000105	-0.000182	0.459685	-9.051629	174.565817
04121	2.066707	0.105320	12.934385	-0.007549	-0.000635	3.286192	1.000000	-0.000007	0.000109	-0.000181	0.458653	-9.051966	174.566567
04122	2.073302	0.099260	12.942282	-0.012278	0.005892	3.294979	1.000000	-0.000004	0.000116	-0.000184	0.458574	-9.051314	174.565509
04123	2.072869	0.112608	12.937953	-0.013902	-0.007481	3.290741	1.000000	-0.000004	0.000116	-0.000184	0.458201	-9.050825	174.565658
04124	2.057542	0.107512	12.935829	0.001076	-0.003640	3.286194	1.000000	0.000017	0.000126	-0.000178	0.460050	-9.049170	174.566470
04125	2.030741	0.106740	12.939789	0.027637	-0.005795	3.285887	1.000000	-0.000029	0.000116	-0.000178	0.455540	-9.047798	174.565168
04126	2.043805	0.093703	12.933509	0.015057	0.008045	3.281635	1.000000	-0.000003	0.000102	-0.000173	0.455189	-9.048891	174.566176
04127	2.052433	0.089688	12.927871	0.006113	0.012826	3.277392	1.000000	-0.000003	0.000116	-0.000184	0.454994	-9.048314	174.565451
04128	2.061639	0.096572	12.930967	-0.003056	0.006972	3.281950	1.000000	0.000010	0.000108	-0.000191	0.456530	-9.048903	174.565213
04129	2.057528	0.106306	12.953651	0.003804	-0.002959	3.303782	1.000000	0.000012	0.000106	-0.000177	0.457921	-9.049590	174.566231
04130	2.052313	0.117607	12.941185	0.006123	-0.014712	3.290741	1.000000	-0.000019	0.000100	-0.000182	0.455842	-9.050901	174.566572
04131	2.061114	0.113505	12.935533	-0.002802	-0.010014	3.286510	1.000000	0.000004	0.000105	-0.000182	0.456137	-9.051722	174.567647
04132	2.040942	0.106041	12.925266	0.016095	-0.004530	3.273141	1.000000	-0.000014	0.000120	-0.000182	0.454566	-9.050833	174.568416
04133	2.069283	0.099578	12.943273	-0.008285	0.004468	3.295328	1.000000	0.000016	0.000100	-0.000170	0.456348	-9.052189	174.569749
04134	2.066498	0.100279	12.943713	-0.005421	0.003480	3.295330	1.000000	-0.000018	0.000113	-0.000179	0.454428	-9.051998	174.569400
04135	2.069890	0.094197	12.930039	-0.010421	0.009815	3.282312	1.000000	0.000003	0.000119	-0.000192	0.455126	-9.051292	174.569301
04136	2.088546	0.094370	12.940634	-0.027216	0.011305	3.295710	1.000000	-0.000009	0.000111	-0.000194	0.454353	-9.051340	174.568065
04137	2.057282	0.102314	12.945165	0.003294	0.000499	3.295331	1.000000	0.000007	0.000130	-0.000176	0.455273	-9.049362	174.569074
04138	2.069844	0.089702	12.939022	-0.009341	0.014295	3.291140	1.000000	-0.000012	0.000133	-0.000179	0.454100	-9.047028	174.569218
04139	2.062298	0.098795	12.940135	-0.002764	0.004293	3.291125	1.000000	-0.000011	0.000101	-0.000177	0.453066	-9.048199	174.569391
04140	2.044721	0.103984	12.925036	0.011601	-0.002473	3.273493	1.000000	0.000001	0.000124	-0.000186	0.453533	-9.046655	174.568410
04141	2.046249	0.096289	12.924872	0.010688	0.005653	3.273511	1.000000	0.000015	0.000102	-0.000183	0.455661	-9.047358	174.565399
04142	2.053523	0.101185	12.941512	0.005779	0.001430	3.291124	1.000000	-0.000011	0.000116	-0.000188	0.454647	-9.046896	174.564715
04143	2.040591	0.097795	12.925755	0.016450	0.003743	3.273505	1.000000	0.000008	0.000099	-0.000174	0.455859	-9.048349	174.565003
04144	2.054977	0.106792	12.936965	0.003381	-0.003821	3.286907	1.000000	-0.000000	0.000112	-0.000189	0.456109	-9.048216	174.563651
04145	2.052121	0.107601	12.937411	0.006265	-0.004810	3.286905	1.000000	0.000004	0.000106	-0.000182	0.456709	-9.048909	174.563683
04146	2.051525	0.110250	12.924297	0.004872	-0.007485	3.273881	1.000000	-0.000014	0.000091	-0.000193	0.455617	-9.051222	174.561969
04147	2.053845	0.112865	12.932828	0.003835	-0.010126	3.282691	1.000000	-0.000003	0.000117	-0.000183	0.455351	-9.050458	174.561552
04148	2.050129	0.092265	12.915798	0.007031	0.010174	3.265127	1.000000	0.000009	0.000085	-0.000164	0.456051	-9.053556	174.563945
04149	1.994528	0.130443	12.928001	0.060556	-0.033241	3.268734	1.000000	-0.000014	0.000094	-0.000174	0.454563	-9.055346	174.563484
04150	2.100121	0.087877	12.930899	-0.038426	0.018712	3.287868	1.000000	-0.000008	0.000097	-0.000183	0.453829	-9.056968	174.563247
04151	2.117538	0.096803	12.963767	-0.051068	0.011164	3.323136	1.000000	-0.000000	0.000112	-0.000189	0.454108	-9.056747	174.561843
04152	2.077606	0.115153	12.912065	-0.021844	-0.010378	3.265942	1.000000	-0.000001	0.000130	-0.000180	0.454368	-9.054941	174.562229
04153	2.041091	0.097447	12.926110	0.017483	0.003747	3.273930	1.000000	-0.000009	0.000125	-0.000204	0.454061	-9.053244	174.559247
04154	2.049886	0.104297	12.929328	0.008386	-0.002214	3.278544	1.000000	0.000001	0.000125	-0.000186	0.454593	-9.051885	174.558523
04155	2.087798	0.080859	12.946181	-0.023431	0.024688	3.300965	1.000000	0.000001	0.000054	-0.000179	0.455309	-9.058506	174.557937
04156	2.106575	0.093901	12.930345	-0.044986	0.013545	3.288385	1.000000	0.000003	0.000123	-0.000173	0.455523	-9.057280	174.559587
04157	2.062803	0.095383	12.932107	-0.002458	0.007896	3.283250	1.000000	-0.000012	0.000147	-0.000190	0.454282	-9.053108	174.558926
04158	2.005824	0.133496	12.944399	0.051262	-0.035401	3.286730	1.000000	0.000010	0.000126	-0.000182	0.455536	-9.051448	174.558936
04159	2.020564	0.089277	12.933701	0.039175	0.010407	3.278135	1.000000	0.000007	0.000101	-0.000187	0.456852	-9.052472	174.557303
04160	2.095565	0.075950	12.936628	-0.032902	0.030903	3.292711	1.000000	0.000008	0.000128	-0.000195	0.457881	-9.050617	174.556382
04161	2.061852	0.105314	12.936871	-0.003003	-0.001065	3.287883	1.000000	0.000012	0.000136	-0.000198	0.459810	-9.047693	174.553853
04162	2.008948	0.113545	12.930981	0.047202	-0.013984	3.273817	1.000000	-0.000001	0.000100	-0.000192	0.459863	-9.049181	174.553433
04163	2.017498	0.122373	12.898956	0.033351	-0.021803	3.243604	1.000000	-0.000005	0.000093	-0.000189	0.459551	-9.051467	174.553049
04164	2.075260	0.096412	12.939617	-0.013831	0.008905	3.292633	1.000000	-0.000017	0.000070	-0.000180	0.457887	-9.056268	174.552969
04165	2.108067	0.094267	12.930759	-0.046721	0.014158	3.289030	1.000000	0.000007	0.000116	-0.000198	0.459506	-9.056041	174.551027
04166	2.105015	0.095129	12.931250	-0.043870	0.013118	3.289041	1.000000	-0.000002	0.000118	-0.000183	0.459275	-9.055263	174.551144
04167	2.057005	0.105286	12.933462	0.002435	-0.001358	3.283755	1.000000	0.000010	0.000126	-0.000182	0.460548	-9.053437	174.550791
04168	2.021052	0.145150	12.920676	0.031935	-0.044073	3.265792	1.000000	0.000013	0.000107	-0.000177	0.461788	-9.054013	174.552282
04169	2.048847	0.117598	12.921428	0.007646	-0.014163	3.270686	1.000000	-0.000018	0.000087	-0.000171	0.459575	-9.056693	174.553420
04170	2.089428	0.106528	12.933612	-0.028674	0.000101	3.289013	1.000000	-0.000023	0.000081	-0.000181	0.457469	-9.059922	174.551850
04171	2.115193	0.100199	12.930185	-0.053570	0.008639	3.289634	1.000000	0.000005	0.000106	-0.000181	0.458312	-9.060198	174.550550
04172	2.073655	0.080093	12.935990	-0.010472	0.024696	3.288671	1.000000	-0.000017	0.000157	-0.000178	0.456745	-9.054935	174.550050
04173	2.022876	0.087933	12.951755	0.040226	0.012055	3.296316	1.000000	0.000010	0.000141	-0.000192	0.458193	-9.051661	174.548900
04174	2.007281	0.105865	12.931836	0.050150	-0.006951	3.274336	1.000000	-0.000006	0.000124	-0.000190	0.457792	-9.049963	174.547338
04175	2.032783	0.099716	12.928465	0.025367	0.001497	3.274967	1.000000	0.000001	0.000085	-0.000168	0.457702	-9.053335	174.549853
04176	2.089403	0.099433	12.916469	-0.031562	0.006973	3.272022	1.000000	-0.000011	0.000090	-0.000180	0.456420	-9.055691	174.550111
04177	2.094106	0.091573	12.937972	-0.031975	0.015003	3.293934	1.000000	0.000002	0.000126	-0.000186	0.456877	-9.054078	174.549662
04178	2.052648	0.094864	12.925993	0.006233	0.007923	3.275611	1.000000	-0.000006	0.000124	-0.000190	0.456344	-9.052594	174.549006
04179	2.049407	0.095546	12.926502	0.009115	0.006903	3.275610	1.000000	-0.000007	0.000123	-0.000222	0.456307	-9.051261	174.544615
04180	2.046815	0.106999	12.935688	0.012020	-0.004766	3.284364	1.000000	-0.000000	0.000101	-0.000191	0.456570	-9.052495	174.543536
04181	2.060973	0.105533	12.938262	-0.000867	-0.001904	3.289120	1.000000	0.000010	0.000086	-0.000163	0.457496	-9.055448	174.545707
04182	2.084593	0.131683	12.939479	-0.026138	-0.025595	3.294244	1.000000	0.000004	0.000124	-0.000173	0.457914	-9.054146	174.547101
04183	2.067361	0.124143	12.950701	-0.006917	-0.019657	3.302556	1.000000	-0.000002	0.000118	-0.000183	0.458177	-9.053588	174.547000
04184	2.063767	0.114079	12.942490	-0.004128	-0.009967	3.293803	1.000000	-0.000010	0.000131	-0.000198	0.457449	-9.051115	174.544911
04185	2.034038	0.089128	12.942220	0.026913	0.011731	3.288666	1.000000	-0.000025	0.000127	-0.000194	0.454842	-9.049379	174.543881
04186	2.047720	0.087109	12.944891	0.014042	0.014569	3.293439	1.000000	-0.000015	0.000097	-0.000187	0.453393	-9.051161	174.543256
04187	2.075183	0.083405	12.928129	-0.015223	0.021249	3.281173	1.000000	0.000029	0.000125	-0.000178	0.457131	-9.049539	174.542840
04188	2.069404	0.094985	12.915717	-0.012841	0.009470	3.268098	1.000000	-0.000012	0.000122	-0.000182	0.455584	-9.048486	174.543792
04189	2.041224	0.112958	12.950277	0.018492	-0.011538	3.297940	1.000000	-0.000005	0.000111	-0.000180	0.454938	-9.048733	174.544641
04190	2.033368	0.111520	12.942579	0.025166	-0.010843	3.289092	1.000000	0.000003	0.000112	-0.000175	0.455145	-9.048800	174.546029
04191	2.049329	0.088657	12.949462	0.012684	0.013362	3.298218	1.000000	-0.000007	0.000112	-0.000193	0.454701	-9.048660	174.544793
04192	2.062912	0.076308	12.943402	-0.000271	0.026843	3.294271	1.000000	-0.000006	0.000098	-0.000183	0.454118	-9.050364	174.545009
04193	2.079495	0.098244	12.950019	-0.017311	0.006472	3.303585	1.000000	0.000007	0.000105	-0.000168	0.454688	-9.051215	174.547222
04194	2.061829	0.092772	12.926008	-0.003118	0.010644	3.277053	1.000000	0.000010	0.000115	-0.000184	0.455954	-9.050956	174.547300
04195	1.980015	0.147737	12.971747	0.079744	-0.051922	3.309791	1.000000	0.000003	0.000082	-0.000186	0.456519	-9.054506	174.547377
04196	2.026527	0.100738	12.908670	0.029859	-0.000645	3.254440	1.000000	-0.000011	0.000038	-0.000132	0.454305	-9.063062	174.553637
04197	2.183828	0.166222	12.901139	-0.130876	-0.051428	3.272280	1.000000	-0.000009	0.000088	-0.000198	0.453697	-9.065756	174.551621
04198	2.119480	0.062819	12.954139	-0.049868	0.044768	3.313675	1.000000	-0.000026	0.000159	-0.000195	0.451133	-9.060496	174.550283
04199	2.003878	0.104045	12.929443	0.054913	-0.007437	3.271416	1.000000	-0.000018	0.000145	-0.000213	0.449182	-9.056689	174.547680
04200	2.010013	0.087470	12.928805	0.050039	0.009473	3.271624	1.000000	0.000001	0.000102	-0.000159	0.448893	-9.057900	174.550822
04201	2.059721	0.083528	12.922455	0.001164	0.017945	3.273143	1.000000	-0.000005	0.000070	-0.000162	0.448067	-9.062547	174.552694
04202	2.121754	0.096572	12.927659	-0.059438	0.010424	3.288148	1.000000	-0.000008	0.000089	-0.000166	0.446845	-9.065012	174.554301
04203	2.111701	0.104002	12.942241	-0.048235	0.002211	3.301022	1.000000	0.000027	0.000160	-0.000161	0.449749	-9.059654	174.556982
04204	2.046144	0.070953	12.942148	0.018427	0.029255	3.290356	1.000000	-0.000018	0.000134	-0.000183	0.448274	-9.057229	174.556294
04205	1.981128	0.082357	12.941729	0.080681	0.011773	3.279805	1.000000	-0.000000	0.000130	-0.000212	0.449246	-9.055128	174.552569
04206	1.989895	0.079213	12.936291	0.071595	0.016329	3.275788	1.000000	0.000030	0.000096	-0.000189	0.453310	-9.057280	174.551351
04207	2.047409	0.112654	12.950835	0.015119	-0.010970	3.299458	1.000000	0.000035	0.000061	-0.000161	0.456774	-9.062999	174.553958
04208	2.101924	0.124217	12.926255	-0.042345	-0.016889	3.283858	1.000000	0.000004	0.000084	-0.000154	0.456729	-9.066258	174.557633
04209	2.075848	0.122927	12.929669	-0.015520	-0.018038	3.283114	1.000000	0.000001	0.000102	-0.000191	0.457255	-9.067513	174.556519
04210	2.072880	0.123565	12.930139	-0.012642	-0.019102	3.283116	1.000000	-0.000013	0.000124	-0.000195	0.455832	-9.066048	174.555424
04211	2.057599	0.107076	12.919062	0.001845	-0.004156	3.269641	1.000000	-0.000002	0.000121	-0.000196	0.455818	-9.064826	174.553693
04212	2.057632	0.107850	12.941152	0.005411	-0.005185	3.291466	1.000000	-0.000007	0.000086	-0.000185	0.455063	-9.067689	174.553465
04213	2.081125	0.122915	12.933773	-0.019781	-0.018532	3.287997	1.000000	-0.000031	0.000099	-0.000145	0.450878	-9.069303	174.558501
04214	2.068796	0.118771	12.917832	-0.009402	-0.016005	3.270281	1.000000	-0.000004	0.000097	-0.000169	0.450325	-9.071306	174.560748
04215	2.089920	0.097876	12.932977	-0.025780	0.006347	3.288402	1.000000	-0.000026	0.000118	-0.000177	0.447741	-9.070397	174.560352
04216	2.044109	0.074553	12.930179	0.020724	0.024698	3.278242	1.000000	-0.000019	0.000121	-0.000186	0.445466	-9.069262	174.560192
04217	2.022421	0.074874	12.941802	0.043783	0.021949	3.286306	1.000000	-0.000016	0.000102	-0.000181	0.444202	-9.070208	174.559449
04218	2.017843	0.083939	12.964416	0.051345	0.012000	3.307984	1.000000	-0.000001	0.000093	-0.000143	0.443418	-9.072397	174.564332
04219	2.046084	0.080344	12.947757	0.021952	0.018322	3.295955	1.000000	0.000005	0.000081	-0.000173	0.444220	-9.075959	174.565220
04220	2.062615	0.115173	12.927960	0.000177	-0.014685	3.279278	1.000000	0.000002	0.000073	-0.000170	0.444225	-9.080156	174.566334
04221	2.077131	0.113762	12.930623	-0.012800	-0.012089	3.284187	1.000000	-0.000007	0.000086	-0.000185	0.443524	-9.082685	174.565448
04222	2.084444	0.118791	12.947372	-0.017281	-0.016675	3.301918	1.000000	-0.000004	0.000096	-0.000201	0.443402	-9.084520	174.563464
04223	2.084068	0.110672	12.925543	-0.019109	-0.008718	3.280242	1.000000	-0.000016	0.000088	-0.000171	0.441573	-9.087211	174.564462
04224	2.076686	0.098235	12.909014	-0.012849	0.002823	3.262661	1.000000	-0.000004	0.000097	-0.000169	0.441240	-9.088754	174.565432
04225	2.065104	0.103098	12.936923	0.002861	-0.003556	3.288428	1.000000	-0.000010	0.000094	-0.000160	0.439854	-9.090664	174.567679
04226	2.069707	0.118708	12.940752	-0.002125	-0.018793	3.293055	1.000000	0.000005	0.000096	-0.000183	0.440690	-9.092337	174.567289
04227	2.078982	0.115274	12.935308	-0.011358	-0.014444	3.289119	1.000000	-0.000003	0.000094	-0.000188	0.440539	-9.094233	174.566548
04228	2.076056	0.105164	12.927029	-0.008743	-0.004651	3.280405	1.000000	-0.000011	0.000123	-0.000181	0.439791	-9.093064	174.566312
04229	2.068495	0.090584	12.945764	0.002738	0.008639	3.297598	1.000000	-0.000026	0.000119	-0.000177	0.437129	-9.092266	174.566613
04230	2.070345	0.082478	12.945688	0.001608	0.016646	3.297754	1.000000	0.000000	0.000105	-0.000172	0.437485	-9.092883	174.566997
04231	2.074507	0.065979	12.923369	-0.004309	0.033596	3.276249	1.000000	-0.000008	0.000104	-0.000176	0.436999	-9.093630	174.566863
04232	2.059946	0.092374	12.947114	0.011251	0.005820	3.297595	1.000000	0.000011	0.000116	-0.000183	0.438290	-9.092782	174.566352
04233	2.066251	0.099758	12.928802	0.001397	-0.000486	3.280565	1.000000	0.000009	0.000104	-0.000186	0.439631	-9.093040	174.565322
04234	2.061018	0.122090	12.925008	0.004170	-0.022890	3.276162	1.000000	0.000012	0.000099	-0.000192	0.441258	-9.094584	174.564311
04235	2.067940	0.116813	12.933091	-0.000680	-0.016760	3.285197	1.000000	0.000008	0.000107	-0.000167	0.442158	-9.094839	174.565410
04236	2.067460	0.130263	12.928769	-0.001897	-0.030264	3.280956	1.000000	-0.000013	0.000098	-0.000187	0.440770	-9.096456	174.565356
04237	2.055435	0.113739	12.939236	0.013218	-0.015182	3.289265	1.000000	-0.000007	0.000116	-0.000206	0.440609	-9.095922	174.562636
04238	2.059397	0.097297	12.916967	0.007217	0.001691	3.267777	1.000000	-0.000005	0.000114	-0.000192	0.440388	-9.095483	174.561292
04239	2.071116	0.094016	12.933266	-0.001255	0.005988	3.285698	1.000000	0.000007	0.000094	-0.000170	0.441205	-9.097319	174.562538
04240	2.068519	0.094729	12.933676	0.001561	0.004976	3.285698	1.000000	-0.000008	0.000104	-0.000176	0.440275	-9.097914	174.563169
04241	2.056209	0.101664	12.926427	0.012145	-0.002980	3.276647	1.000000	0.000003	0.000101	-0.000177	0.441236	-9.099306	174.563065
04242	2.067779	0.087615	12.934025	0.003378	0.012047	3.285871	1.000000	-0.000008	0.000119	-0.000187	0.440779	-9.098662	174.562229
04243	2.050361	0.103095	12.927344	0.017933	-0.004830	3.276640	1.000000	0.000007	0.000109	-0.000180	0.442074	-9.098928	174.561816
04244	0.892044	-0.195513	13.152231	1.222201	0.184005	3.313147	1.000000	0.000132	-0.000033	-0.000321	0.459967	-9.115369	174.545414
04245	0.668154	0.471314	12.850205	1.343647	-0.506802	2.983173	0.999999	-0.000615	-0.000676	0.001170	0.365082	-9.206717	174.700222
04246	3.249817	-0.329866	12.799267	-1.107235	0.516783	3.340194	1.000000	0.000032	-0.000778	-0.000141	0.368323	-9.308586	174.704302
04247	3.600747	0.497877	12.966257	-1.489507	-0.275703	3.567986	1.000000	0.000074	0.000143	-0.000430	0.381628	-9.304664	174.675192
04248	2.640056	-0.190386	13.075882	-0.471144	0.325122	3.516121	1.000000	0.000102	0.000597	-0.000451	0.398516	-9.248873	174.644326
04249	2.148541	-0.060135	12.894108	-0.042595	0.158257	3.258310	1.000000	0.000208	0.000678	-0.000513	0.428608	-9.183685	174.606319
04250	1.565973	0.362164	12.755244	0.457298	-0.309159	3.031571	1.000000	0.000109	0.000449	-0.000353	0.444363	-9.144914	174.586815
04251	1.794932	0.179178	12.808255	0.254701	-0.104983	3.119033	1.000000	-0.000054	0.000016	-0.000026	0.435478	-9.155973	174.604799
04252	2.222163	-0.048512	12.934560	-0.119840	0.157958	3.309961	1.000000	-0.000064	-0.000124	0.000001	0.424975	-9.183119	174.625881
04253	2.675797	0.035482	13.007196	-0.557614	0.113536	3.454734	1.000000	-0.000043	0.000007	-0.000142	0.419478	-9.195103	174.630383
04254	2.771316	0.043617	12.912640	-0.669719	0.115144	3.376572	1.000000	0.000031	0.000397	-0.000239	0.424172	-9.162338	174.624048
04255	2.387433	0.017412	12.906813	-0.302502	0.110315	3.309137	1.000000	0.000185	0.000738	-0.000408	0.449630	-9.090420	174.598384
04256	1.753882	0.232239	12.954125	0.291341	-0.156039	3.257512	1.000000	0.000160	0.000784	-0.000338	0.470900	-9.013357	174.580959
04257	1.325760	0.358999	12.963276	0.688594	-0.318671	3.201048	1.000000	0.000002	0.000479	-0.000165	0.470869	-8.971300	174.583329
04258	1.200898	0.379662	12.968612	0.807064	-0.352049	3.187155	1.000000	-0.000107	-0.000016	-0.000137	0.458026	-8.986008	174.588469
04259	1.661187	0.166330	12.948037	0.378474	-0.100693	3.236661	1.000000	-0.000147	-0.000350	-0.000102	0.439950	-9.038939	174.597371
04260	2.326205	-0.070533	12.991160	-0.234244	0.192564	3.381799	1.000000	-0.000082	-0.000389	-0.000181	0.430849	-9.096308	174.597050
04261	2.735779	-0.013303	12.903135	-0.647161	0.172632	3.360275	1.000000	-0.000013	-0.000076	-0.000280	0.431361	-9.117651	174.585458
04262	2.562228	0.061909	12.865990	-0.490381	0.082507	3.296671	1.000000	0.000019	0.000374	-0.000262	0.435172	-9.087551	174.576438
04263	2.023161	0.129252	12.911031	0.030936	-0.033541	3.256456	1.000000	0.000028	0.000578	-0.000184	0.438490	-9.034083	174.576642
04264	1.565163	0.115881	12.999103	0.485814	-0.062881	3.271649	1.000000	-0.000031	0.000450	-0.000079	0.433181	-8.995385	174.588891
04265	1.464480	0.036581	13.028713	0.592169	0.005332	3.284744	1.000000	-0.000066	0.000122	-0.000066	0.423643	-8.994349	174.602372
04266	1.685907	-0.022728	12.929249	0.367685	0.083896	3.220580	1.000000	-0.000036	-0.000161	-0.000149	0.419130	-9.025628	174.605957
04267	2.060185	-0.000500	12.930324	0.005805	0.095745	3.280381	1.000000	0.000023	-0.000234	-0.000231	0.422937	-9.065111	174.599972
04268	2.419075	0.027487	12.915323	-0.344812	0.102204	3.322339	1.000000	0.000063	-0.000084	-0.000267	0.431857	-9.087425	174.589982
04269	2.414692	0.084228	12.937488	-0.340239	0.047527	3.344000	1.000000	0.000102	0.000167	-0.000266	0.445198	-9.080968	174.580330
04270	2.117472	0.190186	12.926984	-0.062602	-0.083093	3.287539	1.000000	0.000048	0.000300	-0.000234	0.451740	-9.059283	174.574504
04271	1.854255	0.179932	12.904459	0.189073	-0.096170	3.223826	1.000000	0.000004	0.000274	-0.000147	0.451753	-9.040649	174.578687
04272	1.787798	0.153526	12.947477	0.260954	-0.076567	3.255709	1.000000	-0.000026	0.000153	-0.000115	0.447748	-9.035939	174.586548
04273	1.903273	0.096515	12.965724	0.156640	-0.009743	3.291401	1.000000	0.000005	-0.000012	-0.000107	0.447163	-9.050132	174.595085
04274	2.128971	0.104280	12.962200	-0.062766	0.003476	3.323449	1.000000	0.000028	-0.000051	-0.000140	0.449835	-9.068793	174.599832
04275	2.230003	0.156592	12.902047	-0.172951	-0.038388	3.280397	1.000000	0.000033	0.000013	-0.000171	0.453553	-9.080128	174.601017
04276	2.204799	0.176407	12.922376	-0.145008	-0.060495	3.296674	1.000000	-0.000014	0.000074	-0.000192	0.452309	-9.084386	174.599831
04277	2.153087	0.158531	12.932858	-0.090349	-0.048179	3.298729	1.000000	-0.000033	0.000106	-0.000184	0.448719	-9.085004	174.599584
04278	2.156871	0.083524	12.915574	-0.089560	0.025753	3.281679	1.000000	-0.000067	0.000089	-0.000205	0.441711	-9.087620	174.596871
04279	2.176371	0.030019	12.883198	-0.109008	0.079778	3.252382	1.000000	-0.000043	0.000137	-0.000190	0.437109	-9.084749	174.595913
04280	2.156753	-0.013151	12.881551	-0.087199	0.120142	3.247331	1.000000	-0.000032	0.000175	-0.000177	0.433580	-9.077440	174.596491
04281	2.160459	0.022102	12.960260	-0.084015	0.084832	3.325888	1.000000	0.000019	0.000223	-0.000155	0.435380	-9.064753	174.599743
04282	2.070461	0.064219	12.974644	-0.000378	0.035396	3.326227	1.000000	0.000037	0.000249	-0.000172	0.439588	-9.048979	174.601023
04283	1.969017	0.101721	12.950673	0.089314	-0.010080	3.286901	1.000000	0.000027	0.000193	-0.000193	0.443071	-9.039605	174.599767
04284	1.885691	0.126683	12.920280	0.162609	-0.041518	3.244010	1.000000	0.000025	0.000153	-0.000221	0.446827	-9.034819	174.595316
04285	1.878388	0.112785	12.938872	0.174016	-0.028100	3.261118	1.000000	-0.000012	0.000071	-0.000243	0.446703	-9.039423	174.588241
04286	1.967423	0.120202	12.955443	0.090505	-0.027369	3.291502	1.000000	0.000003	-0.000010	-0.000230	0.448050	-9.053332	174.582600
04287	2.135474	0.129891	12.950119	-0.073403	-0.021170	3.312741	1.000000	0.000013	0.000002	-0.000209	0.450236	-9.065889	174.579356
04288	2.202780	0.139041	12.920766	-0.143237	-0.023592	3.294437	1.000000	0.000006	0.000085	-0.000185	0.451208	-9.068926	174.578924
04289	2.168708	0.132867	12.929143	-0.108360	-0.020398	3.297291	1.000000	0.000010	0.000179	-0.000173	0.452378	-9.061162	174.579996
04290	2.056566	0.137254	12.954809	0.003010	-0.035174	3.305015	1.000000	-0.000007	0.000236	-0.000160	0.451346	-9.046889	174.582674
04291	1.935424	0.125910	12.955126	0.120748	-0.035301	3.286213	1.000000	-0.000012	0.000174	-0.000142	0.449357	-9.039723	174.587383
04292	1.905717	0.110267	12.963027	0.151446	-0.023154	3.289240	1.000000	-0.000033	0.000137	-0.000141	0.444972	-9.036845	174.592194
04293	1.953420	0.094513	12.962499	0.106296	-0.003810	3.296082	1.000000	-0.000017	0.000053	-0.000146	0.442578	-9.043569	174.596249
04294	2.031871	0.062781	12.949934	0.032381	0.034501	3.295745	1.000000	-0.000017	-0.000004	-0.000182	0.440804	-9.056852	174.596102
04295	2.116446	0.069600	12.923217	-0.053290	0.035112	3.282718	1.000000	-0.000022	0.000046	-0.000189	0.438579	-9.064295	174.595256
04296	2.124651	0.053348	12.922568	-0.058812	0.051745	3.283251	1.000000	-0.000004	0.000088	-0.000216	0.438925	-9.066968	174.591259
04297	2.096294	0.038615	12.930290	-0.028169	0.063876	3.286299	1.000000	0.000010	0.000123	-0.000177	0.440155	-9.065667	174.591849
04298	2.086256	0.035433	12.935959	-0.017219	0.066620	3.290290	1.000000	0.000034	0.000112	-0.000153	0.443723	-9.065600	174.595251
04299	2.091272	0.099041	12.926248	-0.029227	0.004677	3.281977	1.000000	0.000040	0.000088	-0.000154	0.447981	-9.068268	174.598481
04300	2.123108	0.144408	12.918198	-0.065391	-0.036520	3.279397	1.000000	0.000045	0.000094	-0.000144	0.452656	-9.070258	174.602920
04301	2.153170	0.153361	12.932645	-0.093344	-0.042016	3.298471	1.000000	0.000010	0.000122	-0.000209	0.454483	-9.069023	174.599776
04302	2.161507	0.150254	12.927610	-0.102751	-0.037976	3.294783	1.000000	-0.000018	0.000155	-0.000219	0.453202	-9.064038	174.595551
04303	2.082305	0.129194	12.918869	-0.025473	-0.024409	3.273512	1.000000	-0.000010	0.000156	-0.000214	0.452757	-9.058903	174.591887
04304	2.012235	0.112908	12.926650	0.044834	-0.014661	3.270046	1.000000	0.000000	0.000168	-0.000194	0.453154	-9.052416	174.590608
04305	1.993811	0.115290	12.946342	0.064650	-0.018854	3.286618	1.000000	-0.000012	0.000144	-0.000185	0.452075	-9.048654	174.590282
04306	2.006800	0.124658	12.958228	0.052505	-0.027458	3.300472	1.000000	-0.000022	0.000104	-0.000153	0.449261	-9.049525	174.593638
04307	2.033616	0.098190	12.938211	0.025777	0.001199	3.284713	1.000000	0.000003	0.000093	-0.000161	0.449381	-9.051684	174.596083
04308	2.054576	0.101608	12.936126	0.004781	-0.000452	3.285975	1.000000	-0.000016	0.000109	-0.000175	0.447568	-9.051936	174.596922
04309	2.026427	0.075186	12.935070	0.034627	0.022567	3.280303	1.000000	-0.000039	0.000118	-0.000186	0.443347	-9.051174	174.596498
04310	2.026509	0.064731	12.948463	0.037894	0.032212	3.293462	1.000000	-0.000015	0.000080	-0.000186	0.441829	-9.054814	174.595998
04311	2.043100	0.066097	12.938071	0.020342	0.032496	3.285818	1.000000	0.000014	0.000103	-0.000204	0.443986	-9.055705	174.593443
04312	2.059516	0.067825	12.927712	0.002790	0.032764	3.278182	1.000000	0.000011	0.000094	-0.000188	0.445554	-9.057759	174.592689
04313	2.073071	0.078163	12.939538	-0.009334	0.024089	3.292072	1.000000	0.000019	0.000109	-0.000194	0.448103	-9.057995	174.591287
04314	2.053602	0.080723	12.937302	0.009329	0.020053	3.286820	1.000000	0.000003	0.000108	-0.000171	0.448394	-9.058481	174.592474
04315	2.033470	0.094102	12.943821	0.028792	0.005281	3.290194	1.000000	0.000035	0.000127	-0.000163	0.452171	-9.056683	174.594694
04316	2.034661	0.121143	12.934815	0.024003	-0.020837	3.281699	1.000000	0.000022	0.000077	-0.000147	0.454220	-9.060725	174.598751
04317	2.037217	0.137122	12.916937	0.018414	-0.036205	3.264570	1.000000	0.000000	0.000055	-0.000201	0.454758	-9.067215	174.596465
04318	2.113029	0.149600	12.939868	-0.052544	-0.041590	3.299252	1.000000	0.000009	0.000083	-0.000204	0.456346	-9.070433	174.593912
04319	2.147671	0.115581	12.941157	-0.082489	-0.004452	3.305719	1.000000	-0.000009	0.000083	-0.000194	0.455769	-9.073636	174.592511
04320	2.128739	0.106811	12.930181	-0.064651	0.002270	3.291829	1.000000	-0.000018	0.000127	-0.000166	0.453629	-9.071882	174.594381
04321	2.089427	0.108150	12.938799	-0.025543	-0.002928	3.294153	1.000000	0.000001	0.000154	-0.000183	0.453893	-9.067017	174.594280
04322	2.057798	0.092705	12.924835	0.003792	0.009608	3.275261	1.000000	-0.000011	0.000145	-0.000185	0.452862	-9.063189	174.593980
04323	2.051752	0.091124	12.938846	0.011333	0.010457	3.288132	1.000000	-0.000005	0.000136	-0.000196	0.452691	-9.060441	174.592275
04324	2.046580	0.078963	12.944063	0.018012	0.022054	3.292376	1.000000	-0.000001	0.000115	-0.000178	0.452665	-9.060088	174.592760
04325	2.062520	0.080079	12.933841	0.000437	0.022234	3.284799	1.000000	-0.000023	0.000121	-0.000176	0.450160	-9.058986	174.593430
04326	2.017463	0.066131	12.938685	0.046759	0.031692	3.282384	1.000000	0.000006	0.000103	-0.000177	0.450923	-9.059929	174.594060
04327	2.031401	0.065619	12.941831	0.033845	0.033695	3.287680	1.000000	0.000006	0.000103	-0.000208	0.452292	-9.060928	174.590952
04328	2.042229	0.086402	12.940698	0.021431	0.014341	3.288426	1.000000	0.000010	0.000096	-0.000201	0.454019	-9.062683	174.588696
04329	2.058613	0.088367	12.930416	0.003849	0.014498	3.280866	1.000000	0.000022	0.000105	-0.000199	0.457084	-9.063359	174.586682
04330	2.057385	0.102721	12.926198	0.002942	0.000930	3.276620	1.000000	0.000032	0.000132	-0.000189	0.461090	-9.061031	174.585845
04331	2.069687	0.123706	12.946909	-0.008170	-0.018614	3.299175	1.000000	-0.000012	0.000118	-0.000177	0.459842	-9.060291	174.586392
04332	2.045521	0.123605	12.936323	0.013897	-0.020551	3.284918	1.000000	0.000021	0.000108	-0.000180	0.462355	-9.060646	174.586677
04333	2.037725	0.132791	12.937164	0.021086	-0.030291	3.284595	1.000000	-0.000007	0.000097	-0.000159	0.461272	-9.062327	174.589335
04334	2.051819	0.132004	12.940314	0.008196	-0.028335	3.289917	1.000000	0.000002	0.000096	-0.000174	0.461577	-9.064164	174.590249
04335	2.062117	0.118117	12.926408	-0.002221	-0.013639	3.277695	1.000000	-0.000015	0.000080	-0.000186	0.460151	-9.067732	174.589767
04336	2.097644	0.118112	12.940600	-0.034295	-0.010788	3.297305	1.000000	-0.000014	0.000093	-0.000183	0.458807	-9.069847	174.589639
04337	2.103222	0.101644	12.918433	-0.041352	0.005888	3.276164	1.000000	-0.000016	0.000098	-0.000177	0.457023	-9.071423	174.590221
04338	2.101801	0.067859	12.927870	-0.035290	0.038833	3.284993	1.000000	-0.000021	0.000120	-0.000163	0.454462	-9.070509	174.592452
04339	2.074931	0.065078	12.930742	-0.008570	0.038781	3.283575	1.000000	-0.000002	0.000132	-0.000170	0.454116	-9.068132	174.593977
04340	2.063861	0.084547	12.918670	-0.001753	0.018460	3.270063	1.000000	-0.000002	0.000117	-0.000191	0.454253	-9.067460	174.592982
04341	2.050826	0.089432	12.946413	0.014847	0.012406	3.295445	1.000000	0.000015	0.000118	-0.000169	0.455936	-9.066774	174.594500
04342	2.050418	0.081852	12.924802	0.012059	0.020337	3.273979	1.000000	-0.000001	0.000144	-0.000199	0.456271	-9.062986	174.592681
04343	2.056715	0.076852	12.933229	0.007225	0.026079	3.283254	1.000000	0.000009	0.000114	-0.000192	0.457645	-9.062732	174.591481
04344	2.031313	0.098157	12.940048	0.031195	0.002727	3.286157	1.000000	0.000006	0.000119	-0.000187	0.458608	-9.061955	174.590911
04345	2.059128	0.106753	12.933057	0.002143	-0.003100	3.283700	1.000000	-0.000002	0.000090	-0.000184	0.458557	-9.064405	174.590689
04346	2.047080	0.101111	12.951994	0.017799	0.001615	3.300459	1.000000	0.000028	0.000112	-0.000189	0.462019	-9.064318	174.590013
04347	2.064698	0.126756	12.945816	-0.002537	-0.021728	3.297336	1.000000	0.000007	0.000089	-0.000198	0.463278	-9.066949	174.588096
04348	2.062315	0.116772	12.937565	-0.000657	-0.011958	3.288733	1.000000	-0.000015	0.000140	-0.000195	0.461895	-9.063626	174.586799
04349	2.063690	0.119802	12.946378	-0.001114	-0.014973	3.297677	1.000000	0.000009	0.000100	-0.000150	0.462510	-9.065034	174.590412
04350	2.061179	0.109673	12.938151	0.000765	-0.005207	3.289076	1.000000	-0.000016	0.000140	-0.000163	0.460480	-9.061732	174.592726
04351	2.051577	0.094950	12.935042	0.010706	0.008442	3.284378	1.000000	0.000003	0.000111	-0.000184	0.460976	-9.061820	174.592527
04352	2.060145	0.102513	12.938724	0.002175	0.001549	3.289422	1.000000	-0.000015	0.000111	-0.000174	0.459290	-9.061959	174.593371
04353	2.075812	0.114509	12.937295	-0.014432	-0.009222	3.290572	1.000000	-0.000008	0.000099	-0.000172	0.458413	-9.063326	174.594492
04354	2.077012	0.083148	12.933313	-0.013247	0.021888	3.286580	1.000000	-0.000010	0.000117	-0.000164	0.457148	-9.062758	174.596558
04355	2.074785	0.072803	12.925051	-0.011411	0.031657	3.277990	1.000000	-0.000020	0.000105	-0.000184	0.455077	-9.063517	174.596294
04356	2.071585	0.073311	12.925561	-0.008533	0.030660	3.277995	1.000000	0.000002	0.000141	-0.000172	0.455251	-9.060232	174.597400
04357	2.037060	0.077128	12.942139	0.027291	0.023903	3.288961	1.000000	0.000019	0.000113	-0.000206	0.458051	-9.060017	174.594634
04358	2.034569	0.125069	12.928874	0.023499	-0.023614	3.275849	1.000000	-0.000009	0.000088	-0.000252	0.458568	-9.062649	174.586401
04359	2.039687	0.175498	12.945502	0.017826	-0.073387	3.293473	1.000000	-0.000013	0.000024	-0.000330	0.460009	-9.072586	174.569037
04360	2.148137	0.153841	12.904915	-0.090277	-0.041776	3.270321	1.000000	-0.000060	-0.000027	-0.000404	0.457424	-9.088277	174.543070
04361	2.267287	0.047173	12.837840	-0.204142	0.075473	3.222097	1.000000	-0.000045	-0.000050	-0.000432	0.457036	-9.106498	174.513958
04362	2.292680	0.107544	12.887394	-0.223080	0.017403	3.275582	1.000000	-0.000032	-0.000026	-0.000504	0.459447	-9.122060	174.476368
04363	2.312542	0.097277	12.903157	-0.235628	0.029643	3.294272	1.000000	-0.000045	-0.000019	-0.000529	0.460811	-9.136735	174.435902
04364	2.314766	0.111528	12.898370	-0.236428	0.015946	3.290075	1.000000	-0.000047	-0.000030	-0.000577	0.462963	-9.152509	174.390053
04365	2.397022	0.143111	12.868363	-0.321526	-0.007049	3.273853	1.000000	-0.000068	-0.000022	-0.000652	0.464027	-9.167439	174.335288
04366	2.480072	0.104150	12.869782	-0.396087	0.039656	3.288245	1.000000	-0.000111	0.000006	-0.000690	0.460937	-9.179061	174.276436
04367	2.499422	0.084720	12.841990	-0.415959	0.060893	3.263790	1.000000	-0.000105	0.000083	-0.000749	0.459573	-9.181843	174.210676
04368	2.333034	0.084332	12.862144	-0.248758	0.044711	3.257164	1.000000	-0.000102	0.000095	-0.000810	0.459600	-9.183235	174.137771
04369	2.295097	0.061832	12.866041	-0.207047	0.063424	3.254807	1.000000	-0.000098	0.000005	-0.000799	0.460016	-9.194975	174.066103
04370	2.400596	0.095828	12.868951	-0.309758	0.040696	3.274877	1.000000	-0.000071	-0.000079	-0.000787	0.463261	-9.216460	173.995635
04371	2.441466	0.170858	12.837797	-0.356963	-0.028753	3.251413	1.000000	-0.000086	-0.000135	-0.000922	0.467293	-9.244174	173.909634
04372	2.551186	0.182694	12.857724	-0.455649	-0.028412	3.289013	1.000000	-0.000095	-0.000189	-0.000956	0.471162	-9.278000	173.819473
04373	2.730648	0.126640	12.814723	-0.625748	0.047404	3.275315	0.999999	-0.000131	-0.000128	-0.000991	0.471465	-9.304739	173.725461
04374	2.609640	0.035896	12.804798	-0.492979	0.124631	3.245483	1.000000	-0.000139	-0.000103	-0.000894	0.469052	-9.328719	173.642703
04375	2.747781	0.079391	12.799711	-0.627573	0.096368	3.263477	1.000000	-0.000080	-0.000172	-0.000708	0.469875	-9.360806	173.581619
04376	2.825613	0.131879	12.778291	-0.707093	0.053361	3.255724	1.000000	-0.000073	-0.000072	-0.000717	0.471741	-9.381341	173.519621
04377	2.838725	0.188548	12.789521	-0.720480	-0.000811	3.269616	1.000000	-0.000090	-0.000013	-0.000812	0.473445	-9.395122	173.446531
04378	2.901933	0.221210	12.792078	-0.783473	-0.025482	3.282844	1.000000	-0.000131	0.000054	-0.000854	0.471233	-9.401186	173.368511
04379	2.768349	0.194841	12.779019	-0.651595	-0.014165	3.247951	1.000000	-0.000168	0.000145	-0.000941	0.466400	-9.396883	173.280471
04380	2.659719	0.193000	12.824802	-0.538206	-0.026014	3.275344	0.999999	-0.000236	0.000105	-0.001070	0.456277	-9.396920	173.177430
04381	2.581722	0.059501	12.802896	-0.448465	0.095733	3.240001	0.999999	-0.000270	-0.000004	-0.001085	0.442581	-9.409605	173.072518
04382	2.629320	0.079709	12.771746	-0.498371	0.079418	3.217374	0.999999	-0.000247	-0.000119	-0.001121	0.432276	-9.435483	172.963310
04383	2.687914	0.103424	12.791875	-0.548489	0.060528	3.247295	0.999999	-0.000274	-0.000208	-0.001231	0.421062	-9.471470	172.841230
04384	2.710693	0.013037	12.706427	-0.564467	0.152177	3.166509	0.999999	-0.000252	-0.000290	-0.001300	0.413743	-9.516915	172.710930
04385	2.845270	0.090205	12.683166	-0.698343	0.091481	3.166925	0.999999	-0.000243	-0.000367	-0.001350	0.408596	-9.571211	172.574845
04386	2.973173	0.090544	12.687259	-0.810679	0.106521	3.192925	0.999999	-0.000258	-0.000351	-0.001413	0.403117	-9.623665	172.431347
04387	3.002071	0.081506	12.700849	-0.823246	0.118246	3.211863	0.999999	-0.000267	-0.000374	-0.001436	0.397249	-9.678749	172.285159
04388	3.121391	0.086230	12.753829	-0.919944	0.127976	3.284946	0.999999	-0.000268	-0.000298	-0.001455	0.391691	-9.725214	172.136846
04389	3.219992	0.057336	12.747701	-1.002841	0.169660	3.296127	0.999999	-0.000279	-0.000279	-0.001432	0.384550	-9.769552	171.991212
04390	3.298900	0.039866	12.748011	-1.068751	0.197911	3.310373	0.999999	-0.000242	-0.000147	-0.001353	0.380181	-9.798868	171.854845
04391	3.291836	0.000946	12.731051	-1.053490	0.236610	3.292656	0.999999	-0.000196	-0.000049	-0.001191	0.377971	-9.817072	171.737330
04392	3.239138	-0.032313	12.701374	-0.998993	0.263605	3.254466	1.000000	-0.000147	0.000040	-0.000946	0.376505	-9.825399	171.648383
04393	3.207045	-0.101893	12.740446	-0.949708	0.328568	3.287106	1.000000	-0.000048	0.000117	-0.000669	0.380823	-9.825142	171.591703
04394	3.124354	-0.191338	12.732160	-0.857236	0.407645	3.264203	1.000000	0.000071	0.000130	-0.000335	0.392225	-9.823646	171.573876
04395	3.107319	-0.171112	12.712359	-0.847003	0.389039	3.241814	1.000000	0.000212	0.000149	0.000031	0.412465	-9.820242	171.598668
04396	3.090095	-0.115414	12.727499	-0.836174	0.336005	3.254032	1.000000	0.000338	0.000166	0.000357	0.440708	-9.815197	171.661335
04397	3.028281	-0.065816	12.733859	-0.782484	0.283998	3.249971	1.000000	0.000451	0.000167	0.000652	0.476006	-9.810473	171.758311
04398	2.936488	0.105140	12.763765	-0.711722	0.107709	3.265139	0.999999	0.000497	0.000110	0.000904	0.511520	-9.812578	171.884623
04399	3.023862	0.246517	12.789270	-0.810412	-0.014884	3.306495	0.999999	0.000514	0.000073	0.001113	0.544838	-9.819186	172.035152
04400	3.103633	0.325304	12.723751	-0.907421	-0.077062	3.256469	0.999999	0.000498	0.000061	0.001315	0.572327	-9.827535	172.209122
04401	3.105910	0.325281	12.631563	-0.923380	-0.072954	3.166176	0.999999	0.000475	0.000135	0.001400	0.595479	-9.827612	172.393142
04402	3.114494	0.370478	12.670119	-0.930871	-0.115053	3.206125	0.999999	0.000479	0.000197	0.001460	0.617967	-9.820773	172.584136
04403	3.057173	0.490189	12.696685	-0.886700	-0.239358	3.223756	0.999999	0.000453	0.000258	0.001411	0.638388	-9.806984	172.769558
04404	2.949104	0.606812	12.785132	-0.782183	-0.367868	3.293719	0.999999	0.000363	0.000257	0.001251	0.651723	-9.793164	172.936354
04405	2.939014	0.567879	12.778445	-0.770050	-0.331079	3.284883	0.999999	0.000206	0.000204	0.001154	0.649066	-9.785304	173.091758
04406	2.864370	0.411618	12.761923	-0.682319	-0.187306	3.254067	1.000000	0.000137	0.000184	0.000957	0.642470	-9.779509	173.224219
04407	2.936254	0.258136	12.792862	-0.730409	-0.030002	3.294988	1.000000	0.000100	0.000150	0.000878	0.633213	-9.777502	173.347458
04408	2.921681	0.120598	12.761556	-0.706572	0.102732	3.260120	1.000000	0.000135	0.000160	0.000680	0.631914	-9.774069	173.447682
04409	2.975945	0.200469	12.672535	-0.784812	0.029554	3.182418	1.000000	0.000152	0.000172	0.000478	0.636468	-9.769071	173.524467
04410	2.986722	0.177733	12.672653	-0.795340	0.054069	3.183956	1.000000	0.000130	0.000286	0.000223	0.643558	-9.750763	173.571798
04411	2.993484	0.221483	12.733886	-0.800910	0.011769	3.245653	1.000000	0.000021	0.000316	-0.000070	0.643888	-9.728610	173.585066
04412	3.022684	0.261483	12.955594	-0.802418	-0.025885	3.469175	1.000000	-0.000041	0.000383	-0.000343	0.642490	-9.698513	173.566675
04413	3.007690	0.301525	12.822026	-0.822940	-0.065865	3.334932	1.000000	-0.000144	0.000474	-0.000641	0.635048	-9.657585	173.513771
04414	2.831457	0.267413	12.669270	-0.682415	-0.051543	3.153834	0.999999	-0.000334	0.000512	-0.001030	0.613347	-9.611809	173.415722
04415	2.783550	0.160825	12.619809	-0.642431	0.047072	3.095397	0.999999	-0.000396	0.000503	-0.001370	0.591159	-9.566780	173.278148
04416	2.785195	0.017955	12.807417	-0.606678	0.185922	3.278719	0.999998	-0.000414	0.000499	-0.001705	0.573176	-9.521831	173.101619
04417	2.500342	0.073817	12.898942	-0.329615	0.094919	3.322083	0.999998	-0.000425	0.000509	-0.001956	0.558679	-9.475596	172.895956
04418	2.186249	0.073145	12.931544	-0.024786	0.055321	3.302425	0.999998	-0.000451	0.000309	-0.002154	0.544813	-9.452071	172.667055
04419	2.215251	-0.062976	12.957245	-0.032824	0.190538	3.331289	0.999997	-0.000490	-0.000014	-0.002235	0.528087	-9.465579	172.428373
04420	2.462866	-0.061657	12.773440	-0.299371	0.220041	3.190859	0.999997	-0.000477	-0.000206	-0.002184	0.511977	-9.501166	172.195447
04421	2.520262	-0.168450	12.733865	-0.338591	0.330837	3.160644	0.999998	-0.000456	-0.000234	-0.002127	0.497384	-9.540095	171.969057
04422	2.754190	-0.136767	12.743200	-0.560296	0.329348	3.209256	0.999998	-0.000406	-0.000227	-0.002041	0.486999	-9.578367	171.752691
04423	2.965201	-0.133196	12.807470	-0.747819	0.354146	3.308166	0.999998	-0.000361	-0.000119	-0.001949	0.480074	-9.604401	171.547045
04424	3.019507	-0.222648	12.764023	-0.790659	0.452011	3.273864	0.999998	-0.000336	0.000097	-0.001846	0.474024	-9.605812	171.353602
04425	2.973553	-0.250706	12.773403	-0.741269	0.475177	3.275071	0.999998	-0.000248	0.000323	-0.001724	0.475656	-9.581506	171.174505
04426	2.727382	-0.284353	12.691142	-0.515794	0.477233	3.152294	0.999999	-0.000128	0.000487	-0.001604	0.488535	-9.538481	171.009534
04427	2.531925	-0.156233	12.848571	-0.327733	0.323883	3.275800	0.999999	-0.000050	0.000517	-0.001405	0.506393	-9.492192	170.867765
04428	2.323476	-0.204091	12.898578	-0.116650	0.344125	3.290040	0.999999	0.000047	0.000414	-0.001106	0.529545	-9.457979	170.760683
04429	2.178378	-0.051244	12.818182	-0.017637	0.178156	3.188147	1.000000	0.000114	0.000290	-0.000847	0.555459	-9.438220	170.683584
04430	2.116257	-0.040150	12.823642	0.042152	0.163169	3.183372	1.000000	0.000164	0.000019	-0.000603	0.582452	-9.449719	170.634540
04431	2.463636	0.032975	12.868605	-0.294738	0.151671	3.285469	1.000000	0.000229	-0.000128	-0.000363	0.612397	-9.478362	170.613211
04432	2.775448	0.204459	12.853780	-0.621187	0.038173	3.324178	1.000000	0.000243	-0.000094	-0.000106	0.638947	-9.503366	170.621697
04433	2.898134	0.257197	12.834248	-0.748401	0.011105	3.325921	1.000000	0.000252	0.000116	0.000055	0.663394	-9.504507	170.649147
04434	2.800232	0.346273	12.956025	-0.649182	-0.089166	3.430816	1.000000	0.000265	0.000345	0.000229	0.686045	-9.479705	170.697121
04435	2.570781	0.647413	13.003088	-0.471984	-0.419689	3.442857	1.000000	0.000169	0.000419	0.000380	0.694803	-9.446690	170.762758
04436	2.451314	0.730629	12.872728	-0.397184	-0.518480	3.295452	1.000000	-0.000002	0.000416	0.000407	0.683471	-9.414034	170.831564
04437	2.430270	0.705116	12.626211	-0.419863	-0.497248	3.048147	1.000000	-0.000176	0.000375	0.000457	0.651319	-9.386133	170.906138
04438	2.290294	0.373016	12.708259	-0.226262	-0.199429	3.102167	1.000000	-0.000234	0.000455	0.000514	0.611541	-9.349026	170.987332
04439	1.958317	0.129667	13.014116	0.176667	-0.021979	3.347378	1.000000	-0.000165	0.000334	0.000579	0.578517	-9.325894	171.075911
04440	1.806107	-0.191214	13.156754	0.395824	0.264403	3.460299	1.000000	-0.000022	-0.000031	0.000641	0.560708	-9.344618	171.171211
04441	2.153640	-0.207216	13.037340	0.047402	0.332851	3.398683	1.000000	0.000220	-0.000316	0.000691	0.569675	-9.395978	171.272000
04442	2.533340	0.159012	12.893115	-0.390132	0.031579	3.322088	1.000000	0.000337	-0.000266	0.000604	0.593609	-9.441531	171.362739
04443	2.483738	0.241409	12.689515	-0.377855	-0.052484	3.114241	1.000000	0.000233	-0.000157	0.000672	0.604242	-9.474706	171.461592
04444	2.490229	0.299870	12.578290	-0.403649	-0.107472	3.006441	1.000000	0.000217	-0.000123	0.000703	0.612452	-9.503984	171.564090
04445	2.579313	0.348671	12.666652	-0.477347	-0.145426	3.108980	1.000000	0.000105	-0.000040	0.000762	0.606623	-9.523881	171.673478
04446	2.733016	0.206812	12.897039	-0.565816	0.010866	3.360221	1.000000	0.000094	0.000056	0.000788	0.599002	-9.532842	171.786086
04447	2.952355	0.230691	13.028595	-0.761686	0.013831	3.526486	1.000000	0.000143	0.000208	0.000853	0.595639	-9.524427	171.906431
04448	2.807900	0.406474	12.802506	-0.687753	-0.179143	3.281150	1.000000	0.000123	0.000470	0.000850	0.590031	-9.486000	172.026720
04449	2.465876	0.349152	12.691687	-0.374491	-0.168928	3.114515	1.000000	0.000077	0.000620	0.000718	0.581792	-9.430229	172.131833
04450	2.256603	0.359155	12.753239	-0.173295	-0.208893	3.140793	1.000000	0.000047	0.000587	0.000707	0.570388	-9.378209	172.235585
04451	2.149656	0.435357	12.980800	-0.052486	-0.303634	3.348497	1.000000	-0.000020	0.000497	0.000729	0.551057	-9.336532	172.341758
04452	2.045484	0.349938	12.964372	0.050800	-0.237127	3.314483	1.000000	-0.000103	0.000303	0.000818	0.520622	-9.317130	172.458058
04453	2.162393	0.347640	12.960508	-0.066034	-0.226665	3.329451	1.000000	-0.000139	0.000088	0.000793	0.486559	-9.322209	172.571189
04454	2.364314	0.267809	12.736276	-0.288038	-0.127249	3.140122	1.000000	-0.000165	-0.000001	0.000715	0.451019	-9.337405	172.675114
04455	2.697532	0.187496	12.786925	-0.594488	-0.014229	3.243486	1.000000	-0.000137	0.000098	0.000497	0.422837	-9.341005	172.753817
04456	2.736481	0.134078	12.973741	-0.599145	0.035131	3.433597	1.000000	-0.000114	0.000366	0.000335	0.400238	-9.313753	172.814022
04457	2.246804	0.199938	13.111200	-0.114445	-0.096636	3.490290	1.000000	-0.000115	0.000506	0.000155	0.380955	-9.270223	172.853351
04458	1.817687	0.202123	12.933109	0.269613	-0.152691	3.245419	1.000000	-0.000144	0.000263	-0.000009	0.361449	-9.254418	172.873490
04459	1.953261	0.184278	12.779201	0.114146	-0.120843	3.115172	1.000000	-0.000188	-0.000041	-0.000154	0.339605	-9.273309	172.876519
04460	2.195594	0.102660	12.718502	-0.118395	-0.015506	3.093791	1.000000	-0.000281	-0.000116	-0.000346	0.310770	-9.300631	172.857270
04461	2.490274	-0.049983	12.925884	-0.349297	0.162454	3.345353	1.000000	-0.000275	-0.000111	-0.000485	0.285206	-9.327394	172.821833
04462	2.737105	-0.199587	12.895883	-0.573120	0.337263	3.355196	1.000000	-0.000176	0.000016	-0.000540	0.272070	-9.339553	172.780126
04463	2.675164	-0.187251	12.751887	-0.537857	0.318777	3.203121	1.000000	-0.000095	0.000283	-0.000766	0.272418	-9.320948	172.712353
04464	2.570481	0.095126	12.780248	-0.472803	0.027090	3.215239	0.999999	-0.000089	0.000469	-0.000927	0.276407	-9.281007	172.625971
04465	2.287210	0.071417	12.990459	-0.169084	0.013330	3.376690	0.999999	-0.000163	0.000566	-0.001034	0.273887	-9.229853	172.527221
04466	1.998956	0.010172	13.100086	0.126809	0.035371	3.438382	0.999999	-0.000223	0.000550	-0.001014	0.263937	-9.180574	172.430842
04467	1.709373	0.056762	13.085491	0.393157	-0.051267	3.378144	0.999999	-0.000313	0.000309	-0.000899	0.241517	-9.159014	172.347581
04468	1.794491	-0.043629	12.892433	0.290596	0.057399	3.200736	0.999999	-0.000319	0.000038	-0.000953	0.219464	-9.168540	172.257995
04469	2.085628	-0.100587	12.667181	-0.019730	0.151873	3.024523	0.999999	-0.000274	-0.000020	-0.001044	0.204310	-9.184621	172.157793
04470	2.082802	-0.136564	12.566863	-0.024776	0.186388	2.924950	0.999999	-0.000196	0.000010	-0.001125	0.199549	-9.197300	172.048202
04471	2.059344	-0.276947	12.578037	0.023070	0.321424	2.931753	0.999999	-0.000117	-0.000032	-0.001082	0.203152	-9.214752	171.943566
04472	2.491911	-0.478713	13.202000	-0.267859	0.570641	3.616170	1.000000	-0.000024	0.000000	-0.000905	0.214092	-9.228546	171.859527
04473	2.545478	-0.310883	13.552417	-0.286935	0.410478	3.971118	1.000000	0.000156	0.000250	-0.000815	0.243907	-9.213763	171.786004
04474	2.133723	-0.097218	13.343499	0.047994	0.152657	3.699736	1.000000	0.000161	0.000367	-0.000833	0.274614	-9.185472	171.710446
04475	2.103541	0.050567	12.859500	-0.025024	0.018442	3.217785	1.000000	0.000131	0.000300	-0.000898	0.303038	-9.164857	171.627364
04476	2.134922	0.093210	12.739848	-0.085994	-0.010719	3.104851	0.999999	0.000042	0.000407	-0.001011	0.323366	-9.131836	171.531207
04477	1.653077	0.055709	12.741980	0.383002	-0.038901	3.030428	0.999999	0.000009	0.000453	-0.000968	0.339064	-9.093509	171.440115
04478	1.228675	-0.021612	12.853582	0.822686	-0.023824	3.073247	1.000000	0.000009	0.000110	-0.000898	0.353379	-9.094519	171.356944
04479	1.593379	0.000002	12.912897	0.479539	0.009777	3.189302	1.000000	0.000062	-0.000359	-0.000804	0.372221	-9.149230	171.284367
04480	2.266950	0.110907	12.946085	-0.175219	0.002196	3.329678	1.000000	0.000058	-0.000441	-0.000732	0.389343	-9.213357	171.220023
04481	2.558129	0.093479	12.851727	-0.459944	0.067627	3.283248	1.000000	0.000069	-0.000173	-0.000734	0.407793	-9.246824	171.155636
04482	2.445042	0.158256	12.863019	-0.353928	-0.010281	3.276818	1.000000	0.000026	0.000161	-0.000733	0.421215	-9.242017	171.091650
04483	2.021866	0.153835	12.939703	0.069331	-0.068806	3.284563	1.000000	-0.000008	0.000283	-0.000772	0.431508	-9.223130	171.023270
04484	1.752039	0.128744	13.084989	0.356710	-0.086128	3.384604	1.000000	-0.000040	0.000180	-0.000740	0.437531	-9.216029	170.958455
04485	1.835757	0.133077	13.145298	0.285379	-0.077908	3.457544	1.000000	-0.000055	-0.000040	-0.000718	0.441416	-9.234161	170.896004
04486	2.010703	0.216852	12.957891	0.077614	-0.130190	3.301195	1.000000	-0.000057	-0.000168	-0.000734	0.445460	-9.266971	170.831581
04487	2.175496	0.378188	12.783417	-0.129695	-0.261651	3.156749	1.000000	-0.000152	-0.000139	-0.000802	0.439957	-9.296364	170.759314
04488	2.595476	0.344512	12.878691	-0.514603	-0.166575	3.318318	1.000000	-0.000275	0.000044	-0.000806	0.420400	-9.304753	170.686713
04489	2.559727	0.106179	13.128974	-0.405370	0.054242	3.557659	1.000000	-0.000317	0.000433	-0.000751	0.394942	-9.268636	170.620793
04490	1.888219	-0.023007	13.052144	0.246267	0.071115	3.372859	1.000000	-0.000311	0.000569	-0.000725	0.369653	-9.217080	170.558057
04491	1.523044	-0.165366	12.836396	0.581727	0.152660	3.100808	1.000000	-0.000239	0.000314	-0.000595	0.350116	-9.194789	170.510135
04492	1.654100	-0.222593	12.859396	0.464931	0.227121	3.144238	1.000000	-0.000109	0.000076	-0.000541	0.344487	-9.199782	170.468396
04493	1.774896	-0.151708	12.903846	0.346044	0.175380	3.207758	1.000000	0.000000	-0.000084	-0.000540	0.351429	-9.223132	170.426634
04494	2.066839	-0.118741	12.950651	0.070680	0.190442	3.300817	1.000000	0.000034	-0.000172	-0.000448	0.360510	-9.256616	170.395470
04495	2.346078	0.008929	12.927396	-0.218506	0.112657	3.323571	1.000000	0.000084	-0.000123	-0.000474	0.375878	-9.284367	170.361318
04496	2.617256	0.216302	13.048873	-0.494128	-0.046624	3.488574	1.000000	0.000056	0.000147	-0.000483	0.388091	-9.281217	170.326300
04497	2.407956	0.389834	13.153722	-0.307269	-0.252812	3.559384	1.000000	-0.000093	0.000440	-0.000457	0.382756	-9.244519	170.294587
04498	2.037243	0.519740	12.984822	-0.005741	-0.440097	3.333885	1.000000	-0.000215	0.000546	-0.000497	0.364115	-9.195689	170.258279
04499	1.665804	0.498586	12.685166	0.300981	-0.479834	2.978562	1.000000	-0.000379	0.000423	-0.000467	0.326140	-9.160944	170.225346
04500	1.469226	0.252460	12.537336	0.504035	-0.275946	2.799883	1.000000	-0.000468	0.000184	-0.000393	0.276654	-9.153619	170.200764
04501	1.744249	-0.246541	13.022214	0.397440	0.241443	3.319905	1.000000	-0.000341	-0.000065	-0.000323	0.240516	-9.174878	170.184176
04502	2.164838	-0.520442	13.413377	0.101951	0.566574	3.772034	1.000000	-0.000105	-0.000169	-0.000145	0.228015	-9.208139	170.188211
04503	2.390792	-0.372888	13.105598	-0.184918	0.465503	3.504998	1.000000	0.000128	-0.000091	-0.000192	0.243056	-9.232401	170.186893
04504	2.534100	-0.107540	12.785347	-0.417491	0.239440	3.212929	1.000000	0.000184	0.000182	-0.000257	0.265719	-9.225414	170.178204
04505	2.192528	-0.118742	12.675730	-0.104774	0.201187	3.049814	1.000000	0.000195	0.000443	-0.000164	0.287963	-9.188557	170.180371
04506	1.651984	0.150116	12.886810	0.400947	-0.153665	3.173346	1.000000	0.000165	0.000468	-0.000117	0.305782	-9.148861	170.188061
04507	1.322830	0.201877	12.928046	0.715377	-0.258129	3.162158	1.000000	0.000039	0.000081	0.000054	0.306102	-9.153588	170.215371
04508	1.491187	0.048561	12.892666	0.578439	-0.079149	3.152881	1.000000	0.000017	-0.000342	0.000164	0.301926	-9.206828	170.255231
04509	2.066401	0.007267	12.906205	0.042426	0.055101	3.257712	1.000000	0.000093	-0.000542	0.000229	0.305225	-9.282976	170.302501
04510	2.641730	-0.084461	12.958465	-0.478858	0.239523	3.401737	1.000000	0.000187	-0.000327	0.000186	0.320035	-9.334503	170.344912
04511	2.837731	0.079677	12.962614	-0.688980	0.113542	3.438759	1.000000	0.000306	0.000068	0.000112	0.349761	-9.340704	170.378965
04512	2.707996	0.414628	12.977850	-0.618581	-0.232433	3.434692	1.000000	0.000249	0.000452	0.000139	0.372408	-9.302931	170.416451
04513	2.162624	0.514947	12.932558	-0.122472	-0.415294	3.302406	1.000000	0.000113	0.000679	0.000218	0.378059	-9.239294	170.463216
04514	1.719934	0.377404	12.995860	0.328163	-0.351301	3.293108	1.000000	0.000001	0.000597	0.000260	0.370154	-9.185009	170.514862
04515	1.652677	0.257945	12.905218	0.390384	-0.243142	3.192350	1.000000	-0.000030	0.000300	0.000328	0.357527	-9.164791	170.574127
04516	1.832278	0.157447	12.843749	0.219625	-0.115773	3.159679	1.000000	-0.000026	0.000121	0.000336	0.345183	-9.165083	170.634207
04517	1.922723	0.136156	12.707800	0.114012	-0.079738	3.039714	1.000000	0.000001	0.000062	0.000286	0.336886	-9.172039	170.688397
04518	2.053033	0.218835	13.023774	0.024791	-0.148373	3.372869	1.000000	0.000030	0.000089	0.000269	0.332203	-9.175863	170.740633
04519	2.097682	0.130708	13.345825	0.047394	-0.061935	3.697395	1.000000	0.000020	0.000071	0.000219	0.327353	-9.181785	170.787127
04520	2.131748	-0.005365	13.038897	-0.011323	0.082581	3.399060	1.000000	0.000039	0.000055	0.000319	0.322804	-9.189561	170.845218
04521	1.990862	-0.204447	13.000358	0.151999	0.257597	3.337415	1.000000	0.000119	0.000130	0.000376	0.326359	-9.188796	170.909890
04522	1.742689	-0.146415	12.948403	0.377078	0.165650	3.246788	1.000000	0.000276	0.000092	0.000345	0.348416	-9.192388	170.971012
04523	1.503634	0.024200	12.789720	0.562631	-0.031226	3.052805	1.000000	0.000345	-0.000119	0.000359	0.378162	-9.220106	171.033515
04524	1.675904	0.283798	12.685565	0.348162	-0.253673	2.978996	1.000000	0.000328	-0.000358	0.000249	0.407981	-9.275192	171.083148
04525	2.178973	0.449020	12.720248	-0.147885	-0.337538	3.095389	1.000000	0.000193	-0.000445	0.000192	0.423361	-9.340166	171.125998
04526	2.528331	0.530099	12.952042	-0.450743	-0.368801	3.381617	1.000000	0.000068	-0.000259	0.000174	0.424757	-9.383845	171.166942
04527	2.614020	0.551993	13.108262	-0.505427	-0.383116	3.550025	1.000000	-0.000069	-0.000019	0.000187	0.410094	-9.399992	171.209630
04528	2.732059	0.445384	13.076725	-0.609369	-0.264561	3.537291	1.000000	-0.000188	0.000217	0.000131	0.382892	-9.389066	171.245994
04529	2.688024	0.480615	12.901228	-0.608053	-0.309176	3.356702	1.000000	-0.000263	0.000555	0.000129	0.347139	-9.339381	171.282386
04530	2.166030	0.260083	12.711810	-0.112174	-0.172502	3.083323	1.000000	-0.000321	0.000836	0.000177	0.303871	-9.257576	171.324478
04531	1.579284	0.015706	12.826340	0.497434	-0.026657	3.100918	1.000000	-0.000256	0.000707	0.000232	0.267024	-9.190488	171.372803
04532	1.550175	-0.380354	13.220970	0.635813	0.348409	3.484534	1.000000	-0.000117	0.000357	0.000388	0.243376	-9.163523	171.439011
04533	2.026033	-0.249336	13.396744	0.175798	0.284446	3.734560	1.000000	0.000125	0.000129	0.000240	0.250176	-9.162601	171.487908
04534	2.449929	-0.056399	13.163912	-0.304544	0.162362	3.572932	1.000000	0.000162	0.000214	0.000214	0.261633	-9.151971	171.533791
04535	2.485416	0.224519	12.662563	-0.464848	-0.098206	3.084694	1.000000	0.000113	0.000461	0.000127	0.269086	-9.112989	171.569748
04536	2.037275	0.322488	12.437028	-0.088060	-0.254235	2.791349	1.000000	-0.000016	0.000675	0.000066	0.262927	-9.049440	171.598721
04537	1.573723	0.254875	12.650104	0.393729	-0.259307	2.928757	1.000000	-0.000156	0.000671	0.000135	0.239479	-8.986332	171.635743
04538	1.199991	0.128514	13.299525	0.867336	-0.203481	3.511733	1.000000	-0.000149	0.000352	0.000215	0.215468	-8.959832	171.681841
04539	1.181887	0.035445	13.314228	0.902294	-0.118620	3.522926	1.000000	-0.000088	-0.000273	0.000260	0.197639	-9.004876	171.732815
04540	1.800095	0.042541	12.938233	0.253459	-0.035644	3.247729	1.000000	-0.000038	-0.000657	0.000251	0.185702	-9.093938	171.782674
04541	2.352155	0.140439	12.729459	-0.314903	-0.054964	3.129078	1.000000	0.000003	-0.000509	0.000122	0.180730	-9.165930	171.817614
04542	2.471357	0.065292	12.735946	-0.408198	0.032812	3.154520	1.000000	-0.000019	-0.000163	0.000112	0.173365	-9.198337	171.851522
04543	2.013760	0.028141	12.920854	0.078207	-0.000586	3.263947	1.000000	-0.000016	0.000019	0.000127	0.166009	-9.209797	171.887258
04544	1.992757	0.301765	13.969563	0.229460	-0.296211	4.296545	1.000000	0.000035	0.000009	0.000042	0.166115	-9.222383	171.913154
04545	0.807327	0.384078	15.109051	1.550733	-0.567102	5.232455	1.000000	-0.000197	0.000658	0.000102	0.138491	-9.160646	171.946164
04546	-1.404200	0.261434	14.851553	3.682468	-0.754041	4.626136	1.000000	-0.000377	-0.000052	0.000312	0.086450	-9.180176	172.003314
04547	-2.754659	-1.081534	10.991483	4.611840	0.460845	0.583887	0.999995	-0.000214	-0.002969	0.000785	0.043989	-9.533908	172.115117
04548	0.726441	-0.800743	9.756964	1.054872	0.672153	-0.076068	0.999985	0.000247	-0.005469	0.000213	0.064770	-10.173943	172.160372
04549	4.305819	-0.630132	8.897292	-2.508005	0.998610	-0.283214	0.999988	0.000829	-0.004825	0.000099	0.154234	-10.740069	172.192008
04550	8.299234	-0.532470	9.999566	-6.121073	1.413066	1.575346	0.999995	0.001183	-0.003038	0.000352	0.278480	-11.101763	172.252929
04551	7.932678	0.377652	13.349367	-5.230917	0.407524	4.807393	0.999998	0.001144	0.001714	0.000473	0.394901	-10.919234	172.330405
04552	3.844326	1.438489	17.901901	-0.623829	-1.230373	8.501825	0.999992	0.000791	0.004001	0.000414	0.472213	-10.474971	172.403305
04553	1.023439	0.844081	15.328868	1.643826	-0.941793	5.456389	0.999998	0.000170	0.001893	0.001055	0.465677	-10.272866	172.549046
04554	3.990079	1.011331	14.518338	-1.453038	-0.717037	5.190650	0.999999	-0.000162	0.000888	0.000939	0.424114	-10.185673	172.680187
04555	5.533611	0.907518	14.007411	-3.090744	-0.417826	4.949563	0.999995	-0.000264	0.003006	0.000109	0.387825	-9.855073	172.716282
04556	3.406346	0.883780	14.654979	-1.013266	-0.671162	5.209751	0.999988	-0.000628	0.004889	0.000104	0.310013	-9.308754	172.752773
04557	1.110376	0.353075	13.941513	1.043353	-0.421096	4.132051	0.999987	-0.000602	0.005144	0.000073	0.236280	-8.733171	172.784948
04558	-0.076316	-0.225691	12.826846	1.988917	0.019914	2.861207	0.999991	-0.000709	0.004123	0.000627	0.141334	-8.274782	172.880026
04559	-0.791030	-0.668435	10.264853	2.301823	0.409959	0.235847	0.999996	-0.000188	0.002644	0.000327	0.111696	-7.985541	172.939469
04560	-0.694528	-0.331834	8.381091	1.869153	0.119245	-1.607374	0.999999	0.000005	0.001449	-0.000203	0.112916	-7.833117	172.937169
04561	-0.470480	-1.182359	8.241934	1.720340	0.996092	-1.713488	1.000000	0.000193	0.000576	-0.000302	0.137207	-7.780616	172.923317
04562	-0.664592	-1.214041	8.601337	1.962917	1.008077	-1.384800	0.999999	0.000923	-0.000078	-0.000527	0.248610	-7.802930	172.883211
04563	-1.573154	-0.205354	11.261771	3.112130	-0.114197	1.125588	0.999997	0.001702	-0.001341	-0.000711	0.452452	-7.969645	172.820858
04564	-1.281976	1.379407	20.382022	3.996499	-1.712240	10.188983	0.999991	0.000934	-0.004091	0.000039	0.556596	-8.451985	172.842071
04565	0.359068	1.339414	18.870011	2.376353	-1.461574	8.901269	0.999979	0.000129	-0.006267	0.001844	0.536723	-9.185431	173.069883
04566	6.205171	0.399337	16.523601	-3.385821	0.157389	7.513606	0.999981	-0.000160	-0.006175	0.000894	0.498977	-9.907244	173.188231
04567	7.989513	0.064267	13.476642	-5.465186	0.698884	4.853565	0.999996	-0.000215	-0.002865	0.000589	0.459394	-10.249481	173.274964
04568	5.794407	0.451347	10.216510	-3.904605	0.086856	1.273450	1.000000	-0.000095	0.000413	0.000105	0.442831	-10.215799	173.308534
04569	4.001197	-0.393989	9.357582	-2.231394	0.733093	0.097530	0.999997	0.000013	0.002336	-0.000428	0.449272	-9.961317	173.281759
04570	2.547237	0.074010	10.131410	-0.783751	0.101765	0.604335	0.999994	0.000216	0.003276	-0.000702	0.484051	-9.598948	173.224120
04571	0.581388	0.232267	12.076990	1.376276	-0.291446	2.198392	0.999994	0.000248	0.003322	-0.000335	0.515140	-9.231680	173.209479
04572	-0.518623	0.526887	14.134862	2.691827	-0.723984	4.064296	0.999999	-0.000070	0.001582	0.000256	0.499022	-9.064392	173.261684
04573	-0.561464	0.647262	15.034353	2.852899	-0.858165	4.948425	1.000000	-0.000096	-0.000653	0.000409	0.477537	-9.153262	173.329377
04574	1.751235	0.157005	14.679680	0.632598	-0.115568	4.957909	0.999997	-0.000372	-0.002377	0.000726	0.418557	-9.439806	173.432463
04575	4.271713	0.393046	12.575805	-2.147935	-0.062009	3.299719	0.999998	-0.000387	-0.001824	0.000310	0.365262	-9.662507	173.487972
04576	5.211029	-0.097850	11.970863	-3.095057	0.524947	2.860552	1.000000	-0.000368	0.000534	-0.000148	0.322666	-9.614724	173.492077
04577	3.208403	-0.347916	12.341297	-1.081669	0.542042	2.886064	0.999996	-0.000207	0.002676	-0.000345	0.302089	-9.321461	173.474658
04578	0.374864	-0.175420	13.144826	1.741024	0.047485	3.222799	0.999996	0.000014	0.002676	-0.000284	0.305589	-9.028286	173.464240
04579	-0.993455	0.156564	13.310416	3.030377	-0.431584	3.179970	1.000000	0.000138	0.000790	-0.000137	0.320776	-8.951206	173.469707
04580	-0.196890	0.478654	13.201586	2.203196	-0.659682	3.197325	0.999999	-0.000009	-0.001142	-0.000026	0.317371	-9.095557	173.486912
04581	1.580215	0.371502	12.820561	0.456497	-0.357186	3.097218	0.999998	-0.000213	-0.002118	-0.000047	0.290931	-9.351667	173.501067
04582	3.296397	0.283112	12.371190	-1.233553	-0.084234	2.933440	0.999998	-0.000326	-0.002043	-0.000291	0.256126	-9.599012	173.487132
04583	4.772074	0.111668	12.288427	-2.633438	0.240773	3.102326	0.999999	-0.000349	-0.000949	-0.000311	0.219110	-9.720999	173.471478
04584	5.101196	-0.017170	12.570920	-2.891355	0.393412	3.436303	1.000000	-0.000326	0.000913	-0.000188	0.182088	-9.629689	173.470992
04585	3.741432	-0.238094	13.227497	-1.467613	0.446125	3.849977	0.999997	-0.000271	0.002402	0.000054	0.146731	-9.368004	173.498968
04586	1.777832	-0.315976	13.485917	0.440692	0.299973	3.783115	0.999996	-0.000150	0.002728	0.000317	0.120508	-9.069026	173.557469
04587	0.303960	-0.080999	13.634146	1.821814	-0.094766	3.702513	0.999998	0.000052	0.002076	0.000482	0.114723	-8.844736	173.634805
04588	-0.189867	-0.044317	13.365502	2.225454	-0.175664	3.366505	1.000000	0.000072	0.000876	0.000459	0.111861	-8.757896	173.709161
04589	0.531979	0.137318	12.723829	1.394048	-0.266858	2.843659	1.000000	0.000003	-0.000250	0.000155	0.106565	-8.799994	173.748030
04590	1.768168	-0.054267	12.339779	0.152992	0.060585	2.652161	1.000000	-0.000003	-0.000397	0.000180	0.100069	-8.858844	173.789794
04591	2.218456	-0.139044	12.216095	-0.293282	0.192829	2.599027	1.000000	0.000084	0.000136	0.000655	0.095011	-8.856677	173.886740
04592	1.952557	-0.174222	12.851341	0.062118	0.190230	3.185763	0.999999	0.000163	0.000596	0.000964	0.093594	-8.801876	174.019571
04593	1.860886	-0.026664	13.593550	0.232191	0.027519	3.905676	0.999999	0.000303	0.000956	0.000770	0.111718	-8.705809	174.129955
04594	1.268145	0.024606	13.914801	0.831364	-0.079261	4.134819	0.999999	0.000305	0.001265	0.000470	0.135513	-8.574268	174.205668
04595	0.691844	0.050315	13.591089	1.318401	-0.147720	3.731270	0.999999	0.000339	0.001164	0.000442	0.163828	-8.454321	174.278166
04596	0.941735	0.016398	13.254283	1.001306	-0.074535	3.437026	0.999999	0.000332	0.001019	0.000269	0.194508	-8.350899	174.330585
04597	0.983600	0.093240	13.048605	0.895972	-0.134106	3.241867	0.999999	0.000316	0.001321	0.000134	0.225653	-8.212833	174.367616
04598	0.406517	0.131276	12.860156	1.400918	-0.215458	2.976252	0.999999	0.000289	0.001532	0.000074	0.254774	-8.050613	174.397828
04599	-0.178155	0.064803	12.705046	1.928423	-0.193966	2.745082	0.999999	0.000274	0.001407	0.000145	0.281093	-7.902682	174.436272
04600	-0.393455	0.141946	13.177759	2.171016	-0.285605	3.188595	0.999999	0.000258	0.001018	0.000269	0.303722	-7.799343	174.488874
04601	-0.451622	0.270622	13.494414	2.240685	-0.412895	3.498407	1.000000	0.000234	0.000676	0.000245	0.324132	-7.735151	174.538551
04602	-0.492845	0.414227	13.526910	2.262609	-0.553799	3.527690	1.000000	0.000123	0.000325	0.000147	0.333387	-7.711024	174.576641
04603	-0.288915	0.413803	13.441542	2.049266	-0.531843	3.470663	1.000000	-0.000016	-0.000016	-0.000013	0.329254	-7.725833	174.596047
04604	0.013085	0.259786	13.366556	1.759930	-0.351772	3.435384	1.000000	-0.000114	-0.000088	-0.000120	0.315579	-7.748710	174.603022
04605	-0.001131	0.060550	13.348004	1.794350	-0.157965	3.413356	1.000000	-0.000112	-0.000033	-0.000121	0.302146	-7.765321	174.609897
04606	-0.110636	-0.124624	13.242831	1.908872	0.014408	3.292897	1.000000	-0.000062	-0.000020	-0.000068	0.293604	-7.780425	174.622908
04607	-0.224277	-0.176222	13.196865	2.024267	0.055135	3.231004	1.000000	0.000053	-0.000125	0.000080	0.295882	-7.807504	174.653049
04608	-0.108018	-0.040291	13.141214	1.897407	-0.067124	3.191163	1.000000	0.000136	-0.000256	0.000177	0.306110	-7.849629	174.694346
04609	0.152044	0.106373	13.144720	1.637852	-0.187019	3.229573	1.000000	0.000105	-0.000270	0.000129	0.313478	-7.893293	174.730025
04610	0.228901	0.114032	13.300918	1.591859	-0.187697	3.393772	1.000000	0.000041	-0.000191	-0.000007	0.315665	-7.927775	174.750028
04611	0.250383	0.017488	13.424483	1.604336	-0.090699	3.517639	1.000000	-0.000004	-0.000182	-0.000159	0.315130	-7.961114	174.752470
04612	0.332856	-0.094938	13.372763	1.532702	0.028328	3.476429	1.000000	-0.000016	-0.000103	-0.000277	0.315123	-7.985209	174.741367
04613	0.316913	-0.194321	13.313409	1.554581	0.126683	3.414265	1.000000	0.000074	-0.000079	-0.000244	0.324935	-8.006527	174.734090
04614	0.277347	-0.174208	13.248164	1.588060	0.106332	3.343600	1.000000	0.000168	-0.000092	-0.000183	0.344483	-8.029410	174.733803
04615	0.235331	-0.007407	13.093193	1.598623	-0.057721	3.184551	1.000000	0.000234	-0.000114	-0.000161	0.371259	-8.054773	174.736087
04616	0.305859	0.283802	13.248929	1.531617	-0.337096	3.349710	1.000000	0.000204	-0.000187	-0.000214	0.395472	-8.088380	174.732209
04617	0.301370	0.649534	13.399839	1.531824	-0.700393	3.500140	1.000000	0.000007	-0.000187	-0.000413	0.400300	-8.121822	174.705240
04618	0.220723	0.481651	13.246676	1.613640	-0.542777	3.334810	1.000000	-0.000197	-0.000296	-0.000578	0.384520	-8.167592	174.659050
04619	0.345873	0.281602	13.283157	1.524791	-0.339858	3.385823	1.000000	-0.000318	-0.000391	-0.000577	0.354954	-8.224140	174.612919
04620	0.392058	-0.055324	13.375150	1.536393	-0.009465	3.479822	1.000000	-0.000267	-0.000413	-0.000478	0.329582	-8.283316	174.578250
04621	0.302598	-0.126492	13.250860	1.627426	0.047638	3.341858	1.000000	-0.000121	-0.000483	-0.000218	0.316621	-8.350599	174.573673
04622	0.387956	-0.048532	13.073241	1.526589	-0.023566	3.176979	1.000000	0.000008	-0.000574	-0.000013	0.314972	-8.428386	174.592843
04623	0.520108	0.115350	13.081058	1.400376	-0.176320	3.202909	1.000000	-0.000009	-0.000618	0.000081	0.309793	-8.511301	174.622875
04624	0.469833	0.209690	13.110858	1.465140	-0.278739	3.223223	1.000000	-0.000106	-0.000695	0.000100	0.293110	-8.602965	174.655071
04625	0.524103	0.120116	13.123823	1.445149	-0.191134	3.241002	1.000000	-0.000204	-0.000909	0.000110	0.265002	-8.719154	174.688374
04626	0.802213	-0.085940	13.080344	1.211776	0.031260	3.236331	0.999999	-0.000233	-0.001078	0.000144	0.232902	-8.854666	174.725609
04627	1.105927	-0.262130	13.082426	0.960189	0.225461	3.281922	0.999999	-0.000181	-0.001133	0.000177	0.206062	-8.996412	174.766694
04628	1.357079	-0.340429	13.052737	0.746726	0.320099	3.289655	0.999999	-0.000031	-0.001082	0.000083	0.197970	-9.132277	174.797065
04629	1.564874	-0.261005	13.034601	0.561089	0.257878	3.303578	1.000000	0.000115	-0.000917	-0.000088	0.209705	-9.249175	174.807646
04630	1.769382	-0.140914	13.059406	0.378286	0.158104	3.360411	1.000000	0.000195	-0.000767	-0.000235	0.233328	-9.348750	174.801193
04631	1.873399	0.054281	13.068779	0.281047	-0.023896	3.386781	1.000000	0.000164	-0.000597	-0.000304	0.254718	-9.428826	174.786705
04632	1.978379	0.104976	13.089255	0.192515	-0.062793	3.424101	1.000000	0.000085	-0.000377	-0.000312	0.267203	-9.483665	174.771374
04633	2.026200	0.053065	13.043802	0.153322	-0.005079	3.386765	1.000000	0.000037	-0.000206	-0.000318	0.274378	-9.518936	174.755429
04634	2.051172	0.011470	13.025795	0.135129	0.040246	3.372869	1.000000	0.000065	0.000003	-0.000325	0.284784	-9.530220	174.738794
04635	2.036534	0.029815	13.004452	0.145309	0.023342	3.349473	1.000000	0.000088	0.000143	-0.000289	0.297160	-9.525532	174.726425
04636	1.743170	0.071445	12.896683	0.409853	-0.039663	3.194950	1.000000	0.000187	0.000239	-0.000178	0.318714	-9.509840	174.727070
04637	1.282299	0.215998	12.862545	0.844186	-0.220380	3.085948	1.000000	0.000203	-0.000038	0.000039	0.338008	-9.526108	174.752761
04638	1.637066	0.450987	12.989852	0.506368	-0.420725	3.271127	1.000000	0.000115	-0.000560	-0.000114	0.350151	-9.602004	174.760238
04639	2.332657	0.400743	12.972842	-0.157802	-0.308239	3.369748	1.000000	-0.000042	-0.000536	-0.000261	0.347267	-9.675050	174.750660
04640	2.331185	0.316335	12.859013	-0.153513	-0.226770	3.256885	1.000000	-0.000148	-0.000371	-0.000177	0.330496	-9.729262	174.750923
04641	2.354002	0.199770	12.832602	-0.158753	-0.114388	3.234098	1.000000	-0.000238	-0.000309	-0.000144	0.302843	-9.776376	174.755092
04642	2.475424	-0.013573	12.882804	-0.241286	0.101821	3.303179	1.000000	-0.000209	-0.000201	-0.000138	0.278329	-9.811153	174.760050
04643	2.491306	-0.033938	12.982446	-0.232330	0.117250	3.404118	1.000000	-0.000149	-0.000066	-0.000181	0.261546	-9.830424	174.760181
04644	2.477479	-0.022033	12.917081	-0.227876	0.101226	3.337491	1.000000	-0.000104	0.000012	-0.000132	0.248852	-9.840834	174.766035
04645	2.527192	-0.057233	12.872228	-0.280514	0.138600	3.301669	1.000000	-0.000088	0.000130	-0.000164	0.238623	-9.837709	174.768218
04646	2.517456	-0.086902	12.895723	-0.267254	0.165237	3.322992	1.000000	-0.000066	0.000290	-0.000164	0.230898	-9.816290	174.770472
04647	2.315604	-0.139040	12.887934	-0.072064	0.198180	3.280659	1.000000	-0.000041	0.000386	-0.000142	0.225617	-9.783803	174.775302
