// Start Time: Unknown
// Update Rate: 100.0Hz
// Filter Profile: human (46.1)
// Firmware Version: 4.4.0
PacketCounter	Acc_X	Acc_Y	Acc_Z	FreeAcc_X	FreeAcc_Y	FreeAcc_Z	OriInc_q0	OriInc_q1	OriInc_q2	OriInc_q3	Roll	Pitch	Yaw
14777	9.873008	-0.643408	0.683325	0.000000	0.000000	0.104833	1.000000	0.000046	0.000048	0.000024	-43.288763	-84.572515	45.013300
14778	9.858780	-0.629365	0.656192	0.000000	0.000000	0.087930	1.000000	0.000022	0.000020	0.000050	-43.791965	-84.733597	44.961201
14779	9.876741	-0.611046	0.679139	-0.009814	0.025561	0.106177	1.000000	0.000028	0.000037	0.000037	-43.547037	-84.650042	44.998488
14780	9.820414	-0.661123	0.660692	0.006746	-0.026958	0.052065	1.000000	0.000025	0.000012	0.000039	-43.568406	-84.645962	45.022795
14781	9.839434	-0.646786	0.659375	0.009254	-0.010580	0.069993	1.000000	0.000027	0.000023	0.000044	-43.585785	-84.640715	45.043310
14782	9.853474	-0.662389	0.687635	-0.017189	-0.024979	0.086890	1.000000	0.000036	0.000014	0.000050	-43.614165	-84.635590	45.075914
14783	9.857320	-0.629532	0.682424	-0.012381	0.009193	0.088249	1.000000	0.000031	0.000011	0.000056	-43.651616	-84.630230	45.117113
14784	9.910607	-0.619060	0.683159	-0.009573	0.024159	0.140674	1.000000	0.000046	0.000019	0.000050	-43.674547	-84.624769	45.145385
14785	9.896408	-0.605268	0.655626	0.016882	0.038552	0.123777	1.000000	0.000049	0.000008	0.000051	-43.705518	-84.620049	45.182145
14786	9.876974	-0.571178	0.748589	-0.077552	0.069892	0.108519	1.000000	0.000037	0.000041	0.000036	-43.698330	-84.613770	45.179236
14787	9.909304	-0.617504	0.708668	-0.033690	0.027471	0.141002	1.000000	0.000030	0.000013	0.000044	-43.717825	-84.609257	45.202334
14788	9.891156	-0.637513	0.686772	-0.012053	0.007706	0.122746	1.000000	0.000042	0.000029	0.000049	-43.731742	-84.603029	45.221144
14789	9.873802	-0.611595	0.731640	-0.058056	0.032175	0.106834	1.000000	0.000032	0.000024	0.000049	-43.743308	-84.597195	45.236521
14790	9.932091	-0.571264	0.703046	-0.026265	0.077915	0.160290	1.000000	0.000042	0.000029	0.000049	-43.757143	-84.590965	45.255249
14791	9.896691	-0.564430	0.725444	-0.050556	0.082522	0.126124	1.000000	0.000030	0.000013	0.000044	-43.766541	-84.586514	45.268294
14792	9.857339	-0.591220	0.753356	-0.079810	0.053158	0.090596	1.000000	0.000030	0.000029	0.000026	-43.761092	-84.582043	45.266284
14793	9.907711	-0.618389	0.735947	-0.057344	0.030242	0.141335	1.000000	0.000015	0.000040	0.000048	-43.741363	-84.575135	45.248440
14794	9.894567	-0.608661	0.684634	-0.006726	0.041253	0.124108	1.000000	0.000022	0.000020	0.000050	-43.765657	-84.569567	45.275393
14795	9.908579	-0.624225	0.712900	-0.032816	0.026451	0.141008	1.000000	0.000011	0.000018	0.000038	-43.750528	-84.565265	45.261786
14796	9.875282	-0.625391	0.687249	-0.008914	0.024477	0.106181	1.000000	-0.000000	0.000034	0.000043	-43.759057	-84.559025	45.270323
14797	9.871204	-0.659959	0.693527	-0.013331	-0.010138	0.104818	1.000000	0.000009	0.000041	0.000031	-43.713931	-84.553436	45.226303
14798	9.855968	-0.641980	0.690323	-0.011065	0.007651	0.088252	1.000000	-0.000001	0.000021	0.000050	-43.739916	-84.547768	45.252267
14799	9.869130	-0.703652	0.652220	0.030623	-0.051512	0.102788	1.000000	0.000002	0.000045	0.000047	-43.706902	-84.540359	45.219641
14800	9.869030	-0.704354	0.652981	0.030623	-0.051512	0.102788	1.000000	0.000030	0.000029	0.000026	-43.701503	-84.535887	45.217682
14801	9.831741	-0.739257	0.633033	0.050029	-0.087909	0.066590	1.000000	0.000015	0.000040	0.000048	-43.683430	-84.528593	45.201485
14802	9.834563	-0.702294	0.652173	0.030661	-0.050358	0.068289	1.000000	0.000022	0.000020	0.000050	-43.707527	-84.523027	45.228242
14803	9.839539	-0.673272	0.623076	0.059811	-0.019624	0.069320	1.000000	0.000026	0.000026	0.000032	-43.701848	-84.517845	45.225577
14804	9.835461	-0.707834	0.629026	0.055004	-0.053787	0.067955	1.000000	0.000030	0.000013	0.000044	-43.725923	-84.513235	45.253230
14805	9.820246	-0.689879	0.625639	0.057224	-0.035922	0.051390	1.000000	0.000037	0.000028	0.000043	-43.741101	-84.507405	45.272643
14806	9.816161	-0.724364	0.631681	0.052416	-0.070085	0.050024	1.000000	0.000034	0.000019	0.000027	-43.744382	-84.503700	45.279807
14807	9.835237	-0.709831	0.630285	0.054737	-0.053463	0.067958	1.000000	0.000056	0.000005	0.000034	-43.783316	-84.500536	45.324998
14808	9.891499	-0.661302	0.649646	0.038185	-0.000955	0.122083	1.000000	0.000065	0.000028	0.000049	-43.795023	-84.494409	45.344267
14809	9.894358	-0.624058	0.668829	0.018514	0.036912	0.123780	1.000000	0.000040	0.000034	0.000025	-43.810490	-84.489528	45.364200
14810	9.911283	-0.601549	0.715704	-0.027296	0.060062	0.142375	1.000000	0.000049	0.000009	0.000050	-43.841126	-84.484817	45.400613
14811	9.908260	-0.640263	0.697508	-0.008161	0.022646	0.140679	1.000000	0.000058	0.000016	0.000038	-43.870040	-84.480871	45.436017
14812	9.891985	-0.618127	0.718293	-0.030069	0.043824	0.124444	1.000000	0.000056	0.000037	0.000042	-43.869382	-84.474489	45.441828
14813	9.930182	-0.588789	0.715443	-0.025165	0.076587	0.160303	1.000000	0.000053	0.000012	0.000044	-43.899357	-84.470616	45.477829
14814	9.912846	-0.562700	0.760092	-0.071247	0.101153	0.144399	1.000000	0.000055	0.000023	0.000049	-43.915814	-84.464795	45.500720
14815	9.897652	-0.544703	0.756725	-0.068970	0.118645	0.127836	1.000000	0.000044	0.000021	0.000038	-43.912586	-84.461204	45.503301
14816	9.883544	-0.530698	0.729234	-0.042525	0.133047	0.110939	1.000000	0.000035	0.000017	0.000038	-43.927392	-84.456759	45.522155
14817	9.902603	-0.516215	0.728316	-0.039843	0.148743	0.128880	1.000000	0.000020	0.000060	0.000023	-43.861779	-84.452229	45.458084
14818	9.933797	-0.558561	0.712814	-0.020197	0.109773	0.161678	1.000000	0.000022	0.000020	0.000050	-43.885163	-84.446638	45.484105
14819	9.847130	-0.571062	0.686622	0.001115	0.091776	0.074431	1.000000	0.000008	0.000028	0.000038	-43.838484	-84.444867	45.439331
14820	9.914488	-0.575146	0.715506	-0.022508	0.092319	0.143757	1.000000	-0.000008	0.000023	0.000032	-43.848391	-84.440424	45.448401
14821	9.896330	-0.595027	0.693721	-0.000706	0.071269	0.125500	1.000000	-0.000000	0.000035	0.000043	-43.795618	-84.438815	45.396299
14822	9.877077	-0.610916	0.696101	-0.003248	0.054901	0.107564	1.000000	-0.000000	0.000035	0.000043	-43.803796	-84.432575	45.404488
14823	9.858917	-0.630792	0.674310	0.018583	0.033776	0.089300	1.000000	-0.000008	0.000023	0.000032	-43.748103	-84.432980	45.348108
14824	9.889016	-0.669299	0.682552	0.014052	-0.001818	0.122416	1.000000	-0.000004	0.000028	0.000060	-43.776770	-84.425834	45.376476
14825	9.819306	-0.658890	0.702845	-0.010407	0.003133	0.053760	1.000000	0.000006	0.000033	0.000060	-43.733961	-84.422606	45.334779
14826	9.855628	-0.671652	0.657524	0.038224	-0.005079	0.087584	1.000000	0.000020	0.000025	0.000026	-43.733610	-84.418461	45.336757
14827	9.836376	-0.687452	0.659795	0.035817	-0.022648	0.069641	1.000000	0.000024	0.000031	0.000054	-43.695565	-84.416028	45.302645
14828	9.835187	-0.684291	0.684408	0.011643	-0.019262	0.069978	1.000000	0.000027	0.000023	0.000044	-43.710406	-84.410646	45.320647
14829	9.855336	-0.674338	0.659156	0.038548	-0.007274	0.087581	1.000000	0.000033	0.000022	0.000061	-43.691286	-84.407299	45.304649
14830	9.850059	-0.705103	0.689322	0.009572	-0.038049	0.086528	1.000000	0.000042	0.000029	0.000049	-43.704113	-84.401044	45.322388
14831	9.856206	-0.680482	0.636259	0.062881	-0.011464	0.087242	1.000000	0.000043	0.000026	0.000060	-43.689102	-84.396733	45.310417
14832	9.871998	-0.654174	0.707346	-0.007089	0.015060	0.106201	1.000000	0.000052	0.000033	0.000048	-43.696522	-84.390120	45.323844
14833	9.874088	-0.663422	0.659517	0.041161	0.007446	0.105526	1.000000	0.000034	-0.000013	0.000064	-43.726506	-84.389975	45.360202
14834	9.911235	-0.630440	0.680646	0.022083	0.043545	0.141756	1.000000	0.000032	0.000056	0.000058	-43.725319	-84.380695	45.362772
14835	9.924016	-0.641945	0.733392	-0.028947	0.031743	0.158982	1.000000	0.000035	0.000017	0.000038	-43.725825	-84.381119	45.366970
14836	9.890778	-0.643025	0.707586	-0.005043	0.029806	0.124150	1.000000	0.000027	0.000023	0.000044	-43.740247	-84.375712	45.384546
14837	9.905750	-0.662715	0.712039	-0.007406	0.011211	0.140699	1.000000	0.000019	0.000030	0.000049	-43.726549	-84.373001	45.372891
14838	9.894685	-0.611009	0.703217	-0.000326	0.063179	0.125555	1.000000	0.000028	0.000034	0.000048	-43.735754	-84.366305	45.385450
14839	9.856233	-0.641783	0.707231	-0.005748	0.029677	0.089660	1.000000	0.000026	0.000026	0.000032	-43.720157	-84.366302	45.372339
14840	9.894515	-0.612547	0.704279	-0.000661	0.062380	0.125560	1.000000	0.000012	0.000015	0.000050	-43.748228	-84.361046	45.401960
14841	9.886175	-0.681010	0.716110	-0.010417	-0.006716	0.122749	1.000000	0.000024	0.000047	0.000036	-43.711598	-84.358070	45.364311
14842	9.910487	-0.636877	0.685525	0.021115	0.040406	0.141771	1.000000	0.000020	0.000025	0.000026	-43.711112	-84.353907	45.366102
14843	9.860001	-0.610668	0.704168	-0.000739	0.062321	0.091075	1.000000	0.000019	0.000046	0.000030	-43.652445	-84.349419	45.305713
14844	9.877164	-0.638347	0.660795	0.045357	0.037727	0.106941	1.000000	0.000018	0.000033	0.000037	-43.654944	-84.343737	45.310177
14845	9.877083	-0.638935	0.661437	0.045222	0.036869	0.106944	1.000000	0.000030	0.000029	0.000026	-43.619797	-84.343334	45.278789
14846	9.856720	-0.650362	0.687696	0.018516	0.023915	0.089328	1.000000	0.000016	0.000021	0.000032	-43.627421	-84.338941	45.288185
14847	9.858832	-0.659353	0.640295	0.066539	0.016258	0.088656	1.000000	0.000025	0.000045	0.000047	-43.606163	-84.336454	45.272031
14848	9.804201	-0.666968	0.664630	0.039555	0.004773	0.036544	1.000000	0.000039	0.000036	0.000014	-43.583631	-84.332316	45.253833
14849	9.816960	-0.678000	0.717294	-0.011604	-0.007013	0.053757	1.000000	0.000031	0.000027	0.000037	-43.581626	-84.332456	45.254254
14850	9.856387	-0.652854	0.690112	0.017662	0.022286	0.089334	1.000000	0.000032	-0.000008	0.000041	-43.618025	-84.329864	45.294406
14851	9.927837	-0.623292	0.713336	-0.001288	0.056168	0.160082	1.000000	0.000028	0.000037	0.000037	-43.591660	-84.327407	45.270705
14852	9.929964	-0.632235	0.665932	0.047070	0.049386	0.159409	1.000000	0.000031	0.000027	0.000037	-43.597693	-84.322182	45.280272
14853	9.910674	-0.647972	0.668304	0.044007	0.032367	0.141456	1.000000	0.000033	0.000038	0.000042	-43.593239	-84.320581	45.274093
14854	9.856024	-0.655856	0.692444	0.017022	0.020898	0.089338	1.000000	0.000032	0.000024	0.000049	-43.611108	-84.314647	45.295598
14855	9.861188	-0.627143	0.663423	0.045390	0.050954	0.090434	1.000000	0.000034	0.000035	0.000054	-43.620910	-84.312927	45.307678
14856	9.859982	-0.623874	0.688018	0.021214	0.054352	0.090768	1.000000	0.000035	0.000017	0.000038	-43.635681	-84.308488	45.326339
14857	9.862941	-0.586838	0.706955	0.001540	0.091032	0.092537	1.000000	0.000053	0.000031	0.000060	-43.631854	-84.306056	45.334989
14858	9.863970	-0.591766	0.683465	0.025713	0.087642	0.092204	1.000000	0.000034	0.000019	0.000027	-43.634927	-84.302342	45.341851
14859	9.895895	-0.587955	0.734395	-0.022538	0.092193	0.127371	1.000000	0.000056	0.000037	0.000042	-43.611021	-84.299776	45.315942
14860	9.829569	-0.589259	0.682401	0.025278	0.088375	0.057717	1.000000	0.000035	0.000017	0.000038	-43.625649	-84.295326	45.334448
14861	9.838102	-0.634305	0.740612	-0.030926	0.042288	0.073483	1.000000	0.000028	0.000037	0.000036	-43.618635	-84.296214	45.328388
14862	9.862510	-0.590409	0.709984	0.000604	0.089390	0.092552	1.000000	0.000023	0.000034	0.000043	-43.625228	-84.290070	45.337465
14863	9.912792	-0.618120	0.692813	0.022048	0.065713	0.143251	1.000000	0.000019	0.000030	0.000049	-43.630146	-84.290635	45.345101
14864	9.928837	-0.641790	0.673546	0.043930	0.044496	0.159447	1.000000	0.000023	0.000050	0.000024	-43.608825	-84.284667	45.326121
14865	9.927628	-0.638238	0.698273	0.019590	0.046883	0.159782	1.000000	0.000011	0.000018	0.000038	-43.590828	-84.284926	45.310923
14866	9.854880	-0.665159	0.699819	0.014236	0.015718	0.089352	1.000000	0.000009	0.000026	0.000049	-43.611052	-84.278953	45.332050
14867	9.858984	-0.632255	0.694637	0.017877	0.048987	0.090802	1.000000	0.000017	0.000019	0.000044	-43.643617	-84.282410	45.364754
14868	9.887795	-0.666615	0.727171	-0.010887	0.016733	0.124176	1.000000	0.000010	0.000039	0.000042	-43.647777	-84.275919	45.369818
14869	9.855719	-0.671806	0.677462	0.036605	0.010578	0.089030	1.000000	0.000021	0.000022	0.000038	-43.649096	-84.277048	45.370158
14870	9.888735	-0.672246	0.704340	0.012652	0.012481	0.123850	1.000000	0.000018	0.000033	0.000037	-43.653528	-84.271532	45.376382
14871	9.874737	-0.658473	0.677115	0.039363	0.026108	0.107004	1.000000	0.000026	0.000042	0.000059	-43.622971	-84.265617	45.343085
14872	9.858490	-0.636401	0.697853	0.017449	0.047346	0.090811	1.000000	0.000021	0.000023	0.000038	-43.635431	-84.260831	45.357747
14873	9.840315	-0.656217	0.676023	0.037200	0.026870	0.072520	1.000000	0.000031	0.000027	0.000037	-43.689775	-84.266474	45.414560
14874	9.859467	-0.642091	0.674598	0.039689	0.043203	0.090495	1.000000	0.000042	-0.000006	0.000052	-43.734589	-84.263014	45.464161
14875	9.826292	-0.643179	0.648634	0.062376	0.040491	0.055691	1.000000	0.000028	0.000037	0.000036	-43.750464	-84.265553	45.488224
14876	9.893528	-0.647501	0.677909	0.038627	0.040879	0.124997	1.000000	0.000031	0.000027	0.000037	-43.759334	-84.260584	45.500403
14877	9.858086	-0.640144	0.700125	0.013538	0.045018	0.090828	1.000000	0.000035	0.000017	0.000038	-43.770377	-84.262065	45.514098
14878	9.878372	-0.630061	0.674888	0.040177	0.057948	0.108488	1.000000	0.000031	0.000027	0.000037	-43.779424	-84.257113	45.526442
14879	9.892143	-0.645436	0.703564	0.011900	0.042833	0.125326	1.000000	0.000028	0.000037	0.000036	-43.825226	-84.261359	45.568978
14880	9.873962	-0.665242	0.681789	0.033455	0.023118	0.107033	1.000000	0.000035	0.000017	0.000038	-43.843456	-84.257240	45.590887
14881	9.893115	-0.651002	0.680585	0.036490	0.038600	0.125014	1.000000	0.000031	0.000027	0.000037	-43.794018	-84.253419	45.548627
14882	9.888799	-0.685385	0.686749	0.031588	0.004452	0.123545	1.000000	0.000034	0.000019	0.000027	-43.800237	-84.249981	45.558397
14883	9.912207	-0.637252	0.679856	0.037365	0.054361	0.143004	1.000000	0.000021	0.000023	0.000038	-43.854778	-84.253873	45.602327
14884	9.872523	-0.663559	0.707697	0.008036	0.025142	0.107351	1.000000	0.000034	0.000019	0.000027	-43.861718	-84.250485	45.612718
14885	9.897079	-0.619601	0.676771	0.038474	0.071520	0.126503	1.000000	0.000021	0.000023	0.000038	-43.890538	-84.252923	45.643807
14886	9.876614	-0.631123	0.703015	0.011669	0.058621	0.108829	1.000000	0.000036	0.000028	0.000043	-43.904238	-84.247569	45.661309
14887	9.876514	-0.631914	0.703711	0.011737	0.057816	0.108833	1.000000	0.000033	0.000038	0.000042	-43.869186	-84.244103	45.635291
14888	9.861450	-0.613699	0.700278	0.013941	0.075665	0.092326	1.000000	0.000024	0.000015	0.000027	-43.881323	-84.241070	45.649789
14889	9.892480	-0.656297	0.684715	0.032414	0.035782	0.125038	1.000000	0.000042	0.000029	0.000049	-43.906472	-84.242578	45.687517
14890	9.860147	-0.610907	0.725301	-0.011439	0.078277	0.092640	1.000000	0.000034	0.000019	0.000027	-43.913921	-84.239262	45.698487
14891	9.828142	-0.615988	0.675393	0.035569	0.072300	0.057544	1.000000	0.000027	0.000024	0.000043	-43.946568	-84.241344	45.731005
14892	9.876108	-0.635297	0.706355	0.009191	0.056341	0.108844	1.000000	0.000022	0.000036	0.000031	-43.946017	-84.236349	45.732585
14893	9.861049	-0.617019	0.702997	0.010695	0.073513	0.092346	1.000000	0.000026	0.000026	0.000032	-43.955394	-84.237740	45.736461
14894	9.842874	-0.636721	0.681198	0.032221	0.053805	0.074055	1.000000	0.000026	0.000026	0.000032	-43.963442	-84.233522	45.747037
14895	9.878169	-0.645503	0.660007	0.055005	0.048158	0.108259	1.000000	0.000021	0.000023	0.000038	-44.012627	-84.238102	45.796916
14896	9.896190	-0.626991	0.682947	0.033212	0.067887	0.126548	1.000000	0.000017	0.000035	0.000025	-44.009810	-84.233715	45.795521
14897	9.863048	-0.627841	0.657091	0.057019	0.065364	0.091763	1.000000	0.000025	0.000012	0.000039	-44.010626	-84.232918	45.783820
14898	9.843721	-0.643474	0.659195	0.054357	0.049068	0.073772	1.000000	0.000031	0.000027	0.000037	-44.022472	-84.228218	45.798735
14899	9.871262	-0.673515	0.715838	0.000363	0.019647	0.107367	1.000000	0.000031	0.000027	0.000037	-44.047936	-84.229460	45.808686
14900	9.891582	-0.663552	0.690675	0.026917	0.032547	0.125066	1.000000	0.000027	0.000024	0.000043	-44.068351	-84.224577	45.831590
14901	9.875366	-0.641303	0.711281	0.003756	0.053305	0.108865	1.000000	0.000023	0.000034	0.000043	-44.108954	-84.225915	45.854659
14902	9.876423	-0.646365	0.687868	0.027772	0.049892	0.108574	1.000000	0.000032	0.000025	0.000049	-44.132980	-84.220529	45.881706
14903	9.896744	-0.636580	0.662694	0.053942	0.062116	0.126285	1.000000	0.000032	0.000025	0.000049	-44.146414	-84.219419	45.892335
14904	9.875070	-0.644014	0.712943	0.002914	0.052702	0.108868	1.000000	0.000032	0.000025	0.000049	-44.170500	-84.214035	45.919397
14905	9.895388	-0.634227	0.687867	0.027735	0.065020	0.126584	1.000000	0.000028	0.000035	0.000048	-44.235691	-84.217246	45.979885
14906	9.896440	-0.639466	0.664446	0.051729	0.061604	0.126299	1.000000	0.000033	0.000022	0.000061	-44.271810	-84.211191	46.019080
14907	9.875912	-0.651020	0.690807	0.023780	0.048031	0.108594	1.000000	0.000032	0.000041	0.000030	-44.283976	-84.213416	46.040907
14908	9.896235	-0.641112	0.665906	0.050291	0.060917	0.126311	1.000000	0.000034	0.000036	0.000054	-44.303899	-84.206848	46.063951
14909	9.860754	-0.633843	0.688196	0.025019	0.065237	0.092107	1.000000	0.000026	0.000024	0.000043	-44.329402	-84.207923	46.090741
14910	9.860660	-0.634656	0.688792	0.024829	0.065258	0.092108	1.000000	0.000023	0.000034	0.000042	-44.343253	-84.202435	46.106415
14911	9.859377	-0.631411	0.713592	0.000143	0.068074	0.092391	1.000000	0.000026	0.000042	0.000059	-44.351657	-84.198962	46.107889
14912	9.860436	-0.636421	0.690364	0.024120	0.064656	0.092113	1.000000	0.000017	0.000035	0.000025	-44.351155	-84.194735	46.108355
14913	9.856018	-0.670778	0.696722	0.018632	0.029929	0.090606	1.000000	0.000031	0.000027	0.000037	-44.359083	-84.194394	46.105525
14914	9.894466	-0.641805	0.694071	0.023498	0.062546	0.126610	1.000000	0.000015	0.000040	0.000048	-44.372954	-84.187952	46.120178
14915	9.855808	-0.672452	0.698076	0.018168	0.029376	0.090609	1.000000	0.000026	0.000024	0.000043	-44.375026	-84.186025	46.110877
14916	9.860057	-0.639430	0.692994	0.022873	0.063547	0.092124	1.000000	0.000028	0.000037	0.000036	-44.380899	-84.180728	46.118857
14917	9.874889	-0.659059	0.697773	0.019010	0.045130	0.108617	1.000000	0.000023	0.000034	0.000042	-44.425758	-84.182970	46.161963
14918	9.874790	-0.659861	0.698422	0.018804	0.045158	0.108618	1.000000	0.000036	0.000028	0.000043	-44.443516	-84.177937	46.182875
14919	9.855405	-0.675532	0.700794	0.015329	0.028188	0.090617	1.000000	0.000033	0.000038	0.000042	-44.455519	-84.178065	46.204985
14920	9.873406	-0.657281	0.723803	-0.006521	0.047961	0.108891	1.000000	0.000032	0.000025	0.000049	-44.481573	-84.172852	46.233732
14921	9.874499	-0.662210	0.700312	0.016697	0.043851	0.108627	1.000000	0.000020	0.000025	0.000026	-44.493599	-84.175244	46.253433
14922	9.857153	-0.635592	0.744521	-0.029485	0.068634	0.092674	1.000000	0.000042	-0.000006	0.000052	-44.544765	-84.172303	46.308638
14923	9.859433	-0.644803	0.696881	0.017398	0.061147	0.092150	1.000000	0.000032	0.000041	0.000030	-44.570618	-84.174824	46.338569
14924	9.878630	-0.630617	0.695881	0.019691	0.077464	0.110158	1.000000	0.000026	0.000024	0.000043	-44.594177	-84.170207	46.364180
14925	9.841140	-0.665399	0.675760	0.037775	0.040880	0.073887	1.000000	0.000036	0.000028	0.000043	-44.624205	-84.170948	46.390262
14926	9.857978	-0.642744	0.722744	-0.008272	0.064109	0.092414	1.000000	0.000035	0.000031	0.000031	-44.631813	-84.166767	46.400834
14927	9.894472	-0.655878	0.677625	0.040124	0.055011	0.126392	1.000000	0.000034	0.000017	0.000038	-44.624362	-84.165206	46.392627
14928	9.878289	-0.633440	0.698147	0.018104	0.076352	0.110170	1.000000	0.000028	0.000037	0.000036	-44.631635	-84.160058	46.401923
14929	9.877021	-0.629786	0.722808	-0.007049	0.079289	0.110431	1.000000	0.000020	0.000025	0.000026	-44.651320	-84.162097	46.412887
14930	9.873747	-0.668251	0.705161	0.011968	0.041713	0.108643	1.000000	0.000040	0.000034	0.000025	-44.650975	-84.158130	46.415917
14931	9.879238	-0.639419	0.675932	0.040081	0.071702	0.109930	1.000000	0.000035	0.000015	0.000050	-44.687067	-84.159637	46.469818
14932	9.897276	-0.621025	0.698654	0.018188	0.091473	0.128196	1.000000	0.000034	0.000020	0.000027	-44.700244	-84.156769	46.485735
14933	9.879094	-0.640716	0.676815	0.037977	0.071174	0.109942	1.000000	0.000031	0.000027	0.000037	-44.760688	-84.161318	46.546544
14934	9.877826	-0.637172	0.701306	0.013551	0.074662	0.110190	1.000000	0.000034	0.000017	0.000038	-44.785579	-84.157762	46.574320
14935	9.844741	-0.637972	0.675334	0.036098	0.072298	0.075461	1.000000	0.000020	0.000025	0.000026	-44.828943	-84.161627	46.603893
14936	9.892582	-0.657275	0.706341	0.009387	0.056363	0.126671	1.000000	0.000021	0.000023	0.000038	-44.851017	-84.157683	46.627225
14937	9.874386	-0.676963	0.684648	0.033167	0.036020	0.108407	1.000000	0.000027	0.000040	0.000025	-44.725781	-84.146378	46.479202
14938	9.893611	-0.662702	0.683529	0.035448	0.052332	0.126424	1.000000	0.000025	0.000013	0.000039	-44.755234	-84.143083	46.510281
14939	9.877444	-0.640195	0.703918	0.012608	0.073159	0.110203	1.000000	0.000035	0.000031	0.000031	-44.777227	-84.144554	46.526513
14940	9.897862	-0.630230	0.678851	0.039047	0.085987	0.127975	1.000000	0.000031	0.000027	0.000037	-44.793603	-84.140209	46.545146
14941	9.878476	-0.645782	0.681000	0.035901	0.069116	0.109964	1.000000	0.000034	0.000017	0.000038	-44.809083	-84.140676	46.562647
14942	9.864706	-0.631904	0.653239	0.062219	0.083520	0.093250	1.000000	0.000030	0.000014	0.000044	-44.841880	-84.136872	46.597652
14943	9.875930	-0.638812	0.729756	-0.014019	0.075391	0.110454	1.000000	0.000021	0.000023	0.000038	-44.877830	-84.140267	46.652794
14944	9.897526	-0.633276	0.680912	0.036566	0.084743	0.127995	1.000000	0.000031	0.000059	0.000046	-44.875572	-84.132667	46.652780
14945	9.863215	-0.630106	0.679256	0.035288	0.085853	0.093514	1.000000	0.000035	0.000015	0.000050	-44.930897	-84.134131	46.694924
14946	9.863137	-0.630945	0.679610	0.035018	0.085884	0.093514	1.000000	0.000011	0.000018	0.000038	-44.957883	-84.130494	46.721909
14947	9.864247	-0.635959	0.656237	0.059024	0.081728	0.093285	1.000000	0.000043	0.000043	0.000041	-44.931982	-84.127102	46.705405
14948	9.879034	-0.655613	0.661030	0.056340	0.063898	0.109754	1.000000	0.000021	0.000023	0.000038	-44.953796	-84.123136	46.728341
14949	9.897064	-0.637206	0.683947	0.033507	0.083072	0.128020	1.000000	0.000041	0.000032	0.000037	-44.979884	-84.124792	46.757930
14950	9.882099	-0.618975	0.680464	0.035650	0.100965	0.111554	1.000000	0.000031	0.000027	0.000037	-44.996918	-84.120529	46.777188
14951	9.910564	-0.653290	0.713189	0.006389	0.068167	0.144723	1.000000	0.000040	0.000018	0.000044	-45.002417	-84.118930	46.773833
14952	9.909252	-0.649749	0.737984	-0.018048	0.071692	0.144953	1.000000	0.000021	0.000058	0.000034	-44.994464	-84.112433	46.766731
14953	9.858032	-0.669812	0.690089	0.025505	0.049527	0.091987	1.000000	0.000042	0.000029	0.000048	-45.074858	-84.116807	46.846463
14954	9.861182	-0.632706	0.708791	0.006006	0.087188	0.093773	1.000000	0.000035	0.000015	0.000050	-45.111736	-84.112580	46.886095
14955	9.877174	-0.656644	0.689449	0.025128	0.065451	0.110022	1.000000	0.000045	0.000035	0.000031	-45.197808	-84.119255	46.957353
14956	9.856546	-0.667868	0.715752	-0.001863	0.052720	0.092213	1.000000	0.000026	0.000024	0.000043	-45.224170	-84.114884	46.985309
14957	9.862130	-0.639224	0.686456	0.027012	0.082785	0.093566	1.000000	0.000026	0.000024	0.000043	-45.225626	-84.112830	46.980853
14958	9.896229	-0.644140	0.689517	0.026782	0.081226	0.128056	1.000000	0.000023	0.000034	0.000042	-45.243578	-84.107714	46.999918
14959	9.861939	-0.640773	0.687744	0.025615	0.082357	0.093573	1.000000	0.000041	0.000032	0.000037	-45.271676	-84.108519	47.011615
14960	9.861858	-0.641461	0.688273	0.025302	0.082394	0.093573	1.000000	0.000034	0.000017	0.000038	-45.298520	-84.105109	47.040875
14961	9.875412	-0.656901	0.716917	-0.003298	0.067674	0.110249	1.000000	0.000042	0.000029	0.000048	-45.377637	-84.108356	47.100635
14962	9.895846	-0.647141	0.692196	0.023062	0.080451	0.128072	1.000000	0.000030	0.000062	0.000034	-45.366623	-84.101724	47.091303
14963	9.842218	-0.658579	0.692127	0.018474	0.065352	0.075558	1.000000	0.000020	0.000009	0.000045	-45.459344	-84.107111	47.172442
14964	9.876332	-0.663483	0.694943	0.018189	0.063793	0.110048	1.000000	0.000021	0.000023	0.000038	-45.483959	-84.103366	47.197783
14965	9.860176	-0.640963	0.715332	-0.004494	0.084728	0.093796	1.000000	0.000031	0.000027	0.000037	-45.512936	-84.104164	47.211429
14966	9.860088	-0.641717	0.715872	-0.004838	0.084770	0.093795	1.000000	0.000026	0.000024	0.000043	-45.540677	-84.099892	47.240481
14967	9.841876	-0.661577	0.694123	0.015823	0.064439	0.075569	1.000000	0.000018	0.000033	0.000037	-45.561608	-84.100305	47.253277
14968	9.875989	-0.666307	0.697105	0.015518	0.062879	0.110059	1.000000	0.000024	0.000015	0.000027	-45.584018	-84.098077	47.276610
14969	9.895252	-0.652205	0.695921	0.018706	0.078681	0.128095	1.000000	0.000042	0.000029	0.000048	-45.551512	-84.091251	47.214170
14970	9.875815	-0.667798	0.698146	0.015819	0.062467	0.110061	1.000000	0.000044	0.000022	0.000038	-45.574424	-84.087587	47.240307
14971	9.859683	-0.645163	0.718351	-0.006420	0.083346	0.093806	1.000000	0.000014	0.000011	0.000028	-45.589648	-84.089151	47.250867
14972	9.880185	-0.635219	0.693173	0.019936	0.096080	0.111647	1.000000	0.000022	0.000036	0.000031	-45.598007	-84.084882	47.259783
14973	9.859521	-0.646344	0.719500	-0.008636	0.082909	0.093808	1.000000	0.000031	0.000027	0.000037	-45.661254	-84.089096	47.325380
14974	9.861892	-0.655707	0.671994	0.039314	0.075817	0.093430	1.000000	0.000040	0.000018	0.000044	-45.692589	-84.085252	47.359416
14975	9.879934	-0.637369	0.694772	0.017137	0.095137	0.111661	1.000000	0.000021	0.000023	0.000038	-45.706806	-84.084773	47.361757
14976	9.878606	-0.633860	0.719424	-0.007368	0.098758	0.111848	1.000000	0.000038	0.000039	0.000047	-45.724346	-84.078929	47.381707
14977	9.879744	-0.638856	0.696101	0.015708	0.094750	0.111667	1.000000	0.000020	0.000025	0.000026	-45.751860	-84.080931	47.390957
14978	9.879667	-0.639446	0.696653	0.015349	0.094796	0.111667	1.000000	0.000031	0.000027	0.000037	-45.772163	-84.076910	47.412775
14979	9.864767	-0.621286	0.692781	0.016455	0.112192	0.095225	1.000000	0.000023	-0.000001	0.000046	-45.847771	-84.080858	47.479676
14980	9.898873	-0.626283	0.695641	0.016105	0.110628	0.129714	1.000000	0.000023	0.000034	0.000042	-45.867914	-84.075908	47.500374
14981	9.880656	-0.646133	0.673947	0.036786	0.090225	0.111504	1.000000	0.000031	0.000027	0.000037	-45.888267	-84.076656	47.522733
14982	9.845154	-0.638345	0.696015	0.012256	0.095475	0.077192	1.000000	0.000031	0.000027	0.000037	-45.908961	-84.072671	47.544884
14983	9.880480	-0.647515	0.675204	0.034160	0.089820	0.111517	1.000000	0.000027	0.000037	0.000036	-45.981148	-84.077478	47.614458
14984	9.859804	-0.658562	0.701416	0.007081	0.077213	0.093645	1.000000	0.000024	0.000015	0.000027	-46.005018	-84.075350	47.638920
14985	9.899684	-0.634035	0.674622	0.035437	0.105547	0.129569	1.000000	0.000028	0.000035	0.000048	-46.026359	-84.074499	47.659297
14986	9.893810	-0.664256	0.704967	0.005808	0.075080	0.128139	1.000000	0.000024	0.000013	0.000039	-46.061122	-84.071612	47.694794
14987	9.845961	-0.646264	0.674828	0.032590	0.090400	0.077042	1.000000	0.000038	0.000039	0.000047	-46.039180	-84.066715	47.650585
14988	9.860680	-0.666009	0.679617	0.029650	0.072584	0.093488	1.000000	0.000034	0.000017	0.000038	-46.068688	-84.063496	47.681902
14989	9.879966	-0.652002	0.678399	0.031290	0.088263	0.111540	1.000000	0.000026	0.000024	0.000043	-46.096570	-84.064013	47.710198
14990	9.879880	-0.652696	0.678979	0.030902	0.088311	0.111541	1.000000	0.000035	0.000031	0.000031	-46.109884	-84.060310	47.725340
14991	9.845612	-0.649255	0.677046	0.030450	0.089342	0.077059	1.000000	0.000032	0.000025	0.000049	-46.121340	-84.058637	47.733909
14992	9.880949	-0.658470	0.656159	0.054195	0.084153	0.111387	1.000000	0.000030	0.000030	0.000026	-46.131769	-84.055477	47.745510
14993	9.845450	-0.650640	0.678058	0.029544	0.088753	0.077067	1.000000	0.000049	0.000009	0.000050	-46.154399	-84.055318	47.780732
14994	9.863489	-0.632330	0.700946	0.007561	0.108655	0.095275	1.000000	0.000037	0.000042	0.000036	-46.162095	-84.050352	47.790436
14995	9.879451	-0.656318	0.681729	0.028539	0.086580	0.111563	1.000000	0.000024	0.000013	0.000039	-46.180864	-84.051018	47.816119
14996	9.864572	-0.638061	0.678012	0.030715	0.104493	0.095125	1.000000	0.000041	0.000032	0.000037	-46.196935	-84.046779	47.834630
14997	9.858651	-0.668165	0.708513	0.000008	0.073435	0.093676	1.000000	0.000036	0.000028	0.000043	-46.241583	-84.049010	47.890994
14998	9.864394	-0.639550	0.679197	0.028866	0.103981	0.095135	1.000000	0.000021	0.000023	0.000038	-46.267977	-84.045423	47.917585
14999	9.879095	-0.659258	0.684043	0.026043	0.085502	0.111579	1.000000	0.000033	0.000038	0.000042	-46.252988	-84.042505	47.908905
15000	9.875263	-0.646850	0.756536	-0.046789	0.096378	0.112034	1.000000	0.000037	0.000010	0.000028	-46.280301	-84.040817	47.938245
15001	9.862906	-0.637176	0.704753	0.003240	0.106355	0.095302	1.000000	0.000031	0.000027	0.000037	-46.291805	-84.041612	47.963740
15002	9.898243	-0.646436	0.683938	0.026957	0.101163	0.129641	1.000000	0.000018	0.000033	0.000037	-46.309738	-84.037312	47.981430
15003	9.877508	-0.657506	0.710320	-0.001042	0.087962	0.111742	1.000000	0.000051	0.000036	0.000036	-46.336115	-84.038991	48.012999
15004	9.861372	-0.634918	0.730739	-0.023021	0.109485	0.095452	1.000000	0.000026	0.000024	0.000043	-46.365435	-84.034888	48.043145
15005	9.878582	-0.663285	0.687557	0.020569	0.083810	0.111607	1.000000	0.000035	0.000031	0.000031	-46.426139	-84.040616	48.120476
15006	9.862467	-0.640546	0.707833	-0.001421	0.105329	0.095314	1.000000	0.000029	0.000016	0.000033	-46.453597	-84.038053	48.149052
15007	9.878414	-0.664556	0.688744	0.018630	0.083159	0.111616	1.000000	0.000029	0.000049	0.000041	-46.478656	-84.039628	48.195443
15008	9.847505	-0.622894	0.704950	-0.000800	0.122546	0.078889	1.000000	0.000024	0.000015	0.000027	-46.503525	-84.037640	48.220824
15009	9.863486	-0.646711	0.685567	0.020410	0.100473	0.095193	1.000000	0.000033	0.000020	0.000027	-46.497667	-84.037943	48.210010
15010	9.863413	-0.647417	0.685951	0.019988	0.100515	0.095193	1.000000	0.000035	0.000015	0.000050	-46.538712	-84.034081	48.252985
15011	9.876854	-0.662727	0.714553	-0.007172	0.085695	0.111759	1.000000	0.000033	0.000020	0.000027	-46.538193	-84.034471	48.238959
15012	9.849755	-0.634105	0.658624	0.045862	0.114269	0.078641	1.000000	0.000031	0.000027	0.000037	-46.560153	-84.030671	48.262213
15013	9.882574	-0.634655	0.685811	0.019682	0.115725	0.113269	1.000000	0.000041	0.000032	0.000037	-46.622202	-84.035011	48.317854
15014	9.863100	-0.650023	0.687993	0.016726	0.099535	0.095209	1.000000	0.000029	0.000016	0.000033	-46.650174	-84.032506	48.346898
15015	9.881169	-0.631524	0.710674	-0.004546	0.118698	0.113403	1.000000	0.000029	0.000016	0.000033	-46.618390	-84.030094	48.319744
15016	9.862957	-0.651262	0.688871	0.016649	0.098894	0.095216	1.000000	0.000041	0.000032	0.000037	-46.635393	-84.026002	48.339128
15017	9.881011	-0.632857	0.711676	-0.004922	0.118024	0.113411	1.000000	0.000024	0.000013	0.000039	-46.622296	-84.024612	48.334930
15018	9.877564	-0.671523	0.694150	0.013687	0.080345	0.111647	1.000000	0.000027	0.000040	0.000025	-46.625132	-84.020890	48.338442
15019	9.882129	-0.638483	0.688664	0.018572	0.113865	0.113293	1.000000	0.000023	-0.000001	0.000046	-46.645990	-84.020590	48.353989
15020	9.847892	-0.635011	0.686379	0.018221	0.115554	0.078806	1.000000	0.000031	0.000027	0.000037	-46.667735	-84.016793	48.376985
15021	9.880711	-0.635520	0.713467	-0.007863	0.116910	0.113422	1.000000	0.000039	0.000021	0.000032	-46.726045	-84.022323	48.440079
15022	9.881907	-0.640487	0.689989	0.015850	0.113333	0.113304	1.000000	0.000026	0.000026	0.000032	-46.745327	-84.019108	48.459973
15023	9.867058	-0.622193	0.686416	0.017755	0.130601	0.096892	1.000000	0.000033	0.000039	0.000042	-46.749740	-84.017974	48.457895
15024	9.901144	-0.627218	0.689453	0.017240	0.128988	0.131379	1.000000	0.000028	0.000003	0.000040	-46.793676	-84.015949	48.502834
15025	9.877008	-0.676349	0.697369	0.008402	0.078097	0.111671	1.000000	0.000031	0.000027	0.000037	-46.825976	-84.017754	48.524546
15026	9.881566	-0.643331	0.692228	0.013099	0.112239	0.113320	1.000000	0.000024	0.000048	0.000035	-46.831330	-84.012591	48.530219
15027	9.882739	-0.648525	0.668950	0.037251	0.107877	0.113217	1.000000	0.000022	0.000021	0.000049	-46.820995	-84.009935	48.532033
15028	9.867902	-0.630362	0.665197	0.039428	0.125794	0.096801	1.000000	0.000031	0.000027	0.000037	-46.842979	-84.006187	48.555235
15029	9.881289	-0.645645	0.694022	0.011143	0.110844	0.113338	1.000000	0.000031	0.000027	0.000037	-46.882268	-84.009731	48.612142
15030	9.882479	-0.650796	0.670586	0.034846	0.107258	0.113233	1.000000	0.000026	0.000024	0.000043	-46.912223	-84.005770	48.642853
15031	9.848214	-0.647308	0.668734	0.034196	0.108289	0.078756	1.000000	0.000029	0.000049	0.000041	-46.909565	-84.004187	48.634135
15032	9.880996	-0.647932	0.696063	0.009509	0.110291	0.113346	1.000000	0.000021	0.000023	0.000038	-46.936792	-84.000782	48.661464
15033	9.862773	-0.667737	0.674274	0.031013	0.089747	0.095178	1.000000	0.000031	0.000027	0.000037	-46.918502	-83.999001	48.649595
15034	9.880826	-0.649327	0.697178	0.008942	0.109629	0.113354	1.000000	0.000031	0.000027	0.000037	-46.940521	-83.995283	48.672834
15035	9.866001	-0.631092	0.693449	0.010473	0.126849	0.096951	1.000000	0.000026	0.000024	0.000043	-46.971651	-83.996830	48.706339
15036	9.880646	-0.650825	0.698320	0.007409	0.108999	0.113362	1.000000	0.000041	0.000032	0.000037	-46.988692	-83.992820	48.725715
15037	9.881844	-0.655848	0.675011	0.030480	0.104702	0.113275	1.000000	0.000035	0.000031	0.000031	-47.003444	-83.994807	48.743555
15038	9.881755	-0.656529	0.675645	0.030032	0.104735	0.113276	1.000000	0.000036	0.000028	0.000043	-47.028330	-83.990570	48.770296
15039	9.862242	-0.672036	0.677766	0.026695	0.087919	0.095207	1.000000	0.000030	0.000014	0.000044	-47.060590	-83.991595	48.790683
15040	9.901011	-0.643410	0.674995	0.031269	0.120383	0.131363	1.000000	0.000027	0.000038	0.000036	-47.074372	-83.987208	48.805213
15041	9.860770	-0.669062	0.702971	0.001651	0.090941	0.095306	1.000000	0.000031	0.000027	0.000037	-47.072212	-83.986532	48.799252
15042	9.848532	-0.659561	0.651412	0.052120	0.101578	0.078719	1.000000	0.000051	0.000036	0.000036	-47.084252	-83.982240	48.814701
15043	9.881306	-0.660124	0.678705	0.027104	0.102868	0.113303	1.000000	0.000031	0.000027	0.000037	-47.093014	-83.982802	48.825398
15044	9.850486	-0.618341	0.694713	0.007791	0.142315	0.080580	1.000000	0.000035	0.000031	0.000031	-47.107398	-83.979375	48.841436
15045	9.879845	-0.657022	0.703838	0.001784	0.105896	0.113399	1.000000	0.000040	0.000018	0.000044	-47.128028	-83.979905	48.857869
15046	9.881055	-0.662130	0.680399	0.025471	0.102279	0.113314	1.000000	0.000035	0.000031	0.000031	-47.142411	-83.976486	48.873893
15047	9.884413	-0.624620	0.698826	0.005058	0.139443	0.115084	1.000000	0.000032	0.000006	0.000034	-47.198716	-83.981305	48.918214
15048	9.864892	-0.640049	0.700983	0.002086	0.123265	0.097001	1.000000	0.000038	0.000040	0.000047	-47.217969	-83.975855	48.939433
15049	9.879516	-0.659728	0.705920	-0.001956	0.104788	0.113410	1.000000	0.000033	0.000020	0.000026	-47.255662	-83.980061	48.963611
15050	9.882871	-0.622083	0.724559	-0.021378	0.142576	0.115168	1.000000	0.000027	0.000040	0.000024	-47.259283	-83.976530	48.967743
15051	9.864644	-0.641766	0.702896	-0.000209	0.122117	0.097016	1.000000	0.000021	0.000023	0.000038	-47.265652	-83.976032	48.954750
15052	9.897418	-0.642374	0.729956	-0.024958	0.124139	0.131574	1.000000	0.000034	0.000017	0.000038	-47.296514	-83.973111	48.987128
15053	9.867092	-0.651987	0.655855	0.047477	0.114074	0.096878	1.000000	0.000026	0.000026	0.000032	-47.273799	-83.972011	48.973156
15054	9.863106	-0.639388	0.728306	-0.025392	0.125117	0.097096	1.000000	0.000026	0.000024	0.000043	-47.303799	-83.968137	49.003752
15055	9.879011	-0.663687	0.709270	-0.005111	0.103059	0.113427	1.000000	0.000028	0.000035	0.000048	-47.341326	-83.968276	49.010519
15056	9.867679	-0.607287	0.723288	-0.021812	0.158753	0.098788	1.000000	0.000030	-0.000005	0.000029	-47.383696	-83.967869	49.053963
15057	9.864169	-0.646110	0.705580	-0.003959	0.120427	0.097036	1.000000	0.000042	0.000030	0.000048	-47.417734	-83.968177	49.065967
15058	9.865377	-0.651220	0.682340	0.019705	0.116757	0.096971	1.000000	0.000027	0.000040	0.000024	-47.421431	-83.964672	49.070044
15059	9.884745	-0.637261	0.681215	0.020811	0.132257	0.115072	1.000000	0.000025	0.000011	0.000050	-47.479725	-83.967977	49.144520
15060	9.850515	-0.633737	0.678961	0.020510	0.133974	0.080588	1.000000	0.000031	0.000028	0.000037	-47.502355	-83.964394	49.168134
15061	9.863827	-0.648890	0.707812	-0.007100	0.119122	0.097050	1.000000	0.000020	0.000025	0.000026	-47.507846	-83.966106	49.171047
15062	9.902655	-0.620225	0.705016	-0.002525	0.151544	0.133233	1.000000	0.000026	0.000024	0.000043	-47.538198	-83.962282	49.201885
15063	9.884420	-0.640024	0.683335	0.017488	0.130909	0.115096	1.000000	0.000022	0.000037	0.000031	-47.567428	-83.966061	49.244606
15064	9.899037	-0.659574	0.688209	0.014303	0.113044	0.131488	1.000000	0.000024	0.000015	0.000027	-47.593406	-83.964316	49.270734
15065	9.868280	-0.617816	0.703851	-0.004965	0.151854	0.098769	1.000000	0.000035	0.000015	0.000050	-47.614540	-83.964103	49.276321
15066	9.869494	-0.623064	0.680539	0.018686	0.148176	0.098718	1.000000	0.000024	0.000048	0.000035	-47.620382	-83.959162	49.282238
15067	9.885404	-0.647227	0.661537	0.039204	0.125771	0.115071	1.000000	0.000024	0.000013	0.000039	-47.641552	-83.961740	49.327006
15068	9.903486	-0.628794	0.684174	0.017102	0.145683	0.133216	1.000000	0.000029	0.000016	0.000033	-47.670120	-83.959457	49.356364
15069	9.848492	-0.635326	0.707550	-0.010050	0.134201	0.080691	1.000000	0.000026	0.000024	0.000043	-47.684727	-83.959663	49.364725
15070	9.865720	-0.663954	0.664441	0.035017	0.108929	0.096987	1.000000	0.000039	0.000021	0.000032	-47.708221	-83.957084	49.390107
15071	9.848332	-0.636716	0.708519	-0.011090	0.133458	0.080700	1.000000	0.000026	0.000024	0.000043	-47.713078	-83.957027	49.398660
15072	9.883705	-0.646317	0.687736	0.012357	0.128075	0.115141	1.000000	0.000021	0.000023	0.000038	-47.740792	-83.953807	49.426226
15073	9.865483	-0.666137	0.665764	0.034030	0.107390	0.097008	1.000000	0.000038	0.000007	0.000039	-47.728409	-83.953192	49.417346
15074	9.868879	-0.628701	0.684263	0.014649	0.145197	0.098769	1.000000	0.000037	0.000042	0.000036	-47.737333	-83.948667	49.427913
15075	9.863990	-0.663043	0.690951	0.009370	0.110392	0.097059	1.000000	0.000021	0.000023	0.000038	-47.721060	-83.947119	49.400073
15076	9.902851	-0.634422	0.688160	0.013928	0.142784	0.133263	1.000000	0.000025	0.000027	0.000032	-47.740737	-83.944141	49.420064
15077	9.883292	-0.649690	0.690485	0.009808	0.125848	0.115172	1.000000	0.000027	0.000038	0.000036	-47.773084	-83.947443	49.462034
15078	9.863725	-0.665069	0.692786	0.006807	0.109680	0.097069	1.000000	0.000026	0.000024	0.000043	-47.803197	-83.943681	49.492619
15079	9.884432	-0.655661	0.667715	0.032531	0.121478	0.115148	1.000000	0.000031	0.000028	0.000037	-47.821091	-83.944969	49.492800
15080	9.884349	-0.656365	0.668250	0.032042	0.121494	0.115150	1.000000	0.000021	0.000023	0.000038	-47.848631	-83.941772	49.520149
15081	9.862133	-0.662853	0.718396	-0.019288	0.112000	0.097117	1.000000	0.000042	0.000030	0.000048	-47.852178	-83.940842	49.518878
15082	9.884163	-0.657845	0.669548	0.031000	0.120752	0.115162	1.000000	0.000027	0.000040	0.000024	-47.855875	-83.937465	49.522895
15083	9.868102	-0.634928	0.689704	0.008149	0.141686	0.098827	1.000000	0.000024	0.000013	0.000039	-47.908960	-83.941848	49.564230
15084	9.884009	-0.659146	0.670544	0.029033	0.120072	0.115176	1.000000	0.000031	0.000028	0.000037	-47.931512	-83.938375	49.587682
15085	9.867945	-0.636276	0.690709	0.007488	0.140957	0.098838	1.000000	0.000025	0.000027	0.000032	-47.912805	-83.937738	49.551471
15086	9.897177	-0.674986	0.699925	0.001480	0.105174	0.131584	1.000000	0.000034	0.000017	0.000038	-47.943691	-83.934955	49.583680
15087	9.867786	-0.637670	0.691682	0.007041	0.140109	0.098850	1.000000	0.000036	0.000029	0.000043	-47.914121	-83.932689	49.565589
15088	9.882349	-0.657457	0.696605	0.003794	0.122221	0.115222	1.000000	0.000021	0.000023	0.000038	-47.941386	-83.929512	49.592630
15089	9.868956	-0.643507	0.668774	0.029473	0.135602	0.098841	1.000000	0.000020	0.000026	0.000026	-47.959407	-83.933285	49.617959
15090	9.868872	-0.644198	0.669359	0.028981	0.135612	0.098843	1.000000	0.000042	0.000030	0.000048	-47.986833	-83.928711	49.647551
15091	9.886938	-0.625962	0.692144	0.006451	0.154757	0.116988	1.000000	0.000030	0.000014	0.000044	-48.015754	-83.930735	49.677052
15092	9.879353	-0.651335	0.746490	-0.047578	0.128170	0.115274	1.000000	0.000039	0.000021	0.000032	-48.038851	-83.928232	49.701962
15093	9.868633	-0.646405	0.670750	0.026954	0.134100	0.098869	1.000000	0.000031	0.000028	0.000037	-48.039869	-83.928634	49.696040
15094	9.851231	-0.619062	0.714965	-0.019021	0.159501	0.082532	1.000000	0.000027	0.000038	0.000036	-48.053622	-83.924501	49.710226
15095	9.886620	-0.628685	0.694226	0.003484	0.153192	0.117014	1.000000	0.000038	0.000007	0.000039	-48.098542	-83.929321	49.767246
15096	9.853756	-0.629464	0.667869	0.027366	0.151191	0.082522	1.000000	0.000021	0.000023	0.000038	-48.125904	-83.926197	49.794378
15097	9.865626	-0.640312	0.720739	-0.024764	0.139956	0.098914	1.000000	0.000042	0.000030	0.000048	-48.149327	-83.927535	49.824713
15098	9.886365	-0.630879	0.695861	0.001373	0.152388	0.117027	1.000000	0.000027	0.000040	0.000024	-48.152987	-83.924256	49.828667
15099	9.886282	-0.631459	0.696517	0.000802	0.151608	0.117038	1.000000	0.000021	0.000023	0.000038	-48.156477	-83.924943	49.824277
15100	9.850728	-0.623276	0.718228	-0.023559	0.157101	0.082560	1.000000	0.000026	0.000024	0.000043	-48.186370	-83.921282	49.854563
15101	9.866609	-0.647637	0.699180	-0.002785	0.134663	0.098928	1.000000	0.000026	0.000024	0.000043	-48.192140	-83.921436	49.852629
15102	9.869198	-0.657455	0.651876	0.044959	0.127157	0.098925	1.000000	0.000023	0.000034	0.000042	-48.213483	-83.917093	49.873907
15103	9.885925	-0.634544	0.698772	-0.000447	0.150043	0.117062	1.000000	0.000025	0.000027	0.000031	-48.172939	-83.914846	49.813941
15104	9.866334	-0.649889	0.700973	-0.003469	0.133883	0.098938	1.000000	0.000032	0.000025	0.000049	-48.205075	-83.910624	49.847064
15105	9.887088	-0.640616	0.675976	0.022231	0.145492	0.117075	1.000000	0.000018	0.000033	0.000037	-48.214707	-83.911993	49.854297
15106	9.872372	-0.622365	0.672229	0.024529	0.163400	0.100721	1.000000	0.000042	0.000030	0.000048	-48.241777	-83.907483	49.883458
15107	9.884206	-0.633318	0.724992	-0.027178	0.152126	0.117083	1.000000	0.000025	0.000011	0.000050	-48.262275	-83.908817	49.907488
15108	9.901432	-0.662284	0.681872	0.017762	0.126679	0.133446	1.000000	0.000026	0.000024	0.000043	-48.291774	-83.905171	49.937336
15109	9.852594	-0.639623	0.675322	0.020263	0.145614	0.082623	1.000000	0.000028	0.000035	0.000048	-48.296391	-83.904009	49.915916
15110	9.885269	-0.640438	0.702666	-0.004643	0.147639	0.117097	1.000000	0.000026	0.000024	0.000043	-48.325840	-83.900367	49.945677
15111	9.901150	-0.664661	0.683652	0.016677	0.125003	0.133469	1.000000	0.000020	0.000026	0.000026	-48.286842	-83.900252	49.918757
15112	9.870498	-0.622734	0.699305	-0.002321	0.164600	0.100761	1.000000	0.000032	0.000025	0.000049	-48.318612	-83.896050	49.951485
15113	9.865506	-0.657067	0.705910	-0.008227	0.129606	0.098992	1.000000	0.000020	0.000026	0.000026	-48.304331	-83.898007	49.952301
15114	9.886298	-0.647599	0.680867	0.017913	0.141978	0.117135	1.000000	0.000031	0.000028	0.000037	-48.325907	-83.894634	49.974694
15115	9.881296	-0.682060	0.687403	0.011884	0.106989	0.115361	1.000000	0.000012	0.000016	0.000050	-48.343544	-83.895803	49.994649
15116	9.870165	-0.625725	0.701335	-0.004594	0.162737	0.100791	1.000000	0.000036	0.000029	0.000043	-48.367563	-83.891880	50.020129
15117	9.866514	-0.664692	0.683923	0.013308	0.124034	0.099028	1.000000	0.000030	0.000014	0.000044	-48.390987	-83.894128	50.048620
15118	9.871356	-0.631823	0.678298	0.018137	0.158089	0.100821	1.000000	0.000031	0.000028	0.000037	-48.412467	-83.890777	50.070924
15119	9.872617	-0.637149	0.655008	0.040372	0.153449	0.100858	1.000000	0.000028	0.000035	0.000048	-48.462693	-83.894807	50.129145
15120	9.885763	-0.652488	0.683956	0.012924	0.139293	0.117180	1.000000	0.000034	0.000018	0.000038	-48.492813	-83.892165	50.160534
15121	9.864794	-0.663220	0.710092	-0.014313	0.126065	0.099031	1.000000	0.000018	0.000033	0.000037	-48.485875	-83.892594	50.149953
15122	9.850103	-0.644949	0.706318	-0.011999	0.143971	0.082690	1.000000	0.000042	0.000030	0.000048	-48.512451	-83.888157	50.178615
15123	9.886854	-0.659276	0.661758	0.035420	0.133720	0.117232	1.000000	0.000016	0.000022	0.000032	-48.504350	-83.889684	50.175224
15124	9.865879	-0.670000	0.687893	0.008280	0.121338	0.099067	1.000000	0.000036	0.000029	0.000043	-48.528326	-83.885815	50.200655
15125	9.851197	-0.651724	0.684066	0.010865	0.138270	0.082743	1.000000	0.000036	0.000029	0.000043	-48.505153	-83.885134	50.197511
15126	9.865685	-0.671583	0.689126	0.007536	0.120329	0.099080	1.000000	0.000036	0.000029	0.000043	-48.528960	-83.881269	50.222791
15127	9.870557	-0.638595	0.683559	0.012797	0.153516	0.100901	1.000000	0.000033	0.000020	0.000026	-48.501315	-83.881729	50.188363
15128	9.870491	-0.639185	0.683972	0.012292	0.153496	0.100902	1.000000	0.000034	0.000018	0.000038	-48.530948	-83.879105	50.219261
15129	9.871778	-0.644428	0.660512	0.035806	0.148863	0.100945	1.000000	0.000031	0.000028	0.000037	-48.529104	-83.879974	50.204965
15130	9.849423	-0.650694	0.710522	-0.015448	0.140276	0.082739	1.000000	0.000035	0.000015	0.000050	-48.568710	-83.876531	50.245970
15131	9.884824	-0.660400	0.689907	0.008072	0.133814	0.117261	1.000000	0.000035	0.000033	0.000019	-48.533378	-83.877397	50.202329
15132	9.868806	-0.637237	0.710032	-0.013711	0.155509	0.100899	1.000000	0.000025	0.000027	0.000031	-48.551886	-83.874663	50.220995
15133	9.855517	-0.623402	0.682212	0.013036	0.168687	0.084617	1.000000	0.000036	0.000029	0.000043	-48.530610	-83.873862	50.202483
15134	9.871381	-0.647727	0.663214	0.033808	0.146942	0.100981	1.000000	0.000029	0.000017	0.000032	-48.557440	-83.871811	50.229913
15135	9.868542	-0.639350	0.711806	-0.015707	0.153630	0.100925	1.000000	0.000035	0.000050	0.000046	-48.568739	-83.872873	50.238601
15136	9.850281	-0.659243	0.690024	0.005391	0.133675	0.082811	1.000000	0.000041	-0.000003	0.000040	-48.615049	-83.871639	50.287022
15137	9.868385	-0.640736	0.712737	-0.017070	0.152683	0.100937	1.000000	0.000027	0.000040	0.000024	-48.600814	-83.873789	50.274321
15138	9.869672	-0.645983	0.689379	0.006539	0.148856	0.100978	1.000000	0.000035	0.000015	0.000050	-48.640165	-83.870380	50.315049
15139	9.868209	-0.642220	0.713841	-0.018112	0.151748	0.100950	1.000000	0.000041	0.000032	0.000037	-48.627362	-83.870939	50.296191
15140	9.873112	-0.609169	0.708381	-0.013249	0.185776	0.102783	1.000000	0.000030	0.000030	0.000025	-48.638157	-83.868513	50.307608
15141	9.869412	-0.647974	0.691229	0.004892	0.146967	0.101007	1.000000	0.000023	0.000035	0.000042	-48.629949	-83.868731	50.301593
15142	9.872936	-0.610599	0.709615	-0.014360	0.184799	0.102800	1.000000	0.000040	0.000019	0.000044	-48.661614	-83.865604	50.335101
15143	9.856071	-0.635027	0.663681	0.030337	0.160089	0.084752	1.000000	0.000038	0.000007	0.000039	-48.687793	-83.869774	50.367636
15144	9.892351	-0.597551	0.708613	-0.013386	0.199917	0.120976	1.000000	0.000021	0.000023	0.000038	-48.713561	-83.866839	50.393059
15145	9.869089	-0.650960	0.693030	0.002718	0.145028	0.101036	1.000000	0.000018	0.000033	0.000036	-48.686488	-83.865820	50.350408
15146	9.874007	-0.617918	0.687609	0.007594	0.179047	0.102883	1.000000	0.000040	0.000035	0.000025	-48.692034	-83.863126	50.357668
15147	9.855742	-0.637694	0.665997	0.027789	0.158156	0.084791	1.000000	0.000018	0.000031	0.000048	-48.724060	-83.866055	50.396155
15148	9.868821	-0.653031	0.694891	0.000288	0.143999	0.101052	1.000000	0.000024	0.000013	0.000039	-48.758244	-83.863818	50.430410
15149	9.888295	-0.639276	0.693748	0.001694	0.159142	0.119231	1.000000	0.000023	0.000035	0.000042	-48.769680	-83.865985	50.445916
15150	9.868641	-0.654537	0.696043	-0.001329	0.142985	0.101066	1.000000	0.000031	0.000028	0.000037	-48.790328	-83.862793	50.467309
15151	9.873590	-0.621585	0.690284	0.004079	0.176032	0.102939	1.000000	0.000032	0.000006	0.000034	-48.770133	-83.863895	50.444178
15152	9.853954	-0.636744	0.692404	0.001058	0.159876	0.084772	1.000000	0.000027	0.000038	0.000036	-48.782117	-83.860028	50.456461
15153	9.867010	-0.652057	0.721453	-0.026128	0.144630	0.101038	1.000000	0.000022	0.000021	0.000049	-48.764774	-83.859742	50.459301
15154	9.853766	-0.638366	0.693578	0.000352	0.158714	0.084791	1.000000	0.000018	0.000033	0.000036	-48.781640	-83.856174	50.475371
15155	9.889165	-0.648214	0.673181	0.023585	0.152037	0.119345	1.000000	0.000041	0.000032	0.000037	-48.762169	-83.857070	50.460708
15156	9.869509	-0.663399	0.675465	0.020570	0.135879	0.101175	1.000000	0.000031	0.000028	0.000037	-48.782366	-83.853894	50.481668
15157	9.888991	-0.649706	0.674291	0.021774	0.150964	0.119365	1.000000	0.000035	0.000015	0.000050	-48.819230	-83.857767	50.527008
15158	9.888906	-0.650519	0.674761	0.021258	0.150914	0.119367	1.000000	0.000031	0.000028	0.000037	-48.839451	-83.854610	50.547995
15159	9.853319	-0.642003	0.696572	-0.003191	0.155440	0.084842	1.000000	0.000037	0.000042	0.000035	-48.815246	-83.855828	50.547993
15160	9.888719	-0.651872	0.676188	0.020021	0.149744	0.119387	1.000000	0.000021	0.000023	0.000038	-48.840443	-83.852977	50.572860
15161	9.853134	-0.643482	0.697823	-0.004058	0.154415	0.084858	1.000000	0.000042	0.000030	0.000048	-48.828429	-83.852384	50.549382
15162	9.888541	-0.653367	0.677347	0.019149	0.148706	0.119405	1.000000	0.000020	0.000026	0.000026	-48.843591	-83.850372	50.564047
15163	9.852960	-0.644732	0.699119	-0.005131	0.153360	0.084874	1.000000	0.000037	0.000042	0.000035	-48.820158	-83.850766	50.534309
15164	9.873834	-0.635619	0.674256	0.020964	0.165589	0.103127	1.000000	0.000032	0.000026	0.000049	-48.850046	-83.846805	50.565106
15165	9.868681	-0.670079	0.680949	0.015518	0.130465	0.101257	1.000000	0.000026	0.000024	0.000043	-48.823084	-83.846242	50.541375
15166	9.886776	-0.651686	0.703783	-0.006613	0.150330	0.119367	1.000000	0.000025	0.000027	0.000031	-48.840439	-83.843679	50.558856
15167	9.888088	-0.657042	0.680402	0.016996	0.145387	0.119458	1.000000	0.000032	0.000026	0.000049	-48.831580	-83.844312	50.565706
15168	9.873498	-0.638647	0.676318	0.019375	0.163279	0.103169	1.000000	0.000023	0.000016	0.000027	-48.854868	-83.842997	50.588940
15169	9.852433	-0.649222	0.702384	-0.007965	0.149900	0.084925	1.000000	0.000042	0.000030	0.000048	-48.852182	-83.844148	50.596532
15170	9.873331	-0.640159	0.677326	0.018124	0.162119	0.103190	1.000000	0.000011	0.000019	0.000038	-48.881886	-83.841631	50.624782
15171	9.886343	-0.655411	0.706392	-0.009907	0.146896	0.119415	1.000000	0.000033	0.000039	0.000042	-48.881173	-83.843680	50.629753
15172	9.887650	-0.660754	0.683162	0.013689	0.143015	0.119497	1.000000	0.000031	0.000028	0.000037	-48.900757	-83.840593	50.650118
15173	9.853471	-0.656814	0.680858	0.013331	0.143862	0.085039	1.000000	0.000031	0.000028	0.000037	-48.900129	-83.842821	50.635651
15174	9.871572	-0.638480	0.703606	-0.008809	0.163712	0.103147	1.000000	0.000030	0.000014	0.000044	-48.935631	-83.840148	50.671874
15175	9.887398	-0.662965	0.684668	0.011726	0.140813	0.119531	1.000000	0.000031	0.000028	0.000037	-48.925022	-83.842282	50.668506
15176	9.872807	-0.644658	0.680697	0.014114	0.158702	0.103252	1.000000	0.000032	0.000026	0.000049	-48.954370	-83.838382	50.698774
15177	9.890898	-0.626246	0.703677	-0.009860	0.018118	0.122945	1.000000	0.000027	0.000040	0.000024	-42.859623	-84.531233	44.207815
15178	9.872629	-0.645903	0.682095	0.011090	-0.002390	0.104526	1.000000	0.000031	0.000028	0.000037	-42.856804	-84.531141	44.205085
15179	9.858056	-0.627486	0.678040	0.013593	0.015087	0.088541	1.000000	0.000034	0.000018	0.000038	-42.863477	-84.531867	44.222591
15180	9.892062	-0.632880	0.681455	0.012609	0.011931	0.122981	1.000000	0.000036	0.000029	0.000043	-42.864057	-84.531249	44.223893
15181	9.876064	-0.609994	0.701416	-0.008914	0.033412	0.106966	1.000000	0.000032	0.000026	0.000049	-42.871535	-84.530279	44.230820
15182	9.872281	-0.648952	0.684230	0.008985	-0.005295	0.104527	1.000000	0.000025	0.000027	0.000031	-42.865296	-84.530713	44.224036
15183	9.859135	-0.635110	0.656224	0.035454	0.008208	0.088585	1.000000	0.000034	0.000018	0.000038	-42.877379	-84.531890	44.276953
15184	9.885197	-0.664792	0.713636	-0.019339	-0.020942	0.120465	1.000000	0.000021	0.000023	0.000037	-42.879742	-84.532133	44.278284
15185	9.875735	-0.612778	0.703619	-0.011180	0.030509	0.106973	1.000000	0.000024	0.000048	0.000035	-42.858468	-84.530425	44.269727
15186	9.871933	-0.651659	0.686674	0.006747	-0.008184	0.104526	1.000000	0.000031	0.000028	0.000037	-42.855622	-84.530332	44.266969
15187	9.891457	-0.637962	0.685494	0.008803	0.006852	0.122990	1.000000	0.000030	0.000014	0.000044	-42.869926	-84.530789	44.285507
15188	9.870349	-0.648541	0.711515	-0.018396	-0.005644	0.104483	1.000000	0.000031	0.000028	0.000037	-42.867072	-84.530696	44.282741
15189	9.858626	-0.639444	0.659649	0.032266	0.003863	0.088599	1.000000	0.000026	0.000025	0.000043	-42.874025	-84.530506	44.304001
15190	9.871589	-0.654805	0.688625	0.004602	-0.011088	0.104525	1.000000	0.000022	0.000021	0.000049	-42.888374	-84.530031	44.317462
15191	9.891109	-0.641169	0.687507	0.006661	0.003941	0.122993	1.000000	0.000031	0.000028	0.000037	-42.884944	-84.529877	44.305160
15192	9.869982	-0.651655	0.713760	-0.020536	-0.008545	0.104477	1.000000	0.000027	0.000038	0.000036	-42.873254	-84.529013	44.293128
15193	9.892371	-0.647210	0.664616	0.029600	-0.001505	0.123042	1.000000	0.000031	-0.000007	0.000041	-42.905780	-84.531868	44.332769
15194	9.856792	-0.638590	0.685998	0.005461	0.004229	0.088560	1.000000	0.000037	0.000043	0.000035	-42.888870	-84.530669	44.316637
15195	9.872590	-0.663105	0.667302	0.025979	-0.018712	0.104570	1.000000	0.000016	0.000020	0.000044	-42.898946	-84.530643	44.336513
15196	9.858036	-0.644792	0.663243	0.028503	-0.001220	0.088611	1.000000	0.000036	0.000029	0.000043	-42.899462	-84.530023	44.337749
15197	9.892025	-0.650284	0.666756	0.027472	-0.004411	0.123047	1.000000	0.000026	0.000025	0.000043	-42.905992	-84.529799	44.358685
15198	9.876054	-0.627204	0.686640	0.005910	0.017075	0.107040	1.000000	0.000025	0.000027	0.000031	-42.899708	-84.530232	44.351855
15199	9.856350	-0.642280	0.688899	0.002817	0.000601	0.088562	1.000000	0.000017	0.000034	0.000036	-42.892857	-84.529666	44.344770
15200	9.870724	-0.662233	0.693905	-0.000773	-0.018351	0.104515	1.000000	0.000038	0.000005	0.000051	-42.919624	-84.530393	44.372627
15201	9.870630	-0.663157	0.694355	-0.001404	-0.019070	0.104514	1.000000	0.000028	0.000036	0.000048	-42.924717	-84.529210	44.396804
15202	9.890163	-0.649539	0.693240	0.000628	-0.004055	0.122995	1.000000	0.000024	0.000013	0.000039	-42.935859	-84.530220	44.407341
15203	9.888649	-0.645640	0.717621	-0.024076	-0.000798	0.122937	1.000000	0.000036	0.000029	0.000043	-42.940259	-84.529928	44.443094
15204	9.891412	-0.655741	0.670495	0.023567	-0.009487	0.123054	1.000000	0.000033	0.000039	0.000041	-42.931903	-84.528537	44.435030
15205	9.875432	-0.632616	0.690612	0.001989	0.012003	0.107049	1.000000	0.000022	0.000037	0.000030	-42.917495	-84.528232	44.415994
15206	9.854282	-0.643017	0.716792	-0.025184	-0.000479	0.088500	1.000000	0.000021	0.000023	0.000037	-42.919786	-84.528472	44.417250
15207	9.875270	-0.634026	0.691643	0.000938	0.010549	0.107050	1.000000	0.000030	0.000014	0.000044	-42.934060	-84.528907	44.426740
15208	9.842546	-0.634846	0.665190	0.024998	0.008333	0.072682	1.000000	0.000032	0.000026	0.000049	-42.943122	-84.528093	44.436033
15209	9.889532	-0.654841	0.697250	-0.003119	-0.009142	0.122992	1.000000	0.000031	0.000028	0.000037	-42.937123	-84.527699	44.405267
15210	9.889453	-0.655548	0.697694	-0.003652	-0.009871	0.122991	1.000000	0.000024	0.000013	0.000039	-42.948241	-84.528707	44.415778
15211	9.889361	-0.656288	0.698302	-0.004255	-0.010593	0.122990	1.000000	0.000043	0.000044	0.000041	-42.938040	-84.527255	44.421477
15212	9.853754	-0.647614	0.719905	-0.028359	-0.004811	0.088490	1.000000	0.000034	0.000018	0.000038	-42.943945	-84.527928	44.427896
15213	9.876192	-0.643304	0.670890	0.021741	0.002206	0.107122	1.000000	0.000026	0.000025	0.000043	-42.954022	-84.528009	44.465005
15214	9.861684	-0.624868	0.666722	0.024279	0.019719	0.091191	1.000000	0.000029	0.000017	0.000032	-42.956540	-84.529209	44.467405
15215	9.890466	-0.663854	0.676442	0.017659	-0.017501	0.123055	1.000000	0.000036	0.000029	0.000043	-42.954658	-84.528364	44.455040
15216	9.888937	-0.659801	0.700991	-0.006959	-0.014232	0.122984	1.000000	0.000030	0.000030	0.000025	-42.939730	-84.528987	44.440054
15217	9.853350	-0.650851	0.722510	-0.031044	-0.008435	0.088480	1.000000	0.000020	0.000026	0.000026	-42.929723	-84.529903	44.431102
15218	9.890252	-0.665572	0.677880	0.016069	-0.019689	0.123054	1.000000	0.000031	-0.000007	0.000041	-42.958526	-84.532448	44.460154
15219	9.856109	-0.661534	0.675291	0.016003	-0.017878	0.088623	1.000000	0.000037	0.000043	0.000035	-42.944529	-84.531502	44.472496
15220	9.854567	-0.657516	0.699948	-0.008613	-0.014613	0.088548	1.000000	0.000031	0.000028	0.000037	-42.941563	-84.531405	44.469616
15221	9.888551	-0.662897	0.703519	-0.009731	-0.017869	0.122975	1.000000	0.000025	0.000027	0.000031	-42.938139	-84.532070	44.480285
15222	9.867370	-0.673245	0.729647	-0.036893	-0.030323	0.104387	1.000000	0.000031	0.000028	0.000037	-42.935168	-84.531973	44.477398
15223	9.875409	-0.649698	0.676233	0.016398	-0.005063	0.107131	1.000000	0.000022	0.000037	0.000030	-42.918687	-84.531499	44.464672
15224	9.875315	-0.650317	0.677009	0.015867	-0.005792	0.107132	1.000000	0.000027	0.000038	0.000036	-42.906860	-84.530632	44.452502
15225	9.880460	-0.617572	0.671317	0.020966	0.027451	0.109729	1.000000	0.000035	0.000016	0.000050	-42.924398	-84.530529	44.477542
15226	9.893336	-0.632720	0.700457	-0.006727	0.012456	0.125565	1.000000	0.000027	0.000040	0.000024	-42.900584	-84.530382	44.453242
15227	9.875066	-0.652351	0.678673	0.014297	-0.007972	0.107133	1.000000	0.000009	0.000008	0.000033	-42.913151	-84.532204	44.470129
15228	9.859136	-0.629117	0.698316	-0.007239	0.013550	0.091138	1.000000	0.000025	0.000027	0.000031	-42.906774	-84.532634	44.463205
15229	9.873463	-0.648906	0.703532	-0.010876	-0.005438	0.107049	1.000000	0.000031	0.000028	0.000037	-42.905064	-84.532639	44.477613
15230	9.873369	-0.649583	0.704224	-0.011407	-0.006166	0.107048	1.000000	0.000027	0.000038	0.000036	-42.893215	-84.531772	44.465421
15231	9.860335	-0.635812	0.676261	0.015165	0.007389	0.091226	1.000000	0.000034	0.000018	0.000038	-42.901956	-84.532680	44.491167
15232	9.892871	-0.636487	0.703604	-0.009999	0.008083	0.125567	1.000000	0.000010	0.000021	0.000026	-42.897387	-84.533972	44.484297
15233	9.873127	-0.651569	0.705776	-0.013030	-0.008349	0.107044	1.000000	0.000042	0.000030	0.000048	-42.899935	-84.532701	44.493231
15234	9.881218	-0.628247	0.652197	0.040222	0.016920	0.109844	1.000000	0.000011	0.000019	0.000038	-42.907344	-84.533273	44.498482
15235	9.874413	-0.657783	0.682929	0.009974	-0.013786	0.107132	1.000000	0.000041	0.000032	0.000036	-42.900305	-84.532906	44.492485
15236	9.872861	-0.653752	0.707485	-0.014643	-0.010527	0.107040	1.000000	0.000031	0.000028	0.000037	-42.897291	-84.532807	44.489555
15237	9.895364	-0.649476	0.658629	0.035453	-0.003520	0.125752	1.000000	0.000031	0.000028	0.000037	-42.897592	-84.533003	44.513702
15238	9.872685	-0.655122	0.708673	-0.015774	-0.011986	0.107036	1.000000	0.000031	0.000028	0.000037	-42.894572	-84.532904	44.510766
15239	9.859670	-0.641355	0.680699	0.010831	0.001584	0.091234	1.000000	0.000031	0.000028	0.000037	-42.893329	-84.532918	44.510900
15240	9.893628	-0.646927	0.684452	0.009739	-0.001727	0.125661	1.000000	0.000038	0.000040	0.000047	-42.888214	-84.530994	44.506706
15241	9.860946	-0.647650	0.658080	0.033875	-0.003855	0.091332	1.000000	0.000024	0.000013	0.000038	-42.898779	-84.531924	44.514671
15242	9.859398	-0.643767	0.682362	0.009259	-0.000598	0.091236	1.000000	0.000022	0.000021	0.000049	-42.912927	-84.531438	44.527923
15243	9.872218	-0.659020	0.711555	-0.018531	-0.015609	0.107026	1.000000	0.000027	0.000038	0.000036	-42.905077	-84.530887	44.528262
15244	9.878890	-0.630890	0.681948	0.010635	0.013642	0.109774	1.000000	0.000034	0.000018	0.000038	-42.910899	-84.531556	44.534594
15245	9.873518	-0.665118	0.688738	0.004462	-0.021049	0.107123	1.000000	0.000031	0.000028	0.000037	-42.909542	-84.531599	44.547025
15246	9.891634	-0.646720	0.711615	-0.017640	-0.002111	0.125560	1.000000	0.000031	0.000028	0.000037	-42.906495	-84.531499	44.544061
15247	9.857486	-0.642588	0.709261	-0.017559	-0.000228	0.091135	1.000000	0.000027	0.000038	0.000036	-42.893445	-84.530454	44.514095
15248	9.858860	-0.648103	0.686023	0.005997	-0.004948	0.091237	1.000000	0.000032	0.000026	0.000049	-42.902359	-84.529632	44.523235
15249	9.891349	-0.648987	0.713507	-0.019180	-0.004277	0.125556	1.000000	0.000044	0.000022	0.000037	-42.902422	-84.529866	44.517179
15250	9.879836	-0.639934	0.661711	0.031563	0.005278	0.109888	1.000000	0.000037	0.000043	0.000035	-42.885293	-84.528661	44.500828
15251	9.857114	-0.645578	0.711705	-0.019625	-0.003114	0.091130	1.000000	0.000020	0.000010	0.000045	-42.903814	-84.529309	44.502584
15252	9.879676	-0.641405	0.662664	0.030537	0.003814	0.109892	1.000000	0.000025	0.000027	0.000031	-42.897366	-84.529736	44.495586
15253	9.874279	-0.675568	0.669554	0.024345	-0.030866	0.107218	1.000000	0.000031	0.000028	0.000037	-42.895507	-84.529732	44.507085
15254	9.858336	-0.652387	0.689481	0.002845	-0.009302	0.091236	1.000000	0.000033	0.000039	0.000041	-42.886947	-84.528333	44.498813
15255	9.863561	-0.619653	0.683838	0.007953	0.023933	0.093916	1.000000	0.000026	0.000025	0.000043	-42.892826	-84.528027	44.503313
15256	9.876361	-0.634850	0.712892	-0.019776	0.008926	0.109676	1.000000	0.000034	0.000018	0.000038	-42.898607	-84.528694	44.509603
15257	9.877751	-0.640388	0.689561	0.003746	0.004195	0.109788	1.000000	0.000028	0.000036	0.000047	-42.900355	-84.527192	44.505348
15258	9.879156	-0.645959	0.665983	0.027297	-0.000550	0.109902	1.000000	0.000031	-0.000007	0.000041	-42.929072	-84.529731	44.534306
15259	9.891963	-0.660987	0.695003	-0.000476	-0.015549	0.125653	1.000000	0.000037	0.000045	0.000024	-42.901728	-84.529373	44.513136
15260	9.857828	-0.656709	0.692644	-0.000403	-0.013648	0.091231	1.000000	0.000021	0.000024	0.000037	-42.903837	-84.529605	44.514206
15261	9.857734	-0.657384	0.693337	-0.001026	-0.014367	0.091230	1.000000	0.000037	0.000043	0.000035	-42.891182	-84.528765	44.518779
15262	9.862989	-0.624475	0.687693	0.004088	0.018860	0.093930	1.000000	0.000039	0.000021	0.000032	-42.888364	-84.529625	44.516959
15263	9.896968	-0.629910	0.691193	0.002945	0.015495	0.128351	1.000000	0.000029	0.000017	0.000032	-42.890998	-84.530825	44.525905
15264	9.877190	-0.644879	0.693396	-0.000101	-0.000892	0.109790	1.000000	0.000027	0.000038	0.000036	-42.879017	-84.529953	44.513579
15265	9.877097	-0.645556	0.694090	-0.000645	-0.001619	0.109789	1.000000	0.000031	0.000028	0.000037	-42.876683	-84.529901	44.517761
15266	9.892855	-0.670202	0.675347	0.019777	-0.024662	0.125765	1.000000	0.000024	0.000013	0.000038	-42.887643	-84.530902	44.528107
15267	9.878424	-0.651703	0.671232	0.022416	-0.007092	0.109912	1.000000	0.000037	0.000043	0.000035	-42.869041	-84.529489	44.488889
15268	9.896541	-0.633297	0.694205	0.000326	0.011852	0.128357	1.000000	0.000021	0.000024	0.000037	-42.871122	-84.529720	44.489929
15269	9.865402	-0.638651	0.643857	0.048540	0.005734	0.094189	1.000000	0.000031	0.000028	0.000037	-42.869755	-84.529742	44.495645
15270	9.863811	-0.634747	0.668391	0.023932	0.009028	0.094066	1.000000	0.000024	0.000033	0.000053	-42.878289	-84.527955	44.503485
15271	9.863702	-0.635645	0.669139	0.023385	0.008304	0.094068	1.000000	0.000033	0.000039	0.000041	-42.870716	-84.526608	44.496200
15272	9.879453	-0.660233	0.650543	0.043789	-0.014759	0.110042	1.000000	0.000023	0.000016	0.000027	-42.869701	-84.528330	44.494428
15273	9.863540	-0.636977	0.670263	0.022366	0.006845	0.094071	1.000000	0.000028	0.000036	0.000047	-42.868211	-84.526569	44.483554
15274	9.845224	-0.656955	0.648685	0.043395	-0.013560	0.075627	1.000000	0.000041	0.000030	0.000048	-42.871811	-84.525407	44.488498
15275	9.868727	-0.605223	0.665105	0.027083	0.039326	0.096811	1.000000	0.000030	0.000015	0.000044	-42.882698	-84.525524	44.477360
15276	9.863271	-0.639498	0.671815	0.020865	0.004652	0.094076	1.000000	0.000034	0.000018	0.000038	-42.888415	-84.526188	44.483583
15277	9.861688	-0.635472	0.696222	-0.003724	0.007973	0.093944	1.000000	0.000036	0.000029	0.000042	-42.888027	-84.525484	44.481911
15278	9.864596	-0.645805	0.649054	0.043898	-0.000856	0.094212	1.000000	0.000036	0.000029	0.000042	-42.888233	-84.524850	44.482829
15279	9.881205	-0.622840	0.695878	-0.002227	0.022155	0.112527	1.000000	0.000047	0.000032	0.000054	-42.894424	-84.523049	44.477374
15280	9.875715	-0.657192	0.702776	-0.008464	-0.012515	0.109778	1.000000	0.000034	0.000018	0.000038	-42.900123	-84.523712	44.483579
15281	9.855916	-0.672189	0.704895	-0.011538	-0.028868	0.091192	1.000000	0.000031	0.000028	0.000037	-42.897625	-84.523645	44.481597
15282	9.895253	-0.644496	0.702210	-0.007008	0.001659	0.128361	1.000000	0.000032	0.000024	0.000060	-42.918304	-84.522093	44.502636
15283	9.893645	-0.640617	0.726708	-0.031637	0.004998	0.128222	1.000000	0.000041	0.000033	0.000036	-42.911179	-84.521732	44.497523
15284	9.895055	-0.646188	0.703441	-0.008095	0.000205	0.128361	1.000000	0.000032	0.000026	0.000048	-42.919915	-84.520903	44.506479
15285	9.893450	-0.642254	0.727925	-0.032727	0.003539	0.128220	1.000000	0.000036	0.000029	0.000042	-42.921396	-84.520370	44.518916
15286	9.894859	-0.647768	0.704743	-0.009185	-0.001253	0.128360	1.000000	0.000027	0.000038	0.000036	-42.909332	-84.519495	44.506506
15287	9.880452	-0.629419	0.700628	-0.006548	0.016337	0.112537	1.000000	0.000027	0.000023	0.000055	-42.927428	-84.518531	44.529966
15288	9.860621	-0.644568	0.702931	-0.009603	-0.000011	0.093944	1.000000	0.000014	0.000044	0.000035	-42.911691	-84.517223	44.512336
15289	9.839283	-0.654744	0.729182	-0.036684	-0.012279	0.075204	1.000000	0.000031	0.000028	0.000037	-42.906446	-84.516906	44.493191
15290	9.881686	-0.636580	0.678541	0.015989	0.010081	0.112685	1.000000	0.000015	0.000007	0.000051	-42.934420	-84.517513	44.519565
15291	9.860344	-0.646940	0.704636	-0.011076	-0.002183	0.093942	1.000000	0.000029	0.000050	0.000040	-42.914080	-84.515064	44.478917
15292	9.842022	-0.666737	0.683168	0.009928	-0.022605	0.075490	1.000000	0.000031	0.000028	0.000037	-42.910869	-84.514956	44.475785
15293	9.847380	-0.633812	0.677406	0.015127	0.010604	0.078276	1.000000	0.000030	0.000030	0.000025	-42.896469	-84.515612	44.463519
15294	9.840344	-0.663087	0.708243	-0.015214	-0.019968	0.075338	1.000000	0.000021	0.000024	0.000037	-42.898449	-84.515839	44.464456
15295	9.856069	-0.687851	0.689584	0.005151	-0.043105	0.091296	1.000000	0.000039	0.000019	0.000044	-42.905632	-84.515785	44.463996
15296	9.843213	-0.674195	0.661389	0.031903	-0.029601	0.075636	1.000000	0.000021	0.000024	0.000037	-42.907604	-84.516012	44.464925
15297	9.877164	-0.679724	0.665063	0.030693	-0.033050	0.110047	1.000000	0.000020	0.000026	0.000026	-42.897662	-84.516922	44.448430
15298	9.859749	-0.651589	0.708666	-0.014752	-0.007257	0.093935	1.000000	0.000041	0.000030	0.000048	-42.901136	-84.515755	44.453246
15299	9.895210	-0.662152	0.688365	0.008065	-0.014804	0.128500	1.000000	0.000014	0.000009	0.000039	-42.919034	-84.517228	44.488409
15300	9.876919	-0.681899	0.666476	0.029067	-0.035227	0.110045	1.000000	0.000025	0.000027	0.000031	-42.912443	-84.517649	44.481266
15301	9.859512	-0.653713	0.710008	-0.016378	-0.009421	0.093930	1.000000	0.000021	0.000024	0.000037	-42.914684	-84.517818	44.464659
15302	9.846676	-0.639933	0.681876	0.010386	0.004078	0.078286	1.000000	0.000049	0.000026	0.000031	-42.906561	-84.518337	44.458653
15303	9.860882	-0.659788	0.687092	0.006667	-0.014977	0.094085	1.000000	0.000024	0.000014	0.000038	-42.915719	-84.519131	44.453947
15304	9.882071	-0.651027	0.662091	0.032742	-0.004225	0.112858	1.000000	0.000041	0.000033	0.000036	-42.907261	-84.518687	44.446690
15305	9.887447	-0.618322	0.656369	0.038029	0.028963	0.115680	1.000000	0.000041	0.000030	0.000048	-42.909600	-84.517372	44.438359
15306	9.878827	-0.642838	0.711287	-0.016417	0.002553	0.112539	1.000000	0.000027	0.000041	0.000024	-42.885556	-84.517218	44.413830
15307	9.887283	-0.619510	0.657718	0.037013	0.027497	0.115688	1.000000	0.000029	0.000017	0.000032	-42.886295	-84.518237	44.404023
15308	9.865938	-0.629604	0.683601	0.009874	0.015310	0.096909	1.000000	0.000034	0.000018	0.000038	-42.891900	-84.518895	44.410131
15309	9.899883	-0.635208	0.687265	0.008638	0.011835	0.131321	1.000000	0.000025	0.000027	0.000031	-42.885541	-84.519293	44.397869
15310	9.885535	-0.616621	0.683054	0.011365	0.029440	0.115535	1.000000	0.000031	0.000028	0.000037	-42.882260	-84.519183	44.394667
15311	9.883935	-0.612388	0.707406	-0.013257	0.032847	0.115371	1.000000	0.000023	0.000016	0.000027	-42.882381	-84.520987	44.404590
15312	9.865627	-0.632152	0.685733	0.007729	0.012409	0.096915	1.000000	0.000038	0.000041	0.000047	-42.876918	-84.519049	44.400042
15313	9.901090	-0.642623	0.665685	0.030536	0.004789	0.131493	1.000000	0.000033	0.000020	0.000026	-42.871263	-84.520457	44.391893
15314	9.865471	-0.633426	0.686799	0.006660	0.010958	0.096918	1.000000	0.000011	0.000019	0.000038	-42.878370	-84.521016	44.396834
15315	9.885143	-0.619874	0.685781	0.008658	0.025807	0.115547	1.000000	0.000027	0.000038	0.000036	-42.866850	-84.520191	44.395963
15316	9.865281	-0.634905	0.688166	0.005585	0.009505	0.096920	1.000000	0.000028	0.000036	0.000047	-42.866574	-84.518587	44.395480
15317	9.859671	-0.669284	0.695239	-0.000709	-0.025138	0.094067	1.000000	0.000031	0.000026	0.000048	-42.872923	-84.517540	44.385676
15318	9.877794	-0.651117	0.718066	-0.022752	-0.006152	0.112524	1.000000	0.000031	0.000026	0.000048	-42.881513	-84.516704	44.394482
15319	9.875265	-0.695059	0.677305	0.019015	-0.049080	0.110010	1.000000	0.000031	0.000028	0.000037	-42.878115	-84.516570	44.391327
15320	9.884660	-0.623953	0.689036	0.006072	0.022160	0.115558	1.000000	0.000027	0.000038	0.000036	-42.865921	-84.515690	44.378787
15321	9.846578	-0.657948	0.669071	0.024487	-0.013842	0.078464	1.000000	0.000031	0.000028	0.000037	-42.863521	-84.515636	44.378711
15322	9.864708	-0.639778	0.691849	0.002446	0.005143	0.096925	1.000000	0.000045	0.000018	0.000061	-42.887663	-84.514508	44.404754
15323	9.844842	-0.654911	0.694017	-0.000652	-0.011142	0.078286	1.000000	0.000041	0.000033	0.000036	-42.880233	-84.514135	44.403594
15324	9.878759	-0.660632	0.697893	-0.001919	-0.014657	0.112692	1.000000	0.000036	0.000029	0.000042	-42.880247	-84.513492	44.404316
15325	9.898441	-0.647132	0.696850	0.000117	0.000175	0.131331	1.000000	0.000044	0.000023	0.000037	-42.879720	-84.513711	44.396404
15326	9.878585	-0.662045	0.699012	-0.002963	-0.016111	0.112689	1.000000	0.000031	0.000028	0.000037	-42.876379	-84.513598	44.393141
15327	9.884030	-0.629314	0.693187	0.002319	0.017074	0.115570	1.000000	0.000036	0.000029	0.000042	-42.877722	-84.513031	44.394144
15328	9.878406	-0.663400	0.700263	-0.004053	-0.017561	0.112686	1.000000	0.000030	0.000031	0.000025	-42.862490	-84.513642	44.378852
15329	9.862551	-0.639898	0.719778	-0.025316	0.004236	0.096743	1.000000	0.000024	0.000014	0.000038	-42.872146	-84.514505	44.372745
15330	9.844251	-0.659704	0.697860	-0.004344	-0.016209	0.078279	1.000000	0.000011	0.000019	0.000038	-42.879185	-84.515061	44.377617
15331	9.878171	-0.665353	0.701719	-0.005658	-0.019737	0.112681	1.000000	0.000032	0.000042	0.000030	-42.860142	-84.514500	44.369878
15332	9.878082	-0.665913	0.702439	-0.006191	-0.020465	0.112680	1.000000	0.000025	0.000027	0.000031	-42.853436	-84.514916	44.362620
15333	9.876445	-0.661686	0.726900	-0.030750	-0.017018	0.112490	1.000000	0.000031	0.000028	0.000037	-42.848860	-84.514673	44.351742
15334	9.879460	-0.672029	0.679835	0.016826	-0.026092	0.112864	1.000000	0.000022	0.000037	0.000030	-42.833266	-84.514320	44.335170
15335	9.896044	-0.648788	0.726576	-0.029264	-0.002923	0.131138	1.000000	0.000016	0.000021	0.000043	-42.843785	-84.514329	44.340876
15336	9.879300	-0.673517	0.680700	0.015759	-0.027547	0.112862	1.000000	0.000027	0.000003	0.000040	-42.863378	-84.516086	44.360270
15337	9.845222	-0.669201	0.677814	0.015959	-0.025445	0.078458	1.000000	0.000031	0.000028	0.000037	-42.861785	-84.516082	44.368192
15338	9.879138	-0.674916	0.681655	0.014663	-0.028995	0.112860	1.000000	0.000031	0.000028	0.000037	-42.858404	-84.515967	44.364887
15339	9.850626	-0.636992	0.672528	0.020786	0.007002	0.081371	1.000000	0.000043	0.000025	0.000026	-42.846045	-84.516900	44.345747
15340	9.864770	-0.656752	0.677937	0.016936	-0.012088	0.097115	1.000000	0.000025	0.000027	0.000031	-42.839309	-84.517315	44.338457
15341	9.863138	-0.652396	0.702368	-0.007676	-0.008624	0.096919	1.000000	0.000043	0.000025	0.000026	-42.829325	-84.518447	44.334890
15342	9.848854	-0.633723	0.697985	-0.004884	0.009015	0.081180	1.000000	0.000034	0.000018	0.000038	-42.834818	-84.519100	44.340882
15343	9.878765	-0.677728	0.684268	0.011955	-0.032620	0.112852	1.000000	0.000039	0.000021	0.000032	-42.833833	-84.520095	44.357193
15344	9.882698	-0.640020	0.702309	-0.006763	0.004730	0.115581	1.000000	0.000027	0.000039	0.000036	-42.821533	-84.519210	44.344546
15345	9.889768	-0.612136	0.672421	0.022648	0.033720	0.118713	1.000000	0.000051	0.000002	0.000040	-42.839451	-84.520983	44.350673
15346	9.868353	-0.622055	0.698222	-0.004481	0.021653	0.099848	1.000000	0.000020	0.000026	0.000026	-42.829340	-84.521927	44.339378
15347	9.869835	-0.627568	0.674936	0.019046	0.016739	0.100051	1.000000	0.000036	0.000030	0.000042	-42.829408	-84.521243	44.333015
15348	9.869746	-0.628303	0.675549	0.018516	0.016010	0.100053	1.000000	0.000031	0.000028	0.000037	-42.825984	-84.521127	44.329666
15349	9.903664	-0.633990	0.679398	0.017165	0.012439	0.134455	1.000000	0.000025	0.000027	0.000031	-42.820802	-84.521645	44.331220
15350	9.868030	-0.624639	0.700473	-0.006626	0.018757	0.099853	1.000000	0.000029	0.000017	0.000032	-42.822925	-84.522826	44.333211
15351	9.889325	-0.616045	0.675349	0.019450	0.029354	0.118734	1.000000	0.000029	0.000015	0.000044	-42.836690	-84.523241	44.348895
15352	9.889244	-0.616790	0.675864	0.018920	0.028624	0.118737	1.000000	0.000041	0.000033	0.000036	-42.828048	-84.522789	44.341451
15353	9.867771	-0.626749	0.702234	-0.008222	0.016583	0.099856	1.000000	0.000011	0.000055	0.000034	-42.803974	-84.520744	44.315969
15354	9.904806	-0.642266	0.658619	0.038549	0.004592	0.134672	1.000000	0.000031	0.000028	0.000037	-42.800530	-84.520627	44.312601
15355	9.869157	-0.633127	0.679641	0.014752	0.010931	0.100066	1.000000	0.000025	0.000012	0.000050	-42.823918	-84.520940	44.336206
15356	9.847690	-0.643291	0.705605	-0.012374	-0.001105	0.081177	1.000000	0.000023	0.000035	0.000042	-42.820111	-84.519859	44.331559
15357	9.868974	-0.634737	0.680796	0.013697	0.009476	0.100069	1.000000	0.000031	0.000028	0.000037	-42.816543	-84.519715	44.326472
15358	9.883073	-0.654742	0.686248	0.009813	-0.009633	0.115785	1.000000	0.000026	0.000025	0.000043	-42.821629	-84.519402	44.331140
15359	9.868791	-0.636347	0.681951	0.012622	0.008023	0.100072	1.000000	0.000018	0.000032	0.000048	-42.827128	-84.518174	44.335953
15360	9.847304	-0.646540	0.708026	-0.014503	-0.004001	0.081173	1.000000	0.000031	0.000026	0.000048	-42.835545	-84.517330	44.344581
15361	9.867009	-0.633263	0.707079	-0.012537	0.010779	0.099859	1.000000	0.000028	0.000036	0.000047	-42.837329	-84.515901	44.360506
15362	9.868479	-0.639056	0.683922	0.010982	0.005846	0.100076	1.000000	0.000041	0.000031	0.000048	-42.840536	-84.514721	44.365046
15363	9.866815	-0.634957	0.708267	-0.013621	0.009328	0.099859	1.000000	0.000024	0.000014	0.000038	-42.852348	-84.515795	44.378351
15364	9.834327	-0.635472	0.681557	0.010715	0.007281	0.065682	1.000000	0.000031	0.000028	0.000037	-42.848873	-84.515676	44.374950
15365	9.827024	-0.664689	0.712424	-0.019749	-0.023118	0.062475	1.000000	0.000034	0.000018	0.000038	-42.853449	-84.516237	44.371909
15366	9.859355	-0.665574	0.739990	-0.045147	-0.022519	0.096647	1.000000	0.000034	0.000018	0.000038	-42.858871	-84.516886	44.377827
15367	9.914662	-0.662243	0.718160	-0.019919	-0.014859	0.149954	1.000000	0.000025	0.000012	0.000050	-42.881776	-84.517166	44.401951
15368	9.918655	-0.624726	0.735848	-0.038584	0.022512	0.152727	1.000000	0.000034	0.000018	0.000038	-42.887196	-84.517814	44.407868
15369	9.882086	-0.663676	0.691864	0.003816	-0.017628	0.115778	1.000000	0.000041	0.000031	0.000048	-42.893961	-84.516922	44.435943
15370	9.880411	-0.659570	0.716257	-0.020763	-0.014146	0.115553	1.000000	0.000011	0.000020	0.000038	-42.900868	-84.517472	44.440678
15371	9.915897	-0.670305	0.696205	0.001924	-0.021991	0.150170	1.000000	0.000031	0.000028	0.000037	-42.897275	-84.517337	44.438661
15372	9.901644	-0.651770	0.691912	0.004761	-0.004326	0.134476	1.000000	0.000036	0.000030	0.000042	-42.897099	-84.516687	44.439189
15373	9.863489	-0.685687	0.671860	0.023188	-0.040241	0.097299	1.000000	0.000025	0.000027	0.000031	-42.890868	-84.517126	44.432348
15374	9.865903	-0.643046	0.713649	-0.019523	0.001346	0.099854	1.000000	0.000031	0.000028	0.000037	-42.887356	-84.517006	44.428910
15375	9.851667	-0.624462	0.709233	-0.016704	0.019021	0.084164	1.000000	0.000034	0.000018	0.000038	-42.894095	-84.517746	44.442518
15376	9.831773	-0.639209	0.711207	-0.019769	0.002814	0.065459	1.000000	0.000023	0.000016	0.000027	-42.892837	-84.519456	44.440497
15377	9.826028	-0.673121	0.718221	-0.026220	-0.031787	0.062436	1.000000	0.000007	0.000032	0.000025	-42.879455	-84.519976	44.423340
15378	9.833226	-0.645219	0.688260	0.003213	-0.002850	0.065689	1.000000	0.000037	0.000008	0.000039	-42.893778	-84.521390	44.438579
15379	9.867148	-0.650953	0.691858	0.001850	-0.006498	0.100081	1.000000	0.000023	0.000016	0.000027	-42.892075	-84.523036	44.431318
15380	9.890092	-0.647192	0.643050	0.051946	-0.000201	0.119260	1.000000	0.000035	0.000032	0.000031	-42.880001	-84.523111	44.419812
15381	9.922412	-0.647985	0.670709	0.026518	0.000366	0.153419	1.000000	0.000019	0.000013	0.000033	-42.887341	-84.524627	44.430173
15382	9.902508	-0.662734	0.672736	0.023448	-0.015841	0.134707	1.000000	0.000025	0.000027	0.000031	-42.880466	-84.525038	44.422743
15383	9.904029	-0.668260	0.649354	0.046944	-0.020795	0.134944	1.000000	0.000029	0.000017	0.000032	-42.883452	-84.526250	44.424151
15384	9.880923	-0.673165	0.699259	-0.004213	-0.028537	0.115753	1.000000	0.000027	0.000039	0.000036	-42.870969	-84.525362	44.411320
15385	9.886551	-0.640331	0.693151	0.001180	0.004614	0.118795	1.000000	0.000040	0.000000	0.000029	-42.882793	-84.528285	44.428340
15386	9.873935	-0.626564	0.664834	0.028089	0.018063	0.103364	1.000000	0.000037	0.000043	0.000035	-42.865087	-84.527061	44.411409
15387	9.866549	-0.655776	0.695845	-0.002443	-0.012302	0.100076	1.000000	0.000029	0.000015	0.000044	-42.880438	-84.527590	44.428081
15388	9.886309	-0.642332	0.694748	-0.000439	0.002434	0.118796	1.000000	0.000035	0.000032	0.000031	-42.868329	-84.527665	44.416539
15389	9.872096	-0.623677	0.690345	0.002464	0.020118	0.103129	1.000000	0.000034	0.000018	0.000038	-42.872526	-84.528185	44.414050
15390	9.884553	-0.638643	0.719682	-0.025513	0.005218	0.118552	1.000000	0.000035	0.000032	0.000031	-42.860407	-84.528259	44.402498
15391	9.873530	-0.629923	0.667680	0.025427	0.014427	0.103377	1.000000	0.000036	0.000030	0.000042	-42.861250	-84.527665	44.406162
15392	9.893301	-0.616436	0.666568	0.027434	0.029155	0.122106	1.000000	0.000023	0.000016	0.000027	-42.859941	-84.529373	44.404089
15393	9.893221	-0.617133	0.667115	0.026874	0.028431	0.122109	1.000000	0.000028	0.000036	0.000047	-42.860850	-84.527879	44.414391
15394	9.891518	-0.613085	0.691635	0.002304	0.031941	0.121865	1.000000	0.000031	0.000028	0.000048	-42.868103	-84.526940	44.421802
15395	9.894651	-0.623636	0.644391	0.049846	0.022728	0.122365	1.000000	0.000029	0.000015	0.000021	-42.862495	-84.529171	44.411965
15396	9.873126	-0.633391	0.670368	0.022741	0.010790	0.103388	1.000000	0.000023	0.000034	0.000042	-42.859352	-84.528158	44.408020
15397	9.871427	-0.629178	0.694894	-0.001805	0.014304	0.103139	1.000000	0.000018	0.000031	0.000036	-42.853547	-84.527755	44.400585
15398	9.853093	-0.649016	0.673188	0.019172	-0.006122	0.084658	1.000000	0.000016	0.000022	0.000043	-42.862532	-84.527670	44.407970
15399	9.853006	-0.649835	0.673672	0.018657	-0.006851	0.084658	1.000000	0.000026	0.000024	0.000043	-42.867750	-84.527353	44.404501
15400	9.871154	-0.631608	0.696571	-0.003375	0.012122	0.103142	1.000000	0.000028	0.000038	0.000047	-42.866071	-84.525649	44.402562
15401	9.866908	-0.670876	0.680034	0.014134	-0.026723	0.100308	1.000000	0.000017	0.000036	0.000047	-42.869429	-84.524253	44.414415
15402	9.886675	-0.657574	0.678951	0.016136	-0.012009	0.119046	1.000000	0.000036	0.000013	0.000038	-42.879546	-84.525306	44.425250
15403	9.883361	-0.648566	0.727137	-0.032531	-0.004229	0.118532	1.000000	0.000030	0.000032	0.000059	-42.895625	-84.523363	44.454365
15404	9.884875	-0.654448	0.703773	-0.009022	-0.009208	0.118788	1.000000	0.000036	0.000013	0.000038	-42.905753	-84.524416	44.465211
15405	9.870684	-0.635951	0.699272	-0.006129	0.008490	0.103144	1.000000	0.000042	0.000030	0.000048	-42.909960	-84.523341	44.474244
15406	9.863215	-0.665222	0.730295	-0.036657	-0.021851	0.099781	1.000000	0.000037	0.000026	0.000043	-42.912599	-84.522937	44.477722
15407	9.891973	-0.628439	0.675025	0.019376	0.018218	0.122151	1.000000	0.000048	0.000028	0.000042	-42.912444	-84.522378	44.476814
15408	9.838045	-0.638174	0.673870	0.017222	0.005050	0.069022	1.000000	0.000042	0.000030	0.000048	-42.916539	-84.521283	44.482288
15409	9.870299	-0.639178	0.701766	-0.008286	0.005590	0.103145	1.000000	0.000029	0.000033	0.000036	-42.910506	-84.520918	44.477927
15410	9.870197	-0.639969	0.702475	-0.008815	0.004862	0.103144	1.000000	0.000017	0.000036	0.000047	-42.912005	-84.519378	44.477947
15411	9.857616	-0.626554	0.674296	0.018136	0.018308	0.087776	1.000000	0.000031	0.000027	0.000048	-42.919297	-84.518426	44.481489
15412	9.869990	-0.641726	0.703774	-0.009873	0.003410	0.103144	1.000000	0.000023	0.000034	0.000042	-42.916177	-84.517419	44.477569
15413	9.871518	-0.647449	0.680531	0.013657	-0.001584	0.103411	1.000000	0.000032	0.000023	0.000037	-42.916545	-84.517603	44.465370
15414	9.889700	-0.629028	0.703215	-0.008376	0.017385	0.121898	1.000000	0.000017	0.000018	0.000032	-42.919462	-84.518745	44.466826
15415	9.869744	-0.643887	0.705258	-0.011504	0.001234	0.103143	1.000000	0.000020	0.000025	0.000048	-42.932823	-84.518221	44.496534
15416	9.871279	-0.649564	0.681980	0.012002	-0.003762	0.103412	1.000000	0.000031	0.000029	0.000025	-42.919020	-84.518971	44.482749
15417	9.883665	-0.664468	0.711345	-0.016008	-0.018659	0.118766	1.000000	0.000022	0.000021	0.000038	-42.922999	-84.519381	44.481882
15418	9.851253	-0.664825	0.684594	0.008422	-0.020639	0.084653	1.000000	0.000020	0.000027	0.000025	-42.912359	-84.520290	44.470040
15419	9.883517	-0.665585	0.712360	-0.017072	-0.020113	0.118761	1.000000	0.000039	0.000022	0.000032	-42.909004	-84.521102	44.465162
15420	9.863565	-0.680248	0.714409	-0.020134	-0.036257	0.099997	1.000000	0.000028	0.000020	0.000032	-42.908763	-84.522086	44.464680
15421	9.849408	-0.661510	0.709959	-0.017226	-0.018535	0.084375	1.000000	0.000035	0.000032	0.000031	-42.897606	-84.522214	44.454619
15422	9.836886	-0.647706	0.681656	0.009742	-0.005097	0.069032	1.000000	0.000034	0.000019	0.000026	-42.892745	-84.523731	44.450195
15423	9.881592	-0.662887	0.738177	-0.043254	-0.018738	0.118474	1.000000	0.000051	0.000018	0.000044	-42.901102	-84.523926	44.461181
15424	9.864891	-0.687599	0.692480	0.001752	-0.043440	0.100259	1.000000	0.000023	0.000016	0.000027	-42.899405	-84.525602	44.458703
15425	9.854895	-0.630681	0.705514	-0.013380	0.012421	0.087522	1.000000	0.000020	0.000063	0.000056	-42.887560	-84.521267	44.453174
15426	9.872127	-0.660785	0.663482	0.030690	-0.015319	0.103691	1.000000	0.000040	-0.000002	0.000029	-42.900608	-84.524315	44.467498
15427	9.876262	-0.623010	0.680943	0.012136	0.022093	0.106573	1.000000	0.000022	0.000021	0.000038	-42.904816	-84.524712	44.464007
15428	9.876189	-0.623653	0.681402	0.011607	0.021364	0.106576	1.000000	0.000039	0.000022	0.000032	-42.901426	-84.525539	44.461598
15429	9.876117	-0.624295	0.681861	0.011073	0.020637	0.106578	1.000000	0.000022	0.000021	0.000038	-42.906087	-84.526004	44.466787
15430	9.886845	-0.634249	0.734991	-0.040999	0.010039	0.121617	1.000000	0.000028	0.000020	0.000032	-42.905860	-84.526991	44.466320
15431	9.890044	-0.644798	0.687731	0.006512	0.000732	0.122184	1.000000	0.000034	0.000019	0.000026	-42.902193	-84.528578	44.464631
15432	9.875923	-0.626084	0.683034	0.009463	0.018456	0.106584	1.000000	0.000025	0.000011	0.000039	-42.915554	-84.529797	44.477492
15433	9.877487	-0.631817	0.659537	0.032964	0.013434	0.106872	1.000000	0.000022	0.000021	0.000038	-42.920218	-84.530248	44.478959
15434	9.911355	-0.637768	0.663536	0.031476	0.009642	0.141252	1.000000	0.000029	0.000033	0.000036	-42.912491	-84.529779	44.471115
15435	9.877315	-0.633185	0.660795	0.031919	0.011973	0.106877	1.000000	0.000029	0.000033	0.000036	-42.904526	-84.529241	44.453569
15436	9.875583	-0.628893	0.685360	0.007359	0.015547	0.106590	1.000000	0.000034	0.000036	0.000041	-42.898269	-84.528082	44.447736
15437	9.889539	-0.649005	0.691028	0.003301	-0.003637	0.122185	1.000000	0.000026	0.000024	0.000043	-42.905586	-84.527979	44.465382
15438	9.881959	-0.678104	0.722093	-0.027282	-0.033911	0.118701	1.000000	0.000029	0.000033	0.000036	-42.897871	-84.527512	44.457551
15439	9.907614	-0.631476	0.714487	-0.019265	0.014599	0.140678	1.000000	0.000020	0.000025	0.000048	-42.908611	-84.526741	44.464603
15440	9.875210	-0.632154	0.687731	0.005204	0.012638	0.106596	1.000000	0.000020	0.000025	0.000048	-42.919093	-84.525975	44.474030
15441	9.890801	-0.657302	0.669543	0.025148	-0.010850	0.122479	1.000000	0.000029	0.000033	0.000036	-42.914058	-84.525713	44.479622
15442	9.856766	-0.652835	0.666604	0.025591	-0.008500	0.088104	1.000000	0.000024	0.000015	0.000050	-42.933507	-84.525711	44.498435
15443	9.896479	-0.625594	0.664069	0.030082	0.021539	0.125687	1.000000	0.000031	0.000047	0.000040	-42.919648	-84.523891	44.488788
15444	9.874820	-0.635376	0.690354	0.002999	0.009734	0.106600	1.000000	0.000034	0.000036	0.000041	-42.913416	-84.522735	44.482982
15445	9.890400	-0.660573	0.672239	0.022976	-0.013765	0.122480	1.000000	0.000031	0.000027	0.000048	-42.921693	-84.521879	44.494405
15446	9.842318	-0.636855	0.664409	0.026932	0.007063	0.072527	1.000000	0.000028	0.000038	0.000047	-42.920075	-84.520192	44.492534
15447	9.854595	-0.652041	0.693998	-0.001119	-0.007820	0.087806	1.000000	0.000042	0.000029	0.000048	-42.923800	-84.519040	44.488333
15448	9.856154	-0.657883	0.670675	0.022379	-0.012862	0.088107	1.000000	0.000011	0.000019	0.000038	-42.931361	-84.519657	44.493755
15449	9.834524	-0.667484	0.696490	-0.004710	-0.024645	0.069006	1.000000	0.000034	0.000018	0.000026	-42.926871	-84.521205	44.491042
15450	9.857641	-0.664311	0.647875	0.045340	-0.018636	0.088411	1.000000	0.000026	0.000042	0.000058	-42.931321	-84.518297	44.495103
15451	9.866601	-0.669490	0.725115	-0.030813	-0.024880	0.103070	1.000000	0.000026	0.000024	0.000043	-42.938435	-84.518164	44.507609
15452	9.868163	-0.675208	0.701878	-0.007318	-0.029925	0.103372	1.000000	0.000035	0.000032	0.000031	-42.926162	-84.518235	44.495901
15453	9.869732	-0.680871	0.678635	0.016160	-0.034967	0.103676	1.000000	0.000033	0.000023	0.000037	-42.928457	-84.518602	44.501549
15454	9.887912	-0.662553	0.701383	-0.005877	-0.016012	0.122172	1.000000	0.000026	0.000024	0.000043	-42.934346	-84.518372	44.507063
15455	9.880260	-0.691670	0.732404	-0.036507	-0.046257	0.118621	1.000000	0.000037	0.000026	0.000043	-42.938596	-84.518092	44.517814
15456	9.873711	-0.644737	0.697511	-0.003447	0.001011	0.106605	1.000000	0.000040	0.000035	0.000036	-42.927796	-84.517474	44.508121
15457	9.885997	-0.659610	0.726862	-0.031569	-0.013872	0.121857	1.000000	0.000027	0.000006	0.000028	-42.937147	-84.520072	44.525457
15458	9.884266	-0.655269	0.751060	-0.056127	-0.010280	0.121542	1.000000	0.000031	0.000027	0.000048	-42.944506	-84.519154	44.532984
15459	9.873481	-0.646759	0.698887	-0.005062	-0.001168	0.106604	1.000000	0.000049	0.000024	0.000031	-42.937392	-84.519761	44.524142
15460	9.873408	-0.647322	0.699393	-0.005592	-0.001897	0.106604	1.000000	0.000039	0.000022	0.000032	-42.934095	-84.520598	44.521829
15461	9.845308	-0.609311	0.689855	0.000888	0.034341	0.075491	1.000000	0.000034	0.000036	0.000041	-42.929896	-84.519623	44.531324
15462	9.879159	-0.615378	0.693876	-0.000652	0.030484	0.109863	1.000000	0.000036	0.000013	0.000038	-42.940168	-84.520692	44.542319
15463	9.877423	-0.611078	0.718103	-0.025198	0.034078	0.109549	1.000000	0.000026	0.000024	0.000043	-42.945676	-84.520436	44.547399
15464	9.874732	-0.655301	0.677621	0.016277	-0.009136	0.106918	1.000000	0.000033	0.000023	0.000037	-42.946986	-84.520742	44.549016
15465	9.859001	-0.631479	0.696812	-0.004767	0.012950	0.091050	1.000000	0.000034	0.000018	0.000026	-42.943309	-84.522353	44.550750
15466	9.872931	-0.651414	0.702322	-0.008831	-0.006265	0.106599	1.000000	0.000022	0.000021	0.000037	-42.947754	-84.522817	44.554281
15467	9.880441	-0.623810	0.672485	0.020675	0.022522	0.110193	1.000000	0.000026	0.000043	0.000035	-42.933042	-84.521725	44.544248
15468	9.872751	-0.652717	0.703641	-0.009929	-0.007715	0.106597	1.000000	0.000028	0.000020	0.000032	-42.932894	-84.522722	44.543865
15469	9.884998	-0.667637	0.733089	-0.038019	-0.022600	0.121818	1.000000	0.000019	0.000031	0.000036	-42.928231	-84.522386	44.533970
15470	9.861933	-0.644790	0.651957	0.040609	0.000659	0.091699	1.000000	0.000028	0.000020	0.000032	-42.928086	-84.523384	44.533589
15471	9.872523	-0.654659	0.705033	-0.011526	-0.009892	0.106594	1.000000	0.000025	0.000011	0.000039	-42.942227	-84.524646	44.547658
15472	9.894048	-0.646561	0.680008	0.014480	0.000383	0.125745	1.000000	0.000020	0.000025	0.000048	-42.952745	-84.523888	44.557125
15473	9.860032	-0.642008	0.677030	0.014983	0.002811	0.091379	1.000000	0.000043	0.000025	0.000037	-42.951095	-84.524046	44.557226
15474	9.838329	-0.651600	0.703125	-0.012082	-0.008915	0.072223	1.000000	0.000015	0.000041	0.000035	-42.937600	-84.522985	44.541984
15475	9.861510	-0.648536	0.654629	0.037965	-0.002988	0.091709	1.000000	0.000042	0.000029	0.000048	-42.941183	-84.521847	44.543007
15476	9.879688	-0.630308	0.677466	0.015926	0.015956	0.110214	1.000000	0.000037	0.000026	0.000043	-42.943986	-84.521467	44.546660
15477	9.859654	-0.645038	0.679648	0.012873	-0.000103	0.091383	1.000000	0.000019	0.000031	0.000036	-42.939939	-84.521217	44.545347
15478	9.859564	-0.645778	0.680246	0.012344	-0.000832	0.091383	1.000000	0.000037	0.000026	0.000043	-42.942748	-84.520838	44.549006
15479	9.913347	-0.638020	0.682665	0.013289	0.010595	0.144585	1.000000	0.000034	0.000017	0.000049	-42.958732	-84.520643	44.561824
15480	9.859372	-0.647406	0.681477	0.011295	-0.002289	0.091384	1.000000	0.000034	0.000056	0.000033	-42.930038	-84.518509	44.533411
15481	9.879227	-0.634203	0.680557	0.013274	0.012312	0.110224	1.000000	0.000038	0.000007	0.000051	-42.955867	-84.519127	44.557214
15482	9.879161	-0.634914	0.680851	0.012745	0.011582	0.110225	1.000000	0.000034	0.000018	0.000026	-42.951161	-84.520660	44.552955
15483	9.877411	-0.630467	0.705127	-0.011799	0.015209	0.109891	1.000000	0.000026	0.000024	0.000043	-42.956971	-84.520408	44.554823
15484	9.873012	-0.669703	0.688520	0.005603	-0.023699	0.106906	1.000000	0.000026	0.000024	0.000043	-42.962907	-84.520187	44.560390
15485	9.891195	-0.651365	0.711384	-0.016437	-0.004751	0.125411	1.000000	0.000040	0.000035	0.000036	-42.952399	-84.519595	44.551532
15486	9.885107	-0.685371	0.718782	-0.023060	-0.039302	0.122082	1.000000	0.000019	0.000031	0.000036	-42.947893	-84.519301	44.545699
15487	9.890998	-0.652827	0.712782	-0.017503	-0.006208	0.125408	1.000000	0.000028	0.000037	0.000047	-42.946512	-84.517636	44.544342
15488	9.872616	-0.672665	0.691307	0.003470	-0.026613	0.106900	1.000000	0.000040	0.000035	0.000036	-42.935787	-84.517031	44.534733
15489	9.876856	-0.634934	0.708877	-0.014990	0.010845	0.109892	1.000000	0.000014	0.000008	0.000039	-42.952821	-84.518441	44.550558
15490	9.876775	-0.635762	0.709259	-0.015520	0.010117	0.109892	1.000000	0.000031	0.000027	0.000048	-42.960236	-84.517533	44.558146
15491	9.844448	-0.636253	0.682521	0.009025	0.008226	0.075874	1.000000	0.000029	0.000033	0.000036	-42.953380	-84.517146	44.555273
15492	9.878274	-0.642393	0.686675	0.007422	0.004295	0.110236	1.000000	0.000026	0.000024	0.000043	-42.959329	-84.516927	44.560853
15493	9.858220	-0.657105	0.688825	0.004360	-0.011737	0.091383	1.000000	0.000019	0.000031	0.000036	-42.955850	-84.516710	44.560142
15494	9.859822	-0.662842	0.665637	0.027847	-0.016833	0.091729	1.000000	0.000025	0.000030	0.000031	-42.946779	-84.516951	44.550424
15495	9.873698	-0.682734	0.671292	0.023699	-0.036073	0.107232	1.000000	0.000034	0.000018	0.000026	-42.943464	-84.518613	44.555640
15496	9.856295	-0.653850	0.714242	-0.021277	-0.009552	0.091033	1.000000	0.000020	0.000025	0.000048	-42.954002	-84.517863	44.565130
15497	9.877878	-0.645583	0.689371	0.004712	0.000655	0.110239	1.000000	0.000032	0.000024	0.000014	-42.934753	-84.519879	44.546313
15498	9.859526	-0.665242	0.667628	0.025691	-0.019743	0.091729	1.000000	0.000010	0.000023	0.000049	-42.948403	-84.519285	44.557695
15499	9.871678	-0.680240	0.697259	-0.002478	-0.034615	0.106875	1.000000	0.000032	0.000042	0.000029	-42.928551	-84.518701	44.541989
15500	9.857654	-0.661422	0.692783	0.000588	-0.016824	0.091377	1.000000	0.000039	0.000022	0.000032	-42.925358	-84.519551	44.539787
15501	9.875852	-0.643035	0.715538	-0.021496	0.002113	0.109886	1.000000	0.000037	0.000026	0.000043	-42.930188	-84.519355	44.557095
15502	9.879155	-0.654009	0.668441	0.026009	-0.007355	0.110594	1.000000	0.000033	0.000023	0.000037	-42.931581	-84.519673	44.558800
15503	9.861758	-0.624903	0.711473	-0.018991	0.019187	0.094393	1.000000	0.000048	0.000029	0.000019	-42.912084	-84.520943	44.545328
15504	9.877322	-0.649919	0.693261	0.000897	-0.004436	0.110239	1.000000	0.000025	0.000010	0.000039	-42.925564	-84.522179	44.558313
15505	9.878940	-0.655742	0.669915	0.024394	-0.009535	0.110596	1.000000	0.000029	0.000033	0.000036	-42.917763	-84.521661	44.542361
15506	9.895444	-0.632242	0.716450	-0.021663	0.013776	0.128750	1.000000	0.000036	0.000013	0.000038	-42.928147	-84.522742	44.553472
15507	9.864853	-0.637742	0.665761	0.026926	0.007534	0.095112	1.000000	0.000040	0.000035	0.000036	-42.918216	-84.522201	44.548395
15508	9.896975	-0.638722	0.693777	0.001275	0.007939	0.129110	1.000000	0.000033	0.000023	0.000037	-42.919619	-84.522521	44.550111
15509	9.896890	-0.639464	0.694304	0.000776	0.007208	0.129111	1.000000	0.000037	0.000026	0.000043	-42.921240	-84.522030	44.544124
15510	9.882888	-0.620769	0.689651	0.003863	0.025007	0.113631	1.000000	0.000039	0.000022	0.000032	-42.918068	-84.522883	44.541944
15511	9.879396	-0.611242	0.737863	-0.044726	0.033054	0.112907	1.000000	0.000017	0.000035	0.000047	-42.921192	-84.521475	44.547703
15512	9.878335	-0.660737	0.673922	0.020663	-0.014642	0.110598	1.000000	0.000040	0.000035	0.000036	-42.910523	-84.520879	44.538156
15513	9.880916	-0.617834	0.715301	-0.021765	0.027218	0.113272	1.000000	0.000036	0.000013	0.000038	-42.921043	-84.521935	44.545942
15514	9.830363	-0.637299	0.666025	0.024347	0.005692	0.060770	1.000000	0.000022	0.000021	0.000037	-42.925553	-84.522411	44.549543
15515	9.896374	-0.643744	0.697700	-0.002438	0.002841	0.129113	1.000000	0.000026	0.000043	0.000035	-42.909318	-84.521197	44.528972
15516	9.842384	-0.652888	0.696427	-0.004352	-0.009897	0.075876	1.000000	0.000019	0.000031	0.000036	-42.904845	-84.520911	44.523176
15517	9.862290	-0.639651	0.695414	-0.002353	0.004643	0.094759	1.000000	0.000033	0.000023	0.000037	-42.905294	-84.521160	44.519604
15518	9.897808	-0.650983	0.675845	0.020001	-0.003754	0.129482	1.000000	0.000034	0.000036	0.000041	-42.899217	-84.520033	44.513970
15519	9.862107	-0.641049	0.696723	-0.003450	0.003191	0.094759	1.000000	0.000025	0.000030	0.000031	-42.891983	-84.520423	44.513659
15520	9.875919	-0.661300	0.702427	-0.007616	-0.016075	0.110224	1.000000	0.000022	0.000019	0.000060	-42.917600	-84.519221	44.538508
15521	9.877518	-0.667464	0.679244	0.015853	-0.021201	0.110595	1.000000	0.000039	0.000039	0.000047	-42.913689	-84.517439	44.536034
15522	9.861818	-0.643599	0.698470	-0.005049	0.001012	0.094759	1.000000	0.000034	0.000018	0.000026	-42.909067	-84.518984	44.531863
15523	9.903459	-0.621561	0.671905	0.023446	0.026403	0.132917	1.000000	0.000041	0.000016	0.000044	-42.921082	-84.519357	44.541724
15524	9.861670	-0.644986	0.699279	-0.006105	-0.000439	0.094759	1.000000	0.000033	0.000023	0.000037	-42.922518	-84.519681	44.543475
15525	9.861590	-0.645675	0.699769	-0.006646	-0.001162	0.094758	1.000000	0.000033	0.000023	0.000037	-42.924618	-84.520038	44.546013
15526	9.863221	-0.651639	0.676401	0.016834	-0.006301	0.095135	1.000000	0.000034	0.000017	0.000049	-42.941100	-84.519904	44.563088
15527	9.861427	-0.647229	0.700628	-0.007698	-0.002614	0.094757	1.000000	0.000039	0.000021	0.000032	-42.937831	-84.520726	44.557516
15528	9.863054	-0.653256	0.677270	0.015781	-0.007757	0.095136	1.000000	0.000022	0.000019	0.000060	-42.963448	-84.519524	44.582366
15529	9.881247	-0.634968	0.700155	-0.006266	0.011187	0.113655	1.000000	0.000049	0.000043	0.000024	-42.935599	-84.519278	44.557138
15530	9.881165	-0.635639	0.700698	-0.006795	0.010458	0.113656	1.000000	0.000038	0.000007	0.000051	-42.961081	-84.519906	44.583626
15531	9.876669	-0.674899	0.684217	0.010490	-0.028484	0.110584	1.000000	0.000026	0.000043	0.000035	-42.945868	-84.518831	44.575095
15532	9.880980	-0.637167	0.701925	-0.007885	0.009000	0.113656	1.000000	0.000027	0.000024	0.000043	-42.951885	-84.518625	44.580749
15533	9.859166	-0.646654	0.727767	-0.034920	-0.002550	0.094368	1.000000	0.000022	0.000021	0.000037	-42.956243	-84.519066	44.580918
15534	9.882539	-0.643737	0.679124	0.015070	0.003123	0.114042	1.000000	0.000025	0.000030	0.000031	-42.947225	-84.519319	44.571259
15535	9.859001	-0.647793	0.728999	-0.035985	-0.003999	0.094364	1.000000	0.000028	0.000039	0.000024	-42.925072	-84.519364	44.548914
15536	9.860640	-0.653526	0.705845	-0.012508	-0.009150	0.094748	1.000000	0.000033	0.000023	0.000037	-42.926533	-84.519692	44.550692
15537	9.882304	-0.645507	0.680867	0.013506	0.000935	0.114044	1.000000	0.000036	0.000012	0.000038	-42.935686	-84.520633	44.550265
15538	9.848344	-0.640709	0.677578	0.014145	0.003521	0.079698	1.000000	0.000022	0.000021	0.000037	-42.940227	-84.521115	44.553900
15539	9.883862	-0.652127	0.658130	0.036435	-0.004957	0.114436	1.000000	0.000031	0.000046	0.000040	-42.925917	-84.519298	44.543185
15540	9.878586	-0.637310	0.730240	-0.036110	0.007614	0.113264	1.000000	0.000033	0.000023	0.000037	-42.927385	-84.519627	44.544970
15541	9.861941	-0.662246	0.684708	0.008839	-0.017212	0.095133	1.000000	0.000033	0.000023	0.000037	-42.930119	-84.520044	44.551913
15542	9.868010	-0.629700	0.678429	0.014495	0.015848	0.098617	1.000000	0.000037	0.000026	0.000043	-42.933079	-84.519688	44.555735
15543	9.881781	-0.649960	0.684203	0.010289	-0.003438	0.114048	1.000000	0.000020	0.000025	0.000048	-42.943502	-84.518914	44.561581
15544	9.869570	-0.636434	0.655662	0.037449	0.009951	0.099016	1.000000	0.000045	0.000020	0.000026	-42.935861	-84.520312	44.555617
15545	9.879900	-0.646026	0.708987	-0.014796	-0.000455	0.113652	1.000000	0.000043	0.000025	0.000037	-42.935241	-84.520565	44.559918
15546	9.861517	-0.665901	0.687269	0.006173	-0.020850	0.095128	1.000000	0.000010	0.000023	0.000049	-42.948911	-84.519981	44.571323
15547	9.867586	-0.633467	0.681095	0.011876	0.012208	0.098626	1.000000	0.000045	0.000038	0.000041	-42.938450	-84.518554	44.552664
15548	9.867490	-0.634246	0.681751	0.011348	0.011479	0.098627	1.000000	0.000027	0.000024	0.000043	-42.944490	-84.518352	44.558343
15549	9.879531	-0.649148	0.711277	-0.016866	-0.003365	0.113648	1.000000	0.000039	0.000021	0.000032	-42.940609	-84.519162	44.552596
15550	9.879449	-0.649827	0.711793	-0.017396	-0.004094	0.113647	1.000000	0.000037	0.000026	0.000043	-42.943584	-84.518808	44.556434
15551	9.879357	-0.650566	0.712389	-0.017945	-0.004822	0.113646	1.000000	0.000019	0.000031	0.000036	-42.939952	-84.518605	44.555565
15552	9.867153	-0.637026	0.684032	0.009230	0.008561	0.098632	1.000000	0.000040	0.000035	0.000036	-42.929379	-84.518026	44.546124
15553	9.867076	-0.637726	0.684493	0.008669	0.007834	0.098633	1.000000	0.000014	0.000008	0.000039	-42.947351	-84.519545	44.569492
15554	9.865259	-0.633350	0.708661	-0.015860	0.011560	0.098230	1.000000	0.000031	0.000027	0.000048	-42.954890	-84.518659	44.577215
15555	9.866912	-0.639233	0.685457	0.007636	0.006382	0.098635	1.000000	0.000031	0.000028	0.000025	-42.940661	-84.519329	44.552958
15556	9.868566	-0.645118	0.662254	0.031106	0.001192	0.099042	1.000000	0.000031	0.000027	0.000048	-42.948203	-84.518443	44.560684
15557	9.902354	-0.651413	0.666543	0.029368	-0.002903	0.133385	1.000000	0.000025	0.000030	0.000031	-42.939207	-84.518712	44.551678
15558	9.902269	-0.652037	0.667195	0.028836	-0.003635	0.133387	1.000000	0.000029	0.000033	0.000036	-42.931710	-84.518286	44.544089
15559	9.866568	-0.642011	0.687810	0.005544	0.003471	0.098638	1.000000	0.000041	0.000016	0.000044	-42.942865	-84.518571	44.546922
15560	9.844695	-0.651401	0.713731	-0.021492	-0.007989	0.079291	1.000000	0.000005	0.000039	0.000035	-42.932490	-84.517689	44.533595
15561	9.866382	-0.643419	0.689160	0.004482	0.002014	0.098639	1.000000	0.000051	0.000037	0.000036	-42.919038	-84.516970	44.522725
15562	9.858332	-0.672259	0.720341	-0.026281	-0.028014	0.094686	1.000000	0.000024	0.000015	0.000050	-42.938647	-84.516998	44.541706
15563	9.866203	-0.645014	0.690220	0.003440	0.000561	0.098640	1.000000	0.000029	0.000033	0.000036	-42.930610	-84.516488	44.527248
15564	9.878186	-0.660002	0.719910	-0.024819	-0.014263	0.113622	1.000000	0.000031	0.000027	0.000048	-42.938164	-84.515605	44.534987
15565	9.879825	-0.666117	0.696798	-0.001360	-0.019470	0.114034	1.000000	0.000028	0.000037	0.000047	-42.937068	-84.513973	44.533521
15566	9.832037	-0.641918	0.688408	0.003073	0.001764	0.064302	1.000000	0.000022	0.000021	0.000037	-42.941641	-84.514461	44.537190
15567	9.879648	-0.667605	0.697891	-0.002454	-0.020927	0.114031	1.000000	0.000043	0.000025	0.000037	-42.941595	-84.514783	44.546645
15568	9.887551	-0.640267	0.667722	0.027256	0.007631	0.118005	1.000000	0.000011	0.000019	0.000038	-42.949225	-84.515423	44.552149
15569	9.877720	-0.663877	0.722741	-0.027500	-0.017895	0.113609	1.000000	0.000039	0.000039	0.000047	-42.944288	-84.513554	44.542556
15570	9.881134	-0.675000	0.675788	0.019957	-0.027599	0.114446	1.000000	0.000034	0.000018	0.000026	-42.939779	-84.515111	44.538505
15571	9.845442	-0.664697	0.696384	-0.003332	-0.020443	0.079687	1.000000	0.000036	0.000032	0.000030	-42.927755	-84.515227	44.527706
15572	9.851603	-0.632057	0.690107	0.002396	0.012598	0.083255	1.000000	0.000033	0.000023	0.000037	-42.929285	-84.515566	44.529558
15573	9.883626	-0.633155	0.718210	-0.023390	0.012962	0.117169	1.000000	0.000023	0.000034	0.000042	-42.927432	-84.514689	44.530870
15574	9.865239	-0.652908	0.696550	-0.002434	-0.007439	0.098637	1.000000	0.000028	0.000019	0.000032	-42.927471	-84.515713	44.530688
15575	9.851352	-0.634052	0.691869	0.000795	0.010422	0.083258	1.000000	0.000022	0.000040	0.000029	-42.909370	-84.515182	44.508974
15576	9.885131	-0.640270	0.696252	-0.000980	0.006285	0.117594	1.000000	0.000033	0.000023	0.000037	-42.910907	-84.515522	44.510834
15577	9.888575	-0.651447	0.649080	0.046469	-0.003436	0.118447	1.000000	0.000036	0.000012	0.000038	-42.921884	-84.516617	44.520688
15578	9.884986	-0.641681	0.697002	-0.002045	0.004832	0.117594	1.000000	0.000022	0.000021	0.000037	-42.926471	-84.517108	44.524374
15579	9.866583	-0.661592	0.675421	0.018875	-0.015562	0.099061	1.000000	0.000033	0.000040	0.000052	-42.928324	-84.514893	44.530675
15580	9.869231	-0.618634	0.716768	-0.023369	0.026473	0.101794	1.000000	0.000039	0.000021	0.000032	-42.925331	-84.515768	44.528685
15581	9.852610	-0.643571	0.671321	0.021577	0.001576	0.083691	1.000000	0.000019	0.000031	0.000036	-42.921272	-84.515486	44.520936
15582	9.886393	-0.649824	0.675592	0.019788	-0.002577	0.118026	1.000000	0.000028	0.000019	0.000032	-42.921325	-84.516512	44.520768
15583	9.900108	-0.669957	0.681363	0.015469	-0.021895	0.133393	1.000000	0.000027	0.000024	0.000043	-42.928451	-84.516373	44.528878
15584	9.872441	-0.631843	0.671235	0.022479	0.014562	0.102663	1.000000	0.000033	0.000022	0.000037	-42.930008	-84.516715	44.530758
15585	9.884399	-0.646609	0.700770	-0.005808	-0.000251	0.117594	1.000000	0.000034	0.000018	0.000026	-42.925397	-84.518243	44.524072
15586	9.884311	-0.647279	0.701382	-0.006339	-0.000980	0.117594	1.000000	0.000039	0.000039	0.000047	-42.920950	-84.516457	44.520627
15587	9.884219	-0.647949	0.702067	-0.006912	-0.001703	0.117593	1.000000	0.000020	0.000026	0.000025	-42.912593	-84.517558	44.517754
15588	9.850287	-0.642904	0.698822	-0.006170	0.001007	0.083261	1.000000	0.000033	0.000022	0.000037	-42.914158	-84.517901	44.519642
15589	9.872045	-0.635099	0.673980	0.019775	0.010928	0.102673	1.000000	0.000027	0.000024	0.000043	-42.921256	-84.517784	44.529835
15590	9.883975	-0.650027	0.703573	-0.008524	-0.003888	0.117591	1.000000	0.000033	0.000022	0.000037	-42.922826	-84.518128	44.531729
15591	9.890202	-0.617307	0.697195	-0.002815	0.029144	0.121213	1.000000	0.000026	0.000025	0.000020	-42.909953	-84.519773	44.525146
15592	9.870045	-0.631732	0.699330	-0.005847	0.013261	0.102237	1.000000	0.000042	0.000029	0.000048	-42.914536	-84.518749	44.531143
15593	9.851654	-0.651476	0.677699	0.015079	-0.007133	0.083701	1.000000	0.000020	0.000026	0.000025	-42.905487	-84.519837	44.527341
15594	9.903734	-0.638620	0.704300	-0.008222	0.008350	0.136568	1.000000	0.000029	0.000033	0.000036	-42.898056	-84.519422	44.519824
15595	9.853268	-0.658001	0.655024	0.037976	-0.013100	0.084145	1.000000	0.000036	0.000012	0.000038	-42.910214	-84.520666	44.538676
15596	9.883494	-0.653799	0.706832	-0.011819	-0.008259	0.117585	1.000000	0.000029	0.000033	0.000036	-42.902786	-84.520252	44.531162
15597	9.869633	-0.635096	0.702089	-0.008623	0.009618	0.102239	1.000000	0.000027	0.000024	0.000043	-42.911461	-84.520313	44.551489
15598	9.849469	-0.649706	0.704050	-0.011648	-0.006255	0.083254	1.000000	0.000030	0.000013	0.000044	-42.926610	-84.520884	44.566692
15599	9.883231	-0.656221	0.708269	-0.013455	-0.010449	0.117581	1.000000	0.000031	0.000027	0.000048	-42.933520	-84.519956	44.569935
15600	9.884928	-0.662194	0.684958	0.010002	-0.015696	0.118028	1.000000	0.000023	0.000016	0.000027	-42.932109	-84.521671	44.567760
15601	9.867542	-0.632781	0.727600	-0.034695	0.011224	0.101790	1.000000	0.000043	0.000024	0.000037	-42.929959	-84.521811	44.563729
15602	9.882988	-0.658289	0.709729	-0.015033	-0.012637	0.117576	1.000000	0.000031	0.000027	0.000048	-42.937599	-84.520940	44.571560
15603	9.882891	-0.659135	0.710294	-0.015610	-0.013366	0.117574	1.000000	0.000037	0.000026	0.000043	-42.942813	-84.520794	44.586143
15604	9.855288	-0.621038	0.700123	-0.008545	0.023134	0.086906	1.000000	0.000027	0.000024	0.000043	-42.948953	-84.520608	44.591929
15605	9.872520	-0.651797	0.658428	0.035086	-0.005253	0.103146	1.000000	0.000033	0.000022	0.000037	-42.951234	-84.521020	44.596990
15606	9.848781	-0.655690	0.708107	-0.015911	-0.012070	0.083243	1.000000	0.000030	0.000033	0.000036	-42.943822	-84.520611	44.589495
15607	9.870566	-0.647992	0.683309	0.010052	-0.002183	0.102693	1.000000	0.000034	0.000017	0.000049	-42.960300	-84.520416	44.600581
15608	9.868713	-0.643414	0.707437	-0.014463	0.001616	0.102237	1.000000	0.000023	0.000016	0.000027	-42.958909	-84.522133	44.598428
15609	9.868638	-0.643994	0.707951	-0.014976	0.000888	0.102237	1.000000	0.000030	0.000033	0.000036	-42.950744	-84.521664	44.586694
15610	9.850243	-0.663627	0.686353	0.005983	-0.019499	0.083694	1.000000	0.000020	0.000026	0.000025	-42.940323	-84.522623	44.575101
15611	9.888575	-0.631420	0.707555	-0.013519	0.014555	0.121237	1.000000	0.000037	0.000026	0.000043	-42.942497	-84.522222	44.575235
15612	9.870176	-0.651163	0.685929	0.007439	-0.005835	0.102694	1.000000	0.000025	0.000029	0.000031	-42.933583	-84.522498	44.565694
15613	9.868315	-0.646450	0.710209	-0.017108	-0.002025	0.102233	1.000000	0.000028	0.000019	0.000032	-42.935206	-84.523659	44.572844
15614	9.881980	-0.666483	0.716091	-0.021457	-0.021376	0.117549	1.000000	0.000025	0.000029	0.000031	-42.926292	-84.523936	44.563305
15615	9.868152	-0.647638	0.711397	-0.018197	-0.003481	0.102231	1.000000	0.000040	0.000035	0.000036	-42.917150	-84.523500	44.561063
15616	9.888167	-0.634541	0.710451	-0.016233	0.010908	0.121237	1.000000	0.000033	0.000022	0.000037	-42.918781	-84.523852	44.563022
15617	9.869775	-0.654304	0.688700	0.004709	-0.009475	0.102693	1.000000	0.000022	0.000020	0.000037	-42.924341	-84.524425	44.570205
15618	9.874296	-0.616394	0.705824	-0.013488	0.028079	0.105925	1.000000	0.000027	0.000006	0.000028	-42.931989	-84.526902	44.577500
15619	9.854120	-0.630863	0.707738	-0.016535	0.012242	0.086915	1.000000	0.000031	0.000027	0.000048	-42.940999	-84.526122	44.589073
15620	9.875918	-0.623243	0.683077	0.009412	0.022084	0.106396	1.000000	0.000034	0.000036	0.000041	-42.935115	-84.525034	44.583654
15621	9.887771	-0.638075	0.712803	-0.018946	0.007269	0.121236	1.000000	0.000028	0.000019	0.000032	-42.936069	-84.526131	44.587529
15622	9.869375	-0.657778	0.691118	0.002016	-0.013113	0.102690	1.000000	0.000019	0.000031	0.000036	-42.931695	-84.525876	44.581850
15623	9.875668	-0.625370	0.684753	0.007805	0.019899	0.106402	1.000000	0.000021	0.000025	0.000048	-42.942658	-84.525169	44.591440
15624	9.855462	-0.639910	0.686931	0.004786	0.004064	0.087386	1.000000	0.000040	0.000035	0.000036	-42.932257	-84.524617	44.582185
15625	9.875491	-0.626837	0.685959	0.006764	0.018439	0.106406	1.000000	0.000022	0.000020	0.000037	-42.936289	-84.525059	44.581449
15626	9.867229	-0.655444	0.717022	-0.024076	-0.011475	0.102212	1.000000	0.000036	0.000012	0.000038	-42.946984	-84.526172	44.592881
15627	9.875346	-0.628305	0.686710	0.005724	0.016978	0.106409	1.000000	0.000027	0.000024	0.000043	-42.952394	-84.525933	44.595092
15628	9.888974	-0.648567	0.692629	0.001351	-0.002388	0.121706	1.000000	0.000037	0.000026	0.000043	-42.955564	-84.525606	44.599138
15629	9.875165	-0.629891	0.687860	0.004663	0.015521	0.106412	1.000000	0.000023	0.000034	0.000041	-42.952927	-84.524678	44.595479
15630	9.886983	-0.644823	0.717641	-0.023694	0.000713	0.121228	1.000000	0.000037	0.000026	0.000043	-42.956101	-84.524351	44.599530
15631	9.874983	-0.631526	0.688972	0.003653	0.014059	0.106414	1.000000	0.000045	0.000019	0.000049	-42.967817	-84.523921	44.604500
15632	9.852989	-0.640639	0.714668	-0.023348	0.002804	0.086909	1.000000	0.000023	0.000016	0.000027	-42.966461	-84.525643	44.602385
15633	9.910446	-0.643941	0.670228	0.025218	0.004477	0.141214	1.000000	0.000033	0.000059	0.000044	-42.943396	-84.522351	44.579528
15634	9.852776	-0.642177	0.716211	-0.024397	0.001345	0.086906	1.000000	0.000024	0.000015	0.000049	-42.963142	-84.522396	44.598653
15635	9.868205	-0.667730	0.698253	-0.004810	-0.022594	0.102672	1.000000	0.000039	0.000021	0.000032	-42.960349	-84.523296	44.597264
15636	9.852618	-0.643608	0.717112	-0.025455	-0.000107	0.086904	1.000000	0.000037	0.000026	0.000043	-42.963533	-84.522971	44.601326
15637	9.868037	-0.669215	0.699193	-0.005895	-0.024046	0.102668	1.000000	0.000030	0.000013	0.000044	-42.980022	-84.523628	44.620253
15638	9.876191	-0.642165	0.668875	0.023909	0.004379	0.106906	1.000000	0.000027	0.000024	0.000043	-42.986216	-84.523452	44.626099
15639	9.872490	-0.632224	0.717002	-0.024628	0.012802	0.105936	1.000000	0.000040	0.000034	0.000036	-42.978311	-84.523098	44.628160
15640	9.867774	-0.671445	0.700770	-0.007536	-0.026227	0.102661	1.000000	0.000011	0.000018	0.000038	-42.986005	-84.523751	44.633733
15641	9.852187	-0.647311	0.719689	-0.028188	-0.003725	0.086896	1.000000	0.000051	0.000036	0.000036	-42.973480	-84.523087	44.621795
15642	9.869402	-0.678250	0.678153	0.015363	-0.032254	0.103145	1.000000	0.000024	0.000015	0.000049	-42.993245	-84.523133	44.640939
15643	9.887653	-0.659888	0.700741	-0.006679	-0.013332	0.121695	1.000000	0.000045	0.000020	0.000026	-42.986893	-84.524680	44.640608
15644	9.869247	-0.679640	0.679025	0.014277	-0.033715	0.103142	1.000000	0.000021	0.000025	0.000048	-42.997613	-84.523969	44.650300
15645	9.873799	-0.641908	0.696301	-0.003857	0.003864	0.106424	1.000000	0.000033	0.000022	0.000037	-42.999180	-84.524283	44.649046
15646	9.893864	-0.628833	0.695197	-0.001898	0.018206	0.125469	1.000000	0.000028	0.000019	0.000032	-42.999369	-84.525326	44.649023
15647	9.873651	-0.643118	0.697287	-0.004951	0.002409	0.106424	1.000000	0.000036	0.000031	0.000030	-42.989134	-84.525593	44.644355
15648	9.887270	-0.663257	0.702970	-0.009362	-0.016975	0.121687	1.000000	0.000032	-0.000010	0.000041	-43.021020	-84.528370	44.676569
15649	9.853384	-0.658207	0.699350	-0.008509	-0.014118	0.087374	1.000000	0.000030	0.000033	0.000036	-43.014073	-84.528031	44.671718
15650	9.895391	-0.636829	0.673122	0.019910	0.010699	0.125970	1.000000	0.000008	0.000029	0.000036	-43.012720	-84.527931	44.667838
15651	9.888845	-0.670649	0.680658	0.012993	-0.023753	0.122179	1.000000	0.000050	0.000023	0.000031	-43.007517	-84.528740	44.666762
15652	9.879752	-0.613257	0.692456	-0.001250	0.032482	0.110217	1.000000	0.000022	0.000020	0.000037	-43.012230	-84.529250	44.670584
15653	9.873197	-0.647131	0.700001	-0.008186	-0.001964	0.106421	1.000000	0.000030	0.000032	0.000036	-43.006408	-84.528971	44.669978
15654	9.859441	-0.628326	0.695140	-0.004825	0.015968	0.091166	1.000000	0.000033	0.000022	0.000037	-43.008128	-84.529335	44.672033
15655	9.893194	-0.634630	0.699462	-0.006727	0.011637	0.125476	1.000000	0.000040	0.000017	0.000021	-42.997937	-84.531319	44.655612
15656	9.859305	-0.629486	0.696016	-0.005847	0.014512	0.091168	1.000000	0.000021	0.000025	0.000048	-43.008681	-84.530612	44.665329
15657	9.894858	-0.641452	0.676563	0.016206	0.005577	0.125981	1.000000	0.000036	0.000012	0.000038	-43.018537	-84.531653	44.674044
15658	9.894787	-0.642164	0.676921	0.015676	0.004846	0.125982	1.000000	0.000022	0.000020	0.000037	-43.023258	-84.532164	44.677874
15659	9.859068	-0.631814	0.697268	-0.007406	0.012326	0.091170	1.000000	0.000031	0.000027	0.000048	-43.030750	-84.531299	44.686594
15660	9.879128	-0.618965	0.696275	-0.005447	0.026647	0.110233	1.000000	0.000037	0.000025	0.000042	-43.033993	-84.530982	44.690719
15661	9.857059	-0.628072	0.722194	-0.032394	0.015484	0.090664	1.000000	0.000024	0.000034	0.000041	-43.029834	-84.529883	44.676805
15662	9.894429	-0.645351	0.679123	0.013595	0.001921	0.125986	1.000000	0.000047	0.000014	0.000038	-43.037649	-84.530859	44.686590
15663	9.860539	-0.640231	0.675724	0.014501	0.004815	0.091680	1.000000	0.000030	0.000032	0.000036	-43.030001	-84.530410	44.675322
15664	9.856797	-0.630256	0.723862	-0.033966	0.013311	0.090662	1.000000	0.000042	0.000029	0.000048	-43.034763	-84.529413	44.681512
15665	9.858549	-0.636329	0.700499	-0.010522	0.007970	0.091172	1.000000	0.000027	0.000006	0.000028	-43.042399	-84.531885	44.688748
15666	9.892278	-0.642963	0.704785	-0.012482	0.003613	0.125477	1.000000	0.000019	0.000029	0.000059	-43.059156	-84.529961	44.704345
15667	9.880348	-0.629815	0.676225	0.014871	0.016941	0.110755	1.000000	0.000024	0.000034	0.000041	-43.056874	-84.529049	44.700223
15668	9.839936	-0.657978	0.679823	0.009363	-0.013863	0.072612	1.000000	0.000030	0.000013	0.000044	-43.072200	-84.529635	44.715611
15669	9.885469	-0.678702	0.713478	-0.020509	-0.032280	0.121633	1.000000	0.000034	0.000036	0.000041	-43.066871	-84.528622	44.712186
15670	9.927528	-0.657524	0.687262	0.007903	-0.007564	0.160294	1.000000	0.000027	0.000023	0.000043	-43.073120	-84.528453	44.718091
15671	9.857993	-0.641222	0.703847	-0.013744	0.003610	0.091170	1.000000	0.000026	0.000043	0.000035	-43.058053	-84.527432	44.706057
15672	9.859711	-0.647492	0.680868	0.009694	-0.001741	0.091687	1.000000	0.000030	0.000031	0.000059	-43.071821	-84.525366	44.719893
15673	9.869604	-0.657027	0.734227	-0.042698	-0.011898	0.105875	1.000000	0.000027	0.000006	0.000028	-43.079370	-84.527851	44.726006
15674	9.884997	-0.682503	0.716378	-0.023198	-0.035928	0.121614	1.000000	0.000030	0.000032	0.000036	-43.072052	-84.527467	44.718620
15675	9.859469	-0.649693	0.682275	0.008140	-0.003932	0.091688	1.000000	0.000021	0.000025	0.000048	-43.081460	-84.526640	44.720398
15676	9.889519	-0.645547	0.734188	-0.041771	0.000950	0.124948	1.000000	0.000033	0.000022	0.000037	-43.083226	-84.527010	44.722503
15677	9.859292	-0.651235	0.683360	0.007115	-0.005392	0.091688	1.000000	0.000024	0.000034	0.000041	-43.078839	-84.525958	44.712088
15678	9.864439	-0.699297	0.720214	-0.027763	-0.053862	0.102514	1.000000	0.000027	0.000023	0.000043	-43.085097	-84.525792	44.718005
15679	9.875612	-0.628429	0.730419	-0.039417	0.017451	0.109726	1.000000	0.000031	0.000027	0.000048	-43.094619	-84.525064	44.732218
15680	9.892826	-0.659428	0.688885	0.004032	-0.011235	0.125988	1.000000	0.000023	0.000016	0.000027	-43.093377	-84.526797	44.730222
15681	9.906366	-0.679512	0.694961	-0.000462	-0.030649	0.141199	1.000000	0.000016	0.000041	0.000035	-43.080452	-84.525854	44.717375
15682	9.890812	-0.655274	0.713961	-0.021006	-0.008056	0.125460	1.000000	0.000030	0.000032	0.000036	-43.073151	-84.525472	44.710008
15683	9.870551	-0.669566	0.716026	-0.024063	-0.023804	0.106367	1.000000	0.000017	0.000017	0.000032	-43.077994	-84.526841	44.720363
15684	9.860528	-0.661495	0.663674	0.027287	-0.015128	0.092214	1.000000	0.000026	0.000043	0.000035	-43.061618	-84.525706	44.703516
15685	9.890552	-0.657209	0.715781	-0.022613	-0.010242	0.125455	1.000000	0.000033	0.000022	0.000037	-43.062426	-84.525950	44.698377
15686	9.860358	-0.662794	0.664898	0.026252	-0.016587	0.092215	1.000000	0.000025	0.000029	0.000031	-43.053619	-84.526250	44.688958
15687	9.860279	-0.663423	0.665443	0.025724	-0.017318	0.092215	1.000000	0.000033	0.000022	0.000037	-43.055285	-84.526614	44.689742
15688	9.866770	-0.630820	0.659130	0.031646	0.015646	0.096111	1.000000	0.000025	0.000048	0.000023	-43.023832	-84.525942	44.657548
15689	9.878465	-0.645380	0.688936	0.003208	0.000877	0.110780	1.000000	0.000027	0.000006	0.000028	-43.030792	-84.528363	44.661506
15690	9.858210	-0.659614	0.690890	0.000190	-0.014855	0.091681	1.000000	0.000030	0.000032	0.000036	-43.023504	-84.527983	44.654154
15691	9.844520	-0.640722	0.686024	0.003665	0.003108	0.076484	1.000000	0.000025	0.000029	0.000031	-43.013290	-84.528145	44.637867
15692	9.893678	-0.672144	0.672386	0.021635	-0.024664	0.126511	1.000000	0.000019	0.000030	0.000036	-43.008974	-84.527910	44.632260
15693	9.878143	-0.647897	0.691188	0.001081	-0.002041	0.110780	1.000000	0.000044	0.000024	0.000037	-43.009515	-84.528301	44.641749
15694	9.866313	-0.634484	0.662447	0.028487	0.011263	0.096127	1.000000	0.000033	0.000022	0.000037	-43.011315	-84.528676	44.643890
15695	9.876132	-0.643775	0.715998	-0.023916	0.001158	0.110241	1.000000	0.000036	0.000031	0.000030	-42.998416	-84.528755	44.629280
15696	9.859559	-0.668873	0.670644	0.020983	-0.023890	0.092213	1.000000	0.000033	0.000022	0.000037	-43.000217	-84.529131	44.631423
15697	9.898016	-0.636863	0.691801	0.001496	0.010033	0.129888	1.000000	0.000044	0.000024	0.000037	-42.998186	-84.529240	44.625860
15698	9.886168	-0.623523	0.663418	0.028910	0.023329	0.115245	1.000000	0.000033	0.000059	0.000044	-42.975814	-84.525992	44.603710
15699	9.845675	-0.651491	0.667306	0.023382	-0.007373	0.077027	1.000000	0.000028	0.000019	0.000032	-42.977178	-84.527120	44.606485
