// Start Time: Unknown
// Update Rate: 100.0Hz
// Filter Profile: human (46.1)
// Firmware Version: 4.4.0
PacketCounter	Acc_X	Acc_Y	Acc_Z	FreeAcc_X	FreeAcc_Y	FreeAcc_Z	OriInc_q0	OriInc_q1	OriInc_q2	OriInc_q3	Roll	Pitch	Yaw
18325	9.599580	-0.064474	2.152279	-0.000000	-0.000000	0.025423	1.000000	0.000034	0.000030	0.000008	-1.715842	-77.359189	-5.331639
18326	9.626368	-0.058139	2.184746	0.000000	-0.000000	0.058658	1.000000	0.000040	0.000017	0.000009	-1.524477	-77.209690	-5.505943
18327	9.626295	-0.058276	2.185063	-0.013090	0.004889	0.058648	1.000000	0.000029	0.000016	0.000021	-1.626447	-77.284201	-5.406502
18328	9.623421	-0.061829	2.151266	0.019064	-0.002442	0.048430	1.000000	0.000017	0.000032	0.000016	-1.632242	-77.280493	-5.398575
18329	9.626041	-0.058853	2.186167	-0.013026	0.004926	0.058648	1.000000	0.000029	0.000035	0.000028	-1.643623	-77.276083	-5.384043
18330	9.623205	-0.062428	2.152214	0.019129	-0.002406	0.048430	1.000000	0.000030	-0.000003	0.000014	-1.647335	-77.276427	-5.376725
18331	9.598121	-0.046852	2.170381	-0.001795	0.015797	0.027863	1.000000	0.000034	0.000030	0.000008	-1.647316	-77.272988	-5.372781
18332	9.623018	-0.062593	2.153044	0.019127	-0.002406	0.048430	1.000000	0.000028	0.000029	0.000014	-1.650917	-77.269597	-5.365750
18333	9.622034	-0.044072	2.169054	0.006025	0.018047	0.050878	1.000000	0.000030	0.000006	0.000017	-1.656077	-77.268887	-5.356963
18334	9.622868	-0.062913	2.153705	0.019119	-0.002413	0.048430	1.000000	0.000040	0.000026	0.000013	-1.657493	-77.265813	-5.350820
18335	9.621874	-0.044227	2.169759	0.006001	0.018032	0.050878	1.000000	0.000023	0.000014	0.000003	-1.655943	-77.264375	-5.349729
18336	9.598561	-0.066120	2.156772	0.011267	-0.004684	0.025415	1.000000	0.000041	0.000032	0.000026	-1.664006	-77.260632	-5.336692
18337	9.621682	-0.044544	2.170607	0.005965	0.018007	0.050878	1.000000	0.000029	0.000010	0.000007	-1.663588	-77.259636	-5.333698
18338	9.618854	-0.047956	2.136667	0.038120	0.010676	0.040659	1.000000	0.000017	0.000022	0.000013	-1.667725	-77.257026	-5.327448
18339	9.620602	-0.026007	2.187030	-0.007203	0.038416	0.053326	1.000000	0.000051	0.000024	0.000011	-1.665460	-77.254673	-5.323652
18340	9.598180	-0.066600	2.158451	0.011157	-0.004759	0.025415	1.000000	0.000023	0.000029	0.000020	-1.672641	-77.251338	-5.313576
18341	9.645416	-0.042029	2.170079	0.013642	0.020129	0.073893	1.000000	0.000035	0.000016	0.000015	-1.673635	-77.249819	-5.308349
18342	9.618474	-0.048598	2.138365	0.037969	0.010542	0.040660	1.000000	0.000029	0.000016	0.000021	-1.680599	-77.247958	-5.297745
18343	9.617504	-0.030120	2.154297	0.024741	0.030885	0.043109	1.000000	0.000041	0.000013	0.000019	-1.682011	-77.247128	-5.291314
18344	9.620166	-0.026875	2.188933	-0.007414	0.038216	0.053327	1.000000	0.000016	0.000026	0.000003	-1.681127	-77.244086	-5.290313
18345	9.593232	-0.033293	2.157196	0.016762	0.028430	0.020095	1.000000	0.000041	0.000003	0.000016	-1.678677	-77.244413	-5.287701
18346	9.618175	-0.049106	2.139698	0.037684	0.010226	0.040661	1.000000	0.000040	0.000036	0.000016	-1.681707	-77.240236	-5.279928
18347	9.641241	-0.027477	2.153782	0.032194	0.032695	0.066127	1.000000	0.000022	0.000033	0.000010	-1.676915	-77.237621	-5.281884
18348	9.593790	-0.052285	2.143099	0.029635	0.007727	0.017647	1.000000	0.000034	0.000020	0.000005	-1.675273	-77.235272	-5.279581
18349	9.620587	-0.045898	2.175425	0.005013	0.017020	0.050880	1.000000	0.000029	0.000010	0.000007	-1.667259	-77.235620	-5.284010
18350	9.614132	-0.033849	2.122857	0.056230	0.022819	0.032897	1.000000	0.000034	0.000020	0.000005	-1.665620	-77.233269	-5.281705
18351	9.620427	-0.046053	2.176130	0.004641	0.016681	0.050881	1.000000	0.000035	0.000022	0.000028	-1.665829	-77.232652	-5.276805
18352	9.649040	-0.077239	2.177159	0.006499	-0.014655	0.079214	1.000000	0.000017	0.000007	-0.000004	-1.661691	-77.231811	-5.279093
18353	9.620296	-0.046224	2.176704	0.004283	0.016361	0.050882	1.000000	0.000041	0.000022	0.000023	-1.658857	-77.231059	-5.276777
18354	9.616582	-0.031126	2.158395	0.023346	0.029490	0.043117	1.000000	0.000018	0.000009	0.000019	-1.666359	-77.229974	-5.266950
18355	9.617385	-0.049971	2.143227	0.035996	0.008646	0.040669	1.000000	0.000039	0.000040	0.000006	-1.653218	-77.227733	-5.275289
18356	9.619973	-0.046625	2.178126	0.003840	0.015975	0.050882	1.000000	0.000040	0.000027	0.000013	-1.654627	-77.224653	-5.269157
18357	9.616239	-0.031428	2.159917	0.022454	0.028705	0.043121	1.000000	0.000029	0.000016	0.000021	-1.650017	-77.225171	-5.269757
18358	9.641176	-0.047414	2.142490	0.043372	0.010496	0.063688	1.000000	0.000023	0.000029	0.000020	-1.657181	-77.221830	-5.259700
18359	9.616960	-0.050567	2.145116	0.035031	0.007813	0.040673	1.000000	0.000023	0.000014	0.000003	-1.643530	-77.223030	-5.270558
18360	9.595478	-0.050381	2.181962	-0.004947	0.012892	0.027866	1.000000	0.000029	0.000025	0.000024	-1.652116	-77.220062	-5.258319
18361	9.613177	-0.035591	2.127149	0.053589	0.020512	0.032916	1.000000	0.000041	0.000003	0.000016	-1.642746	-77.222311	-5.262609
18362	9.616726	-0.051087	2.146153	0.034528	0.007382	0.040675	1.000000	0.000040	0.000036	0.000016	-1.645795	-77.218119	-5.254824
18363	9.641632	-0.066819	2.128888	0.054780	-0.011284	0.061247	1.000000	0.000028	0.000024	0.000001	-1.629283	-77.218984	-5.268016
18364	9.616503	-0.051099	2.147153	0.033868	0.006929	0.040678	1.000000	0.000029	0.000020	0.000011	-1.631261	-77.216682	-5.262640
18365	9.615513	-0.032478	2.163131	0.020070	0.026980	0.043131	1.000000	0.000035	0.000016	0.000015	-1.622283	-77.218610	-5.267251
18366	9.644122	-0.063702	2.164169	0.021919	-0.004363	0.071456	1.000000	0.000023	0.000010	0.000013	-1.626223	-77.217462	-5.260466
18367	9.615413	-0.032712	2.163573	0.019350	0.026568	0.043134	1.000000	0.000029	0.000010	0.000007	-1.614000	-77.220225	-5.269067
18368	9.616231	-0.051621	2.148357	0.032448	0.006110	0.040683	1.000000	0.000041	0.000032	0.000026	-1.622070	-77.216460	-5.256039
18369	9.616126	-0.051922	2.148819	0.031696	0.005671	0.040686	1.000000	0.000029	0.000016	0.000021	-1.615729	-77.218721	-5.258342
18370	9.619651	-0.067356	2.167899	0.012633	-0.007460	0.048437	1.000000	0.000039	0.000031	0.000003	-1.612166	-77.215197	-5.257418
18371	9.618629	-0.048599	2.184007	-0.001298	0.012584	0.050888	1.000000	0.000029	0.000020	0.000011	-1.601248	-77.217516	-5.264014
18372	9.613119	-0.055395	2.115891	0.063028	-0.002068	0.030490	1.000000	0.000034	0.000020	0.000005	-1.599625	-77.215154	-5.261693
18373	9.615743	-0.052024	2.150533	0.030148	0.004885	0.040691	1.000000	0.000029	0.000020	0.000011	-1.590104	-77.216802	-5.267465
18374	9.615636	-0.052145	2.151007	0.030152	0.004885	0.040691	1.000000	0.000028	0.000029	0.000014	-1.593694	-77.213384	-5.260445
18375	9.615510	-0.052367	2.151565	0.029346	0.004533	0.040694	1.000000	0.000023	0.000029	0.000020	-1.589728	-77.214530	-5.261672
18376	9.615429	-0.052345	2.151929	0.029349	0.004533	0.040694	1.000000	0.000051	0.000009	-0.000006	-1.580735	-77.213523	-5.264911
18377	9.618963	-0.067601	2.170939	0.009513	-0.008902	0.048440	1.000000	0.000028	0.000029	0.000014	-1.574639	-77.214386	-5.268665
18378	9.638447	-0.030703	2.166210	0.023298	0.026932	0.066169	1.000000	0.000041	0.000022	0.000023	-1.581121	-77.211701	-5.257257
18379	9.618768	-0.067919	2.171793	0.008674	-0.009234	0.048440	1.000000	0.000023	0.000014	0.000003	-1.569286	-77.214848	-5.266369
18380	9.614167	-0.033851	2.169083	0.014654	0.024359	0.043147	1.000000	0.000029	0.000020	0.000011	-1.571317	-77.212519	-5.260958
18381	9.590874	-0.055722	2.156025	0.019143	0.001339	0.017676	1.000000	0.000035	0.000016	0.000015	-1.564329	-77.215085	-5.263720
18382	9.611283	-0.037425	2.135661	0.046021	0.016714	0.032962	1.000000	0.000028	0.000033	0.000004	-1.562999	-77.211226	-5.261885
18383	9.618384	-0.068356	2.173479	0.007239	-0.009820	0.048441	1.000000	0.000030	0.000021	0.000034	-1.568107	-77.212258	-5.254579
18384	9.614684	-0.053324	2.155229	0.026316	0.003316	0.040703	1.000000	0.000029	0.000020	0.000011	-1.570190	-77.209931	-5.249145
18385	9.613704	-0.034622	2.171124	0.012237	0.023489	0.043153	1.000000	0.000029	0.000010	0.000007	-1.560684	-77.214299	-5.254988
18386	9.641338	-0.047035	2.188025	0.000966	0.012598	0.073915	1.000000	0.000040	0.000036	0.000016	-1.563857	-77.210108	-5.247134
18387	9.589350	-0.037746	2.174311	0.003911	0.020970	0.020127	1.000000	0.000034	0.000020	0.000005	-1.553502	-77.210650	-5.253686
18388	9.637507	-0.031819	2.170371	0.019512	0.025449	0.066181	1.000000	0.000035	0.000026	0.000018	-1.558642	-77.207593	-5.244421
18389	9.614200	-0.053752	2.157375	0.023900	0.002488	0.040709	1.000000	0.000035	0.000016	0.000015	-1.552978	-77.210837	-5.248021
18390	9.615015	-0.072591	2.142227	0.036996	-0.017965	0.038263	1.000000	0.000034	0.000030	0.000009	-1.553177	-77.207380	-5.243959
18391	9.616672	-0.050317	2.192569	-0.008816	0.009559	0.050887	1.000000	0.000039	0.000021	-0.000001	-1.539837	-77.207986	-5.253150
18392	9.612956	-0.035055	2.174427	0.010261	0.022699	0.043157	1.000000	0.000041	0.000032	0.000026	-1.548089	-77.204222	-5.240033
18393	9.613780	-0.053990	2.159244	0.022871	0.001944	0.040712	1.000000	0.000029	0.000010	0.000007	-1.539540	-77.205666	-5.244790
18394	9.637838	-0.051132	2.157374	0.030669	0.004186	0.063741	1.000000	0.000041	0.000023	0.000023	-1.546155	-77.202993	-5.233321
18395	9.590400	-0.076064	2.146571	0.027789	-0.021014	0.015238	1.000000	0.000029	0.000020	0.000011	-1.540087	-77.202791	-5.235723
18396	9.612611	-0.035622	2.175944	0.009399	0.022145	0.043159	1.000000	0.000029	0.000020	0.000011	-1.542242	-77.200448	-5.230253
18397	9.617041	-0.069826	2.179370	0.002813	-0.011641	0.048441	1.000000	0.000035	0.000016	0.000015	-1.539164	-77.201930	-5.230525
18398	9.616946	-0.069998	2.179781	0.002821	-0.011633	0.048441	1.000000	0.000035	0.000026	0.000018	-1.544396	-77.198861	-5.221217
18399	9.609685	-0.039465	2.142803	0.040397	0.014522	0.032990	1.000000	0.000029	0.000010	0.000007	-1.540573	-77.200948	-5.224083
18400	9.612265	-0.036145	2.177461	0.008234	0.021860	0.043161	1.000000	0.000017	0.000032	0.000016	-1.546610	-77.197191	-5.216060
18401	9.637204	-0.051908	2.160182	0.028650	0.003541	0.063747	1.000000	0.000051	0.000018	-0.000003	-1.535875	-77.197738	-5.224526
18402	9.613903	-0.073804	2.147169	0.033964	-0.019140	0.038272	1.000000	0.000030	0.000021	0.000034	-1.549815	-77.195151	-5.206890
18403	9.637034	-0.052444	2.160927	0.027837	0.003407	0.063749	1.000000	0.000029	0.000016	0.000021	-1.551024	-77.197998	-5.202610
18404	9.613720	-0.074355	2.147973	0.033147	-0.019272	0.038274	1.000000	0.000034	0.000030	0.000009	-1.551404	-77.194524	-5.198464
18405	9.610036	-0.059119	2.129751	0.051622	-0.006150	0.030555	1.000000	0.000035	0.000016	0.000015	-1.553302	-77.196097	-5.196277
18406	9.589405	-0.077468	2.150961	0.024760	-0.021494	0.015245	1.000000	0.000034	0.000020	0.000005	-1.552140	-77.193728	-5.193737
18407	9.636632	-0.052965	2.162708	0.026362	0.003357	0.063753	1.000000	0.000024	0.000034	0.000034	-1.561934	-77.194780	-5.181324
18408	9.605223	-0.025641	2.128057	0.056738	0.027401	0.025281	1.000000	0.000029	0.000020	0.000011	-1.564348	-77.192503	-5.175749
18409	9.611354	-0.037606	2.181455	0.004991	0.021513	0.043164	1.000000	0.000028	0.000029	0.000014	-1.564390	-77.191905	-5.173166
18410	9.637223	-0.072263	2.148586	0.038955	-0.017163	0.061313	1.000000	0.000040	0.000017	0.000009	-1.564659	-77.189938	-5.168447
18411	9.607602	-0.022376	2.163556	0.023280	0.034684	0.035447	1.000000	0.000040	0.000017	0.000009	-1.563319	-77.192598	-5.168671
18412	9.615576	-0.071948	2.185756	-0.001802	-0.012013	0.048441	1.000000	0.000029	0.000025	0.000024	-1.572426	-77.189669	-5.156205
18413	9.608336	-0.041506	2.148805	0.035291	0.014358	0.033010	1.000000	0.000040	0.000017	0.000009	-1.572958	-77.194028	-5.157053
18414	9.611813	-0.056917	2.167904	0.016192	0.001258	0.040725	1.000000	0.000035	0.000026	0.000019	-1.578596	-77.191092	-5.147589
18415	9.611712	-0.056995	2.168354	0.015947	0.001111	0.040726	1.000000	0.000034	0.000020	0.000005	-1.572541	-77.190052	-5.149269
18416	9.635773	-0.054043	2.166508	0.023715	0.003365	0.063760	1.000000	0.000017	0.000013	0.000009	-1.575669	-77.188608	-5.144401
18417	9.611545	-0.057150	2.169087	0.015512	0.001070	0.040726	1.000000	0.000028	0.000029	0.000014	-1.576583	-77.187630	-5.141376
18418	9.607833	-0.041858	2.151046	0.034588	0.014220	0.033013	1.000000	0.000050	0.000037	0.000004	-1.573129	-77.183395	-5.139385
18419	9.606819	-0.023173	2.167022	0.020379	0.034582	0.035453	1.000000	0.000024	0.000006	0.000023	-1.576650	-77.189193	-5.132073
18420	9.611233	-0.057539	2.170458	0.014359	0.001017	0.040728	1.000000	0.000035	0.000026	0.000019	-1.582269	-77.186294	-5.122627
18421	9.583435	-0.045362	2.154376	0.024972	0.011986	0.009983	1.000000	0.000029	0.000020	0.000011	-1.584656	-77.188116	-5.122315
18422	9.607463	-0.042508	2.152685	0.032723	0.014243	0.033019	1.000000	0.000028	0.000029	0.000014	-1.588946	-77.184853	-5.115011
18423	9.630591	-0.020827	2.166459	0.026862	0.036845	0.058492	1.000000	0.000029	0.000010	0.000008	-1.585587	-77.186783	-5.115985
18424	9.610898	-0.057868	2.171935	0.013063	0.001057	0.040730	1.000000	0.000040	0.000008	0.000006	-1.584494	-77.186050	-5.112810
18425	9.631367	-0.039722	2.151554	0.038925	0.016279	0.056062	1.000000	0.000017	0.000042	0.000020	-1.586147	-77.186989	-5.108548
18426	9.637416	-0.051656	2.205130	-0.012374	0.010531	0.073909	1.000000	0.000051	0.000024	0.000011	-1.586114	-77.184420	-5.102980
18427	9.607952	-0.061720	2.139057	0.043671	-0.006548	0.030593	1.000000	0.000012	0.000003	0.000012	-1.585060	-77.187108	-5.101953
18428	9.610536	-0.058341	2.173524	0.011460	0.000825	0.040732	1.000000	0.000029	0.000020	0.000011	-1.587705	-77.185017	-5.096311
18429	9.610477	-0.058488	2.173777	0.009914	0.000844	0.040734	1.000000	0.000030	0.000006	0.000018	-1.589979	-77.193308	-5.093257
18430	9.605931	-0.024605	2.170938	0.015872	0.034464	0.035462	1.000000	0.000035	0.000026	0.000019	-1.595683	-77.190581	-5.083805
18431	9.610296	-0.058746	2.174573	0.008532	0.000519	0.040735	1.000000	0.000028	0.000024	0.000001	-1.580082	-77.195455	-5.088976
18432	9.630774	-0.040613	2.154190	0.035322	0.015897	0.056076	1.000000	0.000029	0.000025	0.000024	-1.589226	-77.192862	-5.076560
18433	9.606505	-0.043955	2.156927	0.027107	0.013597	0.033037	1.000000	0.000029	0.000035	0.000028	-1.596509	-77.191378	-5.067430
18434	9.634088	-0.056354	2.173926	0.015709	0.002729	0.063776	1.000000	0.000039	0.000012	-0.000004	-1.590291	-77.190451	-5.069582
18435	9.630454	-0.041089	2.155612	0.034556	0.015860	0.056079	1.000000	0.000023	0.000029	0.000020	-1.597227	-77.188525	-5.064038
18436	9.607113	-0.063150	2.142780	0.039821	-0.006804	0.030609	1.000000	0.000023	0.000029	0.000020	-1.605031	-77.185544	-5.053770
18437	9.605167	-0.025682	2.174301	0.013128	0.033919	0.035468	1.000000	0.000040	0.000017	0.000009	-1.598017	-77.186472	-5.053587
18438	9.605989	-0.044569	2.159212	0.026152	0.013480	0.033040	1.000000	0.000028	0.000029	0.000014	-1.602201	-77.183442	-5.046382
18439	9.632650	-0.038070	2.191729	0.001044	0.022899	0.066206	1.000000	0.000028	0.000014	-0.000002	-1.592006	-77.185706	-5.052874
18440	9.609348	-0.059927	2.178727	0.006308	0.000235	0.040737	1.000000	0.000029	0.000025	0.000024	-1.601166	-77.183124	-5.040461
18441	9.606667	-0.063695	2.144763	0.037336	-0.007170	0.030619	1.000000	0.000041	0.000004	0.000016	-1.600166	-77.189390	-5.038059
18442	9.606580	-0.063828	2.145150	0.037260	-0.007141	0.030619	1.000000	0.000040	0.000036	0.000016	-1.603801	-77.185648	-5.030097
18443	9.629688	-0.042177	2.159010	0.031219	0.015618	0.056090	1.000000	0.000017	0.000013	0.000009	-1.606512	-77.188290	-5.030266
18444	9.601927	-0.029948	2.142825	0.042486	0.026544	0.025356	1.000000	0.000040	0.000027	0.000013	-1.608592	-77.185676	-5.023915
18445	9.658084	-0.073537	2.160947	0.033047	-0.015889	0.084400	1.000000	0.000035	0.000026	0.000019	-1.609411	-77.181509	-5.018460
18446	9.602639	-0.049053	2.128248	0.055670	0.005932	0.022930	1.000000	0.000029	0.000020	0.000011	-1.612024	-77.179631	-5.012880
18447	9.606112	-0.064405	2.147226	0.035839	-0.007398	0.030624	1.000000	0.000035	0.000007	0.000012	-1.606521	-77.182966	-5.011379
18448	9.605087	-0.045734	2.163195	0.022678	0.013099	0.033049	1.000000	0.000028	0.000039	0.000018	-1.612311	-77.178900	-5.002564
18449	9.604965	-0.045846	2.163737	0.023049	0.013263	0.033048	1.000000	0.000040	0.000017	0.000009	-1.617449	-77.174797	-5.000981
18450	9.632558	-0.058164	2.180650	0.011635	0.002402	0.063782	1.000000	0.000040	0.000017	0.000009	-1.617988	-77.173194	-4.996214
18451	9.628922	-0.043018	2.162404	0.030235	0.015519	0.056093	1.000000	0.000017	0.000032	0.000016	-1.622608	-77.172372	-4.992321
18452	9.626209	-0.046739	2.128662	0.062353	0.008199	0.045981	1.000000	0.000029	0.000020	0.000011	-1.625327	-77.170457	-4.986689
18453	9.607160	-0.042759	2.199758	-0.010627	0.020612	0.043161	1.000000	0.000023	0.000029	0.000020	-1.628587	-77.172107	-4.981029
18454	9.604434	-0.046541	2.166074	0.021486	0.013292	0.033051	1.000000	0.000028	0.000029	0.000014	-1.632908	-77.169121	-4.973780
18455	9.607847	-0.061855	2.185284	0.002073	0.000307	0.040739	1.000000	0.000034	0.000020	0.000005	-1.634112	-77.168618	-4.975306
18456	9.600703	-0.031343	2.148284	0.040213	0.026573	0.025365	1.000000	0.000040	0.000027	0.000013	-1.636369	-77.165942	-4.968870
18457	9.604100	-0.046716	2.167554	0.019867	0.013517	0.033054	1.000000	0.000028	0.000029	0.000014	-1.638684	-77.169825	-4.966805
18458	9.628142	-0.043984	2.165858	0.027531	0.015779	0.056101	1.000000	0.000029	0.000016	0.000021	-1.646497	-77.168429	-4.955928
18459	9.628063	-0.044166	2.166204	0.026676	0.015806	0.056103	1.000000	0.000029	0.000020	0.000011	-1.647300	-77.171114	-4.955185
18460	9.604769	-0.066055	2.153178	0.031925	-0.006849	0.030638	1.000000	0.000035	0.000016	0.000015	-1.651575	-77.169694	-4.947333
18461	9.603770	-0.047432	2.169001	0.017403	0.013678	0.033059	1.000000	0.000029	0.000016	0.000021	-1.656641	-77.176300	-4.941924
18462	9.603676	-0.047604	2.169413	0.017305	0.013721	0.033059	1.000000	0.000040	0.000027	0.000013	-1.658973	-77.173793	-4.935487
18463	9.627702	-0.044801	2.167793	0.025107	0.015856	0.056107	1.000000	0.000035	0.000026	0.000019	-1.661872	-77.170309	-4.929619
18464	9.599935	-0.032629	2.151694	0.036387	0.026787	0.025379	1.000000	0.000040	0.000027	0.000013	-1.664218	-77.167771	-4.923172
18465	9.628434	-0.063822	2.153160	0.038599	-0.004697	0.053689	1.000000	0.000029	0.000010	0.000008	-1.662611	-77.163488	-4.922572
18466	9.630941	-0.060331	2.187722	0.006333	0.002714	0.063787	1.000000	0.000017	0.000023	0.000013	-1.667659	-77.161357	-4.916034
18467	9.628233	-0.064074	2.154049	0.037965	-0.004859	0.053692	1.000000	0.000040	0.000036	0.000016	-1.664006	-77.160257	-4.912287
18468	9.603045	-0.048312	2.172186	0.017069	0.013438	0.033060	1.000000	0.000035	0.000016	0.000015	-1.668289	-77.158824	-4.904435
18469	9.624541	-0.049109	2.136140	0.056167	0.008341	0.046018	1.000000	0.000035	0.000016	0.000015	-1.671222	-77.161722	-4.901189
18470	9.607300	-0.082549	2.176210	0.010117	-0.020052	0.038323	1.000000	0.000039	0.000031	0.000003	-1.668586	-77.158730	-4.899954
18471	9.599257	-0.033202	2.154705	0.035058	0.026580	0.025385	1.000000	0.000029	0.000020	0.000011	-1.668518	-77.157605	-4.897791
18472	9.624230	-0.049190	2.137539	0.055780	0.008366	0.046020	1.000000	0.000040	0.000027	0.000013	-1.670879	-77.155027	-4.891335
18473	9.626706	-0.045763	2.172193	0.021492	0.015764	0.056116	1.000000	0.000029	0.000016	0.000021	-1.673834	-77.165433	-4.886148
18474	9.625674	-0.026995	2.188137	0.008314	0.036287	0.058528	1.000000	0.000039	0.000031	0.000003	-1.671190	-77.162542	-4.884936
18475	9.627440	-0.064749	2.157571	0.034098	-0.005216	0.053706	1.000000	0.000012	0.000012	0.000015	-1.661887	-77.162887	-4.880538
18476	9.598813	-0.033812	2.156676	0.032301	0.026189	0.025395	1.000000	0.000041	0.000013	0.000019	-1.667479	-77.161952	-4.870579
18477	9.623795	-0.049904	2.139481	0.051939	0.007846	0.046042	1.000000	0.000028	0.000029	0.000014	-1.666139	-77.165296	-4.868190
18478	9.626258	-0.046507	2.174161	0.019633	0.015250	0.056121	1.000000	0.000029	0.000016	0.000021	-1.673850	-77.164096	-4.857405
18479	9.602033	-0.049550	2.176630	0.011075	0.013269	0.033068	1.000000	0.000034	0.000021	0.000005	-1.676750	-77.166718	-4.859515
18480	9.626048	-0.046706	2.175090	0.018679	0.015531	0.056122	1.000000	0.000028	0.000039	0.000018	-1.682759	-77.162906	-4.850675
18481	9.626899	-0.065740	2.159953	0.030718	-0.004785	0.053717	1.000000	0.000030	-0.000003	0.000014	-1.688584	-77.169338	-4.847927
18482	9.626825	-0.065701	2.160285	0.030591	-0.004739	0.053717	1.000000	0.000027	0.000037	-0.000006	-1.683060	-77.165823	-4.851129
18483	9.625783	-0.046831	2.176258	0.017106	0.015831	0.056124	1.000000	0.000041	0.000013	0.000019	-1.689411	-77.166702	-4.845117
18484	9.626640	-0.065759	2.161106	0.030049	-0.004602	0.053719	1.000000	0.000034	0.000021	0.000005	-1.688754	-77.165090	-4.842509
18485	9.597060	-0.015898	2.175793	0.014826	0.046930	0.027813	1.000000	0.000018	0.000019	0.000023	-1.688489	-77.165525	-4.834516
18486	9.622033	-0.032087	2.158667	0.035489	0.028714	0.048464	1.000000	0.000028	0.000029	0.000014	-1.692925	-77.162865	-4.827295
18487	9.626344	-0.066184	2.162411	0.029495	-0.004285	0.053721	1.000000	0.000045	0.000018	0.000003	-1.704983	-77.160751	-4.829176
18488	9.625290	-0.047505	2.178425	0.016308	0.016251	0.056125	1.000000	0.000017	0.000038	0.000030	-1.718342	-77.157067	-4.814192
18489	9.622637	-0.051397	2.144649	0.047737	0.008604	0.046062	1.000000	0.000029	0.000010	0.000008	-1.710075	-77.160152	-4.814010
18490	9.621676	-0.032747	2.160247	0.034545	0.029136	0.048466	1.000000	0.000030	0.000002	0.000028	-1.721435	-77.160554	-4.799525
18491	9.626028	-0.067049	2.163789	0.026377	-0.004273	0.053730	1.000000	0.000022	0.000023	0.000007	-1.721932	-77.170250	-4.802289
18492	9.624980	-0.048213	2.179778	0.013169	0.016264	0.056130	1.000000	0.000034	0.000030	0.000009	-1.722965	-77.167635	-4.798047
18493	9.623937	-0.029401	2.195732	-0.001008	0.036649	0.058530	1.000000	0.000029	0.000020	0.000011	-1.719882	-77.171748	-4.796806
18494	9.622234	-0.052083	2.146436	0.044099	0.008829	0.046079	1.000000	0.000041	0.000023	0.000023	-1.727318	-77.169971	-4.785170
18495	9.625605	-0.067383	2.165660	0.023926	-0.003924	0.053736	1.000000	0.000028	0.000024	0.000001	-1.731176	-77.173471	-4.789779
18496	9.624549	-0.048629	2.181671	0.010707	0.016620	0.056132	1.000000	0.000040	0.000032	0.000026	-1.740308	-77.170627	-4.776493
18497	9.597728	-0.055436	2.150129	0.033534	0.007323	0.023030	1.000000	0.000028	0.000029	0.000014	-1.748711	-77.177081	-4.775132
18498	9.597629	-0.055651	2.150567	0.033364	0.007383	0.023030	1.000000	0.000029	0.000016	0.000021	-1.756864	-77.176206	-4.764210
18499	9.601031	-0.071169	2.169620	0.014515	-0.005415	0.030680	1.000000	0.000036	0.000013	0.000025	-1.773628	-77.173107	-4.754702
18500	9.621626	-0.053176	2.149134	0.041194	0.009947	0.046090	1.000000	0.000045	0.000027	0.000007	-1.772779	-77.170928	-4.751213
18501	9.620598	-0.034410	2.165014	0.027461	0.030479	0.048484	1.000000	0.000029	0.000016	0.000021	-1.779317	-77.173024	-4.744122
18502	9.622367	-0.072441	2.134529	0.053397	-0.010444	0.043703	1.000000	0.000023	0.000029	0.000020	-1.787754	-77.170650	-4.733729
18503	9.599689	-0.052925	2.186864	0.000184	0.015761	0.033071	1.000000	0.000045	0.000027	0.000007	-1.798593	-77.169307	-4.734198
18504	9.648832	-0.066047	2.167616	0.028466	-0.000238	0.076805	1.000000	0.000041	0.000013	0.000019	-1.804888	-77.168724	-4.723989
18505	9.599533	-0.053221	2.187541	-0.001585	0.016079	0.033070	1.000000	0.000029	0.000016	0.000021	-1.814848	-77.176325	-4.717515
18506	9.596908	-0.057107	2.153742	0.030430	0.008725	0.023039	1.000000	0.000028	0.000029	0.000014	-1.819912	-77.173962	-4.710082
18507	9.620937	-0.054382	2.152188	0.036801	0.011366	0.046106	1.000000	0.000034	0.000026	0.000019	-1.833456	-77.178861	-4.704563
18508	9.617390	-0.039422	2.133808	0.055767	0.024511	0.038463	1.000000	0.000029	0.000016	0.000021	-1.842039	-77.178082	-4.693467
18509	9.620745	-0.054841	2.153035	0.036442	0.011128	0.046108	1.000000	0.000028	0.000029	0.000014	-1.836814	-77.175481	-4.689125
18510	9.618777	-0.017226	2.184377	0.010176	0.052206	0.050873	1.000000	0.000035	0.000017	0.000015	-1.841765	-77.174637	-4.681091
18511	9.620572	-0.055200	2.153797	0.034148	0.011153	0.046116	1.000000	0.000029	0.000016	0.000021	-1.842831	-77.185022	-4.674554
18512	9.620493	-0.055383	2.154145	0.033947	0.011228	0.046117	1.000000	0.000029	0.000020	0.000011	-1.846311	-77.183900	-4.668749
18513	9.617885	-0.059244	2.120322	0.065522	0.004328	0.036103	1.000000	0.000041	0.000023	0.000023	-1.865944	-77.185086	-4.661965
18514	9.595241	-0.039712	2.172410	0.012405	0.030144	0.025429	1.000000	0.000029	0.000010	0.000008	-1.867981	-77.185086	-4.657701
18515	9.616779	-0.040584	2.136539	0.051715	0.024773	0.038485	1.000000	0.000040	0.000036	0.000016	-1.866008	-77.184107	-4.653391
18516	9.623547	-0.071156	2.174669	0.013193	-0.001276	0.053757	1.000000	0.000023	0.000019	0.000017	-1.873174	-77.183059	-4.644507
18517	9.616574	-0.040924	2.137455	0.050138	0.024891	0.038493	1.000000	0.000029	0.000020	0.000011	-1.873279	-77.188773	-4.643887
18518	9.595757	-0.059135	2.158812	0.023083	0.009697	0.023058	1.000000	0.000028	0.000029	0.000014	-1.878460	-77.186614	-4.636445
18519	9.646500	-0.049632	2.189187	0.005226	0.021784	0.079201	1.000000	0.000034	0.000001	-0.000002	-1.877257	-77.192525	-4.641848
18520	9.618806	-0.037483	2.172914	0.016493	0.032715	0.048501	1.000000	0.000029	0.000045	0.000031	-1.890670	-77.188599	-4.625952
18521	9.618685	-0.037731	2.173445	0.014443	0.032990	0.048503	1.000000	0.000029	0.000010	0.000008	-1.893955	-77.199496	-4.627111
18522	9.619517	-0.056705	2.158463	0.027240	0.012564	0.046136	1.000000	0.000040	0.000036	0.000016	-1.898687	-77.196660	-4.618880
18523	9.619394	-0.056818	2.159008	0.026532	0.012631	0.046138	1.000000	0.000029	0.000020	0.000011	-1.900950	-77.198493	-4.616935
18524	9.642533	-0.035214	2.172711	0.020941	0.035441	0.071576	1.000000	0.000029	0.000016	0.000021	-1.909685	-77.197993	-4.605822
18525	9.619243	-0.057211	2.159673	0.001763	-0.006795	0.046179	1.000000	0.000035	0.000017	0.000015	-1.341435	-77.329177	-5.732403
18526	9.619184	-0.057292	2.159935	0.001323	-0.006870	0.046179	1.000000	0.000029	0.000010	0.000008	-1.338741	-77.330472	-5.735514
18527	9.614729	-0.023230	2.156947	0.007394	0.026577	0.041003	1.000000	0.000034	0.000030	0.000009	-1.336044	-77.329445	-5.748090
18528	9.594863	-0.060451	2.162744	-0.007183	-0.009095	0.023083	1.000000	0.000019	0.000005	0.000029	-1.345611	-77.331285	-5.739792
18529	9.615511	-0.042700	2.142196	0.019303	0.005792	0.038631	1.000000	0.000028	0.000030	0.000014	-1.346348	-77.330563	-5.739189
18530	9.642029	-0.036249	2.174929	-0.005649	0.015577	0.071648	1.000000	0.000028	0.000030	0.000014	-1.346948	-77.329646	-5.738971
18531	9.615263	-0.043038	2.143303	0.018429	0.005638	0.038633	1.000000	0.000034	0.000026	0.000019	-1.348974	-77.329075	-5.739263
18532	9.618602	-0.058487	2.162492	-0.001341	-0.007302	0.046179	1.000000	0.000035	0.000013	0.000025	-1.354439	-77.330067	-5.733217
18533	9.618516	-0.058756	2.162869	-0.001773	-0.007381	0.046179	1.000000	0.000034	0.000026	0.000019	-1.356402	-77.329466	-5.736582
18534	9.639147	-0.040779	2.142438	0.024749	0.007484	0.061733	1.000000	0.000034	0.000021	0.000005	-1.351756	-77.329597	-5.741091
18535	9.597603	-0.076785	2.184546	-0.029684	-0.022449	0.030622	1.000000	0.000028	0.000014	-0.000002	-1.344232	-77.330849	-5.754807
18536	9.641440	-0.036967	2.177529	-0.008338	0.015140	0.071647	1.000000	0.000028	0.000039	0.000018	-1.346479	-77.328825	-5.752927
18537	9.618112	-0.058877	2.164658	-0.003601	-0.007684	0.046178	1.000000	0.000029	0.000010	0.000008	-1.343274	-77.330110	-5.750655
18538	9.611205	-0.028675	2.127341	0.034635	0.017950	0.031099	1.000000	0.000041	0.000023	0.000023	-1.346786	-77.329938	-5.746009
18539	9.639614	-0.060028	2.129131	0.035304	-0.013575	0.059371	1.000000	0.000022	0.000023	0.000007	-1.343730	-77.329627	-5.742533
18540	9.617856	-0.059281	2.165783	-0.004903	-0.007931	0.046177	1.000000	0.000041	0.000013	0.000019	-1.345597	-77.330561	-5.739548
18541	9.614369	-0.044254	2.147283	0.014025	0.004831	0.038640	1.000000	0.000029	0.000020	0.000011	-1.344188	-77.330575	-5.739490
18542	9.617682	-0.059638	2.166547	-0.005756	-0.008097	0.046176	1.000000	0.000029	0.000026	0.000024	-1.349847	-77.330086	-5.733993
18543	9.616664	-0.040838	2.182310	-0.018975	0.012467	0.048543	1.000000	0.000034	0.000011	0.000002	-1.343232	-77.331181	-5.737586
18544	9.640743	-0.038213	2.180592	-0.011795	0.014468	0.071644	1.000000	0.000018	0.000024	0.000036	-1.356095	-77.330806	-5.725959
18545	9.589807	-0.047900	2.151139	0.004658	0.002457	0.015541	1.000000	0.000038	0.000044	-0.000004	-1.346508	-77.328325	-5.743319
18546	9.641424	-0.057262	2.166317	0.000107	-0.006319	0.069278	1.000000	0.000041	0.000004	0.000016	-1.346735	-77.330364	-5.741992
18547	9.613780	-0.045088	2.149900	0.011401	0.004375	0.038644	1.000000	0.000022	0.000033	0.000010	-1.345807	-77.329051	-5.748355
18548	9.614603	-0.064035	2.135015	0.023752	-0.016362	0.036280	1.000000	0.000034	0.000021	0.000005	-1.341165	-77.329180	-5.752860
18549	9.637742	-0.042360	2.148716	0.018139	0.006283	0.061749	1.000000	0.000029	0.000016	0.000021	-1.344890	-77.329772	-5.744662
18550	9.616908	-0.060505	2.169959	-0.009267	-0.008703	0.046173	1.000000	0.000034	0.000021	0.000005	-1.340248	-77.329902	-5.749167
18551	9.638479	-0.061514	2.134219	0.030067	-0.014545	0.059387	1.000000	0.000034	0.000036	0.000022	-1.343611	-77.328123	-5.743587
18552	9.592545	-0.063601	2.172912	-0.017741	-0.010935	0.023068	1.000000	0.000029	0.000001	0.000004	-1.339283	-77.330522	-5.748349
18553	9.636456	-0.023840	2.165663	0.003578	0.026640	0.064115	1.000000	0.000028	0.000030	0.000014	-1.340131	-77.329814	-5.753437
18554	9.610635	-0.049551	2.118724	0.040452	-0.003998	0.028761	1.000000	0.000040	0.000036	0.000016	-1.340236	-77.328102	-5.752405
18555	9.612986	-0.045901	2.153434	0.007833	0.003761	0.038648	1.000000	0.000017	0.000013	0.000009	-1.339700	-77.329309	-5.759773
18556	9.616315	-0.061109	2.172568	-0.011968	-0.009144	0.046170	1.000000	0.000040	0.000017	0.000009	-1.336518	-77.329810	-5.762060
18557	9.616219	-0.061216	2.172991	-0.012424	-0.009225	0.046169	1.000000	0.000034	0.000026	0.000019	-1.338382	-77.329349	-5.754838
18558	9.636889	-0.043308	2.152524	0.014104	0.005594	0.061756	1.000000	0.000040	0.000017	0.000009	-1.335201	-77.329850	-5.757124
18559	9.616026	-0.061428	2.173835	-0.013307	-0.009372	0.046168	1.000000	0.000034	0.000026	0.000019	-1.337264	-77.329308	-5.756378
18560	9.612520	-0.046375	2.155502	0.005617	0.003380	0.038649	1.000000	0.000016	0.000027	0.000003	-1.333310	-77.328747	-5.762250
18561	9.613353	-0.065430	2.140595	0.017950	-0.017367	0.036290	1.000000	0.000041	0.000023	0.000023	-1.336849	-77.328573	-5.759239
18562	9.614771	-0.042843	2.190601	-0.027402	0.011080	0.048525	1.000000	0.000040	0.000017	0.000009	-1.333670	-77.329073	-5.761524
18563	9.592433	-0.083653	2.162141	-0.009917	-0.032403	0.020698	1.000000	0.000023	0.000010	0.000013	-1.334485	-77.330521	-5.754831
18564	9.612199	-0.046837	2.156921	0.003840	0.003078	0.038650	1.000000	0.000028	0.000020	0.000011	-1.333447	-77.330705	-5.756270
18565	9.613039	-0.065922	2.141987	0.016151	-0.017657	0.036293	1.000000	0.000034	0.000026	0.000019	-1.335865	-77.330267	-5.760433
18566	9.636157	-0.044276	2.155774	0.010543	0.005001	0.061760	1.000000	0.000028	0.000020	0.000011	-1.334828	-77.330451	-5.761871
18567	9.611916	-0.047182	2.158176	0.002492	0.002878	0.038651	1.000000	0.000040	0.000017	0.000009	-1.331888	-77.331026	-5.769387
18568	9.636908	-0.063251	2.141252	0.022412	-0.015820	0.059405	1.000000	0.000027	0.000034	0.000004	-1.327435	-77.329673	-5.774446
18569	9.611695	-0.047154	2.159159	0.001605	0.002734	0.038651	1.000000	0.000040	0.000017	0.000009	-1.324385	-77.330222	-5.780352
18570	9.611608	-0.047243	2.159546	0.001165	0.002659	0.038651	1.000000	0.000017	0.000023	0.000013	-1.325489	-77.330089	-5.780946
18571	9.638104	-0.040797	2.192180	-0.023837	0.012511	0.071625	1.000000	0.000041	0.000023	0.000023	-1.328973	-77.330029	-5.773793
18572	9.586317	-0.031571	2.177777	-0.020085	0.021141	0.017894	1.000000	0.000035	0.000017	0.000015	-1.329398	-77.330584	-5.773012
18573	9.615666	-0.081949	2.164175	-0.006812	-0.031049	0.043802	1.000000	0.000029	0.000016	0.000021	-1.333539	-77.331230	-5.776244
18574	9.611275	-0.048013	2.161010	-0.000619	0.002366	0.038651	1.000000	0.000040	0.000017	0.000009	-1.330365	-77.331728	-5.778525
18575	9.612122	-0.067068	2.146064	0.011682	-0.018405	0.036298	1.000000	0.000034	0.000026	0.000019	-1.332143	-77.331231	-5.770531
18576	9.611064	-0.048261	2.161945	-0.001509	0.002207	0.038651	1.000000	0.000040	0.000027	0.000013	-1.330611	-77.330621	-5.771152
18578	9.612602	-0.055949	2.172025	-0.023281	-0.008535	9.897491	1.000000	0.000057	0.000040	0.000022	-1.331709	-77.328470	-5.769127
18579	9.635879	-0.064749	2.145835	0.017950	-0.016583	0.059413	1.000000	0.000029	0.000026	0.000024	-1.337376	-77.327973	-5.763625
18580	9.611615	-0.067747	2.148313	0.009894	-0.018697	0.036299	1.000000	0.000034	0.000021	0.000005	-1.332919	-77.328253	-5.768148
18581	9.609605	-0.029955	2.179580	-0.016036	0.022609	0.041002	1.000000	0.000034	0.000036	0.000022	-1.336629	-77.326591	-5.764049
18582	9.612851	-0.045216	2.198962	-0.035884	0.009751	0.048499	1.000000	0.000040	0.000017	0.000009	-1.333659	-77.327189	-5.770117
18583	9.634498	-0.046243	2.163137	0.003398	0.003824	0.061766	1.000000	0.000040	0.000027	0.000013	-1.332130	-77.326578	-5.770736
18584	9.611191	-0.068179	2.150197	0.008116	-0.018983	0.036300	1.000000	0.000041	0.000013	0.000019	-1.334212	-77.327486	-5.768105
18585	9.607723	-0.053183	2.131805	0.027073	-0.006267	0.028806	1.000000	0.000016	0.000036	0.000006	-1.331897	-77.325815	-5.772323
18586	9.613408	-0.064549	2.185294	-0.024932	-0.011199	0.046144	1.000000	0.000041	0.000004	0.000016	-1.332722	-77.328025	-5.777145
18587	9.610943	-0.068568	2.151293	0.006762	-0.019184	0.036301	1.000000	0.000023	0.000019	0.000017	-1.335289	-77.328262	-5.775518
18588	9.631651	-0.050897	2.130831	0.033309	-0.004430	0.051926	1.000000	0.000029	0.000026	0.000024	-1.341106	-77.327743	-5.770796
18589	9.610762	-0.068968	2.152085	0.005883	-0.019329	0.036301	1.000000	0.000034	0.000011	0.000002	-1.334837	-77.328976	-5.776946
18590	9.609750	-0.049994	2.167737	-0.007298	0.001298	0.038649	1.000000	0.000028	0.000020	0.000011	-1.333824	-77.329224	-5.776011
18591	9.631412	-0.051183	2.131907	0.031975	-0.004658	0.051931	1.000000	0.000041	0.000023	0.000023	-1.337360	-77.329040	-5.771346
18592	9.612927	-0.065463	2.187382	-0.027600	-0.011615	0.046136	1.000000	0.000017	0.000013	0.000009	-1.337146	-77.330104	-5.775104
18593	9.609482	-0.050481	2.168915	-0.008632	0.001090	0.038648	1.000000	0.000028	0.000030	0.000014	-1.337755	-77.329176	-5.774882
18594	9.634476	-0.066820	2.152062	0.011225	-0.017641	0.059421	1.000000	0.000041	0.000023	0.000023	-1.341600	-77.329013	-5.772453
18595	9.609292	-0.050831	2.169747	-0.009514	0.000954	0.038647	1.000000	0.000029	0.000010	0.000008	-1.338932	-77.330301	-5.775540
18596	9.609225	-0.050886	2.170042	-0.009956	0.000878	0.038646	1.000000	0.000028	0.000020	0.000011	-1.337878	-77.330494	-5.767146
18597	9.633309	-0.048168	2.168383	-0.002823	0.002839	0.061766	1.000000	0.000035	0.000017	0.000015	-1.338313	-77.331045	-5.766356
18598	9.606671	-0.055076	2.136490	0.021289	-0.007192	0.028819	1.000000	0.000029	0.000016	0.000021	-1.342553	-77.331713	-5.759694
18599	9.634109	-0.067560	2.153682	0.009006	-0.018008	0.059423	1.000000	0.000035	0.000017	0.000015	-1.342989	-77.332264	-5.758903
18600	9.630685	-0.052574	2.135151	0.027984	-0.005301	0.051943	1.000000	0.000028	0.000020	0.000011	-1.342238	-77.332422	-5.759894
18601	9.583697	-0.035512	2.189216	-0.032448	0.019201	0.017865	1.000000	0.000028	0.000030	0.000014	-1.342847	-77.331492	-5.759671
18602	9.608705	-0.051736	2.172324	-0.012616	0.000476	0.038643	1.000000	0.000040	0.000017	0.000009	-1.340204	-77.332088	-5.772709
18603	9.632796	-0.048868	2.170647	-0.005488	0.002432	0.061765	1.000000	0.000016	0.000017	-0.000001	-1.334606	-77.332633	-5.780242
18604	9.608556	-0.051725	2.172984	-0.013496	0.000342	0.038642	1.000000	0.000035	0.000017	0.000015	-1.335393	-77.333194	-5.778747
18605	9.581917	-0.058547	2.141125	0.010630	-0.009712	0.005702	1.000000	0.000028	0.000020	0.000011	-1.334365	-77.333372	-5.780179
18606	9.629218	-0.034072	2.152819	0.012615	0.014989	0.054290	1.000000	0.000023	0.000019	0.000017	-1.337074	-77.333603	-5.778123
18607	9.633427	-0.068358	2.156704	0.005456	-0.018562	0.059424	1.000000	0.000041	0.000013	0.000019	-1.338981	-77.334524	-5.775106
18608	9.604892	-0.037244	2.155534	0.004178	0.012821	0.031167	1.000000	0.000040	0.000027	0.000013	-1.337733	-77.333878	-5.772439
18609	9.604825	-0.037300	2.155828	0.003739	0.012746	0.031168	1.000000	0.000017	0.000004	0.000006	-1.335561	-77.335958	-5.776343
18610	9.611401	-0.067573	2.194014	-0.035551	-0.012845	0.046109	1.000000	0.000040	0.000037	0.000016	-1.335707	-77.334202	-5.771747
18611	9.628784	-0.034749	2.154750	0.010427	0.014623	0.054293	1.000000	0.000023	0.000019	0.000017	-1.338279	-77.334435	-5.770117
18612	9.608812	-0.071828	2.160683	-0.004302	-0.020943	0.036299	1.000000	0.000035	0.000017	0.000015	-1.338949	-77.334991	-5.772341
18613	9.628632	-0.035077	2.155424	0.009549	0.014480	0.054294	1.000000	0.000035	0.000017	0.000015	-1.339390	-77.335540	-5.771546
18614	9.607697	-0.053228	2.176740	-0.017897	-0.000364	0.038635	1.000000	0.000029	0.000026	0.000024	-1.345238	-77.335124	-5.763909
18615	9.629397	-0.054330	2.140910	0.021352	-0.006384	0.051959	1.000000	0.000033	0.000015	-0.000008	-1.333908	-77.335927	-5.775340
18616	9.607506	-0.053350	2.177580	-0.018778	-0.000506	0.038634	1.000000	0.000006	0.000031	0.000028	-1.344005	-77.334796	-5.764328
18617	9.629220	-0.054754	2.141695	0.020470	-0.006529	0.051960	1.000000	0.000041	0.000004	0.000016	-1.344281	-77.336824	-5.762958
18618	9.604964	-0.057708	2.144086	0.012472	-0.008614	0.028833	1.000000	0.000040	0.000037	0.000016	-1.344733	-77.335121	-5.764220
18619	9.628078	-0.036024	2.157882	0.006892	0.014055	0.054297	1.000000	0.000017	0.000013	0.000009	-1.344201	-77.336091	-5.766468
18620	9.604762	-0.057961	2.144980	0.011584	-0.008750	0.028834	1.000000	0.000028	0.000030	0.000014	-1.345233	-77.335210	-5.773815
18621	9.607032	-0.054199	2.179651	-0.020987	-0.000839	0.038629	1.000000	0.000035	0.000017	0.000015	-1.345678	-77.335757	-5.773017
18622	9.632067	-0.070493	2.162702	-0.001182	-0.019621	0.059423	1.000000	0.000028	0.000020	0.000011	-1.344751	-77.335889	-5.772731
18623	9.605913	-0.035340	2.195711	-0.034545	0.019745	0.040961	1.000000	0.000034	0.000021	0.000005	-1.340128	-77.336009	-5.777220
18624	9.631877	-0.070799	2.163537	-0.002065	-0.019764	0.059423	1.000000	0.000018	0.000024	0.000036	-1.353178	-77.335619	-5.760947
18625	9.605749	-0.035992	2.196420	-0.035424	0.019604	0.040958	1.000000	0.000041	0.000004	0.000016	-1.353461	-77.337646	-5.759571
18626	9.627463	-0.037055	2.160606	0.003817	0.013566	0.054300	1.000000	0.000027	0.000038	-0.000006	-1.344246	-77.335859	-5.772188
18627	9.631604	-0.071087	2.164743	-0.003391	-0.019976	0.059422	1.000000	0.000035	0.000017	0.000015	-1.344694	-77.336405	-5.771388
18628	9.603088	-0.040027	2.163506	-0.004598	0.011408	0.031169	1.000000	0.000041	0.000023	0.000023	-1.348410	-77.336162	-5.767265
18629	9.627165	-0.037462	2.161926	0.002507	0.013346	0.054300	1.000000	0.000023	0.000019	0.000017	-1.350986	-77.336393	-5.765632
18630	9.624705	-0.041542	2.128154	0.034212	0.005271	0.044518	1.000000	0.000040	0.000027	0.000013	-1.349536	-77.335690	-5.763463
18631	9.631228	-0.071637	2.166398	-0.005136	-0.020268	0.059421	1.000000	0.000028	0.000014	-0.000002	-1.341810	-77.336548	-5.771830
18632	9.630176	-0.052715	2.182154	-0.018252	0.000399	0.061750	1.000000	0.000040	0.000033	0.000026	-1.347160	-77.335240	-5.765414
18633	9.624408	-0.041706	2.129491	0.032894	0.005046	0.044523	1.000000	0.000016	0.000017	-0.000001	-1.341560	-77.335783	-5.772948
18634	9.626732	-0.037800	2.163848	0.000326	0.012982	0.054301	1.000000	0.000030	-0.000003	0.000014	-1.342432	-77.338589	-5.770382
18635	9.602489	-0.040882	2.166145	-0.007653	0.010898	0.031167	1.000000	0.000029	0.000035	0.000028	-1.349750	-77.336970	-5.763219
18636	9.627474	-0.057396	2.149463	0.012122	-0.007903	0.051973	1.000000	0.000034	0.000026	0.000019	-1.351884	-77.336386	-5.753533
18637	9.629700	-0.053567	2.184232	-0.020450	0.000033	0.061746	1.000000	0.000034	0.000030	0.000009	-1.348899	-77.335395	-5.756369
18638	9.627248	-0.057594	2.150469	0.011232	-0.008048	0.051974	1.000000	0.000035	0.000017	0.000015	-1.349504	-77.335990	-5.755487
18639	9.626196	-0.038666	2.166215	-0.001879	0.012616	0.054301	1.000000	0.000034	0.000030	0.000009	-1.346520	-77.334999	-5.758322
18640	9.601928	-0.041574	2.168618	-0.009853	0.010537	0.031166	1.000000	0.000041	0.000013	0.000019	-1.348508	-77.335914	-5.754374
18641	9.603760	-0.079653	2.138340	0.015042	-0.031019	0.026513	1.000000	0.000016	0.000017	-0.000001	-1.342908	-77.336456	-5.761909
18642	9.625962	-0.039110	2.167247	-0.003203	0.012401	0.054301	1.000000	0.000042	0.000015	0.000043	-1.356764	-77.337142	-5.746129
18643	9.630137	-0.073486	2.171178	-0.010444	-0.021136	0.059415	1.000000	0.000023	0.000014	0.000003	-1.352638	-77.338055	-5.751434
18644	9.622520	-0.024449	2.148981	0.015378	0.024978	0.046863	1.000000	0.000034	0.000026	0.000019	-1.354970	-77.337543	-5.754121
18645	9.628996	-0.054708	2.187303	-0.024000	-0.000528	0.061738	1.000000	0.000028	0.000020	0.000011	-1.353951	-77.337716	-5.755546
18646	9.623289	-0.043733	2.134504	0.027156	0.004084	0.044541	1.000000	0.000035	0.000017	0.000015	-1.354552	-77.338288	-5.758581
18647	9.625553	-0.039913	2.169048	-0.005413	0.012045	0.054301	1.000000	0.000035	0.000017	0.000015	-1.355008	-77.338831	-5.757774
18648	9.602235	-0.061968	2.156155	-0.000716	-0.010782	0.028839	1.000000	0.000029	0.000026	0.000024	-1.360644	-77.338270	-5.745547
18649	9.626328	-0.059360	2.154533	0.006370	-0.008856	0.051978	1.000000	0.000029	0.000010	0.000008	-1.357994	-77.339553	-5.748618
18650	9.625276	-0.040422	2.170266	-0.006724	0.011821	0.054300	1.000000	0.000040	0.000037	0.000016	-1.358210	-77.337811	-5.748419
18651	9.598639	-0.047205	2.138605	0.017441	0.001706	0.021407	1.000000	0.000028	0.000024	0.000001	-1.352119	-77.337558	-5.755133
18652	9.625055	-0.040462	2.171247	-0.007600	0.011678	0.054300	1.000000	0.000035	0.000017	0.000015	-1.352709	-77.338088	-5.759380
18653	9.624960	-0.040638	2.171665	-0.008040	0.011604	0.054300	1.000000	0.000034	0.000026	0.000019	-1.354799	-77.337519	-5.756924
18654	9.626759	-0.078837	2.141573	0.016818	-0.029977	0.049658	1.000000	0.000028	0.000020	0.000011	-1.353789	-77.337678	-5.756589
18655	9.597331	-0.028492	2.155469	0.003043	0.022161	0.023731	1.000000	0.000028	0.000014	-0.000002	-1.346067	-77.338535	-5.764951
18656	9.602422	-0.081677	2.144268	0.008400	-0.032119	0.026518	1.000000	0.000029	0.000026	0.000024	-1.351901	-77.338077	-5.764544
18657	9.622263	-0.045128	2.139093	0.022322	0.003254	0.044553	1.000000	0.000040	0.000023	0.000023	-1.355469	-77.337878	-5.759854
18658	9.625405	-0.060189	2.158631	0.002383	-0.009512	0.051979	1.000000	0.000027	0.000038	-0.000006	-1.346078	-77.336164	-5.768663
18659	9.597848	-0.047922	2.142138	0.013912	0.001116	0.021413	1.000000	0.000041	0.000013	0.000019	-1.348015	-77.337074	-5.765619
18660	9.628475	-0.075350	2.178474	-0.017996	-0.022354	0.059401	1.000000	0.000040	0.000027	0.000013	-1.346547	-77.336498	-5.764046
18661	9.625109	-0.060422	2.159946	0.001052	-0.009734	0.051979	1.000000	0.000035	0.000017	0.000015	-1.347009	-77.337038	-5.763235
18662	9.621740	-0.045604	2.141435	0.020094	0.002892	0.044558	1.000000	0.000023	0.000029	0.000020	-1.351471	-77.336201	-5.764782
18663	9.596519	-0.029597	2.159066	-0.000494	0.021589	0.023733	1.000000	0.000041	0.000013	0.000019	-1.353412	-77.337110	-5.761736
18664	9.624852	-0.060900	2.161077	-0.000275	-0.009948	0.051979	1.000000	0.000028	0.000014	-0.000002	-1.345712	-77.337939	-5.769186
18665	9.645698	-0.043281	2.140444	0.026291	0.004653	0.067705	1.000000	0.000019	0.000015	0.000033	-1.356967	-77.338642	-5.759199
18666	9.621422	-0.046279	2.142847	0.018335	0.002592	0.044562	1.000000	0.000039	0.000031	0.000003	-1.350457	-77.337613	-5.762586
18667	9.621305	-0.046355	2.143370	0.017895	0.002516	0.044563	1.000000	0.000040	0.000023	0.000023	-1.354030	-77.337411	-5.757892
18668	9.603541	-0.079425	2.183731	-0.029068	-0.024906	0.036247	1.000000	0.000034	0.000026	0.000019	-1.356283	-77.336941	-5.757361
18669	9.621062	-0.046837	2.144453	0.016998	0.002371	0.044564	1.000000	0.000034	0.000036	0.000022	-1.360006	-77.335258	-5.753257
18670	9.624217	-0.062013	2.163869	-0.002956	-0.010380	0.051978	1.000000	0.000029	0.000010	0.000008	-1.357482	-77.336619	-5.754500
18671	9.648333	-0.059255	2.162188	0.004110	-0.008470	0.075124	1.000000	0.000040	0.000017	0.000009	-1.354352	-77.337102	-5.756742
18672	9.599871	-0.065060	2.166564	-0.011351	-0.012507	0.028831	1.000000	0.000006	0.000031	0.000028	-1.364417	-77.335999	-5.749916
18673	9.626269	-0.058450	2.199179	-0.036413	-0.002505	0.061700	1.000000	0.000052	0.000005	0.000004	-1.357543	-77.337909	-5.754623
18674	9.620627	-0.047539	2.146386	0.014778	0.002008	0.044568	1.000000	0.000005	0.000035	0.000018	-1.362497	-77.336335	-5.751561
18675	9.621466	-0.066749	2.131650	0.026957	-0.018839	0.042257	1.000000	0.000040	0.000017	0.000009	-1.359370	-77.336819	-5.753801
18676	9.623667	-0.062833	2.166290	-0.005612	-0.010812	0.051976	1.000000	0.000034	0.000026	0.000019	-1.361592	-77.336262	-5.749474
18677	9.619363	-0.028916	2.163012	0.000838	0.022560	0.046881	1.000000	0.000028	0.000020	0.000011	-1.360581	-77.336430	-5.750892
18678	9.620223	-0.048095	2.148185	0.013018	0.001714	0.044570	1.000000	0.000017	0.000023	0.000013	-1.361751	-77.336264	-5.746739
18679	9.624315	-0.082352	2.152395	0.005685	-0.031807	0.049665	1.000000	0.000034	0.000026	0.000019	-1.363848	-77.335690	-5.744277
18680	9.619060	-0.029386	2.164351	-0.000480	0.022345	0.046882	1.000000	0.000028	0.000020	0.000011	-1.363032	-77.335887	-5.747963
18681	9.623163	-0.063629	2.168507	-0.007819	-0.011174	0.051974	1.000000	0.000040	0.000023	0.000023	-1.366611	-77.335681	-5.743264
18682	9.620772	-0.067749	2.134752	0.023863	-0.019352	0.042263	1.000000	0.000028	0.000024	0.000001	-1.360587	-77.335454	-5.743594
18683	9.619724	-0.048827	2.150403	0.010809	0.001348	0.044573	1.000000	0.000018	0.000019	0.000023	-1.366769	-77.335729	-5.738897
18684	9.618691	-0.030026	2.165983	-0.002254	0.022060	0.046882	1.000000	0.000035	0.000017	0.000015	-1.367489	-77.336345	-5.741870
18685	9.595370	-0.051953	2.153115	0.002422	-0.000769	0.021423	1.000000	0.000040	0.000027	0.000013	-1.365994	-77.335716	-5.742463
18686	9.622706	-0.064317	2.170514	-0.010057	-0.011524	0.051972	1.000000	0.000023	0.000010	0.000014	-1.367137	-77.337139	-5.741703
18687	9.619403	-0.049433	2.151824	0.009021	0.001064	0.044575	1.000000	0.000028	0.000020	0.000011	-1.366130	-77.337306	-5.743119
18688	9.597416	-0.048233	2.188365	-0.031047	0.007148	0.031125	1.000000	0.000028	0.000020	0.000011	-1.365370	-77.337546	-5.749174
18689	9.615999	-0.034567	2.133594	0.027651	0.013582	0.037181	1.000000	0.000040	0.000017	0.000009	-1.362249	-77.338028	-5.751408
18690	9.646574	-0.061917	2.169950	-0.004358	-0.009829	0.075123	1.000000	0.000006	0.000016	0.000011	-1.364019	-77.338747	-5.754389
18691	9.619066	-0.049734	2.153323	0.007237	0.000781	0.044576	1.000000	0.000045	0.000028	0.000007	-1.358929	-77.338062	-5.758037
18692	9.617993	-0.030747	2.169072	-0.005802	0.021495	0.046882	1.000000	0.000034	0.000026	0.000019	-1.361140	-77.337497	-5.756863
18693	9.594659	-0.052803	2.156262	-0.001132	-0.001335	0.021423	1.000000	0.000040	0.000023	0.000023	-1.364725	-77.337289	-5.752159
18694	9.618751	-0.050252	2.154716	0.005913	0.000561	0.044577	1.000000	0.000035	0.000017	0.000015	-1.365222	-77.337836	-5.748472
18695	9.621883	-0.065428	2.174126	-0.014057	-0.012165	0.051966	1.000000	0.000034	0.000026	0.000019	-1.367325	-77.337259	-5.746007
18696	9.618542	-0.050707	2.155641	0.005028	0.000416	0.044578	1.000000	0.000029	0.000026	0.000024	-1.373159	-77.336764	-5.743538
18697	9.594238	-0.053710	2.158109	-0.002896	-0.001626	0.021423	1.000000	0.000028	0.000030	0.000014	-1.373779	-77.335817	-5.743312
18698	9.615139	-0.036114	2.137445	0.023672	0.012918	0.037193	1.000000	0.000030	-0.000003	0.000014	-1.374816	-77.338699	-5.748127
18699	9.618300	-0.051127	2.156711	0.003696	0.000199	0.044578	1.000000	0.000039	0.000031	0.000003	-1.368245	-77.337644	-5.754013
18700	9.617240	-0.032072	2.172389	-0.009339	0.020919	0.046880	1.000000	0.000035	0.000017	0.000015	-1.368751	-77.338221	-5.745427
18701	9.619091	-0.070297	2.142228	0.015394	-0.020741	0.042278	1.000000	0.000029	0.000011	0.000008	-1.366122	-77.339498	-5.748481
18702	9.618077	-0.051446	2.157695	0.002360	-0.000018	0.044579	1.000000	0.000024	0.000016	0.000027	-1.373920	-77.340185	-5.743581
18703	9.593816	-0.054447	2.159968	-0.005557	-0.002055	0.021421	1.000000	0.000028	0.000020	0.000011	-1.372915	-77.340350	-5.744994
18704	9.621111	-0.066771	2.177500	-0.018063	-0.012806	0.051959	1.000000	0.000040	0.000027	0.000013	-1.371449	-77.339731	-5.740015
18705	9.614557	-0.036908	2.140048	0.020579	0.012398	0.037200	1.000000	0.000028	0.000030	0.000014	-1.372069	-77.338783	-5.739788
18706	9.615413	-0.056203	2.125285	0.032719	-0.008474	0.034902	1.000000	0.000029	0.000016	0.000021	-1.376251	-77.339372	-5.740594
18707	9.617588	-0.052232	2.159854	0.000157	-0.000387	0.044579	1.000000	0.000034	0.000021	0.000005	-1.371653	-77.339482	-5.745062
18708	9.614296	-0.037364	2.141208	0.019255	0.012177	0.037203	1.000000	0.000029	0.000016	0.000021	-1.375812	-77.340108	-5.738299
18709	9.617413	-0.052594	2.160627	-0.000731	-0.000532	0.044579	1.000000	0.000034	0.000026	0.000019	-1.377918	-77.339528	-5.735830
18710	9.639262	-0.053998	2.124863	0.038416	-0.006813	0.058068	1.000000	0.000034	0.000011	0.000002	-1.371746	-77.340792	-5.739732
18711	9.614028	-0.037839	2.142404	0.017930	0.011952	0.037206	1.000000	0.000035	0.000032	0.000032	-1.380557	-77.339520	-5.730328
18712	9.592007	-0.036683	2.178918	-0.022109	0.018096	0.023715	1.000000	0.000040	0.000008	0.000006	-1.375933	-77.341169	-5.736018
18713	9.639028	-0.054501	2.125909	0.037082	-0.007042	0.058073	1.000000	0.000029	0.000016	0.000021	-1.380013	-77.341753	-5.732132
18714	9.616063	-0.034197	2.177559	-0.015525	0.019908	0.046875	1.000000	0.000040	0.000017	0.000009	-1.376940	-77.342276	-5.734967
18715	9.616894	-0.053396	2.162914	-0.003396	-0.000970	0.044579	1.000000	0.000028	0.000039	0.000018	-1.379183	-77.340213	-5.733103
18716	9.616772	-0.053647	2.163452	-0.003843	-0.001042	0.044578	1.000000	0.000029	0.000016	0.000021	-1.383330	-77.340835	-5.733385
18717	9.592507	-0.056567	2.165720	-0.011748	-0.003069	0.021416	1.000000	0.000028	0.000020	0.000011	-1.382329	-77.340997	-5.734795
18718	9.617545	-0.073069	2.149066	0.007836	-0.021998	0.042284	1.000000	0.000034	0.000026	0.000019	-1.384444	-77.340435	-5.730628
18719	9.637440	-0.036518	2.143933	0.021855	0.013307	0.060376	1.000000	0.000034	0.000036	0.000022	-1.388174	-77.338739	-5.726522
18720	9.595322	-0.072103	2.186405	-0.032638	-0.015915	0.028778	1.000000	0.000040	0.000027	0.000013	-1.386657	-77.338167	-5.715914
18721	9.616216	-0.054394	2.165904	-0.006059	-0.001414	0.044577	1.000000	0.000016	0.000017	-0.000001	-1.381061	-77.338706	-5.723446
18722	9.616184	-0.054426	2.166042	-0.006502	-0.001488	0.044577	1.000000	0.000030	-0.000003	0.000014	-1.381927	-77.341529	-5.720552
18723	9.612911	-0.039574	2.147380	0.012619	0.011057	0.037215	1.000000	0.000033	0.000040	0.000012	-1.380575	-77.339411	-5.721743
18724	9.636974	-0.037028	2.146016	0.019630	0.012934	0.060381	1.000000	0.000029	0.000016	0.000021	-1.384727	-77.340042	-5.718249
18725	9.619072	-0.069868	2.186391	-0.027394	-0.014324	0.051935	1.000000	0.000040	0.000027	0.000013	-1.383243	-77.339405	-5.718832
18726	9.615786	-0.055011	2.167794	-0.007808	-0.002858	0.044576	1.000000	0.000035	0.000017	0.000015	-1.356456	-77.336619	-5.744998
18727	9.615691	-0.055256	2.168209	-0.008247	-0.002937	0.044575	1.000000	0.000029	0.000026	0.000024	-1.362047	-77.336074	-5.739588
18728	9.613362	-0.059609	2.134449	0.023424	-0.011208	0.034926	1.000000	0.000028	0.000020	0.000011	-1.361144	-77.336292	-5.745178
18729	9.615522	-0.055530	2.168953	-0.009135	-0.003084	0.044574	1.000000	0.000029	0.000011	0.000008	-1.358410	-77.337551	-5.748339
18730	9.615460	-0.055547	2.169226	-0.009585	-0.003154	0.044574	1.000000	0.000040	0.000017	0.000009	-1.355392	-77.338081	-5.751992
18731	9.587981	-0.043367	2.152589	0.002095	0.007432	0.014053	1.000000	0.000022	0.000033	0.000010	-1.354414	-77.336746	-5.754122
18732	9.615239	-0.055724	2.170200	-0.010474	-0.003304	0.044573	1.000000	0.000035	0.000017	0.000015	-1.354964	-77.337340	-5.750830
18733	9.636165	-0.038160	2.149627	0.016111	0.011164	0.060390	1.000000	0.000028	0.000020	0.000011	-1.353853	-77.337486	-5.752354
18734	9.615055	-0.055990	2.171013	-0.011359	-0.003454	0.044572	1.000000	0.000034	0.000027	0.000019	-1.356007	-77.336936	-5.750971
18735	9.614974	-0.056175	2.171366	-0.011798	-0.003533	0.044571	1.000000	0.000023	0.000010	0.000014	-1.356868	-77.338248	-5.751077
18736	9.615865	-0.075405	2.156490	0.000306	-0.024428	0.042281	1.000000	0.000028	0.000020	0.000011	-1.355857	-77.338400	-5.750676
18737	9.635865	-0.038738	2.150961	0.014350	0.010853	0.060393	1.000000	0.000041	0.000004	0.000016	-1.356105	-77.340395	-5.749346
18738	9.636750	-0.057991	2.136122	0.026441	-0.010042	0.058104	1.000000	0.000028	0.000030	0.000014	-1.356794	-77.339493	-5.750538
18739	9.614668	-0.056677	2.172707	-0.013563	-0.003835	0.044569	1.000000	0.000028	0.000020	0.000011	-1.355684	-77.339638	-5.752060
18740	9.611406	-0.041749	2.154066	0.005573	0.008690	0.037224	1.000000	0.000034	0.000021	0.000005	-1.351149	-77.339777	-5.757435
18741	9.635527	-0.039089	2.152469	0.012579	0.010546	0.060395	1.000000	0.000023	0.000010	0.000014	-1.352011	-77.341088	-5.757540
18742	9.587083	-0.044581	2.156556	-0.002756	0.006604	0.014054	1.000000	0.000034	0.000021	0.000005	-1.347472	-77.341249	-5.763435
18743	9.612134	-0.060837	2.139941	0.016782	-0.012368	0.034938	1.000000	0.000033	0.000025	-0.000005	-1.337684	-77.340919	-5.773310
18744	9.635237	-0.039057	2.153766	0.011247	0.010317	0.060397	1.000000	0.000040	0.000033	0.000026	-1.342892	-77.339613	-5.763840
18745	9.611931	-0.061208	2.140841	0.015899	-0.012524	0.034939	1.000000	0.000007	0.000002	0.000018	-1.347828	-77.341776	-5.761721
18746	9.590835	-0.078964	2.162101	-0.011573	-0.027122	0.019106	1.000000	0.000039	0.000031	0.000003	-1.341245	-77.340747	-5.763296
18747	9.634983	-0.039493	2.154896	0.009923	0.010081	0.060399	1.000000	0.000035	0.000017	0.000015	-1.341628	-77.341258	-5.762571
18748	9.611659	-0.061502	2.142052	0.014566	-0.012753	0.034941	1.000000	0.000034	0.000027	0.000019	-1.343830	-77.340715	-5.765594
18749	9.635753	-0.058969	2.140586	0.021564	-0.010903	0.058115	1.000000	0.000035	0.000017	0.000015	-1.344213	-77.341226	-5.764869
18750	9.610530	-0.042775	2.157949	0.001154	0.007926	0.037226	1.000000	0.000029	0.000016	0.000021	-1.348345	-77.341853	-5.758730
18751	9.613614	-0.057790	2.177333	-0.018877	-0.004736	0.044560	1.000000	0.000045	0.000018	0.000004	-1.341543	-77.342257	-5.764111
18752	9.608191	-0.047163	2.124373	0.032384	-0.000477	0.027611	1.000000	0.000006	0.000012	0.000021	-1.348277	-77.343387	-5.761076
18753	9.637658	-0.055525	2.176083	-0.012335	-0.002957	0.067733	1.000000	0.000040	0.000023	0.000023	-1.351776	-77.343151	-5.756465
18754	9.611196	-0.062566	2.144096	0.011898	-0.013210	0.034944	1.000000	0.000029	0.000011	0.000008	-1.349248	-77.344486	-5.762966
18755	9.634347	-0.040922	2.157713	0.006374	0.009472	0.060402	1.000000	0.000029	0.000026	0.000024	-1.354848	-77.343935	-5.757550
18756	9.634252	-0.041168	2.158128	0.005927	0.009399	0.060403	1.000000	0.000035	0.000017	0.000015	-1.355409	-77.344505	-5.760969
18757	9.609973	-0.044079	2.160401	-0.001941	0.007396	0.037227	1.000000	0.000040	0.000023	0.000023	-1.358910	-77.344268	-5.756357
18758	9.583474	-0.051122	2.128601	0.022302	-0.002871	0.004442	1.000000	0.000034	0.000030	0.000009	-1.355942	-77.343280	-5.759144
18759	9.608791	-0.025108	2.176525	-0.015332	0.028083	0.039507	1.000000	0.000040	0.000018	0.000009	-1.352737	-77.343736	-5.761468
18760	9.634779	-0.060779	2.144917	0.016672	-0.011753	0.058124	1.000000	0.000028	0.000040	0.000018	-1.354930	-77.341676	-5.756070
18761	9.610494	-0.063612	2.147214	0.008807	-0.013755	0.034947	1.000000	0.000017	0.000004	0.000006	-1.352684	-77.343732	-5.760054
18762	9.612590	-0.059498	2.181806	-0.023753	-0.005557	0.044549	1.000000	0.000039	0.000037	0.000016	-1.352801	-77.341995	-5.756737
18763	9.632578	-0.022850	2.176429	-0.009665	0.029696	0.062684	1.000000	0.000035	0.000007	0.000012	-1.351572	-77.343618	-5.757641
18764	9.612438	-0.059717	2.182470	-0.024641	-0.005706	0.044547	1.000000	0.000035	0.000017	0.000015	-1.352087	-77.344197	-5.757542
18765	9.634373	-0.061375	2.146725	0.014457	-0.012146	0.058127	1.000000	0.000035	0.000017	0.000015	-1.352477	-77.344705	-5.756811
18766	9.636493	-0.057247	2.181193	-0.018099	-0.003939	0.067724	1.000000	0.000029	0.000011	0.000008	-1.349842	-77.345973	-5.761291
18767	9.609097	-0.044974	2.164280	-0.006345	0.006626	0.037225	1.000000	0.000045	0.000018	0.000004	-1.343046	-77.346376	-5.766667
18768	9.609948	-0.064349	2.149633	0.005714	-0.014297	0.034948	1.000000	0.000029	0.000032	0.000038	-1.355447	-77.345146	-5.753892
18769	9.609840	-0.064608	2.150106	0.005275	-0.014376	0.034948	1.000000	0.000016	0.000017	-0.000001	-1.349732	-77.345667	-5.761544
18770	9.607829	-0.026420	2.180752	-0.020159	0.027249	0.039501	1.000000	0.000040	0.000023	0.000023	-1.353369	-77.345450	-5.759848
18771	9.605552	-0.030795	2.147005	0.011519	0.018875	0.029910	1.000000	0.000022	0.000024	0.000007	-1.350769	-77.345223	-5.763617
18772	9.633726	-0.062253	2.149599	0.011366	-0.012693	0.058130	1.000000	0.000028	0.000030	0.000014	-1.351371	-77.344281	-5.762860
18773	9.608468	-0.045955	2.167046	-0.008981	0.006166	0.037224	1.000000	0.000034	0.000017	0.000015	-1.351764	-77.344788	-5.762126
18774	9.581047	-0.033844	2.150265	0.002784	0.016731	0.006730	1.000000	0.000040	0.000027	0.000013	-1.350280	-77.344169	-5.762333
18775	9.633429	-0.062560	2.150920	0.010040	-0.012929	0.058131	1.000000	0.000040	0.000018	0.000009	-1.347082	-77.344623	-5.764651
18776	9.605037	-0.031455	2.149301	0.009319	0.018488	0.029913	1.000000	0.000006	0.000031	0.000028	-1.356968	-77.343476	-5.757770
18777	9.608087	-0.046684	2.168721	-0.010744	0.005860	0.037222	1.000000	0.000041	0.000004	0.000016	-1.357243	-77.345464	-5.756415
18778	9.608010	-0.046694	2.169062	-0.011189	0.005786	0.037222	1.000000	0.000039	0.000031	0.000003	-1.350657	-77.344433	-5.762053
18779	9.610061	-0.042439	2.203755	-0.043740	0.014019	0.046800	1.000000	0.000028	0.000020	0.000011	-1.349555	-77.344572	-5.763569
18780	9.632974	-0.063328	2.152935	0.007821	-0.013318	0.058133	1.000000	0.000029	0.000016	0.000021	-1.353612	-77.345170	-5.758949
18781	9.607736	-0.047051	2.170266	-0.012508	0.005553	0.037220	1.000000	0.000028	0.000020	0.000011	-1.352510	-77.345308	-5.760465
18782	9.608596	-0.066352	2.155607	-0.000469	-0.015382	0.034948	1.000000	0.000034	0.000027	0.000019	-1.354591	-77.344725	-5.758264
18783	9.629548	-0.049017	2.135203	0.026131	-0.001015	0.050831	1.000000	0.000023	0.000029	0.000020	-1.358698	-77.343800	-5.755096
18784	9.609541	-0.043381	2.206001	-0.045944	0.013647	0.046790	1.000000	0.000040	0.000027	0.000013	-1.357205	-77.343181	-5.755613
18785	9.632461	-0.064154	2.155205	0.005611	-0.013711	0.058134	1.000000	0.000029	0.000011	0.000008	-1.354489	-77.344434	-5.758759
18786	9.604113	-0.033064	2.153400	0.004921	0.017709	0.029918	1.000000	0.000030	0.000022	0.000035	-1.365269	-77.344341	-5.745402
18787	9.628215	-0.030630	2.151958	0.011887	0.019533	0.053105	1.000000	0.000034	0.000021	0.000005	-1.360577	-77.344427	-5.749969
18788	9.625014	-0.015825	2.133259	0.031084	0.031990	0.045808	1.000000	0.000023	0.000020	0.000017	-1.363097	-77.344635	-5.745919
18789	9.603845	-0.033559	2.154590	0.003609	0.017472	0.029919	1.000000	0.000028	0.000020	0.000011	-1.361997	-77.344773	-5.747433
18790	9.631071	-0.045894	2.172188	-0.009070	0.006763	0.060403	1.000000	0.000034	0.000017	0.000015	-1.362418	-77.345288	-5.749499
18791	9.606773	-0.048789	2.174490	-0.016907	0.004783	0.037214	1.000000	0.000023	0.000029	0.000020	-1.366526	-77.344362	-5.746331
18792	9.606706	-0.048914	2.174783	-0.017350	0.004705	0.037213	1.000000	0.000029	0.000001	0.000004	-1.362209	-77.346759	-5.750216
18793	9.631766	-0.065258	2.158274	0.002076	-0.014341	0.058134	1.000000	0.000038	0.000045	-0.000004	-1.352064	-77.344142	-5.759878
18794	9.604331	-0.053065	2.141619	0.013884	-0.003792	0.027653	1.000000	0.000029	0.000016	0.000021	-1.356085	-77.344710	-5.759052
18795	9.630580	-0.046323	2.174355	-0.011269	0.006371	0.060401	1.000000	0.000046	0.000024	0.000017	-1.356011	-77.344412	-5.757478
18796	9.582090	-0.051848	2.178475	-0.026496	0.002495	0.014020	1.000000	0.000023	0.000020	0.000017	-1.358476	-77.344601	-5.752413
18797	9.627298	-0.031732	2.156039	0.007502	0.018735	0.053111	1.000000	0.000040	0.000018	0.000010	-1.355288	-77.345051	-5.754722
18798	9.631288	-0.065795	2.160389	-0.000129	-0.014737	0.058134	1.000000	0.000040	0.000018	0.000010	-1.352141	-77.345518	-5.763082
18799	9.606050	-0.049309	2.177670	-0.020417	0.004163	0.037208	1.000000	0.000040	0.000018	0.000010	-1.348953	-77.345968	-5.765391
18800	9.624942	-0.036148	2.122831	0.038292	0.010143	0.043562	1.000000	0.000041	0.000014	0.000020	-1.350879	-77.346876	-5.759999
18801	9.606834	-0.068705	2.163371	-0.008844	-0.016868	0.034942	1.000000	0.000016	0.000037	0.000006	-1.348394	-77.345163	-5.764392
18802	9.627818	-0.051319	2.142933	0.017763	-0.002538	0.050850	1.000000	0.000029	0.000016	0.000021	-1.352376	-77.345712	-5.761242
18803	9.604719	-0.030698	2.194352	-0.034626	0.024729	0.039467	1.000000	0.000046	0.000014	0.000014	-1.350692	-77.346528	-5.761293
18804	9.630756	-0.066444	2.162744	-0.002781	-0.015210	0.058133	1.000000	0.000040	0.000027	0.000013	-1.349171	-77.345906	-5.765766
18805	9.627558	-0.051652	2.144096	0.016439	-0.002778	0.050852	1.000000	0.000028	0.000020	0.000011	-1.348075	-77.346041	-5.767278
18806	9.630562	-0.066619	2.163600	-0.003660	-0.015370	0.058132	1.000000	0.000028	0.000020	0.000011	-1.346949	-77.346175	-5.765913
18807	9.602203	-0.035386	2.161864	-0.004269	0.016051	0.029921	1.000000	0.000034	0.000027	0.000019	-1.348970	-77.345560	-5.763539
18808	9.629416	-0.047672	2.179473	-0.016990	0.005353	0.060393	1.000000	0.000040	0.000008	0.000006	-1.344178	-77.347149	-5.764837
18809	9.606100	-0.069563	2.166602	-0.012365	-0.017495	0.034937	1.000000	0.000028	0.000030	0.000014	-1.344697	-77.346167	-5.764719
18810	9.627078	-0.052050	2.146241	0.014238	-0.003178	0.050855	1.000000	0.000039	0.000031	0.000003	-1.338072	-77.345108	-5.771203
18811	9.604910	-0.050494	2.182661	-0.025690	0.003233	0.037196	1.000000	0.000018	0.000009	0.000019	-1.342545	-77.346462	-5.768243
18812	9.626911	-0.052464	2.146978	0.013355	-0.003337	0.050856	1.000000	0.000029	0.000026	0.000024	-1.348210	-77.345928	-5.765762
18813	9.628948	-0.048337	2.181525	-0.019191	0.004967	0.060389	1.000000	0.000029	0.000011	0.000008	-1.345502	-77.347178	-5.768901
18814	9.602570	-0.055331	2.149444	0.005098	-0.005382	0.027661	1.000000	0.000040	0.000018	0.000010	-1.342321	-77.347638	-5.768324
18815	9.604624	-0.051031	2.183908	-0.027448	0.002926	0.037191	1.000000	0.000029	0.000011	0.000008	-1.339612	-77.348888	-5.771464
18816	9.629695	-0.067686	2.167425	-0.008072	-0.016156	0.058128	1.000000	0.000017	0.000033	0.000016	-1.342219	-77.347586	-5.770388
18817	9.601366	-0.036482	2.165560	-0.008649	0.015268	0.029919	1.000000	0.000041	0.000004	0.000016	-1.342520	-77.349567	-5.769011
18818	9.624345	-0.057481	2.114801	0.042825	-0.012209	0.041334	1.000000	0.000028	0.000030	0.000014	-1.343091	-77.348615	-5.769072
18819	9.602134	-0.055930	2.151375	0.002905	-0.005777	0.027662	1.000000	0.000040	0.000027	0.000013	-1.341525	-77.347945	-5.769745
18820	9.625291	-0.034165	2.164946	-0.002595	0.016917	0.053117	1.000000	0.000035	0.000007	0.000012	-1.340370	-77.349585	-5.771750
18821	9.631361	-0.064067	2.203554	-0.042388	-0.008145	0.067647	1.000000	0.000023	0.000029	0.000020	-1.344481	-77.348653	-5.768581
18822	9.625080	-0.034507	2.165880	-0.003474	0.016760	0.053117	1.000000	0.000034	0.000031	0.000009	-1.341435	-77.347642	-5.769761
18823	9.625964	-0.053749	2.151187	0.008515	-0.004212	0.050861	1.000000	0.000035	0.000007	0.000012	-1.340235	-77.349257	-5.770640
18824	9.624894	-0.034709	2.166701	-0.004352	0.016603	0.053117	1.000000	0.000028	0.000040	0.000018	-1.342388	-77.347174	-5.768105
18825	9.628807	-0.068872	2.171328	-0.012047	-0.016859	0.058123	1.000000	0.000040	0.000018	0.000010	-1.339211	-77.347620	-5.770404
18826	9.625621	-0.054182	2.152709	0.007195	-0.004450	0.050862	1.000000	0.000005	0.000035	0.000018	-1.343927	-77.346012	-5.769947
18827	9.604379	-0.071876	2.174145	-0.020294	-0.018891	0.034921	1.000000	0.000046	0.000014	0.000014	-1.342257	-77.346824	-5.769986
18828	9.646557	-0.036946	2.132640	0.033372	0.009748	0.066805	1.000000	0.000040	0.000027	0.000013	-1.340699	-77.346137	-5.770751
18829	9.625318	-0.054531	2.154057	0.005882	-0.004690	0.050863	1.000000	0.000028	0.000020	0.000011	-1.339609	-77.346268	-5.772259
18830	9.627331	-0.050300	2.188607	-0.026664	0.003650	0.060372	1.000000	0.000034	0.000017	0.000015	-1.340048	-77.346774	-5.772185
18831	9.600931	-0.057449	2.156694	-0.002359	-0.006722	0.027661	1.000000	0.000028	0.000030	0.000014	-1.340570	-77.345788	-5.772065
18832	9.603869	-0.072546	2.176374	-0.022488	-0.019278	0.034916	1.000000	0.000029	0.000026	0.000025	-1.346205	-77.345223	-5.766143
18833	9.600727	-0.057886	2.157592	-0.003236	-0.006879	0.027661	1.000000	0.000029	0.000011	0.000008	-1.343504	-77.346471	-5.769276
18834	9.624856	-0.055339	2.156101	0.003683	-0.005085	0.050864	1.000000	0.000017	0.000023	0.000013	-1.344552	-77.346307	-5.769398
18835	9.623777	-0.036261	2.171634	-0.009167	0.015739	0.053115	1.000000	0.000040	0.000027	0.000013	-1.342991	-77.345635	-5.770067
18836	9.600468	-0.058253	2.158735	-0.004555	-0.007111	0.027660	1.000000	0.000029	0.000007	0.000018	-1.345457	-77.347317	-5.771204
18837	9.627651	-0.070666	2.176389	-0.017334	-0.017791	0.058114	1.000000	0.000034	0.000027	0.000019	-1.347487	-77.346696	-5.768824
18838	9.598206	-0.062984	2.125329	0.026673	-0.015704	0.018161	1.000000	0.000028	0.000020	0.000011	-1.346438	-77.346828	-5.768781
18839	9.599218	-0.039562	2.175010	-0.018274	0.013561	0.029909	1.000000	0.000034	0.000027	0.000019	-1.348468	-77.346206	-5.766401
18840	9.628349	-0.090260	2.162535	-0.006253	-0.038930	0.055862	1.000000	0.000029	0.000001	0.000004	-1.344235	-77.348602	-5.768621
18841	9.621225	-0.041493	2.139519	0.020305	0.006832	0.043619	1.000000	0.000040	0.000023	0.000023	-1.347774	-77.348345	-5.763978
18842	9.621094	-0.041699	2.140103	0.019865	0.006755	0.043620	1.000000	0.000039	0.000037	0.000016	-1.347921	-77.346566	-5.765112
18843	9.599849	-0.059195	2.161461	-0.007628	-0.007654	0.027658	1.000000	0.000023	0.000004	0.000000	-1.342104	-77.348565	-5.772129
18844	9.647234	-0.034776	2.173112	-0.005766	0.016908	0.076318	1.000000	0.000023	0.000020	0.000017	-1.344645	-77.348755	-5.766296
18845	9.623889	-0.056748	2.160373	-0.001155	-0.005947	0.050864	1.000000	0.000034	0.000031	0.000009	-1.341579	-77.347716	-5.769225
18846	9.623764	-0.056865	2.160929	-0.001596	-0.006022	0.050864	1.000000	0.000034	0.000027	0.000019	-1.343707	-77.347106	-5.770008
18847	9.623647	-0.057144	2.161441	-0.002035	-0.006101	0.050864	1.000000	0.000029	0.000026	0.000025	-1.349329	-77.346534	-5.764577
18848	9.622560	-0.038140	2.176988	-0.014868	0.014736	0.053109	1.000000	0.000040	0.000027	0.000013	-1.347839	-77.345864	-5.765524
18849	9.623447	-0.057407	2.162328	-0.002913	-0.006257	0.050863	1.000000	0.000029	0.000011	0.000008	-1.345144	-77.347110	-5.768652
18850	9.623428	-0.057496	2.162406	-0.003351	-0.006335	0.050863	1.000000	0.000030	-0.000003	0.000015	-1.345992	-77.349885	-5.770147
18851	9.623347	-0.057683	2.162764	-0.003790	-0.006414	0.050863	1.000000	0.000028	0.000040	0.000018	-1.348125	-77.347778	-5.768403
18852	9.623222	-0.057867	2.163313	-0.004233	-0.006489	0.050863	1.000000	0.000034	0.000017	0.000015	-1.348645	-77.348295	-5.769457
18853	9.620103	-0.043028	2.144528	0.015045	0.005881	0.043629	1.000000	0.000039	0.000022	-0.000001	-1.340381	-77.348321	-5.777057
18854	9.622056	-0.038686	2.179204	-0.017498	0.014276	0.053106	1.000000	0.000023	0.000029	0.000020	-1.344565	-77.347399	-5.773286
18855	9.621945	-0.038924	2.179689	-0.017935	0.014197	0.053105	1.000000	0.000052	0.000021	0.000021	-1.346032	-77.347453	-5.769424
18856	9.599619	-0.080016	2.151725	-0.000949	-0.029577	0.025408	1.000000	0.000017	0.000008	-0.000004	-1.338776	-77.349084	-5.780563
18857	9.622785	-0.058224	2.165247	-0.006430	-0.006878	0.050861	1.000000	0.000040	0.000023	0.000023	-1.342323	-77.348824	-5.775915
18858	9.597475	-0.041828	2.182646	-0.026586	0.012115	0.029892	1.000000	0.000039	0.000037	0.000016	-1.342463	-77.347038	-5.774307
18859	9.622549	-0.058647	2.166284	-0.007309	-0.007033	0.050861	1.000000	0.000018	0.000010	0.000019	-1.346949	-77.348385	-5.771337
18860	9.619485	-0.044089	2.147276	0.011978	0.005331	0.043633	1.000000	0.000029	0.000007	0.000018	-1.349447	-77.350042	-5.772254
18861	9.595205	-0.046927	2.149396	0.004205	0.003399	0.020421	1.000000	0.000034	0.000027	0.000019	-1.351483	-77.349416	-5.769869
18862	9.619295	-0.044517	2.148119	0.011105	0.005172	0.043634	1.000000	0.000034	0.000027	0.000019	-1.353546	-77.348774	-5.765038
18863	9.618214	-0.025527	2.163615	-0.001704	0.026019	0.045875	1.000000	0.000040	0.000023	0.000023	-1.357095	-77.348512	-5.760388
18864	9.594911	-0.047620	2.150691	0.002894	0.003164	0.020422	1.000000	0.000029	0.000007	0.000018	-1.359553	-77.350192	-5.753929
18865	9.619053	-0.045195	2.149189	0.009788	0.004934	0.043636	1.000000	0.000017	0.000023	0.000013	-1.360547	-77.350004	-5.754648
18866	9.594728	-0.047842	2.151503	0.002019	0.003005	0.020422	1.000000	0.000039	0.000031	0.000003	-1.353900	-77.348916	-5.756036
18867	9.646029	-0.057504	2.167686	-0.003490	-0.005810	0.074071	1.000000	0.000023	0.000029	0.000020	-1.358013	-77.347975	-5.752868
18868	9.591575	0.009515	2.197575	-0.035959	0.065635	0.027137	1.000000	0.000023	0.000020	0.000017	-1.360528	-77.348131	-5.749476
18869	9.596350	-0.086847	2.122912	0.025447	-0.039093	0.015947	1.000000	0.000034	0.000017	0.000015	-1.360961	-77.348621	-5.748710
18870	9.600440	-0.035143	2.255883	-0.096028	0.028185	0.048787	1.000000	0.000016	0.000027	0.000003	-1.356864	-77.348015	-5.752332
18871	9.614337	-0.054980	2.083642	0.071365	-0.012546	0.024732	1.000000	0.000036	0.000019	0.000039	-1.369107	-77.348217	-5.739319
18872	9.641570	-0.024604	2.165599	0.001689	0.027156	0.069091	1.000000	0.000028	0.000020	0.000011	-1.368066	-77.348329	-5.742063
18873	9.596095	-0.044688	2.188648	-0.033134	0.010958	0.029873	1.000000	0.000029	0.000011	0.000008	-1.365381	-77.349573	-5.745182
18874	9.616261	-0.008054	2.182955	-0.018873	0.046085	0.048111	1.000000	0.000040	0.000018	0.000010	-1.362224	-77.350007	-5.744217
18875	9.650286	-0.111988	2.159928	-0.002017	-0.060738	0.076810	1.000000	0.000034	0.000021	0.000005	-1.357555	-77.350082	-5.748764
18876	9.592857	-0.030007	2.170474	-0.014699	0.023151	0.022658	1.000000	0.000029	0.000017	0.000021	-1.361610	-77.350596	-5.746434
18877	9.616899	-0.070544	2.104852	0.049002	-0.025471	0.031960	1.000000	0.000034	0.000017	0.000015	-1.362046	-77.351085	-5.745665
18878	9.594733	-0.025821	2.205343	-0.047675	0.031510	0.032100	1.000000	0.000034	0.000021	0.000005	-1.357409	-77.351184	-5.749140
18879	9.640926	-0.068214	2.103896	0.055438	-0.023792	0.055182	1.000000	0.000023	0.000026	0.000030	-1.366627	-77.350655	-5.740657
18880	9.656586	-0.024206	2.727506	-0.537499	0.094262	0.206880	1.000000	0.000108	0.000225	-0.000049	-1.323363	-77.327445	-5.775305
18881	9.711320	-0.298548	1.732707	0.405000	-0.299892	0.043640	1.000000	-0.000079	-0.000057	0.000071	-1.365840	-77.336286	-5.744826
18882	9.340222	0.162471	1.710676	0.400624	0.163995	-0.325582	1.000000	0.000032	-0.000069	0.000015	-1.367362	-77.346588	-5.747702
18883	9.771685	0.052678	2.396774	-0.183829	0.128527	0.246279	1.000000	0.000135	0.000039	-0.000005	-1.345367	-77.344596	-5.758085
18884	9.666355	-0.104174	2.075500	0.085253	-0.064258	0.073949	1.000000	0.000033	0.000040	0.000012	-1.343861	-77.342426	-5.759805
18885	9.538142	-0.068522	2.061862	0.075399	-0.027762	-0.054323	1.000000	-0.000013	0.000055	0.000008	-1.345591	-77.338591	-5.763308
18886	9.623759	-0.010372	2.311446	-0.140138	0.058332	0.083605	1.000000	0.000069	0.000015	0.000024	-1.346495	-77.339329	-5.752567
18887	9.615490	-0.114507	2.046826	0.101401	-0.076712	0.018085	1.000000	0.000006	0.000022	0.000024	-1.354661	-77.339239	-5.747198
18888	9.573241	0.065650	2.409917	-0.237113	0.146831	0.055503	1.000000	0.000061	0.000030	-0.000010	-1.338773	-77.338372	-5.759252
18889	9.643462	-0.145861	2.050244	0.100413	-0.108402	0.046283	1.000000	0.000029	0.000017	0.000021	-1.342798	-77.338909	-5.755436
18890	9.615316	-0.028670	2.176422	-0.013486	0.023895	0.045871	1.000000	0.000017	0.000023	0.000013	-1.343799	-77.338692	-5.761117
18891	9.614215	-0.052467	2.127573	0.030514	-0.005676	0.034215	1.000000	0.000040	0.000008	0.000006	-1.339052	-77.340247	-5.765005
18892	9.596936	-0.060987	2.217198	-0.061187	-0.002900	0.037039	1.000000	0.000040	0.000024	0.000023	-1.342614	-77.339987	-5.760255
18893	9.620016	-0.082176	2.166727	-0.009885	-0.030642	0.048607	1.000000	0.000039	0.000022	-0.000000	-1.334370	-77.340008	-5.767836
18894	9.636145	-0.054439	2.092887	0.068602	-0.012640	0.048020	1.000000	0.000033	0.000031	0.000009	-1.331299	-77.338944	-5.771488
18895	9.597550	-0.079995	2.203814	-0.050164	-0.024077	0.034803	1.000000	0.000044	0.000036	-0.000013	-1.315978	-77.337379	-5.785800
18896	9.590501	-0.031066	2.180844	-0.023407	0.021596	0.022644	1.000000	0.000040	0.000014	0.000020	-1.317966	-77.338231	-5.785400
18897	9.641723	-0.083913	2.133045	0.027752	-0.037685	0.062411	1.000000	0.000028	0.000049	0.000021	-1.321706	-77.334994	-5.782037
18898	9.598152	-0.056577	2.254747	-0.095904	0.005218	0.046439	1.000000	0.000017	0.000023	0.000013	-1.322729	-77.334776	-5.784936
18899	9.611320	-0.057257	2.097453	0.059109	-0.014891	0.024810	1.000000	0.000051	0.000015	0.000008	-1.317522	-77.335523	-5.787976
18900	9.600935	-0.071358	2.274773	-0.116546	-0.007311	0.053619	1.000000	0.000033	0.000031	0.000009	-1.314518	-77.334456	-5.793803
18901	9.637355	-0.050109	2.130656	0.033439	-0.004664	0.057453	1.000000	0.000023	0.000004	0.000000	-1.308723	-77.336451	-5.800800
18902	9.593857	-0.065630	2.187718	-0.033462	-0.012206	0.027599	1.000000	0.000012	0.000013	0.000015	-1.311756	-77.337418	-5.803438
18903	9.620031	-0.058699	2.220268	-0.058696	-0.001884	0.060234	1.000000	0.000023	0.000000	0.000010	-1.311060	-77.339827	-5.805126
18904	9.634338	-0.035552	2.111634	0.051901	0.007477	0.050273	1.000000	0.000040	-0.000011	-0.000000	-1.303170	-77.343612	-5.812189
18905	9.616090	-0.024483	2.215965	-0.052112	0.031312	0.055270	1.000000	0.000016	0.000017	-0.000001	-1.297458	-77.344123	-5.819840
18906	9.638247	-0.069492	2.116097	0.043570	-0.026034	0.055236	1.000000	0.000029	-0.000003	0.000015	-1.298250	-77.346851	-5.819104
18907	9.608093	0.000277	2.143628	0.018674	0.047333	0.031499	1.000000	0.000029	0.000017	0.000021	-1.302281	-77.347385	-5.815284
18908	9.638169	-0.069928	2.116438	0.042692	-0.026197	0.055240	1.000000	0.000041	0.000004	0.000016	-1.302658	-77.349345	-5.811538
18909	9.630219	-0.001980	2.108139	0.057190	0.040406	0.045328	1.000000	0.000028	0.000020	0.000011	-1.301586	-77.349464	-5.813032
18910	9.592600	-0.047068	2.203867	-0.049268	0.008147	0.029808	1.000000	0.000023	0.000020	0.000017	-1.304149	-77.349643	-5.812652
18911	9.607793	-0.043380	2.080773	0.073646	-0.003511	0.017661	1.000000	0.000034	0.000021	0.000005	-1.299490	-77.349712	-5.817190
18912	9.611709	-0.034558	2.149375	0.009022	0.013594	0.036460	1.000000	0.000018	0.000006	0.000030	-1.309130	-77.351481	-5.810591
18913	9.633844	-0.036814	2.113868	0.047966	0.006734	0.050294	1.000000	0.000039	0.000037	0.000016	-1.309202	-77.349674	-5.809619
18914	9.633757	-0.036909	2.114264	0.047529	0.006651	0.050296	1.000000	0.000017	0.000004	0.000006	-1.306966	-77.351710	-5.813445
18915	9.614451	-0.049841	2.169581	-0.012076	0.000984	0.043634	1.000000	0.000040	0.000014	0.000020	-1.308935	-77.352556	-5.810395
18916	9.608447	-0.020526	2.131484	0.027068	0.025641	0.029289	1.000000	0.000017	0.000023	0.000013	-1.309935	-77.352356	-5.812730
18917	9.614254	-0.050325	2.170442	-0.012951	0.000828	0.043633	1.000000	0.000017	0.000029	0.000026	-1.317641	-77.351456	-5.806515
18918	9.610193	-0.059747	2.102541	0.050799	-0.016470	0.024853	1.000000	0.000029	0.000017	0.000021	-1.321612	-77.351954	-5.802421
18919	9.611106	-0.036022	2.152048	0.005972	0.013032	0.036463	1.000000	0.000028	0.000024	0.000001	-1.315434	-77.351658	-5.809231
18920	9.612019	-0.055502	2.137398	0.017833	-0.008025	0.034245	1.000000	0.000018	0.000006	0.000030	-1.325010	-77.353396	-5.802691
18921	9.586747	-0.039117	2.154427	-0.002180	0.011060	0.013231	1.000000	0.000028	0.000030	0.000014	-1.325542	-77.352394	-5.802565
18922	9.590559	-0.073227	2.159252	-0.010118	-0.022357	0.018180	1.000000	0.000051	0.000025	0.000011	-1.321883	-77.352004	-5.804000
18923	9.635875	-0.053404	2.137260	0.023800	-0.006459	0.057480	1.000000	0.000033	0.000050	0.000015	-1.322036	-77.348711	-5.803684
18924	9.619359	-0.080967	2.212396	-0.055604	-0.024438	0.057958	1.000000	0.000045	0.000028	0.000007	-1.316922	-77.347953	-5.810087
18925	9.636573	-0.072784	2.123593	0.035213	-0.027602	0.055265	1.000000	0.000046	0.000024	0.000017	-1.316914	-77.347626	-5.808458
18926	9.619104	-0.081134	2.213502	-0.056486	-0.024592	0.057953	1.000000	0.000039	0.000037	0.000016	-1.316995	-77.345832	-5.804079
18927	9.611125	-0.056220	2.141394	0.014769	-0.008589	0.034249	1.000000	0.000045	0.000018	0.000004	-1.310280	-77.346211	-5.809380
18928	9.614936	-0.090223	2.146221	0.006811	-0.042002	0.039195	1.000000	0.000051	0.000034	0.000015	-1.308317	-77.344709	-5.811652
18929	9.614792	-0.047181	2.210867	-0.050284	0.008517	0.053000	1.000000	0.000028	0.000030	0.000014	-1.308852	-77.343704	-5.811524
18930	9.610752	-0.056383	2.143063	0.013457	-0.008829	0.034251	1.000000	0.000051	0.000025	0.000011	-1.305301	-77.343314	-5.812769
18931	9.640722	-0.083394	2.180381	-0.019325	-0.031799	0.071803	1.000000	0.000017	0.000033	0.000016	-1.307898	-77.341996	-5.811872
18932	9.639629	-0.064354	2.195782	-0.032047	-0.010888	0.074016	1.000000	0.000029	0.000017	0.000021	-1.312015	-77.342533	-5.810430
18933	9.641487	-0.103105	2.166403	-0.007934	-0.052938	0.069587	1.000000	0.000033	0.000031	0.000009	-1.308968	-77.341477	-5.813343
18934	9.590975	-0.069697	2.200194	-0.047467	-0.014644	0.027539	1.000000	0.000028	0.000020	0.000011	-1.307987	-77.341605	-5.812481
18935	9.620000	-0.120482	2.188284	-0.035901	-0.067236	0.053502	1.000000	0.000034	0.000021	0.000005	-1.303340	-77.341670	-5.817009
18936	9.593723	-0.084467	2.220249	-0.068160	-0.027127	0.034687	1.000000	0.000028	0.000020	0.000011	-1.302395	-77.341789	-5.822361
18937	9.609043	-0.037582	2.161215	-0.001885	0.011612	0.036466	1.000000	0.000038	0.000025	-0.000011	-1.289061	-77.341389	-5.835242
18938	9.593513	-0.084040	2.221171	-0.069042	-0.027269	0.034680	1.000000	0.000004	0.000024	-0.000009	-1.280442	-77.341188	-5.848634
18939	9.587581	-0.054467	2.182974	-0.029844	-0.002674	0.020377	1.000000	0.000040	0.000008	0.000006	-1.275714	-77.342735	-5.852506
18940	9.604881	-0.003005	2.157974	0.004365	0.044711	0.031528	1.000000	0.000033	0.000025	-0.000005	-1.266100	-77.342362	-5.868135
18941	9.613584	-0.046970	2.216119	-0.055536	0.007640	0.052972	1.000000	0.000028	0.000015	-0.000002	-1.258327	-77.343182	-5.876554
18942	9.628950	-0.000077	2.156913	0.010762	0.046351	0.054769	1.000000	0.000028	0.000015	-0.000002	-1.250673	-77.343997	-5.887640
18943	9.609546	-0.012637	2.212305	-0.048844	0.040821	0.048031	1.000000	0.000034	0.000011	0.000002	-1.244420	-77.345180	-5.893788
18944	9.606532	0.002098	2.193420	-0.029448	0.053073	0.040885	1.000000	0.000040	0.000027	0.000013	-1.242945	-77.344471	-5.897268
18945	9.652931	0.002592	2.156252	0.016721	0.047904	0.078012	1.000000	0.000040	0.000018	0.000010	-1.239820	-77.344897	-5.899522
18946	9.633486	-0.010232	2.211795	-0.042880	0.042389	0.071267	1.000000	0.000040	0.000024	0.000023	-1.243437	-77.344582	-5.895160
18947	9.608271	-0.036850	2.164654	-0.006239	0.010840	0.036465	1.000000	0.000035	-0.000002	0.000009	-1.240684	-77.347299	-5.897613
18948	9.607256	-0.017579	2.179675	-0.018923	0.031766	0.038673	1.000000	0.000046	0.000015	0.000014	-1.239146	-77.348068	-5.899140
18949	9.631462	-0.014999	2.178015	-0.012102	0.033477	0.061914	1.000000	0.000029	-0.000009	0.000001	-1.233262	-77.351542	-5.905490
18950	9.629542	-0.019536	2.143779	0.019553	0.024710	0.052568	1.000000	0.000029	0.000001	0.000005	-1.228987	-77.353842	-5.911530
18951	9.605306	-0.022190	2.145575	0.011862	0.022841	0.029326	1.000000	0.000029	0.000007	0.000018	-1.231424	-77.355489	-5.909323
18952	9.627571	-0.024331	2.109773	0.050763	0.015855	0.043226	1.000000	0.000029	0.000001	0.000005	-1.227169	-77.357840	-5.915575
18953	9.651778	-0.021826	2.108107	0.057579	0.017559	0.066472	1.000000	0.000041	0.000004	0.000016	-1.227546	-77.359799	-5.914135
18954	9.603297	-0.027112	2.111740	0.042648	0.013901	0.019987	1.000000	0.000006	0.000016	0.000011	-1.228903	-77.360341	-5.914536
18955	9.630350	-0.039418	2.129682	0.029622	0.003295	0.050368	1.000000	0.000046	0.000024	0.000017	-1.228910	-77.360008	-5.912895
18956	9.627335	-0.024831	2.110845	0.049030	0.015518	0.043236	1.000000	0.000028	0.000020	0.000011	-1.227772	-77.360098	-5.914868
18957	9.649564	-0.027053	2.075233	0.087922	0.008515	0.057146	1.000000	0.000029	0.000007	0.000018	-1.230212	-77.361743	-5.912658
18958	9.626212	-0.005924	2.126352	0.035920	0.036362	0.045444	1.000000	0.000023	0.000030	0.000020	-1.234339	-77.360785	-5.911159
18959	9.609688	-0.076722	2.137320	0.013016	-0.032132	0.032054	1.000000	0.000028	0.000020	0.000011	-1.233274	-77.360896	-5.912647
18960	9.630877	-0.059683	2.116855	0.039666	-0.018127	0.048171	1.000000	0.000040	0.000033	0.000026	-1.238486	-77.359514	-5.905069
18961	9.628767	-0.021278	2.147241	0.014762	0.023817	0.052578	1.000000	0.000028	0.000030	0.000014	-1.239028	-77.358504	-5.904936
18962	9.633506	-0.074915	2.137390	0.018939	-0.030593	0.055301	1.000000	0.000029	0.000036	0.000028	-1.246239	-77.356782	-5.899171
18963	9.630459	-0.060467	2.118730	0.038348	-0.018376	0.048175	1.000000	0.000040	0.000027	0.000013	-1.244723	-77.356084	-5.899803
18964	9.609007	-0.077893	2.140338	0.010814	-0.032536	0.032055	1.000000	0.000034	0.000037	0.000022	-1.248337	-77.354316	-5.897318
18965	9.657281	-0.072977	2.137674	0.024858	-0.029060	0.078550	1.000000	0.000033	0.000040	0.000012	-1.246900	-77.352134	-5.898608
18966	9.607689	-0.058821	2.156689	-0.002294	-0.011676	0.034257	1.000000	0.000051	0.000035	0.000015	-1.244960	-77.350642	-5.904115
18967	9.607532	-0.058924	2.157384	-0.002732	-0.011755	0.034257	1.000000	0.000039	0.000037	0.000016	-1.245051	-77.348822	-5.903127
18968	9.631598	-0.056431	2.156372	0.004066	-0.010059	0.057505	1.000000	0.000027	0.000034	0.000004	-1.240475	-77.347415	-5.907604
18969	9.608226	-0.078240	2.143831	0.008608	-0.032934	0.032056	1.000000	0.000039	0.000031	0.000003	-1.233856	-77.346301	-5.913548
18970	9.585763	-0.076104	2.180346	-0.031150	-0.026050	0.018126	1.000000	0.000016	0.000037	0.000006	-1.231368	-77.344578	-5.919952
18971	9.631169	-0.056319	2.158292	0.002746	-0.010296	0.057505	1.000000	0.000045	0.000028	0.000007	-1.226279	-77.343827	-5.923617
18972	9.582619	-0.061361	2.162160	-0.012169	-0.013917	0.011006	1.000000	0.000034	0.000021	0.000005	-1.221685	-77.343910	-5.928794
18973	9.608627	-0.054148	2.195125	-0.037448	-0.003481	0.043570	1.000000	0.000033	0.000031	0.000009	-1.218652	-77.342846	-5.931696
18974	9.608498	-0.054012	2.195695	-0.037889	-0.003559	0.043568	1.000000	0.000027	0.000028	-0.000009	-1.207385	-77.342147	-5.941177
18975	9.632620	-0.051395	2.194442	-0.031094	-0.001865	0.066817	1.000000	0.000034	0.000017	0.000015	-1.207854	-77.342618	-5.940382
18976	9.605393	-0.039181	2.177348	-0.018900	0.008567	0.036451	1.000000	0.000038	0.000035	-0.000007	-1.196152	-77.341092	-5.950075
18977	9.605277	-0.038852	2.177866	-0.019337	0.008490	0.036451	1.000000	0.000027	0.000018	-0.000012	-1.183279	-77.341492	-5.963802
18978	9.706717	-0.038373	2.225565	-0.042793	0.011958	0.145877	1.000000	0.000048	0.000085	-0.000002	-1.172425	-77.334231	-5.972938
18979	9.554917	-0.178492	1.957018	0.166876	-0.156392	-0.060461	1.000000	-0.000015	-0.000025	0.000021	-1.181758	-77.339524	-5.968856
18980	9.541506	0.063605	2.482909	-0.315664	0.148381	0.040614	1.000000	0.000034	0.000011	0.000002	-1.175549	-77.340675	-5.978035
18981	9.681218	0.021825	2.306722	-0.120022	0.081819	0.138510	1.000000	0.000096	0.000018	-0.000005	-1.158674	-77.341118	-5.987772
18982	9.595430	-0.061653	2.008932	0.138866	-0.035708	-0.010069	1.000000	0.000018	-0.000006	0.000003	-1.154832	-77.344247	-5.994137
18983	9.568971	0.061411	2.168148	-0.006144	0.106167	-0.001544	1.000000	0.000033	0.000015	-0.000008	-1.143481	-77.345008	-6.005592
18984	9.637805	-0.122830	2.172261	-0.018308	-0.077929	0.067327	1.000000	0.000041	-0.000005	0.000013	-1.142239	-77.348043	-6.007022
18985	9.621366	-0.010925	2.105557	0.056242	0.025394	0.036189	1.000000	0.000006	0.000016	0.000011	-1.143681	-77.348646	-6.008606
18986	9.604650	0.005192	2.244009	-0.079705	0.058638	0.050128	1.000000	0.000064	-0.000001	0.000013	-1.139957	-77.351207	-6.012098
18987	9.604740	-0.038271	2.180244	-0.023681	0.007714	0.036442	1.000000	0.000023	0.000010	0.000014	-1.140871	-77.352485	-6.012166
18988	9.622137	0.012757	2.155086	0.010684	0.054954	0.047685	1.000000	0.000023	0.000020	0.000017	-1.143328	-77.352589	-6.010181
18989	9.650295	-0.062242	2.094252	0.066230	-0.027522	0.062171	1.000000	0.000046	0.000005	0.000011	-1.140135	-77.354491	-6.011772
18990	9.619277	-0.016165	2.072346	0.086149	0.016187	0.026910	1.000000	0.000017	0.000013	0.000009	-1.139521	-77.355413	-6.017769
18991	9.622984	-0.006998	2.140913	0.021569	0.033672	0.045496	1.000000	0.000035	0.000013	0.000026	-1.145104	-77.356296	-6.011655
18992	9.626826	-0.041168	2.145521	0.013431	0.000293	0.050403	1.000000	0.000029	0.000001	0.000005	-1.140778	-77.358648	-6.014526
18993	9.623882	-0.026572	2.126514	0.032881	0.012468	0.043307	1.000000	0.000028	0.000030	0.000014	-1.141331	-77.357632	-6.014385
18994	9.648971	-0.043419	2.110586	0.051838	-0.006900	0.064375	1.000000	0.000039	0.000031	0.000003	-1.134643	-77.356539	-6.016903
18995	9.648847	-0.043474	2.111153	0.051399	-0.006983	0.064377	1.000000	0.000034	0.000027	0.000019	-1.136726	-77.355885	-6.014482
18996	9.650633	-0.038980	2.145704	0.018887	0.001725	0.073663	1.000000	0.000040	0.000014	0.000020	-1.138656	-77.356718	-6.008617
18997	9.651521	-0.058654	2.131355	0.030630	-0.019400	0.071475	1.000000	0.000029	0.000036	0.000028	-1.145931	-77.354993	-6.001534
18998	9.629046	-0.056797	2.167729	-0.009090	-0.012443	0.057499	1.000000	0.000023	0.000020	0.000017	-1.148407	-77.355121	-6.003269
18999	9.625208	-0.066290	2.099855	0.054613	-0.030120	0.038938	1.000000	0.000028	0.000024	0.000001	-1.142239	-77.354811	-6.010069
19000	9.653062	-0.054455	2.166976	-0.002763	-0.010848	0.080757	1.000000	0.000029	0.000026	0.000025	-1.147875	-77.354233	-6.004731
19001	9.623994	-0.047365	2.115667	0.041554	-0.009238	0.041131	1.000000	0.000040	0.000024	0.000023	-1.151490	-77.353941	-6.000030
19002	9.626739	-0.062094	2.135523	0.021215	-0.021563	0.048221	1.000000	0.000039	0.000031	0.000003	-1.144896	-77.352842	-6.006027
19003	9.602367	-0.064707	2.137854	0.013568	-0.023394	0.024961	1.000000	0.000034	0.000037	0.000022	-1.148588	-77.351065	-6.001984
19004	9.601230	-0.045583	2.153298	0.000960	-0.002425	0.027149	1.000000	0.000034	0.000027	0.000019	-1.150630	-77.350403	-5.999807
19005	9.631047	-0.072529	2.190832	-0.032072	-0.025234	0.064580	1.000000	0.000028	0.000030	0.000014	-1.151184	-77.349383	-5.999665
19006	9.626197	-0.062704	2.137948	0.019463	-0.021890	0.048224	1.000000	0.000033	0.000031	0.000009	-1.148106	-77.348287	-6.003399
19007	9.626077	-0.062600	2.138489	0.019023	-0.021970	0.048224	1.000000	0.000033	0.000025	-0.000005	-1.138365	-77.347924	-6.013230
19008	9.627791	-0.057862	2.173268	-0.013492	-0.013229	0.057493	1.000000	0.000028	0.000040	0.000018	-1.140582	-77.345824	-6.012973
19009	9.603411	-0.060575	2.175612	-0.021134	-0.015053	0.034230	1.000000	0.000028	0.000030	0.000014	-1.141139	-77.344804	-6.012830
19010	9.630354	-0.072845	2.193865	-0.034279	-0.025618	0.064572	1.000000	0.000028	0.000030	0.000014	-1.141670	-77.343791	-6.013115
19011	9.602164	-0.041546	2.191501	-0.034172	0.005848	0.036412	1.000000	0.000023	0.000020	0.000017	-1.144199	-77.343944	-6.011557
19012	9.602074	-0.041704	2.191893	-0.034611	0.005773	0.036411	1.000000	0.000028	0.000021	0.000011	-1.143178	-77.344058	-6.013918
19013	9.600138	-0.046537	2.158140	-0.002980	-0.003134	0.027148	1.000000	0.000028	0.000021	0.000011	-1.142129	-77.344160	-6.015394
19014	9.601892	-0.041885	2.192687	-0.035484	0.005623	0.036408	1.000000	0.000028	0.000021	0.000011	-1.141094	-77.344258	-6.020352
19015	9.601800	-0.041908	2.193090	-0.035921	0.005546	0.036406	1.000000	0.000034	0.000021	0.000005	-1.136468	-77.344308	-6.024862
19016	9.602724	-0.061368	2.178618	-0.024209	-0.015591	0.034222	1.000000	0.000040	0.000014	0.000020	-1.138497	-77.345156	-6.021795
19017	9.622048	-0.005571	2.187490	-0.021838	0.040419	0.054777	1.000000	0.000028	0.000011	0.000008	-1.135842	-77.346379	-6.024890
19018	9.598805	-0.027562	2.174415	-0.017320	0.017539	0.029329	1.000000	0.000029	-0.000003	0.000015	-1.136690	-77.349151	-6.026564
19019	9.601614	-0.042341	2.193896	-0.037674	0.005243	0.036400	1.000000	0.000034	0.000017	0.000015	-1.137173	-77.349614	-6.025759
19020	9.625807	-0.039907	2.192388	-0.030921	0.006902	0.059664	1.000000	0.000035	-0.000002	0.000009	-1.134396	-77.352330	-6.026433
19021	9.622954	-0.025333	2.173102	-0.011438	0.019041	0.052593	1.000000	0.000035	0.000008	0.000012	-1.133272	-77.353915	-6.027249
19022	9.599713	-0.047220	2.160013	-0.006922	-0.003839	0.027146	1.000000	0.000040	-0.000002	0.000003	-1.127007	-77.356576	-6.033896
19023	9.624761	-0.020577	2.207394	-0.044377	0.027741	0.061840	1.000000	0.000023	0.000010	0.000014	-1.127930	-77.357849	-6.033957
19024	9.626720	-0.059409	2.177967	-0.020529	-0.014474	0.057479	1.000000	0.000040	0.000008	0.000006	-1.123197	-77.359364	-6.038815
19025	9.596801	-0.032733	2.140990	0.011695	0.008135	0.020079	1.000000	0.000029	-0.000003	0.000015	-1.124046	-77.362122	-6.038215
19026	9.626673	-0.059360	2.178179	-0.021407	-0.014633	0.057477	1.000000	0.000027	0.000018	-0.000012	-1.111122	-77.362519	-6.047471
19027	9.624785	-0.064027	2.144257	0.010219	-0.023572	0.048234	1.000000	0.000041	0.000004	0.000016	-1.111531	-77.364466	-6.046005
19028	9.623751	-0.044721	2.159204	-0.002351	-0.002581	0.050412	1.000000	0.000028	0.000011	0.000008	-1.108864	-77.365653	-6.049830
19029	9.648923	-0.061468	2.143007	0.016529	-0.022000	0.071503	1.000000	0.000033	0.000015	-0.000008	-1.097501	-77.366410	-6.061297
19030	9.599388	-0.046929	2.161464	-0.010410	-0.004471	0.027143	1.000000	0.000034	0.000021	0.000005	-1.092885	-77.366455	-6.063389
19031	9.626374	-0.058928	2.179509	-0.023596	-0.015023	0.057471	1.000000	0.000028	0.000015	-0.000002	-1.085104	-77.367262	-6.071817
19032	9.596383	-0.031989	2.142873	0.008654	0.007575	0.020083	1.000000	0.000027	0.000028	-0.000009	-1.073819	-77.366497	-6.083597
19033	10.776719	-1.243578	-9.124867	11.006559	-2.579962	-1.260122	0.999996	0.001280	-0.002408	0.000304	-1.104717	-77.644237	-5.905396
19034	9.652119	-2.165319	15.663805	-13.345234	-0.522050	3.026196	0.999991	0.001285	0.003987	-0.000825	-0.502078	-77.191742	-6.373421
19035	8.704791	4.644150	-9.190455	11.389236	3.319263	-3.403843	0.999992	0.001195	0.003671	-0.001286	0.278982	-76.773768	-7.038245
19036	10.856597	0.322811	9.235775	-6.514217	1.141139	2.817718	0.999960	-0.004258	-0.007719	0.001656	-1.068595	-77.660036	-6.155818
19037	8.373438	-3.332982	2.218256	-0.758837	-3.225874	-1.143113	0.999994	-0.000214	0.003437	0.000291	-1.204740	-77.268114	-6.045144
19038	9.787901	1.732501	1.130156	1.242295	1.627544	-0.020376	0.999994	0.002573	-0.002275	-0.000423	-0.709491	-77.532171	-6.256381
19039	9.059319	-0.437630	6.517697	-4.407734	0.139020	0.448674	0.999997	-0.001994	0.001654	0.000214	-1.031555	-77.344737	-6.164219
19040	10.335227	0.304516	0.877676	1.439980	0.164572	0.462493	1.000000	0.000451	0.000069	-0.000154	-0.897589	-77.339579	-6.253580
19041	9.809481	-0.280739	1.646905	0.503088	-0.310528	0.120464	1.000000	0.000043	-0.000516	0.000104	-0.946608	-77.400968	-6.201984
19042	9.475965	0.472041	2.564638	-0.371785	0.556958	-0.007298	1.000000	0.000078	-0.000181	-0.000071	-0.899686	-77.424438	-6.247812
19043	9.342019	-0.025422	2.361431	-0.267630	0.041151	-0.180605	1.000000	0.000034	0.000037	0.000022	-0.903424	-77.422655	-6.243726
19044	9.573785	0.010263	2.571403	-0.415851	0.097788	0.091205	1.000000	-0.000088	0.000044	0.000099	-0.960503	-77.419996	-6.200761
19045	9.932111	-0.089054	1.553083	0.635375	-0.131049	0.219558	1.000000	-0.000221	-0.000039	0.000101	-1.034694	-77.426731	-6.154452
19046	9.458833	0.130635	2.158321	-0.026423	0.173154	-0.111437	1.000000	0.000166	0.000004	0.000010	-1.017317	-77.428800	-6.158350
19047	9.652034	-0.246968	1.537729	0.569103	-0.281762	-0.056453	1.000000	0.000025	0.000015	0.000061	-1.042046	-77.429486	-6.133757
19048	9.575909	0.193186	2.527841	-0.351295	0.277832	0.083006	1.000000	0.000083	0.000038	-0.000020	-1.018423	-77.427768	-6.150654
19049	9.543353	-0.181678	1.850507	0.251654	-0.177148	-0.094753	1.000000	0.000127	0.000090	-0.000016	-0.991315	-77.420025	-6.167270
19050	9.627935	0.034453	2.340826	-0.176836	0.094632	0.093753	1.000000	0.000015	0.000076	0.000019	-0.995230	-77.413864	-6.167526
19051	9.611735	0.058467	2.147770	0.010836	0.095446	0.035793	1.000000	0.000015	0.000091	0.000036	-1.007568	-77.405795	-6.156811
19052	9.560537	-0.090138	2.260131	-0.126580	-0.037200	0.010895	1.000000	0.000061	0.000049	-0.000004	-0.994849	-77.402706	-6.168255
19053	9.680668	-0.101644	2.203824	-0.047051	-0.058702	0.115900	1.000000	0.000021	0.000037	0.000000	-0.988739	-77.400902	-6.175734
19054	9.676125	0.063285	2.390907	-0.208420	0.127825	0.151652	1.000000	0.000017	0.000033	0.000016	-0.991369	-77.399631	-6.179651
19055	9.604778	-0.051386	2.253883	-0.105728	-0.000707	0.052565	1.000000	-0.000009	-0.000018	0.000028	-1.003830	-77.404165	-6.171684
19056	9.574046	-0.005723	2.230920	-0.085504	0.042942	0.017381	1.000000	-0.000003	-0.000047	0.000013	-1.007743	-77.412070	-6.174681
19057	9.644085	0.015898	2.205852	-0.044500	0.060172	0.080179	1.000000	0.000020	-0.000031	0.000040	-1.022805	-77.418002	-6.160576
19058	9.616372	0.002772	2.138475	0.012011	0.040514	0.038500	1.000000	-0.000024	-0.000047	0.000059	-1.053008	-77.425836	-6.138397
19059	9.593516	-0.063927	2.060654	0.072748	-0.033510	-0.000474	1.000000	0.000028	-0.000061	0.000058	-1.076717	-77.435199	-6.114513
19060	9.617942	-0.062330	2.058057	0.079462	-0.031889	0.022808	1.000000	0.000032	-0.000037	0.000049	-1.094788	-77.441865	-6.095233
19061	9.647042	-0.114035	2.045882	0.090385	-0.084627	0.048789	1.000000	0.000025	-0.000001	0.000044	-1.111169	-77.444373	-6.079223
19062	9.662789	-0.068498	1.986129	0.156992	-0.046527	0.050987	1.000000	0.000048	0.000003	0.000044	-1.125019	-77.446444	-6.063157
19063	9.648896	-0.154145	2.016821	0.113656	-0.127005	0.044466	1.000000	0.000046	0.000040	0.000034	-1.133454	-77.444256	-6.052862
19064	9.643898	-0.101184	2.027940	0.109007	-0.072734	0.041773	1.000000	0.000051	0.000060	0.000035	-1.141408	-77.439802	-6.042998
19065	9.670715	-0.113525	2.046748	0.095742	-0.083270	0.072083	1.000000	0.000038	0.000051	0.000009	-1.137978	-77.436429	-6.045727
19066	9.649045	-0.130674	2.068961	0.068155	-0.097219	0.055830	1.000000	0.000038	0.000070	0.000016	-1.137702	-77.430897	-6.046712
19067	9.626293	-0.128238	2.106339	0.028506	-0.090055	0.041738	1.000000	0.000024	0.000094	-0.000010	-1.125708	-77.422607	-6.059870
19068	9.627596	-0.079422	2.205710	-0.060217	-0.030007	0.064435	1.000000	0.000025	0.000071	-0.000006	-1.115672	-77.417045	-6.074391
19069	9.620678	-0.030656	2.183086	-0.032775	0.015323	0.052552	1.000000	0.000014	0.000074	-0.000005	-1.107672	-77.411100	-6.084669
19070	9.573745	-0.030824	2.221701	-0.079568	0.020806	0.015168	1.000000	-0.000007	0.000052	0.000012	-1.110846	-77.407662	-6.087524
19071	9.569755	0.002892	2.217906	-0.072094	0.053988	0.010307	1.000000	0.000005	0.000036	0.000017	-1.115488	-77.406011	-6.085881
19072	9.618129	0.007504	2.215035	-0.058253	0.057321	0.056870	1.000000	-0.000005	0.000005	0.000019	-1.122521	-77.407934	-6.085462
19073	9.591271	-0.024598	2.133712	0.010343	0.016493	0.013066	1.000000	-0.000004	0.000002	0.000029	-1.134661	-77.410165	-6.077246
19074	9.591149	0.018436	2.197074	-0.046287	0.067614	0.026566	1.000000	0.000044	-0.000030	0.000050	-1.152455	-77.416059	-6.059906
19075	9.636345	-0.030730	2.061163	0.087849	0.001778	0.041285	1.000000	0.000038	-0.000046	0.000039	-1.165509	-77.423778	-6.045785
19076	9.641084	-0.041037	2.114054	0.035365	-0.001466	0.057478	1.000000	0.000054	-0.000019	0.000042	-1.177733	-77.428424	-6.030249
19077	9.661765	-0.048833	2.043822	0.106169	-0.017811	0.062418	1.000000	0.000077	-0.000015	0.000042	-1.187513	-77.432530	-6.014926
19078	9.662731	-0.068678	2.029153	0.117774	-0.039023	0.060263	1.000000	0.000075	0.000022	0.000032	-1.191789	-77.432515	-6.009773
19079	9.641189	-0.086047	2.050654	0.090203	-0.052938	0.043994	1.000000	0.000092	0.000026	0.000038	-1.197201	-77.431974	-5.997132
19080	9.640860	-0.042616	2.115046	0.033592	-0.001800	0.057484	1.000000	0.000074	0.000055	0.000032	-1.201094	-77.428131	-5.991467
19081	9.637226	-0.096307	1.984030	0.153410	-0.071101	0.025666	1.000000	0.000062	0.000032	0.000013	-1.197121	-77.426911	-5.991965
19082	9.576047	-0.093811	2.180247	-0.048703	-0.043418	0.008652	1.000000	0.000059	0.000098	0.000013	-1.192475	-77.418239	-5.997178
19083	9.564533	-0.035573	2.104348	0.030851	0.005004	-0.019381	1.000000	0.000020	0.000080	0.000003	-1.187576	-77.411531	-6.003594
19084	9.572325	-0.035364	2.227743	-0.085747	0.019804	0.015118	1.000000	0.000008	0.000087	-0.000006	-1.179577	-77.404205	-6.014943
19085	9.569181	-0.020745	2.209925	-0.066181	0.031852	0.008109	1.000000	-0.000009	0.000079	-0.000002	-1.175615	-77.397637	-6.023767
19086	9.570603	-0.015901	2.245595	-0.098678	0.040786	0.017267	1.000000	-0.000020	0.000082	-0.000000	-1.173710	-77.390846	-6.032574
19087	9.571057	0.008229	2.295828	-0.143205	0.070848	0.028578	1.000000	-0.000007	0.000062	0.000015	-1.178434	-77.386220	-6.032318
19088	9.575348	-0.001740	2.350386	-0.195697	0.067675	0.044732	1.000000	-0.000018	0.000045	0.000010	-1.181962	-77.383584	-6.035835
19089	9.597657	-0.004392	2.315300	-0.156954	0.060284	0.058857	1.000000	0.000017	0.000023	0.000013	-1.182955	-77.383365	-6.036564
19090	9.645084	0.019818	2.327012	-0.155186	0.084722	0.107583	1.000000	0.000029	-0.000003	0.000015	-1.183831	-77.386203	-6.037092
19091	9.646127	0.000091	2.312098	-0.143583	0.063522	0.105423	1.000000	0.000025	-0.000017	0.000027	-1.191854	-77.390539	-6.029677
19092	9.645457	-0.024641	2.262805	-0.099943	0.033306	0.094110	1.000000	0.000060	-0.000029	0.000033	-1.198873	-77.396262	-6.022269
19093	9.616835	-0.017783	2.210233	-0.055449	0.034635	0.054667	1.000000	0.000060	-0.000038	0.000030	-1.204348	-77.403065	-6.013335
19094	9.594746	-0.059449	2.181671	-0.038951	-0.009389	0.027067	1.000000	0.000060	-0.000038	0.000030	-1.209802	-77.409909	-6.006501
19095	9.593134	-0.064734	2.146807	-0.007344	-0.018494	0.017917	1.000000	0.000055	-0.000039	0.000036	-1.218888	-77.416759	-5.994501
19096	9.570002	-0.087151	2.133157	-0.002877	-0.041393	-0.007527	1.000000	0.000054	-0.000019	0.000042	-1.231106	-77.421370	-5.979500
19097	9.564569	-0.058426	2.093877	0.036716	-0.017265	-0.021515	1.000000	0.000042	-0.000029	0.000017	-1.231940	-77.427091	-5.977451
19098	9.592604	-0.090392	2.096713	0.035401	-0.048912	0.006620	1.000000	0.000019	0.000002	0.000040	-1.246691	-77.429242	-5.969069
19099	9.617806	-0.107835	2.080438	0.054105	-0.068453	0.027762	1.000000	0.000012	0.000003	0.000012	-1.248078	-77.431322	-5.969975
19100	9.638256	-0.071573	2.074305	0.068776	-0.033625	0.046217	1.000000	0.000006	0.000016	0.000011	-1.249481	-77.431931	-5.974425
19101	9.646468	-0.115283	2.132905	0.008267	-0.069994	0.067188	1.000000	0.000005	0.000020	0.000001	-1.245744	-77.432119	-5.981393
19102	9.689306	-0.081242	2.091358	0.062093	-0.042532	0.099798	1.000000	0.000004	0.000034	-0.000006	-1.238452	-77.430841	-5.992272
19103	9.642496	-0.081076	2.129242	0.015375	-0.036918	0.062350	1.000000	0.000010	0.000021	-0.000005	-1.231119	-77.430981	-6.002291
19104	9.665619	-0.059026	2.142931	0.010024	-0.014177	0.087794	1.000000	0.000015	0.000041	-0.000004	-1.223423	-77.428873	-6.010651
19105	9.618721	-0.058880	2.181164	-0.036688	-0.008554	0.050341	1.000000	0.000015	0.000050	-0.000001	-1.217292	-77.425587	-6.018883
19106	9.614842	-0.024718	2.177057	-0.029126	0.024602	0.045503	1.000000	0.000039	0.000012	-0.000004	-1.207425	-77.426778	-6.025511
19107	9.613002	-0.029569	2.143244	0.002479	0.015468	0.036370	1.000000	0.000028	0.000021	0.000011	-1.206376	-77.426870	-6.026991
19108	9.613921	-0.049094	2.128843	0.014049	-0.005757	0.034222	1.000000	0.000028	0.000011	0.000008	-1.203734	-77.428117	-6.032443
19109	9.607391	-0.000651	2.104854	0.041663	0.039480	0.022407	1.000000	0.000041	0.000004	0.000017	-1.204207	-77.430053	-6.030918
19110	9.636328	-0.051774	2.093392	0.052317	-0.013311	0.048391	1.000000	0.000063	0.000009	0.000017	-1.202212	-77.431520	-6.030456
19111	9.662285	-0.044667	2.126126	0.026946	-0.002656	0.080816	1.000000	0.000030	0.000013	0.000031	-1.211478	-77.432427	-6.021214
19112	9.657735	-0.035487	2.072710	0.078573	0.000273	0.064714	1.000000	0.000041	0.000001	0.000027	-1.217071	-77.434814	-6.014943
19113	9.637191	-0.072293	2.079227	0.062995	-0.034712	0.046252	1.000000	0.000052	0.000018	0.000032	-1.223871	-77.435217	-6.005570
19114	9.657581	-0.036079	2.073417	0.077681	0.000104	0.064721	1.000000	0.000016	0.000037	0.000006	-1.221350	-77.433543	-6.011641
19115	9.613442	-0.050625	2.130970	0.010954	-0.006316	0.034226	1.000000	0.000050	0.000045	0.000018	-1.221026	-77.430880	-6.009771
19116	9.641221	-0.082266	2.134960	0.009577	-0.037960	0.062354	1.000000	0.000027	0.000044	0.000008	-1.217968	-77.428311	-6.016508
19117	9.587046	-0.058088	2.100248	0.035012	-0.017227	0.001810	1.000000	0.000032	0.000054	0.000005	-1.212959	-77.424569	-6.021565
19118	9.585829	-0.038509	2.115988	0.022571	0.003851	0.003956	1.000000	0.000038	0.000055	-0.000001	-1.204471	-77.420830	-6.032511
19119	9.587402	-0.033257	2.150916	-0.009903	0.012858	0.013072	1.000000	0.000032	0.000029	-0.000015	-1.189524	-77.420056	-6.047749
19120	9.583494	0.000852	2.146967	-0.002293	0.046006	0.008245	1.000000	0.000050	0.000054	0.000021	-1.190802	-77.416327	-6.048238
19121	9.616747	-0.059781	2.189825	-0.043781	-0.009764	0.050311	1.000000	0.000039	0.000032	0.000003	-1.184173	-77.415194	-6.054195
19122	9.611877	-0.006321	2.200423	-0.048149	0.044549	0.047626	1.000000	0.000039	0.000038	0.000016	-1.184303	-77.413379	-6.058071
19123	9.588520	-0.028301	2.187808	-0.043698	0.021650	0.022181	1.000000	0.000057	0.000012	0.000013	-1.180761	-77.414450	-6.058713
19124	9.662876	-0.016059	2.217616	-0.054874	0.035662	0.101190	1.000000	0.000051	0.000035	0.000015	-1.178802	-77.412912	-6.065152
19125	9.659265	-0.026144	2.149972	0.008755	0.017367	0.082973	1.000000	0.000034	0.000027	0.000019	-1.180917	-77.412234	-6.062708
19126	9.636641	-0.023815	2.186209	-0.030817	0.024741	0.068778	1.000000	0.000034	0.000027	0.000019	-1.182980	-77.411587	-6.062448
19127	9.636502	-0.024195	2.186819	-0.031255	0.024663	0.068777	1.000000	0.000023	0.000036	0.000034	-1.193870	-77.409878	-6.052305
19128	9.610393	-0.032000	2.154878	-0.006758	0.013813	0.036370	1.000000	0.000005	0.000026	0.000014	-1.196869	-77.409368	-6.053795
19129	9.612963	-0.046645	2.175000	-0.027254	0.001685	0.043332	1.000000	0.000027	0.000044	0.000008	-1.193868	-77.406796	-6.057403
19130	9.591296	-0.063811	2.196668	-0.054848	-0.012093	0.026989	1.000000	0.000006	0.000022	0.000024	-1.202012	-77.406679	-6.053908
19131	9.564246	-0.052092	2.179177	-0.042315	-0.001776	-0.003277	1.000000	0.000029	0.000017	0.000021	-1.206123	-77.407174	-6.050026
19132	9.591101	-0.064457	2.197499	-0.055728	-0.012241	0.026984	1.000000	0.000023	0.000030	0.000020	-1.210251	-77.406200	-6.049632
19133	9.591982	-0.084136	2.183316	-0.044201	-0.033489	0.024842	1.000000	0.000028	0.000021	0.000011	-1.209213	-77.406288	-6.051102
19134	9.561245	-0.038124	2.160969	-0.023571	0.010039	-0.010239	1.000000	0.000028	0.000011	0.000008	-1.206542	-77.407563	-6.053834
19135	9.589903	-0.045239	2.213052	-0.069017	0.008708	0.029114	1.000000	0.000035	-0.000002	0.000009	-1.203880	-77.410262	-6.056209
19136	9.639396	-0.059935	2.195163	-0.043327	-0.009243	0.073582	1.000000	0.000041	-0.000005	0.000013	-1.202711	-77.413360	-6.057560
19137	9.607054	-0.018907	2.138187	0.009357	0.025142	0.029414	1.000000	0.000041	-0.000015	0.000010	-1.200016	-77.417545	-6.059233
19138	9.612518	-0.047855	2.176940	-0.031229	0.000995	0.043320	1.000000	0.000040	-0.000002	0.000003	-1.193807	-77.420244	-6.066608
19139	9.610810	-0.052906	2.142754	0.000362	-0.008227	0.034230	1.000000	0.000035	-0.000006	0.000019	-1.196297	-77.423350	-6.063628
19140	9.659333	-0.048290	2.139418	0.014088	-0.005012	0.080842	1.000000	0.000024	-0.000013	0.000017	-1.199238	-77.427277	-6.065841
19141	9.610858	-0.053354	2.142526	-0.000517	-0.008384	0.034230	1.000000	0.000029	0.000007	0.000018	-1.201759	-77.428897	-6.063562
19142	9.633344	-0.056165	2.106968	0.038149	-0.015969	0.048452	1.000000	0.000029	0.000007	0.000018	-1.204374	-77.430545	-6.062985
19143	9.660282	-0.068472	2.124921	0.024710	-0.026432	0.078709	1.000000	0.000018	0.000000	0.000016	-1.207330	-77.432981	-6.061577
19144	9.633283	-0.056698	2.107233	0.037259	-0.016129	0.048455	1.000000	0.000017	0.000020	0.000023	-1.213489	-77.433225	-6.054236
19145	9.636887	-0.090823	2.112465	0.028686	-0.049419	0.053268	1.000000	0.000028	0.000024	0.000001	-1.207283	-77.432906	-6.061076
19146	9.635838	-0.071297	2.127398	0.016289	-0.028314	0.055403	1.000000	0.000017	0.000004	0.000006	-1.205073	-77.434994	-6.063611
19147	9.633041	-0.056972	2.108333	0.035930	-0.016372	0.048460	1.000000	0.000034	0.000037	0.000022	-1.208787	-77.433185	-6.059555
19148	9.607657	-0.040008	2.125251	0.016471	0.003092	0.027286	1.000000	0.000027	0.000034	0.000004	-1.204234	-77.431746	-6.065609
19149	9.632716	-0.057001	2.109815	0.035049	-0.016534	0.048463	1.000000	0.000026	0.000048	-0.000002	-1.196058	-77.428765	-6.074593
19150	9.611008	-0.073765	2.131621	0.007440	-0.030275	0.032096	1.000000	0.000039	0.000032	0.000003	-1.189382	-77.427684	-6.081482
19151	9.607159	-0.039766	2.127504	0.015148	0.002851	0.027288	1.000000	0.000033	0.000041	0.000012	-1.187940	-77.425468	-6.082785
19152	9.631241	-0.037248	2.126669	0.021774	0.004414	0.050599	1.000000	0.000038	0.000035	-0.000007	-1.176223	-77.423973	-6.092441
19153	9.607597	-0.015119	2.177506	-0.029697	0.033060	0.038491	1.000000	0.000029	0.000017	0.000021	-1.180343	-77.424465	-6.088552
19154	9.608500	-0.034719	2.163259	-0.018202	0.011796	0.036359	1.000000	0.000028	0.000024	0.000001	-1.174206	-77.424172	-6.098034
19155	9.605691	-0.020299	2.144287	0.001453	0.023729	0.029422	1.000000	0.000034	0.000027	0.000019	-1.176330	-77.423489	-6.095583
19156	9.632527	-0.032522	2.162657	-0.012021	0.013279	0.059668	1.000000	0.000028	0.000021	0.000011	-1.175312	-77.423646	-6.097999
19157	9.629729	-0.018199	2.143648	0.007635	0.025208	0.052734	1.000000	0.000034	0.000027	0.000019	-1.177437	-77.422962	-6.095547
19158	9.606388	-0.040332	2.130972	0.012058	0.002299	0.027293	1.000000	0.000040	0.000014	0.000020	-1.179537	-77.423782	-6.097422
19159	9.629577	-0.018623	2.144326	0.006760	0.025049	0.052735	1.000000	0.000040	0.000014	0.000020	-1.181635	-77.424584	-6.094263
19160	9.633198	-0.052819	2.149443	-0.001853	-0.008231	0.057537	1.000000	0.000040	0.000014	0.000020	-1.183708	-77.425391	-6.096423
19161	9.608899	-0.055664	2.151237	-0.009356	-0.009941	0.034224	1.000000	0.000030	0.000009	0.000042	-1.198152	-77.426693	-6.081807
19162	9.633053	-0.053540	2.150075	-0.002735	-0.008387	0.057537	1.000000	0.000039	0.000032	0.000003	-1.191571	-77.425568	-6.092219
19163	9.635618	-0.068090	2.170096	-0.023279	-0.020461	0.064465	1.000000	0.000040	0.000024	0.000023	-1.195265	-77.425242	-6.087452
19164	9.611236	-0.070698	2.172253	-0.030783	-0.022167	0.041150	1.000000	0.000039	0.000038	0.000016	-1.195373	-77.423392	-6.087767
19165	9.632649	-0.053915	2.151878	-0.004056	-0.008624	0.057536	1.000000	0.000033	0.000031	0.000009	-1.192338	-77.422301	-6.090676
19166	9.632494	-0.054038	2.152569	-0.004499	-0.008706	0.057536	1.000000	0.000028	0.000040	0.000018	-1.194406	-77.420142	-6.090876
19167	9.605387	-0.042166	2.135446	0.008112	0.001578	0.027297	1.000000	0.000022	0.000044	0.000013	-1.194985	-77.417611	-6.091450
19168	9.609534	-0.051563	2.189993	-0.044461	-0.001269	0.043269	1.000000	0.000038	0.000055	-0.000001	-1.186409	-77.413848	-6.098848
19169	9.609332	-0.051494	2.190878	-0.044899	-0.001345	0.043267	1.000000	0.000016	0.000037	0.000006	-1.183832	-77.412087	-6.103338
19170	9.584966	-0.053870	2.192949	-0.052398	-0.003045	0.019949	1.000000	0.000016	0.000017	-0.000001	-1.178089	-77.412606	-6.109275
19171	9.608132	-0.032019	2.206389	-0.057686	0.019712	0.045388	1.000000	0.000023	0.000020	0.000017	-1.180644	-77.412736	-6.107698
19172	9.585811	-0.073593	2.178991	-0.041365	-0.024407	0.017820	1.000000	0.000028	0.000011	0.000008	-1.178002	-77.413933	-6.108523
19173	9.584793	-0.054159	2.193697	-0.053708	-0.003273	0.019942	1.000000	0.000029	-0.000003	0.000015	-1.178944	-77.416677	-6.107840
19174	9.630619	-0.035039	2.171099	-0.019933	0.011879	0.059657	1.000000	0.000023	0.000001	0.000010	-1.178341	-77.419100	-6.109762
19175	9.610005	-0.071572	2.177664	-0.035638	-0.023011	0.041131	1.000000	0.000040	0.000014	0.000020	-1.180448	-77.419899	-6.106596
19176	9.604633	-0.042883	2.138821	0.004161	0.000870	0.027300	1.000000	0.000018	0.000000	0.000016	-1.183449	-77.422320	-6.108368
19177	9.633195	-0.050053	2.190996	-0.041366	-0.000328	0.066569	1.000000	0.000052	0.000012	0.000018	-1.183539	-77.423430	-6.105929
19178	9.604570	-0.043208	2.139096	0.003282	0.000712	0.027300	1.000000	0.000040	0.000005	0.000017	-1.184057	-77.425374	-6.106259
19179	9.656706	-0.072556	2.140980	0.008709	-0.029318	0.078728	1.000000	0.000040	0.000005	0.000017	-1.184575	-77.427300	-6.104695
19180	9.631441	-0.055493	2.157236	-0.010673	-0.009800	0.057530	1.000000	0.000046	0.000005	0.000011	-1.181505	-77.429190	-6.105714
19181	9.632385	-0.075109	2.142848	0.000778	-0.031095	0.055408	1.000000	0.000034	0.000018	0.000016	-1.182043	-77.429630	-6.104864
19182	9.628648	-0.041213	2.138305	0.008574	0.002015	0.050620	1.000000	0.000040	0.000018	0.000010	-1.179065	-77.430019	-6.111442
19183	9.605310	-0.063195	2.125618	0.012979	-0.020899	0.025180	1.000000	0.000028	0.000021	0.000011	-1.178031	-77.430100	-6.112910
19184	9.629497	-0.060968	2.124348	0.019580	-0.019364	0.048501	1.000000	0.000029	0.000007	0.000018	-1.180581	-77.431727	-6.110144
19185	9.605180	-0.063604	2.126196	0.012099	-0.021058	0.025181	1.000000	0.000040	0.000024	0.000023	-1.184285	-77.431395	-6.105369
19186	9.629323	-0.061308	2.125126	0.018696	-0.019522	0.048502	1.000000	0.000028	0.000025	0.000001	-1.178128	-77.431096	-6.111550
19187	9.600648	-0.054324	2.073524	0.063363	-0.018515	0.009254	1.000000	0.000022	0.000024	0.000007	-1.175520	-77.430819	-6.115337
19188	9.628122	-0.041776	2.140662	0.005940	0.001540	0.050622	1.000000	0.000022	0.000024	0.000007	-1.172920	-77.430513	-6.117459
19189	9.650599	-0.044436	2.105516	0.044553	-0.006193	0.064924	1.000000	0.000022	0.000028	-0.000003	-1.165149	-77.429830	-6.126611
19190	9.603658	-0.044071	2.143167	-0.001979	-0.000228	0.027300	1.000000	0.000028	0.000021	0.000011	-1.164160	-77.429942	-6.126116
19191	9.650407	-0.044439	2.106395	0.043669	-0.006353	0.064928	1.000000	0.000034	0.000021	0.000005	-1.159536	-77.429975	-6.130628
19192	9.625030	-0.027372	2.123124	0.024308	0.013184	0.043724	1.000000	0.000028	0.000040	0.000018	-1.161761	-77.427853	-6.128984
19193	9.603308	-0.044310	2.144732	-0.003302	-0.000460	0.027300	1.000000	0.000040	0.000018	0.000010	-1.158713	-77.428243	-6.131175
19194	9.624786	-0.027577	2.124227	0.023433	0.013023	0.043726	1.000000	0.000039	0.000038	0.000016	-1.158884	-77.426381	-6.132807
19195	9.602013	-0.024997	2.160646	-0.016049	0.020612	0.029416	1.000000	0.000022	0.000044	0.000013	-1.159464	-77.423845	-6.133382
19196	9.624447	-0.027985	2.125758	0.022558	0.012860	0.043729	1.000000	0.000040	0.000034	0.000026	-1.164746	-77.422385	-6.129376
19197	9.628605	-0.037505	2.179975	-0.030035	0.010115	0.059634	1.000000	0.000039	0.000028	0.000013	-1.163293	-77.421646	-6.129960
19198	9.625840	-0.023224	2.160993	-0.010329	0.021986	0.052739	1.000000	0.000034	0.000027	0.000019	-1.165456	-77.420961	-6.128833
19199	9.625741	-0.023340	2.161432	-0.010767	0.021907	0.052739	1.000000	0.000040	0.000018	0.000010	-1.162413	-77.421350	-6.131019
19200	9.628297	-0.038006	2.181324	-0.031357	0.009886	0.059630	1.000000	0.000041	0.000020	0.000033	-1.171288	-77.421450	-6.120057
19201	9.603307	-0.065382	2.134585	0.005051	-0.022319	0.025184	1.000000	0.000017	0.000023	0.000013	-1.172274	-77.421217	-6.120797
19202	9.628110	-0.038551	2.182141	-0.032230	0.009732	0.059627	1.000000	0.000029	0.000017	0.000021	-1.176379	-77.421677	-6.118555
19203	9.603133	-0.065853	2.135352	0.004175	-0.022479	0.025184	1.000000	0.000051	0.000021	0.000022	-1.178077	-77.421652	-6.114497
19204	9.602021	-0.046407	2.150442	-0.008114	-0.001319	0.027297	1.000000	0.000033	0.000031	0.000009	-1.175113	-77.420514	-6.120402
19205	9.628793	-0.058514	2.168948	-0.021683	-0.011733	0.057510	1.000000	0.000028	0.000021	0.000011	-1.174086	-77.420592	-6.121864
19206	9.628680	-0.058640	2.169446	-0.022127	-0.011813	0.057509	1.000000	0.000028	0.000031	0.000014	-1.174586	-77.419564	-6.120452
19207	9.600687	-0.027225	2.166505	-0.021285	0.019683	0.029408	1.000000	0.000023	0.000020	0.000017	-1.177147	-77.419689	-6.118872
19208	9.627449	-0.039369	2.185042	-0.034863	0.009276	0.059619	1.000000	0.000027	0.000034	0.000004	-1.172581	-77.418264	-6.128290
19209	9.603027	-0.041868	2.187303	-0.042321	0.007603	0.036289	1.000000	0.000016	0.000043	0.000019	-1.176742	-77.415773	-6.125829
19210	9.600280	-0.027482	2.168305	-0.022601	0.019456	0.029405	1.000000	0.000039	0.000012	-0.000004	-1.166940	-77.416902	-6.137962
19211	9.579577	-0.063858	2.175114	-0.038372	-0.015385	0.010845	1.000000	0.000011	0.000023	0.000018	-1.171513	-77.416715	-6.135661
19212	9.627011	-0.039690	2.186963	-0.036610	0.008973	0.059613	1.000000	0.000040	0.000008	0.000007	-1.166880	-77.418178	-6.143413
19213	9.602695	-0.042078	2.188758	-0.044065	0.007303	0.036281	1.000000	0.000028	0.000021	0.000011	-1.165856	-77.418254	-6.144873
19214	9.625240	-0.044990	2.153518	-0.005486	-0.000500	0.050623	1.000000	0.000034	0.000018	0.000016	-1.166555	-77.418709	-6.150729
19215	9.602538	-0.042377	2.189439	-0.044943	0.007163	0.036277	1.000000	0.000040	0.000014	0.000020	-1.168683	-77.419500	-6.147546
19216	9.627755	-0.059667	2.173517	-0.026532	-0.012573	0.057497	1.000000	0.000029	0.000001	0.000005	-1.164460	-77.421830	-6.150435
19217	9.601855	-0.067377	2.141045	-0.001981	-0.023576	0.025182	1.000000	0.000041	0.000011	0.000030	-1.171754	-77.423025	-6.141886
19218	9.625088	-0.045727	2.154181	-0.007247	-0.000813	0.050621	1.000000	0.000029	-0.000003	0.000015	-1.172760	-77.425804	-6.135790
19219	9.623467	-0.050943	2.120085	0.024318	-0.010229	0.041641	1.000000	0.000057	0.000002	0.000009	-1.167705	-77.427988	-6.137967
19220	9.629678	-0.099334	2.144709	-0.004644	-0.055382	0.053277	1.000000	0.000034	0.000008	0.000012	-1.166733	-77.429589	-6.141443
19221	9.625999	-0.065386	2.140013	0.003258	-0.022298	0.048513	1.000000	0.000034	0.000021	0.000005	-1.162118	-77.429618	-6.145948
19222	9.623285	-0.050986	2.120912	0.022985	-0.010467	0.041644	1.000000	0.000022	0.000024	0.000007	-1.159543	-77.429387	-6.150476
19223	9.623182	-0.050958	2.121382	0.022545	-0.010547	0.041645	1.000000	0.000028	0.000025	0.000001	-1.153349	-77.429058	-6.157305
19224	9.623071	-0.051086	2.121879	0.022112	-0.010631	0.041646	1.000000	0.000029	0.000027	0.000025	-1.159022	-77.428372	-6.153179
19225	9.621976	-0.031644	2.136862	0.009850	0.010545	0.043752	1.000000	0.000016	0.000017	-0.000001	-1.153251	-77.428862	-6.160889
19226	9.649736	-0.063163	2.140824	0.008051	-0.021106	0.071847	1.000000	0.000039	0.000032	0.000003	-1.146712	-77.427751	-6.165822
19227	9.619157	-0.017124	2.118259	0.029149	0.022292	0.036889	1.000000	0.000011	0.000017	0.000005	-1.144529	-77.428288	-6.170490
19228	9.624274	-0.046016	2.157810	-0.011651	-0.001587	0.050617	1.000000	0.000028	0.000031	0.000014	-1.145157	-77.427227	-6.174492
19229	9.598295	-0.053590	2.125747	0.012909	-0.012609	0.018315	1.000000	0.000028	0.000025	0.000001	-1.138967	-77.426897	-6.181318
19230	9.620433	-0.012134	2.153846	-0.004154	0.031416	0.045858	1.000000	0.000034	0.000027	0.000019	-1.141151	-77.426190	-6.184271
19231	9.621281	-0.031838	2.139988	0.007221	0.010075	0.043755	1.000000	0.000027	0.000044	0.000008	-1.138140	-77.423600	-6.187891
19232	9.623744	-0.046290	2.160165	-0.013409	-0.001893	0.050615	1.000000	0.000028	0.000021	0.000011	-1.137184	-77.423696	-6.191454
19233	9.599403	-0.048565	2.162050	-0.020846	-0.003549	0.027278	1.000000	0.000050	0.000019	-0.000002	-1.126981	-77.423986	-6.199711
19234	9.622575	-0.026645	2.175450	-0.026088	0.019221	0.052716	1.000000	0.000029	0.000017	0.000021	-1.131156	-77.424441	-6.201721
19235	9.624476	-0.066156	2.146830	-0.002919	-0.023392	0.048511	1.000000	0.000046	0.000031	0.000031	-1.138051	-77.423326	-6.193003
19236	9.623344	-0.046875	2.161936	-0.015158	-0.002202	0.050612	1.000000	0.000034	0.000027	0.000019	-1.140182	-77.422606	-6.193205
19237	9.621680	-0.052262	2.128153	0.016399	-0.011668	0.041656	1.000000	0.000040	0.000005	0.000017	-1.140734	-77.424522	-6.191614
19238	9.623195	-0.047209	2.162590	-0.016040	-0.002356	0.050611	1.000000	0.000028	0.000031	0.000014	-1.141323	-77.423487	-6.190417
19239	9.597243	-0.054855	2.130459	0.008525	-0.013399	0.018319	1.000000	0.000040	0.000018	0.000010	-1.138296	-77.423870	-6.192590
19240	9.647247	-0.045268	2.161999	-0.009926	-0.000935	0.073948	1.000000	0.000018	0.000026	0.000036	-1.151292	-77.423308	-6.184000
19241	9.620276	-0.033625	2.144474	0.002845	0.009291	0.043758	1.000000	0.000028	0.000031	0.000014	-1.151859	-77.422250	-6.183858
19242	9.622731	-0.048026	2.164638	-0.017802	-0.002658	0.050608	1.000000	0.000039	0.000032	0.000003	-1.145305	-77.421135	-6.195423
19243	9.623584	-0.067703	2.150774	-0.006452	-0.024011	0.048508	1.000000	0.000034	0.000037	0.000022	-1.149039	-77.419303	-6.191355
19244	9.597171	-0.031009	2.181979	-0.037465	0.016898	0.029365	1.000000	0.000033	0.000031	0.000009	-1.146083	-77.418256	-6.193592
19245	9.620731	-0.053513	2.132407	0.012864	-0.012296	0.041660	1.000000	0.000022	0.000024	0.000007	-1.143486	-77.417971	-6.197372
19246	9.622183	-0.048291	2.167064	-0.019566	-0.002963	0.050604	1.000000	0.000027	0.000034	0.000004	-1.138907	-77.416500	-6.205217
19247	9.621066	-0.028887	2.182083	-0.031787	0.018240	0.052701	1.000000	0.000023	0.000017	0.000027	-1.146639	-77.417021	-6.198269
19248	9.596695	-0.031286	2.184064	-0.039210	0.016601	0.029359	1.000000	0.000038	0.000035	-0.000007	-1.134945	-77.415474	-6.210577
19249	9.621857	-0.048407	2.168511	-0.020885	-0.003191	0.050601	1.000000	0.000028	0.000011	0.000008	-1.132343	-77.416676	-6.213629
19250	9.623396	-0.043213	2.202749	-0.053315	0.006159	0.059539	1.000000	0.000017	0.000004	0.000006	-1.130224	-77.418702	-6.220075
19251	9.622775	-0.068300	2.154374	-0.009988	-0.024625	0.048503	1.000000	0.000041	0.000021	0.000033	-1.139122	-77.418759	-6.209914
19252	9.594871	-0.036949	2.151078	-0.008967	0.006878	0.020416	1.000000	0.000034	0.000008	0.000012	-1.138148	-77.420323	-6.217139
19253	9.644335	-0.051998	2.133853	0.016326	-0.011363	0.065006	1.000000	0.000034	0.000018	0.000016	-1.138714	-77.420751	-6.216267
