// Start Time: Unknown
// Update Rate: 100.0Hz
// Filter Profile: human (46.1)
// Firmware Version: 4.4.0
PacketCounter	Acc_X	Acc_Y	Acc_Z	FreeAcc_X	FreeAcc_Y	FreeAcc_Z	OriInc_q0	OriInc_q1	OriInc_q2	OriInc_q3	Roll	Pitch	Yaw
25605	1.158114	-0.217278	9.699716	-0.000000	-0.000000	-0.041662	1.000000	-0.000044	0.000022	0.000011	-1.280630	-6.808298	47.644282
25606	1.200345	-0.228163	9.732345	0.000000	-0.000000	-0.003945	1.000000	-0.000039	0.000017	0.000025	-1.340600	-7.030198	47.551250
25607	1.142673	-0.218217	9.719235	-0.027991	-0.024419	-0.024150	1.000000	-0.000046	0.000017	0.000028	-1.313690	-6.918728	47.575555
25608	1.169745	-0.214386	9.739750	-0.015122	-0.002679	-0.000615	1.000000	-0.000039	0.000014	0.000006	-1.318271	-6.917086	47.576210
25609	1.183568	-0.202117	9.688731	-0.010321	0.020352	-0.049867	1.000000	-0.000051	0.000023	0.000015	-1.324341	-6.914604	47.577870
25610	1.169516	-0.230261	9.771370	-0.007608	-0.014075	0.031103	1.000000	-0.000049	0.000017	0.000003	-1.330023	-6.912643	47.578156
25611	1.155882	-0.222655	9.699860	-0.015658	-0.012764	-0.041683	1.000000	-0.000039	0.000028	0.000019	-1.334751	-6.909396	47.580314
25612	1.182171	-0.204896	9.688843	-0.010316	0.020351	-0.049867	1.000000	-0.000049	0.000031	0.000016	-1.340606	-6.905849	47.582107
25613	1.152742	-0.218250	9.759388	-0.027455	-0.014380	0.016918	1.000000	-0.000044	0.000022	0.000011	-1.345739	-6.903208	47.583320
25614	1.193797	-0.201313	9.728904	-0.009772	0.030411	-0.008798	1.000000	-0.000049	0.000031	0.000016	-1.351594	-6.899660	47.585112
25615	1.169105	-0.241106	9.712114	0.004264	-0.012480	-0.027499	1.000000	-0.000041	0.000009	0.000023	-1.356381	-6.898487	47.587716
25616	1.193174	-0.203052	9.728945	-0.009735	0.030398	-0.008798	1.000000	-0.000039	0.000014	0.000006	-1.360963	-6.896845	47.588370
25617	1.165942	-0.222766	9.740018	-0.015036	-0.002743	-0.000615	1.000000	-0.000066	0.000023	0.000022	-1.368520	-6.894126	47.590796
25618	1.192873	-0.219133	9.760562	-0.002166	0.018996	0.022920	1.000000	-0.000037	0.000022	0.000008	-1.372865	-6.891557	47.591606
25619	1.177285	-0.205281	9.748489	-0.021980	0.018656	0.008735	1.000000	-0.000054	0.000014	0.000013	-1.378796	-6.889820	47.593037
25620	1.164287	-0.211752	9.708528	-0.022508	0.008592	-0.032333	1.000000	-0.000049	0.000020	0.000021	-1.384660	-6.887491	47.595453
25621	1.164451	-0.226784	9.740104	-0.014882	-0.002850	-0.000615	1.000000	-0.000054	0.000014	0.000013	-1.390293	-6.885696	47.596847
25622	1.178831	-0.228514	9.720659	-0.002541	0.008826	-0.018148	1.000000	-0.000041	0.000020	0.000018	-1.395284	-6.883394	47.598851
25623	1.178544	-0.229362	9.720674	-0.002424	0.008754	-0.018148	1.000000	-0.000041	0.000009	0.000023	-1.399492	-6.882161	47.601385
25624	1.177547	-0.216351	9.689157	-0.009953	0.020130	-0.049866	1.000000	-0.000057	0.000041	0.000015	-1.406209	-6.877369	47.602961
25625	1.162857	-0.230576	9.740205	-0.014639	-0.003029	-0.000614	1.000000	-0.000042	0.000006	0.000004	-1.410061	-6.876618	47.603342
25626	1.174179	-0.197956	9.717109	-0.029167	0.029786	-0.022981	1.000000	-0.000039	0.000028	0.000019	-1.414816	-6.873390	47.605501
25627	1.188924	-0.213708	9.729237	-0.009114	0.029956	-0.008796	1.000000	-0.000056	0.000020	0.000025	-1.420237	-6.870873	47.608169
25628	1.149085	-0.238786	9.700284	-0.014986	-0.013221	-0.041683	1.000000	-0.000044	0.000012	0.000016	-1.425465	-6.869496	47.610015
25629	1.173651	-0.214857	9.748721	-0.021259	0.018120	0.008738	1.000000	-0.000044	0.000012	0.000016	-1.429221	-6.868043	47.611675
25630	1.173337	-0.215802	9.748738	-0.021259	0.018120	0.008738	1.000000	-0.000049	0.000020	0.000021	-1.435087	-6.865716	47.614089
25631	1.187618	-0.217594	9.729310	-0.008666	0.029580	-0.008795	1.000000	-0.000054	0.000025	0.000008	-1.439442	-6.862746	47.614699
25632	1.160348	-0.237030	9.740350	-0.014008	-0.003536	-0.000614	1.000000	-0.000022	0.000014	0.000024	-1.442235	-6.861085	47.617441
25633	1.156984	-0.203553	9.736733	-0.040519	0.017340	-0.005441	1.000000	-0.000049	0.000017	0.000003	-1.445304	-6.858846	47.617483
25634	1.171526	-0.205454	9.717274	-0.028178	0.029016	-0.022975	1.000000	-0.000065	0.000001	0.000032	-1.453148	-6.858611	47.621191
25635	1.174262	-0.240744	9.720917	-0.000922	0.007570	-0.018147	1.000000	-0.000042	0.000030	0.000013	-1.455222	-6.854888	47.622229
25636	1.183303	-0.202063	9.757331	-0.027253	0.038765	0.018096	1.000000	-0.000047	0.000025	0.000004	-1.460651	-6.852003	47.622668
25637	1.158548	-0.241770	9.740447	-0.012836	-0.004392	-0.000612	1.000000	-0.000041	0.000020	0.000018	-1.462700	-6.849239	47.624372
25638	1.181992	-0.189905	9.725857	-0.034362	0.049864	-0.013616	1.000000	-0.000056	0.000020	0.000025	-1.469427	-6.846872	47.627196
25639	1.172118	-0.230459	9.689490	-0.007600	0.018283	-0.049860	1.000000	-0.000041	0.000009	0.000023	-1.471016	-6.845755	47.629398
25640	1.171783	-0.231344	9.689510	-0.007598	0.018284	-0.049860	1.000000	-0.000047	0.000025	0.000004	-1.476455	-6.842857	47.629834
25641	1.168585	-0.212136	9.717484	-0.026336	0.027666	-0.022966	1.000000	-0.000047	0.000039	0.000018	-1.477985	-6.837634	47.631502
25642	1.180299	-0.193616	9.725990	-0.033326	0.049106	-0.013609	1.000000	-0.000038	0.000006	0.000030	-1.482742	-6.836804	47.634905
25643	1.165304	-0.193707	9.745457	-0.045177	0.036797	0.003931	1.000000	-0.000041	0.000020	0.000018	-1.483134	-6.835327	47.636250
25644	1.182224	-0.215508	9.698107	-0.013508	0.038723	-0.040498	1.000000	-0.000049	0.000020	0.000021	-1.488975	-6.832977	47.638660
25645	1.152361	-0.214955	9.737036	-0.037794	0.014607	-0.005426	1.000000	-0.000041	0.000020	0.000018	-1.489326	-6.832463	47.639733
25646	1.179330	-0.211213	9.757618	-0.024915	0.036334	0.018112	1.000000	-0.000041	0.000020	0.000018	-1.494300	-6.830177	47.641737
25647	1.181468	-0.232160	9.729722	-0.004950	0.025988	-0.008782	1.000000	-0.000040	0.000025	0.000001	-1.493755	-6.827368	47.641177
25648	1.166092	-0.218279	9.717648	-0.024824	0.025691	-0.022957	1.000000	-0.000053	-0.000007	0.000023	-1.500084	-6.828121	47.643907
25649	1.195873	-0.234730	9.710269	0.008006	0.036846	-0.026314	1.000000	-0.000037	0.000022	0.000008	-1.498443	-6.826675	47.643918
25650	1.177609	-0.200567	9.726175	-0.031195	0.046295	-0.013588	1.000000	-0.000039	0.000028	0.000019	-1.503164	-6.823472	47.646079
25651	1.180145	-0.235770	9.729796	-0.003874	0.024448	-0.008778	1.000000	-0.000059	0.000023	0.000018	-1.505395	-6.822108	47.647296
25652	1.164454	-0.221951	9.717761	-0.023754	0.024151	-0.022950	1.000000	-0.000039	0.000028	0.000019	-1.510141	-6.818915	47.649457
25653	1.193949	-0.238382	9.710417	0.009093	0.035320	-0.026309	1.000000	-0.000049	0.000017	0.000003	-1.509818	-6.817938	47.649086
25654	1.161048	-0.203650	9.745762	-0.042439	0.033080	0.003956	1.000000	-0.000044	0.000022	0.000011	-1.515021	-6.815381	47.650311
25655	1.163423	-0.224784	9.717819	-0.022280	0.022680	-0.022943	1.000000	-0.000058	-0.000002	0.000010	-1.515589	-6.815037	47.651354
25656	1.148397	-0.224989	9.737278	-0.034606	0.010991	-0.005410	1.000000	-0.000035	0.000030	0.000009	-1.519687	-6.811539	47.652315
25657	1.190081	-0.221941	9.738433	-0.008628	0.043479	0.000603	1.000000	-0.000044	0.000012	0.000016	-1.517906	-6.811144	47.653490
25658	1.177580	-0.242290	9.729947	-0.001630	0.022042	-0.008771	1.000000	-0.000051	0.000022	0.000015	-1.523953	-6.808524	47.655121
25659	1.203991	-0.224622	9.719046	0.004446	0.054208	-0.016926	1.000000	-0.000046	0.000028	0.000023	-1.522518	-6.806485	47.657057
25660	1.161399	-0.229382	9.717954	-0.020759	0.020788	-0.022936	1.000000	-0.000044	0.000022	0.000011	-1.527654	-6.803894	47.658276
25661	1.176249	-0.245099	9.730037	-0.000276	0.019913	-0.008767	1.000000	-0.000044	0.000012	0.000016	-1.525621	-6.805206	47.659132
25662	1.172892	-0.211777	9.726507	-0.027137	0.041038	-0.013552	1.000000	-0.000044	0.000022	0.000011	-1.530719	-6.802645	47.660357
25663	1.202408	-0.228265	9.719157	0.005560	0.052008	-0.016914	1.000000	-0.000049	0.000020	0.000021	-1.530440	-6.802771	47.661914
25664	1.184678	-0.208537	9.766584	-0.026067	0.050023	0.027533	1.000000	-0.000056	0.000020	0.000025	-1.537064	-6.800468	47.664746
25665	1.186359	-0.215479	9.707155	-0.013129	0.050787	-0.031073	1.000000	-0.000039	0.000028	0.000019	-1.532937	-6.796478	47.667453
25666	1.158524	-0.220790	9.686613	-0.026001	0.029057	-0.054620	1.000000	-0.000037	0.000022	0.000008	-1.537098	-6.793908	47.668261
25667	1.170681	-0.216357	9.726673	-0.024447	0.037695	-0.013532	1.000000	-0.000044	0.000022	0.000011	-1.532520	-6.793398	47.669116
25668	1.170265	-0.217300	9.726702	-0.024413	0.037663	-0.013532	1.000000	-0.000049	0.000020	0.000021	-1.538112	-6.791075	47.671532
25669	1.185049	-0.233140	9.738785	-0.003541	0.036510	0.000634	1.000000	-0.000049	0.000020	0.000021	-1.533943	-6.791075	47.673704
25670	1.169532	-0.219334	9.726744	-0.023387	0.036190	-0.013524	1.000000	-0.000054	0.000014	0.000013	-1.539932	-6.789394	47.675184
25671	1.154410	-0.219762	9.746201	-0.035181	0.022883	0.004014	1.000000	-0.000059	0.000023	0.000018	-1.538246	-6.791672	47.675860
25672	1.183660	-0.222222	9.707333	-0.010510	0.046244	-0.031047	1.000000	-0.000046	0.000004	0.000015	-1.543334	-6.791294	47.677563
25673	1.183869	-0.237315	9.738828	-0.002098	0.033302	0.000646	1.000000	-0.000046	0.000017	0.000028	-1.539284	-6.792518	47.680365
25674	1.167886	-0.209310	9.695308	-0.029520	0.044400	-0.045194	1.000000	-0.000051	0.000022	0.000015	-1.544944	-6.789994	47.682014
25675	1.167832	-0.224366	9.726834	-0.021130	0.032251	-0.013505	1.000000	-0.000036	0.000025	0.000026	-1.543083	-6.786897	47.685424
25676	1.182535	-0.240050	9.738923	-0.001189	0.032468	0.000649	1.000000	-0.000044	0.000022	0.000011	-1.547861	-6.784355	47.686655
25677	1.151703	-0.211188	9.714859	-0.040051	0.030447	-0.027649	1.000000	-0.000039	0.000028	0.000019	-1.542706	-6.783886	47.688914
25678	1.181140	-0.227587	9.707515	-0.007794	0.042369	-0.031027	1.000000	-0.000044	0.000022	0.000011	-1.547429	-6.781355	47.690147
25679	1.163292	-0.207764	9.754975	-0.038449	0.039314	0.013447	1.000000	-0.000046	0.000028	0.000023	-1.544754	-6.778843	47.693186
25680	1.192347	-0.210053	9.716146	-0.013769	0.062681	-0.021611	1.000000	-0.000042	0.000020	0.000018	-1.549200	-6.776581	47.695198
25681	1.165104	-0.229589	9.727039	-0.018557	0.028496	-0.013488	1.000000	-0.000044	0.000012	0.000016	-1.547902	-6.777668	47.695971
25682	1.162173	-0.210507	9.755049	-0.037781	0.038119	0.013455	1.000000	-0.000052	0.000022	0.000015	-1.553409	-6.775103	47.697616
25683	1.179137	-0.232237	9.707649	-0.005984	0.039131	-0.031012	1.000000	-0.000046	0.000017	0.000028	-1.554176	-6.776705	47.698982
25684	1.176179	-0.213100	9.735668	-0.025211	0.048747	-0.004068	1.000000	-0.000042	0.000020	0.000018	-1.558584	-6.774494	47.701002
25685	1.178065	-0.219898	9.676210	-0.012671	0.048631	-0.062677	1.000000	-0.000051	0.000012	0.000020	-1.553460	-6.777986	47.702472
25686	1.175552	-0.215064	9.735700	-0.024300	0.046765	-0.004056	1.000000	-0.000049	0.000020	0.000021	-1.558645	-6.775804	47.704912
25687	1.189980	-0.216785	9.716288	-0.011121	0.056747	-0.021571	1.000000	-0.000054	0.000014	0.000013	-1.554183	-6.778246	47.706285
25688	1.177368	-0.237021	9.707748	-0.004063	0.035228	-0.030996	1.000000	-0.000035	0.000030	0.000009	-1.557539	-6.774931	47.707284
25689	1.161956	-0.222978	9.695716	-0.023289	0.032640	-0.045131	1.000000	-0.000048	-0.000005	0.000013	-1.550948	-6.782946	47.707170
25690	1.203876	-0.220187	9.696905	0.002007	0.065906	-0.039079	1.000000	-0.000052	0.000022	0.000015	-1.556168	-6.780606	47.708852
25691	1.158712	-0.204931	9.723757	-0.040984	0.041080	-0.018164	1.000000	-0.000044	0.000025	0.000030	-1.550511	-6.776395	47.714443
25692	1.170798	-0.200844	9.763841	-0.040265	0.050871	0.022936	1.000000	-0.000059	0.000023	0.000018	-1.556500	-6.773973	47.716530
25693	1.175545	-0.241991	9.707846	-0.000835	0.029196	-0.030975	1.000000	-0.000052	0.000022	0.000015	-1.549428	-6.778110	47.717318
25694	1.199966	-0.218390	9.756502	-0.007088	0.060358	0.019568	1.000000	-0.000034	0.000009	0.000019	-1.552461	-6.777355	47.719589
25695	1.172511	-0.223737	9.735871	-0.019860	0.038505	-0.004010	1.000000	-0.000053	0.000004	0.000018	-1.557445	-6.777107	47.720463
25696	1.157024	-0.209739	9.723855	-0.039662	0.038096	-0.018146	1.000000	-0.000035	0.000030	0.000009	-1.560505	-6.773885	47.721480
25697	1.171382	-0.211351	9.704459	-0.027264	0.048724	-0.035662	1.000000	-0.000058	0.000012	0.000023	-1.562629	-6.776936	47.721988
25698	1.141493	-0.210972	9.743329	-0.051760	0.025081	-0.000620	1.000000	-0.000034	0.000022	0.000033	-1.565886	-6.774607	47.725767
25699	1.185929	-0.228105	9.716524	-0.007404	0.047480	-0.021518	1.000000	-0.000053	0.000004	0.000018	-1.567584	-6.780548	47.725761
25700	1.170547	-0.214248	9.704496	-0.027225	0.047069	-0.035654	1.000000	-0.000049	0.000020	0.000021	-1.572451	-6.778600	47.728241
25701	1.170505	-0.229347	9.735982	-0.017911	0.033737	-0.003989	1.000000	-0.000037	0.000022	0.000008	-1.561962	-6.777239	47.731740
25702	1.184867	-0.230880	9.716588	-0.005517	0.045311	-0.021507	1.000000	-0.000049	0.000020	0.000021	-1.566690	-6.775277	47.734220
25703	1.166812	-0.197007	9.732603	-0.044195	0.053663	-0.008659	1.000000	-0.000051	0.000012	0.000020	-1.566437	-6.776469	47.735328
25704	1.154223	-0.217056	9.724028	-0.037111	0.032084	-0.018115	1.000000	-0.000020	0.000030	0.000002	-1.567628	-6.773402	47.735540
25705	1.211055	-0.228987	9.737306	0.008681	0.065542	0.002090	1.000000	-0.000058	0.000012	0.000023	-1.570994	-6.770100	47.738486
25706	1.183392	-0.234524	9.716681	-0.004140	0.043727	-0.021499	1.000000	-0.000052	0.000022	0.000015	-1.575944	-6.767801	47.740178
25707	1.168168	-0.234751	9.736134	-0.016323	0.030728	-0.003976	1.000000	-0.000034	0.000022	0.000033	-1.574853	-6.770186	47.741748
25708	1.167442	-0.221480	9.704708	-0.023838	0.042061	-0.035623	1.000000	-0.000061	0.000014	0.000017	-1.580908	-6.768835	47.743700
25709	1.167159	-0.222480	9.704719	-0.023668	0.040446	-0.035615	1.000000	-0.000039	0.000014	0.000006	-1.578305	-6.773609	47.742029
25710	1.164278	-0.203432	9.732774	-0.042834	0.049893	-0.008633	1.000000	-0.000054	0.000014	0.000013	-1.583449	-6.772352	47.743581
25711	1.166466	-0.224274	9.704761	-0.023164	0.038792	-0.035607	1.000000	-0.000032	0.000027	0.000016	-1.579724	-6.773957	47.744170
25712	1.166100	-0.225251	9.704783	-0.023064	0.038592	-0.035606	1.000000	-0.000063	0.000009	0.000034	-1.586130	-6.773278	47.748115
25713	1.178219	-0.221140	9.744880	-0.021368	0.046808	0.005517	1.000000	-0.000030	0.000033	-0.000001	-1.578388	-6.772550	47.748720
25714	1.192513	-0.222565	9.725504	-0.008975	0.058361	-0.011995	1.000000	-0.000046	0.000017	0.000028	-1.582725	-6.771011	47.752002
25715	1.162283	-0.207945	9.732917	-0.040527	0.044241	-0.008596	1.000000	-0.000047	0.000014	0.000010	-1.576917	-6.776050	47.752614
25716	1.179658	-0.243733	9.716908	-0.001245	0.034626	-0.021462	1.000000	-0.000044	0.000022	0.000011	-1.580752	-6.774017	47.753933
25717	1.176296	-0.210442	9.713554	-0.027776	0.054745	-0.026099	1.000000	-0.000049	0.000020	0.000021	-1.580950	-6.774806	47.755116
25718	1.190773	-0.212029	9.694156	-0.015383	0.066284	-0.043607	1.000000	-0.000044	0.000011	0.000016	-1.584786	-6.774010	47.757061
25719	1.176015	-0.226611	9.745020	-0.018687	0.041076	0.005548	1.000000	-0.000049	0.000020	0.000021	-1.577161	-6.774594	47.760880
25720	1.175676	-0.227651	9.745037	-0.018563	0.040827	0.005549	1.000000	-0.000054	0.000014	0.000013	-1.581979	-6.773495	47.762459
25721	1.175209	-0.228483	9.745074	-0.018174	0.039302	0.005556	1.000000	-0.000027	0.000033	0.000024	-1.577639	-6.774781	47.763625
25722	1.174277	-0.214891	9.713701	-0.025687	0.050595	-0.026071	1.000000	-0.000039	0.000028	0.000019	-1.580838	-6.772193	47.765897
25723	1.186047	-0.196602	9.722380	-0.031742	0.069989	-0.016559	1.000000	-0.000061	0.000014	0.000017	-1.576069	-6.775506	47.768519
25724	1.170889	-0.197098	9.741814	-0.043889	0.057933	0.000950	1.000000	-0.000052	0.000022	0.000015	-1.580521	-6.773566	47.770271
25727	1.172673	-0.223690	9.724292	-0.062254	0.128892	19.578859	1.000000	-0.000135	0.000072	0.000045	-1.584665	-6.766430	47.777729
25728	1.199174	-0.216507	9.734532	-0.010215	0.068140	-0.002425	1.000000	-0.000058	-0.000002	0.000010	-1.589750	-6.767255	47.779006
25729	1.141694	-0.206279	9.721266	-0.055161	0.032593	-0.022645	1.000000	-0.000039	0.000028	0.000019	-1.585987	-6.771751	47.779275
25730	1.186286	-0.237828	9.725905	-0.002912	0.044531	-0.011919	1.000000	-0.000064	0.000017	0.000010	-1.591659	-6.770479	47.780510
25731	1.170564	-0.209642	9.682490	-0.030700	0.053471	-0.057639	1.000000	-0.000044	0.000011	0.000016	-1.588243	-6.780617	47.778297
25732	1.170230	-0.210602	9.682509	-0.030571	0.053157	-0.057637	1.000000	-0.000052	0.000022	0.000015	-1.592527	-6.778861	47.780079
25733	1.170082	-0.225979	9.713955	-0.022425	0.039910	-0.026013	1.000000	-0.000054	0.000025	0.000008	-1.590031	-6.781255	47.780550
25734	1.181907	-0.207743	9.722653	-0.029269	0.060958	-0.016491	1.000000	-0.000051	0.000012	0.000020	-1.594289	-6.780758	47.782961
25735	1.166405	-0.193717	9.710676	-0.048119	0.058595	-0.030586	1.000000	-0.000039	0.000028	0.000020	-1.585761	-6.782664	47.786903
25736	1.183662	-0.229555	9.694628	-0.008817	0.048901	-0.043497	1.000000	-0.000056	0.000020	0.000025	-1.590565	-6.781253	47.789891
25737	1.181047	-0.225004	9.754139	-0.019067	0.045005	0.015148	1.000000	-0.000044	0.000011	0.000016	-1.582508	-6.782691	47.794236
25738	1.180402	-0.211630	9.722752	-0.026576	0.056253	-0.016455	1.000000	-0.000052	0.000022	0.000015	-1.586569	-6.781019	47.796033
25739	1.152941	-0.231206	9.733503	-0.029704	0.020491	-0.008478	1.000000	-0.000037	0.000025	0.000026	-1.571266	-6.780785	47.803342
25740	1.194552	-0.228344	9.734830	-0.004320	0.053503	-0.002329	1.000000	-0.000047	0.000025	0.000005	-1.574497	-6.778854	47.803952
25741	1.179282	-0.228716	9.754266	-0.016098	0.040072	0.015174	1.000000	-0.000052	0.000022	0.000015	-1.572089	-6.781373	47.804245
25742	1.178564	-0.215385	9.722892	-0.023596	0.051303	-0.016420	1.000000	-0.000049	0.000020	0.000021	-1.575700	-6.780044	47.806835
25743	1.190343	-0.196974	9.731622	-0.028992	0.070041	-0.006851	1.000000	-0.000037	0.000022	0.000008	-1.562650	-6.782645	47.810998
25744	1.162985	-0.216556	9.742347	-0.034087	0.036453	0.001092	1.000000	-0.000054	0.000014	0.000013	-1.566587	-6.781983	47.812654
25745	1.165234	-0.237496	9.714263	-0.014440	0.024743	-0.025948	1.000000	-0.000048	0.000022	0.000040	-1.562136	-6.787181	47.816691
25746	1.191844	-0.219822	9.703591	-0.008977	0.057512	-0.033878	1.000000	-0.000049	0.000017	0.000003	-1.565370	-6.786314	47.817165
25747	1.176599	-0.220032	9.723026	-0.020265	0.044143	-0.016378	1.000000	-0.000032	0.000027	0.000016	-1.558900	-6.785994	47.820187
25748	1.161376	-0.220299	9.742455	-0.032324	0.031882	0.001114	1.000000	-0.000054	0.000014	0.000013	-1.562725	-6.785406	47.821856
25749	1.173496	-0.216383	9.782580	-0.030040	0.039507	0.042277	1.000000	-0.000044	0.000022	0.000011	-1.552792	-6.785648	47.827150
25750	1.190305	-0.223374	9.703699	-0.006059	0.053045	-0.033851	1.000000	-0.000044	0.000011	0.000016	-1.555410	-6.785385	47.829191
25751	1.147994	-0.242372	9.733816	-0.022314	0.006194	-0.008439	1.000000	-0.000047	0.000038	0.000018	-1.548264	-6.783860	47.833489
25752	1.201648	-0.205934	9.712480	-0.011566	0.072130	-0.024260	1.000000	-0.000044	-0.000002	0.000003	-1.550624	-6.785185	47.834021
25753	1.174772	-0.239902	9.754542	-0.006739	0.024996	0.015235	1.000000	-0.000046	0.000017	0.000028	-1.536642	-6.783638	47.843595
25754	1.174048	-0.226404	9.723188	-0.014209	0.036189	-0.016335	1.000000	-0.000039	0.000028	0.000020	-1.538537	-6.781516	47.845958
25755	1.176176	-0.247188	9.695105	0.005292	0.025731	-0.043406	1.000000	-0.000052	0.000022	0.000015	-1.539539	-6.781996	47.846484
25756	1.170547	-0.208473	9.751372	-0.032894	0.044238	0.010747	1.000000	-0.000049	0.000017	0.000003	-1.542364	-6.781145	47.846967
25757	1.172535	-0.214844	9.691890	-0.020176	0.044113	-0.047885	1.000000	-0.000042	0.000019	0.000018	-1.532792	-6.784108	47.850942
25758	1.199786	-0.225908	9.744004	0.000749	0.053486	0.007358	1.000000	-0.000051	0.000012	0.000020	-1.535939	-6.783858	47.853404
25759	1.172316	-0.231185	9.723285	-0.011582	0.029608	-0.016309	1.000000	-0.000045	0.000006	0.000033	-1.529449	-6.790813	47.857115
25760	1.169062	-0.197765	9.720061	-0.038257	0.050260	-0.020782	1.000000	-0.000035	0.000030	0.000009	-1.530523	-6.788523	47.858305
25761	1.171759	-0.247406	9.754717	-0.003054	0.016776	0.015254	1.000000	-0.000064	0.000017	0.000010	-1.532936	-6.787113	47.859298
25762	1.168531	-0.214121	9.751492	-0.029728	0.037429	0.010785	1.000000	-0.000032	0.000017	0.000021	-1.533797	-6.786324	47.861886
25763	1.170871	-0.234815	9.723372	-0.009970	0.027318	-0.016301	1.000000	-0.000051	0.000012	0.000020	-1.534934	-6.785546	47.864757
25764	1.155475	-0.220762	9.711406	-0.029669	0.026642	-0.030373	1.000000	-0.000042	0.000019	0.000018	-1.536900	-6.784421	47.866973
25765	1.197247	-0.217975	9.712761	-0.003603	0.059093	-0.024167	1.000000	-0.000047	0.000014	0.000010	-1.534844	-6.783398	47.869778
25766	1.169892	-0.237613	9.723422	-0.008598	0.025394	-0.016294	1.000000	-0.000049	0.000020	0.000021	-1.537664	-6.782234	47.872404
25767	1.182144	-0.233732	9.763543	-0.006940	0.032388	0.024882	1.000000	-0.000043	0.000001	0.000021	-1.528479	-6.790022	47.876155
25768	1.166389	-0.205174	9.720228	-0.034363	0.043400	-0.020735	1.000000	-0.000043	0.000041	0.000008	-1.530308	-6.786499	47.877140
25769	1.207874	-0.202296	9.721630	-0.007981	0.075606	-0.014515	1.000000	-0.000034	0.000022	0.000033	-1.524713	-6.784319	47.883510
25770	1.153179	-0.226212	9.711553	-0.025935	0.020378	-0.030348	1.000000	-0.000064	0.000017	0.000010	-1.528958	-6.783507	47.884832
25771	1.167898	-0.242203	9.723548	-0.004184	0.018830	-0.016277	1.000000	-0.000034	0.000019	0.000014	-1.518309	-6.781659	47.890514
25774	1.179346	-0.219998	9.721894	-0.040380	0.130598	19.573901	1.000000	-0.000149	0.000048	0.000044	-1.532699	-6.777191	47.895691
25775	1.178510	-0.212370	9.701024	-0.018398	0.050366	-0.038180	1.000000	-0.000049	0.000020	0.000021	-1.533740	-6.778259	47.897149
25776	1.193147	-0.228197	9.713031	0.001837	0.050017	-0.024116	1.000000	-0.000029	0.000025	0.000023	-1.534111	-6.776550	47.899903
25777	1.192737	-0.228992	9.713062	0.002142	0.048990	-0.024111	1.000000	-0.000049	0.000017	0.000003	-1.534416	-6.777878	47.898748
25780	1.167084	-0.220343	9.724516	-0.069287	0.109361	19.577361	1.000000	-0.000142	0.000061	0.000054	-1.548110	-6.771879	47.905030
25781	1.164125	-0.251539	9.723764	-0.001349	0.013643	-0.016267	1.000000	-0.000049	0.000020	0.000021	-1.541160	-6.770778	47.911751
25782	1.175706	-0.218688	9.701224	-0.015791	0.046156	-0.038155	1.000000	-0.000034	0.000019	0.000014	-1.541924	-6.769698	47.913564
25783	1.187525	-0.200305	9.710039	-0.020648	0.065868	-0.028495	1.000000	-0.000049	0.000020	0.000021	-1.532066	-6.765975	47.921829
25784	1.187476	-0.215780	9.741399	-0.012579	0.053593	0.003038	1.000000	-0.000052	0.000009	0.000001	-1.534531	-6.766095	47.922165
25785	1.159897	-0.220853	9.720661	-0.024786	0.031595	-0.020661	1.000000	-0.000034	0.000022	0.000033	-1.533396	-6.762609	47.927283
25786	1.186624	-0.217467	9.741465	-0.011487	0.052541	0.003046	1.000000	-0.000045	0.000033	0.000006	-1.535146	-6.759926	47.928100
25787	1.171347	-0.217880	9.760876	-0.022733	0.037223	0.020538	1.000000	-0.000051	0.000012	0.000020	-1.523607	-6.769656	47.929708
25788	1.173473	-0.224181	9.701369	-0.011022	0.039022	-0.038117	1.000000	-0.000049	0.000017	0.000003	-1.525716	-6.768905	47.930215
25789	1.173143	-0.224996	9.701390	-0.010442	0.037121	-0.038109	1.000000	-0.000032	0.000017	0.000021	-1.519515	-6.772974	47.931207
25790	1.200103	-0.221678	9.722170	0.002867	0.058019	-0.014392	1.000000	-0.000054	0.000014	0.000013	-1.522228	-6.772534	47.932911
25791	1.142419	-0.211220	9.708866	-0.040246	0.021848	-0.034665	1.000000	-0.000040	0.000038	0.000014	-1.507552	-6.771466	47.939918
25792	1.184007	-0.208675	9.710292	-0.014732	0.054653	-0.028415	1.000000	-0.000068	0.000014	0.000020	-1.511888	-6.770991	47.942448
25793	1.156593	-0.228406	9.720881	-0.018656	0.021626	-0.020620	1.000000	-0.000034	0.000022	0.000033	-1.511380	-6.762363	47.950718
25794	1.198050	-0.211011	9.690975	-0.000928	0.066212	-0.045883	1.000000	-0.000037	0.000022	0.000008	-1.511978	-6.760978	47.951755
25795	1.168032	-0.210739	9.729749	-0.024273	0.040469	-0.010927	1.000000	-0.000044	0.000011	0.000016	-1.505288	-6.763799	47.955816
25796	1.155596	-0.230849	9.720941	-0.016952	0.018588	-0.020611	1.000000	-0.000044	0.000011	0.000016	-1.506720	-6.763629	47.957885
25797	1.197396	-0.228093	9.722355	0.008754	0.049539	-0.014349	1.000000	-0.000042	0.000019	0.000018	-1.499734	-6.769948	47.958444
25798	1.179316	-0.194289	9.738620	-0.030031	0.058137	-0.001216	1.000000	-0.000056	0.000020	0.000025	-1.502622	-6.768867	47.961506
25799	1.166614	-0.200064	9.698484	-0.030741	0.047614	-0.042406	1.000000	-0.000048	0.000009	0.000027	-1.504006	-6.771782	47.962583
25800	1.181538	-0.230600	9.741781	-0.002619	0.035378	0.003129	1.000000	-0.000047	0.000025	0.000005	-1.505600	-6.770167	47.963265
25801	1.153656	-0.235548	9.721059	-0.016028	0.011749	-0.020599	1.000000	-0.000029	0.000038	0.000036	-1.502585	-6.776875	47.962502
25802	1.180230	-0.217499	9.710558	-0.010488	0.044377	-0.028357	1.000000	-0.000033	0.000011	-0.000016	-1.502242	-6.776955	47.960857
25803	1.162160	-0.183551	9.726837	-0.047628	0.052641	-0.015207	1.000000	-0.000054	0.000028	0.000027	-1.496326	-6.769853	47.969644
25804	1.179477	-0.233785	9.741955	-0.000342	0.031039	0.003144	1.000000	-0.000035	0.000030	0.000009	-1.496507	-6.767659	47.970864
25805	1.178792	-0.220106	9.710674	-0.007346	0.040721	-0.028339	1.000000	-0.000049	0.000020	0.000022	-1.490422	-6.771465	47.973110
25806	1.178380	-0.221050	9.710703	-0.006994	0.040101	-0.028336	1.000000	-0.000044	0.000022	0.000011	-1.491661	-6.770208	47.974583
25807	1.178071	-0.221995	9.710719	-0.006256	0.038597	-0.028329	1.000000	-0.000048	0.000009	0.000027	-1.488350	-6.772784	47.978168
25808	1.219846	-0.219349	9.712158	0.019277	0.071359	-0.022045	1.000000	-0.000047	0.000025	0.000005	-1.489782	-6.771241	47.978863
25809	1.165063	-0.242992	9.701930	0.002539	0.014646	-0.038045	1.000000	-0.000034	0.000022	0.000033	-1.479512	-6.771785	47.984704
25811	1.174155	-0.205417	9.739015	-0.046413	0.089200	9.810434	1.000000	-0.000098	0.000026	0.000030	-1.487000	-6.770100	47.988278
25812	1.161495	-0.226028	9.730189	-0.015639	0.022400	-0.010852	1.000000	-0.000042	0.000019	0.000018	-1.485773	-6.769492	47.991653
25813	1.205864	-0.242923	9.703428	0.029036	0.045846	-0.031753	1.000000	-0.000034	0.000019	0.000014	-1.485795	-6.768570	47.993500
25814	1.172940	-0.208387	9.739098	-0.021967	0.041851	-0.001112	1.000000	-0.000042	0.000019	0.000018	-1.484901	-6.770368	47.996165
25815	1.187517	-0.209760	9.719749	-0.009444	0.053187	-0.018567	1.000000	-0.000041	0.000009	0.000023	-1.485814	-6.770660	47.999041
25816	1.159881	-0.214801	9.698976	-0.022384	0.030840	-0.042316	1.000000	-0.000049	0.000030	0.000016	-1.487668	-6.770931	47.999343
25817	1.198824	-0.192662	9.728676	-0.015979	0.072885	-0.008818	1.000000	-0.000066	0.000022	0.000022	-1.491436	-6.769651	48.002056
25818	1.186276	-0.212820	9.719834	-0.008849	0.050069	-0.018550	1.000000	-0.000029	0.000011	0.000009	-1.488155	-6.774475	48.000920
25819	1.161517	-0.252016	9.702125	0.005453	0.006884	-0.038037	1.000000	-0.000052	0.000022	0.000015	-1.490160	-6.773269	48.002816
25821	1.179152	-0.217240	9.699817	-0.017669	0.088603	9.734384	1.000000	-0.000076	0.000039	0.000032	-1.497311	-6.770201	48.004934
25822	1.184909	-0.230734	9.751245	-0.000212	0.036519	0.012927	1.000000	-0.000044	0.000022	0.000011	-1.498467	-6.769011	48.006417
25823	1.184497	-0.231607	9.751274	0.000995	0.034497	0.012934	1.000000	-0.000042	0.000019	0.000018	-1.490189	-6.770787	48.012654
25824	1.184053	-0.217956	9.719991	-0.006483	0.045709	-0.018527	1.000000	-0.000052	0.000009	0.000001	-1.491988	-6.771159	48.013032
25825	1.156666	-0.237657	9.730487	-0.011582	0.011448	-0.010827	1.000000	-0.000052	0.000022	0.000015	-1.493799	-6.772628	48.013172
25826	1.183359	-0.219980	9.720030	-0.006043	0.044058	-0.018519	1.000000	-0.000046	0.000017	0.000028	-1.495334	-6.772040	48.016630
25827	1.155627	-0.224991	9.699253	-0.018218	0.022057	-0.042284	1.000000	-0.000045	0.000033	0.000006	-1.494424	-6.767537	48.021539
25828	1.194753	-0.217173	9.760284	-0.003958	0.052197	0.022708	1.000000	-0.000039	0.000017	0.000025	-1.495081	-6.766944	48.024583
25829	1.167046	-0.222163	9.739502	-0.016688	0.028681	-0.001054	1.000000	-0.000049	0.000030	0.000016	-1.491276	-6.771568	48.023458
25830	1.196294	-0.224164	9.700825	0.007968	0.052027	-0.035950	1.000000	-0.000049	0.000019	0.000022	-1.493002	-6.770703	48.026140
25831	1.153697	-0.228588	9.699399	-0.016523	0.017169	-0.042271	1.000000	-0.000035	0.000030	0.000009	-1.488282	-6.770990	48.028002
25832	1.177841	-0.205882	9.748501	-0.022250	0.047143	0.008730	1.000000	-0.000068	0.000014	0.000020	-1.492199	-6.770719	48.030562
25833	1.180333	-0.241185	9.751547	0.004605	0.024683	0.012963	1.000000	-0.000032	0.000017	0.000021	-1.491431	-6.774986	48.029329
25834	1.179750	-0.227314	9.720300	-0.002889	0.035911	-0.018484	1.000000	-0.000039	0.000027	0.000020	-1.492022	-6.773261	48.031770
25835	1.179337	-0.228334	9.720326	-0.001904	0.034173	-0.018478	1.000000	-0.000061	0.000014	0.000017	-1.488035	-6.775278	48.036293
25836	1.163881	-0.214262	9.708429	-0.021541	0.033390	-0.032475	1.000000	-0.000042	0.000030	0.000013	-1.488808	-6.773265	48.037957
25837	1.175700	-0.210603	9.748658	-0.018863	0.040871	0.008766	1.000000	-0.000047	0.000025	0.000005	-1.478999	-6.771497	48.044639
25838	1.162881	-0.216132	9.708508	-0.019384	0.030850	-0.032462	1.000000	-0.000052	0.000022	0.000015	-1.480816	-6.770377	48.046549
25839	1.174936	-0.227109	9.780001	-0.009328	0.024779	0.040219	1.000000	-0.000037	0.000022	0.000008	-1.465701	-6.778030	48.049766
25840	1.162038	-0.217816	9.708571	-0.017722	0.026673	-0.032447	1.000000	-0.000042	0.000019	0.000018	-1.466314	-6.777289	48.052056
25841	1.161865	-0.233319	9.739860	-0.008624	0.012869	-0.001010	1.000000	-0.000044	0.000011	0.000016	-1.458745	-6.779356	48.056562
25842	1.188579	-0.215493	9.729454	-0.003082	0.045443	-0.008639	1.000000	-0.000039	0.000027	0.000020	-1.459065	-6.777701	48.059020
25843	1.188060	-0.216589	9.729493	-0.002548	0.043118	-0.008629	1.000000	-0.000069	0.000025	0.000015	-1.455627	-6.782824	48.062020
25844	1.190359	-0.237364	9.701241	0.016937	0.033209	-0.035879	1.000000	-0.000044	0.000011	0.000016	-1.456382	-6.783056	48.064153
25845	1.160242	-0.222651	9.708676	-0.015303	0.018915	-0.032425	1.000000	-0.000044	0.000011	0.000016	-1.453601	-6.791547	48.061598
25846	1.187164	-0.219490	9.729537	-0.001882	0.039532	-0.008614	1.000000	-0.000042	0.000019	0.000018	-1.454100	-6.790911	48.063905
25847	1.159551	-0.224447	9.708718	-0.015160	0.017652	-0.032422	1.000000	-0.000049	0.000019	0.000022	-1.458931	-6.791945	48.063417
25848	1.156675	-0.220508	9.768274	-0.025994	0.014174	0.026256	1.000000	-0.000054	0.000014	0.000013	-1.460802	-6.791921	48.065188
25849	1.158802	-0.226578	9.708757	-0.013424	0.015146	-0.032415	1.000000	-0.000054	0.000028	0.000027	-1.454254	-6.791166	48.070353
25850	1.185471	-0.208936	9.698376	-0.007889	0.047707	-0.040013	1.000000	-0.000049	0.000017	0.000003	-1.455415	-6.790865	48.070936
25851	1.157992	-0.243128	9.740082	-0.005258	-0.000129	-0.000999	1.000000	-0.000034	0.000033	0.000028	-1.449984	-6.798821	48.069985
25852	1.196781	-0.206112	9.738664	-0.006694	0.053649	0.001252	1.000000	-0.000044	0.000022	0.000011	-1.450654	-6.797964	48.071524
25853	1.154233	-0.210621	9.737185	-0.031213	0.018566	-0.005136	1.000000	-0.000052	0.000022	0.000015	-1.447203	-6.800278	48.074898
25854	1.168846	-0.226840	9.749118	-0.010815	0.017911	0.008846	1.000000	-0.000057	0.000017	0.000007	-1.449186	-6.800041	48.075904
25855	1.207666	-0.189886	9.747714	-0.012584	0.070707	0.011124	1.000000	-0.000030	0.000035	0.000018	-1.445873	-6.803239	48.076384
25856	1.180013	-0.209307	9.758157	-0.017352	0.036668	0.018702	1.000000	-0.000042	0.000019	0.000018	-1.446284	-6.802734	48.078710
25857	1.182268	-0.215260	9.698629	-0.006276	0.038463	-0.039971	1.000000	-0.000058	0.000011	0.000023	-1.449743	-6.806330	48.077550
25858	1.152097	-0.215487	9.737331	-0.030138	0.013578	-0.005125	1.000000	-0.000057	0.000028	0.000001	-1.451716	-6.804925	48.077950
25859	1.193670	-0.198232	9.707640	-0.012278	0.057396	-0.030103	1.000000	-0.000039	0.000017	0.000025	-1.447807	-6.807386	48.078833
25860	1.181162	-0.232914	9.729956	0.002967	0.023429	-0.008562	1.000000	-0.000044	0.000022	0.000011	-1.448431	-6.806617	48.080384
25861	1.165759	-0.218711	9.718077	-0.016167	0.022925	-0.022536	1.000000	-0.000049	0.000019	0.000022	-1.448766	-6.802696	48.085809
25862	1.177587	-0.215268	9.758321	-0.014849	0.031394	0.018725	1.000000	-0.000049	0.000030	0.000016	-1.450029	-6.800958	48.087934
25863	1.176848	-0.201385	9.727139	-0.021778	0.041936	-0.012661	1.000000	-0.000030	0.000035	0.000018	-1.443638	-6.799379	48.091603
25864	1.179031	-0.221976	9.698872	-0.002315	0.032050	-0.039946	1.000000	-0.000068	0.000014	0.000020	-1.447102	-6.799450	48.094216
25865	1.163773	-0.222581	9.718227	-0.014840	0.019181	-0.022526	1.000000	-0.000037	0.000022	0.000008	-1.450214	-6.801981	48.090399
25866	1.178394	-0.223962	9.698904	-0.002351	0.030514	-0.039941	1.000000	-0.000056	0.000006	0.000012	-1.452189	-6.803033	48.092026
25867	1.190478	-0.220505	9.739121	-0.000835	0.038630	0.001325	1.000000	-0.000039	0.000017	0.000025	-1.450207	-6.803562	48.092661
25868	1.175134	-0.206179	9.727245	-0.020478	0.037806	-0.012641	1.000000	-0.000042	0.000019	0.000018	-1.450592	-6.803091	48.094991
25869	1.189625	-0.207574	9.707941	-0.007156	0.049167	-0.030053	1.000000	-0.000052	0.000022	0.000015	-1.448495	-6.798887	48.099992
25870	1.189269	-0.223331	9.739204	0.001147	0.036394	0.001334	1.000000	-0.000052	0.000022	0.000015	-1.449964	-6.798072	48.101950
25871	1.201058	-0.205172	9.748220	-0.004313	0.055651	0.011228	1.000000	-0.000044	0.000022	0.000011	-1.440885	-6.798097	48.107343
25872	1.173440	-0.210005	9.727368	-0.016982	0.033616	-0.012619	1.000000	-0.000042	0.000019	0.000018	-1.441194	-6.797605	48.109672
25873	1.188061	-0.226083	9.739288	0.004914	0.031987	0.001348	1.000000	-0.000046	0.000017	0.000028	-1.431943	-6.795690	48.117636
25874	1.157665	-0.196631	9.715529	-0.034745	0.031087	-0.026565	1.000000	-0.000039	0.000027	0.000020	-1.431952	-6.794261	48.120132
25875	1.145074	-0.231450	9.737793	-0.019731	-0.003371	-0.005089	1.000000	-0.000057	0.000017	0.000007	-1.433252	-6.797189	48.118677
25876	1.156940	-0.213465	9.746805	-0.026296	0.017062	0.004813	1.000000	-0.000056	0.000019	0.000025	-1.435257	-6.796662	48.121828
25877	1.183821	-0.195771	9.736483	-0.020950	0.049493	-0.002694	1.000000	-0.000042	0.000006	0.000004	-1.435705	-6.798921	48.123577
25878	1.174020	-0.235281	9.699166	0.005473	0.018437	-0.039912	1.000000	-0.000042	0.000019	0.000018	-1.435964	-6.798436	48.125908
25879	1.185931	-0.231834	9.739413	0.006583	0.027315	0.001361	1.000000	-0.000049	0.000019	0.000022	-1.440215	-6.796804	48.125921
25880	1.182955	-0.198657	9.736529	-0.020018	0.047690	-0.002683	1.000000	-0.000061	0.000003	0.000022	-1.442731	-6.798117	48.128733
25881	1.155498	-0.203576	9.715644	-0.032691	0.024980	-0.026541	1.000000	-0.000037	0.000022	0.000008	-1.439634	-6.800371	48.129305
25882	1.157755	-0.238650	9.718564	-0.005296	0.003077	-0.022498	1.000000	-0.000039	0.000027	0.000020	-1.439667	-6.798970	48.131803
25883	1.169575	-0.220484	9.727602	-0.012126	0.023073	-0.012582	1.000000	-0.000054	0.000014	0.000013	-1.440720	-6.802022	48.131883
25884	1.166639	-0.202007	9.755949	-0.030786	0.031381	0.014746	1.000000	-0.000051	0.000011	0.000020	-1.442110	-6.802463	48.134458
25885	1.169011	-0.222568	9.727622	-0.011877	0.020926	-0.012576	1.000000	-0.000049	0.000019	0.000022	-1.443223	-6.806784	48.135377
25886	1.183645	-0.238800	9.739522	0.008549	0.020208	0.001377	1.000000	-0.000054	0.000014	0.000013	-1.444843	-6.806950	48.137175
25887	1.180498	-0.205450	9.736687	-0.018971	0.039866	-0.002646	1.000000	-0.000039	0.000027	0.000020	-1.446109	-6.812293	48.133940
25888	1.180245	-0.206438	9.736696	-0.018586	0.039092	-0.002643	1.000000	-0.000058	-0.000002	0.000010	-1.448218	-6.814344	48.135406
25889	1.167656	-0.226454	9.727695	-0.010748	0.016584	-0.012567	1.000000	-0.000033	0.000038	0.000011	-1.443065	-6.812270	48.139947
25890	1.194210	-0.208620	9.717451	-0.005238	0.049127	-0.020034	1.000000	-0.000048	0.000022	0.000040	-1.444410	-6.811514	48.144836
25891	1.178953	-0.224060	9.768001	-0.008578	0.022824	0.028724	1.000000	-0.000057	0.000017	0.000007	-1.439310	-6.815530	48.146186
25892	1.178627	-0.210286	9.736810	-0.016142	0.034132	-0.002620	1.000000	-0.000044	0.000011	0.000016	-1.439784	-6.816078	48.148363
25893	1.193136	-0.211576	9.717519	-0.004351	0.044644	-0.020012	1.000000	-0.000042	0.000030	0.000013	-1.439701	-6.820858	48.146392
25894	1.162891	-0.211619	9.756192	-0.028134	0.019577	0.014785	1.000000	-0.000044	0.000011	0.000016	-1.440178	-6.821442	48.148573
25895	1.162620	-0.197872	9.725000	-0.035043	0.029862	-0.016548	1.000000	-0.000058	0.000011	0.000023	-1.435424	-6.823895	48.152942
25896	1.192192	-0.214513	9.717570	-0.002533	0.041252	-0.019996	1.000000	-0.000042	0.000019	0.000018	-1.435626	-6.823566	48.155294
25897	1.146933	-0.199316	9.744373	-0.045357	0.015691	0.000859	1.000000	-0.000039	0.000027	0.000020	-1.429516	-6.820332	48.163258
25898	1.164297	-0.234809	9.727900	-0.005879	0.005907	-0.012550	1.000000	-0.000036	0.000000	0.000018	-1.429062	-6.822156	48.165640
25899	1.176306	-0.216612	9.736952	-0.012027	0.026321	-0.002590	1.000000	-0.000052	0.000022	0.000015	-1.428610	-6.819688	48.171246
25900	1.175790	-0.217634	9.736992	-0.011630	0.025528	-0.002587	1.000000	-0.000049	0.000030	0.000017	-1.429641	-6.818090	48.173395
25901	1.175217	-0.203788	9.705846	-0.019392	0.036096	-0.033913	1.000000	-0.000044	0.000025	0.000030	-1.428044	-6.821158	48.175481
25902	1.192500	-0.254311	9.720559	0.028058	0.014197	-0.016004	1.000000	-0.000054	0.000014	0.000013	-1.429543	-6.821427	48.177295
25903	1.171840	-0.186321	9.734260	-0.037557	0.043002	-0.006542	1.000000	-0.000046	0.000017	0.000028	-1.427977	-6.823308	48.180277
25904	1.189174	-0.221903	9.717774	0.001919	0.033229	-0.019966	1.000000	-0.000039	0.000014	0.000006	-1.427709	-6.823623	48.181273
25905	1.171286	-0.188034	9.734294	-0.036489	0.041165	-0.006530	1.000000	-0.000044	0.000011	0.000016	-1.425932	-6.824169	48.184691
25906	1.188538	-0.223743	9.717810	0.002988	0.031395	-0.019960	1.000000	-0.000054	0.000027	0.000027	-1.427593	-6.822884	48.188035
25907	1.155459	-0.189661	9.753678	-0.047044	0.027197	0.010873	1.000000	-0.000047	0.000025	0.000005	-1.424252	-6.819992	48.192953
25908	1.175348	-0.244809	9.708812	0.011463	0.008441	-0.029937	1.000000	-0.000049	0.000019	0.000022	-1.425255	-6.819635	48.195715
25909	1.169557	-0.206882	9.765604	-0.025692	0.025206	0.024811	1.000000	-0.000052	0.000022	0.000015	-1.422661	-6.818837	48.200482
25910	1.184035	-0.193410	9.715146	-0.021221	0.048727	-0.023889	1.000000	-0.000044	0.000022	0.000011	-1.422991	-6.818194	48.202055
25911	1.171452	-0.228311	9.737270	-0.004638	0.014009	-0.002558	1.000000	-0.000054	0.000014	0.000013	-1.416663	-6.816322	48.209537
25912	1.183245	-0.195287	9.715205	-0.019196	0.046517	-0.023874	1.000000	-0.000035	0.000030	0.000009	-1.415836	-6.814761	48.210870
25913	1.173446	-0.234810	9.677745	0.006471	0.015764	-0.061248	1.000000	-0.000063	-0.000005	0.000020	-1.422330	-6.819216	48.209419
25914	1.182826	-0.212126	9.746387	-0.011109	0.032936	0.007442	1.000000	-0.000034	0.000022	0.000033	-1.421739	-6.818554	48.213499
25915	1.182363	-0.213037	9.746424	-0.010183	0.030835	0.007450	1.000000	-0.000054	0.000025	0.000008	-1.415758	-6.821219	48.216494
25916	1.181974	-0.199190	9.715280	-0.017780	0.042193	-0.023851	1.000000	-0.000047	0.000014	0.000010	-1.416276	-6.821512	48.217901
25917	1.169486	-0.234028	9.737371	-0.002145	0.006625	-0.002550	1.000000	-0.000044	0.000011	0.000016	-1.409784	-6.827409	48.221269
25918	1.196410	-0.216257	9.727160	0.003348	0.039155	-0.009920	1.000000	-0.000047	0.000014	0.000010	-1.410269	-6.827729	48.222680
25919	1.166182	-0.201544	9.734637	-0.029104	0.026358	-0.006454	1.000000	-0.000044	0.000022	0.000011	-1.414776	-6.829070	48.220426
25920	1.180708	-0.202947	9.715356	-0.016650	0.037742	-0.023831	1.000000	-0.000056	0.000019	0.000025	-1.416586	-6.828743	48.223607
25921	1.195180	-0.219177	9.727246	0.003779	0.036232	-0.009909	1.000000	-0.000039	0.000027	0.000020	-1.413757	-6.830799	48.222697
25922	1.164980	-0.204369	9.734722	-0.027924	0.023200	-0.006443	1.000000	-0.000042	0.000006	0.000004	-1.413615	-6.832086	48.223530
25923	1.179583	-0.220513	9.746594	-0.006968	0.022044	0.007476	1.000000	-0.000047	0.000027	0.000023	-1.410756	-6.830480	48.228344
25924	1.179146	-0.221405	9.746627	-0.006560	0.021224	0.007478	1.000000	-0.000039	0.000016	0.000025	-1.410557	-6.830507	48.231486
25925	1.193782	-0.222656	9.727338	0.006296	0.033121	-0.009899	1.000000	-0.000047	0.000014	0.000010	-1.411256	-6.827034	48.235401
25926	1.166250	-0.227445	9.706402	-0.006393	0.011153	-0.033835	1.000000	-0.000052	0.000022	0.000015	-1.412387	-6.826416	48.237392
25927	1.178047	-0.224239	9.746695	-0.005140	0.019098	0.007483	1.000000	-0.000044	0.000022	0.000011	-1.412873	-6.827451	48.237448
25928	1.162605	-0.209778	9.734890	-0.024796	0.018273	-0.006424	1.000000	-0.000032	0.000030	0.000035	-1.411985	-6.825922	48.241707
25929	1.192120	-0.226319	9.727458	0.008021	0.029099	-0.009887	1.000000	-0.000060	0.000006	-0.000014	-1.409995	-6.828537	48.241088
25930	1.176967	-0.212104	9.715615	-0.011635	0.028275	-0.023792	1.000000	-0.000046	0.000016	0.000028	-1.410669	-6.828538	48.244638
25931	1.188730	-0.208932	9.755916	-0.010401	0.036231	0.017532	1.000000	-0.000049	0.000030	0.000017	-1.412027	-6.828609	48.245713
25932	1.163852	-0.233009	9.706558	-0.004096	0.005356	-0.033829	1.000000	-0.000037	0.000011	0.000013	-1.411409	-6.829271	48.247493
25933	1.175795	-0.214758	9.715698	-0.011133	0.025703	-0.023784	1.000000	-0.000042	0.000019	0.000018	-1.413680	-6.830763	48.247502
25934	1.202583	-0.211831	9.736694	0.002376	0.046022	0.000170	1.000000	-0.000042	0.000019	0.000018	-1.413719	-6.830494	48.249863
25935	1.162630	-0.250511	9.737781	0.005851	-0.009413	-0.002553	1.000000	-0.000052	0.000033	0.000010	-1.409154	-6.824627	48.256443
25936	1.174439	-0.217616	9.715799	-0.008740	0.023127	-0.023775	1.000000	-0.000054	0.000014	0.000013	-1.410507	-6.824936	48.258262
25937	1.171223	-0.199083	9.744272	-0.027667	0.030771	0.003652	1.000000	-0.000029	0.000038	0.000036	-1.409151	-6.825773	48.258861
25938	1.173386	-0.219449	9.715885	-0.008264	0.021052	-0.023770	1.000000	-0.000064	0.000017	0.000010	-1.411607	-6.825777	48.260313
25939	1.185190	-0.216274	9.756187	-0.006083	0.028205	0.017562	1.000000	-0.000029	0.000024	0.000023	-1.403608	-6.826217	48.266321
25940	1.169812	-0.201834	9.744385	-0.025742	0.027383	0.003667	1.000000	-0.000052	0.000022	0.000015	-1.404694	-6.825626	48.268315
25941	1.172031	-0.222156	9.715987	-0.006139	0.017554	-0.023762	1.000000	-0.000039	0.000027	0.000020	-1.403085	-6.824167	48.271747
25942	1.183843	-0.204008	9.725163	-0.012689	0.037855	-0.013693	1.000000	-0.000046	0.000016	0.000028	-1.403722	-6.824180	48.275297
25943	1.156465	-0.223699	9.735312	-0.017110	0.002348	-0.006391	1.000000	-0.000051	0.000000	0.000025	-1.398657	-6.830930	48.279205
25944	1.171113	-0.225074	9.716030	-0.004673	0.013766	-0.023755	1.000000	-0.000049	0.000030	0.000017	-1.399472	-6.829438	48.281374
25945	1.170652	-0.226058	9.716063	-0.004518	0.012453	-0.023753	1.000000	-0.000050	0.000017	0.000003	-1.399349	-6.832645	48.280509
25946	1.170368	-0.212086	9.684953	-0.012162	0.023885	-0.055006	1.000000	-0.000046	0.000016	0.000028	-1.399958	-6.832697	48.284066
25947	1.169939	-0.227954	9.716105	-0.004258	0.010230	-0.023751	1.000000	-0.000045	0.000022	0.000011	-1.400421	-6.836852	48.280866
25948	1.181676	-0.194812	9.694185	-0.018866	0.042782	-0.044916	1.000000	-0.000037	0.000035	0.000021	-1.399899	-6.834796	48.283581
25949	1.181009	-0.225538	9.756484	-0.001629	0.018027	0.017587	1.000000	-0.000045	0.000022	0.000011	-1.399364	-6.828786	48.291022
25950	1.180574	-0.226433	9.756516	-0.001213	0.017195	0.017589	1.000000	-0.000045	0.000022	0.000011	-1.399541	-6.828241	48.292610
25951	1.180246	-0.212489	9.725418	-0.008675	0.028166	-0.013656	1.000000	-0.000057	0.000017	0.000007	-1.398377	-6.829624	48.294262
25952	1.182595	-0.247760	9.728098	0.018783	0.006207	-0.009861	1.000000	-0.000036	0.000014	0.000031	-1.397877	-6.829997	48.298186
25953	1.152485	-0.218039	9.704455	-0.020568	0.004799	-0.037629	1.000000	-0.000050	0.000017	0.000003	-1.394345	-6.831198	48.301063
25954	1.179309	-0.215281	9.725470	-0.007033	0.025058	-0.013646	1.000000	-0.000046	0.000016	0.000028	-1.394931	-6.831255	48.304620
25955	1.181741	-0.235570	9.697023	0.012567	0.015322	-0.041103	1.000000	-0.000044	0.000011	0.000016	-1.393910	-6.831395	48.306842
25956	1.178779	-0.217126	9.725494	-0.005987	0.023326	-0.013641	1.000000	-0.000047	0.000014	0.000010	-1.394294	-6.831778	48.308259
25957	1.193361	-0.218390	9.706232	0.007776	0.034091	-0.030994	1.000000	-0.000044	0.000024	0.000030	-1.386028	-6.828611	48.320667
25958	1.165787	-0.237983	9.716363	0.003162	-0.000124	-0.023745	1.000000	-0.000044	0.000011	0.000016	-1.386151	-6.829286	48.322863
25959	1.192599	-0.220172	9.706285	0.008724	0.032810	-0.030991	1.000000	-0.000042	0.000030	0.000013	-1.387106	-6.825706	48.325491
25960	1.162302	-0.205498	9.713780	-0.022941	0.019717	-0.027506	1.000000	-0.000054	0.000014	0.000013	-1.388339	-6.826048	48.327316
25961	1.191706	-0.221972	9.706354	0.009486	0.031646	-0.030988	1.000000	-0.000027	0.000032	0.000025	-1.389008	-6.822402	48.329728
25962	1.176176	-0.237553	9.756783	0.006002	0.006232	0.017600	1.000000	-0.000061	0.000017	0.000035	-1.391332	-6.822389	48.334100
25963	1.175915	-0.223685	9.725692	-0.001341	0.018592	-0.013629	1.000000	-0.000046	0.000016	0.000028	-1.393960	-6.817238	48.339154
25964	1.175533	-0.224615	9.725717	-0.000915	0.017765	-0.013627	1.000000	-0.000045	0.000022	0.000011	-1.394100	-6.816641	48.340735
25965	1.175046	-0.225543	9.725754	0.000589	0.017141	-0.013626	1.000000	-0.000047	0.000027	0.000023	-1.390682	-6.810301	48.350329
25966	1.204522	-0.242192	9.718313	0.033103	0.028585	-0.017116	1.000000	-0.000051	0.000011	0.000020	-1.391702	-6.810887	48.352922
25967	1.171725	-0.193246	9.723172	-0.025565	0.037271	-0.017366	1.000000	-0.000049	0.000019	0.000022	-1.394901	-6.807454	48.356579
25968	1.186178	-0.209536	9.735021	-0.005039	0.036430	-0.003497	1.000000	-0.000047	0.000025	0.000005	-1.395260	-6.806510	48.357376
25969	1.176178	-0.248848	9.697368	0.020668	0.004413	-0.041106	1.000000	-0.000052	0.000022	0.000015	-1.394012	-6.814081	48.355000
25970	1.170554	-0.196129	9.723256	-0.024918	0.033502	-0.017351	1.000000	-0.000039	0.000006	0.000030	-1.393714	-6.815316	48.358742
25971	1.187956	-0.231725	9.706586	0.014536	0.023155	-0.030970	1.000000	-0.000054	0.000014	0.000013	-1.392305	-6.818778	48.359227
25972	1.184882	-0.213471	9.735094	-0.003988	0.031116	-0.003478	1.000000	-0.000052	0.000022	0.000015	-1.393304	-6.818173	48.361219
25973	1.154667	-0.198814	9.742583	-0.035536	0.017959	0.000015	1.000000	-0.000047	0.000014	0.000010	-1.392987	-6.818322	48.363100
25974	1.184274	-0.215450	9.735124	-0.003025	0.029402	-0.003473	1.000000	-0.000051	0.000011	0.000020	-1.394002	-6.818942	48.365697
25975	1.141750	-0.219674	9.733406	-0.027724	-0.005060	-0.010125	1.000000	-0.000035	0.000030	0.000010	-1.391981	-6.818668	48.366170
25976	1.198413	-0.217378	9.715913	0.009805	0.039776	-0.020816	1.000000	-0.000036	0.000014	0.000031	-1.391430	-6.818998	48.370087
25977	1.168151	-0.217784	9.754481	-0.012788	0.014295	0.013886	1.000000	-0.000064	0.000017	0.000010	-1.389483	-6.815468	48.375626
25978	1.167816	-0.203798	9.723427	-0.020478	0.025806	-0.017317	1.000000	-0.000040	0.000027	0.000020	-1.389120	-6.814249	48.378158
25979	1.169973	-0.239038	9.726043	0.007340	0.003979	-0.013615	1.000000	-0.000049	0.000019	0.000022	-1.388929	-6.812171	48.382264
25980	1.209067	-0.202240	9.725253	0.005821	0.057626	-0.010650	1.000000	-0.000037	0.000022	0.000008	-1.388143	-6.811575	48.383433
25981	1.154257	-0.225461	9.714296	-0.012833	0.002081	-0.027468	1.000000	-0.000052	0.000022	0.000015	-1.392194	-6.815812	48.381424
25982	1.193245	-0.203781	9.744592	-0.006227	0.043373	0.006707	1.000000	-0.000042	0.000019	0.000018	-1.392084	-6.815526	48.383782
25983	1.153470	-0.227187	9.714349	-0.011420	0.000342	-0.027466	1.000000	-0.000035	0.000019	0.000014	-1.388324	-6.813439	48.387642
25984	1.195258	-0.224743	9.716134	0.014126	0.032874	-0.020796	1.000000	-0.000051	0.000014	0.000038	-1.389521	-6.813723	48.392375
25985	1.192231	-0.206486	9.744659	-0.005002	0.040332	0.006721	1.000000	-0.000050	0.000017	0.000003	-1.391031	-6.818220	48.389117
25986	1.182361	-0.245717	9.706925	0.021325	0.009674	-0.030960	1.000000	-0.000046	0.000016	0.000028	-1.391576	-6.818234	48.392664
25987	1.179256	-0.227369	9.735462	0.003080	0.016763	-0.003443	1.000000	-0.000045	0.000022	0.000011	-1.387290	-6.820272	48.392951
25988	1.178967	-0.213185	9.704422	-0.004627	0.028301	-0.034631	1.000000	-0.000042	0.000019	0.000018	-1.387157	-6.820007	48.395312
25989	1.178441	-0.229119	9.735520	0.004029	0.015069	-0.003441	1.000000	-0.000045	0.000022	0.000011	-1.386775	-6.819188	48.397839
25990	1.195747	-0.249557	9.687760	0.035357	0.017830	-0.048302	1.000000	-0.000042	0.000019	0.000018	-1.386642	-6.818921	48.400199
25991	1.177650	-0.231001	9.735571	0.005019	0.012988	-0.003438	1.000000	-0.000056	0.000019	0.000025	-1.386102	-6.819925	48.403702
25992	1.162225	-0.231602	9.754871	-0.006514	-0.000187	0.013902	1.000000	-0.000030	0.000024	0.000023	-1.384622	-6.819063	48.406607
25993	1.191800	-0.232983	9.716365	0.018242	0.023075	-0.020775	1.000000	-0.000050	0.000017	0.000003	-1.381146	-6.820105	48.407426
25994	1.161512	-0.218372	9.723866	-0.013399	0.009946	-0.017276	1.000000	-0.000054	0.000027	0.000027	-1.382514	-6.818894	48.410782
25995	1.188282	-0.200693	9.713897	-0.007714	0.042669	-0.024419	1.000000	-0.000045	0.000022	0.000011	-1.382068	-6.816660	48.413874
25996	1.160618	-0.220249	9.723930	-0.012279	0.008425	-0.017273	1.000000	-0.000042	0.000019	0.000018	-1.381912	-6.816393	48.416234
25997	1.175309	-0.221484	9.704680	-0.000064	0.020090	-0.034609	1.000000	-0.000051	0.000011	0.000020	-1.384277	-6.817042	48.418957
25998	1.187218	-0.203579	9.713967	-0.006593	0.040316	-0.024408	1.000000	-0.000055	0.000025	0.000008	-1.385453	-6.816146	48.420171
25999	1.159523	-0.223303	9.723991	-0.011585	0.005810	-0.017270	1.000000	-0.000049	0.000019	0.000022	-1.387065	-6.818681	48.419867
26000	1.201157	-0.220849	9.725828	0.013959	0.038328	-0.010564	1.000000	-0.000035	0.000030	0.000010	-1.386024	-6.817213	48.421215
26001	1.198108	-0.187497	9.723349	-0.011705	0.058515	-0.014188	1.000000	-0.000061	0.000016	0.000035	-1.383585	-6.813758	48.431792
26002	1.173193	-0.226424	9.704822	0.002653	0.015566	-0.034601	1.000000	-0.000037	0.000022	0.000008	-1.382765	-6.813195	48.432963
26003	1.199908	-0.223642	9.725918	0.015227	0.035630	-0.010556	1.000000	-0.000042	0.000019	0.000018	-1.386744	-6.817331	48.429573
26004	1.172381	-0.228169	9.704879	0.002501	0.013798	-0.034599	1.000000	-0.000052	0.000022	0.000015	-1.387705	-6.816754	48.431565
26005	1.184242	-0.210160	9.714190	-0.004143	0.034167	-0.024383	1.000000	-0.000042	0.000019	0.000018	-1.388667	-6.816279	48.433855
26006	1.168859	-0.210891	9.733474	-0.015665	0.020970	-0.007049	1.000000	-0.000056	0.000019	0.000025	-1.390295	-6.815991	48.437033
26007	1.171186	-0.231067	9.704955	0.003723	0.011461	-0.034596	1.000000	-0.000037	0.000022	0.000008	-1.389365	-6.815197	48.435396
26008	1.168098	-0.212755	9.733525	-0.014756	0.019313	-0.007044	1.000000	-0.000054	0.000014	0.000013	-1.390572	-6.815538	48.437210
26009	1.197436	-0.244445	9.757111	0.026731	0.018368	0.020612	1.000000	-0.000034	0.000021	0.000033	-1.386229	-6.811724	48.445476
26010	1.167360	-0.214673	9.733572	-0.013077	0.017657	-0.007038	1.000000	-0.000064	0.000017	0.000010	-1.388525	-6.811728	48.446920
26011	1.194093	-0.212124	9.754673	0.000192	0.037137	0.017018	1.000000	-0.000037	0.000022	0.000008	-1.386576	-6.815375	48.443908
26012	1.151806	-0.201182	9.721836	-0.032662	0.015386	-0.020858	1.000000	-0.000051	0.000011	0.000020	-1.387545	-6.816024	48.446500
26013	1.183925	-0.252207	9.716848	0.029707	-0.014646	-0.020787	1.000000	-0.000049	0.000019	0.000022	-1.296699	-6.891755	47.589449
26014	1.178400	-0.184454	9.711925	-0.023396	0.027467	-0.027861	1.000000	-0.000042	0.000019	0.000018	-1.296175	-6.891818	47.589580
26015	1.180540	-0.219688	9.714430	0.003843	0.004999	-0.024325	1.000000	-0.000047	0.000025	0.000005	-1.295829	-6.891202	47.588320
26016	1.180161	-0.220543	9.714456	0.004274	0.004073	-0.024325	1.000000	-0.000036	0.000013	0.000031	-1.294865	-6.891881	47.590005
26017	1.164851	-0.221159	9.733727	-0.007418	-0.009118	-0.007021	1.000000	-0.000050	0.000017	0.000003	-1.294930	-6.892380	47.589855
26018	1.191785	-0.218782	9.754808	0.006502	0.010673	0.017081	1.000000	-0.000065	0.000000	0.000032	-1.297308	-6.894548	47.591638
26019	1.179285	-0.238845	9.745495	0.013554	-0.011445	0.006789	1.000000	-0.000045	0.000022	0.000011	-1.296820	-6.894685	47.597483
26020	1.178878	-0.239722	9.745523	0.013987	-0.012374	0.006787	1.000000	-0.000042	0.000019	0.000018	-1.296296	-6.894749	47.597614
26021	1.163784	-0.210054	9.702760	-0.013672	-0.000280	-0.038134	1.000000	-0.000047	0.000025	0.000005	-1.295869	-6.894132	47.597190
26022	1.205373	-0.222924	9.735642	0.020380	0.019099	-0.000218	1.000000	-0.000051	0.000011	0.000020	-1.296466	-6.895102	47.597554
26023	1.192745	-0.242848	9.726339	0.027448	-0.002949	-0.010518	1.000000	-0.000047	0.000025	0.000005	-1.296382	-6.894571	47.595086
26024	1.147450	-0.227982	9.753100	-0.016480	-0.027964	0.010272	1.000000	-0.000056	0.000019	0.000025	-1.297624	-6.894606	47.596037
26025	1.191897	-0.245142	9.726385	0.028279	-0.004812	-0.010521	1.000000	-0.000066	0.000022	0.000022	-1.300082	-6.894478	47.596680
26026	1.188955	-0.211954	9.723971	0.001944	0.015788	-0.014020	1.000000	-0.000050	0.000017	0.000003	-1.300237	-6.894846	47.595080
26027	1.176354	-0.231777	9.714657	0.009003	-0.006253	-0.024329	1.000000	-0.000039	0.000016	0.000025	-1.299523	-6.895251	47.594837
26028	1.188275	-0.213687	9.724016	0.002802	0.013933	-0.014017	1.000000	-0.000042	0.000019	0.000018	-1.299000	-6.895316	47.594969
26029	1.187894	-0.214618	9.724042	0.003238	0.012974	-0.014016	1.000000	-0.000049	0.000019	0.000022	-1.299217	-6.895485	47.597653
26030	1.172470	-0.215328	9.743318	-0.008441	-0.000210	0.003280	1.000000	-0.000045	0.000022	0.000011	-1.298915	-6.895242	47.597008
26031	1.187134	-0.216482	9.724093	0.004098	0.011086	-0.014014	1.000000	-0.000047	0.000014	0.000010	-1.298730	-6.896081	47.598710
26032	1.186649	-0.217487	9.724130	0.004530	0.010159	-0.014013	1.000000	-0.000052	0.000035	0.000029	-1.299497	-6.894278	47.600017
26033	1.171365	-0.203046	9.712405	-0.015184	0.009619	-0.027811	1.000000	-0.000044	0.000011	0.000016	-1.299107	-6.895461	47.603012
26034	1.158564	-0.238128	9.734077	-0.000094	-0.025102	-0.007046	1.000000	-0.000052	0.000022	0.000015	-1.299688	-6.895204	47.602776
26035	1.185428	-0.220337	9.724215	0.005783	0.007304	-0.014011	1.000000	-0.000034	0.000021	0.000033	-1.298485	-6.895258	47.608326
26036	1.184996	-0.221229	9.724247	0.006216	0.006377	-0.014011	1.000000	-0.000052	0.000022	0.000015	-1.299067	-6.895001	47.608091
26037	1.169461	-0.222021	9.743529	-0.005435	-0.006844	0.003280	1.000000	-0.000050	0.000030	0.000017	-1.299213	-6.893843	47.609085
26038	1.169259	-0.207767	9.712559	-0.013037	0.004930	-0.027804	1.000000	-0.000044	0.000011	0.000016	-1.298930	-6.894829	47.609039
26039	1.171574	-0.243162	9.714956	0.014170	-0.017544	-0.024349	1.000000	-0.000059	0.000011	0.000023	-1.300318	-6.895817	47.610058
26040	1.156298	-0.228707	9.703234	-0.005539	-0.018035	-0.038143	1.000000	-0.000037	0.000035	0.000022	-1.299322	-6.894044	47.610548
26041	1.180185	-0.207087	9.752990	-0.010331	0.010517	0.013621	1.000000	-0.000059	0.000011	0.000023	-1.300809	-6.895087	47.611594
26042	1.182442	-0.242524	9.755383	0.016868	-0.011949	0.017067	1.000000	-0.000050	0.000017	0.000003	-1.300966	-6.895456	47.609995
26043	1.152357	-0.212399	9.731919	-0.022966	-0.012014	-0.010514	1.000000	-0.000025	0.000029	0.000031	-1.298514	-6.894313	47.611856
26044	1.208860	-0.225352	9.745587	0.023231	0.019552	0.010127	1.000000	-0.000047	0.000014	0.000010	-1.298451	-6.894991	47.611033
26045	1.166517	-0.229485	9.743709	-0.001958	-0.014341	0.003273	1.000000	-0.000041	0.000008	0.000023	-1.297828	-6.896417	47.614165
26046	1.196300	-0.230787	9.705245	0.022675	0.009295	-0.031298	1.000000	-0.000042	0.000019	0.000018	-1.297308	-6.896485	47.614299
26047	1.168609	-0.250399	9.715129	0.017630	-0.025023	-0.024371	1.000000	-0.000049	0.000019	0.000022	-1.297599	-6.896597	47.615521
26048	1.165598	-0.216900	9.712799	-0.008704	-0.004409	-0.027799	1.000000	-0.000035	0.000030	0.000010	-1.296178	-6.895450	47.614647
26049	1.192019	-0.214437	9.733987	0.005251	0.015320	-0.003654	1.000000	-0.000062	0.000038	0.000026	-1.298113	-6.893291	47.613286
26050	1.191636	-0.215596	9.734008	0.005684	0.014392	-0.003653	1.000000	-0.000054	0.000001	-0.000000	-1.298747	-6.895500	47.611328
26051	1.194114	-0.235568	9.705400	0.024822	0.004630	-0.031300	1.000000	-0.000032	0.000027	0.000016	-1.297011	-6.894848	47.614469
26052	1.149014	-0.205273	9.701183	-0.027139	-0.007679	-0.041581	1.000000	-0.000049	0.000019	0.000022	-1.297375	-6.894902	47.615012
26053	1.193252	-0.237352	9.705462	0.025679	0.002779	-0.031301	1.000000	-0.000045	0.000022	0.000011	-1.297105	-6.894682	47.613391
26054	1.190093	-0.219122	9.734118	0.007400	0.010647	-0.003649	1.000000	-0.000042	0.000019	0.000018	-1.296586	-6.894750	47.613524
26055	1.162497	-0.238814	9.743965	0.002354	-0.023703	0.003255	1.000000	-0.000056	0.000008	0.000030	-1.297683	-6.896184	47.618681
26056	1.174635	-0.205600	9.722415	-0.011883	0.009212	-0.017425	1.000000	-0.000035	0.000030	0.000010	-1.296263	-6.895038	47.617808
26057	1.189029	-0.222016	9.734183	0.008693	0.007845	-0.003648	1.000000	-0.000059	0.000011	0.000023	-1.297869	-6.895937	47.615219
26058	1.173609	-0.222818	9.753437	-0.002969	-0.005382	0.013630	1.000000	-0.000040	0.000027	0.000020	-1.297112	-6.895087	47.615533
26059	1.173097	-0.223770	9.753477	-0.002541	-0.006314	0.013629	1.000000	-0.000055	0.000025	0.000008	-1.297935	-6.894555	47.613902
26060	1.175446	-0.243886	9.724864	0.016594	-0.016024	-0.014034	1.000000	-0.000046	0.000016	0.000028	-1.298081	-6.894921	47.615223
26061	1.187376	-0.225916	9.734295	0.010416	0.004102	-0.003647	1.000000	-0.000042	0.000019	0.000018	-1.297452	-6.895124	47.618035
26062	1.157382	-0.195843	9.710854	-0.029458	0.004116	-0.031190	1.000000	-0.000045	0.000022	0.000011	-1.297153	-6.894885	47.617393
26063	1.144444	-0.230874	9.732432	-0.014366	-0.030719	-0.010538	1.000000	-0.000042	0.000019	0.000018	-1.296491	-6.895219	47.623046
26064	1.189089	-0.232549	9.674782	0.022334	0.005282	-0.062360	1.000000	-0.000064	0.000030	0.000024	-1.298604	-6.894020	47.623811
26065	1.185513	-0.229813	9.734431	0.012150	0.000350	-0.003648	1.000000	-0.000040	0.000027	0.000020	-1.297817	-6.893069	47.621702
26066	1.173052	-0.234300	9.694082	0.011122	-0.008866	-0.045089	1.000000	-0.000050	0.000017	0.000003	-1.297976	-6.893440	47.620103
26067	1.182070	-0.212630	9.763119	-0.005681	0.007264	0.024025	1.000000	-0.000049	0.000008	0.000027	-1.298403	-6.894716	47.619792
26068	1.139931	-0.201547	9.730244	-0.038959	-0.013780	-0.013911	1.000000	-0.000049	0.000019	0.000022	-1.298769	-6.894774	47.620336
26069	1.184434	-0.218348	9.703549	0.005822	0.009473	-0.034686	1.000000	-0.000042	0.000019	0.000018	-1.298313	-6.894652	47.615370
26070	1.184030	-0.219222	9.703579	0.006254	0.008548	-0.034686	1.000000	-0.000045	0.000022	0.000011	-1.298015	-6.894414	47.614728
26071	1.165788	-0.200941	9.751489	-0.024074	0.004091	0.010264	1.000000	-0.000052	0.000022	0.000015	-1.298644	-6.893988	47.609794
26072	1.197979	-0.236629	9.715364	0.027291	0.006233	-0.020923	1.000000	-0.000042	0.000019	0.000018	-1.298127	-6.894059	47.609929
26073	1.209911	-0.218825	9.724819	0.021146	0.026391	-0.010507	1.000000	-0.000061	0.000016	0.000035	-1.300024	-6.894279	47.608942
26074	1.167459	-0.223132	9.722892	-0.004077	-0.007432	-0.017417	1.000000	-0.000046	0.000016	0.000028	-1.300171	-6.894648	47.610263
26075	1.182209	-0.224343	9.703684	0.008465	0.003960	-0.034685	1.000000	-0.000054	0.000014	0.000013	-1.300890	-6.895231	47.608256
26076	1.151749	-0.225039	9.742144	-0.015278	-0.021609	-0.000153	1.000000	-0.000052	0.000022	0.000015	-1.301476	-6.894980	47.608024
26077	1.178882	-0.192047	9.701464	-0.017423	0.023691	-0.038017	1.000000	-0.000047	0.000027	0.000023	-1.301642	-6.894078	47.606601
26078	1.192927	-0.223781	9.744162	0.011248	0.009435	0.006764	1.000000	-0.000042	0.000019	0.000018	-1.301126	-6.894150	47.606736
26079	1.165377	-0.227994	9.723029	-0.001866	-0.012053	-0.017421	1.000000	-0.000042	0.000030	0.000013	-1.300473	-6.892861	47.603753
26080	1.191698	-0.225530	9.744272	0.012145	0.007580	0.006764	1.000000	-0.000045	0.000046	0.000020	-1.300345	-6.889853	47.604062
26081	1.191030	-0.226517	9.744330	0.012578	0.006653	0.006765	1.000000	-0.000052	0.000022	0.000015	-1.300940	-6.889588	47.602451
26082	1.175929	-0.211982	9.732630	-0.007154	0.006236	-0.006988	1.000000	-0.000044	0.000011	0.000016	-1.300662	-6.890580	47.602406
26083	1.187920	-0.194006	9.742108	-0.013312	0.026380	0.003452	1.000000	-0.000042	0.000019	0.000018	-1.300208	-6.890667	47.601171
26084	1.175328	-0.213813	9.732662	-0.006298	0.004387	-0.006986	1.000000	-0.000051	0.000011	0.000020	-1.300814	-6.891646	47.601535
26085	1.204857	-0.230451	9.725178	0.026401	0.015269	-0.010496	1.000000	-0.000042	0.000019	0.000018	-1.300215	-6.891684	47.600643
26086	1.189683	-0.215888	9.713492	0.006665	0.014861	-0.024245	1.000000	-0.000052	0.000022	0.000015	-1.300802	-6.891434	47.600411
26087	1.174217	-0.216594	9.732735	-0.005000	0.001597	-0.006985	1.000000	-0.000035	0.000019	0.000015	-1.299454	-6.891585	47.599754
26088	1.176418	-0.251818	9.734990	0.022177	-0.020915	-0.003688	1.000000	-0.000049	0.000008	0.000027	-1.299841	-6.892876	47.600895
26089	1.173644	-0.218331	9.732765	-0.004128	-0.000231	-0.006984	1.000000	-0.000037	0.000022	0.000008	-1.298733	-6.892506	47.594897
26090	1.185805	-0.185027	9.711350	-0.018355	0.032769	-0.027531	1.000000	-0.000052	0.000022	0.000015	-1.299321	-6.892257	47.594665
26091	1.172808	-0.220178	9.732824	-0.003263	-0.002103	-0.006984	1.000000	-0.000042	0.000019	0.000018	-1.298733	-6.892405	47.595874
26092	1.187520	-0.221256	9.713635	0.009251	0.009310	-0.024240	1.000000	-0.000046	0.000016	0.000028	-1.298883	-6.892778	47.597196
26093	1.156957	-0.221900	9.752086	-0.014490	-0.016316	0.010271	1.000000	-0.000047	0.000027	0.000023	-1.298996	-6.892023	47.599076
26094	1.186633	-0.223136	9.713701	0.010105	0.007443	-0.024239	1.000000	-0.000042	0.000019	0.000018	-1.298482	-6.892098	47.599213
26095	1.168617	-0.189615	9.730726	-0.028279	0.015758	-0.010259	1.000000	-0.000057	0.000030	0.000020	-1.299662	-6.890920	47.598924
26096	1.170649	-0.224952	9.732975	-0.001105	-0.006763	-0.006986	1.000000	-0.000040	0.000014	0.000006	-1.298720	-6.891616	47.597694
26097	1.182853	-0.191544	9.711584	-0.015321	0.026223	-0.027506	1.000000	-0.000040	0.000027	0.000020	-1.297793	-6.890841	47.600071
26098	1.170232	-0.211348	9.702110	-0.008323	0.004245	-0.037977	1.000000	-0.000056	0.000006	0.000011	-1.298858	-6.892430	47.599478
26099	1.166764	-0.208671	9.761748	-0.018433	-0.000877	0.020739	1.000000	-0.000035	0.000032	0.000028	-1.297613	-6.890976	47.599822
26100	1.181300	-0.209720	9.742588	-0.005922	0.010546	0.003489	1.000000	-0.000052	0.000022	0.000015	-1.298201	-6.890729	47.599591
26101	1.165795	-0.210614	9.761823	-0.017582	-0.002748	0.020740	1.000000	-0.000052	0.000022	0.000015	-1.298814	-6.890591	47.600298
26102	1.168460	-0.215179	9.702240	-0.006610	0.000532	-0.037975	1.000000	-0.000045	0.000022	0.000011	-1.298519	-6.890356	47.599658
26103	1.170510	-0.250572	9.704460	0.020571	-0.022002	-0.034726	1.000000	-0.000056	0.000019	0.000025	-1.299690	-6.890413	47.600256
26104	1.179974	-0.198381	9.711797	-0.012299	0.019721	-0.027487	1.000000	-0.000042	0.000019	0.000018	-1.299177	-6.890489	47.600393
26105	1.169675	-0.252413	9.704513	0.021449	-0.023861	-0.034733	1.000000	-0.000040	0.000027	0.000020	-1.298321	-6.889613	47.599686
26106	1.176037	-0.196505	9.771477	-0.021947	0.013632	0.031233	1.000000	-0.000044	0.000011	0.000016	-1.298046	-6.890608	47.599641
26108	1.172370	-0.218474	9.722584	-0.007285	-0.000088	9.778208	1.000000	-0.000081	0.000035	0.000043	-1.302314	-6.888723	47.600775
26109	1.163067	-0.202559	9.731130	-0.022616	0.003650	-0.010232	1.000000	-0.000049	0.000019	0.000022	-1.302685	-6.888788	47.601321
26110	1.177433	-0.219045	9.742850	-0.002004	0.002162	0.003496	1.000000	-0.000042	0.000019	0.000018	-1.302179	-6.888869	47.600296
26111	1.177184	-0.220038	9.742858	-0.001571	0.001233	0.003496	1.000000	-0.000056	0.000006	0.000011	-1.303245	-6.890460	47.599702
26112	1.176779	-0.220992	9.742886	-0.001142	0.000285	0.003496	1.000000	-0.000037	0.000035	0.000022	-1.302197	-6.888801	47.602008
26113	1.191404	-0.221969	9.723723	0.011363	0.011725	-0.013747	1.000000	-0.000044	0.000011	0.000016	-1.301923	-6.889798	47.601964
26114	1.149010	-0.225871	9.721716	-0.013922	-0.022059	-0.020735	1.000000	-0.000032	0.000016	0.000021	-1.300307	-6.890315	47.604047
26115	1.163371	-0.242363	9.733430	0.006694	-0.023555	-0.007014	1.000000	-0.000059	0.000022	0.000019	-1.301782	-6.890058	47.604226
26116	1.190694	-0.209287	9.692903	0.004543	0.021882	-0.044708	1.000000	-0.000042	0.000019	0.000018	-1.301254	-6.890058	47.601647
26117	1.204786	-0.241232	9.735493	0.033275	0.007435	-0.000024	1.000000	-0.000051	0.000011	0.000020	-1.301865	-6.891042	47.602011
26118	1.174958	-0.211167	9.712135	-0.006675	0.007639	-0.027464	1.000000	-0.000055	0.000025	0.000008	-1.302643	-6.890608	47.602914
26119	1.159597	-0.212121	9.731340	-0.018313	-0.005664	-0.010224	1.000000	-0.000054	0.000003	0.000018	-1.303493	-6.892511	47.603097
26120	1.189092	-0.228716	9.723850	0.014379	0.005210	-0.013745	1.000000	-0.000035	0.000030	0.000010	-1.302066	-6.891355	47.600989
26121	1.159115	-0.198600	9.700519	-0.025565	0.005444	-0.041179	1.000000	-0.000067	0.000022	0.000022	-1.304427	-6.891086	47.601576
26122	1.158174	-0.215048	9.731446	-0.016998	-0.008432	-0.010224	1.000000	-0.000033	0.000038	0.000011	-1.302744	-6.888922	47.597649
26123	1.187948	-0.216175	9.693089	0.007570	0.015404	-0.044697	1.000000	-0.000054	0.000003	0.000018	-1.303594	-6.890826	47.597831
26124	1.187394	-0.232654	9.723964	0.016129	0.001523	-0.013746	1.000000	-0.000046	0.000016	0.000028	-1.303775	-6.891123	47.596103
26125	1.156861	-0.233398	9.762367	-0.007574	-0.024172	0.020724	1.000000	-0.000049	0.000019	0.000022	-1.304149	-6.891191	47.596650
26126	1.171908	-0.219017	9.712330	-0.003192	0.000257	-0.027460	1.000000	-0.000045	0.000022	0.000011	-1.303819	-6.890946	47.595058
26127	1.173718	-0.254341	9.714503	0.023968	-0.022293	-0.024286	1.000000	-0.000050	0.000041	0.000012	-1.304153	-6.888554	47.594418
26129	1.184114	-0.219736	9.723055	0.009032	0.017202	9.782018	1.000000	-0.000086	0.000030	0.000034	-1.308768	-6.887358	47.597527
26130	1.197167	-0.219497	9.733702	0.011777	0.017890	-0.003208	1.000000	-0.000047	0.000016	0.000028	-1.308924	-6.887739	47.598850
26131	1.155064	-0.208030	9.700805	-0.021642	-0.002879	-0.041168	1.000000	-0.000042	0.000019	0.000018	-1.308371	-6.887858	47.599193
26132	1.184105	-0.240156	9.724183	0.019177	-0.005003	-0.013753	1.000000	-0.000052	0.000022	0.000015	-1.308964	-6.887615	47.598964
26133	1.166537	-0.191234	9.710433	-0.027317	0.016278	-0.030618	1.000000	-0.000052	0.000022	0.000015	-1.309489	-6.887474	47.600761
26135	1.168358	-0.227141	9.712571	-0.000315	-0.012550	9.757765	1.000000	-0.000098	0.000038	0.000043	-1.315799	-6.885313	47.603759
26136	1.180204	-0.209719	9.722173	-0.006237	0.013817	-0.016908	1.000000	-0.000034	0.000008	0.000019	-1.314306	-6.886582	47.602685
26137	1.179958	-0.210560	9.722185	-0.005805	0.012890	-0.016907	1.000000	-0.000050	0.000017	0.000003	-1.314471	-6.886958	47.601088
26138	1.151966	-0.230091	9.731838	-0.010913	-0.021478	-0.010235	1.000000	-0.000035	0.000043	0.000023	-1.313206	-6.884405	47.603914
26139	1.178944	-0.212386	9.722268	-0.004950	0.011017	-0.016904	1.000000	-0.000058	0.000000	0.000028	-1.314725	-6.886613	47.605280
26140	1.166492	-0.232157	9.712677	0.002030	-0.010931	-0.027466	1.000000	-0.000040	0.000014	0.000006	-1.313699	-6.887239	47.601949
26141	1.193579	-0.214303	9.703102	0.007995	0.021567	-0.034128	1.000000	-0.000042	0.000019	0.000018	-1.313190	-6.887321	47.602089
26142	1.193228	-0.215217	9.703125	0.008409	0.020623	-0.034126	1.000000	-0.000050	0.000017	0.000003	-1.313352	-6.887841	47.603061
26143	1.177331	-0.231499	9.753184	0.004922	-0.005732	0.014023	1.000000	-0.000040	0.000025	0.000001	-1.312395	-6.887310	47.601239
26144	1.150325	-0.220094	9.701102	-0.016479	-0.014047	-0.041168	1.000000	-0.000051	0.000013	0.000039	-1.313249	-6.888117	47.605541
26145	1.191994	-0.218013	9.703215	0.009685	0.017836	-0.034122	1.000000	-0.000045	0.000033	0.000007	-1.312938	-6.886657	47.604311
26146	1.173768	-0.200020	9.751193	-0.020532	0.013086	0.010902	1.000000	-0.000051	0.000000	0.000025	-1.313550	-6.888988	47.607236
26147	1.191370	-0.219935	9.703248	0.010538	0.015969	-0.034120	1.000000	-0.000042	0.000030	0.000013	-1.313022	-6.887841	47.606783
26148	1.188015	-0.201984	9.732079	-0.007597	0.023638	-0.006316	1.000000	-0.000047	0.000027	0.000023	-1.313092	-6.886965	47.606482
26150	1.173713	-0.212780	9.736906	-0.019863	0.011994	9.806698	1.000000	-0.000096	0.000033	0.000031	-1.318977	-6.885427	47.608113
26151	1.162364	-0.242544	9.712918	0.006327	-0.020263	-0.027482	1.000000	-0.000059	0.000011	0.000023	-1.320311	-6.886443	47.610151
26152	1.171881	-0.190199	9.720516	-0.026487	0.021461	-0.019999	1.000000	-0.000021	0.000030	0.000003	-1.317127	-6.885330	47.608473
26153	1.173357	-0.240991	9.753433	0.008811	-0.014165	0.014012	1.000000	-0.000067	0.000022	0.000022	-1.319498	-6.885149	47.610049
26154	1.188086	-0.242240	9.734275	0.021297	-0.002674	-0.003209	1.000000	-0.000050	0.000017	0.000003	-1.319665	-6.885526	47.608453
26155	1.172957	-0.227437	9.722652	0.001522	-0.002962	-0.016897	1.000000	-0.000032	0.000027	0.000016	-1.318065	-6.884682	47.606762
26156	1.184892	-0.209537	9.732300	-0.004562	0.017118	-0.006300	1.000000	-0.000052	0.000011	0.000020	-1.318681	-6.885674	47.607127
26157	1.172358	-0.229344	9.722679	0.002378	-0.004838	-0.016898	1.000000	-0.000052	0.000011	0.000020	-1.319242	-6.886792	47.610077
26158	1.184370	-0.211617	9.732318	-0.003705	0.015240	-0.006297	1.000000	-0.000049	0.000019	0.000022	-1.319620	-6.886866	47.610626
26159	1.171757	-0.231477	9.722701	0.003259	-0.006686	-0.016899	1.000000	-0.000059	0.000011	0.000023	-1.321069	-6.887755	47.608346
26160	1.183510	-0.213636	9.732379	-0.002822	0.013391	-0.006294	1.000000	-0.000031	0.000046	0.000013	-1.319179	-6.884785	47.607854
26161	1.183055	-0.214476	9.732416	-0.002405	0.012451	-0.006293	1.000000	-0.000054	0.000001	-0.000001	-1.319841	-6.887113	47.607801
26162	1.170573	-0.234240	9.722778	0.004538	-0.009479	-0.016902	1.000000	-0.000047	0.000016	0.000028	-1.320002	-6.887501	47.609127
26163	1.182856	-0.200841	9.701632	-0.009697	0.023681	-0.037183	1.000000	-0.000042	0.000030	0.000013	-1.319469	-6.886319	47.606804
26164	1.184729	-0.236102	9.703681	0.017455	0.001106	-0.034117	1.000000	-0.000045	0.000022	0.000011	-1.319180	-6.886091	47.606169
26165	1.166908	-0.202615	9.720863	-0.020866	0.009366	-0.019966	1.000000	-0.000052	0.000011	0.000020	-1.319609	-6.887148	47.608469
26166	1.195963	-0.234870	9.744171	0.019992	0.007134	0.007389	1.000000	-0.000045	0.000022	0.000011	-1.319320	-6.886921	47.607834
26167	1.157078	-0.226538	9.651639	-0.003107	-0.008963	-0.089303	1.000000	-0.000052	0.000022	0.000015	-1.319847	-6.886741	47.608658
26168	1.189740	-0.183447	9.771079	-0.024412	0.035467	0.032172	1.000000	-0.000025	0.000040	0.000027	-1.317522	-6.884399	47.609720
26169	1.152621	-0.224896	9.711374	-0.012629	-0.015357	-0.030586	1.000000	-0.000055	0.000022	-0.000010	-1.318087	-6.884178	47.606672
26170	1.166826	-0.241474	9.723051	0.008017	-0.016942	-0.016914	1.000000	-0.000040	0.000027	0.000020	-1.317343	-6.883348	47.606998
26171	1.160748	-0.204858	9.780724	-0.028662	-0.000782	0.038761	1.000000	-0.000057	0.000019	0.000025	-1.318637	-6.883513	47.609292
26172	1.138992	-0.246634	9.701801	-0.004849	-0.039135	-0.041223	1.000000	-0.000049	0.000019	0.000022	-1.319018	-6.883590	47.609841
26173	1.202088	-0.203882	9.782911	-0.002032	0.030125	0.045863	1.000000	-0.000045	0.000022	0.000011	-1.318696	-6.883377	47.608695
26174	1.177549	-0.226830	9.732804	0.003230	0.000327	-0.006285	1.000000	-0.000062	0.000014	0.000017	-1.320418	-6.884048	47.608692
26175	1.174780	-0.193395	9.730859	-0.023054	0.021055	-0.009313	1.000000	-0.000032	0.000027	0.000016	-1.318774	-6.883232	47.608110
26177	1.169188	-0.221357	9.727054	-0.012027	-0.002392	9.786449	1.000000	-0.000103	0.000035	0.000054	-1.325764	-6.881390	47.612296
26178	1.203457	-0.212215	9.723407	0.010081	0.030977	-0.012844	1.000000	-0.000064	0.000017	0.000010	-1.327647	-6.881738	47.610895
26179	1.160954	-0.216313	9.721281	-0.015251	-0.002719	-0.019952	1.000000	-0.000045	0.000022	0.000011	-1.327360	-6.881513	47.610261
26180	1.162988	-0.251676	9.723252	0.011890	-0.025320	-0.016936	1.000000	-0.000052	0.000011	0.000020	-1.327958	-6.882596	47.612405
26181	1.187297	-0.215199	9.742626	-0.000669	0.015724	0.004364	1.000000	-0.000045	0.000022	0.000011	-1.327671	-6.882371	47.611771
26182	1.190141	-0.219325	9.683028	0.010122	0.019426	-0.054353	1.000000	-0.000052	0.000022	0.000015	-1.328325	-6.882029	47.607784
26183	1.174145	-0.235925	9.732999	0.006696	-0.007097	-0.006289	1.000000	-0.000049	0.000019	0.000022	-1.328707	-6.882108	47.608334
26184	1.174126	-0.221308	9.702247	-0.001055	0.005122	-0.037151	1.000000	-0.000050	0.000030	0.000017	-1.329077	-6.880936	47.607108
26185	1.185992	-0.203426	9.711972	-0.007114	0.025180	-0.026489	1.000000	-0.000032	0.000016	0.000021	-1.327470	-6.881349	47.607618
26186	1.143286	-0.207282	9.709862	-0.032460	-0.008490	-0.033610	1.000000	-0.000050	0.000043	0.000031	-1.328093	-6.878627	47.606765
26187	1.195266	-0.249028	9.844895	0.020005	-0.008291	0.107603	1.000000	-0.000039	0.000016	0.000025	-1.327372	-6.879030	47.607683
26188	1.147941	-0.246673	9.652237	0.005456	-0.027387	-0.089339	1.000000	-0.000052	0.000024	0.000034	-1.328089	-6.878561	47.610960
26189	1.167993	-0.238315	9.792838	-0.001045	-0.017315	0.052422	1.000000	-0.000037	0.000011	0.000013	-1.326939	-6.879578	47.610509
26190	1.168618	-0.207861	9.731303	-0.016992	0.008058	-0.009281	1.000000	-0.000045	0.000022	0.000011	-1.326586	-6.879439	47.612079
26191	1.164893	-0.205577	9.790967	-0.026888	0.002472	0.049439	1.000000	-0.000037	0.000022	0.000008	-1.325415	-6.879225	47.611037
26192	1.185532	-0.244034	9.714100	0.022633	-0.003002	-0.023497	1.000000	-0.000053	-0.000008	0.000023	-1.326219	-6.882339	47.610834
26194	1.182908	-0.218987	9.727540	0.000901	0.022320	9.790591	1.000000	-0.000095	0.000011	0.000041	-1.332157	-6.883276	47.613649
26195	1.171459	-0.199905	9.640915	-0.013134	0.022173	-0.098839	1.000000	-0.000037	0.000022	0.000008	-1.330948	-6.883201	47.615646
26196	1.199388	-0.263489	9.725720	0.044146	-0.006503	-0.009851	1.000000	-0.000052	0.000022	0.000015	-1.331549	-6.882967	47.615422
26197	1.206662	-0.177007	9.731649	-0.015327	0.056872	-0.005094	1.000000	-0.000047	0.000016	0.000028	-1.331640	-6.883453	47.618333
26198	1.182049	-0.199739	9.681488	-0.010131	0.027185	-0.057304	1.000000	-0.000050	0.000030	0.000017	-1.332003	-6.882303	47.618294
26199	1.198430	-0.250776	9.695054	0.037245	0.003884	-0.040697	1.000000	-0.000045	0.000033	0.000007	-1.331705	-6.880814	47.614958
26200	1.181816	-0.170441	9.620070	-0.025666	0.051726	-0.118970	1.000000	-0.000061	0.000029	0.000049	-1.333836	-6.879661	47.618657
26201	1.234814	-0.278294	9.818519	0.070017	0.003686	0.086839	1.000000	-0.000043	0.000054	0.000022	-1.333407	-6.875608	47.614187
26202	1.181453	-0.238194	9.683646	0.018332	0.001829	-0.054346	1.000000	-0.000047	0.000038	0.000019	-1.333532	-6.873541	47.614334
26203	1.152314	-0.176616	9.598979	-0.038092	0.028753	-0.143295	1.000000	-0.000070	0.000049	0.000024	-1.336278	-6.870092	47.610546
26204	1.178618	-0.272101	9.745316	0.035614	-0.026414	0.007312	1.000000	-0.000065	0.000051	0.000014	-1.338371	-6.866460	47.610144
26205	1.167356	-0.166925	9.799410	-0.054367	0.032989	0.057215	1.000000	-0.000038	0.000046	0.000017	-1.337378	-6.863508	47.609413
26206	1.174571	-0.239732	9.743596	0.009771	-0.006588	0.004370	1.000000	-0.000060	0.000033	0.000014	-1.338846	-6.862035	47.609006
26207	1.158800	-0.240742	9.762783	-0.001828	-0.020020	0.021554	1.000000	-0.000042	0.000030	0.000013	-1.338276	-6.860965	47.609396
26208	1.155842	-0.207316	9.760970	-0.028099	0.000739	0.018625	1.000000	-0.000052	0.000035	0.000029	-1.339071	-6.859205	47.610727
26209	1.169923	-0.223945	9.772627	-0.007435	-0.000924	0.032263	1.000000	-0.000037	0.000022	0.000008	-1.337906	-6.859048	47.610311
26210	1.157114	-0.243718	9.762909	-0.000536	-0.022817	0.021548	1.000000	-0.000072	0.000028	0.000009	-1.340716	-6.858168	47.609351
26211	1.196569	-0.207435	9.763296	-0.001001	0.030666	0.025799	1.000000	-0.000034	0.000008	0.000019	-1.339320	-6.859508	47.609212
26212	1.172750	-0.214287	9.682308	-0.004062	0.014272	-0.057272	1.000000	-0.000054	0.000014	0.000013	-1.340162	-6.860194	47.608802
26213	1.214076	-0.228203	9.715285	0.030414	0.032842	-0.019281	1.000000	-0.000062	0.000014	0.000017	-1.341787	-6.860747	47.604805
26214	1.183424	-0.229239	9.753569	0.006792	0.006919	0.015083	1.000000	-0.000042	0.000019	0.000018	-1.341287	-6.860841	47.604949
26215	1.141452	-0.217408	9.720623	-0.026794	-0.013504	-0.022907	1.000000	-0.000049	0.000019	0.000022	-1.341614	-6.860964	47.605902
26216	1.170926	-0.234185	9.713107	0.005905	-0.002669	-0.026456	1.000000	-0.000054	0.000014	0.000013	-1.342457	-6.861651	47.605491
26217	1.200053	-0.266556	9.736304	0.046823	-0.005090	0.000802	1.000000	-0.000037	0.000000	0.000018	-1.341272	-6.863939	47.606020
26218	1.168210	-0.201488	9.711283	-0.019928	0.017168	-0.029353	1.000000	-0.000040	0.000027	0.000020	-1.340533	-6.863117	47.606351
26219	1.170194	-0.236711	9.713134	0.007205	-0.005477	-0.026458	1.000000	-0.000042	0.000006	0.000004	-1.339751	-6.864814	47.606150
26220	1.167618	-0.203095	9.711321	-0.019063	0.015297	-0.029348	1.000000	-0.000037	0.000022	0.000008	-1.338582	-6.864604	47.605111
26221	1.169496	-0.238392	9.713177	0.008056	-0.007344	-0.026460	1.000000	-0.000052	0.000022	0.000015	-1.339180	-6.864485	47.606685
26222	1.198760	-0.255166	9.705683	0.040754	0.003491	-0.030012	1.000000	-0.000052	0.000033	0.000010	-1.339763	-6.863024	47.605872
26223	1.168352	-0.240386	9.713266	0.008901	-0.009225	-0.026463	1.000000	-0.000042	0.000030	0.000013	-1.339200	-6.862087	47.609893
26224	1.153140	-0.225581	9.701717	-0.010914	-0.009399	-0.040087	1.000000	-0.000050	0.000030	0.000017	-1.339566	-6.860942	47.609856
26225	1.179588	-0.223528	9.723136	0.003317	0.009858	-0.015716	1.000000	-0.000037	0.000022	0.000008	-1.338311	-6.860764	47.609074
26226	1.163938	-0.224320	9.742303	-0.008270	-0.003586	0.001458	1.000000	-0.000040	0.000027	0.000020	-1.337574	-6.859944	47.609405
26227	1.193883	-0.225180	9.704078	0.016207	0.020506	-0.032886	1.000000	-0.000047	0.000014	0.000010	-1.337440	-6.860682	47.608608
26228	1.163763	-0.210347	9.711629	-0.015628	0.007820	-0.029333	1.000000	-0.000042	0.000019	0.000018	-1.336942	-6.860779	47.608752
26229	1.178012	-0.227024	9.723246	0.005044	0.006121	-0.015713	1.000000	-0.000049	0.000019	0.000022	-1.337310	-6.860955	47.610486
26230	1.177637	-0.227884	9.723271	0.005476	0.005194	-0.015713	1.000000	-0.000035	0.000019	0.000015	-1.335925	-6.861061	47.610223
26231	1.174310	-0.210024	9.752231	-0.012541	0.012680	0.012220	1.000000	-0.000042	0.000030	0.000013	-1.335308	-6.859897	47.607795
26232	1.161906	-0.213739	9.711777	-0.013895	0.004098	-0.029328	1.000000	-0.000037	0.000035	0.000022	-1.334333	-6.858161	47.608315
26233	1.176072	-0.230477	9.723400	0.006794	0.002385	-0.015713	1.000000	-0.000059	0.000011	0.000023	-1.335736	-6.859225	47.609715
26234	1.158384	-0.197141	9.740738	-0.031486	0.010639	-0.001388	1.000000	-0.000044	0.000011	0.000016	-1.335477	-6.860239	47.609672
26235	1.187294	-0.229546	9.763933	0.009452	0.008145	0.025839	1.000000	-0.000045	0.000022	0.000012	-1.335088	-6.860128	47.611080
26236	1.160486	-0.217570	9.711862	-0.012162	0.000350	-0.029325	1.000000	-0.000045	0.000022	0.000012	-1.334807	-6.859910	47.610450
26237	1.186978	-0.215514	9.733293	0.002073	0.019582	-0.004937	1.000000	-0.000037	0.000024	0.000027	-1.333859	-6.859462	47.612417
26238	1.171317	-0.216397	9.752452	-0.009508	0.006121	0.012230	1.000000	-0.000047	0.000025	0.000005	-1.333796	-6.858929	47.611012
26239	1.173898	-0.236035	9.723529	0.009377	-0.003220	-0.015715	1.000000	-0.000054	0.000003	0.000018	-1.334630	-6.860909	47.612014
26240	1.156108	-0.202554	9.740897	-0.028899	0.005029	-0.001376	1.000000	-0.000035	0.000030	0.000010	-1.333224	-6.859784	47.611164
26241	1.156282	-0.187571	9.710227	-0.036708	0.017414	-0.032144	1.000000	-0.000044	0.000011	0.000016	-1.332931	-6.860814	47.610427
26242	1.188037	-0.238684	9.704473	0.022686	0.006532	-0.032880	1.000000	-0.000049	0.000021	0.000040	-1.333537	-6.860611	47.613126
26243	1.155013	-0.205345	9.740969	-0.027587	0.002231	-0.001371	1.000000	-0.000050	0.000017	0.000003	-1.333623	-6.860995	47.610457
26244	1.184429	-0.222093	9.733456	0.005113	0.013060	-0.004927	1.000000	-0.000052	0.000022	0.000015	-1.334231	-6.860769	47.610235
26245	1.169499	-0.207301	9.721894	-0.014719	0.012911	-0.018529	1.000000	-0.000044	0.000011	0.000016	-1.333969	-6.861842	47.611310
26246	1.171877	-0.226840	9.692987	0.004157	0.003600	-0.046484	1.000000	-0.000048	0.000038	0.000019	-1.334100	-6.859784	47.611464
26247	1.195400	-0.206282	9.743388	-0.000031	0.031188	0.005875	1.000000	-0.000042	0.000019	0.000018	-1.333574	-6.859930	47.612077
26248	1.170413	-0.244681	9.723735	0.013269	-0.011596	-0.015726	1.000000	-0.000069	0.000014	0.000020	-1.336196	-6.860604	47.612482
26249	1.182341	-0.227152	9.733593	0.007257	0.008398	-0.004923	1.000000	-0.000040	0.000027	0.000020	-1.335483	-6.859855	47.613961
26250	1.154930	-0.230793	9.712219	-0.006139	-0.012661	-0.029327	1.000000	-0.000037	0.000022	0.000008	-1.334316	-6.859648	47.612924
26251	1.193661	-0.210353	9.743514	0.001694	0.027452	0.005886	1.000000	-0.000067	0.000033	0.000017	-1.336609	-6.858229	47.613617
26252	1.180821	-0.230089	9.733708	0.008557	0.005599	-0.004922	1.000000	-0.000042	0.000019	0.000018	-1.336113	-6.858330	47.613763
26253	1.183203	-0.249685	9.704786	0.027433	-0.003694	-0.032891	1.000000	-0.000057	0.000030	0.000020	-1.337349	-6.857130	47.612664
26254	1.164665	-0.232230	9.752884	-0.002574	-0.008809	0.012232	1.000000	-0.000049	0.000019	0.000022	-1.337741	-6.857222	47.613217
26255	1.179563	-0.233218	9.733787	0.009866	0.002811	-0.004922	1.000000	-0.000052	0.000011	0.000020	-1.338331	-6.858253	47.613165
26256	1.164565	-0.218463	9.722242	-0.009966	0.002689	-0.018515	1.000000	-0.000050	0.000030	0.000017	-1.338701	-6.857113	47.613132
26257	1.178707	-0.235242	9.733842	0.010738	0.000944	-0.004923	1.000000	-0.000047	0.000016	0.000028	-1.338802	-6.857544	47.614551
26258	1.181854	-0.238951	9.674218	0.021335	0.005029	-0.063642	1.000000	-0.000047	0.000016	0.000028	-1.338978	-6.857954	47.615880
26259	1.177933	-0.237135	9.733889	0.011600	-0.000923	-0.004924	1.000000	-0.000042	0.000030	0.000013	-1.338430	-6.856879	47.616202
26260	1.165041	-0.256668	9.724071	0.018455	-0.022768	-0.015754	1.000000	-0.000047	0.000027	0.000024	-1.338584	-6.856056	47.616945
26261	1.161617	-0.239018	9.753084	0.000483	-0.015338	0.012224	1.000000	-0.000042	0.000030	0.000013	-1.338004	-6.854815	47.612534
26262	1.176312	-0.239844	9.734019	0.012918	-0.003701	-0.004926	1.000000	-0.000045	0.000022	0.000012	-1.337726	-6.854600	47.611905
26263	1.176527	-0.224872	9.703379	0.005097	0.008743	-0.035661	1.000000	-0.000042	0.000019	0.000018	-1.337117	-6.854712	47.610720
26264	1.160952	-0.225787	9.722507	-0.006474	-0.004751	-0.018512	1.000000	-0.000042	0.000019	0.000018	-1.336623	-6.854814	47.610866
26265	1.159933	-0.242448	9.753199	0.002224	-0.019080	0.012218	1.000000	-0.000037	0.000022	0.000008	-1.335435	-6.854660	47.610380
26266	1.175486	-0.227470	9.703445	0.006387	0.005958	-0.035659	1.000000	-0.000057	0.000006	0.000011	-1.336523	-6.856270	47.609780
26267	1.172398	-0.209970	9.732426	-0.011595	0.013362	-0.007668	1.000000	-0.000047	0.000016	0.000028	-1.336656	-6.856719	47.611517
26268	1.187881	-0.194962	9.682688	-0.007436	0.038411	-0.055537	1.000000	-0.000042	0.000019	0.000018	-1.336163	-6.856823	47.611664
26269	1.171651	-0.211844	9.732475	-0.010725	0.011492	-0.007665	1.000000	-0.000052	0.000022	0.000015	-1.336692	-6.856646	47.611823
26270	1.201064	-0.228602	9.724956	0.021978	0.022311	-0.011229	1.000000	-0.000047	0.000016	0.000028	-1.336870	-6.857058	47.613152
26271	1.176189	-0.168983	9.580929	-0.024550	0.054940	-0.158541	1.000000	-0.000057	0.000032	0.000039	-1.338273	-6.855660	47.615503
26272	1.198744	-0.164807	9.662097	-0.020389	0.069012	-0.075384	1.000000	-0.000068	0.000056	0.000026	-1.340810	-6.851435	47.616487
26273	1.202149	-0.234612	9.665535	0.033409	0.024594	-0.069943	1.000000	-0.000028	0.000053	0.000015	-1.338631	-6.847622	47.616372
26274	1.208126	-0.163952	9.702898	-0.017655	0.074642	-0.033792	1.000000	-0.000055	0.000074	0.000045	-1.340019	-6.841285	47.619475
26275	1.196608	-0.218334	9.694804	0.015871	0.031052	-0.041938	1.000000	-0.000078	0.000070	0.000018	-1.343549	-6.835559	47.619915
26276	1.152364	-0.238326	9.723229	-0.001281	-0.015947	-0.018522	1.000000	-0.000046	0.000080	0.000025	-1.343594	-6.828605	47.620653
26277	1.173285	-0.167946	9.741551	-0.040340	0.046668	0.000509	1.000000	-0.000073	0.000075	0.000027	-1.346717	-6.822255	47.621693
26278	1.176344	-0.238133	9.744981	0.013456	0.002248	0.005916	1.000000	-0.000061	0.000067	0.000018	-1.348344	-6.816807	47.621684
26279	1.169984	-0.186527	9.772460	-0.031205	0.031366	0.031228	1.000000	-0.000070	0.000059	0.000020	-1.351127	-6.812367	47.623719
26280	1.168175	-0.203685	9.803209	-0.022484	0.016997	0.061938	1.000000	-0.000053	0.000056	0.000019	-1.351890	-6.808161	47.623889
26281	1.128799	-0.210223	9.741245	-0.037817	-0.011455	-0.004085	1.000000	-0.000057	0.000027	0.000002	-1.352915	-6.807384	47.622560
26282	1.142664	-0.227289	9.752853	-0.017105	-0.013232	0.009482	1.000000	-0.000065	0.000043	0.000038	-1.355261	-6.804712	47.624904
26283	1.153679	-0.225975	9.793458	-0.014774	-0.006732	0.051064	1.000000	-0.000067	0.000022	0.000022	-1.357527	-6.804525	47.624626
26284	1.141567	-0.229935	9.752919	-0.016230	-0.015110	0.009481	1.000000	-0.000062	0.000025	0.000012	-1.359245	-6.803982	47.624036
26285	1.144010	-0.249723	9.723930	0.002594	-0.024353	-0.018540	1.000000	-0.000067	0.000022	0.000022	-1.361557	-6.803817	47.624980
26286	1.170595	-0.248245	9.745421	0.016909	-0.005243	0.005909	1.000000	-0.000059	0.000009	0.000005	-1.362865	-6.805113	47.623603
26287	1.173857	-0.251924	9.685792	0.027439	-0.001011	-0.052809	1.000000	-0.000055	0.000025	0.000008	-1.363649	-6.804588	47.621670
26288	1.173431	-0.252894	9.685818	0.027869	-0.001935	-0.052811	1.000000	-0.000042	0.000019	0.000018	-1.363160	-6.804696	47.621817
26289	1.143087	-0.238354	9.693382	-0.003981	-0.014603	-0.049241	1.000000	-0.000077	0.000037	0.000033	-1.366867	-6.802669	47.624545
26290	1.174190	-0.289752	9.687524	0.055400	-0.025542	-0.050153	1.000000	-0.000043	0.000053	0.000022	-1.366527	-6.798791	47.625085
26291	1.168930	-0.221952	9.684413	0.002469	0.017040	-0.055473	1.000000	-0.000060	0.000032	0.000014	-1.368006	-6.797376	47.624572
26292	1.166659	-0.255061	9.745717	0.019497	-0.010835	0.005900	1.000000	-0.000060	0.000056	0.000023	-1.369659	-6.793166	47.625151
26293	1.180797	-0.256115	9.726752	0.031903	0.000826	-0.011231	1.000000	-0.000053	0.000056	0.000019	-1.370394	-6.789103	47.628228
26294	1.152135	-0.275839	9.735957	0.026741	-0.033600	-0.005011	1.000000	-0.000050	0.000053	0.000026	-1.370944	-6.785219	47.629175
26295	1.163441	-0.258298	9.746016	0.020782	-0.013661	0.005893	1.000000	-0.000051	0.000051	0.000007	-1.371204	-6.781700	47.628577
26296	1.144880	-0.224909	9.763612	-0.017447	-0.005445	0.020376	1.000000	-0.000041	0.000061	0.000024	-1.370627	-6.776909	47.629308
26297	1.159162	-0.225565	9.744648	-0.005034	0.006220	0.003250	1.000000	-0.000033	0.000038	0.000012	-1.368927	-6.774984	47.630486
26298	1.130888	-0.245012	9.753796	-0.010196	-0.028208	0.009460	1.000000	-0.000042	0.000032	0.000032	-1.368634	-6.773574	47.632196
26299	1.142536	-0.227312	9.763831	-0.016141	-0.008263	0.020376	1.000000	-0.000040	0.000038	0.000015	-1.367804	-6.771529	47.629724
26300	1.117963	-0.249275	9.713326	-0.011244	-0.037454	-0.032137	1.000000	-0.000040	0.000027	0.000020	-1.367078	-6.770724	47.630061
26301	1.142131	-0.212965	9.733326	-0.023585	0.003370	-0.010295	1.000000	-0.000037	0.000024	0.000027	-1.366101	-6.770289	47.632162
26302	1.144451	-0.232287	9.704338	-0.004788	-0.005813	-0.038341	1.000000	-0.000048	0.000037	0.000019	-1.366241	-6.768244	47.632322
26303	1.156100	-0.214664	9.714383	-0.010736	0.014122	-0.027414	1.000000	-0.000045	0.000033	0.000007	-1.365854	-6.766869	47.631506
26304	1.138039	-0.181305	9.731936	-0.048959	0.022336	-0.012908	1.000000	-0.000050	0.000030	0.000017	-1.366233	-6.765740	47.631475
26305	1.152059	-0.198056	9.743519	-0.028248	0.020497	0.000641	1.000000	-0.000037	0.000022	0.000008	-1.365042	-6.765694	47.632953
26306	1.153615	-0.233375	9.745122	-0.001140	-0.002196	0.003253	1.000000	-0.000050	0.000042	0.000031	-1.365616	-6.763046	47.634486
26307	1.166033	-0.199828	9.724582	-0.015392	0.031249	-0.016472	1.000000	-0.000048	0.000025	0.000005	-1.365421	-6.762572	47.632438
26308	1.137952	-0.219502	9.733670	-0.020558	-0.003182	-0.010289	1.000000	-0.000055	0.000025	0.000008	-1.366256	-6.762041	47.631441
26309	1.194810	-0.217571	9.717150	0.017740	0.041123	-0.020042	1.000000	-0.000043	0.000030	0.000013	-1.365730	-6.760988	47.631292
26310	1.161428	-0.184302	9.753774	-0.032455	0.036698	0.011599	1.000000	-0.000048	0.000037	0.000019	-1.365871	-6.758945	47.631453
26311	1.178353	-0.219580	9.736301	0.006611	0.026630	-0.002920	1.000000	-0.000047	0.000016	0.000028	-1.366108	-6.759451	47.634719
26312	1.148713	-0.188918	9.713278	-0.033550	0.027502	-0.029992	1.000000	-0.000063	0.000046	0.000002	-1.367788	-6.756447	47.632963
26313	1.150080	-0.224290	9.714880	-0.006444	0.004804	-0.027402	1.000000	-0.000030	0.000037	0.000037	-1.366131	-6.754460	47.634600
26315	1.134292	-0.217789	9.718709	-0.044298	-0.003979	9.761464	1.000000	-0.000105	0.000054	0.000025	-1.372903	-6.750500	47.635472
26316	1.159957	-0.224685	9.755608	-0.003638	0.010263	0.014202	1.000000	-0.000047	0.000027	0.000024	-1.373061	-6.749768	47.637755
26317	1.147170	-0.244290	9.745615	0.003168	-0.011532	0.003246	1.000000	-0.000057	0.000019	0.000025	-1.374354	-6.749867	47.638714
26318	1.147567	-0.229431	9.715057	-0.004731	0.001068	-0.027400	1.000000	-0.000057	0.000019	0.000025	-1.375569	-6.750085	47.640824
26319	1.161646	-0.246375	9.726613	0.016001	-0.000767	-0.013868	1.000000	-0.000048	0.000025	0.000005	-1.375517	-6.749562	47.639422
26320	1.161893	-0.231318	9.696081	0.008100	0.011854	-0.044510	1.000000	-0.000047	0.000029	0.000042	-1.375872	-6.748532	47.643361
26321	1.161393	-0.232345	9.696117	0.008530	0.010930	-0.044509	1.000000	-0.000052	0.000022	0.000015	-1.376493	-6.748321	47.643139
26322	1.147748	-0.267876	9.716690	0.023671	-0.024430	-0.024839	1.000000	-0.000045	0.000032	0.000007	-1.376124	-6.746889	47.640940
26323	1.145000	-0.234458	9.715240	-0.002569	-0.003579	-0.027399	1.000000	-0.000055	0.000027	0.000027	-1.377178	-6.746076	47.642092
26324	1.159022	-0.251448	9.726796	0.018157	-0.005445	-0.013873	1.000000	-0.000052	0.000022	0.000015	-1.377746	-6.746000	47.643472
26325	1.189166	-0.252219	9.688747	0.042527	0.018936	-0.048089	1.000000	-0.000052	0.000022	0.000015	-1.378367	-6.745790	47.643250
26326	1.170477	-0.235047	9.736890	0.012656	0.013528	-0.002899	1.000000	-0.000055	0.000025	0.000008	-1.379078	-6.745387	47.643250
26327	1.130645	-0.257165	9.705329	0.005513	-0.028191	-0.038380	1.000000	-0.000046	0.000043	0.000002	-1.378766	-6.742718	47.641458
26328	1.169255	-0.237030	9.736989	0.013546	0.011670	-0.002898	1.000000	-0.000054	0.000014	0.000013	-1.379518	-6.743335	47.638097
26329	1.171808	-0.256508	9.707925	0.032307	0.002546	-0.030986	1.000000	-0.000055	0.000027	0.000027	-1.380573	-6.742523	47.639249
26330	1.141597	-0.241791	9.715461	0.000457	-0.010118	-0.027404	1.000000	-0.000050	0.000017	0.000003	-1.380772	-6.742973	47.638971
26331	1.183111	-0.239844	9.718057	0.026801	0.021542	-0.020000	1.000000	-0.000031	0.000045	0.000014	-1.378900	-6.740034	47.638515
26332	1.167806	-0.224727	9.706616	0.006905	0.021524	-0.033518	1.000000	-0.000048	0.000037	0.000019	-1.379036	-6.738170	47.641230
26333	1.167098	-0.225602	9.706681	0.007336	0.020599	-0.033516	1.000000	-0.000038	0.000035	0.000022	-1.378076	-6.736458	47.641763
26334	1.123386	-0.245270	9.734747	-0.009813	-0.026524	-0.010307	1.000000	-0.000045	0.000045	0.000021	-1.377977	-6.733610	47.643529
26335	1.179883	-0.243249	9.718365	0.028497	0.017800	-0.019997	1.000000	-0.000041	0.000048	0.000010	-1.377210	-6.730347	47.642705
26336	1.163820	-0.244467	9.737456	0.016968	0.004170	-0.002897	1.000000	-0.000065	0.000029	0.000024	-1.379230	-6.729345	47.644592
26337	1.133378	-0.229690	9.745015	-0.014873	-0.008491	0.000688	1.000000	-0.000030	0.000037	0.000037	-1.377600	-6.727358	47.646867
26338	1.175530	-0.211580	9.717119	0.003148	0.036773	-0.022505	1.000000	-0.000038	0.000043	-0.000002	-1.376315	-6.724625	47.641885
26339	0.825995	0.599586	3.926963	-0.267154	0.732713	-5.830909	1.000000	0.000664	-0.000210	-0.000063	-1.293863	-6.751141	47.633253
26340	5.122963	-2.810935	24.733670	3.120352	0.040386	15.409556	0.999998	0.001019	-0.001589	-0.000286	-1.167962	-6.936393	47.604023
26341	-7.009177	0.154852	3.418853	-5.123180	-5.291501	-7.244831	0.999994	0.000819	0.003266	0.000925	-1.080186	-6.562382	47.701478
26342	8.509404	1.432617	0.001605	4.635984	7.210341	-8.822571	0.999975	0.005556	-0.004092	-0.001207	-0.422130	-7.035458	47.571543
26343	-3.751480	-0.330580	24.374876	-4.460036	-4.958481	13.932527	0.999990	-0.004081	0.001680	0.000493	-0.890776	-6.844595	47.624312
26344	3.205663	-0.248550	0.381855	2.293020	2.155218	-9.050483	1.000000	-0.000217	0.000896	0.000290	-0.913800	-6.743768	47.658971
26345	0.660214	0.408960	8.860123	-0.669535	0.082864	-0.944218	1.000000	-0.000056	-0.000657	-0.000026	-0.914470	-6.821366	47.655279
26346	1.239615	-0.678108	12.263068	0.199196	-0.484807	2.520380	1.000000	-0.000694	0.000218	0.000034	-0.988714	-6.798832	47.659860
26347	1.163078	-0.300271	10.512125	0.031393	-0.152942	0.766693	1.000000	0.000703	-0.000182	0.000010	-0.902734	-6.821954	47.659466
26348	1.456779	0.041795	9.995035	0.024117	0.328691	0.282661	1.000000	-0.000431	-0.000020	-0.000008	-0.946400	-6.826770	47.659611
26349	1.131862	-0.233131	9.107082	0.088436	-0.026291	-0.633041	1.000000	0.000027	-0.000090	-0.000136	-0.935898	-6.839602	47.642137
26350	1.176826	0.043047	9.737122	-0.143366	0.142561	-0.006697	1.000000	-0.000000	-0.000030	-0.000065	-0.929377	-6.845686	47.635783
26351	1.214022	0.154148	9.484335	-0.177600	0.262587	-0.254983	1.000000	-0.000019	-0.000102	0.000017	-0.926248	-6.859633	47.635972
26352	1.330620	-0.444913	9.138214	0.373671	-0.030365	-0.574999	1.000000	-0.000060	0.000046	0.000028	-0.927838	-6.856728	47.638030
26353	1.594822	-0.099417	10.258765	0.191406	0.311343	0.563344	1.000000	-0.000153	0.000038	0.000043	-0.940410	-6.854547	47.640961
26354	1.296694	-0.178972	9.394159	0.129770	0.106378	-0.329253	1.000000	-0.000054	0.000005	0.000037	-0.941404	-6.856522	47.648022
26355	1.117247	-0.085164	9.438984	-0.063430	0.035040	-0.307706	1.000000	-0.000050	0.000081	0.000072	-0.942572	-6.849351	47.654287
26356	1.279375	-0.016752	9.946070	-0.051397	0.161694	0.213907	1.000000	0.000002	0.000071	0.000052	-0.937464	-6.843628	47.660124
26357	1.146601	-0.202758	9.496453	0.039764	-0.025962	-0.245233	1.000000	-0.000047	0.000104	0.000034	-0.937689	-6.833940	47.661908
26358	1.130296	-0.259393	9.798094	0.043948	-0.098243	0.053209	1.000000	-0.000034	0.000098	0.000044	-0.936481	-6.825033	47.665842
26359	1.164274	-0.236509	9.889381	0.042102	-0.064055	0.147506	1.000000	-0.000058	0.000051	0.000011	-0.937700	-6.821420	47.665066
26360	1.015187	-0.295767	9.582921	0.015057	-0.189270	-0.173475	1.000000	-0.000032	0.000093	0.000032	-0.936036	-6.813284	47.669809
26361	1.130942	-0.079604	9.990797	-0.103857	0.011005	0.241689	1.000000	-0.000055	0.000048	0.000017	-0.937040	-6.809995	47.669806
26362	1.118053	-0.175961	9.824312	-0.025946	-0.050351	0.076443	1.000000	-0.000057	0.000028	0.000002	-0.937980	-6.809174	47.667864
26363	1.037929	-0.168614	9.729024	-0.075842	-0.097137	-0.027778	1.000000	0.000002	0.000019	-0.000003	-0.932159	-6.809317	47.665570
26364	1.096967	-0.124039	9.870782	-0.081974	-0.035078	0.119236	1.000000	-0.000045	0.000009	-0.000002	-0.931563	-6.810801	47.665643
26365	1.105860	-0.180178	9.783760	-0.026683	-0.060316	0.034800	1.000000	-0.000022	-0.000015	-0.000022	-0.928250	-6.814855	47.661220
26366	1.134600	-0.145987	9.744040	-0.029033	-0.014036	-0.001780	1.000000	-0.000015	-0.000013	-0.000007	-0.924178	-6.818727	47.659355
26367	1.206254	-0.016681	9.832818	-0.084922	0.118028	0.092791	1.000000	-0.000036	-0.000037	-0.000005	-0.922689	-6.825243	47.656892
26368	1.157657	-0.168567	9.636224	0.011920	-0.005688	-0.105719	1.000000	-0.000073	-0.000024	0.000026	-0.925815	-6.830492	47.662126
26369	1.134750	-0.098356	9.711595	-0.062818	0.018646	-0.034747	1.000000	-0.000038	-0.000017	0.000039	-0.925183	-6.834637	47.664765
26370	1.209893	-0.130944	9.677622	0.014078	0.053906	-0.059008	1.000000	-0.000053	-0.000017	0.000046	-0.926279	-6.838937	47.670351
26371	1.197639	-0.150693	9.667614	0.020850	0.032173	-0.070083	1.000000	-0.000061	0.000005	0.000040	-0.928268	-6.840592	47.673058
26372	1.219904	-0.080409	9.685998	-0.018093	0.094623	-0.050315	1.000000	-0.000054	0.000029	0.000046	-0.929461	-6.839792	47.680791
26373	1.183421	-0.187488	9.688336	0.036425	-0.004237	-0.050611	1.000000	-0.000050	0.000043	0.000031	-0.930037	-6.837154	47.682338
26374	1.182534	-0.188566	9.688423	0.036843	-0.005180	-0.050613	1.000000	-0.000052	0.000048	0.000043	-0.931029	-6.834071	47.687513
26375	1.118459	-0.155673	9.763018	-0.037133	-0.035242	0.015288	1.000000	-0.000075	0.000033	0.000021	-0.934289	-6.832600	47.687930
26376	1.108161	-0.193965	9.724082	-0.012117	-0.065080	-0.023968	1.000000	-0.000053	0.000056	0.000019	-0.935054	-6.828660	47.691181
26377	1.104041	-0.176550	9.753218	-0.029954	-0.057936	0.004191	1.000000	-0.000051	0.000064	0.000021	-0.935584	-6.823550	47.691578
26378	1.099256	-0.175048	9.812944	-0.039391	-0.064552	0.062896	1.000000	-0.000051	0.000038	-0.000007	-0.935658	-6.821578	47.690235
26379	1.114126	-0.175739	9.793955	-0.027024	-0.052744	0.045822	1.000000	-0.000027	0.000006	-0.000003	-0.933194	-6.823208	47.687989
26380	1.136653	-0.104923	9.812386	-0.065936	0.009693	0.065646	1.000000	-0.000039	0.000003	0.000011	-0.932202	-6.825316	47.688703
26381	1.137745	-0.089909	9.781746	-0.073905	0.022501	0.035111	1.000000	-0.000056	-0.000029	0.000007	-0.933145	-6.830905	47.687654
26382	1.156500	-0.109443	9.733620	-0.043278	0.026236	-0.010123	1.000000	-0.000058	-0.000024	0.000019	-0.934439	-6.836013	47.689727
26383	1.228143	-0.139652	9.759236	0.023767	0.055857	0.024326	1.000000	-0.000048	-0.000038	0.000027	-0.934739	-6.842576	47.690998
26384	1.219260	-0.177601	9.720108	0.048782	0.026052	-0.014954	1.000000	-0.000046	-0.000019	0.000024	-0.934723	-6.847168	47.693972
26385	1.248248	-0.144118	9.680416	0.046400	0.072423	-0.051440	1.000000	-0.000058	-0.000033	0.000043	-0.936351	-6.853133	47.697025
26386	1.290834	-0.142769	9.682886	0.072762	0.104009	-0.043921	1.000000	-0.000071	-0.000016	0.000028	-0.939147	-6.857380	47.700910
26387	1.253856	-0.199432	9.652810	0.092189	0.040702	-0.077262	1.000000	-0.000036	0.000002	0.000036	-0.938257	-6.859381	47.703173
26388	1.239186	-0.184418	9.641257	0.072271	0.040764	-0.090725	1.000000	-0.000049	0.000019	0.000022	-0.938597	-6.859635	47.705309
26389	1.220591	-0.167141	9.689356	0.042524	0.035124	-0.045479	1.000000	-0.000057	0.000019	0.000025	-0.939890	-6.859740	47.706264
26390	1.183008	-0.223681	9.659336	0.061929	-0.028207	-0.078845	1.000000	-0.000043	0.000030	0.000013	-0.939302	-6.858836	47.708167
26391	1.207065	-0.187439	9.679448	0.049703	0.012452	-0.056601	1.000000	-0.000036	0.000040	0.000005	-0.937878	-6.856482	47.706757
26392	1.172744	-0.169946	9.746628	0.008033	-0.005990	0.005707	1.000000	-0.000043	0.000040	0.000009	-0.937264	-6.854269	47.707287
26393	1.148789	-0.175526	9.665508	0.004278	-0.020943	-0.077590	1.000000	-0.000014	0.000053	0.000008	-0.933371	-6.850425	47.706236
26394	1.153646	-0.136723	9.764305	-0.029701	0.001149	0.020439	1.000000	-0.000043	0.000028	-0.000005	-0.932517	-6.849806	47.705451
26395	1.152959	-0.137507	9.764375	-0.029265	0.000221	0.020440	1.000000	-0.000035	0.000043	0.000024	-0.931318	-6.847185	47.706192
26396	1.166595	-0.154157	9.776021	-0.008493	-0.001758	0.033897	1.000000	-0.000036	0.000040	0.000005	-0.929810	-6.845012	47.706573
26397	1.150626	-0.155009	9.795106	-0.019976	-0.015457	0.050954	1.000000	-0.000040	0.000027	0.000020	-0.929087	-6.844217	47.706916
26398	1.181579	-0.139727	9.726543	-0.004126	0.022910	-0.013669	1.000000	-0.000047	0.000027	0.000024	-0.929111	-6.843538	47.708438
26399	1.150539	-0.140724	9.764615	-0.027528	-0.003558	0.020444	1.000000	-0.000032	0.000016	0.000021	-0.927523	-6.843985	47.708949
26400	1.153245	-0.159985	9.735572	-0.008877	-0.012522	-0.007755	1.000000	-0.000049	0.000008	0.000026	-0.927956	-6.845550	47.712626
26401	1.167452	-0.176764	9.747143	0.011906	-0.014473	0.005695	1.000000	-0.000032	0.000016	0.000021	-0.926368	-6.845997	47.713137
26402	1.149856	-0.143175	9.764660	-0.026263	-0.006401	0.020446	1.000000	-0.000039	0.000005	0.000030	-0.925658	-6.847876	47.716877
26403	1.164294	-0.159944	9.776203	-0.005478	-0.008357	0.033896	1.000000	-0.000042	-0.000005	0.000009	-0.924998	-6.850736	47.716016
26404	1.152840	-0.163132	9.735568	-0.007163	-0.016289	-0.007759	1.000000	-0.000029	-0.000000	0.000014	-0.922894	-6.853183	47.717407
26405	1.168225	-0.163817	9.716530	0.005185	-0.004435	-0.024812	1.000000	-0.000046	-0.000008	0.000019	-0.922911	-6.856363	47.717725
26406	1.165331	-0.146210	9.745579	-0.012626	0.002605	0.003397	1.000000	-0.000032	0.000003	0.000007	-0.921070	-6.858483	47.719726
26407	1.123254	-0.149497	9.742977	-0.038136	-0.030847	-0.004158	1.000000	-0.000032	-0.000008	0.000012	-0.919308	-6.861673	47.719232
26408	1.120361	-0.131895	9.772029	-0.055945	-0.023816	0.024053	1.000000	-0.000047	0.000003	0.000014	-0.919247	-6.863795	47.721071
26409	1.153786	-0.150871	9.704932	-0.013459	-0.007154	-0.038259	1.000000	-0.000030	0.000011	0.000009	-0.917221	-6.864835	47.720204
26411	1.129699	-0.134684	9.732707	-0.088485	-0.032783	9.785040	1.000000	-0.000059	-0.000002	0.000009	-0.918495	-6.867573	47.721898
26412	1.147813	-0.115957	9.763064	-0.049061	0.006923	0.018176	1.000000	-0.000039	0.000003	0.000011	-0.917598	-6.869522	47.721238
26413	1.123085	-0.153743	9.742930	-0.035987	-0.035571	-0.004166	1.000000	-0.000042	-0.000005	0.000009	-0.916801	-6.872483	47.721328
26414	1.133575	-0.101602	9.751480	-0.068539	0.006080	0.004743	1.000000	-0.000034	-0.000014	0.000029	-0.915502	-6.876322	47.722785
26415	1.165624	-0.152626	9.745445	-0.009160	-0.004928	0.003400	1.000000	-0.000036	-0.000011	0.000022	-0.914283	-6.879902	47.724663
26416	1.166169	-0.153449	9.745367	-0.008725	-0.005855	0.003400	1.000000	-0.000043	-0.000046	0.000022	-0.913937	-6.887389	47.725319
26417	1.191626	-0.117427	9.765397	-0.020934	0.034710	0.025763	1.000000	-0.000048	-0.000027	0.000022	-0.914154	-6.892946	47.728350
26418	1.167385	-0.155380	9.745191	-0.007872	-0.007746	0.003399	1.000000	-0.000048	-0.000027	0.000022	-0.914436	-6.898280	47.729040
26419	1.238613	-0.118933	9.708186	0.015652	0.071230	-0.025356	1.000000	-0.000031	-0.000030	0.000022	-0.912631	-6.904067	47.730241
26420	1.211392	-0.138318	9.717070	0.010495	0.036740	-0.019497	1.000000	-0.000046	-0.000019	0.000024	-0.912674	-6.908489	47.731132
26421	1.226163	-0.155172	9.728543	0.031280	0.034734	-0.006062	1.000000	-0.000041	-0.000016	0.000014	-0.911964	-6.912753	47.731968
26422	1.226419	-0.155972	9.728497	0.031715	0.033806	-0.006060	1.000000	-0.000036	-0.000011	0.000022	-0.910879	-6.916268	47.732653
26423	1.196858	-0.140898	9.735960	-0.000123	0.021097	-0.002448	1.000000	-0.000039	-0.000008	0.000016	-0.909932	-6.919623	47.733908
26424	1.182573	-0.125731	9.724407	-0.020049	0.021227	-0.015875	1.000000	-0.000039	-0.000008	0.000016	-0.909060	-6.922812	47.733820
26425	1.154401	-0.161093	9.763844	-0.016751	-0.027141	0.020432	1.000000	-0.000031	-0.000032	0.000003	-0.907113	-6.928792	47.733519
26426	1.113757	-0.148397	9.730648	-0.050734	-0.046706	-0.017626	1.000000	-0.000046	-0.000032	0.000010	-0.906956	-6.934717	47.732830
26427	1.155667	-0.162610	9.763670	-0.015895	-0.029018	0.020428	1.000000	-0.000029	-0.000035	0.000010	-0.904804	-6.941123	47.733749
26428	1.187044	-0.163191	9.725512	0.008339	-0.004317	-0.013646	1.000000	-0.000050	-0.000046	0.000025	-0.905351	-6.948610	47.734810
26429	1.216446	-0.129503	9.685901	0.005899	0.042194	-0.049933	1.000000	-0.000046	-0.000043	0.000015	-0.905189	-6.955837	47.736063
26430	1.234429	-0.164719	9.668214	0.044901	0.032273	-0.064752	1.000000	-0.000044	-0.000024	0.000012	-0.904794	-6.960851	47.735575
26431	1.238517	-0.167938	9.608514	0.055056	0.037293	-0.123454	1.000000	-0.000051	-0.000011	0.000029	-0.905479	-6.964461	47.738742
26432	1.277769	-0.147873	9.640158	0.063247	0.076806	-0.087601	1.000000	-0.000034	0.000008	0.000019	-0.904131	-6.965827	47.739057
26433	1.237239	-0.185752	9.639070	0.064393	0.021534	-0.093000	1.000000	-0.000048	0.000037	0.000019	-0.904115	-6.963920	47.740134
26434	1.233503	-0.168451	9.668268	0.046628	0.028538	-0.064748	1.000000	-0.000055	0.000048	0.000018	-0.905124	-6.960647	47.740155
26435	1.244831	-0.150899	9.678474	0.040754	0.048341	-0.053525	1.000000	-0.000033	0.000061	0.000021	-0.903602	-6.956003	47.741530
26436	1.213084	-0.151956	9.716655	0.017399	0.021764	-0.019462	1.000000	-0.000046	0.000056	0.000016	-0.903482	-6.951822	47.741345
26437	1.208998	-0.134456	9.745902	-0.000361	0.028740	0.008796	1.000000	-0.000036	0.000064	0.000014	-0.902184	-6.946799	47.742083
26438	1.177284	-0.135484	9.784067	-0.023711	0.002152	0.042857	1.000000	-0.000041	0.000048	0.000011	-0.901412	-6.943535	47.741291
26439	1.165006	-0.138742	9.743525	-0.025450	-0.005631	0.001185	1.000000	-0.000050	0.000030	0.000017	-0.901696	-6.942491	47.741352
26440	1.160471	-0.137201	9.803243	-0.034725	-0.012563	0.059887	1.000000	-0.000016	0.000045	0.000007	-0.898038	-6.939565	47.740114
26441	1.176114	-0.121575	9.753762	-0.030864	0.013236	0.012422	1.000000	-0.000044	0.000011	0.000016	-0.897676	-6.940645	47.740502
26442	1.145172	-0.122814	9.791820	-0.054211	-0.013363	0.046477	1.000000	-0.000052	0.000022	0.000015	-0.898298	-6.940440	47.740285
26443	1.187896	-0.105068	9.763917	-0.036294	0.032101	0.023667	1.000000	-0.000042	0.000008	0.000023	-0.897811	-6.941906	47.742242
26444	1.207211	-0.174688	9.747687	0.029366	0.000362	0.010979	1.000000	-0.000041	-0.000003	0.000028	-0.897381	-6.944510	47.743533
26445	1.176234	-0.109244	9.723291	-0.037637	0.023406	-0.018001	1.000000	-0.000054	0.000014	0.000013	-0.898241	-6.945437	47.745094
26446	1.204939	-0.142235	9.746295	0.003546	0.020302	0.008817	1.000000	-0.000044	-0.000000	0.000021	-0.898025	-6.947714	47.745613
26447	1.193433	-0.145379	9.705657	0.001783	0.012548	-0.032860	1.000000	-0.000037	-0.000000	0.000018	-0.896831	-6.950123	47.747204
26448	1.178983	-0.130228	9.694151	-0.018158	0.012716	-0.046264	1.000000	-0.000047	0.000003	0.000014	-0.896827	-6.952073	47.746950
26449	1.235288	-0.144647	9.708260	0.028619	0.043172	-0.025221	1.000000	-0.000052	0.000022	0.000015	-0.897421	-6.951940	47.748425
26450	1.193633	-0.132131	9.675190	-0.005409	0.023706	-0.063280	1.000000	-0.000052	0.000022	0.000015	-0.898044	-6.951736	47.748209
26451	1.192236	-0.149301	9.705744	0.003508	0.008815	-0.032856	1.000000	-0.000050	0.000030	0.000017	-0.898367	-6.950752	47.749561
26452	1.204774	-0.115706	9.685442	-0.010839	0.042569	-0.052015	1.000000	-0.000048	0.000048	0.000014	-0.898487	-6.947487	47.749179
26454	1.160485	-0.135912	9.713471	-0.055814	-0.009630	9.754215	1.000000	-0.000101	0.000081	0.000024	-0.904745	-6.940689	47.751179
26455	1.155446	-0.135235	9.773235	-0.037148	-0.011821	0.029464	1.000000	-0.000043	0.000042	0.000027	-0.904441	-6.938079	47.752341
26456	1.170010	-0.136081	9.754304	-0.024826	0.000086	0.012448	1.000000	-0.000052	0.000034	0.000029	-0.905184	-6.936453	47.753482
26457	1.138810	-0.137449	9.792367	-0.048156	-0.026555	0.046482	1.000000	-0.000052	0.000022	0.000015	-0.905808	-6.936251	47.753266
26458	1.150837	-0.120042	9.802537	-0.053990	-0.006779	0.057753	1.000000	-0.000047	0.000016	0.000028	-0.905881	-6.936734	47.754408
26459	1.167876	-0.155375	9.784899	-0.015006	-0.016684	0.042860	1.000000	-0.000055	0.000014	0.000013	-0.906744	-6.937444	47.753990
26460	1.153412	-0.140381	9.773403	-0.034954	-0.016511	0.029466	1.000000	-0.000046	-0.000008	0.000019	-0.906761	-6.940671	47.755310
26461	1.156385	-0.159675	9.744231	-0.016355	-0.025300	0.001173	1.000000	-0.000054	0.000003	0.000018	-0.907650	-6.942621	47.755462
26462	1.201561	-0.176430	9.717673	0.028221	-0.001638	-0.019463	1.000000	-0.000049	-0.000016	0.000017	-0.907822	-6.946839	47.756519
26463	1.202737	-0.161276	9.687136	0.020152	0.011416	-0.049867	1.000000	-0.000051	-0.000011	0.000029	-0.908526	-6.950356	47.758013
26464	1.199994	-0.143792	9.716258	0.002425	0.018313	-0.021570	1.000000	-0.000024	-0.000008	0.000009	-0.905758	-6.953705	47.758266
26465	1.232766	-0.178658	9.679546	0.053280	0.021288	-0.053489	1.000000	-0.000049	-0.000005	0.000013	-0.905995	-6.956569	47.757810
26466	1.203749	-0.147503	9.656601	0.012944	0.022571	-0.080265	1.000000	-0.000040	0.000027	0.000020	-0.905139	-6.955926	47.758946
26467	1.203328	-0.148548	9.656638	0.013377	0.021651	-0.080264	1.000000	-0.000065	0.000017	0.000010	-0.907106	-6.956307	47.758163
26468	1.199907	-0.131323	9.685847	-0.004349	0.028544	-0.051959	1.000000	-0.000038	0.000034	0.000022	-0.906061	-6.954758	47.759300
26469	1.198277	-0.148393	9.716400	0.004596	0.013624	-0.021563	1.000000	-0.000048	0.000037	0.000019	-0.906209	-6.952736	47.759491
26470	1.169891	-0.167883	9.725305	-0.000566	-0.020904	-0.015854	1.000000	-0.000043	0.000030	0.000013	-0.905627	-6.951672	47.759964
26471	1.194173	-0.131889	9.745686	-0.012678	0.019594	0.006747	1.000000	-0.000037	0.000024	0.000027	-0.904699	-6.951220	47.761090
26472	1.181296	-0.151312	9.735561	-0.005950	-0.002053	-0.004554	1.000000	-0.000062	0.000025	0.000012	-0.906312	-6.950648	47.760756
26473	1.180844	-0.152307	9.735601	-0.005514	-0.002980	-0.004554	1.000000	-0.000038	0.000022	0.000008	-0.905153	-6.950454	47.759730
26474	1.181211	-0.136959	9.705186	-0.013609	0.010081	-0.034939	1.000000	-0.000045	0.000036	0.000044	-0.905279	-6.948665	47.763664
26475	1.206647	-0.151787	9.757339	0.009464	0.014715	0.020135	1.000000	-0.000049	0.000006	0.000008	-0.905490	-6.950291	47.762639
26476	1.192015	-0.136669	9.745884	-0.010497	0.014905	0.006758	1.000000	-0.000042	0.000019	0.000018	-0.904977	-6.950517	47.763807
26477	1.209883	-0.155608	9.697747	0.019951	0.019042	-0.038560	1.000000	-0.000045	0.000022	0.000012	-0.904712	-6.950322	47.763187
26478	1.191301	-0.138381	9.745947	-0.009627	0.013018	0.006761	1.000000	-0.000037	0.000011	0.000013	-0.903468	-6.951514	47.763382
26479	1.206374	-0.138999	9.726972	0.002680	0.024978	-0.010238	1.000000	-0.000040	0.000016	0.000025	-0.902779	-6.951976	47.764306
26480	1.221265	-0.139593	9.708021	0.014980	0.036923	-0.027236	1.000000	-0.000035	0.000030	0.000010	-0.901327	-6.950970	47.765020
26481	1.191043	-0.124598	9.715600	-0.016848	0.024249	-0.023606	1.000000	-0.000052	0.000022	0.000015	-0.901954	-6.950772	47.764806
26482	1.203131	-0.107181	9.725816	-0.022686	0.044000	-0.012277	1.000000	-0.000045	0.000011	0.000016	-0.901655	-6.951951	47.766165
26483	1.178003	-0.144945	9.705460	-0.009722	0.001675	-0.034929	1.000000	-0.000052	0.000022	0.000015	-0.902282	-6.951754	47.765952
26484	1.189832	-0.127563	9.715710	-0.015550	0.021416	-0.023597	1.000000	-0.000048	0.000037	0.000019	-0.902294	-6.949876	47.766877
26485	1.174824	-0.112479	9.704311	-0.035511	0.021641	-0.036963	1.000000	-0.000047	0.000027	0.000024	-0.902471	-6.949097	47.767639
26486	1.188579	-0.129509	9.715837	-0.014675	0.019544	-0.023592	1.000000	-0.000048	0.000037	0.000019	-0.902514	-6.947155	47.768516
26487	1.187981	-0.130539	9.715897	-0.014240	0.018620	-0.023590	1.000000	-0.000052	0.000023	0.000034	-0.903373	-6.946702	47.770456
26488	1.159709	-0.150009	9.724732	-0.019398	-0.015920	-0.017933	1.000000	-0.000035	0.000030	0.000010	-0.901848	-6.945629	47.769704
26489	1.185885	-0.148642	9.746457	-0.004824	0.002693	0.006773	1.000000	-0.000060	0.000032	0.000014	-0.903341	-6.944191	47.769328
26490	1.172900	-0.168038	9.736302	0.001859	-0.018950	-0.004571	1.000000	-0.000040	0.000027	0.000020	-0.902589	-6.943558	47.771348
26491	1.169512	-0.150843	9.765537	-0.015827	-0.012092	0.023766	1.000000	-0.000057	0.000019	0.000025	-0.903898	-6.943689	47.772312
26492	1.154637	-0.135961	9.754121	-0.035793	-0.011878	0.010404	1.000000	-0.000060	0.000032	0.000014	-0.905333	-6.942335	47.772580
26493	1.196417	-0.134613	9.756835	-0.009349	0.019630	0.018126	1.000000	-0.000054	0.000003	0.000018	-0.906227	-6.944291	47.772731
26494	1.183874	-0.153993	9.746618	-0.002652	-0.002002	0.006774	1.000000	-0.000045	0.000011	0.000016	-0.905910	-6.945383	47.773547
26495	1.211285	-0.136269	9.737884	0.003391	0.030669	0.001140	1.000000	-0.000040	0.000025	0.000001	-0.904966	-6.944864	47.771751
26496	1.198510	-0.155434	9.727696	0.010076	0.009047	-0.010215	1.000000	-0.000037	0.000013	0.000032	-0.904058	-6.945706	47.773543
26497	1.183024	-0.156556	9.746681	-0.001349	-0.004794	0.006774	1.000000	-0.000054	0.000001	-0.000001	-0.904721	-6.947918	47.771541
26498	1.196147	-0.122851	9.726492	-0.015713	0.029015	-0.012207	1.000000	-0.000040	0.000027	0.000020	-0.903893	-6.947304	47.773301
26499	1.197766	-0.158299	9.727741	0.011378	0.006234	-0.010214	1.000000	-0.000057	0.000008	0.000030	-0.905231	-6.948677	47.774833
26500	1.198568	-0.143131	9.697316	0.003259	0.019361	-0.040554	1.000000	-0.000052	0.000011	0.000020	-0.905769	-6.949918	47.776462
26501	1.170544	-0.162716	9.706081	-0.001915	-0.015165	-0.034936	1.000000	-0.000047	0.000016	0.000028	-0.905976	-6.950383	47.777793
26502	1.182615	-0.145347	9.716341	-0.007737	0.004568	-0.023566	1.000000	-0.000050	0.000019	0.000022	-0.906334	-6.950649	47.779637
26503	1.197547	-0.146193	9.697396	0.004554	0.016566	-0.040549	1.000000	-0.000055	0.000025	0.000008	-0.907174	-6.950127	47.778653
26504	1.199130	-0.181582	9.698631	0.031636	-0.006245	-0.038574	1.000000	-0.000037	0.000013	0.000032	-0.906189	-6.951083	47.781581
26505	1.222617	-0.162232	9.749559	0.028129	0.020079	0.014511	1.000000	-0.000067	0.000021	0.000022	-0.908604	-6.950887	47.782180
26506	1.181113	-0.149575	9.716459	-0.006011	0.000829	-0.023563	1.000000	-0.000050	0.000017	0.000003	-0.908785	-6.951335	47.781250
26507	1.210378	-0.166301	9.708964	0.026687	0.011650	-0.027198	1.000000	-0.000035	0.000030	0.000010	-0.907391	-6.950236	47.780431
26508	1.219420	-0.130624	9.748478	0.002768	0.039129	0.012552	1.000000	-0.000047	0.000014	0.000010	-0.907362	-6.951058	47.780956
26509	1.194146	-0.168256	9.728019	0.015692	-0.003147	-0.010219	1.000000	-0.000045	0.000032	0.000007	-0.907073	-6.949628	47.779772
26510	1.176313	-0.134994	9.745858	-0.022386	0.004816	0.004806	1.000000	-0.000052	0.000022	0.000015	-0.907588	-6.949628	47.780345
26511	1.206583	-0.135482	9.707951	0.001754	0.029759	-0.029149	1.000000	-0.000040	0.000025	0.000001	-0.906644	-6.949111	47.778550
26512	1.219557	-0.168838	9.749831	0.031179	0.013517	0.014513	1.000000	-0.000055	0.000014	0.000013	-0.907444	-6.949750	47.778020
26513	1.206883	-0.121021	9.677604	-0.005919	0.042042	-0.059461	1.000000	-0.000035	0.000021	0.000033	-0.906310	-6.949639	47.779922
26514	1.216964	-0.136145	9.748710	0.005380	0.033483	0.012572	1.000000	-0.000045	0.000011	0.000016	-0.906009	-6.950933	47.781229
26515	1.202246	-0.120908	9.737309	-0.014596	0.033749	-0.000763	1.000000	-0.000040	0.000026	0.000020	-0.905298	-6.950164	47.781588
26516	1.176978	-0.158446	9.716820	-0.001676	-0.008535	-0.023565	1.000000	-0.000042	0.000019	0.000018	-0.904693	-6.950375	47.782112
26517	1.216725	-0.122378	9.718427	-0.001866	0.044815	-0.017729	1.000000	-0.000040	0.000026	0.000020	-0.903981	-6.949606	47.782472
26518	1.173109	-0.141956	9.746146	-0.018895	-0.002685	0.004814	1.000000	-0.000038	0.000022	0.000008	-0.902772	-6.949513	47.782409
26519	1.186828	-0.158815	9.757642	0.001957	-0.004815	0.018148	1.000000	-0.000035	0.000042	0.000024	-0.901584	-6.946923	47.783179
26520	1.186227	-0.159622	9.757702	0.002402	-0.005760	0.018148	1.000000	-0.000042	0.000019	0.000018	-0.901008	-6.947098	47.783517
26521	1.187882	-0.127904	9.696938	-0.014302	0.021621	-0.042459	1.000000	-0.000052	0.000022	0.000015	-0.901640	-6.946909	47.783306
26522	1.168050	-0.127299	9.775594	-0.035232	0.001271	0.033202	1.000000	-0.000043	0.000028	-0.000005	-0.900847	-6.946223	47.781162
26523	1.213606	-0.127607	9.718749	0.000742	0.039198	-0.017705	1.000000	-0.000057	0.000029	0.000021	-0.902134	-6.945123	47.781561
26524	1.182362	-0.129178	9.756728	-0.022514	0.012362	0.016236	1.000000	-0.000052	0.000021	0.000015	-0.902765	-6.944951	47.781911
26525	1.170482	-0.132196	9.716096	-0.024422	0.004943	-0.025481	1.000000	-0.000050	0.000029	0.000017	-0.903159	-6.943852	47.781906
26526	1.196812	-0.131036	9.737848	-0.009800	0.023458	-0.000727	1.000000	-0.000055	0.000014	0.000013	-0.904030	-6.944598	47.782253
26527	1.183948	-0.150439	9.727597	-0.003135	0.001875	-0.012152	1.000000	-0.000053	0.000032	0.000010	-0.904636	-6.943170	47.781477
26528	1.208330	-0.114700	9.748225	-0.015145	0.042237	0.010708	1.000000	-0.000037	0.000013	0.000032	-0.903613	-6.944021	47.784534
26529	1.165916	-0.118030	9.745493	-0.040745	0.008912	0.002922	1.000000	-0.000050	0.000017	0.000003	-0.903802	-6.944415	47.782941
26530	1.182898	-0.153377	9.727679	-0.001818	-0.000953	-0.012152	1.000000	-0.000062	0.000015	0.000035	-0.905688	-6.945003	47.785923
26531	1.182559	-0.154452	9.727703	-0.001383	-0.001880	-0.012152	1.000000	-0.000042	0.000019	0.000018	-0.905218	-6.945147	47.786079
26532	1.170824	-0.157344	9.687050	-0.003309	-0.009286	-0.053875	1.000000	-0.000050	0.000019	0.000022	-0.905582	-6.945376	47.787327
26533	1.182873	-0.140034	9.697383	-0.009100	0.010441	-0.042435	1.000000	-0.000050	0.000018	0.000022	-0.906005	-6.945520	47.787887
26534	1.181536	-0.157448	9.727779	-0.000086	-0.004699	-0.012153	1.000000	-0.000052	0.000011	0.000020	-0.906604	-6.946690	47.788354
26535	1.166994	-0.142368	9.716372	-0.020076	-0.004397	-0.025471	1.000000	-0.000052	0.000011	0.000020	-0.907266	-6.947744	47.788709
26536	1.196465	-0.159181	9.708843	0.012617	0.006389	-0.029114	1.000000	-0.000040	0.000014	0.000006	-0.906257	-6.948622	47.787595
26537	1.180739	-0.160350	9.727828	0.001214	-0.007508	-0.012155	1.000000	-0.000052	0.000021	0.000015	-0.906891	-6.948436	47.787385
26538	1.195643	-0.161037	9.708914	0.013502	0.004532	-0.029114	1.000000	-0.000043	0.000028	-0.000005	-0.906062	-6.947556	47.786148
26539	1.192352	-0.143875	9.738214	-0.004118	0.011275	-0.000702	1.000000	-0.000050	0.000006	0.000008	-0.906279	-6.949192	47.785121
26540	1.180725	-0.146735	9.697545	-0.006072	0.003891	-0.042427	1.000000	-0.000045	0.000022	0.000012	-0.905986	-6.949183	47.785481
26541	1.222507	-0.145307	9.700349	0.020409	0.035350	-0.034613	1.000000	-0.000055	0.000014	0.000013	-0.906859	-6.949908	47.785065
26542	1.194468	-0.164872	9.708994	0.015224	0.000770	-0.029116	1.000000	-0.000045	0.000011	0.000016	-0.906489	-6.951117	47.785813
26543	1.206673	-0.147467	9.719332	0.009444	0.020485	-0.017653	1.000000	-0.000045	0.000011	0.000016	-0.906258	-6.952174	47.785763
26544	1.178631	-0.167034	9.727972	0.004257	-0.014080	-0.012163	1.000000	-0.000055	0.000014	0.000013	-0.907077	-6.952981	47.785998
